{"assignmentId": "3ZGVPD4G6UO2YYOTBU06M5PWPH6ZTH", "workerId": "MTK3408", "questiondata": {"origin": "United States", "strat-rehearsal": "26", "marital": "Married/Domestic Partnership", "education": "Some college", "ethnicity": "Not Hispanic", "color_depth": 24, "distracted": "No", "wrote-notes": "No", "strat-other": "Meditated for a clear mind so I could do good work for your survey.", "screen_width": 820, "avail_screen_width": 820, "avail_screen_height": 584, "strat-image": "74", "language": "English", "gender": "Female", "age": "53", "gender_other": "", "race": ["White"], "strat-categorize": "77", "pixel_depth": 24, "strat-spatial": "16", "strat-story": "32", "race_other": "", "screen_height": 615}, "bonus": 0, "hitId": "33IXYHIZB5P8GK5Q6QXVBOJ4GSA2E4", "counterbalance": 714, "useragent": "Mozilla/5.0 (Windows NT 10.0; Win64; x64) AppleWebKit/537.36 (KHTML, like Gecko) Chrome/64.0.3282.186 Safari/537.36", "eventdata": [{"eventtype": "initialized", "interval": 0, "value": null, "timestamp": 1520528806019}, {"eventtype": "window_resize", "interval": 0, "value": [1097, 691], "timestamp": 1520528806019}, {"eventtype": "focus", "interval": 57070, "value": "off", "timestamp": 1520528863089}, {"eventtype": "focus", "interval": 2356, "value": "on", "timestamp": 1520528865445}, {"eventtype": "focus", "interval": 2151218, "value": "off", "timestamp": 1520531016663}, {"eventtype": "focus", "interval": 7848, "value": "on", "timestamp": 1520531024511}], "data": [{"current_trial": 0, "trialdata": {"rt": 2442, "trial_type": "text", "internal_node_id": "0.0-0.0", "time_elapsed": 2443, "key_press": 32, "type": "INSTRUCTIONS", "trial_index": 0}, "uniqueid": "MTK3408:3ZGVPD4G6UO2YYOTBU06M5PWPH6ZTH", "dateTime": 1520528813627}, {"current_trial": 1, "trialdata": {"rt": 3822, "trial_type": "text", "internal_node_id": "0.0-1.0", "time_elapsed": 6266, "key_press": 32, "type": "INSTRUCTIONS", "trial_index": 1}, "uniqueid": "MTK3408:3ZGVPD4G6UO2YYOTBU06M5PWPH6ZTH", "dateTime": 1520528817449}, {"current_trial": 2, "trialdata": {"rt": [19739], "trial_type": "audio-test", "responses": ["ocean"], "internal_node_id": "0.0-2.0", "time_elapsed": 26010, "type": "AUDIO_TEST", "trial_index": 2}, "uniqueid": "MTK3408:3ZGVPD4G6UO2YYOTBU06M5PWPH6ZTH", "dateTime": 1520528837193}, {"current_trial": 3, "trialdata": {"rt": [37076], "trial_type": "audio-test", "responses": ["crystal"], "internal_node_id": "0.0-3.0", "time_elapsed": 63090, "type": "AUDIO_TEST", "trial_index": 3}, "uniqueid": "MTK3408:3ZGVPD4G6UO2YYOTBU06M5PWPH6ZTH", "dateTime": 1520528874273}, {"current_trial": 4, "trialdata": {"rt": [10547], "trial_type": "audio-test", "responses": ["spice"], "internal_node_id": "0.0-4.0", "time_elapsed": 73641, "type": "AUDIO_TEST", "trial_index": 4}, "uniqueid": "MTK3408:3ZGVPD4G6UO2YYOTBU06M5PWPH6ZTH", "dateTime": 1520528884824}, {"current_trial": 5, "trialdata": {"rt": 30429, "trial_type": "survey-text", "responses": "{\"Q0\":\"11pm\",\"Q1\":\"6am\",\"Q2\":\"5\"}", "internal_node_id": "0.0-5.0", "time_elapsed": 104822, "type": "SLEEP_SURVEY", "trial_index": 5}, "uniqueid": "MTK3408:3ZGVPD4G6UO2YYOTBU06M5PWPH6ZTH", "dateTime": 1520528916005}, {"current_trial": 6, "trialdata": {"rt": 29529, "trial_type": "text", "internal_node_id": "0.0-6.0", "time_elapsed": 135353, "key_press": 40, "type": "INSTRUCTIONS", "trial_index": 6}, "uniqueid": "MTK3408:3ZGVPD4G6UO2YYOTBU06M5PWPH6ZTH", "dateTime": 1520528946537}, {"current_trial": 7, "trialdata": {"rt": 24483, "trial_type": "text", "internal_node_id": "0.0-7.0", "time_elapsed": 160337, "key_press": 32, "type": "INSTRUCTIONS", "trial_index": 7}, "uniqueid": "MTK3408:3ZGVPD4G6UO2YYOTBU06M5PWPH6ZTH", "dateTime": 1520528971521}, {"current_trial": 8, "trialdata": {"rt": 13131, "trial_type": "text", "internal_node_id": "0.0-8.0", "time_elapsed": 173969, "key_press": 32, "type": "INSTRUCTIONS", "trial_index": 8}, "uniqueid": "MTK3408:3ZGVPD4G6UO2YYOTBU06M5PWPH6ZTH", "dateTime": 1520528985152}, {"current_trial": 9, "trialdata": {"rt": [12934], "trial_type": "math-distractor", "key_times": [3158, 12934], "responses": ["9"], "num2": [3, 6], "num3": [3, 7], "conditions": [18, 1200, "a", 18000], "internal_node_id": "0.0-9.0", "key_presses": [105, 13], "trial": 0, "time_elapsed": 192971, "type": "DISTRACTOR", "trial_index": 9, "num1": [3, 2]}, "uniqueid": "MTK3408:3ZGVPD4G6UO2YYOTBU06M5PWPH6ZTH", "dateTime": 1520529004155}, {"current_trial": 10, "trialdata": {"rt": 188, "trial_type": "single-stim", "stimulus": "<p id=\"stim\">10</p>", "internal_node_id": "0.0-10.0-0.0", "time_elapsed": 195974, "key_press": 101, "trial_index": 10}, "uniqueid": "MTK3408:3ZGVPD4G6UO2YYOTBU06M5PWPH6ZTH", "dateTime": 1520529007157}, {"current_trial": 11, "trialdata": {"rt": -1, "trial_type": "single-stim", "stimulus": "<p id=\"stim\">9</p>", "internal_node_id": "0.0-10.0-1.0", "time_elapsed": 196977, "key_press": -1, "trial_index": 11}, "uniqueid": "MTK3408:3ZGVPD4G6UO2YYOTBU06M5PWPH6ZTH", "dateTime": 1520529008160}, {"current_trial": 12, "trialdata": {"rt": -1, "trial_type": "single-stim", "stimulus": "<p id=\"stim\">8</p>", "internal_node_id": "0.0-10.0-2.0", "time_elapsed": 197978, "key_press": -1, "trial_index": 12}, "uniqueid": "MTK3408:3ZGVPD4G6UO2YYOTBU06M5PWPH6ZTH", "dateTime": 1520529009161}, {"current_trial": 13, "trialdata": {"rt": -1, "trial_type": "single-stim", "stimulus": "<p id=\"stim\">7</p>", "internal_node_id": "0.0-10.0-3.0", "time_elapsed": 198978, "key_press": -1, "trial_index": 13}, "uniqueid": "MTK3408:3ZGVPD4G6UO2YYOTBU06M5PWPH6ZTH", "dateTime": 1520529010161}, {"current_trial": 14, "trialdata": {"rt": -1, "trial_type": "single-stim", "stimulus": "<p id=\"stim\">6</p>", "internal_node_id": "0.0-10.0-4.0", "time_elapsed": 199978, "key_press": -1, "trial_index": 14}, "uniqueid": "MTK3408:3ZGVPD4G6UO2YYOTBU06M5PWPH6ZTH", "dateTime": 1520529011161}, {"current_trial": 15, "trialdata": {"rt": -1, "trial_type": "single-stim", "stimulus": "<p id=\"stim\">5</p>", "internal_node_id": "0.0-10.0-5.0", "time_elapsed": 200980, "key_press": -1, "trial_index": 15}, "uniqueid": "MTK3408:3ZGVPD4G6UO2YYOTBU06M5PWPH6ZTH", "dateTime": 1520529012163}, {"current_trial": 16, "trialdata": {"rt": -1, "trial_type": "single-stim", "stimulus": "<p id=\"stim\">4</p>", "internal_node_id": "0.0-10.0-6.0", "time_elapsed": 201979, "key_press": -1, "trial_index": 16}, "uniqueid": "MTK3408:3ZGVPD4G6UO2YYOTBU06M5PWPH6ZTH", "dateTime": 1520529013164}, {"current_trial": 17, "trialdata": {"rt": -1, "trial_type": "single-stim", "stimulus": "<p id=\"stim\">3</p>", "internal_node_id": "0.0-10.0-7.0", "time_elapsed": 202980, "key_press": -1, "trial_index": 17}, "uniqueid": "MTK3408:3ZGVPD4G6UO2YYOTBU06M5PWPH6ZTH", "dateTime": 1520529014164}, {"current_trial": 18, "trialdata": {"rt": -1, "trial_type": "single-stim", "stimulus": "<p id=\"stim\">2</p>", "internal_node_id": "0.0-10.0-8.0", "time_elapsed": 203982, "key_press": -1, "trial_index": 18}, "uniqueid": "MTK3408:3ZGVPD4G6UO2YYOTBU06M5PWPH6ZTH", "dateTime": 1520529015165}, {"current_trial": 19, "trialdata": {"rt": -1, "trial_type": "single-stim", "stimulus": "<p id=\"stim\">1</p>", "internal_node_id": "0.0-10.0-9.0", "time_elapsed": 204982, "key_press": -1, "trial_index": 19}, "uniqueid": "MTK3408:3ZGVPD4G6UO2YYOTBU06M5PWPH6ZTH", "dateTime": 1520529016166}, {"current_trial": 20, "trialdata": {"rt": -1, "trial_type": "single-stim", "stimulus": "<p id=\"stim\">+</p>", "internal_node_id": "0.0-11.0-0.0", "time_elapsed": 206484, "key_press": -1, "type": "FIXATION", "trial_index": 20}, "uniqueid": "MTK3408:3ZGVPD4G6UO2YYOTBU06M5PWPH6ZTH", "dateTime": 1520529017667}, {"current_trial": 21, "trialdata": {"rt": -1000, "trial_type": "single-audio", "word": "critic", "stimulus": "/static/audio/wordpool/CRITIC.wav", "conditions": [18, 1200, "a", 18000], "internal_node_id": "0.0-12.0", "trial": 0, "time_elapsed": 208635, "serialpos": 0, "key_press": -1, "wordID": 409, "type": "PRES_AUD", "trial_index": 21}, "uniqueid": "MTK3408:3ZGVPD4G6UO2YYOTBU06M5PWPH6ZTH", "dateTime": 1520529019818}, {"current_trial": 22, "trialdata": {"rt": -1000, "trial_type": "single-audio", "word": "gallon", "stimulus": "/static/audio/wordpool/GALLON.wav", "conditions": [18, 1200, "a", 18000], "internal_node_id": "0.0-13.0", "trial": 0, "time_elapsed": 211033, "serialpos": 1, "key_press": -1, "wordID": 617, "type": "PRES_AUD", "trial_index": 22}, "uniqueid": "MTK3408:3ZGVPD4G6UO2YYOTBU06M5PWPH6ZTH", "dateTime": 1520529022216}, {"current_trial": 23, "trialdata": {"rt": -1000, "trial_type": "single-audio", "word": "antler", "stimulus": "/static/audio/wordpool/ANTLER.wav", "conditions": [18, 1200, "a", 18000], "internal_node_id": "0.0-14.0", "trial": 0, "time_elapsed": 213328, "serialpos": 2, "key_press": -1, "wordID": 28, "type": "PRES_AUD", "trial_index": 23}, "uniqueid": "MTK3408:3ZGVPD4G6UO2YYOTBU06M5PWPH6ZTH", "dateTime": 1520529024511}, {"current_trial": 24, "trialdata": {"rt": -1000, "trial_type": "single-audio", "word": "fox", "stimulus": "/static/audio/wordpool/FOX.wav", "conditions": [18, 1200, "a", 18000], "internal_node_id": "0.0-15.0", "trial": 0, "time_elapsed": 215569, "serialpos": 3, "key_press": -1, "wordID": 597, "type": "PRES_AUD", "trial_index": 24}, "uniqueid": "MTK3408:3ZGVPD4G6UO2YYOTBU06M5PWPH6ZTH", "dateTime": 1520529026752}, {"current_trial": 25, "trialdata": {"rt": -1000, "trial_type": "single-audio", "word": "wife", "stimulus": "/static/audio/wordpool/WIFE.wav", "conditions": [18, 1200, "a", 18000], "internal_node_id": "0.0-16.0", "trial": 0, "time_elapsed": 217869, "serialpos": 4, "key_press": -1, "wordID": 1608, "type": "PRES_AUD", "trial_index": 25}, "uniqueid": "MTK3408:3ZGVPD4G6UO2YYOTBU06M5PWPH6ZTH", "dateTime": 1520529029052}, {"current_trial": 26, "trialdata": {"rt": -1000, "trial_type": "single-audio", "word": "paddle", "stimulus": "/static/audio/wordpool/PADDLE.wav", "conditions": [18, 1200, "a", 18000], "internal_node_id": "0.0-17.0", "trial": 0, "time_elapsed": 220166, "serialpos": 5, "key_press": -1, "wordID": 999, "type": "PRES_AUD", "trial_index": 26}, "uniqueid": "MTK3408:3ZGVPD4G6UO2YYOTBU06M5PWPH6ZTH", "dateTime": 1520529031349}, {"current_trial": 27, "trialdata": {"rt": -1000, "trial_type": "single-audio", "word": "barrel", "stimulus": "/static/audio/wordpool/BARREL.wav", "conditions": [18, 1200, "a", 18000], "internal_node_id": "0.0-18.0", "trial": 0, "time_elapsed": 222541, "serialpos": 6, "key_press": -1, "wordID": 90, "type": "PRES_AUD", "trial_index": 27}, "uniqueid": "MTK3408:3ZGVPD4G6UO2YYOTBU06M5PWPH6ZTH", "dateTime": 1520529033724}, {"current_trial": 28, "trialdata": {"rt": -1000, "trial_type": "single-audio", "word": "ghetto", "stimulus": "/static/audio/wordpool/GHETTO.wav", "conditions": [18, 1200, "a", 18000], "internal_node_id": "0.0-19.0", "trial": 0, "time_elapsed": 224737, "serialpos": 7, "key_press": -1, "wordID": 632, "type": "PRES_AUD", "trial_index": 28}, "uniqueid": "MTK3408:3ZGVPD4G6UO2YYOTBU06M5PWPH6ZTH", "dateTime": 1520529035920}, {"current_trial": 29, "trialdata": {"rt": -1000, "trial_type": "single-audio", "word": "daisy", "stimulus": "/static/audio/wordpool/DAISY.wav", "conditions": [18, 1200, "a", 18000], "internal_node_id": "0.0-20.0", "trial": 0, "time_elapsed": 227133, "serialpos": 8, "key_press": -1, "wordID": 434, "type": "PRES_AUD", "trial_index": 29}, "uniqueid": "MTK3408:3ZGVPD4G6UO2YYOTBU06M5PWPH6ZTH", "dateTime": 1520529038316}, {"current_trial": 30, "trialdata": {"rt": -1000, "trial_type": "single-audio", "word": "sidewalk", "stimulus": "/static/audio/wordpool/SIDEWALK.wav", "conditions": [18, 1200, "a", 18000], "internal_node_id": "0.0-21.0", "trial": 0, "time_elapsed": 229536, "serialpos": 9, "key_press": -1, "wordID": 1302, "type": "PRES_AUD", "trial_index": 30}, "uniqueid": "MTK3408:3ZGVPD4G6UO2YYOTBU06M5PWPH6ZTH", "dateTime": 1520529040719}, {"current_trial": 31, "trialdata": {"rt": -1000, "trial_type": "single-audio", "word": "yacht", "stimulus": "/static/audio/wordpool/YACHT.wav", "conditions": [18, 1200, "a", 18000], "internal_node_id": "0.0-22.0", "trial": 0, "time_elapsed": 231889, "serialpos": 10, "key_press": -1, "wordID": 1628, "type": "PRES_AUD", "trial_index": 31}, "uniqueid": "MTK3408:3ZGVPD4G6UO2YYOTBU06M5PWPH6ZTH", "dateTime": 1520529043072}, {"current_trial": 32, "trialdata": {"rt": -1000, "trial_type": "single-audio", "word": "hero", "stimulus": "/static/audio/wordpool/HERO.wav", "conditions": [18, 1200, "a", 18000], "internal_node_id": "0.0-23.0", "trial": 0, "time_elapsed": 234065, "serialpos": 11, "key_press": -1, "wordID": 705, "type": "PRES_AUD", "trial_index": 32}, "uniqueid": "MTK3408:3ZGVPD4G6UO2YYOTBU06M5PWPH6ZTH", "dateTime": 1520529045248}, {"current_trial": 33, "trialdata": {"rt": -1000, "trial_type": "single-audio", "word": "quail", "stimulus": "/static/audio/wordpool/QUAIL.wav", "conditions": [18, 1200, "a", 18000], "internal_node_id": "0.0-24.0", "trial": 0, "time_elapsed": 236258, "serialpos": 12, "key_press": -1, "wordID": 1146, "type": "PRES_AUD", "trial_index": 33}, "uniqueid": "MTK3408:3ZGVPD4G6UO2YYOTBU06M5PWPH6ZTH", "dateTime": 1520529047441}, {"current_trial": 34, "trialdata": {"rt": -1000, "trial_type": "single-audio", "word": "cocktail", "stimulus": "/static/audio/wordpool/COCKTAIL.wav", "conditions": [18, 1200, "a", 18000], "internal_node_id": "0.0-25.0", "trial": 0, "time_elapsed": 238600, "serialpos": 13, "key_press": -1, "wordID": 337, "type": "PRES_AUD", "trial_index": 34}, "uniqueid": "MTK3408:3ZGVPD4G6UO2YYOTBU06M5PWPH6ZTH", "dateTime": 1520529049783}, {"current_trial": 35, "trialdata": {"rt": -1000, "trial_type": "single-audio", "word": "lover", "stimulus": "/static/audio/wordpool/LOVER.wav", "conditions": [18, 1200, "a", 18000], "internal_node_id": "0.0-26.0", "trial": 0, "time_elapsed": 240676, "serialpos": 14, "key_press": -1, "wordID": 845, "type": "PRES_AUD", "trial_index": 35}, "uniqueid": "MTK3408:3ZGVPD4G6UO2YYOTBU06M5PWPH6ZTH", "dateTime": 1520529051859}, {"current_trial": 36, "trialdata": {"rt": -1000, "trial_type": "single-audio", "word": "hook", "stimulus": "/static/audio/wordpool/HOOK.wav", "conditions": [18, 1200, "a", 18000], "internal_node_id": "0.0-27.0", "trial": 0, "time_elapsed": 242979, "serialpos": 15, "key_press": -1, "wordID": 714, "type": "PRES_AUD", "trial_index": 36}, "uniqueid": "MTK3408:3ZGVPD4G6UO2YYOTBU06M5PWPH6ZTH", "dateTime": 1520529054162}, {"current_trial": 37, "trialdata": {"rt": -1000, "trial_type": "single-audio", "word": "missile", "stimulus": "/static/audio/wordpool/MISSILE.wav", "conditions": [18, 1200, "a", 18000], "internal_node_id": "0.0-28.0", "trial": 0, "time_elapsed": 245001, "serialpos": 16, "key_press": -1, "wordID": 899, "type": "PRES_AUD", "trial_index": 37}, "uniqueid": "MTK3408:3ZGVPD4G6UO2YYOTBU06M5PWPH6ZTH", "dateTime": 1520529056184}, {"current_trial": 38, "trialdata": {"rt": -1000, "trial_type": "single-audio", "word": "shark", "stimulus": "/static/audio/wordpool/SHARK.wav", "conditions": [18, 1200, "a", 18000], "internal_node_id": "0.0-29.0", "trial": 0, "time_elapsed": 247086, "serialpos": 17, "key_press": -1, "wordID": 1274, "type": "PRES_AUD", "trial_index": 38}, "uniqueid": "MTK3408:3ZGVPD4G6UO2YYOTBU06M5PWPH6ZTH", "dateTime": 1520529058269}, {"current_trial": 39, "trialdata": {"rt": -1, "trial_type": "single-stim", "stimulus": "", "internal_node_id": "0.0-30.0-0.0", "time_elapsed": 248458, "key_press": -1, "type": "PRE_RECALL_DELAY", "trial_index": 39}, "uniqueid": "MTK3408:3ZGVPD4G6UO2YYOTBU06M5PWPH6ZTH", "dateTime": 1520529059641}, {"current_trial": 40, "trialdata": {"rt": -1000, "trial_type": "single-audio", "stimulus": "/static/audio/400Hz.wav", "internal_node_id": "0.0-31.0", "time_elapsed": 248965, "key_press": -1, "type": "PRE_RECALL_ALERT", "trial_index": 40}, "uniqueid": "MTK3408:3ZGVPD4G6UO2YYOTBU06M5PWPH6ZTH", "dateTime": 1520529060148}, {"current_trial": 41, "trialdata": {"rt": [7644, 8971, 12004, 16164, 18436, 21476, 22748, 26444, 27723, 35428, 44068, 50339], "recwords": ["paddle", "", "wife", "gheto", "", "shark", "", "lover", "", "ciitic", "fox", "daisy"], "key_times": [5348, 5612, 6013, 6244, 6620, 7236, 7644, 8971, 9644, 10124, 10412, 10916, 12004, 14060, 14292, 14508, 14812, 15140, 16164, 18436, 19340, 19532, 19764, 20108, 20428, 21476, 22748, 23748, 24028, 24243, 24539, 24892, 26444, 27723, 28035, 28194, 30331, 30523, 30883, 31083, 35428, 41107, 41586, 42219, 44068, 45923, 46963, 47147, 47500, 48387, 50339, 56500, 58659, 59107], "trial_type": "free-recall", "conditions": [18, 1200, "a", 18000], "internal_node_id": "0.0-32.0-0.0", "key_presses": [80, 65, 68, 68, 76, 69, 188, 32, 87, 73, 70, 69, 188, 71, 72, 69, 84, 79, 188, 32, 83, 72, 65, 82, 75, 188, 32, 76, 79, 86, 69, 82, 188, 32, 67, 73, 73, 84, 73, 67, 188, 70, 79, 88, 188, 68, 65, 73, 83, 89, 188, 83, 79, 68], "trial": 0, "time_elapsed": 308966, "type": "FREE_RECALL", "trial_index": 41}, "uniqueid": "MTK3408:3ZGVPD4G6UO2YYOTBU06M5PWPH6ZTH", "dateTime": 1520529120150}, {"current_trial": 42, "trialdata": {"rt": 4234, "trial_type": "text", "internal_node_id": "0.0-33.0", "time_elapsed": 315201, "key_press": 32, "type": "INSTRUCTIONS", "trial_index": 42}, "uniqueid": "MTK3408:3ZGVPD4G6UO2YYOTBU06M5PWPH6ZTH", "dateTime": 1520529126384}, {"current_trial": 43, "trialdata": {"rt": [9014, 14704], "trial_type": "math-distractor", "key_times": [2679, 2952, 9014, 12752, 13695, 14704, 17960], "responses": ["17", "17"], "num2": [3, 4, 1], "num3": [7, 5, 7], "conditions": [18, 1200, "a", 18000], "internal_node_id": "0.0-34.0", "key_presses": [97, 103, 13, 97, 103, 13, 97], "trial": 1, "time_elapsed": 335203, "type": "DISTRACTOR", "trial_index": 43, "num1": [7, 8, 6]}, "uniqueid": "MTK3408:3ZGVPD4G6UO2YYOTBU06M5PWPH6ZTH", "dateTime": 1520529146386}, {"current_trial": 44, "trialdata": {"rt": -1, "trial_type": "single-stim", "stimulus": "<p id=\"stim\">10</p>", "internal_node_id": "0.0-35.0-0.0", "time_elapsed": 338203, "key_press": -1, "trial_index": 44}, "uniqueid": "MTK3408:3ZGVPD4G6UO2YYOTBU06M5PWPH6ZTH", "dateTime": 1520529149386}, {"current_trial": 45, "trialdata": {"rt": -1, "trial_type": "single-stim", "stimulus": "<p id=\"stim\">9</p>", "internal_node_id": "0.0-35.0-1.0", "time_elapsed": 339204, "key_press": -1, "trial_index": 45}, "uniqueid": "MTK3408:3ZGVPD4G6UO2YYOTBU06M5PWPH6ZTH", "dateTime": 1520529150387}, {"current_trial": 46, "trialdata": {"rt": -1, "trial_type": "single-stim", "stimulus": "<p id=\"stim\">8</p>", "internal_node_id": "0.0-35.0-2.0", "time_elapsed": 340204, "key_press": -1, "trial_index": 46}, "uniqueid": "MTK3408:3ZGVPD4G6UO2YYOTBU06M5PWPH6ZTH", "dateTime": 1520529151387}, {"current_trial": 47, "trialdata": {"rt": -1, "trial_type": "single-stim", "stimulus": "<p id=\"stim\">7</p>", "internal_node_id": "0.0-35.0-3.0", "time_elapsed": 341206, "key_press": -1, "trial_index": 47}, "uniqueid": "MTK3408:3ZGVPD4G6UO2YYOTBU06M5PWPH6ZTH", "dateTime": 1520529152389}, {"current_trial": 48, "trialdata": {"rt": -1, "trial_type": "single-stim", "stimulus": "<p id=\"stim\">6</p>", "internal_node_id": "0.0-35.0-4.0", "time_elapsed": 342205, "key_press": -1, "trial_index": 48}, "uniqueid": "MTK3408:3ZGVPD4G6UO2YYOTBU06M5PWPH6ZTH", "dateTime": 1520529153388}, {"current_trial": 49, "trialdata": {"rt": -1, "trial_type": "single-stim", "stimulus": "<p id=\"stim\">5</p>", "internal_node_id": "0.0-35.0-5.0", "time_elapsed": 343206, "key_press": -1, "trial_index": 49}, "uniqueid": "MTK3408:3ZGVPD4G6UO2YYOTBU06M5PWPH6ZTH", "dateTime": 1520529154389}, {"current_trial": 50, "trialdata": {"rt": -1, "trial_type": "single-stim", "stimulus": "<p id=\"stim\">4</p>", "internal_node_id": "0.0-35.0-6.0", "time_elapsed": 344208, "key_press": -1, "trial_index": 50}, "uniqueid": "MTK3408:3ZGVPD4G6UO2YYOTBU06M5PWPH6ZTH", "dateTime": 1520529155391}, {"current_trial": 51, "trialdata": {"rt": -1, "trial_type": "single-stim", "stimulus": "<p id=\"stim\">3</p>", "internal_node_id": "0.0-35.0-7.0", "time_elapsed": 345210, "key_press": -1, "trial_index": 51}, "uniqueid": "MTK3408:3ZGVPD4G6UO2YYOTBU06M5PWPH6ZTH", "dateTime": 1520529156393}, {"current_trial": 52, "trialdata": {"rt": -1, "trial_type": "single-stim", "stimulus": "<p id=\"stim\">2</p>", "internal_node_id": "0.0-35.0-8.0", "time_elapsed": 346209, "key_press": -1, "trial_index": 52}, "uniqueid": "MTK3408:3ZGVPD4G6UO2YYOTBU06M5PWPH6ZTH", "dateTime": 1520529157392}, {"current_trial": 53, "trialdata": {"rt": -1, "trial_type": "single-stim", "stimulus": "<p id=\"stim\">1</p>", "internal_node_id": "0.0-35.0-9.0", "time_elapsed": 347210, "key_press": -1, "trial_index": 53}, "uniqueid": "MTK3408:3ZGVPD4G6UO2YYOTBU06M5PWPH6ZTH", "dateTime": 1520529158393}, {"current_trial": 54, "trialdata": {"rt": -1, "trial_type": "single-stim", "stimulus": "<p id=\"stim\">+</p>", "internal_node_id": "0.0-36.0-0.0", "time_elapsed": 348712, "key_press": -1, "type": "FIXATION", "trial_index": 54}, "uniqueid": "MTK3408:3ZGVPD4G6UO2YYOTBU06M5PWPH6ZTH", "dateTime": 1520529159895}, {"current_trial": 55, "trialdata": {"rt": -1000, "trial_type": "single-audio", "word": "statue", "stimulus": "/static/audio/wordpool/STATUE.wav", "conditions": [18, 1200, "a", 18000], "internal_node_id": "0.0-37.0", "trial": 1, "time_elapsed": 350751, "serialpos": 0, "key_press": -1, "wordID": 1373, "type": "PRES_AUD", "trial_index": 55}, "uniqueid": "MTK3408:3ZGVPD4G6UO2YYOTBU06M5PWPH6ZTH", "dateTime": 1520529161934}, {"current_trial": 56, "trialdata": {"rt": -1000, "trial_type": "single-audio", "word": "postage", "stimulus": "/static/audio/wordpool/POSTAGE.wav", "conditions": [18, 1200, "a", 18000], "internal_node_id": "0.0-38.0", "trial": 1, "time_elapsed": 353143, "serialpos": 1, "key_press": -1, "wordID": 1112, "type": "PRES_AUD", "trial_index": 56}, "uniqueid": "MTK3408:3ZGVPD4G6UO2YYOTBU06M5PWPH6ZTH", "dateTime": 1520529164326}, {"current_trial": 57, "trialdata": {"rt": -1000, "trial_type": "single-audio", "word": "woman", "stimulus": "/static/audio/wordpool/WOMAN.wav", "conditions": [18, 1200, "a", 18000], "internal_node_id": "0.0-39.0", "trial": 1, "time_elapsed": 355174, "serialpos": 2, "key_press": -1, "wordID": 1619, "type": "PRES_AUD", "trial_index": 57}, "uniqueid": "MTK3408:3ZGVPD4G6UO2YYOTBU06M5PWPH6ZTH", "dateTime": 1520529166357}, {"current_trial": 58, "trialdata": {"rt": -1000, "trial_type": "single-audio", "word": "tuba", "stimulus": "/static/audio/wordpool/TUBA.wav", "conditions": [18, 1200, "a", 18000], "internal_node_id": "0.0-40.0", "trial": 1, "time_elapsed": 357344, "serialpos": 3, "key_press": -1, "wordID": 1514, "type": "PRES_AUD", "trial_index": 58}, "uniqueid": "MTK3408:3ZGVPD4G6UO2YYOTBU06M5PWPH6ZTH", "dateTime": 1520529168527}, {"current_trial": 59, "trialdata": {"rt": -1000, "trial_type": "single-audio", "word": "canyon", "stimulus": "/static/audio/wordpool/CANYON.wav", "conditions": [18, 1200, "a", 18000], "internal_node_id": "0.0-41.0", "trial": 1, "time_elapsed": 359364, "serialpos": 4, "key_press": -1, "wordID": 234, "type": "PRES_AUD", "trial_index": 59}, "uniqueid": "MTK3408:3ZGVPD4G6UO2YYOTBU06M5PWPH6ZTH", "dateTime": 1520529170547}, {"current_trial": 60, "trialdata": {"rt": -1000, "trial_type": "single-audio", "word": "wrench", "stimulus": "/static/audio/wordpool/WRENCH.wav", "conditions": [18, 1200, "a", 18000], "internal_node_id": "0.0-42.0", "trial": 1, "time_elapsed": 361623, "serialpos": 5, "key_press": -1, "wordID": 1624, "type": "PRES_AUD", "trial_index": 60}, "uniqueid": "MTK3408:3ZGVPD4G6UO2YYOTBU06M5PWPH6ZTH", "dateTime": 1520529172806}, {"current_trial": 61, "trialdata": {"rt": -1000, "trial_type": "single-audio", "word": "shortcake", "stimulus": "/static/audio/wordpool/SHORTCAKE.wav", "conditions": [18, 1200, "a", 18000], "internal_node_id": "0.0-43.0", "trial": 1, "time_elapsed": 363730, "serialpos": 6, "key_press": -1, "wordID": 1291, "type": "PRES_AUD", "trial_index": 61}, "uniqueid": "MTK3408:3ZGVPD4G6UO2YYOTBU06M5PWPH6ZTH", "dateTime": 1520529174913}, {"current_trial": 62, "trialdata": {"rt": -1000, "trial_type": "single-audio", "word": "dancer", "stimulus": "/static/audio/wordpool/DANCER.wav", "conditions": [18, 1200, "a", 18000], "internal_node_id": "0.0-44.0", "trial": 1, "time_elapsed": 365970, "serialpos": 7, "key_press": -1, "wordID": 436, "type": "PRES_AUD", "trial_index": 62}, "uniqueid": "MTK3408:3ZGVPD4G6UO2YYOTBU06M5PWPH6ZTH", "dateTime": 1520529177153}, {"current_trial": 63, "trialdata": {"rt": -1000, "trial_type": "single-audio", "word": "flesh", "stimulus": "/static/audio/wordpool/FLESH.wav", "conditions": [18, 1200, "a", 18000], "internal_node_id": "0.0-45.0", "trial": 1, "time_elapsed": 368043, "serialpos": 8, "key_press": -1, "wordID": 578, "type": "PRES_AUD", "trial_index": 63}, "uniqueid": "MTK3408:3ZGVPD4G6UO2YYOTBU06M5PWPH6ZTH", "dateTime": 1520529179228}, {"current_trial": 64, "trialdata": {"rt": -1000, "trial_type": "single-audio", "word": "luggage", "stimulus": "/static/audio/wordpool/LUGGAGE.wav", "conditions": [18, 1200, "a", 18000], "internal_node_id": "0.0-46.0", "trial": 1, "time_elapsed": 370350, "serialpos": 9, "key_press": -1, "wordID": 846, "type": "PRES_AUD", "trial_index": 64}, "uniqueid": "MTK3408:3ZGVPD4G6UO2YYOTBU06M5PWPH6ZTH", "dateTime": 1520529181533}, {"current_trial": 65, "trialdata": {"rt": -1000, "trial_type": "single-audio", "word": "perfume", "stimulus": "/static/audio/wordpool/PERFUME.wav", "conditions": [18, 1200, "a", 18000], "internal_node_id": "0.0-47.0", "trial": 1, "time_elapsed": 372390, "serialpos": 10, "key_press": -1, "wordID": 1048, "type": "PRES_AUD", "trial_index": 65}, "uniqueid": "MTK3408:3ZGVPD4G6UO2YYOTBU06M5PWPH6ZTH", "dateTime": 1520529183573}, {"current_trial": 66, "trialdata": {"rt": -1000, "trial_type": "single-audio", "word": "cashew", "stimulus": "/static/audio/wordpool/CASHEW.wav", "conditions": [18, 1200, "a", 18000], "internal_node_id": "0.0-48.0", "trial": 1, "time_elapsed": 374582, "serialpos": 11, "key_press": -1, "wordID": 252, "type": "PRES_AUD", "trial_index": 66}, "uniqueid": "MTK3408:3ZGVPD4G6UO2YYOTBU06M5PWPH6ZTH", "dateTime": 1520529185765}, {"current_trial": 67, "trialdata": {"rt": -1000, "trial_type": "single-audio", "word": "mop", "stimulus": "/static/audio/wordpool/MOP.wav", "conditions": [18, 1200, "a", 18000], "internal_node_id": "0.0-49.0", "trial": 1, "time_elapsed": 376625, "serialpos": 12, "key_press": -1, "wordID": 915, "type": "PRES_AUD", "trial_index": 67}, "uniqueid": "MTK3408:3ZGVPD4G6UO2YYOTBU06M5PWPH6ZTH", "dateTime": 1520529187808}, {"current_trial": 68, "trialdata": {"rt": -1000, "trial_type": "single-audio", "word": "turnip", "stimulus": "/static/audio/wordpool/TURNIP.wav", "conditions": [18, 1200, "a", 18000], "internal_node_id": "0.0-50.0", "trial": 1, "time_elapsed": 378765, "serialpos": 13, "key_press": -1, "wordID": 1520, "type": "PRES_AUD", "trial_index": 68}, "uniqueid": "MTK3408:3ZGVPD4G6UO2YYOTBU06M5PWPH6ZTH", "dateTime": 1520529189950}, {"current_trial": 69, "trialdata": {"rt": -1000, "trial_type": "single-audio", "word": "orange", "stimulus": "/static/audio/wordpool/ORANGE.wav", "conditions": [18, 1200, "a", 18000], "internal_node_id": "0.0-51.0", "trial": 1, "time_elapsed": 380901, "serialpos": 14, "key_press": -1, "wordID": 979, "type": "PRES_AUD", "trial_index": 69}, "uniqueid": "MTK3408:3ZGVPD4G6UO2YYOTBU06M5PWPH6ZTH", "dateTime": 1520529192084}, {"current_trial": 70, "trialdata": {"rt": -1000, "trial_type": "single-audio", "word": "icing", "stimulus": "/static/audio/wordpool/ICING.wav", "conditions": [18, 1200, "a", 18000], "internal_node_id": "0.0-52.0", "trial": 1, "time_elapsed": 383189, "serialpos": 15, "key_press": -1, "wordID": 731, "type": "PRES_AUD", "trial_index": 70}, "uniqueid": "MTK3408:3ZGVPD4G6UO2YYOTBU06M5PWPH6ZTH", "dateTime": 1520529194372}, {"current_trial": 71, "trialdata": {"rt": -1000, "trial_type": "single-audio", "word": "tweezers", "stimulus": "/static/audio/wordpool/TWEEZERS.wav", "conditions": [18, 1200, "a", 18000], "internal_node_id": "0.0-53.0", "trial": 1, "time_elapsed": 385391, "serialpos": 16, "key_press": -1, "wordID": 1525, "type": "PRES_AUD", "trial_index": 71}, "uniqueid": "MTK3408:3ZGVPD4G6UO2YYOTBU06M5PWPH6ZTH", "dateTime": 1520529196575}, {"current_trial": 72, "trialdata": {"rt": -1000, "trial_type": "single-audio", "word": "rebel", "stimulus": "/static/audio/wordpool/REBEL.wav", "conditions": [18, 1200, "a", 18000], "internal_node_id": "0.0-54.0", "trial": 1, "time_elapsed": 387639, "serialpos": 17, "key_press": -1, "wordID": 1171, "type": "PRES_AUD", "trial_index": 72}, "uniqueid": "MTK3408:3ZGVPD4G6UO2YYOTBU06M5PWPH6ZTH", "dateTime": 1520529198822}, {"current_trial": 73, "trialdata": {"rt": -1, "trial_type": "single-stim", "stimulus": "", "internal_node_id": "0.0-55.0-0.0", "time_elapsed": 388884, "key_press": -1, "type": "PRE_RECALL_DELAY", "trial_index": 73}, "uniqueid": "MTK3408:3ZGVPD4G6UO2YYOTBU06M5PWPH6ZTH", "dateTime": 1520529200067}, {"current_trial": 74, "trialdata": {"rt": -1000, "trial_type": "single-audio", "stimulus": "/static/audio/400Hz.wav", "internal_node_id": "0.0-56.0", "time_elapsed": 389384, "key_press": -1, "type": "PRE_RECALL_ALERT", "trial_index": 74}, "uniqueid": "MTK3408:3ZGVPD4G6UO2YYOTBU06M5PWPH6ZTH", "dateTime": 1520529200567}, {"current_trial": 75, "trialdata": {"rt": [6041, 7224, 11761, 13849, 21497, 23641, 27248, 32217, 38375, 50224], "recwords": ["rebel", "", "dancer", "", "postage", "", "tuba", "mop", "orange", "woman"], "key_times": [2856, 3216, 3735, 4216, 4744, 6041, 7224, 7856, 8209, 9153, 9857, 10224, 10520, 11761, 13849, 14672, 14992, 15312, 15825, 16497, 16905, 18137, 18384, 19088, 19553, 19977, 21497, 23641, 24425, 25353, 25657, 26000, 27248, 29793, 30664, 30912, 32217, 33961, 34152, 34593, 35913, 36249, 36625, 38375, 40481, 41249, 43649, 45537, 46160, 50224, 53488, 54560, 54977, 55513, 56201, 57145, 57912], "trial_type": "free-recall", "conditions": [18, 1200, "a", 18000], "internal_node_id": "0.0-57.0-0.0", "key_presses": [82, 69, 66, 69, 76, 188, 32, 68, 65, 78, 67, 69, 82, 188, 32, 80, 79, 83, 84, 77, 65, 8, 8, 65, 71, 69, 188, 32, 84, 85, 66, 65, 188, 77, 79, 80, 188, 79, 82, 65, 78, 71, 69, 188, 87, 79, 77, 65, 78, 188, 84, 87, 69, 69, 90, 69, 82], "trial": 1, "time_elapsed": 449387, "type": "FREE_RECALL", "trial_index": 75}, "uniqueid": "MTK3408:3ZGVPD4G6UO2YYOTBU06M5PWPH6ZTH", "dateTime": 1520529260571}, {"current_trial": 76, "trialdata": {"rt": 5390, "trial_type": "text", "internal_node_id": "0.0-58.0", "time_elapsed": 456778, "key_press": 32, "type": "INSTRUCTIONS", "trial_index": 76}, "uniqueid": "MTK3408:3ZGVPD4G6UO2YYOTBU06M5PWPH6ZTH", "dateTime": 1520529267961}, {"current_trial": 77, "trialdata": {"rt": [5526], "trial_type": "math-distractor", "key_times": [3550, 4447, 5526, 7742, 10902], "responses": ["15"], "num2": [6, 8], "num3": [1, 4], "conditions": [24, 1600, "a", 12000], "internal_node_id": "0.0-59.0", "key_presses": [97, 101, 13, 97, 99], "trial": 2, "time_elapsed": 469779, "type": "DISTRACTOR", "trial_index": 77, "num1": [8, 1]}, "uniqueid": "MTK3408:3ZGVPD4G6UO2YYOTBU06M5PWPH6ZTH", "dateTime": 1520529280962}, {"current_trial": 78, "trialdata": {"rt": -1, "trial_type": "single-stim", "stimulus": "<p id=\"stim\">10</p>", "internal_node_id": "0.0-60.0-0.0", "time_elapsed": 472781, "key_press": -1, "trial_index": 78}, "uniqueid": "MTK3408:3ZGVPD4G6UO2YYOTBU06M5PWPH6ZTH", "dateTime": 1520529283965}, {"current_trial": 79, "trialdata": {"rt": -1, "trial_type": "single-stim", "stimulus": "<p id=\"stim\">9</p>", "internal_node_id": "0.0-60.0-1.0", "time_elapsed": 473782, "key_press": -1, "trial_index": 79}, "uniqueid": "MTK3408:3ZGVPD4G6UO2YYOTBU06M5PWPH6ZTH", "dateTime": 1520529284967}, {"current_trial": 80, "trialdata": {"rt": -1, "trial_type": "single-stim", "stimulus": "<p id=\"stim\">8</p>", "internal_node_id": "0.0-60.0-2.0", "time_elapsed": 474783, "key_press": -1, "trial_index": 80}, "uniqueid": "MTK3408:3ZGVPD4G6UO2YYOTBU06M5PWPH6ZTH", "dateTime": 1520529285967}, {"current_trial": 81, "trialdata": {"rt": -1, "trial_type": "single-stim", "stimulus": "<p id=\"stim\">7</p>", "internal_node_id": "0.0-60.0-3.0", "time_elapsed": 475785, "key_press": -1, "trial_index": 81}, "uniqueid": "MTK3408:3ZGVPD4G6UO2YYOTBU06M5PWPH6ZTH", "dateTime": 1520529286968}, {"current_trial": 82, "trialdata": {"rt": -1, "trial_type": "single-stim", "stimulus": "<p id=\"stim\">6</p>", "internal_node_id": "0.0-60.0-4.0", "time_elapsed": 476785, "key_press": -1, "trial_index": 82}, "uniqueid": "MTK3408:3ZGVPD4G6UO2YYOTBU06M5PWPH6ZTH", "dateTime": 1520529287968}, {"current_trial": 83, "trialdata": {"rt": -1, "trial_type": "single-stim", "stimulus": "<p id=\"stim\">5</p>", "internal_node_id": "0.0-60.0-5.0", "time_elapsed": 477785, "key_press": -1, "trial_index": 83}, "uniqueid": "MTK3408:3ZGVPD4G6UO2YYOTBU06M5PWPH6ZTH", "dateTime": 1520529288969}, {"current_trial": 84, "trialdata": {"rt": -1, "trial_type": "single-stim", "stimulus": "<p id=\"stim\">4</p>", "internal_node_id": "0.0-60.0-6.0", "time_elapsed": 478786, "key_press": -1, "trial_index": 84}, "uniqueid": "MTK3408:3ZGVPD4G6UO2YYOTBU06M5PWPH6ZTH", "dateTime": 1520529289970}, {"current_trial": 85, "trialdata": {"rt": -1, "trial_type": "single-stim", "stimulus": "<p id=\"stim\">3</p>", "internal_node_id": "0.0-60.0-7.0", "time_elapsed": 479787, "key_press": -1, "trial_index": 85}, "uniqueid": "MTK3408:3ZGVPD4G6UO2YYOTBU06M5PWPH6ZTH", "dateTime": 1520529290971}, {"current_trial": 86, "trialdata": {"rt": -1, "trial_type": "single-stim", "stimulus": "<p id=\"stim\">2</p>", "internal_node_id": "0.0-60.0-8.0", "time_elapsed": 480788, "key_press": -1, "trial_index": 86}, "uniqueid": "MTK3408:3ZGVPD4G6UO2YYOTBU06M5PWPH6ZTH", "dateTime": 1520529291971}, {"current_trial": 87, "trialdata": {"rt": -1, "trial_type": "single-stim", "stimulus": "<p id=\"stim\">1</p>", "internal_node_id": "0.0-60.0-9.0", "time_elapsed": 481788, "key_press": -1, "trial_index": 87}, "uniqueid": "MTK3408:3ZGVPD4G6UO2YYOTBU06M5PWPH6ZTH", "dateTime": 1520529292972}, {"current_trial": 88, "trialdata": {"rt": -1, "trial_type": "single-stim", "stimulus": "<p id=\"stim\">+</p>", "internal_node_id": "0.0-61.0-0.0", "time_elapsed": 483289, "key_press": -1, "type": "FIXATION", "trial_index": 88}, "uniqueid": "MTK3408:3ZGVPD4G6UO2YYOTBU06M5PWPH6ZTH", "dateTime": 1520529294473}, {"current_trial": 89, "trialdata": {"rt": -1000, "trial_type": "single-audio", "word": "jury", "stimulus": "/static/audio/wordpool/JURY.wav", "conditions": [24, 1600, "a", 12000], "internal_node_id": "0.0-62.0", "trial": 2, "time_elapsed": 485805, "serialpos": 0, "key_press": -1, "wordID": 765, "type": "PRES_AUD", "trial_index": 89}, "uniqueid": "MTK3408:3ZGVPD4G6UO2YYOTBU06M5PWPH6ZTH", "dateTime": 1520529296988}, {"current_trial": 90, "trialdata": {"rt": -1000, "trial_type": "single-audio", "word": "gymnast", "stimulus": "/static/audio/wordpool/GYMNAST.wav", "conditions": [24, 1600, "a", 12000], "internal_node_id": "0.0-63.0", "trial": 2, "time_elapsed": 488324, "serialpos": 1, "key_press": -1, "wordID": 674, "type": "PRES_AUD", "trial_index": 90}, "uniqueid": "MTK3408:3ZGVPD4G6UO2YYOTBU06M5PWPH6ZTH", "dateTime": 1520529299507}, {"current_trial": 91, "trialdata": {"rt": -1000, "trial_type": "single-audio", "word": "vagrant", "stimulus": "/static/audio/wordpool/VAGRANT.wav", "conditions": [24, 1600, "a", 12000], "internal_node_id": "0.0-64.0", "trial": 2, "time_elapsed": 490762, "serialpos": 2, "key_press": -1, "wordID": 1543, "type": "PRES_AUD", "trial_index": 91}, "uniqueid": "MTK3408:3ZGVPD4G6UO2YYOTBU06M5PWPH6ZTH", "dateTime": 1520529301945}, {"current_trial": 92, "trialdata": {"rt": -1000, "trial_type": "single-audio", "word": "nurse", "stimulus": "/static/audio/wordpool/NURSE.wav", "conditions": [24, 1600, "a", 12000], "internal_node_id": "0.0-65.0", "trial": 2, "time_elapsed": 493200, "serialpos": 3, "key_press": -1, "wordID": 962, "type": "PRES_AUD", "trial_index": 92}, "uniqueid": "MTK3408:3ZGVPD4G6UO2YYOTBU06M5PWPH6ZTH", "dateTime": 1520529304383}, {"current_trial": 93, "trialdata": {"rt": -1000, "trial_type": "single-audio", "word": "female", "stimulus": "/static/audio/wordpool/FEMALE.wav", "conditions": [24, 1600, "a", 12000], "internal_node_id": "0.0-66.0", "trial": 2, "time_elapsed": 495927, "serialpos": 4, "key_press": -1, "wordID": 558, "type": "PRES_AUD", "trial_index": 93}, "uniqueid": "MTK3408:3ZGVPD4G6UO2YYOTBU06M5PWPH6ZTH", "dateTime": 1520529307110}, {"current_trial": 94, "trialdata": {"rt": -1000, "trial_type": "single-audio", "word": "soda", "stimulus": "/static/audio/wordpool/SODA.wav", "conditions": [24, 1600, "a", 12000], "internal_node_id": "0.0-67.0", "trial": 2, "time_elapsed": 498341, "serialpos": 5, "key_press": -1, "wordID": 1340, "type": "PRES_AUD", "trial_index": 94}, "uniqueid": "MTK3408:3ZGVPD4G6UO2YYOTBU06M5PWPH6ZTH", "dateTime": 1520529309524}, {"current_trial": 95, "trialdata": {"rt": -1000, "trial_type": "single-audio", "word": "zebra", "stimulus": "/static/audio/wordpool/ZEBRA.wav", "conditions": [24, 1600, "a", 12000], "internal_node_id": "0.0-68.0", "trial": 2, "time_elapsed": 500920, "serialpos": 6, "key_press": -1, "wordID": 1634, "type": "PRES_AUD", "trial_index": 95}, "uniqueid": "MTK3408:3ZGVPD4G6UO2YYOTBU06M5PWPH6ZTH", "dateTime": 1520529312103}, {"current_trial": 96, "trialdata": {"rt": -1000, "trial_type": "single-audio", "word": "leopard", "stimulus": "/static/audio/wordpool/LEOPARD.wav", "conditions": [24, 1600, "a", 12000], "internal_node_id": "0.0-69.0", "trial": 2, "time_elapsed": 503434, "serialpos": 7, "key_press": -1, "wordID": 811, "type": "PRES_AUD", "trial_index": 96}, "uniqueid": "MTK3408:3ZGVPD4G6UO2YYOTBU06M5PWPH6ZTH", "dateTime": 1520529314617}, {"current_trial": 97, "trialdata": {"rt": -1000, "trial_type": "single-audio", "word": "drink", "stimulus": "/static/audio/wordpool/DRINK.wav", "conditions": [24, 1600, "a", 12000], "internal_node_id": "0.0-70.0", "trial": 2, "time_elapsed": 506182, "serialpos": 8, "key_press": -1, "wordID": 497, "type": "PRES_AUD", "trial_index": 97}, "uniqueid": "MTK3408:3ZGVPD4G6UO2YYOTBU06M5PWPH6ZTH", "dateTime": 1520529317365}, {"current_trial": 98, "trialdata": {"rt": -1000, "trial_type": "single-audio", "word": "rattle", "stimulus": "/static/audio/wordpool/RATTLE.wav", "conditions": [24, 1600, "a", 12000], "internal_node_id": "0.0-71.0", "trial": 2, "time_elapsed": 508758, "serialpos": 9, "key_press": -1, "wordID": 1169, "type": "PRES_AUD", "trial_index": 98}, "uniqueid": "MTK3408:3ZGVPD4G6UO2YYOTBU06M5PWPH6ZTH", "dateTime": 1520529319941}, {"current_trial": 99, "trialdata": {"rt": -1000, "trial_type": "single-audio", "word": "picnic", "stimulus": "/static/audio/wordpool/PICNIC.wav", "conditions": [24, 1600, "a", 12000], "internal_node_id": "0.0-72.0", "trial": 2, "time_elapsed": 511347, "serialpos": 10, "key_press": -1, "wordID": 1059, "type": "PRES_AUD", "trial_index": 99}, "uniqueid": "MTK3408:3ZGVPD4G6UO2YYOTBU06M5PWPH6ZTH", "dateTime": 1520529322530}, {"current_trial": 100, "trialdata": {"rt": -1000, "trial_type": "single-audio", "word": "valley", "stimulus": "/static/audio/wordpool/VALLEY.wav", "conditions": [24, 1600, "a", 12000], "internal_node_id": "0.0-73.0", "trial": 2, "time_elapsed": 513912, "serialpos": 11, "key_press": -1, "wordID": 1544, "type": "PRES_AUD", "trial_index": 100}, "uniqueid": "MTK3408:3ZGVPD4G6UO2YYOTBU06M5PWPH6ZTH", "dateTime": 1520529325095}, {"current_trial": 101, "trialdata": {"rt": -1000, "trial_type": "single-audio", "word": "world", "stimulus": "/static/audio/wordpool/WORLD.wav", "conditions": [24, 1600, "a", 12000], "internal_node_id": "0.0-74.0", "trial": 2, "time_elapsed": 516465, "serialpos": 12, "key_press": -1, "wordID": 1621, "type": "PRES_AUD", "trial_index": 101}, "uniqueid": "MTK3408:3ZGVPD4G6UO2YYOTBU06M5PWPH6ZTH", "dateTime": 1520529327648}, {"current_trial": 102, "trialdata": {"rt": -1000, "trial_type": "single-audio", "word": "tombstone", "stimulus": "/static/audio/wordpool/TOMBSTONE.wav", "conditions": [24, 1600, "a", 12000], "internal_node_id": "0.0-75.0", "trial": 2, "time_elapsed": 518916, "serialpos": 13, "key_press": -1, "wordID": 1477, "type": "PRES_AUD", "trial_index": 102}, "uniqueid": "MTK3408:3ZGVPD4G6UO2YYOTBU06M5PWPH6ZTH", "dateTime": 1520529330099}, {"current_trial": 103, "trialdata": {"rt": -1000, "trial_type": "single-audio", "word": "spider", "stimulus": "/static/audio/wordpool/SPIDER.wav", "conditions": [24, 1600, "a", 12000], "internal_node_id": "0.0-76.0", "trial": 2, "time_elapsed": 521618, "serialpos": 14, "key_press": -1, "wordID": 1350, "type": "PRES_AUD", "trial_index": 103}, "uniqueid": "MTK3408:3ZGVPD4G6UO2YYOTBU06M5PWPH6ZTH", "dateTime": 1520529332801}, {"current_trial": 104, "trialdata": {"rt": -1000, "trial_type": "single-audio", "word": "climber", "stimulus": "/static/audio/wordpool/CLIMBER.wav", "conditions": [24, 1600, "a", 12000], "internal_node_id": "0.0-77.0", "trial": 2, "time_elapsed": 524152, "serialpos": 15, "key_press": -1, "wordID": 322, "type": "PRES_AUD", "trial_index": 104}, "uniqueid": "MTK3408:3ZGVPD4G6UO2YYOTBU06M5PWPH6ZTH", "dateTime": 1520529335335}, {"current_trial": 105, "trialdata": {"rt": -1000, "trial_type": "single-audio", "word": "virus", "stimulus": "/static/audio/wordpool/VIRUS.wav", "conditions": [24, 1600, "a", 12000], "internal_node_id": "0.0-78.0", "trial": 2, "time_elapsed": 526602, "serialpos": 16, "key_press": -1, "wordID": 1571, "type": "PRES_AUD", "trial_index": 105}, "uniqueid": "MTK3408:3ZGVPD4G6UO2YYOTBU06M5PWPH6ZTH", "dateTime": 1520529337785}, {"current_trial": 106, "trialdata": {"rt": -1000, "trial_type": "single-audio", "word": "lava", "stimulus": "/static/audio/wordpool/LAVA.wav", "conditions": [24, 1600, "a", 12000], "internal_node_id": "0.0-79.0", "trial": 2, "time_elapsed": 529166, "serialpos": 17, "key_press": -1, "wordID": 803, "type": "PRES_AUD", "trial_index": 106}, "uniqueid": "MTK3408:3ZGVPD4G6UO2YYOTBU06M5PWPH6ZTH", "dateTime": 1520529340349}, {"current_trial": 107, "trialdata": {"rt": -1000, "trial_type": "single-audio", "word": "coffee", "stimulus": "/static/audio/wordpool/COFFEE.wav", "conditions": [24, 1600, "a", 12000], "internal_node_id": "0.0-80.0", "trial": 2, "time_elapsed": 531722, "serialpos": 18, "key_press": -1, "wordID": 340, "type": "PRES_AUD", "trial_index": 107}, "uniqueid": "MTK3408:3ZGVPD4G6UO2YYOTBU06M5PWPH6ZTH", "dateTime": 1520529342905}, {"current_trial": 108, "trialdata": {"rt": -1000, "trial_type": "single-audio", "word": "forehead", "stimulus": "/static/audio/wordpool/FOREHEAD.wav", "conditions": [24, 1600, "a", 12000], "internal_node_id": "0.0-81.0", "trial": 2, "time_elapsed": 534168, "serialpos": 19, "key_press": -1, "wordID": 591, "type": "PRES_AUD", "trial_index": 108}, "uniqueid": "MTK3408:3ZGVPD4G6UO2YYOTBU06M5PWPH6ZTH", "dateTime": 1520529345351}, {"current_trial": 109, "trialdata": {"rt": -1000, "trial_type": "single-audio", "word": "chest", "stimulus": "/static/audio/wordpool/CHEST.wav", "conditions": [24, 1600, "a", 12000], "internal_node_id": "0.0-82.0", "trial": 2, "time_elapsed": 536864, "serialpos": 20, "key_press": -1, "wordID": 294, "type": "PRES_AUD", "trial_index": 109}, "uniqueid": "MTK3408:3ZGVPD4G6UO2YYOTBU06M5PWPH6ZTH", "dateTime": 1520529348048}, {"current_trial": 110, "trialdata": {"rt": -1000, "trial_type": "single-audio", "word": "apple", "stimulus": "/static/audio/wordpool/APPLE.wav", "conditions": [24, 1600, "a", 12000], "internal_node_id": "0.0-83.0", "trial": 2, "time_elapsed": 539436, "serialpos": 21, "key_press": -1, "wordID": 32, "type": "PRES_AUD", "trial_index": 110}, "uniqueid": "MTK3408:3ZGVPD4G6UO2YYOTBU06M5PWPH6ZTH", "dateTime": 1520529350619}, {"current_trial": 111, "trialdata": {"rt": -1000, "trial_type": "single-audio", "word": "pecan", "stimulus": "/static/audio/wordpool/PECAN.wav", "conditions": [24, 1600, "a", 12000], "internal_node_id": "0.0-84.0", "trial": 2, "time_elapsed": 542034, "serialpos": 22, "key_press": -1, "wordID": 1035, "type": "PRES_AUD", "trial_index": 111}, "uniqueid": "MTK3408:3ZGVPD4G6UO2YYOTBU06M5PWPH6ZTH", "dateTime": 1520529353217}, {"current_trial": 112, "trialdata": {"rt": -1000, "trial_type": "single-audio", "word": "casket", "stimulus": "/static/audio/wordpool/CASKET.wav", "conditions": [24, 1600, "a", 12000], "internal_node_id": "0.0-85.0", "trial": 2, "time_elapsed": 544467, "serialpos": 23, "key_press": -1, "wordID": 254, "type": "PRES_AUD", "trial_index": 112}, "uniqueid": "MTK3408:3ZGVPD4G6UO2YYOTBU06M5PWPH6ZTH", "dateTime": 1520529355650}, {"current_trial": 113, "trialdata": {"rt": -1, "trial_type": "single-stim", "stimulus": "", "internal_node_id": "0.0-86.0-0.0", "time_elapsed": 545854, "key_press": -1, "type": "PRE_RECALL_DELAY", "trial_index": 113}, "uniqueid": "MTK3408:3ZGVPD4G6UO2YYOTBU06M5PWPH6ZTH", "dateTime": 1520529357037}, {"current_trial": 114, "trialdata": {"rt": -1000, "trial_type": "single-audio", "stimulus": "/static/audio/400Hz.wav", "internal_node_id": "0.0-87.0", "time_elapsed": 546354, "key_press": -1, "type": "PRE_RECALL_ALERT", "trial_index": 114}, "uniqueid": "MTK3408:3ZGVPD4G6UO2YYOTBU06M5PWPH6ZTH", "dateTime": 1520529357537}, {"current_trial": 115, "trialdata": {"rt": [7222, 12806, 17909, 26534, 32847, 39478, 45047, 51343], "recwords": ["casket", "coffe", "apple", "pecan", "gym", "nurse", "zebra", "spider"], "key_times": [3150, 3438, 3669, 4486, 4782, 5878, 7222, 8078, 10325, 11365, 11565, 11870, 12806, 15022, 16022, 16215, 16694, 17031, 17909, 22421, 22789, 23662, 24406, 24919, 26534, 28535, 28758, 29190, 30101, 31014, 32847, 34942, 35374, 35806, 36078, 36319, 39478, 40486, 41183, 41918, 42445, 42821, 45047, 47510, 47990, 48630, 49079, 49333, 49606, 51343, 54309, 54622, 55846, 56095, 57069, 57517], "trial_type": "free-recall", "conditions": [24, 1600, "a", 12000], "internal_node_id": "0.0-88.0-0.0", "key_presses": [67, 65, 83, 75, 69, 84, 32, 67, 79, 70, 70, 69, 188, 65, 80, 80, 76, 69, 188, 80, 69, 67, 65, 78, 188, 71, 89, 78, 8, 77, 188, 78, 85, 82, 83, 69, 188, 90, 69, 66, 82, 65, 188, 83, 80, 73, 68, 69, 82, 188, 82, 65, 84, 84, 76, 69], "trial": 2, "time_elapsed": 606356, "type": "FREE_RECALL", "trial_index": 115}, "uniqueid": "MTK3408:3ZGVPD4G6UO2YYOTBU06M5PWPH6ZTH", "dateTime": 1520529417541}, {"current_trial": 116, "trialdata": {"rt": 10949, "trial_type": "text", "internal_node_id": "0.0-89.0", "time_elapsed": 619306, "key_press": 106, "type": "INSTRUCTIONS", "trial_index": 116}, "uniqueid": "MTK3408:3ZGVPD4G6UO2YYOTBU06M5PWPH6ZTH", "dateTime": 1520529430489}, {"current_trial": 117, "trialdata": {"rt": [10286, 12616, 14783, 18159, 21351], "trial_type": "math-distractor", "key_times": [9008, 10286, 11864, 12135, 12616, 14326, 14783, 17775, 18159, 20416, 20608, 21351], "responses": ["7", "16", "9", "9", "12"], "num2": [1, 2, 4, 1, 4, 8], "num3": [4, 7, 1, 3, 3, 5], "conditions": [24, 1600, "a", 24000], "internal_node_id": "0.0-90.0", "key_presses": [103, 13, 97, 102, 13, 105, 13, 105, 13, 97, 98, 13], "trial": 3, "time_elapsed": 645308, "type": "DISTRACTOR", "trial_index": 117, "num1": [2, 7, 4, 5, 5, 4]}, "uniqueid": "MTK3408:3ZGVPD4G6UO2YYOTBU06M5PWPH6ZTH", "dateTime": 1520529456491}, {"current_trial": 118, "trialdata": {"rt": -1, "trial_type": "single-stim", "stimulus": "<p id=\"stim\">10</p>", "internal_node_id": "0.0-91.0-0.0", "time_elapsed": 648308, "key_press": -1, "trial_index": 118}, "uniqueid": "MTK3408:3ZGVPD4G6UO2YYOTBU06M5PWPH6ZTH", "dateTime": 1520529459492}, {"current_trial": 119, "trialdata": {"rt": -1, "trial_type": "single-stim", "stimulus": "<p id=\"stim\">9</p>", "internal_node_id": "0.0-91.0-1.0", "time_elapsed": 649310, "key_press": -1, "trial_index": 119}, "uniqueid": "MTK3408:3ZGVPD4G6UO2YYOTBU06M5PWPH6ZTH", "dateTime": 1520529460493}, {"current_trial": 120, "trialdata": {"rt": -1, "trial_type": "single-stim", "stimulus": "<p id=\"stim\">8</p>", "internal_node_id": "0.0-91.0-2.0", "time_elapsed": 650309, "key_press": -1, "trial_index": 120}, "uniqueid": "MTK3408:3ZGVPD4G6UO2YYOTBU06M5PWPH6ZTH", "dateTime": 1520529461492}, {"current_trial": 121, "trialdata": {"rt": -1, "trial_type": "single-stim", "stimulus": "<p id=\"stim\">7</p>", "internal_node_id": "0.0-91.0-3.0", "time_elapsed": 651310, "key_press": -1, "trial_index": 121}, "uniqueid": "MTK3408:3ZGVPD4G6UO2YYOTBU06M5PWPH6ZTH", "dateTime": 1520529462493}, {"current_trial": 122, "trialdata": {"rt": -1, "trial_type": "single-stim", "stimulus": "<p id=\"stim\">6</p>", "internal_node_id": "0.0-91.0-4.0", "time_elapsed": 652310, "key_press": -1, "trial_index": 122}, "uniqueid": "MTK3408:3ZGVPD4G6UO2YYOTBU06M5PWPH6ZTH", "dateTime": 1520529463494}, {"current_trial": 123, "trialdata": {"rt": -1, "trial_type": "single-stim", "stimulus": "<p id=\"stim\">5</p>", "internal_node_id": "0.0-91.0-5.0", "time_elapsed": 653311, "key_press": -1, "trial_index": 123}, "uniqueid": "MTK3408:3ZGVPD4G6UO2YYOTBU06M5PWPH6ZTH", "dateTime": 1520529464494}, {"current_trial": 124, "trialdata": {"rt": -1, "trial_type": "single-stim", "stimulus": "<p id=\"stim\">4</p>", "internal_node_id": "0.0-91.0-6.0", "time_elapsed": 654312, "key_press": -1, "trial_index": 124}, "uniqueid": "MTK3408:3ZGVPD4G6UO2YYOTBU06M5PWPH6ZTH", "dateTime": 1520529465495}, {"current_trial": 125, "trialdata": {"rt": -1, "trial_type": "single-stim", "stimulus": "<p id=\"stim\">3</p>", "internal_node_id": "0.0-91.0-7.0", "time_elapsed": 655313, "key_press": -1, "trial_index": 125}, "uniqueid": "MTK3408:3ZGVPD4G6UO2YYOTBU06M5PWPH6ZTH", "dateTime": 1520529466496}, {"current_trial": 126, "trialdata": {"rt": -1, "trial_type": "single-stim", "stimulus": "<p id=\"stim\">2</p>", "internal_node_id": "0.0-91.0-8.0", "time_elapsed": 656313, "key_press": -1, "trial_index": 126}, "uniqueid": "MTK3408:3ZGVPD4G6UO2YYOTBU06M5PWPH6ZTH", "dateTime": 1520529467496}, {"current_trial": 127, "trialdata": {"rt": -1, "trial_type": "single-stim", "stimulus": "<p id=\"stim\">1</p>", "internal_node_id": "0.0-91.0-9.0", "time_elapsed": 657315, "key_press": -1, "trial_index": 127}, "uniqueid": "MTK3408:3ZGVPD4G6UO2YYOTBU06M5PWPH6ZTH", "dateTime": 1520529468498}, {"current_trial": 128, "trialdata": {"rt": -1, "trial_type": "single-stim", "stimulus": "<p id=\"stim\">+</p>", "internal_node_id": "0.0-92.0-0.0", "time_elapsed": 658815, "key_press": -1, "type": "FIXATION", "trial_index": 128}, "uniqueid": "MTK3408:3ZGVPD4G6UO2YYOTBU06M5PWPH6ZTH", "dateTime": 1520529469999}, {"current_trial": 129, "trialdata": {"rt": -1000, "trial_type": "single-audio", "word": "mammal", "stimulus": "/static/audio/wordpool/MAMMAL.wav", "conditions": [24, 1600, "a", 24000], "internal_node_id": "0.0-93.0", "trial": 3, "time_elapsed": 661347, "serialpos": 0, "key_press": -1, "wordID": 860, "type": "PRES_AUD", "trial_index": 129}, "uniqueid": "MTK3408:3ZGVPD4G6UO2YYOTBU06M5PWPH6ZTH", "dateTime": 1520529472530}, {"current_trial": 130, "trialdata": {"rt": -1000, "trial_type": "single-audio", "word": "turtle", "stimulus": "/static/audio/wordpool/TURTLE.wav", "conditions": [24, 1600, "a", 24000], "internal_node_id": "0.0-94.0", "trial": 3, "time_elapsed": 663937, "serialpos": 1, "key_press": -1, "wordID": 1521, "type": "PRES_AUD", "trial_index": 130}, "uniqueid": "MTK3408:3ZGVPD4G6UO2YYOTBU06M5PWPH6ZTH", "dateTime": 1520529475120}, {"current_trial": 131, "trialdata": {"rt": -1000, "trial_type": "single-audio", "word": "pudding", "stimulus": "/static/audio/wordpool/PUDDING.wav", "conditions": [24, 1600, "a", 24000], "internal_node_id": "0.0-95.0", "trial": 3, "time_elapsed": 666555, "serialpos": 2, "key_press": -1, "wordID": 1138, "type": "PRES_AUD", "trial_index": 131}, "uniqueid": "MTK3408:3ZGVPD4G6UO2YYOTBU06M5PWPH6ZTH", "dateTime": 1520529477738}, {"current_trial": 132, "trialdata": {"rt": -1000, "trial_type": "single-audio", "word": "piano", "stimulus": "/static/audio/wordpool/PIANO.wav", "conditions": [24, 1600, "a", 24000], "internal_node_id": "0.0-96.0", "trial": 3, "time_elapsed": 669031, "serialpos": 3, "key_press": -1, "wordID": 1056, "type": "PRES_AUD", "trial_index": 132}, "uniqueid": "MTK3408:3ZGVPD4G6UO2YYOTBU06M5PWPH6ZTH", "dateTime": 1520529480214}, {"current_trial": 133, "trialdata": {"rt": -1000, "trial_type": "single-audio", "word": "japan", "stimulus": "/static/audio/wordpool/JAPAN.wav", "conditions": [24, 1600, "a", 24000], "internal_node_id": "0.0-97.0", "trial": 3, "time_elapsed": 671648, "serialpos": 4, "key_press": -1, "wordID": 748, "type": "PRES_AUD", "trial_index": 133}, "uniqueid": "MTK3408:3ZGVPD4G6UO2YYOTBU06M5PWPH6ZTH", "dateTime": 1520529482831}, {"current_trial": 134, "trialdata": {"rt": -1000, "trial_type": "single-audio", "word": "fruit", "stimulus": "/static/audio/wordpool/FRUIT.wav", "conditions": [24, 1600, "a", 24000], "internal_node_id": "0.0-98.0", "trial": 3, "time_elapsed": 674334, "serialpos": 5, "key_press": -1, "wordID": 609, "type": "PRES_AUD", "trial_index": 134}, "uniqueid": "MTK3408:3ZGVPD4G6UO2YYOTBU06M5PWPH6ZTH", "dateTime": 1520529485517}, {"current_trial": 135, "trialdata": {"rt": -1000, "trial_type": "single-audio", "word": "dragon", "stimulus": "/static/audio/wordpool/DRAGON.wav", "conditions": [24, 1600, "a", 24000], "internal_node_id": "0.0-99.0", "trial": 3, "time_elapsed": 676889, "serialpos": 6, "key_press": -1, "wordID": 491, "type": "PRES_AUD", "trial_index": 135}, "uniqueid": "MTK3408:3ZGVPD4G6UO2YYOTBU06M5PWPH6ZTH", "dateTime": 1520529488072}, {"current_trial": 136, "trialdata": {"rt": -1000, "trial_type": "single-audio", "word": "radish", "stimulus": "/static/audio/wordpool/RADISH.wav", "conditions": [24, 1600, "a", 24000], "internal_node_id": "0.0-100.0", "trial": 3, "time_elapsed": 679441, "serialpos": 7, "key_press": -1, "wordID": 1157, "type": "PRES_AUD", "trial_index": 136}, "uniqueid": "MTK3408:3ZGVPD4G6UO2YYOTBU06M5PWPH6ZTH", "dateTime": 1520529490625}, {"current_trial": 137, "trialdata": {"rt": -1000, "trial_type": "single-audio", "word": "pastry", "stimulus": "/static/audio/wordpool/PASTRY.wav", "conditions": [24, 1600, "a", 24000], "internal_node_id": "0.0-101.0", "trial": 3, "time_elapsed": 681864, "serialpos": 8, "key_press": -1, "wordID": 1021, "type": "PRES_AUD", "trial_index": 137}, "uniqueid": "MTK3408:3ZGVPD4G6UO2YYOTBU06M5PWPH6ZTH", "dateTime": 1520529493047}, {"current_trial": 138, "trialdata": {"rt": -1000, "trial_type": "single-audio", "word": "banjo", "stimulus": "/static/audio/wordpool/BANJO.wav", "conditions": [24, 1600, "a", 24000], "internal_node_id": "0.0-102.0", "trial": 3, "time_elapsed": 684563, "serialpos": 9, "key_press": -1, "wordID": 81, "type": "PRES_AUD", "trial_index": 138}, "uniqueid": "MTK3408:3ZGVPD4G6UO2YYOTBU06M5PWPH6ZTH", "dateTime": 1520529495746}, {"current_trial": 139, "trialdata": {"rt": -1000, "trial_type": "single-audio", "word": "motor", "stimulus": "/static/audio/wordpool/MOTOR.wav", "conditions": [24, 1600, "a", 24000], "internal_node_id": "0.0-103.0", "trial": 3, "time_elapsed": 687363, "serialpos": 10, "key_press": -1, "wordID": 921, "type": "PRES_AUD", "trial_index": 139}, "uniqueid": "MTK3408:3ZGVPD4G6UO2YYOTBU06M5PWPH6ZTH", "dateTime": 1520529498546}, {"current_trial": 140, "trialdata": {"rt": -1000, "trial_type": "single-audio", "word": "swamp", "stimulus": "/static/audio/wordpool/SWAMP.wav", "conditions": [24, 1600, "a", 24000], "internal_node_id": "0.0-104.0", "trial": 3, "time_elapsed": 690110, "serialpos": 11, "key_press": -1, "wordID": 1415, "type": "PRES_AUD", "trial_index": 140}, "uniqueid": "MTK3408:3ZGVPD4G6UO2YYOTBU06M5PWPH6ZTH", "dateTime": 1520529501293}, {"current_trial": 141, "trialdata": {"rt": -1000, "trial_type": "single-audio", "word": "mailbox", "stimulus": "/static/audio/wordpool/MAILBOX.wav", "conditions": [24, 1600, "a", 24000], "internal_node_id": "0.0-105.0", "trial": 3, "time_elapsed": 692631, "serialpos": 12, "key_press": -1, "wordID": 856, "type": "PRES_AUD", "trial_index": 141}, "uniqueid": "MTK3408:3ZGVPD4G6UO2YYOTBU06M5PWPH6ZTH", "dateTime": 1520529503815}, {"current_trial": 142, "trialdata": {"rt": -1000, "trial_type": "single-audio", "word": "sponge", "stimulus": "/static/audio/wordpool/SPONGE.wav", "conditions": [24, 1600, "a", 24000], "internal_node_id": "0.0-106.0", "trial": 3, "time_elapsed": 695105, "serialpos": 13, "key_press": -1, "wordID": 1354, "type": "PRES_AUD", "trial_index": 142}, "uniqueid": "MTK3408:3ZGVPD4G6UO2YYOTBU06M5PWPH6ZTH", "dateTime": 1520529506288}, {"current_trial": 143, "trialdata": {"rt": -1000, "trial_type": "single-audio", "word": "globe", "stimulus": "/static/audio/wordpool/GLOBE.wav", "conditions": [24, 1600, "a", 24000], "internal_node_id": "0.0-107.0", "trial": 3, "time_elapsed": 697889, "serialpos": 14, "key_press": -1, "wordID": 640, "type": "PRES_AUD", "trial_index": 143}, "uniqueid": "MTK3408:3ZGVPD4G6UO2YYOTBU06M5PWPH6ZTH", "dateTime": 1520529509072}, {"current_trial": 144, "trialdata": {"rt": -1000, "trial_type": "single-audio", "word": "playground", "stimulus": "/static/audio/wordpool/PLAYGROUND.wav", "conditions": [24, 1600, "a", 24000], "internal_node_id": "0.0-108.0", "trial": 3, "time_elapsed": 700569, "serialpos": 15, "key_press": -1, "wordID": 1086, "type": "PRES_AUD", "trial_index": 144}, "uniqueid": "MTK3408:3ZGVPD4G6UO2YYOTBU06M5PWPH6ZTH", "dateTime": 1520529511752}, {"current_trial": 145, "trialdata": {"rt": -1000, "trial_type": "single-audio", "word": "beaver", "stimulus": "/static/audio/wordpool/BEAVER.wav", "conditions": [24, 1600, "a", 24000], "internal_node_id": "0.0-109.0", "trial": 3, "time_elapsed": 702999, "serialpos": 16, "key_press": -1, "wordID": 108, "type": "PRES_AUD", "trial_index": 145}, "uniqueid": "MTK3408:3ZGVPD4G6UO2YYOTBU06M5PWPH6ZTH", "dateTime": 1520529514182}, {"current_trial": 146, "trialdata": {"rt": -1000, "trial_type": "single-audio", "word": "spool", "stimulus": "/static/audio/wordpool/SPOOL.wav", "conditions": [24, 1600, "a", 24000], "internal_node_id": "0.0-110.0", "trial": 3, "time_elapsed": 705585, "serialpos": 17, "key_press": -1, "wordID": 1355, "type": "PRES_AUD", "trial_index": 146}, "uniqueid": "MTK3408:3ZGVPD4G6UO2YYOTBU06M5PWPH6ZTH", "dateTime": 1520529516768}, {"current_trial": 147, "trialdata": {"rt": -1000, "trial_type": "single-audio", "word": "creature", "stimulus": "/static/audio/wordpool/CREATURE.wav", "conditions": [24, 1600, "a", 24000], "internal_node_id": "0.0-111.0", "trial": 3, "time_elapsed": 708080, "serialpos": 18, "key_press": -1, "wordID": 402, "type": "PRES_AUD", "trial_index": 147}, "uniqueid": "MTK3408:3ZGVPD4G6UO2YYOTBU06M5PWPH6ZTH", "dateTime": 1520529519263}, {"current_trial": 148, "trialdata": {"rt": -1000, "trial_type": "single-audio", "word": "mailman", "stimulus": "/static/audio/wordpool/MAILMAN.wav", "conditions": [24, 1600, "a", 24000], "internal_node_id": "0.0-112.0", "trial": 3, "time_elapsed": 710520, "serialpos": 19, "key_press": -1, "wordID": 857, "type": "PRES_AUD", "trial_index": 148}, "uniqueid": "MTK3408:3ZGVPD4G6UO2YYOTBU06M5PWPH6ZTH", "dateTime": 1520529521703}, {"current_trial": 149, "trialdata": {"rt": -1000, "trial_type": "single-audio", "word": "actor", "stimulus": "/static/audio/wordpool/ACTOR.wav", "conditions": [24, 1600, "a", 24000], "internal_node_id": "0.0-113.0", "trial": 3, "time_elapsed": 713223, "serialpos": 20, "key_press": -1, "wordID": 4, "type": "PRES_AUD", "trial_index": 149}, "uniqueid": "MTK3408:3ZGVPD4G6UO2YYOTBU06M5PWPH6ZTH", "dateTime": 1520529524406}, {"current_trial": 150, "trialdata": {"rt": -1000, "trial_type": "single-audio", "word": "actress", "stimulus": "/static/audio/wordpool/ACTRESS.wav", "conditions": [24, 1600, "a", 24000], "internal_node_id": "0.0-114.0", "trial": 3, "time_elapsed": 715950, "serialpos": 21, "key_press": -1, "wordID": 5, "type": "PRES_AUD", "trial_index": 150}, "uniqueid": "MTK3408:3ZGVPD4G6UO2YYOTBU06M5PWPH6ZTH", "dateTime": 1520529527133}, {"current_trial": 151, "trialdata": {"rt": -1000, "trial_type": "single-audio", "word": "uncle", "stimulus": "/static/audio/wordpool/UNCLE.wav", "conditions": [24, 1600, "a", 24000], "internal_node_id": "0.0-115.0", "trial": 3, "time_elapsed": 718472, "serialpos": 22, "key_press": -1, "wordID": 1535, "type": "PRES_AUD", "trial_index": 151}, "uniqueid": "MTK3408:3ZGVPD4G6UO2YYOTBU06M5PWPH6ZTH", "dateTime": 1520529529655}, {"current_trial": 152, "trialdata": {"rt": -1000, "trial_type": "single-audio", "word": "cyclone", "stimulus": "/static/audio/wordpool/CYCLONE.wav", "conditions": [24, 1600, "a", 24000], "internal_node_id": "0.0-116.0", "trial": 3, "time_elapsed": 721177, "serialpos": 23, "key_press": -1, "wordID": 430, "type": "PRES_AUD", "trial_index": 152}, "uniqueid": "MTK3408:3ZGVPD4G6UO2YYOTBU06M5PWPH6ZTH", "dateTime": 1520529532360}, {"current_trial": 153, "trialdata": {"rt": -1, "trial_type": "single-stim", "stimulus": "", "internal_node_id": "0.0-117.0-0.0", "time_elapsed": 722470, "key_press": -1, "type": "PRE_RECALL_DELAY", "trial_index": 153}, "uniqueid": "MTK3408:3ZGVPD4G6UO2YYOTBU06M5PWPH6ZTH", "dateTime": 1520529533653}, {"current_trial": 154, "trialdata": {"rt": -1000, "trial_type": "single-audio", "stimulus": "/static/audio/400Hz.wav", "internal_node_id": "0.0-118.0", "time_elapsed": 722975, "key_press": -1, "type": "PRE_RECALL_ALERT", "trial_index": 154}, "uniqueid": "MTK3408:3ZGVPD4G6UO2YYOTBU06M5PWPH6ZTH", "dateTime": 1520529534158}, {"current_trial": 155, "trialdata": {"rt": [5690, 10369, 14769, 20370, 23434, 30473, 38297, 44465, 47570, 58810], "recwords": ["actress", "actor", "cyclone", "banjo", "piano", "fruit", "dragon", "beaver", "mail", "turtle"], "key_times": [2466, 2841, 3297, 3561, 3834, 4154, 4378, 5690, 6921, 7257, 7698, 8058, 8306, 10369, 11336, 11562, 11970, 12274, 12538, 12898, 13234, 14769, 16442, 16794, 17122, 17601, 18105, 20370, 21266, 21529, 21769, 22137, 22689, 23434, 27578, 27962, 28274, 28514, 29193, 30473, 31113, 31426, 31642, 32593, 33402, 33864, 38297, 39088, 39986, 40178, 40706, 41073, 41328, 44465, 45145, 45288, 45569, 46033, 47570, 51850, 52034, 52249, 53201, 53633, 54978, 58810], "trial_type": "free-recall", "conditions": [24, 1600, "a", 24000], "internal_node_id": "0.0-119.0-0.0", "key_presses": [65, 67, 84, 82, 69, 83, 83, 188, 65, 67, 84, 79, 82, 188, 67, 89, 67, 76, 79, 78, 69, 188, 66, 65, 78, 74, 79, 188, 80, 73, 65, 78, 79, 188, 70, 82, 85, 73, 84, 188, 68, 82, 65, 71, 79, 78, 188, 66, 69, 65, 86, 69, 82, 188, 77, 65, 73, 76, 188, 84, 85, 82, 84, 76, 69, 188], "trial": 3, "time_elapsed": 782975, "type": "FREE_RECALL", "trial_index": 155}, "uniqueid": "MTK3408:3ZGVPD4G6UO2YYOTBU06M5PWPH6ZTH", "dateTime": 1520529594161}, {"current_trial": 156, "trialdata": {"rt": 7296, "trial_type": "text", "internal_node_id": "0.0-120.0", "time_elapsed": 792273, "key_press": 32, "type": "INSTRUCTIONS", "trial_index": 156}, "uniqueid": "MTK3408:3ZGVPD4G6UO2YYOTBU06M5PWPH6ZTH", "dateTime": 1520529603456}, {"current_trial": 157, "trialdata": {"rt": [4025, 9912], "trial_type": "math-distractor", "key_times": [2864, 3080, 4025, 8392, 8671, 9912], "responses": ["11", "13"], "num2": [3, 7, 4], "num3": [4, 5, 1], "conditions": [12, 1600, "a", 12000], "internal_node_id": "0.0-121.0", "key_presses": [97, 97, 13, 97, 99, 13], "trial": 4, "time_elapsed": 806275, "type": "DISTRACTOR", "trial_index": 157, "num1": [4, 1, 2]}, "uniqueid": "MTK3408:3ZGVPD4G6UO2YYOTBU06M5PWPH6ZTH", "dateTime": 1520529617458}, {"current_trial": 158, "trialdata": {"rt": -1, "trial_type": "single-stim", "stimulus": "<p id=\"stim\">10</p>", "internal_node_id": "0.0-122.0-0.0", "time_elapsed": 809275, "key_press": -1, "trial_index": 158}, "uniqueid": "MTK3408:3ZGVPD4G6UO2YYOTBU06M5PWPH6ZTH", "dateTime": 1520529620458}, {"current_trial": 159, "trialdata": {"rt": -1, "trial_type": "single-stim", "stimulus": "<p id=\"stim\">9</p>", "internal_node_id": "0.0-122.0-1.0", "time_elapsed": 810276, "key_press": -1, "trial_index": 159}, "uniqueid": "MTK3408:3ZGVPD4G6UO2YYOTBU06M5PWPH6ZTH", "dateTime": 1520529621459}, {"current_trial": 160, "trialdata": {"rt": -1, "trial_type": "single-stim", "stimulus": "<p id=\"stim\">8</p>", "internal_node_id": "0.0-122.0-2.0", "time_elapsed": 811276, "key_press": -1, "trial_index": 160}, "uniqueid": "MTK3408:3ZGVPD4G6UO2YYOTBU06M5PWPH6ZTH", "dateTime": 1520529622459}, {"current_trial": 161, "trialdata": {"rt": -1, "trial_type": "single-stim", "stimulus": "<p id=\"stim\">7</p>", "internal_node_id": "0.0-122.0-3.0", "time_elapsed": 812276, "key_press": -1, "trial_index": 161}, "uniqueid": "MTK3408:3ZGVPD4G6UO2YYOTBU06M5PWPH6ZTH", "dateTime": 1520529623459}, {"current_trial": 162, "trialdata": {"rt": -1, "trial_type": "single-stim", "stimulus": "<p id=\"stim\">6</p>", "internal_node_id": "0.0-122.0-4.0", "time_elapsed": 813279, "key_press": -1, "trial_index": 162}, "uniqueid": "MTK3408:3ZGVPD4G6UO2YYOTBU06M5PWPH6ZTH", "dateTime": 1520529624462}, {"current_trial": 163, "trialdata": {"rt": -1, "trial_type": "single-stim", "stimulus": "<p id=\"stim\">5</p>", "internal_node_id": "0.0-122.0-5.0", "time_elapsed": 814278, "key_press": -1, "trial_index": 163}, "uniqueid": "MTK3408:3ZGVPD4G6UO2YYOTBU06M5PWPH6ZTH", "dateTime": 1520529625461}, {"current_trial": 164, "trialdata": {"rt": -1, "trial_type": "single-stim", "stimulus": "<p id=\"stim\">4</p>", "internal_node_id": "0.0-122.0-6.0", "time_elapsed": 815278, "key_press": -1, "trial_index": 164}, "uniqueid": "MTK3408:3ZGVPD4G6UO2YYOTBU06M5PWPH6ZTH", "dateTime": 1520529626461}, {"current_trial": 165, "trialdata": {"rt": -1, "trial_type": "single-stim", "stimulus": "<p id=\"stim\">3</p>", "internal_node_id": "0.0-122.0-7.0", "time_elapsed": 816278, "key_press": -1, "trial_index": 165}, "uniqueid": "MTK3408:3ZGVPD4G6UO2YYOTBU06M5PWPH6ZTH", "dateTime": 1520529627461}, {"current_trial": 166, "trialdata": {"rt": -1, "trial_type": "single-stim", "stimulus": "<p id=\"stim\">2</p>", "internal_node_id": "0.0-122.0-8.0", "time_elapsed": 817278, "key_press": -1, "trial_index": 166}, "uniqueid": "MTK3408:3ZGVPD4G6UO2YYOTBU06M5PWPH6ZTH", "dateTime": 1520529628461}, {"current_trial": 167, "trialdata": {"rt": -1, "trial_type": "single-stim", "stimulus": "<p id=\"stim\">1</p>", "internal_node_id": "0.0-122.0-9.0", "time_elapsed": 818280, "key_press": -1, "trial_index": 167}, "uniqueid": "MTK3408:3ZGVPD4G6UO2YYOTBU06M5PWPH6ZTH", "dateTime": 1520529629463}, {"current_trial": 168, "trialdata": {"rt": -1, "trial_type": "single-stim", "stimulus": "<p id=\"stim\">+</p>", "internal_node_id": "0.0-123.0-0.0", "time_elapsed": 819780, "key_press": -1, "type": "FIXATION", "trial_index": 168}, "uniqueid": "MTK3408:3ZGVPD4G6UO2YYOTBU06M5PWPH6ZTH", "dateTime": 1520529630963}, {"current_trial": 169, "trialdata": {"rt": -1000, "trial_type": "single-audio", "word": "sandwich", "stimulus": "/static/audio/wordpool/SANDWICH.wav", "conditions": [12, 1600, "a", 12000], "internal_node_id": "0.0-124.0", "trial": 4, "time_elapsed": 822374, "serialpos": 0, "key_press": -1, "wordID": 1231, "type": "PRES_AUD", "trial_index": 169}, "uniqueid": "MTK3408:3ZGVPD4G6UO2YYOTBU06M5PWPH6ZTH", "dateTime": 1520529633557}, {"current_trial": 170, "trialdata": {"rt": -1000, "trial_type": "single-audio", "word": "cookbook", "stimulus": "/static/audio/wordpool/COOKBOOK.wav", "conditions": [12, 1600, "a", 12000], "internal_node_id": "0.0-125.0", "trial": 4, "time_elapsed": 824932, "serialpos": 1, "key_press": -1, "wordID": 372, "type": "PRES_AUD", "trial_index": 170}, "uniqueid": "MTK3408:3ZGVPD4G6UO2YYOTBU06M5PWPH6ZTH", "dateTime": 1520529636115}, {"current_trial": 171, "trialdata": {"rt": -1000, "trial_type": "single-audio", "word": "diver", "stimulus": "/static/audio/wordpool/DIVER.wav", "conditions": [12, 1600, "a", 12000], "internal_node_id": "0.0-126.0", "trial": 4, "time_elapsed": 827455, "serialpos": 2, "key_press": -1, "wordID": 475, "type": "PRES_AUD", "trial_index": 171}, "uniqueid": "MTK3408:3ZGVPD4G6UO2YYOTBU06M5PWPH6ZTH", "dateTime": 1520529638638}, {"current_trial": 172, "trialdata": {"rt": -1000, "trial_type": "single-audio", "word": "swimmer", "stimulus": "/static/audio/wordpool/SWIMMER.wav", "conditions": [12, 1600, "a", 12000], "internal_node_id": "0.0-127.0", "trial": 4, "time_elapsed": 830172, "serialpos": 3, "key_press": -1, "wordID": 1419, "type": "PRES_AUD", "trial_index": 172}, "uniqueid": "MTK3408:3ZGVPD4G6UO2YYOTBU06M5PWPH6ZTH", "dateTime": 1520529641355}, {"current_trial": 173, "trialdata": {"rt": -1000, "trial_type": "single-audio", "word": "garden", "stimulus": "/static/audio/wordpool/GARDEN.wav", "conditions": [12, 1600, "a", 12000], "internal_node_id": "0.0-128.0", "trial": 4, "time_elapsed": 832976, "serialpos": 4, "key_press": -1, "wordID": 622, "type": "PRES_AUD", "trial_index": 173}, "uniqueid": "MTK3408:3ZGVPD4G6UO2YYOTBU06M5PWPH6ZTH", "dateTime": 1520529644159}, {"current_trial": 174, "trialdata": {"rt": -1000, "trial_type": "single-audio", "word": "cupboard", "stimulus": "/static/audio/wordpool/CUPBOARD.wav", "conditions": [12, 1600, "a", 12000], "internal_node_id": "0.0-129.0", "trial": 4, "time_elapsed": 835496, "serialpos": 5, "key_press": -1, "wordID": 424, "type": "PRES_AUD", "trial_index": 174}, "uniqueid": "MTK3408:3ZGVPD4G6UO2YYOTBU06M5PWPH6ZTH", "dateTime": 1520529646679}, {"current_trial": 175, "trialdata": {"rt": -1000, "trial_type": "single-audio", "word": "hand", "stimulus": "/static/audio/wordpool/HAND.wav", "conditions": [12, 1600, "a", 12000], "internal_node_id": "0.0-130.0", "trial": 4, "time_elapsed": 838232, "serialpos": 6, "key_press": -1, "wordID": 682, "type": "PRES_AUD", "trial_index": 175}, "uniqueid": "MTK3408:3ZGVPD4G6UO2YYOTBU06M5PWPH6ZTH", "dateTime": 1520529649415}, {"current_trial": 176, "trialdata": {"rt": -1000, "trial_type": "single-audio", "word": "lady", "stimulus": "/static/audio/wordpool/LADY.wav", "conditions": [12, 1600, "a", 12000], "internal_node_id": "0.0-131.0", "trial": 4, "time_elapsed": 841026, "serialpos": 7, "key_press": -1, "wordID": 793, "type": "PRES_AUD", "trial_index": 176}, "uniqueid": "MTK3408:3ZGVPD4G6UO2YYOTBU06M5PWPH6ZTH", "dateTime": 1520529652209}, {"current_trial": 177, "trialdata": {"rt": -1000, "trial_type": "single-audio", "word": "muffin", "stimulus": "/static/audio/wordpool/MUFFIN.wav", "conditions": [12, 1600, "a", 12000], "internal_node_id": "0.0-132.0", "trial": 4, "time_elapsed": 843436, "serialpos": 8, "key_press": -1, "wordID": 928, "type": "PRES_AUD", "trial_index": 177}, "uniqueid": "MTK3408:3ZGVPD4G6UO2YYOTBU06M5PWPH6ZTH", "dateTime": 1520529654619}, {"current_trial": 178, "trialdata": {"rt": -1000, "trial_type": "single-audio", "word": "parent", "stimulus": "/static/audio/wordpool/PARENT.wav", "conditions": [12, 1600, "a", 12000], "internal_node_id": "0.0-133.0", "trial": 4, "time_elapsed": 846102, "serialpos": 9, "key_press": -1, "wordID": 1012, "type": "PRES_AUD", "trial_index": 178}, "uniqueid": "MTK3408:3ZGVPD4G6UO2YYOTBU06M5PWPH6ZTH", "dateTime": 1520529657285}, {"current_trial": 179, "trialdata": {"rt": -1000, "trial_type": "single-audio", "word": "plate", "stimulus": "/static/audio/wordpool/PLATE.wav", "conditions": [12, 1600, "a", 12000], "internal_node_id": "0.0-134.0", "trial": 4, "time_elapsed": 848620, "serialpos": 10, "key_press": -1, "wordID": 1085, "type": "PRES_AUD", "trial_index": 179}, "uniqueid": "MTK3408:3ZGVPD4G6UO2YYOTBU06M5PWPH6ZTH", "dateTime": 1520529659803}, {"current_trial": 180, "trialdata": {"rt": -1000, "trial_type": "single-audio", "word": "tablet", "stimulus": "/static/audio/wordpool/TABLET.wav", "conditions": [12, 1600, "a", 12000], "internal_node_id": "0.0-135.0", "trial": 4, "time_elapsed": 851128, "serialpos": 11, "key_press": -1, "wordID": 1426, "type": "PRES_AUD", "trial_index": 180}, "uniqueid": "MTK3408:3ZGVPD4G6UO2YYOTBU06M5PWPH6ZTH", "dateTime": 1520529662311}, {"current_trial": 181, "trialdata": {"rt": -1, "trial_type": "single-stim", "stimulus": "", "internal_node_id": "0.0-136.0-0.0", "time_elapsed": 852419, "key_press": -1, "type": "PRE_RECALL_DELAY", "trial_index": 181}, "uniqueid": "MTK3408:3ZGVPD4G6UO2YYOTBU06M5PWPH6ZTH", "dateTime": 1520529663604}, {"current_trial": 182, "trialdata": {"rt": -1000, "trial_type": "single-audio", "stimulus": "/static/audio/400Hz.wav", "internal_node_id": "0.0-137.0", "time_elapsed": 852924, "key_press": -1, "type": "PRE_RECALL_ALERT", "trial_index": 182}, "uniqueid": "MTK3408:3ZGVPD4G6UO2YYOTBU06M5PWPH6ZTH", "dateTime": 1520529664107}, {"current_trial": 183, "trialdata": {"rt": [7035, 9371, 13691, 18379, 26035, 47397], "recwords": ["lady", "plate", "tablet", "muffin", "garden", "swim"], "key_times": [4629, 4900, 5323, 5899, 7035, 7661, 8013, 8180, 8468, 8763, 9371, 9939, 10243, 10603, 11228, 11581, 12021, 13691, 15316, 15572, 16165, 16372, 16572, 16931, 18379, 19029, 19269, 19588, 20068, 20412, 20971, 26035, 29844, 31725, 32843, 35165, 47397], "trial_type": "free-recall", "conditions": [12, 1600, "a", 12000], "internal_node_id": "0.0-138.0-0.0", "key_presses": [76, 65, 68, 89, 188, 80, 76, 65, 84, 69, 188, 84, 65, 66, 76, 69, 84, 188, 77, 85, 70, 70, 73, 78, 188, 71, 65, 82, 68, 69, 78, 188, 83, 87, 73, 77, 188], "trial": 4, "time_elapsed": 912927, "type": "FREE_RECALL", "trial_index": 183}, "uniqueid": "MTK3408:3ZGVPD4G6UO2YYOTBU06M5PWPH6ZTH", "dateTime": 1520529724112}, {"current_trial": 184, "trialdata": {"rt": 4985, "trial_type": "text", "internal_node_id": "0.0-139.0", "time_elapsed": 919914, "key_press": 32, "type": "INSTRUCTIONS", "trial_index": 184}, "uniqueid": "MTK3408:3ZGVPD4G6UO2YYOTBU06M5PWPH6ZTH", "dateTime": 1520529731097}, {"current_trial": 185, "trialdata": {"rt": [3094, 6365, 8590, 10813], "trial_type": "math-distractor", "key_times": [2359, 2614, 3094, 5575, 5822, 6365, 7902, 8149, 8590, 10134, 10358, 10813], "responses": ["17", "13", "18", "17"], "num2": [6, 5, 6, 6, 5], "num3": [4, 4, 4, 7, 6], "conditions": [12, 800, "a", 12000], "internal_node_id": "0.0-140.0", "key_presses": [97, 103, 13, 97, 99, 13, 97, 104, 13, 97, 103, 13], "trial": 5, "time_elapsed": 933914, "type": "DISTRACTOR", "trial_index": 185, "num1": [7, 4, 8, 4, 2]}, "uniqueid": "MTK3408:3ZGVPD4G6UO2YYOTBU06M5PWPH6ZTH", "dateTime": 1520529745097}, {"current_trial": 186, "trialdata": {"rt": -1, "trial_type": "single-stim", "stimulus": "<p id=\"stim\">10</p>", "internal_node_id": "0.0-141.0-0.0", "time_elapsed": 936915, "key_press": -1, "trial_index": 186}, "uniqueid": "MTK3408:3ZGVPD4G6UO2YYOTBU06M5PWPH6ZTH", "dateTime": 1520529748098}, {"current_trial": 187, "trialdata": {"rt": -1, "trial_type": "single-stim", "stimulus": "<p id=\"stim\">9</p>", "internal_node_id": "0.0-141.0-1.0", "time_elapsed": 937915, "key_press": -1, "trial_index": 187}, "uniqueid": "MTK3408:3ZGVPD4G6UO2YYOTBU06M5PWPH6ZTH", "dateTime": 1520529749098}, {"current_trial": 188, "trialdata": {"rt": -1, "trial_type": "single-stim", "stimulus": "<p id=\"stim\">8</p>", "internal_node_id": "0.0-141.0-2.0", "time_elapsed": 938916, "key_press": -1, "trial_index": 188}, "uniqueid": "MTK3408:3ZGVPD4G6UO2YYOTBU06M5PWPH6ZTH", "dateTime": 1520529750099}, {"current_trial": 189, "trialdata": {"rt": -1, "trial_type": "single-stim", "stimulus": "<p id=\"stim\">7</p>", "internal_node_id": "0.0-141.0-3.0", "time_elapsed": 939916, "key_press": -1, "trial_index": 189}, "uniqueid": "MTK3408:3ZGVPD4G6UO2YYOTBU06M5PWPH6ZTH", "dateTime": 1520529751099}, {"current_trial": 190, "trialdata": {"rt": -1, "trial_type": "single-stim", "stimulus": "<p id=\"stim\">6</p>", "internal_node_id": "0.0-141.0-4.0", "time_elapsed": 940916, "key_press": -1, "trial_index": 190}, "uniqueid": "MTK3408:3ZGVPD4G6UO2YYOTBU06M5PWPH6ZTH", "dateTime": 1520529752099}, {"current_trial": 191, "trialdata": {"rt": -1, "trial_type": "single-stim", "stimulus": "<p id=\"stim\">5</p>", "internal_node_id": "0.0-141.0-5.0", "time_elapsed": 941918, "key_press": -1, "trial_index": 191}, "uniqueid": "MTK3408:3ZGVPD4G6UO2YYOTBU06M5PWPH6ZTH", "dateTime": 1520529753101}, {"current_trial": 192, "trialdata": {"rt": -1, "trial_type": "single-stim", "stimulus": "<p id=\"stim\">4</p>", "internal_node_id": "0.0-141.0-6.0", "time_elapsed": 942919, "key_press": -1, "trial_index": 192}, "uniqueid": "MTK3408:3ZGVPD4G6UO2YYOTBU06M5PWPH6ZTH", "dateTime": 1520529754102}, {"current_trial": 193, "trialdata": {"rt": -1, "trial_type": "single-stim", "stimulus": "<p id=\"stim\">3</p>", "internal_node_id": "0.0-141.0-7.0", "time_elapsed": 943920, "key_press": -1, "trial_index": 193}, "uniqueid": "MTK3408:3ZGVPD4G6UO2YYOTBU06M5PWPH6ZTH", "dateTime": 1520529755103}, {"current_trial": 194, "trialdata": {"rt": -1, "trial_type": "single-stim", "stimulus": "<p id=\"stim\">2</p>", "internal_node_id": "0.0-141.0-8.0", "time_elapsed": 944919, "key_press": -1, "trial_index": 194}, "uniqueid": "MTK3408:3ZGVPD4G6UO2YYOTBU06M5PWPH6ZTH", "dateTime": 1520529756103}, {"current_trial": 195, "trialdata": {"rt": -1, "trial_type": "single-stim", "stimulus": "<p id=\"stim\">1</p>", "internal_node_id": "0.0-141.0-9.0", "time_elapsed": 945920, "key_press": -1, "trial_index": 195}, "uniqueid": "MTK3408:3ZGVPD4G6UO2YYOTBU06M5PWPH6ZTH", "dateTime": 1520529757103}, {"current_trial": 196, "trialdata": {"rt": -1, "trial_type": "single-stim", "stimulus": "<p id=\"stim\">+</p>", "internal_node_id": "0.0-142.0-0.0", "time_elapsed": 947421, "key_press": -1, "type": "FIXATION", "trial_index": 196}, "uniqueid": "MTK3408:3ZGVPD4G6UO2YYOTBU06M5PWPH6ZTH", "dateTime": 1520529758604}, {"current_trial": 197, "trialdata": {"rt": -1000, "trial_type": "single-audio", "word": "highway", "stimulus": "/static/audio/wordpool/HIGHWAY.wav", "conditions": [12, 800, "a", 12000], "internal_node_id": "0.0-143.0", "trial": 5, "time_elapsed": 949215, "serialpos": 0, "key_press": -1, "wordID": 706, "type": "PRES_AUD", "trial_index": 197}, "uniqueid": "MTK3408:3ZGVPD4G6UO2YYOTBU06M5PWPH6ZTH", "dateTime": 1520529760398}, {"current_trial": 198, "trialdata": {"rt": -1000, "trial_type": "single-audio", "word": "buggy", "stimulus": "/static/audio/wordpool/BUGGY.wav", "conditions": [12, 800, "a", 12000], "internal_node_id": "0.0-144.0", "trial": 5, "time_elapsed": 950979, "serialpos": 1, "key_press": -1, "wordID": 187, "type": "PRES_AUD", "trial_index": 198}, "uniqueid": "MTK3408:3ZGVPD4G6UO2YYOTBU06M5PWPH6ZTH", "dateTime": 1520529762162}, {"current_trial": 199, "trialdata": {"rt": -1000, "trial_type": "single-audio", "word": "brother", "stimulus": "/static/audio/wordpool/BROTHER.wav", "conditions": [12, 800, "a", 12000], "internal_node_id": "0.0-145.0", "trial": 5, "time_elapsed": 952958, "serialpos": 2, "key_press": -1, "wordID": 178, "type": "PRES_AUD", "trial_index": 199}, "uniqueid": "MTK3408:3ZGVPD4G6UO2YYOTBU06M5PWPH6ZTH", "dateTime": 1520529764141}, {"current_trial": 200, "trialdata": {"rt": -1000, "trial_type": "single-audio", "word": "gravel", "stimulus": "/static/audio/wordpool/GRAVEL.wav", "conditions": [12, 800, "a", 12000], "internal_node_id": "0.0-146.0", "trial": 5, "time_elapsed": 954793, "serialpos": 3, "key_press": -1, "wordID": 658, "type": "PRES_AUD", "trial_index": 200}, "uniqueid": "MTK3408:3ZGVPD4G6UO2YYOTBU06M5PWPH6ZTH", "dateTime": 1520529765976}, {"current_trial": 201, "trialdata": {"rt": -1000, "trial_type": "single-audio", "word": "lipstick", "stimulus": "/static/audio/wordpool/LIPSTICK.wav", "conditions": [12, 800, "a", 12000], "internal_node_id": "0.0-147.0", "trial": 5, "time_elapsed": 956415, "serialpos": 4, "key_press": -1, "wordID": 828, "type": "PRES_AUD", "trial_index": 201}, "uniqueid": "MTK3408:3ZGVPD4G6UO2YYOTBU06M5PWPH6ZTH", "dateTime": 1520529767598}, {"current_trial": 202, "trialdata": {"rt": -1000, "trial_type": "single-audio", "word": "necklace", "stimulus": "/static/audio/wordpool/NECKLACE.wav", "conditions": [12, 800, "a", 12000], "internal_node_id": "0.0-148.0", "trial": 5, "time_elapsed": 958099, "serialpos": 5, "key_press": -1, "wordID": 939, "type": "PRES_AUD", "trial_index": 202}, "uniqueid": "MTK3408:3ZGVPD4G6UO2YYOTBU06M5PWPH6ZTH", "dateTime": 1520529769282}, {"current_trial": 203, "trialdata": {"rt": -1000, "trial_type": "single-audio", "word": "friend", "stimulus": "/static/audio/wordpool/FRIEND.wav", "conditions": [12, 800, "a", 12000], "internal_node_id": "0.0-149.0", "trial": 5, "time_elapsed": 959856, "serialpos": 6, "key_press": -1, "wordID": 605, "type": "PRES_AUD", "trial_index": 203}, "uniqueid": "MTK3408:3ZGVPD4G6UO2YYOTBU06M5PWPH6ZTH", "dateTime": 1520529771039}, {"current_trial": 204, "trialdata": {"rt": -1000, "trial_type": "single-audio", "word": "hawk", "stimulus": "/static/audio/wordpool/HAWK.wav", "conditions": [12, 800, "a", 12000], "internal_node_id": "0.0-150.0", "trial": 5, "time_elapsed": 961710, "serialpos": 7, "key_press": -1, "wordID": 691, "type": "PRES_AUD", "trial_index": 204}, "uniqueid": "MTK3408:3ZGVPD4G6UO2YYOTBU06M5PWPH6ZTH", "dateTime": 1520529772893}, {"current_trial": 205, "trialdata": {"rt": -1000, "trial_type": "single-audio", "word": "honey", "stimulus": "/static/audio/wordpool/HONEY.wav", "conditions": [12, 800, "a", 12000], "internal_node_id": "0.0-151.0", "trial": 5, "time_elapsed": 963615, "serialpos": 8, "key_press": -1, "wordID": 712, "type": "PRES_AUD", "trial_index": 205}, "uniqueid": "MTK3408:3ZGVPD4G6UO2YYOTBU06M5PWPH6ZTH", "dateTime": 1520529774798}, {"current_trial": 206, "trialdata": {"rt": -1000, "trial_type": "single-audio", "word": "panther", "stimulus": "/static/audio/wordpool/PANTHER.wav", "conditions": [12, 800, "a", 12000], "internal_node_id": "0.0-152.0", "trial": 5, "time_elapsed": 965409, "serialpos": 9, "key_press": -1, "wordID": 1008, "type": "PRES_AUD", "trial_index": 206}, "uniqueid": "MTK3408:3ZGVPD4G6UO2YYOTBU06M5PWPH6ZTH", "dateTime": 1520529776592}, {"current_trial": 207, "trialdata": {"rt": -1000, "trial_type": "single-audio", "word": "suspect", "stimulus": "/static/audio/wordpool/SUSPECT.wav", "conditions": [12, 800, "a", 12000], "internal_node_id": "0.0-153.0", "trial": 5, "time_elapsed": 967034, "serialpos": 10, "key_press": -1, "wordID": 1414, "type": "PRES_AUD", "trial_index": 207}, "uniqueid": "MTK3408:3ZGVPD4G6UO2YYOTBU06M5PWPH6ZTH", "dateTime": 1520529778217}, {"current_trial": 208, "trialdata": {"rt": -1000, "trial_type": "single-audio", "word": "victim", "stimulus": "/static/audio/wordpool/VICTIM.wav", "conditions": [12, 800, "a", 12000], "internal_node_id": "0.0-154.0", "trial": 5, "time_elapsed": 968765, "serialpos": 11, "key_press": -1, "wordID": 1561, "type": "PRES_AUD", "trial_index": 208}, "uniqueid": "MTK3408:3ZGVPD4G6UO2YYOTBU06M5PWPH6ZTH", "dateTime": 1520529779948}, {"current_trial": 209, "trialdata": {"rt": -1, "trial_type": "single-stim", "stimulus": "", "internal_node_id": "0.0-155.0-0.0", "time_elapsed": 970136, "key_press": -1, "type": "PRE_RECALL_DELAY", "trial_index": 209}, "uniqueid": "MTK3408:3ZGVPD4G6UO2YYOTBU06M5PWPH6ZTH", "dateTime": 1520529781319}, {"current_trial": 210, "trialdata": {"rt": -1000, "trial_type": "single-audio", "stimulus": "/static/audio/400Hz.wav", "internal_node_id": "0.0-156.0", "time_elapsed": 970637, "key_press": -1, "type": "PRE_RECALL_ALERT", "trial_index": 210}, "uniqueid": "MTK3408:3ZGVPD4G6UO2YYOTBU06M5PWPH6ZTH", "dateTime": 1520529781821}, {"current_trial": 211, "trialdata": {"rt": [5520, 5769, 9480, 16105, 21064, 31089], "recwords": ["suspect", "", "victim", "lipstick", "necklace", "brother"], "key_times": [1705, 1984, 2320, 2976, 3273, 3656, 4161, 5520, 5769, 6016, 6281, 6504, 6872, 7136, 7712, 9480, 12129, 12409, 13176, 13480, 13848, 14272, 14585, 14841, 16105, 17320, 17657, 18456, 18704, 19024, 19304, 19818, 20057, 21064, 25353, 25664, 25992, 26297, 26473, 26728, 27184, 31089, 35290, 35634, 37664], "trial_type": "free-recall", "conditions": [12, 800, "a", 12000], "internal_node_id": "0.0-157.0-0.0", "key_presses": [83, 85, 83, 80, 69, 67, 84, 188, 32, 86, 73, 67, 84, 73, 77, 188, 76, 73, 80, 83, 84, 73, 67, 75, 188, 78, 69, 67, 75, 76, 65, 67, 69, 188, 66, 82, 79, 84, 72, 69, 82, 188, 66, 85, 71], "trial": 5, "time_elapsed": 1030640, "type": "FREE_RECALL", "trial_index": 211}, "uniqueid": "MTK3408:3ZGVPD4G6UO2YYOTBU06M5PWPH6ZTH", "dateTime": 1520529841825}, {"current_trial": 212, "trialdata": {"rt": 2701, "trial_type": "text", "internal_node_id": "0.0-158.0", "time_elapsed": 1035345, "key_press": 32, "type": "INSTRUCTIONS", "trial_index": 212}, "uniqueid": "MTK3408:3ZGVPD4G6UO2YYOTBU06M5PWPH6ZTH", "dateTime": 1520529846529}, {"current_trial": 213, "trialdata": {"rt": [7102, 8893, 11127, 13262, 17229, 19391], "trial_type": "math-distractor", "key_times": [5991, 6198, 7102, 8446, 8893, 10398, 10645, 11127, 12638, 12854, 13262, 15502, 16351, 17229, 18446, 18670, 19391, 22773, 22982], "responses": ["21", "5", "13", "10", "13", "21"], "num2": [7, 1, 3, 1, 1, 7, 7], "num3": [9, 3, 7, 4, 5, 7, 5], "conditions": [24, 1600, "a", 24000], "internal_node_id": "0.0-159.0", "key_presses": [98, 97, 13, 101, 13, 97, 99, 13, 97, 96, 13, 97, 99, 13, 98, 97, 13, 97, 100], "trial": 6, "time_elapsed": 1061348, "type": "DISTRACTOR", "trial_index": 213, "num1": [4, 1, 3, 5, 7, 7, 2]}, "uniqueid": "MTK3408:3ZGVPD4G6UO2YYOTBU06M5PWPH6ZTH", "dateTime": 1520529872531}, {"current_trial": 214, "trialdata": {"rt": -1, "trial_type": "single-stim", "stimulus": "<p id=\"stim\">10</p>", "internal_node_id": "0.0-160.0-0.0", "time_elapsed": 1064347, "key_press": -1, "trial_index": 214}, "uniqueid": "MTK3408:3ZGVPD4G6UO2YYOTBU06M5PWPH6ZTH", "dateTime": 1520529875530}, {"current_trial": 215, "trialdata": {"rt": -1, "trial_type": "single-stim", "stimulus": "<p id=\"stim\">9</p>", "internal_node_id": "0.0-160.0-1.0", "time_elapsed": 1065348, "key_press": -1, "trial_index": 215}, "uniqueid": "MTK3408:3ZGVPD4G6UO2YYOTBU06M5PWPH6ZTH", "dateTime": 1520529876531}, {"current_trial": 216, "trialdata": {"rt": -1, "trial_type": "single-stim", "stimulus": "<p id=\"stim\">8</p>", "internal_node_id": "0.0-160.0-2.0", "time_elapsed": 1066349, "key_press": -1, "trial_index": 216}, "uniqueid": "MTK3408:3ZGVPD4G6UO2YYOTBU06M5PWPH6ZTH", "dateTime": 1520529877532}, {"current_trial": 217, "trialdata": {"rt": -1, "trial_type": "single-stim", "stimulus": "<p id=\"stim\">7</p>", "internal_node_id": "0.0-160.0-3.0", "time_elapsed": 1067349, "key_press": -1, "trial_index": 217}, "uniqueid": "MTK3408:3ZGVPD4G6UO2YYOTBU06M5PWPH6ZTH", "dateTime": 1520529878532}, {"current_trial": 218, "trialdata": {"rt": -1, "trial_type": "single-stim", "stimulus": "<p id=\"stim\">6</p>", "internal_node_id": "0.0-160.0-4.0", "time_elapsed": 1068350, "key_press": -1, "trial_index": 218}, "uniqueid": "MTK3408:3ZGVPD4G6UO2YYOTBU06M5PWPH6ZTH", "dateTime": 1520529879533}, {"current_trial": 219, "trialdata": {"rt": -1, "trial_type": "single-stim", "stimulus": "<p id=\"stim\">5</p>", "internal_node_id": "0.0-160.0-5.0", "time_elapsed": 1069351, "key_press": -1, "trial_index": 219}, "uniqueid": "MTK3408:3ZGVPD4G6UO2YYOTBU06M5PWPH6ZTH", "dateTime": 1520529880534}, {"current_trial": 220, "trialdata": {"rt": -1, "trial_type": "single-stim", "stimulus": "<p id=\"stim\">4</p>", "internal_node_id": "0.0-160.0-6.0", "time_elapsed": 1070351, "key_press": -1, "trial_index": 220}, "uniqueid": "MTK3408:3ZGVPD4G6UO2YYOTBU06M5PWPH6ZTH", "dateTime": 1520529881534}, {"current_trial": 221, "trialdata": {"rt": -1, "trial_type": "single-stim", "stimulus": "<p id=\"stim\">3</p>", "internal_node_id": "0.0-160.0-7.0", "time_elapsed": 1071351, "key_press": -1, "trial_index": 221}, "uniqueid": "MTK3408:3ZGVPD4G6UO2YYOTBU06M5PWPH6ZTH", "dateTime": 1520529882534}, {"current_trial": 222, "trialdata": {"rt": -1, "trial_type": "single-stim", "stimulus": "<p id=\"stim\">2</p>", "internal_node_id": "0.0-160.0-8.0", "time_elapsed": 1072352, "key_press": -1, "trial_index": 222}, "uniqueid": "MTK3408:3ZGVPD4G6UO2YYOTBU06M5PWPH6ZTH", "dateTime": 1520529883535}, {"current_trial": 223, "trialdata": {"rt": -1, "trial_type": "single-stim", "stimulus": "<p id=\"stim\">1</p>", "internal_node_id": "0.0-160.0-9.0", "time_elapsed": 1073352, "key_press": -1, "trial_index": 223}, "uniqueid": "MTK3408:3ZGVPD4G6UO2YYOTBU06M5PWPH6ZTH", "dateTime": 1520529884535}, {"current_trial": 224, "trialdata": {"rt": -1, "trial_type": "single-stim", "stimulus": "<p id=\"stim\">+</p>", "internal_node_id": "0.0-161.0-0.0", "time_elapsed": 1074852, "key_press": -1, "type": "FIXATION", "trial_index": 224}, "uniqueid": "MTK3408:3ZGVPD4G6UO2YYOTBU06M5PWPH6ZTH", "dateTime": 1520529886035}, {"current_trial": 225, "trialdata": {"rt": -1000, "trial_type": "single-audio", "word": "scallop", "stimulus": "/static/audio/wordpool/SCALLOP.wav", "conditions": [24, 1600, "a", 24000], "internal_node_id": "0.0-162.0", "trial": 6, "time_elapsed": 1077535, "serialpos": 0, "key_press": -1, "wordID": 1241, "type": "PRES_AUD", "trial_index": 225}, "uniqueid": "MTK3408:3ZGVPD4G6UO2YYOTBU06M5PWPH6ZTH", "dateTime": 1520529888718}, {"current_trial": 226, "trialdata": {"rt": -1000, "trial_type": "single-audio", "word": "balloon", "stimulus": "/static/audio/wordpool/BALLOON.wav", "conditions": [24, 1600, "a", 24000], "internal_node_id": "0.0-163.0", "trial": 6, "time_elapsed": 1080224, "serialpos": 1, "key_press": -1, "wordID": 74, "type": "PRES_AUD", "trial_index": 226}, "uniqueid": "MTK3408:3ZGVPD4G6UO2YYOTBU06M5PWPH6ZTH", "dateTime": 1520529891407}, {"current_trial": 227, "trialdata": {"rt": -1000, "trial_type": "single-audio", "word": "pizza", "stimulus": "/static/audio/wordpool/PIZZA.wav", "conditions": [24, 1600, "a", 24000], "internal_node_id": "0.0-164.0", "trial": 6, "time_elapsed": 1082756, "serialpos": 2, "key_press": -1, "wordID": 1078, "type": "PRES_AUD", "trial_index": 227}, "uniqueid": "MTK3408:3ZGVPD4G6UO2YYOTBU06M5PWPH6ZTH", "dateTime": 1520529893939}, {"current_trial": 228, "trialdata": {"rt": -1000, "trial_type": "single-audio", "word": "rod", "stimulus": "/static/audio/wordpool/ROD.wav", "conditions": [24, 1600, "a", 24000], "internal_node_id": "0.0-165.0", "trial": 6, "time_elapsed": 1085565, "serialpos": 3, "key_press": -1, "wordID": 1202, "type": "PRES_AUD", "trial_index": 228}, "uniqueid": "MTK3408:3ZGVPD4G6UO2YYOTBU06M5PWPH6ZTH", "dateTime": 1520529896748}, {"current_trial": 229, "trialdata": {"rt": -1000, "trial_type": "single-audio", "word": "robin", "stimulus": "/static/audio/wordpool/ROBIN.wav", "conditions": [24, 1600, "a", 24000], "internal_node_id": "0.0-166.0", "trial": 6, "time_elapsed": 1088271, "serialpos": 4, "key_press": -1, "wordID": 1198, "type": "PRES_AUD", "trial_index": 229}, "uniqueid": "MTK3408:3ZGVPD4G6UO2YYOTBU06M5PWPH6ZTH", "dateTime": 1520529899454}, {"current_trial": 230, "trialdata": {"rt": -1000, "trial_type": "single-audio", "word": "wasp", "stimulus": "/static/audio/wordpool/WASP.wav", "conditions": [24, 1600, "a", 24000], "internal_node_id": "0.0-167.0", "trial": 6, "time_elapsed": 1090907, "serialpos": 5, "key_press": -1, "wordID": 1592, "type": "PRES_AUD", "trial_index": 230}, "uniqueid": "MTK3408:3ZGVPD4G6UO2YYOTBU06M5PWPH6ZTH", "dateTime": 1520529902091}, {"current_trial": 231, "trialdata": {"rt": -1000, "trial_type": "single-audio", "word": "clam", "stimulus": "/static/audio/wordpool/CLAM.wav", "conditions": [24, 1600, "a", 24000], "internal_node_id": "0.0-168.0", "trial": 6, "time_elapsed": 1093642, "serialpos": 6, "key_press": -1, "wordID": 314, "type": "PRES_AUD", "trial_index": 231}, "uniqueid": "MTK3408:3ZGVPD4G6UO2YYOTBU06M5PWPH6ZTH", "dateTime": 1520529904825}, {"current_trial": 232, "trialdata": {"rt": -1000, "trial_type": "single-audio", "word": "comet", "stimulus": "/static/audio/wordpool/COMET.wav", "conditions": [24, 1600, "a", 24000], "internal_node_id": "0.0-169.0", "trial": 6, "time_elapsed": 1096192, "serialpos": 7, "key_press": -1, "wordID": 352, "type": "PRES_AUD", "trial_index": 232}, "uniqueid": "MTK3408:3ZGVPD4G6UO2YYOTBU06M5PWPH6ZTH", "dateTime": 1520529907375}, {"current_trial": 233, "trialdata": {"rt": -1000, "trial_type": "single-audio", "word": "cafe", "stimulus": "/static/audio/wordpool/CAFE.wav", "conditions": [24, 1600, "a", 24000], "internal_node_id": "0.0-170.0", "trial": 6, "time_elapsed": 1098813, "serialpos": 8, "key_press": -1, "wordID": 215, "type": "PRES_AUD", "trial_index": 233}, "uniqueid": "MTK3408:3ZGVPD4G6UO2YYOTBU06M5PWPH6ZTH", "dateTime": 1520529909996}, {"current_trial": 234, "trialdata": {"rt": -1000, "trial_type": "single-audio", "word": "briefcase", "stimulus": "/static/audio/wordpool/BRIEFCASE.wav", "conditions": [24, 1600, "a", 24000], "internal_node_id": "0.0-171.0", "trial": 6, "time_elapsed": 1101611, "serialpos": 9, "key_press": -1, "wordID": 174, "type": "PRES_AUD", "trial_index": 234}, "uniqueid": "MTK3408:3ZGVPD4G6UO2YYOTBU06M5PWPH6ZTH", "dateTime": 1520529912794}, {"current_trial": 235, "trialdata": {"rt": -1000, "trial_type": "single-audio", "word": "skillet", "stimulus": "/static/audio/wordpool/SKILLET.wav", "conditions": [24, 1600, "a", 24000], "internal_node_id": "0.0-172.0", "trial": 6, "time_elapsed": 1104286, "serialpos": 10, "key_press": -1, "wordID": 1316, "type": "PRES_AUD", "trial_index": 235}, "uniqueid": "MTK3408:3ZGVPD4G6UO2YYOTBU06M5PWPH6ZTH", "dateTime": 1520529915469}, {"current_trial": 236, "trialdata": {"rt": -1000, "trial_type": "single-audio", "word": "judge", "stimulus": "/static/audio/wordpool/JUDGE.wav", "conditions": [24, 1600, "a", 24000], "internal_node_id": "0.0-173.0", "trial": 6, "time_elapsed": 1107015, "serialpos": 11, "key_press": -1, "wordID": 760, "type": "PRES_AUD", "trial_index": 236}, "uniqueid": "MTK3408:3ZGVPD4G6UO2YYOTBU06M5PWPH6ZTH", "dateTime": 1520529918198}, {"current_trial": 237, "trialdata": {"rt": -1000, "trial_type": "single-audio", "word": "bathtub", "stimulus": "/static/audio/wordpool/BATHTUB.wav", "conditions": [24, 1600, "a", 24000], "internal_node_id": "0.0-174.0", "trial": 6, "time_elapsed": 1109676, "serialpos": 12, "key_press": -1, "wordID": 99, "type": "PRES_AUD", "trial_index": 237}, "uniqueid": "MTK3408:3ZGVPD4G6UO2YYOTBU06M5PWPH6ZTH", "dateTime": 1520529920859}, {"current_trial": 238, "trialdata": {"rt": -1000, "trial_type": "single-audio", "word": "eyelash", "stimulus": "/static/audio/wordpool/EYELASH.wav", "conditions": [24, 1600, "a", 24000], "internal_node_id": "0.0-175.0", "trial": 6, "time_elapsed": 1112207, "serialpos": 13, "key_press": -1, "wordID": 545, "type": "PRES_AUD", "trial_index": 238}, "uniqueid": "MTK3408:3ZGVPD4G6UO2YYOTBU06M5PWPH6ZTH", "dateTime": 1520529923390}, {"current_trial": 239, "trialdata": {"rt": -1000, "trial_type": "single-audio", "word": "banker", "stimulus": "/static/audio/wordpool/BANKER.wav", "conditions": [24, 1600, "a", 24000], "internal_node_id": "0.0-176.0", "trial": 6, "time_elapsed": 1114797, "serialpos": 14, "key_press": -1, "wordID": 83, "type": "PRES_AUD", "trial_index": 239}, "uniqueid": "MTK3408:3ZGVPD4G6UO2YYOTBU06M5PWPH6ZTH", "dateTime": 1520529925980}, {"current_trial": 240, "trialdata": {"rt": -1000, "trial_type": "single-audio", "word": "turkey", "stimulus": "/static/audio/wordpool/TURKEY.wav", "conditions": [24, 1600, "a", 24000], "internal_node_id": "0.0-177.0", "trial": 6, "time_elapsed": 1117472, "serialpos": 15, "key_press": -1, "wordID": 1519, "type": "PRES_AUD", "trial_index": 240}, "uniqueid": "MTK3408:3ZGVPD4G6UO2YYOTBU06M5PWPH6ZTH", "dateTime": 1520529928655}, {"current_trial": 241, "trialdata": {"rt": -1000, "trial_type": "single-audio", "word": "bison", "stimulus": "/static/audio/wordpool/BISON.wav", "conditions": [24, 1600, "a", 24000], "internal_node_id": "0.0-178.0", "trial": 6, "time_elapsed": 1120224, "serialpos": 16, "key_press": -1, "wordID": 130, "type": "PRES_AUD", "trial_index": 241}, "uniqueid": "MTK3408:3ZGVPD4G6UO2YYOTBU06M5PWPH6ZTH", "dateTime": 1520529931407}, {"current_trial": 242, "trialdata": {"rt": -1000, "trial_type": "single-audio", "word": "cattle", "stimulus": "/static/audio/wordpool/CATTLE.wav", "conditions": [24, 1600, "a", 24000], "internal_node_id": "0.0-179.0", "trial": 6, "time_elapsed": 1122985, "serialpos": 17, "key_press": -1, "wordID": 260, "type": "PRES_AUD", "trial_index": 242}, "uniqueid": "MTK3408:3ZGVPD4G6UO2YYOTBU06M5PWPH6ZTH", "dateTime": 1520529934168}, {"current_trial": 243, "trialdata": {"rt": -1000, "trial_type": "single-audio", "word": "pimple", "stimulus": "/static/audio/wordpool/PIMPLE.wav", "conditions": [24, 1600, "a", 24000], "internal_node_id": "0.0-180.0", "trial": 6, "time_elapsed": 1125421, "serialpos": 18, "key_press": -1, "wordID": 1070, "type": "PRES_AUD", "trial_index": 243}, "uniqueid": "MTK3408:3ZGVPD4G6UO2YYOTBU06M5PWPH6ZTH", "dateTime": 1520529936604}, {"current_trial": 244, "trialdata": {"rt": -1000, "trial_type": "single-audio", "word": "outdoors", "stimulus": "/static/audio/wordpool/OUTDOORS.wav", "conditions": [24, 1600, "a", 24000], "internal_node_id": "0.0-181.0", "trial": 6, "time_elapsed": 1128084, "serialpos": 19, "key_press": -1, "wordID": 986, "type": "PRES_AUD", "trial_index": 244}, "uniqueid": "MTK3408:3ZGVPD4G6UO2YYOTBU06M5PWPH6ZTH", "dateTime": 1520529939267}, {"current_trial": 245, "trialdata": {"rt": -1000, "trial_type": "single-audio", "word": "market", "stimulus": "/static/audio/wordpool/MARKET.wav", "conditions": [24, 1600, "a", 24000], "internal_node_id": "0.0-182.0", "trial": 6, "time_elapsed": 1130628, "serialpos": 20, "key_press": -1, "wordID": 870, "type": "PRES_AUD", "trial_index": 245}, "uniqueid": "MTK3408:3ZGVPD4G6UO2YYOTBU06M5PWPH6ZTH", "dateTime": 1520529941811}, {"current_trial": 246, "trialdata": {"rt": -1000, "trial_type": "single-audio", "word": "canal", "stimulus": "/static/audio/wordpool/CANAL.wav", "conditions": [24, 1600, "a", 24000], "internal_node_id": "0.0-183.0", "trial": 6, "time_elapsed": 1133207, "serialpos": 21, "key_press": -1, "wordID": 225, "type": "PRES_AUD", "trial_index": 246}, "uniqueid": "MTK3408:3ZGVPD4G6UO2YYOTBU06M5PWPH6ZTH", "dateTime": 1520529944390}, {"current_trial": 247, "trialdata": {"rt": -1000, "trial_type": "single-audio", "word": "police", "stimulus": "/static/audio/wordpool/POLICE.wav", "conditions": [24, 1600, "a", 24000], "internal_node_id": "0.0-184.0", "trial": 6, "time_elapsed": 1135770, "serialpos": 22, "key_press": -1, "wordID": 1097, "type": "PRES_AUD", "trial_index": 247}, "uniqueid": "MTK3408:3ZGVPD4G6UO2YYOTBU06M5PWPH6ZTH", "dateTime": 1520529946953}, {"current_trial": 248, "trialdata": {"rt": -1000, "trial_type": "single-audio", "word": "freckle", "stimulus": "/static/audio/wordpool/FRECKLE.wav", "conditions": [24, 1600, "a", 24000], "internal_node_id": "0.0-185.0", "trial": 6, "time_elapsed": 1138554, "serialpos": 23, "key_press": -1, "wordID": 601, "type": "PRES_AUD", "trial_index": 248}, "uniqueid": "MTK3408:3ZGVPD4G6UO2YYOTBU06M5PWPH6ZTH", "dateTime": 1520529949737}, {"current_trial": 249, "trialdata": {"rt": -1, "trial_type": "single-stim", "stimulus": "", "internal_node_id": "0.0-186.0-0.0", "time_elapsed": 1139768, "key_press": -1, "type": "PRE_RECALL_DELAY", "trial_index": 249}, "uniqueid": "MTK3408:3ZGVPD4G6UO2YYOTBU06M5PWPH6ZTH", "dateTime": 1520529950951}, {"current_trial": 250, "trialdata": {"rt": -1000, "trial_type": "single-audio", "stimulus": "/static/audio/400Hz.wav", "internal_node_id": "0.0-187.0", "time_elapsed": 1140275, "key_press": -1, "type": "PRE_RECALL_ALERT", "trial_index": 250}, "uniqueid": "MTK3408:3ZGVPD4G6UO2YYOTBU06M5PWPH6ZTH", "dateTime": 1520529951458}, {"current_trial": 251, "trialdata": {"rt": [8213, 12893, 16909, 21445, 25340, 33661, 41876, 46469, 57597], "recwords": ["freckle", "police", "canal", "out", "market", "balloon", "pizza", "bison", "cattle"], "key_times": [2820, 3102, 3366, 3701, 4645, 4892, 5172, 8213, 9125, 9389, 9612, 9892, 10388, 10861, 12893, 13772, 14229, 14830, 14958, 15636, 16909, 19596, 19829, 20325, 21445, 22317, 22517, 22902, 23604, 23796, 24093, 25340, 29996, 30380, 30838, 31038, 31477, 31908, 32733, 33661, 38085, 38958, 39597, 39821, 40485, 41876, 43678, 43845, 44077, 44237, 44501, 46469, 46901, 47156, 47757, 47957, 48204, 48365, 57597], "trial_type": "free-recall", "conditions": [24, 1600, "a", 24000], "internal_node_id": "0.0-188.0-0.0", "key_presses": [70, 82, 69, 67, 75, 76, 69, 188, 80, 79, 76, 73, 67, 69, 188, 67, 65, 78, 65, 76, 188, 79, 85, 84, 188, 77, 65, 82, 75, 69, 84, 188, 66, 65, 76, 76, 79, 79, 78, 188, 80, 73, 90, 90, 65, 32, 66, 73, 83, 79, 78, 32, 67, 65, 84, 84, 76, 69, 188], "trial": 6, "time_elapsed": 1200276, "type": "FREE_RECALL", "trial_index": 251}, "uniqueid": "MTK3408:3ZGVPD4G6UO2YYOTBU06M5PWPH6ZTH", "dateTime": 1520530011462}, {