{"assignmentId": "3TPZPLC3M1J3LDOT96WDDUJKKG93PZ", "workerId": "MTK3042", "questiondata": {"origin": "United States", "strat-rehearsal": "95", "marital": "Single", "education": "Bachelor's degree", "ethnicity": "Not Hispanic", "color_depth": 24, "distracted": "No", "wrote-notes": "No", "strat-other": "", "screen_width": 1920, "avail_screen_width": 1920, "avail_screen_height": 1040, "strat-image": "0", "language": "English", "gender": "Male", "age": "26", "gender_other": "", "race": ["White"], "strat-categorize": "77", "pixel_depth": 24, "strat-spatial": "0", "strat-story": "63", "race_other": "", "screen_height": 1080}, "bonus": 0, "hitId": "3J06WJ78HNRYFMPEPQ6GDX41CB7VVR", "counterbalance": 1461, "useragent": "Mozilla/5.0 (Windows NT 10.0; Win64; x64) AppleWebKit/537.36 (KHTML, like Gecko) Chrome/63.0.3239.132 Safari/537.36", "eventdata": [{"eventtype": "initialized", "interval": 0, "value": null, "timestamp": 1519673903681}, {"eventtype": "window_resize", "interval": 0, "value": [1920, 989], "timestamp": 1519673903681}, {"eventtype": "focus", "interval": 38808, "value": "off", "timestamp": 1519673942489}, {"eventtype": "focus", "interval": 16109, "value": "on", "timestamp": 1519673958598}, {"eventtype": "focus", "interval": 120424, "value": "off", "timestamp": 1519674079022}, {"eventtype": "focus", "interval": 1040, "value": "on", "timestamp": 1519674080062}, {"eventtype": "focus", "interval": 5498, "value": "off", "timestamp": 1519674085560}, {"eventtype": "focus", "interval": 1, "value": "on", "timestamp": 1519674085561}, {"eventtype": "focus", "interval": 1100634, "value": "off", "timestamp": 1519675186195}, {"eventtype": "focus", "interval": 11464, "value": "on", "timestamp": 1519675197659}], "data": [{"current_trial": 0, "trialdata": {"rt": 6024, "trial_type": "text", "internal_node_id": "0.0-0.0", "time_elapsed": 6028, "key_press": 38, "type": "INSTRUCTIONS", "trial_index": 0}, "uniqueid": "MTK3042:3TPZPLC3M1J3LDOT96WDDUJKKG93PZ", "dateTime": 1519673910350}, {"current_trial": 1, "trialdata": {"rt": 16845, "trial_type": "text", "internal_node_id": "0.0-1.0", "time_elapsed": 22877, "key_press": 13, "type": "INSTRUCTIONS", "trial_index": 1}, "uniqueid": "MTK3042:3TPZPLC3M1J3LDOT96WDDUJKKG93PZ", "dateTime": 1519673927198}, {"current_trial": 2, "trialdata": {"rt": [110699], "trial_type": "audio-test", "responses": ["ocean"], "internal_node_id": "0.0-2.0", "time_elapsed": 133601, "type": "AUDIO_TEST", "trial_index": 2}, "uniqueid": "MTK3042:3TPZPLC3M1J3LDOT96WDDUJKKG93PZ", "dateTime": 1519674037923}, {"current_trial": 3, "trialdata": {"rt": [14596], "trial_type": "audio-test", "responses": ["crystal"], "internal_node_id": "0.0-3.0", "time_elapsed": 148220, "type": "AUDIO_TEST", "trial_index": 3}, "uniqueid": "MTK3042:3TPZPLC3M1J3LDOT96WDDUJKKG93PZ", "dateTime": 1519674052541}, {"current_trial": 4, "trialdata": {"rt": [29587, 42439], "trial_type": "audio-test", "responses": ["space", "spice"], "internal_node_id": "0.0-4.0", "time_elapsed": 190672, "type": "AUDIO_TEST", "trial_index": 4}, "uniqueid": "MTK3042:3TPZPLC3M1J3LDOT96WDDUJKKG93PZ", "dateTime": 1519674094993}, {"current_trial": 5, "trialdata": {"rt": 18596, "trial_type": "survey-text", "responses": "{\"Q0\":\"11pm\",\"Q1\":\"8am\",\"Q2\":\"5\"}", "internal_node_id": "0.0-5.0", "time_elapsed": 210024, "type": "SLEEP_SURVEY", "trial_index": 5}, "uniqueid": "MTK3042:3TPZPLC3M1J3LDOT96WDDUJKKG93PZ", "dateTime": 1519674114345}, {"current_trial": 6, "trialdata": {"rt": 30925, "trial_type": "text", "internal_node_id": "0.0-6.0", "time_elapsed": 241952, "key_press": 13, "type": "INSTRUCTIONS", "trial_index": 6}, "uniqueid": "MTK3042:3TPZPLC3M1J3LDOT96WDDUJKKG93PZ", "dateTime": 1519674146274}, {"current_trial": 7, "trialdata": {"rt": 10994, "trial_type": "text", "internal_node_id": "0.0-7.0", "time_elapsed": 253451, "key_press": 13, "type": "INSTRUCTIONS", "trial_index": 7}, "uniqueid": "MTK3042:3TPZPLC3M1J3LDOT96WDDUJKKG93PZ", "dateTime": 1519674157773}, {"current_trial": 8, "trialdata": {"rt": 4126, "trial_type": "text", "internal_node_id": "0.0-8.0", "time_elapsed": 258086, "key_press": 13, "type": "INSTRUCTIONS", "trial_index": 8}, "uniqueid": "MTK3042:3TPZPLC3M1J3LDOT96WDDUJKKG93PZ", "dateTime": 1519674162407}, {"current_trial": 9, "trialdata": {"rt": [10761, 13827, 16399], "trial_type": "math-distractor", "key_times": [10407, 10493, 10761, 13472, 13577, 13827, 16195, 16399], "responses": ["12", "18", "6"], "num2": [3, 6, 1, 6], "num3": [3, 6, 1, 9], "conditions": [18, 1200, "v", 18000], "internal_node_id": "0.0-9.0", "key_presses": [97, 98, 13, 97, 104, 13, 102, 13], "trial": 0, "time_elapsed": 277099, "type": "DISTRACTOR", "trial_index": 9, "num1": [6, 6, 4, 2]}, "uniqueid": "MTK3042:3TPZPLC3M1J3LDOT96WDDUJKKG93PZ", "dateTime": 1519674181420}, {"current_trial": 10, "trialdata": {"rt": -1, "trial_type": "single-stim", "stimulus": "<p id=\"stim\">10</p>", "internal_node_id": "0.0-10.0-0.0", "time_elapsed": 280106, "key_press": -1, "trial_index": 10}, "uniqueid": "MTK3042:3TPZPLC3M1J3LDOT96WDDUJKKG93PZ", "dateTime": 1519674184429}, {"current_trial": 11, "trialdata": {"rt": -1, "trial_type": "single-stim", "stimulus": "<p id=\"stim\">9</p>", "internal_node_id": "0.0-10.0-1.0", "time_elapsed": 281110, "key_press": -1, "trial_index": 11}, "uniqueid": "MTK3042:3TPZPLC3M1J3LDOT96WDDUJKKG93PZ", "dateTime": 1519674185432}, {"current_trial": 12, "trialdata": {"rt": -1, "trial_type": "single-stim", "stimulus": "<p id=\"stim\">8</p>", "internal_node_id": "0.0-10.0-2.0", "time_elapsed": 282112, "key_press": -1, "trial_index": 12}, "uniqueid": "MTK3042:3TPZPLC3M1J3LDOT96WDDUJKKG93PZ", "dateTime": 1519674186433}, {"current_trial": 13, "trialdata": {"rt": -1, "trial_type": "single-stim", "stimulus": "<p id=\"stim\">7</p>", "internal_node_id": "0.0-10.0-3.0", "time_elapsed": 283115, "key_press": -1, "trial_index": 13}, "uniqueid": "MTK3042:3TPZPLC3M1J3LDOT96WDDUJKKG93PZ", "dateTime": 1519674187436}, {"current_trial": 14, "trialdata": {"rt": -1, "trial_type": "single-stim", "stimulus": "<p id=\"stim\">6</p>", "internal_node_id": "0.0-10.0-4.0", "time_elapsed": 284120, "key_press": -1, "trial_index": 14}, "uniqueid": "MTK3042:3TPZPLC3M1J3LDOT96WDDUJKKG93PZ", "dateTime": 1519674188442}, {"current_trial": 15, "trialdata": {"rt": -1, "trial_type": "single-stim", "stimulus": "<p id=\"stim\">5</p>", "internal_node_id": "0.0-10.0-5.0", "time_elapsed": 285125, "key_press": -1, "trial_index": 15}, "uniqueid": "MTK3042:3TPZPLC3M1J3LDOT96WDDUJKKG93PZ", "dateTime": 1519674189447}, {"current_trial": 16, "trialdata": {"rt": -1, "trial_type": "single-stim", "stimulus": "<p id=\"stim\">4</p>", "internal_node_id": "0.0-10.0-6.0", "time_elapsed": 286128, "key_press": -1, "trial_index": 16}, "uniqueid": "MTK3042:3TPZPLC3M1J3LDOT96WDDUJKKG93PZ", "dateTime": 1519674190449}, {"current_trial": 17, "trialdata": {"rt": -1, "trial_type": "single-stim", "stimulus": "<p id=\"stim\">3</p>", "internal_node_id": "0.0-10.0-7.0", "time_elapsed": 287132, "key_press": -1, "trial_index": 17}, "uniqueid": "MTK3042:3TPZPLC3M1J3LDOT96WDDUJKKG93PZ", "dateTime": 1519674191454}, {"current_trial": 18, "trialdata": {"rt": -1, "trial_type": "single-stim", "stimulus": "<p id=\"stim\">2</p>", "internal_node_id": "0.0-10.0-8.0", "time_elapsed": 288137, "key_press": -1, "trial_index": 18}, "uniqueid": "MTK3042:3TPZPLC3M1J3LDOT96WDDUJKKG93PZ", "dateTime": 1519674192460}, {"current_trial": 19, "trialdata": {"rt": -1, "trial_type": "single-stim", "stimulus": "<p id=\"stim\">1</p>", "internal_node_id": "0.0-10.0-9.0", "time_elapsed": 289141, "key_press": -1, "trial_index": 19}, "uniqueid": "MTK3042:3TPZPLC3M1J3LDOT96WDDUJKKG93PZ", "dateTime": 1519674193462}, {"current_trial": 20, "trialdata": {"rt": -1, "trial_type": "single-stim", "stimulus": "<p id=\"stim\">+</p>", "internal_node_id": "0.0-11.0-0.0", "time_elapsed": 290645, "key_press": -1, "type": "FIXATION", "trial_index": 20}, "uniqueid": "MTK3042:3TPZPLC3M1J3LDOT96WDDUJKKG93PZ", "dateTime": 1519674194967}, {"current_trial": 21, "trialdata": {"rt": -1, "trial_type": "single-stim", "word": "ointment", "stimulus": "<p id=\"stim\">OINTMENT</p>", "conditions": [18, 1200, "v", 18000], "internal_node_id": "0.0-12.0", "trial": 0, "time_elapsed": 291849, "serialpos": 0, "key_press": -1, "wordID": 973, "type": "PRES_VIS", "trial_index": 21}, "uniqueid": "MTK3042:3TPZPLC3M1J3LDOT96WDDUJKKG93PZ", "dateTime": 1519674196170}, {"current_trial": 22, "trialdata": {"rt": -1, "trial_type": "single-stim", "word": "church", "stimulus": "<p id=\"stim\">CHURCH</p>", "conditions": [18, 1200, "v", 18000], "internal_node_id": "0.0-13.0", "trial": 0, "time_elapsed": 294120, "serialpos": 1, "key_press": -1, "wordID": 306, "type": "PRES_VIS", "trial_index": 22}, "uniqueid": "MTK3042:3TPZPLC3M1J3LDOT96WDDUJKKG93PZ", "dateTime": 1519674198441}, {"current_trial": 23, "trialdata": {"rt": -1, "trial_type": "single-stim", "word": "child", "stimulus": "<p id=\"stim\">CHILD</p>", "conditions": [18, 1200, "v", 18000], "internal_node_id": "0.0-14.0", "trial": 0, "time_elapsed": 296405, "serialpos": 2, "key_press": -1, "wordID": 298, "type": "PRES_VIS", "trial_index": 23}, "uniqueid": "MTK3042:3TPZPLC3M1J3LDOT96WDDUJKKG93PZ", "dateTime": 1519674200726}, {"current_trial": 24, "trialdata": {"rt": -1, "trial_type": "single-stim", "word": "contract", "stimulus": "<p id=\"stim\">CONTRACT</p>", "conditions": [18, 1200, "v", 18000], "internal_node_id": "0.0-15.0", "trial": 0, "time_elapsed": 298425, "serialpos": 3, "key_press": -1, "wordID": 367, "type": "PRES_VIS", "trial_index": 24}, "uniqueid": "MTK3042:3TPZPLC3M1J3LDOT96WDDUJKKG93PZ", "dateTime": 1519674202746}, {"current_trial": 25, "trialdata": {"rt": -1, "trial_type": "single-stim", "word": "picnic", "stimulus": "<p id=\"stim\">PICNIC</p>", "conditions": [18, 1200, "v", 18000], "internal_node_id": "0.0-16.0", "trial": 0, "time_elapsed": 300456, "serialpos": 4, "key_press": -1, "wordID": 1059, "type": "PRES_VIS", "trial_index": 25}, "uniqueid": "MTK3042:3TPZPLC3M1J3LDOT96WDDUJKKG93PZ", "dateTime": 1519674204777}, {"current_trial": 26, "trialdata": {"rt": -1, "trial_type": "single-stim", "word": "police", "stimulus": "<p id=\"stim\">POLICE</p>", "conditions": [18, 1200, "v", 18000], "internal_node_id": "0.0-17.0", "trial": 0, "time_elapsed": 302833, "serialpos": 5, "key_press": -1, "wordID": 1097, "type": "PRES_VIS", "trial_index": 26}, "uniqueid": "MTK3042:3TPZPLC3M1J3LDOT96WDDUJKKG93PZ", "dateTime": 1519674207154}, {"current_trial": 27, "trialdata": {"rt": -1, "trial_type": "single-stim", "word": "dandruff", "stimulus": "<p id=\"stim\">DANDRUFF</p>", "conditions": [18, 1200, "v", 18000], "internal_node_id": "0.0-18.0", "trial": 0, "time_elapsed": 304904, "serialpos": 6, "key_press": -1, "wordID": 438, "type": "PRES_VIS", "trial_index": 27}, "uniqueid": "MTK3042:3TPZPLC3M1J3LDOT96WDDUJKKG93PZ", "dateTime": 1519674209226}, {"current_trial": 28, "trialdata": {"rt": -1, "trial_type": "single-stim", "word": "donor", "stimulus": "<p id=\"stim\">DONOR</p>", "conditions": [18, 1200, "v", 18000], "internal_node_id": "0.0-19.0", "trial": 0, "time_elapsed": 307290, "serialpos": 7, "key_press": -1, "wordID": 484, "type": "PRES_VIS", "trial_index": 28}, "uniqueid": "MTK3042:3TPZPLC3M1J3LDOT96WDDUJKKG93PZ", "dateTime": 1519674211611}, {"current_trial": 29, "trialdata": {"rt": -1, "trial_type": "single-stim", "word": "plaid", "stimulus": "<p id=\"stim\">PLAID</p>", "conditions": [18, 1200, "v", 18000], "internal_node_id": "0.0-20.0", "trial": 0, "time_elapsed": 309508, "serialpos": 8, "key_press": -1, "wordID": 1079, "type": "PRES_VIS", "trial_index": 29}, "uniqueid": "MTK3042:3TPZPLC3M1J3LDOT96WDDUJKKG93PZ", "dateTime": 1519674213829}, {"current_trial": 30, "trialdata": {"rt": -1, "trial_type": "single-stim", "word": "whistle", "stimulus": "<p id=\"stim\">WHISTLE</p>", "conditions": [18, 1200, "v", 18000], "internal_node_id": "0.0-21.0", "trial": 0, "time_elapsed": 311697, "serialpos": 9, "key_press": -1, "wordID": 1605, "type": "PRES_VIS", "trial_index": 30}, "uniqueid": "MTK3042:3TPZPLC3M1J3LDOT96WDDUJKKG93PZ", "dateTime": 1519674216020}, {"current_trial": 31, "trialdata": {"rt": -1, "trial_type": "single-stim", "word": "scribble", "stimulus": "<p id=\"stim\">SCRIBBLE</p>", "conditions": [18, 1200, "v", 18000], "internal_node_id": "0.0-22.0", "trial": 0, "time_elapsed": 314015, "serialpos": 10, "key_press": -1, "wordID": 1255, "type": "PRES_VIS", "trial_index": 31}, "uniqueid": "MTK3042:3TPZPLC3M1J3LDOT96WDDUJKKG93PZ", "dateTime": 1519674218337}, {"current_trial": 32, "trialdata": {"rt": -1, "trial_type": "single-stim", "word": "supper", "stimulus": "<p id=\"stim\">SUPPER</p>", "conditions": [18, 1200, "v", 18000], "internal_node_id": "0.0-23.0", "trial": 0, "time_elapsed": 316279, "serialpos": 11, "key_press": -1, "wordID": 1410, "type": "PRES_VIS", "trial_index": 32}, "uniqueid": "MTK3042:3TPZPLC3M1J3LDOT96WDDUJKKG93PZ", "dateTime": 1519674220601}, {"current_trial": 33, "trialdata": {"rt": -1, "trial_type": "single-stim", "word": "garbage", "stimulus": "<p id=\"stim\">GARBAGE</p>", "conditions": [18, 1200, "v", 18000], "internal_node_id": "0.0-24.0", "trial": 0, "time_elapsed": 318393, "serialpos": 12, "key_press": -1, "wordID": 621, "type": "PRES_VIS", "trial_index": 33}, "uniqueid": "MTK3042:3TPZPLC3M1J3LDOT96WDDUJKKG93PZ", "dateTime": 1519674222714}, {"current_trial": 34, "trialdata": {"rt": -1, "trial_type": "single-stim", "word": "napkin", "stimulus": "<p id=\"stim\">NAPKIN</p>", "conditions": [18, 1200, "v", 18000], "internal_node_id": "0.0-25.0", "trial": 0, "time_elapsed": 320534, "serialpos": 13, "key_press": -1, "wordID": 936, "type": "PRES_VIS", "trial_index": 34}, "uniqueid": "MTK3042:3TPZPLC3M1J3LDOT96WDDUJKKG93PZ", "dateTime": 1519674224855}, {"current_trial": 35, "trialdata": {"rt": -1, "trial_type": "single-stim", "word": "flask", "stimulus": "<p id=\"stim\">FLASK</p>", "conditions": [18, 1200, "v", 18000], "internal_node_id": "0.0-26.0", "trial": 0, "time_elapsed": 322834, "serialpos": 14, "key_press": -1, "wordID": 575, "type": "PRES_VIS", "trial_index": 35}, "uniqueid": "MTK3042:3TPZPLC3M1J3LDOT96WDDUJKKG93PZ", "dateTime": 1519674227156}, {"current_trial": 36, "trialdata": {"rt": -1, "trial_type": "single-stim", "word": "stomach", "stimulus": "<p id=\"stim\">STOMACH</p>", "conditions": [18, 1200, "v", 18000], "internal_node_id": "0.0-27.0", "trial": 0, "time_elapsed": 325159, "serialpos": 15, "key_press": -1, "wordID": 1383, "type": "PRES_VIS", "trial_index": 36}, "uniqueid": "MTK3042:3TPZPLC3M1J3LDOT96WDDUJKKG93PZ", "dateTime": 1519674229480}, {"current_trial": 37, "trialdata": {"rt": -1, "trial_type": "single-stim", "word": "tourist", "stimulus": "<p id=\"stim\">TOURIST</p>", "conditions": [18, 1200, "v", 18000], "internal_node_id": "0.0-28.0", "trial": 0, "time_elapsed": 327228, "serialpos": 16, "key_press": -1, "wordID": 1487, "type": "PRES_VIS", "trial_index": 37}, "uniqueid": "MTK3042:3TPZPLC3M1J3LDOT96WDDUJKKG93PZ", "dateTime": 1519674231549}, {"current_trial": 38, "trialdata": {"rt": -1, "trial_type": "single-stim", "word": "thief", "stimulus": "<p id=\"stim\">THIEF</p>", "conditions": [18, 1200, "v", 18000], "internal_node_id": "0.0-29.0", "trial": 0, "time_elapsed": 329386, "serialpos": 17, "key_press": -1, "wordID": 1455, "type": "PRES_VIS", "trial_index": 38}, "uniqueid": "MTK3042:3TPZPLC3M1J3LDOT96WDDUJKKG93PZ", "dateTime": 1519674233708}, {"current_trial": 39, "trialdata": {"rt": -1, "trial_type": "single-stim", "stimulus": "", "internal_node_id": "0.0-30.0-0.0", "time_elapsed": 331663, "key_press": -1, "type": "PRE_RECALL_DELAY", "trial_index": 39}, "uniqueid": "MTK3042:3TPZPLC3M1J3LDOT96WDDUJKKG93PZ", "dateTime": 1519674235985}, {"current_trial": 40, "trialdata": {"rt": -1000, "trial_type": "single-audio", "stimulus": "/static/audio/400Hz.wav", "internal_node_id": "0.0-31.0", "time_elapsed": 332171, "key_press": -1, "type": "PRE_RECALL_ALERT", "trial_index": 40}, "uniqueid": "MTK3042:3TPZPLC3M1J3LDOT96WDDUJKKG93PZ", "dateTime": 1519674236492}, {"current_trial": 41, "trialdata": {"rt": [3744, 5293, 6767, 14250, 16964], "recwords": ["tourist", "thief", "donor", "ointment", "church"], "key_times": [2030, 2260, 2363, 2511, 2666, 2834, 3071, 3744, 4317, 4512, 4655, 4848, 5033, 5293, 5777, 6013, 6172, 6261, 6466, 6767, 12972, 13066, 13297, 13403, 13587, 13665, 13783, 13932, 14250, 15782, 15989, 16097, 16257, 16471, 16595, 16964], "trial_type": "free-recall", "conditions": [18, 1200, "v", 18000], "internal_node_id": "0.0-32.0-0.0", "key_presses": [84, 79, 85, 82, 73, 83, 84, 13, 84, 72, 73, 69, 70, 13, 68, 79, 78, 79, 82, 13, 79, 73, 78, 84, 77, 69, 78, 84, 13, 67, 72, 85, 82, 67, 72, 13], "trial": 0, "time_elapsed": 392180, "type": "FREE_RECALL", "trial_index": 41}, "uniqueid": "MTK3042:3TPZPLC3M1J3LDOT96WDDUJKKG93PZ", "dateTime": 1519674296507}, {"current_trial": 42, "trialdata": {"rt": 1921, "trial_type": "text", "internal_node_id": "0.0-33.0", "time_elapsed": 396109, "key_press": 13, "type": "INSTRUCTIONS", "trial_index": 42}, "uniqueid": "MTK3042:3TPZPLC3M1J3LDOT96WDDUJKKG93PZ", "dateTime": 1519674300431}, {"current_trial": 43, "trialdata": {"rt": [6294, 9904], "trial_type": "math-distractor", "key_times": [5648, 5757, 6294, 9595, 9618, 9904], "responses": ["12", "15"], "num2": [3, 4, 8], "num3": [4, 8, 5], "conditions": [18, 1200, "v", 18000], "internal_node_id": "0.0-34.0", "key_presses": [97, 98, 13, 97, 101, 13], "trial": 1, "time_elapsed": 416119, "type": "DISTRACTOR", "trial_index": 43, "num1": [5, 3, 7]}, "uniqueid": "MTK3042:3TPZPLC3M1J3LDOT96WDDUJKKG93PZ", "dateTime": 1519674320440}, {"current_trial": 44, "trialdata": {"rt": -1, "trial_type": "single-stim", "stimulus": "<p id=\"stim\">10</p>", "internal_node_id": "0.0-35.0-0.0", "time_elapsed": 419125, "key_press": -1, "trial_index": 44}, "uniqueid": "MTK3042:3TPZPLC3M1J3LDOT96WDDUJKKG93PZ", "dateTime": 1519674323446}, {"current_trial": 45, "trialdata": {"rt": -1, "trial_type": "single-stim", "stimulus": "<p id=\"stim\">9</p>", "internal_node_id": "0.0-35.0-1.0", "time_elapsed": 420127, "key_press": -1, "trial_index": 45}, "uniqueid": "MTK3042:3TPZPLC3M1J3LDOT96WDDUJKKG93PZ", "dateTime": 1519674324448}, {"current_trial": 46, "trialdata": {"rt": -1, "trial_type": "single-stim", "stimulus": "<p id=\"stim\">8</p>", "internal_node_id": "0.0-35.0-2.0", "time_elapsed": 421131, "key_press": -1, "trial_index": 46}, "uniqueid": "MTK3042:3TPZPLC3M1J3LDOT96WDDUJKKG93PZ", "dateTime": 1519674325452}, {"current_trial": 47, "trialdata": {"rt": -1, "trial_type": "single-stim", "stimulus": "<p id=\"stim\">7</p>", "internal_node_id": "0.0-35.0-3.0", "time_elapsed": 422134, "key_press": -1, "trial_index": 47}, "uniqueid": "MTK3042:3TPZPLC3M1J3LDOT96WDDUJKKG93PZ", "dateTime": 1519674326456}, {"current_trial": 48, "trialdata": {"rt": -1, "trial_type": "single-stim", "stimulus": "<p id=\"stim\">6</p>", "internal_node_id": "0.0-35.0-4.0", "time_elapsed": 423137, "key_press": -1, "trial_index": 48}, "uniqueid": "MTK3042:3TPZPLC3M1J3LDOT96WDDUJKKG93PZ", "dateTime": 1519674327458}, {"current_trial": 49, "trialdata": {"rt": -1, "trial_type": "single-stim", "stimulus": "<p id=\"stim\">5</p>", "internal_node_id": "0.0-35.0-5.0", "time_elapsed": 424141, "key_press": -1, "trial_index": 49}, "uniqueid": "MTK3042:3TPZPLC3M1J3LDOT96WDDUJKKG93PZ", "dateTime": 1519674328462}, {"current_trial": 50, "trialdata": {"rt": -1, "trial_type": "single-stim", "stimulus": "<p id=\"stim\">4</p>", "internal_node_id": "0.0-35.0-6.0", "time_elapsed": 425148, "key_press": -1, "trial_index": 50}, "uniqueid": "MTK3042:3TPZPLC3M1J3LDOT96WDDUJKKG93PZ", "dateTime": 1519674329470}, {"current_trial": 51, "trialdata": {"rt": -1, "trial_type": "single-stim", "stimulus": "<p id=\"stim\">3</p>", "internal_node_id": "0.0-35.0-7.0", "time_elapsed": 426154, "key_press": -1, "trial_index": 51}, "uniqueid": "MTK3042:3TPZPLC3M1J3LDOT96WDDUJKKG93PZ", "dateTime": 1519674330476}, {"current_trial": 52, "trialdata": {"rt": -1, "trial_type": "single-stim", "stimulus": "<p id=\"stim\">2</p>", "internal_node_id": "0.0-35.0-8.0", "time_elapsed": 427158, "key_press": -1, "trial_index": 52}, "uniqueid": "MTK3042:3TPZPLC3M1J3LDOT96WDDUJKKG93PZ", "dateTime": 1519674331479}, {"current_trial": 53, "trialdata": {"rt": -1, "trial_type": "single-stim", "stimulus": "<p id=\"stim\">1</p>", "internal_node_id": "0.0-35.0-9.0", "time_elapsed": 428161, "key_press": -1, "trial_index": 53}, "uniqueid": "MTK3042:3TPZPLC3M1J3LDOT96WDDUJKKG93PZ", "dateTime": 1519674332482}, {"current_trial": 54, "trialdata": {"rt": -1, "trial_type": "single-stim", "stimulus": "<p id=\"stim\">+</p>", "internal_node_id": "0.0-36.0-0.0", "time_elapsed": 429664, "key_press": -1, "type": "FIXATION", "trial_index": 54}, "uniqueid": "MTK3042:3TPZPLC3M1J3LDOT96WDDUJKKG93PZ", "dateTime": 1519674333986}, {"current_trial": 55, "trialdata": {"rt": -1, "trial_type": "single-stim", "word": "freckle", "stimulus": "<p id=\"stim\">FRECKLE</p>", "conditions": [18, 1200, "v", 18000], "internal_node_id": "0.0-37.0", "trial": 1, "time_elapsed": 430869, "serialpos": 0, "key_press": -1, "wordID": 601, "type": "PRES_VIS", "trial_index": 55}, "uniqueid": "MTK3042:3TPZPLC3M1J3LDOT96WDDUJKKG93PZ", "dateTime": 1519674335190}, {"current_trial": 56, "trialdata": {"rt": -1, "trial_type": "single-stim", "word": "robin", "stimulus": "<p id=\"stim\">ROBIN</p>", "conditions": [18, 1200, "v", 18000], "internal_node_id": "0.0-38.0", "trial": 1, "time_elapsed": 432967, "serialpos": 1, "key_press": -1, "wordID": 1198, "type": "PRES_VIS", "trial_index": 56}, "uniqueid": "MTK3042:3TPZPLC3M1J3LDOT96WDDUJKKG93PZ", "dateTime": 1519674337288}, {"current_trial": 57, "trialdata": {"rt": -1, "trial_type": "single-stim", "word": "spoon", "stimulus": "<p id=\"stim\">SPOON</p>", "conditions": [18, 1200, "v", 18000], "internal_node_id": "0.0-39.0", "trial": 1, "time_elapsed": 435072, "serialpos": 2, "key_press": -1, "wordID": 1356, "type": "PRES_VIS", "trial_index": 57}, "uniqueid": "MTK3042:3TPZPLC3M1J3LDOT96WDDUJKKG93PZ", "dateTime": 1519674339393}, {"current_trial": 58, "trialdata": {"rt": -1, "trial_type": "single-stim", "word": "tombstone", "stimulus": "<p id=\"stim\">TOMBSTONE</p>", "conditions": [18, 1200, "v", 18000], "internal_node_id": "0.0-40.0", "trial": 1, "time_elapsed": 437460, "serialpos": 3, "key_press": -1, "wordID": 1477, "type": "PRES_VIS", "trial_index": 58}, "uniqueid": "MTK3042:3TPZPLC3M1J3LDOT96WDDUJKKG93PZ", "dateTime": 1519674341781}, {"current_trial": 59, "trialdata": {"rt": -1, "trial_type": "single-stim", "word": "liver", "stimulus": "<p id=\"stim\">LIVER</p>", "conditions": [18, 1200, "v", 18000], "internal_node_id": "0.0-41.0", "trial": 1, "time_elapsed": 439515, "serialpos": 4, "key_press": -1, "wordID": 832, "type": "PRES_VIS", "trial_index": 59}, "uniqueid": "MTK3042:3TPZPLC3M1J3LDOT96WDDUJKKG93PZ", "dateTime": 1519674343836}, {"current_trial": 60, "trialdata": {"rt": -1, "trial_type": "single-stim", "word": "truck", "stimulus": "<p id=\"stim\">TRUCK</p>", "conditions": [18, 1200, "v", 18000], "internal_node_id": "0.0-42.0", "trial": 1, "time_elapsed": 441520, "serialpos": 5, "key_press": -1, "wordID": 1511, "type": "PRES_VIS", "trial_index": 60}, "uniqueid": "MTK3042:3TPZPLC3M1J3LDOT96WDDUJKKG93PZ", "dateTime": 1519674345841}, {"current_trial": 61, "trialdata": {"rt": -1, "trial_type": "single-stim", "word": "missile", "stimulus": "<p id=\"stim\">MISSILE</p>", "conditions": [18, 1200, "v", 18000], "internal_node_id": "0.0-43.0", "trial": 1, "time_elapsed": 443828, "serialpos": 6, "key_press": -1, "wordID": 899, "type": "PRES_VIS", "trial_index": 61}, "uniqueid": "MTK3042:3TPZPLC3M1J3LDOT96WDDUJKKG93PZ", "dateTime": 1519674348149}, {"current_trial": 62, "trialdata": {"rt": -1, "trial_type": "single-stim", "word": "queen", "stimulus": "<p id=\"stim\">QUEEN</p>", "conditions": [18, 1200, "v", 18000], "internal_node_id": "0.0-44.0", "trial": 1, "time_elapsed": 445925, "serialpos": 7, "key_press": -1, "wordID": 1148, "type": "PRES_VIS", "trial_index": 62}, "uniqueid": "MTK3042:3TPZPLC3M1J3LDOT96WDDUJKKG93PZ", "dateTime": 1519674350249}, {"current_trial": 63, "trialdata": {"rt": -1, "trial_type": "single-stim", "word": "mars", "stimulus": "<p id=\"stim\">MARS</p>", "conditions": [18, 1200, "v", 18000], "internal_node_id": "0.0-45.0", "trial": 1, "time_elapsed": 448196, "serialpos": 8, "key_press": -1, "wordID": 872, "type": "PRES_VIS", "trial_index": 63}, "uniqueid": "MTK3042:3TPZPLC3M1J3LDOT96WDDUJKKG93PZ", "dateTime": 1519674352517}, {"current_trial": 64, "trialdata": {"rt": -1, "trial_type": "single-stim", "word": "salmon", "stimulus": "<p id=\"stim\">SALMON</p>", "conditions": [18, 1200, "v", 18000], "internal_node_id": "0.0-46.0", "trial": 1, "time_elapsed": 450264, "serialpos": 9, "key_press": -1, "wordID": 1226, "type": "PRES_VIS", "trial_index": 64}, "uniqueid": "MTK3042:3TPZPLC3M1J3LDOT96WDDUJKKG93PZ", "dateTime": 1519674354585}, {"current_trial": 65, "trialdata": {"rt": -1, "trial_type": "single-stim", "word": "lady", "stimulus": "<p id=\"stim\">LADY</p>", "conditions": [18, 1200, "v", 18000], "internal_node_id": "0.0-47.0", "trial": 1, "time_elapsed": 452651, "serialpos": 10, "key_press": -1, "wordID": 793, "type": "PRES_VIS", "trial_index": 65}, "uniqueid": "MTK3042:3TPZPLC3M1J3LDOT96WDDUJKKG93PZ", "dateTime": 1519674356973}, {"current_trial": 66, "trialdata": {"rt": -1, "trial_type": "single-stim", "word": "egypt", "stimulus": "<p id=\"stim\">EGYPT</p>", "conditions": [18, 1200, "v", 18000], "internal_node_id": "0.0-48.0", "trial": 1, "time_elapsed": 454955, "serialpos": 11, "key_press": -1, "wordID": 518, "type": "PRES_VIS", "trial_index": 66}, "uniqueid": "MTK3042:3TPZPLC3M1J3LDOT96WDDUJKKG93PZ", "dateTime": 1519674359277}, {"current_trial": 67, "trialdata": {"rt": -1, "trial_type": "single-stim", "word": "typist", "stimulus": "<p id=\"stim\">TYPIST</p>", "conditions": [18, 1200, "v", 18000], "internal_node_id": "0.0-49.0", "trial": 1, "time_elapsed": 456990, "serialpos": 12, "key_press": -1, "wordID": 1531, "type": "PRES_VIS", "trial_index": 67}, "uniqueid": "MTK3042:3TPZPLC3M1J3LDOT96WDDUJKKG93PZ", "dateTime": 1519674361311}, {"current_trial": 68, "trialdata": {"rt": -1, "trial_type": "single-stim", "word": "flipper", "stimulus": "<p id=\"stim\">FLIPPER</p>", "conditions": [18, 1200, "v", 18000], "internal_node_id": "0.0-50.0", "trial": 1, "time_elapsed": 458995, "serialpos": 13, "key_press": -1, "wordID": 579, "type": "PRES_VIS", "trial_index": 68}, "uniqueid": "MTK3042:3TPZPLC3M1J3LDOT96WDDUJKKG93PZ", "dateTime": 1519674363320}, {"current_trial": 69, "trialdata": {"rt": -1, "trial_type": "single-stim", "word": "umpire", "stimulus": "<p id=\"stim\">UMPIRE</p>", "conditions": [18, 1200, "v", 18000], "internal_node_id": "0.0-51.0", "trial": 1, "time_elapsed": 461329, "serialpos": 14, "key_press": -1, "wordID": 1534, "type": "PRES_VIS", "trial_index": 69}, "uniqueid": "MTK3042:3TPZPLC3M1J3LDOT96WDDUJKKG93PZ", "dateTime": 1519674365650}, {"current_trial": 70, "trialdata": {"rt": -1, "trial_type": "single-stim", "word": "body", "stimulus": "<p id=\"stim\">BODY</p>", "conditions": [18, 1200, "v", 18000], "internal_node_id": "0.0-52.0", "trial": 1, "time_elapsed": 463530, "serialpos": 15, "key_press": -1, "wordID": 144, "type": "PRES_VIS", "trial_index": 70}, "uniqueid": "MTK3042:3TPZPLC3M1J3LDOT96WDDUJKKG93PZ", "dateTime": 1519674367851}, {"current_trial": 71, "trialdata": {"rt": -1, "trial_type": "single-stim", "word": "portrait", "stimulus": "<p id=\"stim\">PORTRAIT</p>", "conditions": [18, 1200, "v", 18000], "internal_node_id": "0.0-53.0", "trial": 1, "time_elapsed": 465870, "serialpos": 16, "key_press": -1, "wordID": 1110, "type": "PRES_VIS", "trial_index": 71}, "uniqueid": "MTK3042:3TPZPLC3M1J3LDOT96WDDUJKKG93PZ", "dateTime": 1519674370191}, {"current_trial": 72, "trialdata": {"rt": -1, "trial_type": "single-stim", "word": "cottage", "stimulus": "<p id=\"stim\">COTTAGE</p>", "conditions": [18, 1200, "v", 18000], "internal_node_id": "0.0-54.0", "trial": 1, "time_elapsed": 467922, "serialpos": 17, "key_press": -1, "wordID": 383, "type": "PRES_VIS", "trial_index": 72}, "uniqueid": "MTK3042:3TPZPLC3M1J3LDOT96WDDUJKKG93PZ", "dateTime": 1519674372243}, {"current_trial": 73, "trialdata": {"rt": -1, "trial_type": "single-stim", "stimulus": "", "internal_node_id": "0.0-55.0-0.0", "time_elapsed": 470264, "key_press": -1, "type": "PRE_RECALL_DELAY", "trial_index": 73}, "uniqueid": "MTK3042:3TPZPLC3M1J3LDOT96WDDUJKKG93PZ", "dateTime": 1519674374585}, {"current_trial": 74, "trialdata": {"rt": -1000, "trial_type": "single-audio", "stimulus": "/static/audio/400Hz.wav", "internal_node_id": "0.0-56.0", "time_elapsed": 470768, "key_press": -1, "type": "PRE_RECALL_ALERT", "trial_index": 74}, "uniqueid": "MTK3042:3TPZPLC3M1J3LDOT96WDDUJKKG93PZ", "dateTime": 1519674375089}, {"current_trial": 75, "trialdata": {"rt": [3737, 5342, 7513, 11497], "recwords": ["portrait", "cottage", "freckle", "salmon"], "key_times": [1558, 1671, 1767, 1987, 2206, 2313, 2965, 3176, 3737, 4086, 4338, 4483, 4658, 4755, 4974, 5062, 5342, 6046, 6265, 6354, 6541, 6868, 6972, 7154, 7513, 10278, 10375, 10636, 10877, 10974, 11135, 11497], "trial_type": "free-recall", "conditions": [18, 1200, "v", 18000], "internal_node_id": "0.0-57.0-0.0", "key_presses": [80, 79, 82, 84, 82, 65, 73, 84, 13, 67, 79, 84, 84, 65, 71, 69, 13, 70, 82, 69, 67, 75, 76, 69, 13, 83, 65, 76, 77, 79, 78, 13], "trial": 1, "time_elapsed": 530776, "type": "FREE_RECALL", "trial_index": 75}, "uniqueid": "MTK3042:3TPZPLC3M1J3LDOT96WDDUJKKG93PZ", "dateTime": 1519674435101}, {"current_trial": 76, "trialdata": {"rt": 2987, "trial_type": "text", "internal_node_id": "0.0-58.0", "time_elapsed": 535774, "key_press": 13, "type": "INSTRUCTIONS", "trial_index": 76}, "uniqueid": "MTK3042:3TPZPLC3M1J3LDOT96WDDUJKKG93PZ", "dateTime": 1519674440095}, {"current_trial": 77, "trialdata": {"rt": [4092, 6968, 12565, 15765, 18490, 20828, 22723], "trial_type": "math-distractor", "key_times": [3658, 3782, 4092, 6239, 6614, 6968, 12251, 12349, 12565, 15401, 15492, 15765, 18074, 18293, 18490, 20319, 20503, 20828, 22292, 22410, 22723], "responses": ["20", "14", "23", "12", "10", "15", "16"], "num2": [8, 1, 8, 1, 5, 7, 8, 8], "num3": [6, 4, 8, 8, 4, 7, 7, 6], "conditions": [12, 1600, "v", 24000], "internal_node_id": "0.0-59.0", "key_presses": [98, 96, 13, 97, 100, 13, 98, 99, 13, 97, 98, 13, 97, 96, 13, 97, 101, 13, 97, 102, 13], "trial": 2, "time_elapsed": 560782, "type": "DISTRACTOR", "trial_index": 77, "num1": [6, 9, 7, 3, 1, 1, 1, 7]}, "uniqueid": "MTK3042:3TPZPLC3M1J3LDOT96WDDUJKKG93PZ", "dateTime": 1519674465103}, {"current_trial": 78, "trialdata": {"rt": -1, "trial_type": "single-stim", "stimulus": "<p id=\"stim\">10</p>", "internal_node_id": "0.0-60.0-0.0", "time_elapsed": 563785, "key_press": -1, "trial_index": 78}, "uniqueid": "MTK3042:3TPZPLC3M1J3LDOT96WDDUJKKG93PZ", "dateTime": 1519674468106}, {"current_trial": 79, "trialdata": {"rt": -1, "trial_type": "single-stim", "stimulus": "<p id=\"stim\">9</p>", "internal_node_id": "0.0-60.0-1.0", "time_elapsed": 564787, "key_press": -1, "trial_index": 79}, "uniqueid": "MTK3042:3TPZPLC3M1J3LDOT96WDDUJKKG93PZ", "dateTime": 1519674469109}, {"current_trial": 80, "trialdata": {"rt": -1, "trial_type": "single-stim", "stimulus": "<p id=\"stim\">8</p>", "internal_node_id": "0.0-60.0-2.0", "time_elapsed": 565789, "key_press": -1, "trial_index": 80}, "uniqueid": "MTK3042:3TPZPLC3M1J3LDOT96WDDUJKKG93PZ", "dateTime": 1519674470110}, {"current_trial": 81, "trialdata": {"rt": -1, "trial_type": "single-stim", "stimulus": "<p id=\"stim\">7</p>", "internal_node_id": "0.0-60.0-3.0", "time_elapsed": 566793, "key_press": -1, "trial_index": 81}, "uniqueid": "MTK3042:3TPZPLC3M1J3LDOT96WDDUJKKG93PZ", "dateTime": 1519674471114}, {"current_trial": 82, "trialdata": {"rt": -1, "trial_type": "single-stim", "stimulus": "<p id=\"stim\">6</p>", "internal_node_id": "0.0-60.0-4.0", "time_elapsed": 567797, "key_press": -1, "trial_index": 82}, "uniqueid": "MTK3042:3TPZPLC3M1J3LDOT96WDDUJKKG93PZ", "dateTime": 1519674472118}, {"current_trial": 83, "trialdata": {"rt": -1, "trial_type": "single-stim", "stimulus": "<p id=\"stim\">5</p>", "internal_node_id": "0.0-60.0-5.0", "time_elapsed": 568799, "key_press": -1, "trial_index": 83}, "uniqueid": "MTK3042:3TPZPLC3M1J3LDOT96WDDUJKKG93PZ", "dateTime": 1519674473120}, {"current_trial": 84, "trialdata": {"rt": -1, "trial_type": "single-stim", "stimulus": "<p id=\"stim\">4</p>", "internal_node_id": "0.0-60.0-6.0", "time_elapsed": 569804, "key_press": -1, "trial_index": 84}, "uniqueid": "MTK3042:3TPZPLC3M1J3LDOT96WDDUJKKG93PZ", "dateTime": 1519674474125}, {"current_trial": 85, "trialdata": {"rt": -1, "trial_type": "single-stim", "stimulus": "<p id=\"stim\">3</p>", "internal_node_id": "0.0-60.0-7.0", "time_elapsed": 570807, "key_press": -1, "trial_index": 85}, "uniqueid": "MTK3042:3TPZPLC3M1J3LDOT96WDDUJKKG93PZ", "dateTime": 1519674475128}, {"current_trial": 86, "trialdata": {"rt": -1, "trial_type": "single-stim", "stimulus": "<p id=\"stim\">2</p>", "internal_node_id": "0.0-60.0-8.0", "time_elapsed": 571809, "key_press": -1, "trial_index": 86}, "uniqueid": "MTK3042:3TPZPLC3M1J3LDOT96WDDUJKKG93PZ", "dateTime": 1519674476131}, {"current_trial": 87, "trialdata": {"rt": -1, "trial_type": "single-stim", "stimulus": "<p id=\"stim\">1</p>", "internal_node_id": "0.0-60.0-9.0", "time_elapsed": 572812, "key_press": -1, "trial_index": 87}, "uniqueid": "MTK3042:3TPZPLC3M1J3LDOT96WDDUJKKG93PZ", "dateTime": 1519674477133}, {"current_trial": 88, "trialdata": {"rt": -1, "trial_type": "single-stim", "stimulus": "<p id=\"stim\">+</p>", "internal_node_id": "0.0-61.0-0.0", "time_elapsed": 574314, "key_press": -1, "type": "FIXATION", "trial_index": 88}, "uniqueid": "MTK3042:3TPZPLC3M1J3LDOT96WDDUJKKG93PZ", "dateTime": 1519674478636}, {"current_trial": 89, "trialdata": {"rt": -1, "trial_type": "single-stim", "word": "dashboard", "stimulus": "<p id=\"stim\">DASHBOARD</p>", "conditions": [12, 1600, "v", 24000], "internal_node_id": "0.0-62.0", "trial": 2, "time_elapsed": 575916, "serialpos": 0, "key_press": -1, "wordID": 440, "type": "PRES_VIS", "trial_index": 89}, "uniqueid": "MTK3042:3TPZPLC3M1J3LDOT96WDDUJKKG93PZ", "dateTime": 1519674480237}, {"current_trial": 90, "trialdata": {"rt": -1, "trial_type": "single-stim", "word": "pork", "stimulus": "<p id=\"stim\">PORK</p>", "conditions": [12, 1600, "v", 24000], "internal_node_id": "0.0-63.0", "trial": 2, "time_elapsed": 578416, "serialpos": 1, "key_press": -1, "wordID": 1107, "type": "PRES_VIS", "trial_index": 90}, "uniqueid": "MTK3042:3TPZPLC3M1J3LDOT96WDDUJKKG93PZ", "dateTime": 1519674482737}, {"current_trial": 91, "trialdata": {"rt": -1, "trial_type": "single-stim", "word": "sausage", "stimulus": "<p id=\"stim\">SAUSAGE</p>", "conditions": [12, 1600, "v", 24000], "internal_node_id": "0.0-64.0", "trial": 2, "time_elapsed": 581079, "serialpos": 2, "key_press": -1, "wordID": 1237, "type": "PRES_VIS", "trial_index": 91}, "uniqueid": "MTK3042:3TPZPLC3M1J3LDOT96WDDUJKKG93PZ", "dateTime": 1519674485400}, {"current_trial": 92, "trialdata": {"rt": -1, "trial_type": "single-stim", "word": "laser", "stimulus": "<p id=\"stim\">LASER</p>", "conditions": [12, 1600, "v", 24000], "internal_node_id": "0.0-65.0", "trial": 2, "time_elapsed": 583706, "serialpos": 3, "key_press": -1, "wordID": 800, "type": "PRES_VIS", "trial_index": 92}, "uniqueid": "MTK3042:3TPZPLC3M1J3LDOT96WDDUJKKG93PZ", "dateTime": 1519674488027}, {"current_trial": 93, "trialdata": {"rt": -1, "trial_type": "single-stim", "word": "climber", "stimulus": "<p id=\"stim\">CLIMBER</p>", "conditions": [12, 1600, "v", 24000], "internal_node_id": "0.0-66.0", "trial": 2, "time_elapsed": 586207, "serialpos": 4, "key_press": -1, "wordID": 322, "type": "PRES_VIS", "trial_index": 93}, "uniqueid": "MTK3042:3TPZPLC3M1J3LDOT96WDDUJKKG93PZ", "dateTime": 1519674490528}, {"current_trial": 94, "trialdata": {"rt": -1, "trial_type": "single-stim", "word": "dustpan", "stimulus": "<p id=\"stim\">DUSTPAN</p>", "conditions": [12, 1600, "v", 24000], "internal_node_id": "0.0-67.0", "trial": 2, "time_elapsed": 588967, "serialpos": 5, "key_press": -1, "wordID": 508, "type": "PRES_VIS", "trial_index": 94}, "uniqueid": "MTK3042:3TPZPLC3M1J3LDOT96WDDUJKKG93PZ", "dateTime": 1519674493288}, {"current_trial": 95, "trialdata": {"rt": -1, "trial_type": "single-stim", "word": "bug", "stimulus": "<p id=\"stim\">BUG</p>", "conditions": [12, 1600, "v", 24000], "internal_node_id": "0.0-68.0", "trial": 2, "time_elapsed": 591685, "serialpos": 6, "key_press": -1, "wordID": 186, "type": "PRES_VIS", "trial_index": 95}, "uniqueid": "MTK3042:3TPZPLC3M1J3LDOT96WDDUJKKG93PZ", "dateTime": 1519674496006}, {"current_trial": 96, "trialdata": {"rt": -1, "trial_type": "single-stim", "word": "pasta", "stimulus": "<p id=\"stim\">PASTA</p>", "conditions": [12, 1600, "v", 24000], "internal_node_id": "0.0-69.0", "trial": 2, "time_elapsed": 594098, "serialpos": 7, "key_press": -1, "wordID": 1020, "type": "PRES_VIS", "trial_index": 96}, "uniqueid": "MTK3042:3TPZPLC3M1J3LDOT96WDDUJKKG93PZ", "dateTime": 1519674498420}, {"current_trial": 97, "trialdata": {"rt": -1, "trial_type": "single-stim", "word": "flashlight", "stimulus": "<p id=\"stim\">FLASHLIGHT</p>", "conditions": [12, 1600, "v", 24000], "internal_node_id": "0.0-70.0", "trial": 2, "time_elapsed": 596657, "serialpos": 8, "key_press": -1, "wordID": 574, "type": "PRES_VIS", "trial_index": 97}, "uniqueid": "MTK3042:3TPZPLC3M1J3LDOT96WDDUJKKG93PZ", "dateTime": 1519674500978}, {"current_trial": 98, "trialdata": {"rt": -1, "trial_type": "single-stim", "word": "hiker", "stimulus": "<p id=\"stim\">HIKER</p>", "conditions": [12, 1600, "v", 24000], "internal_node_id": "0.0-71.0", "trial": 2, "time_elapsed": 599092, "serialpos": 9, "key_press": -1, "wordID": 707, "type": "PRES_VIS", "trial_index": 98}, "uniqueid": "MTK3042:3TPZPLC3M1J3LDOT96WDDUJKKG93PZ", "dateTime": 1519674503413}, {"current_trial": 99, "trialdata": {"rt": -1, "trial_type": "single-stim", "word": "saddle", "stimulus": "<p id=\"stim\">SADDLE</p>", "conditions": [12, 1600, "v", 24000], "internal_node_id": "0.0-72.0", "trial": 2, "time_elapsed": 601595, "serialpos": 10, "key_press": -1, "wordID": 1220, "type": "PRES_VIS", "trial_index": 99}, "uniqueid": "MTK3042:3TPZPLC3M1J3LDOT96WDDUJKKG93PZ", "dateTime": 1519674505916}, {"current_trial": 100, "trialdata": {"rt": -1, "trial_type": "single-stim", "word": "foot", "stimulus": "<p id=\"stim\">FOOT</p>", "conditions": [12, 1600, "v", 24000], "internal_node_id": "0.0-73.0", "trial": 2, "time_elapsed": 604069, "serialpos": 11, "key_press": -1, "wordID": 589, "type": "PRES_VIS", "trial_index": 100}, "uniqueid": "MTK3042:3TPZPLC3M1J3LDOT96WDDUJKKG93PZ", "dateTime": 1519674508390}, {"current_trial": 101, "trialdata": {"rt": -1, "trial_type": "single-stim", "stimulus": "", "internal_node_id": "0.0-74.0-0.0", "time_elapsed": 606263, "key_press": -1, "type": "PRE_RECALL_DELAY", "trial_index": 101}, "uniqueid": "MTK3042:3TPZPLC3M1J3LDOT96WDDUJKKG93PZ", "dateTime": 1519674510584}, {"current_trial": 102, "trialdata": {"rt": -1000, "trial_type": "single-audio", "stimulus": "/static/audio/400Hz.wav", "internal_node_id": "0.0-75.0", "time_elapsed": 606767, "key_press": -1, "type": "PRE_RECALL_ALERT", "trial_index": 102}, "uniqueid": "MTK3042:3TPZPLC3M1J3LDOT96WDDUJKKG93PZ", "dateTime": 1519674511088}, {"current_trial": 103, "trialdata": {"rt": [3373, 8513, 20439], "recwords": ["saddle", "dugpan", "dashboard"], "key_times": [1258, 1380, 1583, 1771, 1968, 2090, 3373, 7297, 7471, 7625, 7790, 7928, 8056, 8513, 18681, 18838, 18909, 19212, 19411, 19598, 19868, 19984, 20184, 20439], "trial_type": "free-recall", "conditions": [12, 1600, "v", 24000], "internal_node_id": "0.0-76.0-0.0", "key_presses": [83, 65, 68, 68, 76, 69, 13, 68, 85, 71, 80, 65, 78, 13, 68, 65, 83, 72, 66, 79, 65, 82, 68, 13], "trial": 2, "time_elapsed": 666779, "type": "FREE_RECALL", "trial_index": 103}, "uniqueid": "MTK3042:3TPZPLC3M1J3LDOT96WDDUJKKG93PZ", "dateTime": 1519674571106}, {"current_trial": 104, "trialdata": {"rt": 2222, "trial_type": "text", "internal_node_id": "0.0-77.0", "time_elapsed": 671009, "key_press": 13, "type": "INSTRUCTIONS", "trial_index": 104}, "uniqueid": "MTK3042:3TPZPLC3M1J3LDOT96WDDUJKKG93PZ", "dateTime": 1519674575331}, {"current_trial": 105, "trialdata": {"rt": [5443, 10610, 13917, 16460, 20638], "trial_type": "math-distractor", "key_times": [5010, 5148, 5443, 10107, 10223, 10610, 13537, 13624, 13917, 15998, 16460, 20097, 20198, 20638], "responses": ["24", "15", "12", "8", "15"], "num2": [9, 4, 1, 3, 3, 7], "num3": [6, 3, 8, 3, 4, 5], "conditions": [12, 800, "v", 24000], "internal_node_id": "0.0-78.0", "key_presses": [98, 100, 13, 97, 101, 13, 97, 98, 13, 104, 13, 97, 101, 13], "trial": 3, "time_elapsed": 697016, "type": "DISTRACTOR", "trial_index": 105, "num1": [9, 9, 3, 2, 8, 3]}, "uniqueid": "MTK3042:3TPZPLC3M1J3LDOT96WDDUJKKG93PZ", "dateTime": 1519674601337}, {"current_trial": 106, "trialdata": {"rt": -1, "trial_type": "single-stim", "stimulus": "<p id=\"stim\">10</p>", "internal_node_id": "0.0-79.0-0.0", "time_elapsed": 700018, "key_press": -1, "trial_index": 106}, "uniqueid": "MTK3042:3TPZPLC3M1J3LDOT96WDDUJKKG93PZ", "dateTime": 1519674604339}, {"current_trial": 107, "trialdata": {"rt": -1, "trial_type": "single-stim", "stimulus": "<p id=\"stim\">9</p>", "internal_node_id": "0.0-79.0-1.0", "time_elapsed": 701022, "key_press": -1, "trial_index": 107}, "uniqueid": "MTK3042:3TPZPLC3M1J3LDOT96WDDUJKKG93PZ", "dateTime": 1519674605344}, {"current_trial": 108, "trialdata": {"rt": -1, "trial_type": "single-stim", "stimulus": "<p id=\"stim\">8</p>", "internal_node_id": "0.0-79.0-2.0", "time_elapsed": 702026, "key_press": -1, "trial_index": 108}, "uniqueid": "MTK3042:3TPZPLC3M1J3LDOT96WDDUJKKG93PZ", "dateTime": 1519674606347}, {"current_trial": 109, "trialdata": {"rt": -1, "trial_type": "single-stim", "stimulus": "<p id=\"stim\">7</p>", "internal_node_id": "0.0-79.0-3.0", "time_elapsed": 703029, "key_press": -1, "trial_index": 109}, "uniqueid": "MTK3042:3TPZPLC3M1J3LDOT96WDDUJKKG93PZ", "dateTime": 1519674607350}, {"current_trial": 110, "trialdata": {"rt": -1, "trial_type": "single-stim", "stimulus": "<p id=\"stim\">6</p>", "internal_node_id": "0.0-79.0-4.0", "time_elapsed": 704030, "key_press": -1, "trial_index": 110}, "uniqueid": "MTK3042:3TPZPLC3M1J3LDOT96WDDUJKKG93PZ", "dateTime": 1519674608352}, {"current_trial": 111, "trialdata": {"rt": -1, "trial_type": "single-stim", "stimulus": "<p id=\"stim\">5</p>", "internal_node_id": "0.0-79.0-5.0", "time_elapsed": 705034, "key_press": -1, "trial_index": 111}, "uniqueid": "MTK3042:3TPZPLC3M1J3LDOT96WDDUJKKG93PZ", "dateTime": 1519674609355}, {"current_trial": 112, "trialdata": {"rt": -1, "trial_type": "single-stim", "stimulus": "<p id=\"stim\">4</p>", "internal_node_id": "0.0-79.0-6.0", "time_elapsed": 706037, "key_press": -1, "trial_index": 112}, "uniqueid": "MTK3042:3TPZPLC3M1J3LDOT96WDDUJKKG93PZ", "dateTime": 1519674610358}, {"current_trial": 113, "trialdata": {"rt": -1, "trial_type": "single-stim", "stimulus": "<p id=\"stim\">3</p>", "internal_node_id": "0.0-79.0-7.0", "time_elapsed": 707039, "key_press": -1, "trial_index": 113}, "uniqueid": "MTK3042:3TPZPLC3M1J3LDOT96WDDUJKKG93PZ", "dateTime": 1519674611360}, {"current_trial": 114, "trialdata": {"rt": -1, "trial_type": "single-stim", "stimulus": "<p id=\"stim\">2</p>", "internal_node_id": "0.0-79.0-8.0", "time_elapsed": 708041, "key_press": -1, "trial_index": 114}, "uniqueid": "MTK3042:3TPZPLC3M1J3LDOT96WDDUJKKG93PZ", "dateTime": 1519674612362}, {"current_trial": 115, "trialdata": {"rt": -1, "trial_type": "single-stim", "stimulus": "<p id=\"stim\">1</p>", "internal_node_id": "0.0-79.0-9.0", "time_elapsed": 709041, "key_press": -1, "trial_index": 115}, "uniqueid": "MTK3042:3TPZPLC3M1J3LDOT96WDDUJKKG93PZ", "dateTime": 1519674613363}, {"current_trial": 116, "trialdata": {"rt": -1, "trial_type": "single-stim", "stimulus": "<p id=\"stim\">+</p>", "internal_node_id": "0.0-80.0-0.0", "time_elapsed": 710553, "key_press": -1, "type": "FIXATION", "trial_index": 116}, "uniqueid": "MTK3042:3TPZPLC3M1J3LDOT96WDDUJKKG93PZ", "dateTime": 1519674614875}, {"current_trial": 117, "trialdata": {"rt": -1, "trial_type": "single-stim", "word": "actor", "stimulus": "<p id=\"stim\">ACTOR</p>", "conditions": [12, 800, "v", 24000], "internal_node_id": "0.0-81.0", "trial": 3, "time_elapsed": 711358, "serialpos": 0, "key_press": -1, "wordID": 4, "type": "PRES_VIS", "trial_index": 117}, "uniqueid": "MTK3042:3TPZPLC3M1J3LDOT96WDDUJKKG93PZ", "dateTime": 1519674615679}, {"current_trial": 118, "trialdata": {"rt": -1, "trial_type": "single-stim", "word": "lace", "stimulus": "<p id=\"stim\">LACE</p>", "conditions": [12, 800, "v", 24000], "internal_node_id": "0.0-82.0", "trial": 3, "time_elapsed": 713081, "serialpos": 1, "key_press": -1, "wordID": 791, "type": "PRES_VIS", "trial_index": 118}, "uniqueid": "MTK3042:3TPZPLC3M1J3LDOT96WDDUJKKG93PZ", "dateTime": 1519674617403}, {"current_trial": 119, "trialdata": {"rt": -1, "trial_type": "single-stim", "word": "sheriff", "stimulus": "<p id=\"stim\">SHERIFF</p>", "conditions": [12, 800, "v", 24000], "internal_node_id": "0.0-83.0", "trial": 3, "time_elapsed": 714785, "serialpos": 2, "key_press": -1, "wordID": 1283, "type": "PRES_VIS", "trial_index": 119}, "uniqueid": "MTK3042:3TPZPLC3M1J3LDOT96WDDUJKKG93PZ", "dateTime": 1519674619106}, {"current_trial": 120, "trialdata": {"rt": -1, "trial_type": "single-stim", "word": "knapsack", "stimulus": "<p id=\"stim\">KNAPSACK</p>", "conditions": [12, 800, "v", 24000], "internal_node_id": "0.0-84.0", "trial": 3, "time_elapsed": 716759, "serialpos": 3, "key_press": -1, "wordID": 782, "type": "PRES_VIS", "trial_index": 120}, "uniqueid": "MTK3042:3TPZPLC3M1J3LDOT96WDDUJKKG93PZ", "dateTime": 1519674621082}, {"current_trial": 121, "trialdata": {"rt": -1, "trial_type": "single-stim", "word": "temple", "stimulus": "<p id=\"stim\">TEMPLE</p>", "conditions": [12, 800, "v", 24000], "internal_node_id": "0.0-85.0", "trial": 3, "time_elapsed": 718534, "serialpos": 4, "key_press": -1, "wordID": 1447, "type": "PRES_VIS", "trial_index": 121}, "uniqueid": "MTK3042:3TPZPLC3M1J3LDOT96WDDUJKKG93PZ", "dateTime": 1519674622855}, {"current_trial": 122, "trialdata": {"rt": -1, "trial_type": "single-stim", "word": "juggler", "stimulus": "<p id=\"stim\">JUGGLER</p>", "conditions": [12, 800, "v", 24000], "internal_node_id": "0.0-86.0", "trial": 3, "time_elapsed": 720146, "serialpos": 5, "key_press": -1, "wordID": 762, "type": "PRES_VIS", "trial_index": 122}, "uniqueid": "MTK3042:3TPZPLC3M1J3LDOT96WDDUJKKG93PZ", "dateTime": 1519674624467}, {"current_trial": 123, "trialdata": {"rt": -1, "trial_type": "single-stim", "word": "robber", "stimulus": "<p id=\"stim\">ROBBER</p>", "conditions": [12, 800, "v", 24000], "internal_node_id": "0.0-87.0", "trial": 3, "time_elapsed": 721882, "serialpos": 6, "key_press": -1, "wordID": 1196, "type": "PRES_VIS", "trial_index": 123}, "uniqueid": "MTK3042:3TPZPLC3M1J3LDOT96WDDUJKKG93PZ", "dateTime": 1519674626203}, {"current_trial": 124, "trialdata": {"rt": -1, "trial_type": "single-stim", "word": "knife", "stimulus": "<p id=\"stim\">KNIFE</p>", "conditions": [12, 800, "v", 24000], "internal_node_id": "0.0-88.0", "trial": 3, "time_elapsed": 723869, "serialpos": 7, "key_press": -1, "wordID": 784, "type": "PRES_VIS", "trial_index": 124}, "uniqueid": "MTK3042:3TPZPLC3M1J3LDOT96WDDUJKKG93PZ", "dateTime": 1519674628190}, {"current_trial": 125, "trialdata": {"rt": -1, "trial_type": "single-stim", "word": "sword", "stimulus": "<p id=\"stim\">SWORD</p>", "conditions": [12, 800, "v", 24000], "internal_node_id": "0.0-89.0", "trial": 3, "time_elapsed": 725847, "serialpos": 8, "key_press": -1, "wordID": 1422, "type": "PRES_VIS", "trial_index": 125}, "uniqueid": "MTK3042:3TPZPLC3M1J3LDOT96WDDUJKKG93PZ", "dateTime": 1519674630168}, {"current_trial": 126, "trialdata": {"rt": -1, "trial_type": "single-stim", "word": "cross", "stimulus": "<p id=\"stim\">CROSS</p>", "conditions": [12, 800, "v", 24000], "internal_node_id": "0.0-90.0", "trial": 3, "time_elapsed": 727748, "serialpos": 9, "key_press": -1, "wordID": 412, "type": "PRES_VIS", "trial_index": 126}, "uniqueid": "MTK3042:3TPZPLC3M1J3LDOT96WDDUJKKG93PZ", "dateTime": 1519674632069}, {"current_trial": 127, "trialdata": {"rt": -1, "trial_type": "single-stim", "word": "seal", "stimulus": "<p id=\"stim\">SEAL</p>", "conditions": [12, 800, "v", 24000], "internal_node_id": "0.0-91.0", "trial": 3, "time_elapsed": 729387, "serialpos": 10, "key_press": -1, "wordID": 1261, "type": "PRES_VIS", "trial_index": 127}, "uniqueid": "MTK3042:3TPZPLC3M1J3LDOT96WDDUJKKG93PZ", "dateTime": 1519674633708}, {"current_trial": 128, "trialdata": {"rt": -1, "trial_type": "single-stim", "word": "county", "stimulus": "<p id=\"stim\">COUNTY</p>", "conditions": [12, 800, "v", 24000], "internal_node_id": "0.0-92.0", "trial": 3, "time_elapsed": 731272, "serialpos": 11, "key_press": -1, "wordID": 388, "type": "PRES_VIS", "trial_index": 128}, "uniqueid": "MTK3042:3TPZPLC3M1J3LDOT96WDDUJKKG93PZ", "dateTime": 1519674635593}, {"current_trial": 129, "trialdata": {"rt": -1, "trial_type": "single-stim", "stimulus": "", "internal_node_id": "0.0-93.0-0.0", "time_elapsed": 733545, "key_press": -1, "type": "PRE_RECALL_DELAY", "trial_index": 129}, "uniqueid": "MTK3042:3TPZPLC3M1J3LDOT96WDDUJKKG93PZ", "dateTime": 1519674637866}, {"current_trial": 130, "trialdata": {"rt": -1000, "trial_type": "single-audio", "stimulus": "/static/audio/400Hz.wav", "internal_node_id": "0.0-94.0", "time_elapsed": 734048, "key_press": -1, "type": "PRE_RECALL_ALERT", "trial_index": 130}, "uniqueid": "MTK3042:3TPZPLC3M1J3LDOT96WDDUJKKG93PZ", "dateTime": 1519674638369}, {"current_trial": 131, "trialdata": {"rt": [2604, 4407, 6618, 8645, 10478, 19423], "recwords": ["county", "seal", "knife", "sword", "sheriff", "word"], "key_times": [1417, 1621, 1716, 1939, 2070, 2200, 2604, 3065, 3270, 3414, 3856, 4407, 5260, 5575, 5715, 6341, 6410, 6618, 7168, 7369, 7642, 7762, 8029, 8645, 9210, 9398, 9510, 9652, 9806, 9970, 10148, 10478, 18787, 18905, 19024, 19214, 19423], "trial_type": "free-recall", "conditions": [12, 800, "v", 24000], "internal_node_id": "0.0-95.0-0.0", "key_presses": [67, 79, 85, 78, 84, 89, 13, 83, 69, 65, 76, 13, 75, 78, 73, 70, 69, 13, 83, 87, 79, 82, 68, 13, 83, 72, 69, 82, 73, 70, 70, 13, 87, 79, 82, 68, 13], "trial": 3, "time_elapsed": 794052, "type": "FREE_RECALL", "trial_index": 131}, "uniqueid": "MTK3042:3TPZPLC3M1J3LDOT96WDDUJKKG93PZ", "dateTime": 1519674698378}, {"current_trial": 132, "trialdata": {"rt": 1546, "trial_type": "text", "internal_node_id": "0.0-96.0", "time_elapsed": 797606, "key_press": 13, "type": "INSTRUCTIONS", "trial_index": 132}, "uniqueid": "MTK3042:3TPZPLC3M1J3LDOT96WDDUJKKG93PZ", "dateTime": 1519674701928}, {"current_trial": 133, "trialdata": {"rt": [5136], "trial_type": "math-distractor", "key_times": [4725, 4791, 5136], "responses": ["15"], "num2": [5, 5], "num3": [8, 7], "conditions": [12, 1600, "v", 12000], "internal_node_id": "0.0-97.0", "key_presses": [97, 101, 13], "trial": 4, "time_elapsed": 811615, "type": "DISTRACTOR", "trial_index": 133, "num1": [2, 9]}, "uniqueid": "MTK3042:3TPZPLC3M1J3LDOT96WDDUJKKG93PZ", "dateTime": 1519674715936}, {"current_trial": 134, "trialdata": {"rt": -1, "trial_type": "single-stim", "stimulus": "<p id=\"stim\">10</p>", "internal_node_id": "0.0-98.0-0.0", "time_elapsed": 814618, "key_press": -1, "trial_index": 134}, "uniqueid": "MTK3042:3TPZPLC3M1J3LDOT96WDDUJKKG93PZ", "dateTime": 1519674718939}, {"current_trial": 135, "trialdata": {"rt": -1, "trial_type": "single-stim", "stimulus": "<p id=\"stim\">9</p>", "internal_node_id": "0.0-98.0-1.0", "time_elapsed": 815620, "key_press": -1, "trial_index": 135}, "uniqueid": "MTK3042:3TPZPLC3M1J3LDOT96WDDUJKKG93PZ", "dateTime": 1519674719941}, {"current_trial": 136, "trialdata": {"rt": -1, "trial_type": "single-stim", "stimulus": "<p id=\"stim\">8</p>", "internal_node_id": "0.0-98.0-2.0", "time_elapsed": 816630, "key_press": -1, "trial_index": 136}, "uniqueid": "MTK3042:3TPZPLC3M1J3LDOT96WDDUJKKG93PZ", "dateTime": 1519674720952}, {"current_trial": 137, "trialdata": {"rt": -1, "trial_type": "single-stim", "stimulus": "<p id=\"stim\">7</p>", "internal_node_id": "0.0-98.0-3.0", "time_elapsed": 817636, "key_press": -1, "trial_index": 137}, "uniqueid": "MTK3042:3TPZPLC3M1J3LDOT96WDDUJKKG93PZ", "dateTime": 1519674721957}, {"current_trial": 138, "trialdata": {"rt": -1, "trial_type": "single-stim", "stimulus": "<p id=\"stim\">6</p>", "internal_node_id": "0.0-98.0-4.0", "time_elapsed": 818638, "key_press": -1, "trial_index": 138}, "uniqueid": "MTK3042:3TPZPLC3M1J3LDOT96WDDUJKKG93PZ", "dateTime": 1519674722959}, {"current_trial": 139, "trialdata": {"rt": -1, "trial_type": "single-stim", "stimulus": "<p id=\"stim\">5</p>", "internal_node_id": "0.0-98.0-5.0", "time_elapsed": 819640, "key_press": -1, "trial_index": 139}, "uniqueid": "MTK3042:3TPZPLC3M1J3LDOT96WDDUJKKG93PZ", "dateTime": 1519674723962}, {"current_trial": 140, "trialdata": {"rt": -1, "trial_type": "single-stim", "stimulus": "<p id=\"stim\">4</p>", "internal_node_id": "0.0-98.0-6.0", "time_elapsed": 820643, "key_press": -1, "trial_index": 140}, "uniqueid": "MTK3042:3TPZPLC3M1J3LDOT96WDDUJKKG93PZ", "dateTime": 1519674724964}, {"current_trial": 141, "trialdata": {"rt": -1, "trial_type": "single-stim", "stimulus": "<p id=\"stim\">3</p>", "internal_node_id": "0.0-98.0-7.0", "time_elapsed": 821658, "key_press": -1, "trial_index": 141}, "uniqueid": "MTK3042:3TPZPLC3M1J3LDOT96WDDUJKKG93PZ", "dateTime": 1519674725979}, {"current_trial": 142, "trialdata": {"rt": -1, "trial_type": "single-stim", "stimulus": "<p id=\"stim\">2</p>", "internal_node_id": "0.0-98.0-8.0", "time_elapsed": 822660, "key_press": -1, "trial_index": 142}, "uniqueid": "MTK3042:3TPZPLC3M1J3LDOT96WDDUJKKG93PZ", "dateTime": 1519674726981}, {"current_trial": 143, "trialdata": {"rt": -1, "trial_type": "single-stim", "stimulus": "<p id=\"stim\">1</p>", "internal_node_id": "0.0-98.0-9.0", "time_elapsed": 823662, "key_press": -1, "trial_index": 143}, "uniqueid": "MTK3042:3TPZPLC3M1J3LDOT96WDDUJKKG93PZ", "dateTime": 1519674727988}, {"current_trial": 144, "trialdata": {"rt": -1, "trial_type": "single-stim", "stimulus": "<p id=\"stim\">+</p>", "internal_node_id": "0.0-99.0-0.0", "time_elapsed": 825169, "key_press": -1, "type": "FIXATION", "trial_index": 144}, "uniqueid": "MTK3042:3TPZPLC3M1J3LDOT96WDDUJKKG93PZ", "dateTime": 1519674729490}, {"current_trial": 145, "trialdata": {"rt": -1, "trial_type": "single-stim", "word": "burglar", "stimulus": "<p id=\"stim\">BURGLAR</p>", "conditions": [12, 1600, "v", 12000], "internal_node_id": "0.0-100.0", "trial": 4, "time_elapsed": 826770, "serialpos": 0, "key_press": -1, "wordID": 199, "type": "PRES_VIS", "trial_index": 145}, "uniqueid": "MTK3042:3TPZPLC3M1J3LDOT96WDDUJKKG93PZ", "dateTime": 1519674731091}, {"current_trial": 146, "trialdata": {"rt": -1, "trial_type": "single-stim", "word": "boyfriend", "stimulus": "<p id=\"stim\">BOYFRIEND</p>", "conditions": [12, 1600, "v", 12000], "internal_node_id": "0.0-101.0", "trial": 4, "time_elapsed": 829293, "serialpos": 1, "key_press": -1, "wordID": 161, "type": "PRES_VIS", "trial_index": 146}, "uniqueid": "MTK3042:3TPZPLC3M1J3LDOT96WDDUJKKG93PZ", "dateTime": 1519674733614}, {"current_trial": 147, "trialdata": {"rt": -1, "trial_type": "single-stim", "word": "lipstick", "stimulus": "<p id=\"stim\">LIPSTICK</p>", "conditions": [12, 1600, "v", 12000], "internal_node_id": "0.0-102.0", "trial": 4, "time_elapsed": 831775, "serialpos": 2, "key_press": -1, "wordID": 828, "type": "PRES_VIS", "trial_index": 147}, "uniqueid": "MTK3042:3TPZPLC3M1J3LDOT96WDDUJKKG93PZ", "dateTime": 1519674736097}, {"current_trial": 148, "trialdata": {"rt": -1, "trial_type": "single-stim", "word": "subway", "stimulus": "<p id=\"stim\">SUBWAY</p>", "conditions": [12, 1600, "v", 12000], "internal_node_id": "0.0-103.0", "trial": 4, "time_elapsed": 834274, "serialpos": 3, "key_press": -1, "wordID": 1399, "type": "PRES_VIS", "trial_index": 148}, "uniqueid": "MTK3042:3TPZPLC3M1J3LDOT96WDDUJKKG93PZ", "dateTime": 1519674738595}, {"current_trial": 149, "trialdata": {"rt": -1, "trial_type": "single-stim", "word": "salad", "stimulus": "<p id=\"stim\">SALAD</p>", "conditions": [12, 1600, "v", 12000], "internal_node_id": "0.0-104.0", "trial": 4, "time_elapsed": 836891, "serialpos": 4, "key_press": -1, "wordID": 1223, "type": "PRES_VIS", "trial_index": 149}, "uniqueid": "MTK3042:3TPZPLC3M1J3LDOT96WDDUJKKG93PZ", "dateTime": 1519674741212}, {"current_trial": 150, "trialdata": {"rt": -1, "trial_type": "single-stim", "word": "sketch", "stimulus": "<p id=\"stim\">SKETCH</p>", "conditions": [12, 1600, "v", 12000], "internal_node_id": "0.0-105.0", "trial": 4, "time_elapsed": 839549, "serialpos": 5, "key_press": -1, "wordID": 1314, "type": "PRES_VIS", "trial_index": 150}, "uniqueid": "MTK3042:3TPZPLC3M1J3LDOT96WDDUJKKG93PZ", "dateTime": 1519674743870}, {"current_trial": 151, "trialdata": {"rt": -1, "trial_type": "single-stim", "word": "softball", "stimulus": "<p id=\"stim\">SOFTBALL</p>", "conditions": [12, 1600, "v", 12000], "internal_node_id": "0.0-106.0", "trial": 4, "time_elapsed": 842126, "serialpos": 6, "key_press": -1, "wordID": 1342, "type": "PRES_VIS", "trial_index": 151}, "uniqueid": "MTK3042:3TPZPLC3M1J3LDOT96WDDUJKKG93PZ", "dateTime": 1519674746447}, {"current_trial": 152, "trialdata": {"rt": -1, "trial_type": "single-stim", "word": "penguin", "stimulus": "<p id=\"stim\">PENGUIN</p>", "conditions": [12, 1600, "v", 12000], "internal_node_id": "0.0-107.0", "trial": 4, "time_elapsed": 844713, "serialpos": 7, "key_press": -1, "wordID": 1043, "type": "PRES_VIS", "trial_index": 152}, "uniqueid": "MTK3042:3TPZPLC3M1J3LDOT96WDDUJKKG93PZ", "dateTime": 1519674749034}, {"current_trial": 153, "trialdata": {"rt": -1, "trial_type": "single-stim", "word": "mattress", "stimulus": "<p id=\"stim\">MATTRESS</p>", "conditions": [12, 1600, "v", 12000], "internal_node_id": "0.0-108.0", "trial": 4, "time_elapsed": 847147, "serialpos": 8, "key_press": -1, "wordID": 878, "type": "PRES_VIS", "trial_index": 153}, "uniqueid": "MTK3042:3TPZPLC3M1J3LDOT96WDDUJKKG93PZ", "dateTime": 1519674751468}, {"current_trial": 154, "trialdata": {"rt": -1, "trial_type": "single-stim", "word": "sunset", "stimulus": "<p id=\"stim\">SUNSET</p>", "conditions": [12, 1600, "v", 12000], "internal_node_id": "0.0-109.0", "trial": 4, "time_elapsed": 849862, "serialpos": 9, "key_press": -1, "wordID": 1407, "type": "PRES_VIS", "trial_index": 154}, "uniqueid": "MTK3042:3TPZPLC3M1J3LDOT96WDDUJKKG93PZ", "dateTime": 1519674754183}, {"current_trial": 155, "trialdata": {"rt": -1, "trial_type": "single-stim", "word": "sunrise", "stimulus": "<p id=\"stim\">SUNRISE</p>", "conditions": [12, 1600, "v", 12000], "internal_node_id": "0.0-110.0", "trial": 4, "time_elapsed": 852565, "serialpos": 10, "key_press": -1, "wordID": 1406, "type": "PRES_VIS", "trial_index": 155}, "uniqueid": "MTK3042:3TPZPLC3M1J3LDOT96WDDUJKKG93PZ", "dateTime": 1519674756886}, {"current_trial": 156, "trialdata": {"rt": -1, "trial_type": "single-stim", "word": "radish", "stimulus": "<p id=\"stim\">RADISH</p>", "conditions": [12, 1600, "v", 12000], "internal_node_id": "0.0-111.0", "trial": 4, "time_elapsed": 855088, "serialpos": 11, "key_press": -1, "wordID": 1157, "type": "PRES_VIS", "trial_index": 156}, "uniqueid": "MTK3042:3TPZPLC3M1J3LDOT96WDDUJKKG93PZ", "dateTime": 1519674759409}, {"current_trial": 157, "trialdata": {"rt": -1, "trial_type": "single-stim", "stimulus": "", "internal_node_id": "0.0-112.0-0.0", "time_elapsed": 857463, "key_press": -1, "type": "PRE_RECALL_DELAY", "trial_index": 157}, "uniqueid": "MTK3042:3TPZPLC3M1J3LDOT96WDDUJKKG93PZ", "dateTime": 1519674761784}, {"current_trial": 158, "trialdata": {"rt": -1000, "trial_type": "single-audio", "stimulus": "/static/audio/400Hz.wav", "internal_node_id": "0.0-113.0", "time_elapsed": 857966, "key_press": -1, "type": "PRE_RECALL_ALERT", "trial_index": 158}, "uniqueid": "MTK3042:3TPZPLC3M1J3LDOT96WDDUJKKG93PZ", "dateTime": 1519674762288}, {"current_trial": 159, "trialdata": {"rt": [2549, 4258, 6062, 8597, 11044], "recwords": ["radish", "sunset", "sunrise", "boyfriend", "burglar"], "key_times": [1170, 1262, 1499, 1686, 1795, 1982, 2549, 3020, 3235, 3347, 3460, 3747, 3933, 4258, 4711, 5012, 5096, 5285, 5427, 5583, 5767, 6062, 7070, 7237, 7376, 7620, 7812, 7925, 8022, 8157, 8263, 8597, 9178, 9329, 9818, 10369, 10480, 10635, 10729, 11044], "trial_type": "free-recall", "conditions": [12, 1600, "v", 12000], "internal_node_id": "0.0-114.0-0.0", "key_presses": [82, 65, 68, 73, 83, 72, 13, 83, 85, 78, 83, 69, 84, 13, 83, 85, 78, 82, 73, 83, 69, 13, 66, 79, 89, 70, 82, 73, 69, 78, 68, 13, 66, 85, 82, 71, 76, 65, 82, 13], "trial": 4, "time_elapsed": 917975, "type": "FREE_RECALL", "trial_index": 159}, "uniqueid": "MTK3042:3TPZPLC3M1J3LDOT96WDDUJKKG93PZ", "dateTime": 1519674822302}, {"current_trial": 160, "trialdata": {"rt": 639, "trial_type": "text", "internal_node_id": "0.0-115.0", "time_elapsed": 920623, "key_press": 13, "type": "INSTRUCTIONS", "trial_index": 160}, "uniqueid": "MTK3042:3TPZPLC3M1J3LDOT96WDDUJKKG93PZ", "dateTime": 1519674824945}, {"current_trial": 161, "trialdata": {"rt": [4257, 7777, 11605, 13939, 18978, 22512], "trial_type": "math-distractor", "key_times": [3792, 4004, 4257, 7240, 7533, 7777, 11010, 11209, 11605, 13657, 13939, 18329, 18649, 18978, 22135, 22219, 22512], "responses": ["11", "10", "10", "8", "17", "12"], "num2": [2, 4, 3, 1, 8, 6, 2], "num3": [6, 1, 3, 1, 3, 3, 2], "conditions": [24, 1600, "v", 24000], "internal_node_id": "0.0-116.0", "key_presses": [97, 97, 13, 97, 96, 13, 97, 96, 13, 104, 13, 97, 103, 13, 97, 98, 13], "trial": 5, "time_elapsed": 946636, "type": "DISTRACTOR", "trial_index": 161, "num1": [3, 5, 4, 6, 6, 3, 5]}, "uniqueid": "MTK3042:3TPZPLC3M1J3LDOT96WDDUJKKG93PZ", "dateTime": 1519674850958}, {"current_trial": 162, "trialdata": {"rt": -1, "trial_type": "single-stim", "stimulus": "<p id=\"stim\">10</p>", "internal_node_id": "0.0-117.0-0.0", "time_elapsed": 949640, "key_press": -1, "trial_index": 162}, "uniqueid": "MTK3042:3TPZPLC3M1J3LDOT96WDDUJKKG93PZ", "dateTime": 1519674853961}, {"current_trial": 163, "trialdata": {"rt": -1, "trial_type": "single-stim", "stimulus": "<p id=\"stim\">9</p>", "internal_node_id": "0.0-117.0-1.0", "time_elapsed": 950645, "key_press": -1, "trial_index": 163}, "uniqueid": "MTK3042:3TPZPLC3M1J3LDOT96WDDUJKKG93PZ", "dateTime": 1519674854967}, {"current_trial": 164, "trialdata": {"rt": -1, "trial_type": "single-stim", "stimulus": "<p id=\"stim\">8</p>", "internal_node_id": "0.0-117.0-2.0", "time_elapsed": 951647, "key_press": -1, "trial_index": 164}, "uniqueid": "MTK3042:3TPZPLC3M1J3LDOT96WDDUJKKG93PZ", "dateTime": 1519674855969}, {"current_trial": 165, "trialdata": {"rt": -1, "trial_type": "single-stim", "stimulus": "<p id=\"stim\">7</p>", "internal_node_id": "0.0-117.0-3.0", "time_elapsed": 952655, "key_press": -1, "trial_index": 165}, "uniqueid": "MTK3042:3TPZPLC3M1J3LDOT96WDDUJKKG93PZ", "dateTime": 1519674856977}, {"current_trial": 166, "trialdata": {"rt": -1, "trial_type": "single-stim", "stimulus": "<p id=\"stim\">6</p>", "internal_node_id": "0.0-117.0-4.0", "time_elapsed": 953658, "key_press": -1, "trial_index": 166}, "uniqueid": "MTK3042:3TPZPLC3M1J3LDOT96WDDUJKKG93PZ", "dateTime": 1519674857979}, {"current_trial": 167, "trialdata": {"rt": -1, "trial_type": "single-stim", "stimulus": "<p id=\"stim\">5</p>", "internal_node_id": "0.0-117.0-5.0", "time_elapsed": 954661, "key_press": -1, "trial_index": 167}, "uniqueid": "MTK3042:3TPZPLC3M1J3LDOT96WDDUJKKG93PZ", "dateTime": 1519674858982}, {"current_trial": 168, "trialdata": {"rt": -1, "trial_type": "single-stim", "stimulus": "<p id=\"stim\">4</p>", "internal_node_id": "0.0-117.0-6.0", "time_elapsed": 955666, "key_press": -1, "trial_index": 168}, "uniqueid": "MTK3042:3TPZPLC3M1J3LDOT96WDDUJKKG93PZ", "dateTime": 1519674859988}, {"current_trial": 169, "trialdata": {"rt": -1, "trial_type": "single-stim", "stimulus": "<p id=\"stim\">3</p>", "internal_node_id": "0.0-117.0-7.0", "time_elapsed": 956672, "key_press": -1, "trial_index": 169}, "uniqueid": "MTK3042:3TPZPLC3M1J3LDOT96WDDUJKKG93PZ", "dateTime": 1519674860993}, {"current_trial": 170, "trialdata": {"rt": -1, "trial_type": "single-stim", "stimulus": "<p id=\"stim\">2</p>", "internal_node_id": "0.0-117.0-8.0", "time_elapsed": 957677, "key_press": -1, "trial_index": 170}, "uniqueid": "MTK3042:3TPZPLC3M1J3LDOT96WDDUJKKG93PZ", "dateTime": 1519674861998}, {"current_trial": 171, "trialdata": {"rt": -1, "trial_type": "single-stim", "stimulus": "<p id=\"stim\">1</p>", "internal_node_id": "0.0-117.0-9.0", "time_elapsed": 958712, "key_press": -1, "trial_index": 171}, "uniqueid": "MTK3042:3TPZPLC3M1J3LDOT96WDDUJKKG93PZ", "dateTime": 1519674863033}, {"current_trial": 172, "trialdata": {"rt": -1, "trial_type": "single-stim", "stimulus": "<p id=\"stim\">+</p>", "internal_node_id": "0.0-118.0-0.0", "time_elapsed": 960220, "key_press": -1, "type": "FIXATION", "trial_index": 172}, "uniqueid": "MTK3042:3TPZPLC3M1J3LDOT96WDDUJKKG93PZ", "dateTime": 1519674864541}, {"current_trial": 173, "trialdata": {"rt": -1, "trial_type": "single-stim", "word": "hero", "stimulus": "<p id=\"stim\">HERO</p>", "conditions": [24, 1600, "v", 24000], "internal_node_id": "0.0-119.0", "trial": 5, "time_elapsed": 961822, "serialpos": 0, "key_press": -1, "wordID": 705, "type": "PRES_VIS", "trial_index": 173}, "uniqueid": "MTK3042:3TPZPLC3M1J3LDOT96WDDUJKKG93PZ", "dateTime": 1519674866143}, {"current_trial": 174, "trialdata": {"rt": -1, "trial_type": "single-stim", "word": "smog", "stimulus": "<p id=\"stim\">SMOG</p>", "conditions": [24, 1600, "v", 24000], "internal_node_id": "0.0-120.0", "trial": 5, "time_elapsed": 964323, "serialpos": 1, "key_press": -1, "wordID": 1329, "type": "PRES_VIS", "trial_index": 174}, "uniqueid": "MTK3042:3TPZPLC3M1J3LDOT96WDDUJKKG93PZ", "dateTime": 1519674868644}, {"current_trial": 175, "trialdata": {"rt": -1, "trial_type": "single-stim", "word": "ox", "stimulus": "<p id=\"stim\">OX</p>", "conditions": [24, 1600, "v", 24000], "internal_node_id": "0.0-121.0", "trial": 5, "time_elapsed": 966888, "serialpos": 2, "key_press": -1, "wordID": 993, "type": "PRES_VIS", "trial_index": 175}, "uniqueid": "MTK3042:3TPZPLC3M1J3LDOT96WDDUJKKG93PZ", "dateTime": 1519674871209}, {"current_trial": 176, "trialdata": {"rt": -1, "trial_type": "single-stim", "word": "concert", "stimulus": "<p id=\"stim\">CONCERT</p>", "conditions": [24, 1600, "v", 24000], "internal_node_id": "0.0-122.0", "trial": 5, "time_elapsed": 969408, "serialpos": 3, "key_press": -1, "wordID": 359, "type": "PRES_VIS", "trial_index": 176}, "uniqueid": "MTK3042:3TPZPLC3M1J3LDOT96WDDUJKKG93PZ", "dateTime": 1519674873730}, {"current_trial": 177, "trialdata": {"rt": -1, "trial_type": "single-stim", "word": "outlaw", "stimulus": "<p id=\"stim\">OUTLAW</p>", "conditions": [24, 1600, "v", 24000], "internal_node_id": "0.0-123.0", "trial": 5, "time_elapsed": 971864, "serialpos": 4, "key_press": -1, "wordID": 988, "type": "PRES_VIS", "trial_index": 177}, "uniqueid": "MTK3042:3TPZPLC3M1J3LDOT96WDDUJKKG93PZ", "dateTime": 1519674876186}, {"current_trial": 178, "trialdata": {"rt": -1, "trial_type": "single-stim", "word": "coffee", "stimulus": "<p id=\"stim\">COFFEE</p>", "conditions": [24, 1600, "v", 24000], "internal_node_id": "0.0-124.0", "trial": 5, "time_elapsed": 974559, "serialpos": 5, "key_press": -1, "wordID": 340, "type": "PRES_VIS", "trial_index": 178}, "uniqueid": "MTK3042:3TPZPLC3M1J3LDOT96WDDUJKKG93PZ", "dateTime": 1519674878880}, {"current_trial": 179, "trialdata": {"rt": -1, "trial_type": "single-stim", "word": "soda", "stimulus": "<p id=\"stim\">SODA</p>", "conditions": [24, 1600, "v", 24000], "internal_node_id": "0.0-125.0", "trial": 5, "time_elapsed": 977307, "serialpos": 6, "key_press": -1, "wordID": 1340, "type": "PRES_VIS", "trial_index": 179}, "uniqueid": "MTK3042:3TPZPLC3M1J3LDOT96WDDUJKKG93PZ", "dateTime": 1519674881628}, {"current_trial": 180, "trialdata": {"rt": -1, "trial_type": "single-stim", "word": "expert", "stimulus": "<p id=\"stim\">EXPERT</p>", "conditions": [24, 1600, "v", 24000], "internal_node_id": "0.0-126.0", "trial": 5, "time_elapsed": 979821, "serialpos": 7, "key_press": -1, "wordID": 542, "type": "PRES_VIS", "trial_index": 180}, "uniqueid": "MTK3042:3TPZPLC3M1J3LDOT96WDDUJKKG93PZ", "dateTime": 1519674884142}, {"current_trial": 181, "trialdata": {"rt": -1, "trial_type": "single-stim", "word": "banker", "stimulus": "<p id=\"stim\">BANKER</p>", "conditions": [24, 1600, "v", 24000], "internal_node_id": "0.0-127.0", "trial": 5, "time_elapsed": 982257, "serialpos": 8, "key_press": -1, "wordID": 83, "type": "PRES_VIS", "trial_index": 181}, "uniqueid": "MTK3042:3TPZPLC3M1J3LDOT96WDDUJKKG93PZ", "dateTime": 1519674886578}, {"current_trial": 182, "trialdata": {"rt": -1, "trial_type": "single-stim", "word": "ozone", "stimulus": "<p id=\"stim\">OZONE</p>", "conditions": [24, 1600, "v", 24000], "internal_node_id": "0.0-128.0", "trial": 5, "time_elapsed": 984814, "serialpos": 9, "key_press": -1, "wordID": 995, "type": "PRES_VIS", "trial_index": 182}, "uniqueid": "MTK3042:3TPZPLC3M1J3LDOT96WDDUJKKG93PZ", "dateTime": 1519674889135}, {"current_trial": 183, "trialdata": {"rt": -1, "trial_type": "single-stim", "word": "jury", "stimulus": "<p id=\"stim\">JURY</p>", "conditions": [24, 1600, "v", 24000], "internal_node_id": "0.0-129.0", "trial": 5, "time_elapsed": 987531, "serialpos": 10, "key_press": -1, "wordID": 765, "type": "PRES_VIS", "trial_index": 183}, "uniqueid": "MTK3042:3TPZPLC3M1J3LDOT96WDDUJKKG93PZ", "dateTime": 1519674891852}, {"current_trial": 184, "trialdata": {"rt": -1, "trial_type": "single-stim", "word": "cowboy", "stimulus": "<p id=\"stim\">COWBOY</p>", "conditions": [24, 1600, "v", 24000], "internal_node_id": "0.0-130.0", "trial": 5, "time_elapsed": 989958, "serialpos": 11, "key_press": -1, "wordID": 394, "type": "PRES_VIS", "trial_index": 184}, "uniqueid": "MTK3042:3TPZPLC3M1J3LDOT96WDDUJKKG93PZ", "dateTime": 1519674894279}, {"current_trial": 185, "trialdata": {"rt": -1, "trial_type": "single-stim", "word": "tunnel", "stimulus": "<p id=\"stim\">TUNNEL</p>", "conditions": [24, 1600, "v", 24000], "internal_node_id": "0.0-131.0", "trial": 5, "time_elapsed": 992459, "serialpos": 12, "key_press": -1, "wordID": 1518, "type": "PRES_VIS", "trial_index": 185}, "uniqueid": "MTK3042:3TPZPLC3M1J3LDOT96WDDUJKKG93PZ", "dateTime": 1519674896780}, {"current_trial": 186, "trialdata": {"rt": -1, "trial_type": "single-stim", "word": "sculpture", "stimulus": "<p id=\"stim\">SCULPTURE</p>", "conditions": [24, 1600, "v", 24000], "internal_node_id": "0.0-132.0", "trial": 5, "time_elapsed": 994948, "serialpos": 13, "key_press": -1, "wordID": 1257, "type": "PRES_VIS", "trial_index": 186}, "uniqueid": "MTK3042:3TPZPLC3M1J3LDOT96WDDUJKKG93PZ", "dateTime": 1519674899270}, {"current_trial": 187, "trialdata": {"rt": -1, "trial_type": "single-stim", "word": "kleenex", "stimulus": "<p id=\"stim\">KLEENEX</p>", "conditions": [24, 1600, "v", 24000], "internal_node_id": "0.0-133.0", "trial": 5, "time_elapsed": 997448, "serialpos": 14, "key_press": -1, "wordID": 781, "type": "PRES_VIS", "trial_index": 187}, "uniqueid": "MTK3042:3TPZPLC3M1J3LDOT96WDDUJKKG93PZ", "dateTime": 1519674901770}, {"current_trial": 188, "trialdata": {"rt": -1, "trial_type": "single-stim", "word": "window", "stimulus": "<p id=\"stim\">WINDOW</p>", "conditions": [24, 1600, "v", 24000], "internal_node_id": "0.0-134.0", "trial": 5, "time_elapsed": 999930, "serialpos": 15, "key_press": -1, "wordID": 1610, "type": "PRES_VIS", "trial_index": 188}, "uniqueid": "MTK3042:3TPZPLC3M1J3LDOT96WDDUJKKG93PZ", "dateTime": 1519674904251}, {"current_trial": 189, "trialdata": {"rt": -1, "trial_type": "single-stim", "word": "blade", "stimulus": "<p id=\"stim\">BLADE</p>", "conditions": [24, 1600, "v", 24000], "internal_node_id": "0.0-135.0", "trial": 5, "time_elapsed": 1002419, "serialpos": 16, "key_press": -1, "wordID": 133, "type": "PRES_VIS", "trial_index": 189}, "uniqueid": "MTK3042:3TPZPLC3M1J3LDOT96WDDUJKKG93PZ", "dateTime": 1519674906740}, {"current_trial": 190, "trialdata": {"rt": -1, "trial_type": "single-stim", "word": "waitress", "stimulus": "<p id=\"stim\">WAITRESS</p>", "conditions": [24, 1600, "v", 24000], "internal_node_id": "0.0-136.0", "trial": 5, "time_elapsed": 1005041, "serialpos": 17, "key_press": -1, "wordID": 1580, "type": "PRES_VIS", "trial_index": 190}, "uniqueid": "MTK3042:3TPZPLC3M1J3LDOT96WDDUJKKG93PZ", "dateTime": 1519674909362}, {"current_trial": 191, "trialdata": {"rt": -1, "trial_type": "single-stim", "word": "jello", "stimulus": "<p id=\"stim\">JELLO</p>", "conditions": [24, 1600, "v", 24000], "internal_node_id": "0.0-137.0", "trial": 5, "time_elapsed": 1007629, "serialpos": 18, "key_press": -1, "wordID": 753, "type": "PRES_VIS", "trial_index": 191}, "uniqueid": "MTK3042:3TPZPLC3M1J3LDOT96WDDUJKKG93PZ", "dateTime": 1519674911950}, {"current_trial": 192, "trialdata": {"rt": -1, "trial_type": "single-stim", "word": "dancer", "stimulus": "<p id=\"stim\">DANCER</p>", "conditions": [24, 1600, "v", 24000], "internal_node_id": "0.0-138.0", "trial": 5, "time_elapsed": 1010039, "serialpos": 19, "key_press": -1, "wordID": 436, "type": "PRES_VIS", "trial_index": 192}, "uniqueid": "MTK3042:3TPZPLC3M1J3LDOT96WDDUJKKG93PZ", "dateTime": 1519674914360}, {"current_trial": 193, "trialdata": {"rt": -1, "trial_type": "single-stim", "word": "waiter", "stimulus": "<p id=\"stim\">WAITER</p>", "conditions": [24, 1600, "v", 24000], "internal_node_id": "0.0-139.0", "trial": 5, "time_elapsed": 1012470, "serialpos": 20, "key_press": -1, "wordID": 1579, "type": "PRES_VIS", "trial_index": 193}, "uniqueid": "MTK3042:3TPZPLC3M1J3LDOT96WDDUJKKG93PZ", "dateTime": 1519674916791}, {"current_trial": 194, "trialdata": {"rt": -1, "trial_type": "single-stim", "word": "citrus", "stimulus": "<p id=\"stim\">CITRUS</p>", "conditions": [24, 1600, "v", 24000], "internal_node_id": "0.0-140.0", "trial": 5, "time_elapsed": 1014898, "serialpos": 21, "key_press": -1, "wordID": 312, "type": "PRES_VIS", "trial_index": 194}, "uniqueid": "MTK3042:3TPZPLC3M1J3LDOT96WDDUJKKG93PZ", "dateTime": 1519674919219}, {"current_trial": 195, "trialdata": {"rt": -1, "trial_type": "single-stim", "word": "husband", "stimulus": "<p id=\"stim\">HUSBAND</p>", "conditions": [24, 1600, "v", 24000], "internal_node_id": "0.0-141.0", "trial": 5, "time_elapsed": 1017440, "serialpos": 22, "key_press": -1, "wordID": 727, "type": "PRES_VIS", "trial_index": 195}, "uniqueid": "MTK3042:3TPZPLC3M1J3LDOT96WDDUJKKG93PZ", "dateTime": 1519674921762}, {"current_trial": 196, "trialdata": {"rt": -1, "trial_type": "single-stim", "word": "cousin", "stimulus": "<p id=\"stim\">COUSIN</p>", "conditions": [24, 1600, "v", 24000], "internal_node_id": "0.0-142.0", "trial": 5, "time_elapsed": 1020081, "serialpos": 23, "key_press": -1, "wordID": 391, "type": "PRES_VIS", "trial_index": 196}, "uniqueid": "MTK3042:3TPZPLC3M1J3LDOT96WDDUJKKG93PZ", "dateTime": 1519674924403}, {"current_trial": 197, "trialdata": {"rt": -1, "trial_type": "single-stim", "stimulus": "", "internal_node_id": "0.0-143.0-0.0", "time_elapsed": 1022447, "key_press": -1, "type": "PRE_RECALL_DELAY", "trial_index": 197}, "uniqueid": "MTK3042:3TPZPLC3M1J3LDOT96WDDUJKKG93PZ", "dateTime": 1519674926770}, {"current_trial": 198, "trialdata": {"rt": -1000, "trial_type": "single-audio", "stimulus": "/static/audio/400Hz.wav", "internal_node_id": "0.0-144.0", "time_elapsed": 1022952, "key_press": -1, "type": "PRE_RECALL_ALERT", "trial_index": 198}, "uniqueid": "MTK3042:3TPZPLC3M1J3LDOT96WDDUJKKG93PZ", "dateTime": 1519674927275}, {"current_trial": 199, "trialdata": {"rt": [2443, 4772, 6038, 8591, 10689, 14903, 31646], "recwords": ["cousin", "husband", "ox", "kleenex", "waitress", "blade", "outlaw"], "key_times": [1016, 1200, 1373, 1532, 1790, 1891, 2443, 3103, 3266, 3368, 3656, 3787, 3947, 4169, 4772, 5542, 5741, 6038, 6771, 6868, 7023, 7161, 7342, 7400, 7648, 8591, 9199, 9331, 9688, 9833, 10003, 10089, 10279, 10455, 10689, 14009, 14185, 14353, 14512, 14613, 14903, 30599, 30769, 30928, 31100, 31227, 31461, 31646], "trial_type": "free-recall", "conditions": [24, 1600, "v", 24000], "internal_node_id": "0.0-145.0-0.0", "key_presses": [67, 79, 85, 83, 73, 78, 13, 72, 85, 83, 66, 65, 78, 68, 13, 79, 88, 13, 75, 76, 69, 69, 78, 69, 88, 13, 87, 65, 73, 84, 82, 69, 83, 83, 13, 66, 76, 65, 68, 69, 13, 79, 85, 84, 76, 65, 87, 13], "trial": 5, "time_elapsed": 1082958, "type": "FREE_RECALL", "trial_index": 199}, "uniqueid": "MTK3042:3TPZPLC3M1J3LDOT96WDDUJKKG93PZ", "dateTime": 1519674987287}, {"current_trial": 200, "trialdata": {"rt": 21871, "trial_type": "text", "internal_node_id": "0.0-146.0", "time_elapsed": 1106838, "key_press": 13, "type": "INSTRUCTIONS", "trial_index": 200}, "uniqueid": "MTK3042:3TPZPLC3M1J3LDOT96WDDUJKKG93PZ", "dateTime": 1519675011160}, {"current_trial": 201, "trialdata": {"rt": [6651, 11793], "trial_type": "math-distractor", "key_times": [6329, 6438, 6651, 11405, 11526, 11793], "responses": ["20", "16"], "num2": [9, 5, 7], "num3": [3, 3, 4], "conditions": [24, 1600, "v", 12000], "internal_node_id": "0.0-147.0", "key_presses": [98, 96, 13, 97, 102, 13], "trial": 6, "time_elapsed": 1120846, "type": "DISTRACTOR", "trial_index": 201, "num1": [8, 8, 6]}, "uniqueid": "MTK3042:3TPZPLC3M1J3LDOT96WDDUJKKG93PZ", "dateTime": 1519675025167}, {"current_trial": 202, "trialdata": {"rt": -1, "trial_type": "single-stim", "stimulus": "<p id=\"stim\">10</p>", "internal_node_id": "0.0-148.0-0.0", "time_elapsed": 1123848, "key_press": -1, "trial_index": 202}, "uniqueid": "MTK3042:3TPZPLC3M1J3LDOT96WDDUJKKG93PZ", "dateTime": 1519675028170}, {"current_trial": 203, "trialdata": {"rt": -1, "trial_type": "single-stim", "stimulus": "<p id=\"stim\">9</p>", "internal_node_id": "0.0-148.0-1.0", "time_elapsed": 1124850, "key_press": -1, "trial_index": 203}, "uniqueid": "MTK3042:3TPZPLC3M1J3LDOT96WDDUJKKG93PZ", "dateTime": 1519675029171}, {"current_trial": 204, "trialdata": {"rt": -1, "trial_type": "single-stim", "stimulus": "<p id=\"stim\">8</p>", "internal_node_id": "0.0-148.0-2.0", "time_elapsed": 1125853, "key_press": -1, "trial_index": 204}, "uniqueid": "MTK3042:3TPZPLC3M1J3LDOT96WDDUJKKG93PZ", "dateTime": 1519675030174}, {"current_trial": 205, "trialdata": {"rt": -1, "trial_type": "single-stim", "stimulus": "<p id=\"stim\">7</p>", "internal_node_id": "0.0-148.0-3.0", "time_elapsed": 1126859, "key_press": -1, "trial_index": 205}, "uniqueid": "MTK3042:3TPZPLC3M1J3LDOT96WDDUJKKG93PZ", "dateTime": 1519675031180}, {"current_trial": 206, "trialdata": {"rt": -1, "trial_type": "single-stim", "stimulus": "<p id=\"stim\">6</p>", "internal_node_id": "0.0-148.0-4.0", "time_elapsed": 1127862, "key_press": -1, "trial_index": 206}, "uniqueid": "MTK3042:3TPZPLC3M1J3LDOT96WDDUJKKG93PZ", "dateTime": 1519675032183}, {"current_trial": 207, "trialdata": {"rt": -1, "trial_type": "single-stim", "stimulus": "<p id=\"stim\">5</p>", "internal_node_id": "0.0-148.0-5.0", "time_elapsed": 1128864, "key_press": -1, "trial_index": 207}, "uniqueid": "MTK3042:3TPZPLC3M1J3LDOT96WDDUJKKG93PZ", "dateTime": 1519675033185}, {"current_trial": 208, "trialdata": {"rt": -1, "trial_type": "single-stim", "stimulus": "<p id=\"stim\">4</p>", "internal_node_id": "0.0-148.0-6.0", "time_elapsed": 1129867, "key_press": -1, "trial_index": 208}, "uniqueid": "MTK3042:3TPZPLC3M1J3LDOT96WDDUJKKG93PZ", "dateTime": 1519675034188}, {"current_trial": 209, "trialdata": {"rt": -1, "trial_type": "single-stim", "stimulus": "<p id=\"stim\">3</p>", "internal_node_id": "0.0-148.0-7.0", "time_elapsed": 1130869, "key_press": -1, "trial_index": 209}, "uniqueid": "MTK3042:3TPZPLC3M1J3LDOT96WDDUJKKG93PZ", "dateTime": 1519675035190}, {"current_trial": 210, "trialdata": {"rt": -1, "trial_type": "single-stim", "stimulus": "<p id=\"stim\">2</p>", "internal_node_id": "0.0-148.0-8.0", "time_elapsed": 1131872, "key_press": -1, "trial_index": 210}, "uniqueid": "MTK3042:3TPZPLC3M1J3LDOT96WDDUJKKG93PZ", "dateTime": 1519675036193}, {"current_trial": 211, "trialdata": {"rt": -1, "trial_type": "single-stim", "stimulus": "<p id=\"stim\">1</p>", "internal_node_id": "0.0-148.0-9.0", "time_elapsed": 1132877, "key_press": -1, "trial_index": 211}, "uniqueid": "MTK3042:3TPZPLC3M1J3LDOT96WDDUJKKG93PZ", "dateTime": 1519675037198}, {"current_trial": 212, "trialdata": {"rt": -1, "trial_type": "single-stim", "stimulus": "<p id=\"stim\">+</p>", "internal_node_id": "0.0-149.0-0.0", "time_elapsed": 1134382, "key_press": -1, "type": "FIXATION", "trial_index": 212}, "uniqueid": "MTK3042:3TPZPLC3M1J3LDOT96WDDUJKKG93PZ", "dateTime": 1519675038703}, {"current_trial": 213, "trialdata": {"rt": -1, "trial_type": "single-stim", "word": "lover", "stimulus": "<p id=\"stim\">LOVER</p>", "conditions": [24, 1600, "v", 12000], "internal_node_id": "0.0-150.0", "trial": 6, "time_elapsed": 1135985, "serialpos": 0, "key_press": -1, "wordID": 845, "type": "PRES_VIS", "trial_index": 213}, "uniqueid": "MTK3042:3TPZPLC3M1J3LDOT96WDDUJKKG93PZ", "dateTime": 1519675040306}, {"current_trial": 214, "trialdata": {"rt": -1, "trial_type": "single-stim", "word": "gymnast", "stimulus": "<p id=\"stim\">GYMNAST</p>", "conditions": [24, 1600, "v", 12000], "internal_node_id": "0.0-151.0", "trial": 6, "time_elapsed": 1138669, "serialpos": 1, "key_press": -1, "wordID": 674, "type": "PRES_VIS", "trial_index": 214}, "uniqueid": "MTK3042:3TPZPLC3M1J3LDOT96WDDUJKKG93PZ", "dateTime": 1519675042991}, {"current_trial": 215, "trialdata": {"rt": -1, "trial_type": "single-stim", "word": "carrot", "stimulus": "<p id=\"stim\">CARROT</p>", "conditions": [24, 1600, "v", 12000], "internal_node_id": "0.0-152.0", "trial": 6, "time_elapsed": 1141126, "serialpos": 2, "key_press": -1, "wordID": 248, "type": "PRES_VIS", "trial_index": 215}, "uniqueid": "MTK3042:3TPZPLC3M1J3LDOT96WDDUJKKG93PZ", "dateTime": 1519675045447}, {"current_trial": 216, "trialdata": {"rt": -1, "trial_type": "single-stim", "word": "treat", "stimulus": "<p id=\"stim\">TREAT</p>", "conditions": [24, 1600, "v", 12000], "internal_node_id": "0.0-153.0", "trial": 6, "time_elapsed": 1143757, "serialpos": 3, "key_press": -1, "wordID": 1500, "type": "PRES_VIS", "trial_index": 216}, "uniqueid": "MTK3042:3TPZPLC3M1J3LDOT96WDDUJKKG93PZ", "dateTime": 1519675048078}, {"current_trial": 217, "trialdata": {"rt": -1, "trial_type": "single-stim", "word": "dragon", "stimulus": "<p id=\"stim\">DRAGON</p>", "conditions": [24, 1600, "v", 12000], "internal_node_id": "0.0-154.0", "trial": 6, "time_elapsed": 1146480, "serialpos": 4, "key_press": -1, "wordID": 491, "type": "PRES_VIS", "trial_index": 217}, "uniqueid": "MTK3042:3TPZPLC3M1J3LDOT96WDDUJKKG93PZ", "dateTime": 1519675050801}, {"current_trial": 218, "trialdata": {"rt": -1, "trial_type": "single-stim", "word": "survey", "stimulus": "<p id=\"stim\">SURVEY</p>", "conditions": [24, 1600, "v", 12000], "internal_node_id": "0.0-155.0", "trial": 6, "time_elapsed": 1149172, "serialpos": 5, "key_press": -1, "wordID": 1413, "type": "PRES_VIS", "trial_index": 218}, "uniqueid": "MTK3042:3TPZPLC3M1J3LDOT96WDDUJKKG93PZ", "dateTime": 1519675053493}, {"current_trial": 219, "trialdata": {"rt": -1, "trial_type": "single-stim", "word": "report", "stimulus": "<p id=\"stim\">REPORT</p>", "conditions": [24, 1600, "v", 12000], "internal_node_id": "0.0-156.0", "trial": 6, "time_elapsed": 1151578, "serialpos": 6, "key_press": -1, "wordID": 1183, "type": "PRES_VIS", "trial_index": 219}, "uniqueid": "MTK3042:3TPZPLC3M1J3LDOT96WDDUJKKG93PZ", "dateTime": 1519675055900}, {"current_trial": 220, "trialdata": {"rt": -1, "trial_type": "single-stim", "word": "orange", "stimulus": "<p id=\"stim\">ORANGE</p>", "conditions": [24, 1600, "v", 12000], "internal_node_id": "0.0-157.0", "trial": 6, "time_elapsed": 1154082, "serialpos": 7, "key_press": -1, "wordID": 979, "type": "PRES_VIS", "trial_index": 220}, "uniqueid": "MTK3042:3TPZPLC3M1J3LDOT96WDDUJKKG93PZ", "dateTime": 1519675058404}, {"current_trial": 221, "trialdata": {"rt": -1, "trial_type": "single-stim", "word": "asia", "stimulus": "<p id=\"stim\">ASIA</p>", "conditions": [24, 1600, "v", 12000], "internal_node_id": "0.0-158.0", "trial": 6, "time_elapsed": 1156787, "serialpos": 8, "key_press": -1, "wordID": 45, "type": "PRES_VIS", "trial_index": 221}, "uniqueid": "MTK3042:3TPZPLC3M1J3LDOT96WDDUJKKG93PZ", "dateTime": 1519675061108}, {"current_trial": 222, "trialdata": {"rt": -1, "trial_type": "single-stim", "word": "barley", "stimulus": "<p id=\"stim\">BARLEY</p>", "conditions": [24, 1600, "v", 12000], "internal_node_id": "0.0-159.0", "trial": 6, "time_elapsed": 1159243, "serialpos": 9, "key_press": -1, "wordID": 87, "type": "PRES_VIS", "trial_index": 222}, "uniqueid": "MTK3042:3TPZPLC3M1J3LDOT96WDDUJKKG93PZ", "dateTime": 1519675063564}, {"current_trial": 223, "trialdata": {"rt": -1, "trial_type": "single-stim", "word": "goblin", "stimulus": "<p id=\"stim\">GOBLIN</p>", "conditions": [24, 1600, "v", 12000], "internal_node_id": "0.0-160.0", "trial": 6, "time_elapsed": 1162001, "serialpos": 10, "key_press": -1, "wordID": 644, "type": "PRES_VIS", "trial_index": 223}, "uniqueid": "MTK3042:3TPZPLC3M1J3LDOT96WDDUJKKG93PZ", "dateTime": 1519675066322}, {"current_trial": 224, "trialdata": {"rt": -1, "trial_type": "single-stim", "word": "snack", "stimulus": "<p id=\"stim\">SNACK</p>", "conditions": [24, 1600, "v", 12000], "internal_node_id": "0.0-161.0", "trial": 6, "time_elapsed": 1164600, "serialpos": 11, "key_press": -1, "wordID": 1330, "type": "PRES_VIS", "trial_index": 224}, "uniqueid": "MTK3042:3TPZPLC3M1J3LDOT96WDDUJKKG93PZ", "dateTime": 1519675068926}, {"current_trial": 225, "trialdata": {"rt": -1, "trial_type": "single-stim", "word": "scissors", "stimulus": "<p id=\"stim\">SCISSORS</p>", "conditions": [24, 1600, "v", 12000], "internal_node_id": "0.0-162.0", "trial": 6, "time_elapsed": 1167386, "serialpos": 12, "key_press": -1, "wordID": 1249, "type": "PRES_VIS", "trial_index": 225}, "uniqueid": "MTK3042:3TPZPLC3M1J3LDOT96WDDUJKKG93PZ", "dateTime": 1519675071707}, {"current_trial": 226, "trialdata": {"rt": -1, "trial_type": "single-stim", "word": "pliers", "stimulus": "<p id=\"stim\">PLIERS</p>", "conditions": [24, 1600, "v", 12000], "internal_node_id": "0.0-163.0", "trial": 6, "time_elapsed": 1169928, "serialpos": 13, "key_press": -1, "wordID": 1088, "type": "PRES_VIS", "trial_index": 226}, "uniqueid": "MTK3042:3TPZPLC3M1J3LDOT96WDDUJKKG93PZ", "dateTime": 1519675074250}, {"current_trial": 227, "trialdata": {"rt": -1, "trial_type": "single-stim", "word": "chest", "stimulus": "<p id=\"stim\">CHEST</p>", "conditions": [24, 1600, "v", 12000], "internal_node_id": "0.0-164.0", "trial": 6, "time_elapsed": 1172645, "serialpos": 14, "key_press": -1, "wordID": 294, "type": "PRES_VIS", "trial_index": 227}, "uniqueid": "MTK3042:3TPZPLC3M1J3LDOT96WDDUJKKG93PZ", "dateTime": 1519675076966}, {"current_trial": 228, "trialdata": {"rt": -1, "trial_type": "single-stim", "word": "shelf", "stimulus": "<p id=\"stim\">SHELF</p>", "conditions": [24, 1600, "v", 12000], "internal_node_id": "0.0-165.0", "trial": 6, "time_elapsed": 1175335, "serialpos": 15, "key_press": -1, "wordID": 1279, "type": "PRES_VIS", "trial_index": 228}, "uniqueid": "MTK3042:3TPZPLC3M1J3LDOT96WDDUJKKG93PZ", "dateTime": 1519675079657}, {"current_trial": 229, "trialdata": {"rt": -1, "trial_type": "single-stim", "word": "iceberg", "stimulus": "<p id=\"stim\">ICEBERG</p>", "conditions": [24, 1600, "v", 12000], "internal_node_id": "0.0-166.0", "trial": 6, "time_elapsed": 1177982, "serialpos": 16, "key_press": -1, "wordID": 730, "type": "PRES_VIS", "trial_index": 229}, "uniqueid": "MTK3042:3TPZPLC3M1J3LDOT96WDDUJKKG93PZ", "dateTime": 1519675082303}, {"current_trial": 230, "trialdata": {"rt": -1, "trial_type": "single-stim", "word": "palace", "stimulus": "<p id=\"stim\">PALACE</p>", "conditions": [24, 1600, "v", 12000], "internal_node_id": "0.0-167.0", "trial": 6, "time_elapsed": 1180643, "serialpos": 17, "key_press": -1, "wordID": 1005, "type": "PRES_VIS", "trial_index": 230}, "uniqueid": "MTK3042:3TPZPLC3M1J3LDOT96WDDUJKKG93PZ", "dateTime": 1519675084964}, {"current_trial": 231, "trialdata": {"rt": -1, "trial_type": "single-stim", "word": "creature", "stimulus": "<p id=\"stim\">CREATURE</p>", "conditions": [24, 1600, "v", 12000], "internal_node_id": "0.0-168.0", "trial": 6, "time_elapsed": 1183321, "serialpos": 18, "key_press": -1, "wordID": 402, "type": "PRES_VIS", "trial_index": 231}, "uniqueid": "MTK3042:3TPZPLC3M1J3LDOT96WDDUJKKG93PZ", "dateTime": 1519675087642}, {"current_trial": 232, "trialdata": {"rt": -1, "trial_type": "single-stim", "word": "hamper", "stimulus": "<p id=\"stim\">HAMPER</p>", "conditions": [24, 1600, "v", 12000], "internal_node_id": "0.0-169.0", "trial": 6, "time_elapsed": 1185910, "serialpos": 19, "key_press": -1, "wordID": 681, "type": "PRES_VIS", "trial_index": 232}, "uniqueid": "MTK3042:3TPZPLC3M1J3LDOT96WDDUJKKG93PZ", "dateTime": 1519675090231}, {"current_trial": 233, "trialdata": {"rt": -1, "trial_type": "single-stim", "word": "notebook", "stimulus": "<p id=\"stim\">NOTEBOOK</p>", "conditions": [24, 1600, "v", 12000], "internal_node_id": "0.0-170.0", "trial": 6, "time_elapsed": 1188473, "serialpos": 20, "key_press": -1, "wordID": 958, "type": "PRES_VIS", "trial_index": 233}, "uniqueid": "MTK3042:3TPZPLC3M1J3LDOT96WDDUJKKG93PZ", "dateTime": 1519675092794}, {"current_trial": 234, "trialdata": {"rt": -1, "trial_type": "single-stim", "word": "highway", "stimulus": "<p id=\"stim\">HIGHWAY</p>", "conditions": [24, 1600, "v", 12000], "internal_node_id": "0.0-171.0", "trial": 6, "time_elapsed": 1191148, "serialpos": 21, "key_press": -1, "wordID": 706, "type": "PRES_VIS", "trial_index": 234}, "uniqueid": "MTK3042:3TPZPLC3M1J3LDOT96WDDUJKKG93PZ", "dateTime": 1519675095469}, {"current_trial": 235, "trialdata": {"rt": -1, "trial_type": "single-stim", "word": "nightgown", "stimulus": "<p id=\"stim\">NIGHTGOWN</p>", "conditions": [24, 1600, "v", 12000], "internal_node_id": "0.0-172.0", "trial": 6, "time_elapsed": 1193692, "serialpos": 22, "key_press": -1, "wordID": 952, "type": "PRES_VIS", "trial_index": 235}, "uniqueid": "MTK3042:3TPZPLC3M1J3LDOT96WDDUJKKG93PZ", "dateTime": 1519675098013}, {"current_trial": 236, "trialdata": {"rt": -1, "trial_type": "single-stim", "word": "mammal", "stimulus": "<p id=\"stim\">MAMMAL</p>", "conditions": [24, 1600, "v", 12000], "internal_node_id": "0.0-173.0", "trial": 6, "time_elapsed": 1196204, "serialpos": 23, "key_press": -1, "wordID": 860, "type": "PRES_VIS", "trial_index": 236}, "uniqueid": "MTK3042:3TPZPLC3M1J3LDOT96WDDUJKKG93PZ", "dateTime": 1519675100526}, {"current_trial": 237, "trialdata": {"rt": -1, "trial_type": "single-stim", "stimulus": "", "internal_node_id": "0.0-174.0-0.0", "time_elapsed": 1198442, "key_press": -1, "type": "PRE_RECALL_DELAY", "trial_index": 237}, "uniqueid": "MTK3042:3TPZPLC3M1J3LDOT96WDDUJKKG93PZ", "dateTime": 1519675102763}, {"current_trial": 238, "trialdata": {"rt": -1000, "trial_type": "single-audio", "stimulus": "/static/audio/400Hz.wav", "internal_node_id": "0.0-175.0", "time_elapsed": 1198946, "key_press": -1, "type": "PRE_RECALL_ALERT", "trial_index": 238}, "uniqueid": "MTK3042:3TPZPLC3M1J3LDOT96WDDUJKKG93PZ", "dateTime": 1519675103267}, {"current_trial": 239, "trialdata": {"rt": [3316, 7158, 9308, 11619, 13984, 16089, 17599], "recwords": ["mammal", "nightglow", "iceberg", "palace", "notebook", "highway", "lover"], "key_times": [1310, 1420, 1615, 1792, 2394, 2580, 3316, 4292, 4436, 4695, 4822, 4927, 5383, 5595, 5798, 5906, 7158, 8364, 8498, 8562, 8659, 8764, 8897, 9118, 9308, 9926, 10058, 10219, 10354, 10548, 10689, 11619, 12744, 12842, 12985, 13049, 13244, 13363, 13528, 13641, 13984, 14740, 14829, 14926, 15058, 15275, 15381, 15507, 16089, 16777, 16951, 17051, 17246, 17372, 17599], "trial_type": "free-recall", "conditions": [24, 1600, "v", 12000], "internal_node_id": "0.0-176.0-0.0", "key_presses": [77, 65, 77, 77, 65, 76, 13, 78, 73, 71, 72, 84, 71, 76, 79, 87, 13, 73, 67, 69, 66, 69, 82, 71, 13, 80, 65, 76, 65, 67, 69, 13, 78, 79, 84, 69, 66, 79, 79, 75, 13, 72, 73, 71, 72, 87, 65, 89, 13, 76, 79, 86, 69, 82, 13], "trial": 6, "time_elapsed": 1258956, "type": "FREE_RECALL", "trial_index": 239}, "uniqueid": "MTK3042:3TPZPLC3M1J3LDOT96WDDUJKKG93PZ", "dateTime": 1519675163286}, {"current_trial": 240, "trialdata": {"rt": 926, "trial_type": "text", "internal_node_id": "0.0-177.0", "time_elapsed": 1261893, "key_press": 13, "type": "INSTRUCTIONS", "trial_index": 240}, "uniqueid": "MTK3042:3TPZPLC3M1J3LDOT96WDDUJKKG93PZ", "dateTime": 1519675166214}, {"current_trial": 241, "trialdata": {"rt": [4927, 11909], "trial_type": "math-distractor", "key_times": [4479, 4607, 4927, 11585, 11636, 11909], "responses": ["13", "15"], "num2": [8, 3, 2], "num3": [1, 8, 2], "conditions": [12, 800, "v", 12000], "internal_node_id": "0.0-178.0", "key_presses": [97, 99, 13, 97, 101, 13], "trial": 7, "time_elapsed": 1275898, "type": "DISTRACTOR", "trial_index": 241, "num1": [4, 4, 9]}, "uniqueid": "MTK3042:3TPZPLC3M1J3LDOT96WDDUJKKG93PZ", "dateTime": 1519675180219}, {"current_trial": 242, "trialdata": {"rt": -1, "trial_type": "single-stim", "stimulus": "<p id=\"stim\">10</p>", "internal_node_id": "0.0-179.0-0.0", "time_elapsed": 1278900, "key_press": -1, "trial_index": 242}, "uniqueid": "MTK3042:3TPZPLC3M1J3LDOT96WDDUJKKG93PZ", "dateTime": 1519675183221}, {"current_trial": 243, "trialdata": {"rt": -1, "trial_type": "single-stim", "stimulus": "<p id=\"stim\">9</p>", "internal_node_id": "0.0-179.0-1.0", "time_elapsed": 1279901, "key_press": -1, "trial_index": 243}, "uniqueid": "MTK3042:3TPZPLC3M1J3LDOT96WDDUJKKG93PZ", "dateTime": 1519675184222}, {"current_trial": 244, "trialdata": {"rt": -1, "trial_type": "single-stim", "stimulus": "<p id=\"stim\">8</p>", "internal_node_id": "0.0-179.0-2.0", "time_elapsed": 1280909, "key_press": -1, "trial_index": 244}, "uniqueid": "MTK3042:3TPZPLC3M1J3LDOT96WDDUJKKG93PZ", "dateTime": 1519675185230}, {"current_trial": 245, "trialdata": {"rt": -1, "trial_type": "single-stim", "stimulus": "<p id=\"stim\">7</p>", "internal_node_id": "0.0-179.0-3.0", "time_elapsed": 1281916, "key_press": -1, "trial_index": 245}, "uniqueid": "MTK3042:3TPZPLC3M1J3LDOT96WDDUJKKG93PZ", "dateTime": 1519675186238}, {"current_trial": 246, "trialdata": {"rt": -1, "trial_type": "single-stim", "stimulus": "<p id=\"stim\">6</p>", "internal_node_id": "0.0-179.0-4.0", "time_elapsed": 1282919, "key_press": -1, "trial_index": 246}, "uniqueid": "MTK3042:3TPZPLC3M1J3LDOT96WDDUJKKG93PZ", "dateTime": 1519675187240}, {"current_trial": 247, "trialdata": {"rt": -1, "trial_type": "single-stim", "stimulus": "<p id=\"stim\">5</p>", "internal_node_id": "0.0-179.0-5.0", "time_elapsed": 1283923, "key_press": -1, "trial_index": 247}, "uniqueid": "MTK3042:3TPZPLC3M1J3LDOT96WDDUJKKG93PZ", "dateTime": 1519675188245}, {"current_trial": 248, "trialdata": {"rt": -1, "trial_type": "single-stim", "stimulus": "<p id=\"stim\">4</p>", "internal_node_id": "0.0-179.0-6.0", "time_elapsed": 1284940, "key_press": -1, "trial_index": 248}, "uniqueid": "MTK3042:3TPZPLC3M1J3LDOT96WDDUJKKG93PZ", "dateTime": 1519675189261}, {"current_trial": 249, "trialdata": {"rt": -1, "trial_type": "single-stim", "stimulus": "<p id=\"stim\">3</p>", "internal_node_id": "0.0-179.0-7.0", "time_elapsed": 1285943, "key_press": -1, "trial_index": 249}, "uniqueid": "MTK3042:3TPZPLC3M1J3LDOT96WDDUJKKG93PZ", "dateTime": 1519675190265}, {"current_trial": 250, "trialdata": {"rt": -1, "trial_type": "single-stim", "stimulus": "<p id=\"stim\">2</p>", "internal_node_id": "0.0-179.0-8.0", "time_elapsed": 1286950, "key_press": -1, "trial_index": 250}, "uniqueid": "MTK3042:3TPZPLC3M1J3LDOT96WDDUJKKG93PZ", "dateTime": 1519675191271}, {"current_trial": 251, "trialdata": {"rt": -1, "trial_type": "single-stim", "stimulus": "<p id=\"stim\">1</p>", "internal_node_id": "0.0-179.0-9.0", "time_elapsed": 1287951, "key_press": -1, "trial_index": 251}, "uniqueid": "MTK3042:3TPZPLC3M1J3LDOT96WDDUJKKG93PZ", "dateTime": 1519675192273}, {"current_trial": 252, "trialdata": {"rt": -1, "trial_type": "single-stim", "stimulus": "<p id=\"stim\">+</p>", "internal_node_id": "0.0-180.0-0.0", "time_elapsed": 1289456, "key_press": -1, "type": "FIXATION", "trial_index": 252}, "uniqueid": "MTK3042:3TPZPLC3M1J3LDOT96WDDUJKKG93PZ", "dateTime": 1519675193777}, {"current_trial": 253, "trialdata": {"rt": -1, "trial_type": "single-stim", "word": "pluto", "stimulus": "<p id=\"stim\">PLUTO</p>", "conditions": [12, 800, "v", 12000], "internal_node_id": "0.0-181.0", "trial": 7, "time_elapsed": 1290264, "serialpos": 0, "key_press": -1, "wordID": 1091, "type": "PRES_VIS", "trial_index": 253}, "uniqueid": "MTK3042:3TPZPLC3M1J3LDOT96WDDUJKKG93PZ", "dateTime": 1519675194586}, {"current_trial": 254, "trialdata": {"rt": -1, "trial_type": "single-stim", "word": "basement", "stimulus": "<p id=\"stim\">BASEMENT</p>", "conditions": [12, 800, "v", 12000], "internal_node_id": "0.0-182.0", "trial": 7, "time_elapsed": 1292026, "serialpos": 1, "key_press": -1, "wordID": 93, "type": "PRES_VIS", "trial_index": 254}, "uniqueid": "MTK3042:3TPZPLC3M1J3LDOT96WDDUJKKG93PZ", "dateTime": 1519675196347}, {"current_trial": 255, "trialdata": {"rt": -1, "trial_type": "single-stim", "word": "slope", "stimulus": "<p id=\"stim\">SLOPE</p>", "conditions": [12, 800, "v", 12000], "internal_node_id": "0.0-183.0", "trial": 7, "time_elapsed": 1293900, "serialpos": 2, "key_press": -1, "wordID": 1327, "type": "PRES_VIS", "trial_index": 255}, "uniqueid": "MTK3042:3TPZPLC3M1J3LDOT96WDDUJKKG93PZ", "dateTime": 1519675198221}, {"current_trial": 256, "trialdata": {"rt": -1, "trial_type": "single-stim", "word": "ghetto", "stimulus": "<p id=\"stim\">GHETTO</p>", "conditions": [12, 800, "v", 12000], "internal_node_id": "0.0-184.0", "trial": 7, "time_elapsed": 1295512, "serialpos": 3, "key_press": -1, "wordID": 632, "type": "PRES_VIS", "trial_index": 256}, "uniqueid": "MTK3042:3TPZPLC3M1J3LDOT96WDDUJKKG93PZ", "dateTime": 1519675199833}, {"current_trial": 257, "trialdata": {"rt": -1, "trial_type": "single-stim", "word": "crayon", "stimulus": "<p id=\"stim\">CRAYON</p>", "conditions": [12, 800, "v", 12000], "internal_node_id": "0.0-185.0", "trial": 7, "time_elapsed": 1297278, "serialpos": 4, "key_press": -1, "wordID": 400, "type": "PRES_VIS", "trial_index": 257}, "uniqueid": "MTK3042:3TPZPLC3M1J3LDOT96WDDUJKKG93PZ", "dateTime": 1519675201600}, {"current_trial": 258, "trialdata": {"rt": -1, "trial_type": "single-stim", "word": "tablet", "stimulus": "<p id=\"stim\">TABLET</p>", "conditions": [12, 800, "v", 12000], "internal_node_id": "0.0-186.0", "trial": 7, "time_elapsed": 1299033, "serialpos": 5, "key_press": -1, "wordID": 1426, "type": "PRES_VIS", "trial_index": 258}, "uniqueid": "MTK3042:3TPZPLC3M1J3LDOT96WDDUJKKG93PZ", "dateTime": 1519675203355}, {"current_trial": 259, "trialdata": {"rt": -1, "trial_type": "single-stim", "word": "kitchen", "stimulus": "<p id=\"stim\">KITCHEN</p>", "conditions": [12, 800, "v", 12000], "internal_node_id": "0.0-187.0", "trial": 7, "time_elapsed": 1300696, "serialpos": 6, "key_press": -1, "wordID": 777, "type": "PRES_VIS", "trial_index": 259}, "uniqueid": "MTK3042:3TPZPLC3M1J3LDOT96WDDUJKKG93PZ", "dateTime": 1519675205017}, {"current_trial": 260, "trialdata": {"rt": -1, "trial_type": "single-stim", "word": "patrol", "stimulus": "<p id=\"stim\">PATROL</p>", "conditions": [12, 800, "v", 12000], "internal_node_id": "0.0-188.0", "trial": 7, "time_elapsed": 1302355, "serialpos": 7, "key_press": -1, "wordID": 1026, "type": "PRES_VIS", "trial_index": 260}, "uniqueid": "MTK3042:3TPZPLC3M1J3LDOT96WDDUJKKG93PZ", "dateTime": 1519675206677}, {"current_trial": 261, "trialdata": {"rt": -1, "trial_type": "single-stim", "word": "bank", "stimulus": "<p id=\"stim\">BANK</p>", "conditions": [12, 800, "v", 12000], "internal_node_id": "0.0-189.0", "trial": 7, "time_elapsed": 1304349, 