{"assignmentId": "3OXV7EAXLFXVB76OUAX47US3Q2G63C", "workerId": "MTK3230", "questiondata": {"origin": "United States", "strat-rehearsal": "20", "marital": "Married/Domestic Partnership", "education": "Some college", "ethnicity": "Not Hispanic", "color_depth": 24, "distracted": "No", "wrote-notes": "No", "strat-other": "", "screen_width": 1920, "avail_screen_width": 1920, "avail_screen_height": 1040, "strat-image": "4", "language": "English", "gender": "Male", "age": "34", "gender_other": "", "race": ["White"], "strat-categorize": "96", "pixel_depth": 24, "strat-spatial": "92", "strat-story": "95", "race_other": "", "screen_height": 1080}, "bonus": 0, "hitId": "3QHITW7OYOGMIQQZSWLABNRGBGHAQG", "counterbalance": 158, "useragent": "Mozilla/5.0 (Windows NT 6.1; Win64; x64) AppleWebKit/537.36 (KHTML, like Gecko) Chrome/64.0.3282.186 Safari/537.36", "eventdata": [{"eventtype": "initialized", "interval": 0, "value": null, "timestamp": 1520270307505}, {"eventtype": "window_resize", "interval": 0, "value": [1920, 990], "timestamp": 1520270307505}, {"eventtype": "focus", "interval": 7373, "value": "off", "timestamp": 1520270314878}, {"eventtype": "focus", "interval": 12287, "value": "on", "timestamp": 1520270327165}, {"eventtype": "focus", "interval": 1423264, "value": "off", "timestamp": 1520271750429}, {"eventtype": "focus", "interval": 2752, "value": "on", "timestamp": 1520271753181}, {"eventtype": "focus", "interval": 720, "value": "off", "timestamp": 1520271753901}, {"eventtype": "focus", "interval": 768, "value": "on", "timestamp": 1520271754669}, {"eventtype": "focus", "interval": 1250534, "value": "off", "timestamp": 1520273005203}, {"eventtype": "focus", "interval": 1637, "value": "on", "timestamp": 1520273006840}], "data": [{"current_trial": 0, "trialdata": {"rt": 3751, "trial_type": "text", "internal_node_id": "0.0-0.0", "time_elapsed": 3753, "key_press": 32, "type": "INSTRUCTIONS", "trial_index": 0}, "uniqueid": "MTK3230:3OXV7EAXLFXVB76OUAX47US3Q2G63C", "dateTime": 1520270312197}, {"current_trial": 1, "trialdata": {"rt": 2623, "trial_type": "text", "internal_node_id": "0.0-1.0", "time_elapsed": 6377, "key_press": 18, "type": "INSTRUCTIONS", "trial_index": 1}, "uniqueid": "MTK3230:3OXV7EAXLFXVB76OUAX47US3Q2G63C", "dateTime": 1520270314820}, {"current_trial": 2, "trialdata": {"rt": [20991], "trial_type": "audio-test", "responses": ["ocean"], "internal_node_id": "0.0-2.0", "time_elapsed": 27377, "type": "AUDIO_TEST", "trial_index": 2}, "uniqueid": "MTK3230:3OXV7EAXLFXVB76OUAX47US3Q2G63C", "dateTime": 1520270335820}, {"current_trial": 3, "trialdata": {"rt": [13534], "trial_type": "audio-test", "responses": ["crystal"], "internal_node_id": "0.0-3.0", "time_elapsed": 40914, "type": "AUDIO_TEST", "trial_index": 3}, "uniqueid": "MTK3230:3OXV7EAXLFXVB76OUAX47US3Q2G63C", "dateTime": 1520270349357}, {"current_trial": 4, "trialdata": {"rt": [8181], "trial_type": "audio-test", "responses": ["spice"], "internal_node_id": "0.0-4.0", "time_elapsed": 49097, "type": "AUDIO_TEST", "trial_index": 4}, "uniqueid": "MTK3230:3OXV7EAXLFXVB76OUAX47US3Q2G63C", "dateTime": 1520270357540}, {"current_trial": 5, "trialdata": {"rt": 33347, "trial_type": "survey-text", "responses": "{\"Q0\":\"9:30 PM\",\"Q1\":\"7:00am\",\"Q2\":\"3\"}", "internal_node_id": "0.0-5.0", "time_elapsed": 83197, "type": "SLEEP_SURVEY", "trial_index": 5}, "uniqueid": "MTK3230:3OXV7EAXLFXVB76OUAX47US3Q2G63C", "dateTime": 1520270391640}, {"current_trial": 6, "trialdata": {"rt": 77523, "trial_type": "text", "internal_node_id": "0.0-6.0", "time_elapsed": 161721, "key_press": 32, "type": "INSTRUCTIONS", "trial_index": 6}, "uniqueid": "MTK3230:3OXV7EAXLFXVB76OUAX47US3Q2G63C", "dateTime": 1520270470164}, {"current_trial": 7, "trialdata": {"rt": 16523, "trial_type": "text", "internal_node_id": "0.0-7.0", "time_elapsed": 178745, "key_press": 32, "type": "INSTRUCTIONS", "trial_index": 7}, "uniqueid": "MTK3230:3OXV7EAXLFXVB76OUAX47US3Q2G63C", "dateTime": 1520270487188}, {"current_trial": 8, "trialdata": {"rt": 11610, "trial_type": "text", "internal_node_id": "0.0-8.0", "time_elapsed": 190857, "key_press": 32, "type": "INSTRUCTIONS", "trial_index": 8}, "uniqueid": "MTK3230:3OXV7EAXLFXVB76OUAX47US3Q2G63C", "dateTime": 1520270499300}, {"current_trial": 9, "trialdata": {"rt": [4205, 10580, 13868, 15732], "trial_type": "math-distractor", "key_times": [3636, 3853, 4205, 10220, 10580, 13540, 13684, 13868, 15364, 15468, 15732], "responses": ["20", "9", "11", "15"], "num2": [7, 2, 1, 6, 9], "num3": [8, 3, 3, 3, 2], "conditions": [18, 1200, "v", 18000], "internal_node_id": "0.0-9.0", "key_presses": [98, 96, 13, 105, 13, 97, 97, 13, 97, 101, 13], "trial": 0, "time_elapsed": 209861, "type": "DISTRACTOR", "trial_index": 9, "num1": [5, 4, 7, 6, 4]}, "uniqueid": "MTK3230:3OXV7EAXLFXVB76OUAX47US3Q2G63C", "dateTime": 1520270518304}, {"current_trial": 10, "trialdata": {"rt": -1, "trial_type": "single-stim", "stimulus": "<p id=\"stim\">10</p>", "internal_node_id": "0.0-10.0-0.0", "time_elapsed": 212863, "key_press": -1, "trial_index": 10}, "uniqueid": "MTK3230:3OXV7EAXLFXVB76OUAX47US3Q2G63C", "dateTime": 1520270521306}, {"current_trial": 11, "trialdata": {"rt": -1, "trial_type": "single-stim", "stimulus": "<p id=\"stim\">9</p>", "internal_node_id": "0.0-10.0-1.0", "time_elapsed": 213863, "key_press": -1, "trial_index": 11}, "uniqueid": "MTK3230:3OXV7EAXLFXVB76OUAX47US3Q2G63C", "dateTime": 1520270522306}, {"current_trial": 12, "trialdata": {"rt": -1, "trial_type": "single-stim", "stimulus": "<p id=\"stim\">8</p>", "internal_node_id": "0.0-10.0-2.0", "time_elapsed": 214864, "key_press": -1, "trial_index": 12}, "uniqueid": "MTK3230:3OXV7EAXLFXVB76OUAX47US3Q2G63C", "dateTime": 1520270523307}, {"current_trial": 13, "trialdata": {"rt": -1, "trial_type": "single-stim", "stimulus": "<p id=\"stim\">7</p>", "internal_node_id": "0.0-10.0-3.0", "time_elapsed": 215865, "key_press": -1, "trial_index": 13}, "uniqueid": "MTK3230:3OXV7EAXLFXVB76OUAX47US3Q2G63C", "dateTime": 1520270524308}, {"current_trial": 14, "trialdata": {"rt": -1, "trial_type": "single-stim", "stimulus": "<p id=\"stim\">6</p>", "internal_node_id": "0.0-10.0-4.0", "time_elapsed": 216866, "key_press": -1, "trial_index": 14}, "uniqueid": "MTK3230:3OXV7EAXLFXVB76OUAX47US3Q2G63C", "dateTime": 1520270525309}, {"current_trial": 15, "trialdata": {"rt": -1, "trial_type": "single-stim", "stimulus": "<p id=\"stim\">5</p>", "internal_node_id": "0.0-10.0-5.0", "time_elapsed": 217870, "key_press": -1, "trial_index": 15}, "uniqueid": "MTK3230:3OXV7EAXLFXVB76OUAX47US3Q2G63C", "dateTime": 1520270526313}, {"current_trial": 16, "trialdata": {"rt": -1, "trial_type": "single-stim", "stimulus": "<p id=\"stim\">4</p>", "internal_node_id": "0.0-10.0-6.0", "time_elapsed": 218871, "key_press": -1, "trial_index": 16}, "uniqueid": "MTK3230:3OXV7EAXLFXVB76OUAX47US3Q2G63C", "dateTime": 1520270527315}, {"current_trial": 17, "trialdata": {"rt": -1, "trial_type": "single-stim", "stimulus": "<p id=\"stim\">3</p>", "internal_node_id": "0.0-10.0-7.0", "time_elapsed": 219872, "key_press": -1, "trial_index": 17}, "uniqueid": "MTK3230:3OXV7EAXLFXVB76OUAX47US3Q2G63C", "dateTime": 1520270528315}, {"current_trial": 18, "trialdata": {"rt": -1, "trial_type": "single-stim", "stimulus": "<p id=\"stim\">2</p>", "internal_node_id": "0.0-10.0-8.0", "time_elapsed": 220873, "key_press": -1, "trial_index": 18}, "uniqueid": "MTK3230:3OXV7EAXLFXVB76OUAX47US3Q2G63C", "dateTime": 1520270529316}, {"current_trial": 19, "trialdata": {"rt": -1, "trial_type": "single-stim", "stimulus": "<p id=\"stim\">1</p>", "internal_node_id": "0.0-10.0-9.0", "time_elapsed": 221874, "key_press": -1, "trial_index": 19}, "uniqueid": "MTK3230:3OXV7EAXLFXVB76OUAX47US3Q2G63C", "dateTime": 1520270530317}, {"current_trial": 20, "trialdata": {"rt": -1, "trial_type": "single-stim", "stimulus": "<p id=\"stim\">+</p>", "internal_node_id": "0.0-11.0-0.0", "time_elapsed": 223375, "key_press": -1, "type": "FIXATION", "trial_index": 20}, "uniqueid": "MTK3230:3OXV7EAXLFXVB76OUAX47US3Q2G63C", "dateTime": 1520270531818}, {"current_trial": 21, "trialdata": {"rt": -1, "trial_type": "single-stim", "word": "chauffeur", "stimulus": "<p id=\"stim\">CHAUFFEUR</p>", "conditions": [18, 1200, "v", 18000], "internal_node_id": "0.0-12.0", "trial": 0, "time_elapsed": 224576, "serialpos": 0, "key_press": -1, "wordID": 282, "type": "PRES_VIS", "trial_index": 21}, "uniqueid": "MTK3230:3OXV7EAXLFXVB76OUAX47US3Q2G63C", "dateTime": 1520270533019}, {"current_trial": 22, "trialdata": {"rt": -1, "trial_type": "single-stim", "word": "ground", "stimulus": "<p id=\"stim\">GROUND</p>", "conditions": [18, 1200, "v", 18000], "internal_node_id": "0.0-13.0", "trial": 0, "time_elapsed": 226711, "serialpos": 1, "key_press": -1, "wordID": 665, "type": "PRES_VIS", "trial_index": 22}, "uniqueid": "MTK3230:3OXV7EAXLFXVB76OUAX47US3Q2G63C", "dateTime": 1520270535154}, {"current_trial": 23, "trialdata": {"rt": -1, "trial_type": "single-stim", "word": "sunrise", "stimulus": "<p id=\"stim\">SUNRISE</p>", "conditions": [18, 1200, "v", 18000], "internal_node_id": "0.0-14.0", "trial": 0, "time_elapsed": 228895, "serialpos": 2, "key_press": -1, "wordID": 1406, "type": "PRES_VIS", "trial_index": 23}, "uniqueid": "MTK3230:3OXV7EAXLFXVB76OUAX47US3Q2G63C", "dateTime": 1520270537338}, {"current_trial": 24, "trialdata": {"rt": -1, "trial_type": "single-stim", "word": "radish", "stimulus": "<p id=\"stim\">RADISH</p>", "conditions": [18, 1200, "v", 18000], "internal_node_id": "0.0-15.0", "trial": 0, "time_elapsed": 230949, "serialpos": 3, "key_press": -1, "wordID": 1157, "type": "PRES_VIS", "trial_index": 24}, "uniqueid": "MTK3230:3OXV7EAXLFXVB76OUAX47US3Q2G63C", "dateTime": 1520270539392}, {"current_trial": 25, "trialdata": {"rt": -1, "trial_type": "single-stim", "word": "suitcase", "stimulus": "<p id=\"stim\">SUITCASE</p>", "conditions": [18, 1200, "v", 18000], "internal_node_id": "0.0-16.0", "trial": 0, "time_elapsed": 233180, "serialpos": 4, "key_press": -1, "wordID": 1402, "type": "PRES_VIS", "trial_index": 25}, "uniqueid": "MTK3230:3OXV7EAXLFXVB76OUAX47US3Q2G63C", "dateTime": 1520270541624}, {"current_trial": 26, "trialdata": {"rt": -1, "trial_type": "single-stim", "word": "lion", "stimulus": "<p id=\"stim\">LION</p>", "conditions": [18, 1200, "v", 18000], "internal_node_id": "0.0-17.0", "trial": 0, "time_elapsed": 235510, "serialpos": 5, "key_press": -1, "wordID": 826, "type": "PRES_VIS", "trial_index": 26}, "uniqueid": "MTK3230:3OXV7EAXLFXVB76OUAX47US3Q2G63C", "dateTime": 1520270543953}, {"current_trial": 27, "trialdata": {"rt": -1, "trial_type": "single-stim", "word": "hedge", "stimulus": "<p id=\"stim\">HEDGE</p>", "conditions": [18, 1200, "v", 18000], "internal_node_id": "0.0-18.0", "trial": 0, "time_elapsed": 237693, "serialpos": 6, "key_press": -1, "wordID": 698, "type": "PRES_VIS", "trial_index": 27}, "uniqueid": "MTK3230:3OXV7EAXLFXVB76OUAX47US3Q2G63C", "dateTime": 1520270546136}, {"current_trial": 28, "trialdata": {"rt": -1, "trial_type": "single-stim", "word": "plaster", "stimulus": "<p id=\"stim\">PLASTER</p>", "conditions": [18, 1200, "v", 18000], "internal_node_id": "0.0-19.0", "trial": 0, "time_elapsed": 239814, "serialpos": 7, "key_press": -1, "wordID": 1084, "type": "PRES_VIS", "trial_index": 28}, "uniqueid": "MTK3230:3OXV7EAXLFXVB76OUAX47US3Q2G63C", "dateTime": 1520270548258}, {"current_trial": 29, "trialdata": {"rt": -1, "trial_type": "single-stim", "word": "uncle", "stimulus": "<p id=\"stim\">UNCLE</p>", "conditions": [18, 1200, "v", 18000], "internal_node_id": "0.0-20.0", "trial": 0, "time_elapsed": 241856, "serialpos": 8, "key_press": -1, "wordID": 1535, "type": "PRES_VIS", "trial_index": 29}, "uniqueid": "MTK3230:3OXV7EAXLFXVB76OUAX47US3Q2G63C", "dateTime": 1520270550299}, {"current_trial": 30, "trialdata": {"rt": -1, "trial_type": "single-stim", "word": "country", "stimulus": "<p id=\"stim\">COUNTRY</p>", "conditions": [18, 1200, "v", 18000], "internal_node_id": "0.0-21.0", "trial": 0, "time_elapsed": 243889, "serialpos": 9, "key_press": -1, "wordID": 387, "type": "PRES_VIS", "trial_index": 30}, "uniqueid": "MTK3230:3OXV7EAXLFXVB76OUAX47US3Q2G63C", "dateTime": 1520270552332}, {"current_trial": 31, "trialdata": {"rt": -1, "trial_type": "single-stim", "word": "dustpan", "stimulus": "<p id=\"stim\">DUSTPAN</p>", "conditions": [18, 1200, "v", 18000], "internal_node_id": "0.0-22.0", "trial": 0, "time_elapsed": 246215, "serialpos": 10, "key_press": -1, "wordID": 508, "type": "PRES_VIS", "trial_index": 31}, "uniqueid": "MTK3230:3OXV7EAXLFXVB76OUAX47US3Q2G63C", "dateTime": 1520270554658}, {"current_trial": 32, "trialdata": {"rt": -1, "trial_type": "single-stim", "word": "dentist", "stimulus": "<p id=\"stim\">DENTIST</p>", "conditions": [18, 1200, "v", 18000], "internal_node_id": "0.0-23.0", "trial": 0, "time_elapsed": 248224, "serialpos": 11, "key_press": -1, "wordID": 446, "type": "PRES_VIS", "trial_index": 32}, "uniqueid": "MTK3230:3OXV7EAXLFXVB76OUAX47US3Q2G63C", "dateTime": 1520270556667}, {"current_trial": 33, "trialdata": {"rt": -1, "trial_type": "single-stim", "word": "atlas", "stimulus": "<p id=\"stim\">ATLAS</p>", "conditions": [18, 1200, "v", 18000], "internal_node_id": "0.0-24.0", "trial": 0, "time_elapsed": 250393, "serialpos": 12, "key_press": -1, "wordID": 52, "type": "PRES_VIS", "trial_index": 33}, "uniqueid": "MTK3230:3OXV7EAXLFXVB76OUAX47US3Q2G63C", "dateTime": 1520270558836}, {"current_trial": 34, "trialdata": {"rt": -1, "trial_type": "single-stim", "word": "fiddle", "stimulus": "<p id=\"stim\">FIDDLE</p>", "conditions": [18, 1200, "v", 18000], "internal_node_id": "0.0-25.0", "trial": 0, "time_elapsed": 252649, "serialpos": 13, "key_press": -1, "wordID": 560, "type": "PRES_VIS", "trial_index": 34}, "uniqueid": "MTK3230:3OXV7EAXLFXVB76OUAX47US3Q2G63C", "dateTime": 1520270561092}, {"current_trial": 35, "trialdata": {"rt": -1, "trial_type": "single-stim", "word": "tractor", "stimulus": "<p id=\"stim\">TRACTOR</p>", "conditions": [18, 1200, "v", 18000], "internal_node_id": "0.0-26.0", "trial": 0, "time_elapsed": 254783, "serialpos": 14, "key_press": -1, "wordID": 1492, "type": "PRES_VIS", "trial_index": 35}, "uniqueid": "MTK3230:3OXV7EAXLFXVB76OUAX47US3Q2G63C", "dateTime": 1520270563226}, {"current_trial": 36, "trialdata": {"rt": -1, "trial_type": "single-stim", "word": "witness", "stimulus": "<p id=\"stim\">WITNESS</p>", "conditions": [18, 1200, "v", 18000], "internal_node_id": "0.0-27.0", "trial": 0, "time_elapsed": 257142, "serialpos": 15, "key_press": -1, "wordID": 1617, "type": "PRES_VIS", "trial_index": 36}, "uniqueid": "MTK3230:3OXV7EAXLFXVB76OUAX47US3Q2G63C", "dateTime": 1520270565585}, {"current_trial": 37, "trialdata": {"rt": -1, "trial_type": "single-stim", "word": "egypt", "stimulus": "<p id=\"stim\">EGYPT</p>", "conditions": [18, 1200, "v", 18000], "internal_node_id": "0.0-28.0", "trial": 0, "time_elapsed": 259155, "serialpos": 16, "key_press": -1, "wordID": 518, "type": "PRES_VIS", "trial_index": 37}, "uniqueid": "MTK3230:3OXV7EAXLFXVB76OUAX47US3Q2G63C", "dateTime": 1520270567598}, {"current_trial": 38, "trialdata": {"rt": -1, "trial_type": "single-stim", "word": "statue", "stimulus": "<p id=\"stim\">STATUE</p>", "conditions": [18, 1200, "v", 18000], "internal_node_id": "0.0-29.0", "trial": 0, "time_elapsed": 261356, "serialpos": 17, "key_press": -1, "wordID": 1373, "type": "PRES_VIS", "trial_index": 38}, "uniqueid": "MTK3230:3OXV7EAXLFXVB76OUAX47US3Q2G63C", "dateTime": 1520270569799}, {"current_trial": 39, "trialdata": {"rt": -1, "trial_type": "single-stim", "stimulus": "", "internal_node_id": "0.0-30.0-0.0", "time_elapsed": 263673, "key_press": -1, "type": "PRE_RECALL_DELAY", "trial_index": 39}, "uniqueid": "MTK3230:3OXV7EAXLFXVB76OUAX47US3Q2G63C", "dateTime": 1520270572116}, {"current_trial": 40, "trialdata": {"rt": -1000, "trial_type": "single-audio", "stimulus": "/static/audio/400Hz.wav", "internal_node_id": "0.0-31.0", "time_elapsed": 264175, "key_press": -1, "type": "PRE_RECALL_ALERT", "trial_index": 40}, "uniqueid": "MTK3230:3OXV7EAXLFXVB76OUAX47US3Q2G63C", "dateTime": 1520270572618}, {"current_trial": 41, "trialdata": {"rt": [3584, 5936, 7024, 9800, 11568, 14641, 16969, 18664, 21537, 24752, 28673, 32768, 50680], "recwords": ["surise", "ground", "lion", "uncle", "country", "dustpan", "atals", "fiddle", "tractor", "egypt", "witness", "sunrise", "plaster"], "key_times": [2304, 2472, 2792, 2920, 3144, 3408, 3584, 4704, 4904, 5024, 5096, 5424, 5600, 5936, 6288, 6472, 6632, 6784, 7024, 8864, 9080, 9392, 9520, 9664, 9800, 10352, 10463, 10568, 10784, 10936, 11128, 11192, 11568, 12912, 13336, 13488, 13616, 13977, 14272, 14369, 14641, 15817, 15953, 16137, 16240, 16600, 16969, 17697, 17777, 18001, 18137, 18297, 18449, 18664, 19769, 19977, 20161, 20401, 20640, 20769, 20896, 21537, 23017, 23360, 23873, 24249, 24593, 24752, 27113, 27232, 27416, 27936, 28096, 28240, 28377, 28673, 31384, 31744, 31977, 32153, 32225, 32496, 32633, 32768, 49617, 49808, 49992, 50111, 50279, 50431, 50472, 50680], "trial_type": "free-recall", "conditions": [18, 1200, "v", 18000], "internal_node_id": "0.0-32.0-0.0", "key_presses": [83, 85, 82, 73, 83, 69, 13, 71, 82, 79, 85, 78, 68, 13, 76, 73, 79, 78, 13, 85, 78, 67, 76, 69, 32, 67, 79, 85, 78, 84, 82, 89, 13, 68, 85, 83, 84, 80, 65, 78, 13, 65, 84, 65, 76, 83, 13, 70, 73, 68, 68, 76, 69, 13, 84, 82, 65, 67, 84, 79, 82, 13, 69, 71, 89, 80, 84, 13, 87, 73, 84, 78, 69, 83, 83, 13, 83, 85, 78, 82, 73, 83, 69, 13, 80, 76, 65, 83, 84, 69, 82, 13], "trial": 0, "time_elapsed": 324178, "type": "FREE_RECALL", "trial_index": 41}, "uniqueid": "MTK3230:3OXV7EAXLFXVB76OUAX47US3Q2G63C", "dateTime": 1520270632622}, {"current_trial": 42, "trialdata": {"rt": 2266, "trial_type": "text", "internal_node_id": "0.0-33.0", "time_elapsed": 328448, "key_press": 32, "type": "INSTRUCTIONS", "trial_index": 42}, "uniqueid": "MTK3230:3OXV7EAXLFXVB76OUAX47US3Q2G63C", "dateTime": 1520270636892}, {"current_trial": 43, "trialdata": {"rt": [15080], "trial_type": "math-distractor", "key_times": [14729, 14880, 15080], "responses": ["22"], "num2": [9, 7], "num3": [6, 9], "conditions": [18, 1200, "v", 18000], "internal_node_id": "0.0-34.0", "key_presses": [98, 98, 13], "trial": 1, "time_elapsed": 348453, "type": "DISTRACTOR", "trial_index": 43, "num1": [7, 4]}, "uniqueid": "MTK3230:3OXV7EAXLFXVB76OUAX47US3Q2G63C", "dateTime": 1520270656896}, {"current_trial": 44, "trialdata": {"rt": -1, "trial_type": "single-stim", "stimulus": "<p id=\"stim\">10</p>", "internal_node_id": "0.0-35.0-0.0", "time_elapsed": 351454, "key_press": -1, "trial_index": 44}, "uniqueid": "MTK3230:3OXV7EAXLFXVB76OUAX47US3Q2G63C", "dateTime": 1520270659897}, {"current_trial": 45, "trialdata": {"rt": -1, "trial_type": "single-stim", "stimulus": "<p id=\"stim\">9</p>", "internal_node_id": "0.0-35.0-1.0", "time_elapsed": 352455, "key_press": -1, "trial_index": 45}, "uniqueid": "MTK3230:3OXV7EAXLFXVB76OUAX47US3Q2G63C", "dateTime": 1520270660898}, {"current_trial": 46, "trialdata": {"rt": -1, "trial_type": "single-stim", "stimulus": "<p id=\"stim\">8</p>", "internal_node_id": "0.0-35.0-2.0", "time_elapsed": 353457, "key_press": -1, "trial_index": 46}, "uniqueid": "MTK3230:3OXV7EAXLFXVB76OUAX47US3Q2G63C", "dateTime": 1520270661900}, {"current_trial": 47, "trialdata": {"rt": -1, "trial_type": "single-stim", "stimulus": "<p id=\"stim\">7</p>", "internal_node_id": "0.0-35.0-3.0", "time_elapsed": 354458, "key_press": -1, "trial_index": 47}, "uniqueid": "MTK3230:3OXV7EAXLFXVB76OUAX47US3Q2G63C", "dateTime": 1520270662901}, {"current_trial": 48, "trialdata": {"rt": -1, "trial_type": "single-stim", "stimulus": "<p id=\"stim\">6</p>", "internal_node_id": "0.0-35.0-4.0", "time_elapsed": 355458, "key_press": -1, "trial_index": 48}, "uniqueid": "MTK3230:3OXV7EAXLFXVB76OUAX47US3Q2G63C", "dateTime": 1520270663901}, {"current_trial": 49, "trialdata": {"rt": -1, "trial_type": "single-stim", "stimulus": "<p id=\"stim\">5</p>", "internal_node_id": "0.0-35.0-5.0", "time_elapsed": 356459, "key_press": -1, "trial_index": 49}, "uniqueid": "MTK3230:3OXV7EAXLFXVB76OUAX47US3Q2G63C", "dateTime": 1520270664902}, {"current_trial": 50, "trialdata": {"rt": -1, "trial_type": "single-stim", "stimulus": "<p id=\"stim\">4</p>", "internal_node_id": "0.0-35.0-6.0", "time_elapsed": 357460, "key_press": -1, "trial_index": 50}, "uniqueid": "MTK3230:3OXV7EAXLFXVB76OUAX47US3Q2G63C", "dateTime": 1520270665903}, {"current_trial": 51, "trialdata": {"rt": -1, "trial_type": "single-stim", "stimulus": "<p id=\"stim\">3</p>", "internal_node_id": "0.0-35.0-7.0", "time_elapsed": 358461, "key_press": -1, "trial_index": 51}, "uniqueid": "MTK3230:3OXV7EAXLFXVB76OUAX47US3Q2G63C", "dateTime": 1520270666904}, {"current_trial": 52, "trialdata": {"rt": -1, "trial_type": "single-stim", "stimulus": "<p id=\"stim\">2</p>", "internal_node_id": "0.0-35.0-8.0", "time_elapsed": 359463, "key_press": -1, "trial_index": 52}, "uniqueid": "MTK3230:3OXV7EAXLFXVB76OUAX47US3Q2G63C", "dateTime": 1520270667906}, {"current_trial": 53, "trialdata": {"rt": -1, "trial_type": "single-stim", "stimulus": "<p id=\"stim\">1</p>", "internal_node_id": "0.0-35.0-9.0", "time_elapsed": 360464, "key_press": -1, "trial_index": 53}, "uniqueid": "MTK3230:3OXV7EAXLFXVB76OUAX47US3Q2G63C", "dateTime": 1520270668907}, {"current_trial": 54, "trialdata": {"rt": -1, "trial_type": "single-stim", "stimulus": "<p id=\"stim\">+</p>", "internal_node_id": "0.0-36.0-0.0", "time_elapsed": 361965, "key_press": -1, "type": "FIXATION", "trial_index": 54}, "uniqueid": "MTK3230:3OXV7EAXLFXVB76OUAX47US3Q2G63C", "dateTime": 1520270670408}, {"current_trial": 55, "trialdata": {"rt": -1, "trial_type": "single-stim", "word": "stamp", "stimulus": "<p id=\"stim\">STAMP</p>", "conditions": [18, 1200, "v", 18000], "internal_node_id": "0.0-37.0", "trial": 1, "time_elapsed": 363165, "serialpos": 0, "key_press": -1, "wordID": 1369, "type": "PRES_VIS", "trial_index": 55}, "uniqueid": "MTK3230:3OXV7EAXLFXVB76OUAX47US3Q2G63C", "dateTime": 1520270671609}, {"current_trial": 56, "trialdata": {"rt": -1, "trial_type": "single-stim", "word": "paddle", "stimulus": "<p id=\"stim\">PADDLE</p>", "conditions": [18, 1200, "v", 18000], "internal_node_id": "0.0-38.0", "trial": 1, "time_elapsed": 365495, "serialpos": 1, "key_press": -1, "wordID": 999, "type": "PRES_VIS", "trial_index": 56}, "uniqueid": "MTK3230:3OXV7EAXLFXVB76OUAX47US3Q2G63C", "dateTime": 1520270673938}, {"current_trial": 57, "trialdata": {"rt": -1, "trial_type": "single-stim", "word": "forehead", "stimulus": "<p id=\"stim\">FOREHEAD</p>", "conditions": [18, 1200, "v", 18000], "internal_node_id": "0.0-39.0", "trial": 1, "time_elapsed": 367862, "serialpos": 2, "key_press": -1, "wordID": 591, "type": "PRES_VIS", "trial_index": 57}, "uniqueid": "MTK3230:3OXV7EAXLFXVB76OUAX47US3Q2G63C", "dateTime": 1520270676305}, {"current_trial": 58, "trialdata": {"rt": -1, "trial_type": "single-stim", "word": "snail", "stimulus": "<p id=\"stim\">SNAIL</p>", "conditions": [18, 1200, "v", 18000], "internal_node_id": "0.0-40.0", "trial": 1, "time_elapsed": 370229, "serialpos": 3, "key_press": -1, "wordID": 1331, "type": "PRES_VIS", "trial_index": 58}, "uniqueid": "MTK3230:3OXV7EAXLFXVB76OUAX47US3Q2G63C", "dateTime": 1520270678672}, {"current_trial": 59, "trialdata": {"rt": -1, "trial_type": "single-stim", "word": "captive", "stimulus": "<p id=\"stim\">CAPTIVE</p>", "conditions": [18, 1200, "v", 18000], "internal_node_id": "0.0-41.0", "trial": 1, "time_elapsed": 372237, "serialpos": 4, "key_press": -1, "wordID": 239, "type": "PRES_VIS", "trial_index": 59}, "uniqueid": "MTK3230:3OXV7EAXLFXVB76OUAX47US3Q2G63C", "dateTime": 1520270680680}, {"current_trial": 60, "trialdata": {"rt": -1, "trial_type": "single-stim", "word": "glass", "stimulus": "<p id=\"stim\">GLASS</p>", "conditions": [18, 1200, "v", 18000], "internal_node_id": "0.0-42.0", "trial": 1, "time_elapsed": 374258, "serialpos": 5, "key_press": -1, "wordID": 638, "type": "PRES_VIS", "trial_index": 60}, "uniqueid": "MTK3230:3OXV7EAXLFXVB76OUAX47US3Q2G63C", "dateTime": 1520270682702}, {"current_trial": 61, "trialdata": {"rt": -1, "trial_type": "single-stim", "word": "picnic", "stimulus": "<p id=\"stim\">PICNIC</p>", "conditions": [18, 1200, "v", 18000], "internal_node_id": "0.0-43.0", "trial": 1, "time_elapsed": 376390, "serialpos": 6, "key_press": -1, "wordID": 1059, "type": "PRES_VIS", "trial_index": 61}, "uniqueid": "MTK3230:3OXV7EAXLFXVB76OUAX47US3Q2G63C", "dateTime": 1520270684833}, {"current_trial": 62, "trialdata": {"rt": -1, "trial_type": "single-stim", "word": "pepper", "stimulus": "<p id=\"stim\">PEPPER</p>", "conditions": [18, 1200, "v", 18000], "internal_node_id": "0.0-44.0", "trial": 1, "time_elapsed": 378420, "serialpos": 7, "key_press": -1, "wordID": 1046, "type": "PRES_VIS", "trial_index": 62}, "uniqueid": "MTK3230:3OXV7EAXLFXVB76OUAX47US3Q2G63C", "dateTime": 1520270686863}, {"current_trial": 63, "trialdata": {"rt": -1, "trial_type": "single-stim", "word": "freckle", "stimulus": "<p id=\"stim\">FRECKLE</p>", "conditions": [18, 1200, "v", 18000], "internal_node_id": "0.0-45.0", "trial": 1, "time_elapsed": 380450, "serialpos": 8, "key_press": -1, "wordID": 601, "type": "PRES_VIS", "trial_index": 63}, "uniqueid": "MTK3230:3OXV7EAXLFXVB76OUAX47US3Q2G63C", "dateTime": 1520270688893}, {"current_trial": 64, "trialdata": {"rt": -1, "trial_type": "single-stim", "word": "market", "stimulus": "<p id=\"stim\">MARKET</p>", "conditions": [18, 1200, "v", 18000], "internal_node_id": "0.0-46.0", "trial": 1, "time_elapsed": 382739, "serialpos": 9, "key_press": -1, "wordID": 870, "type": "PRES_VIS", "trial_index": 64}, "uniqueid": "MTK3230:3OXV7EAXLFXVB76OUAX47US3Q2G63C", "dateTime": 1520270691182}, {"current_trial": 65, "trialdata": {"rt": -1, "trial_type": "single-stim", "word": "necklace", "stimulus": "<p id=\"stim\">NECKLACE</p>", "conditions": [18, 1200, "v", 18000], "internal_node_id": "0.0-47.0", "trial": 1, "time_elapsed": 384985, "serialpos": 10, "key_press": -1, "wordID": 939, "type": "PRES_VIS", "trial_index": 65}, "uniqueid": "MTK3230:3OXV7EAXLFXVB76OUAX47US3Q2G63C", "dateTime": 1520270693428}, {"current_trial": 66, "trialdata": {"rt": -1, "trial_type": "single-stim", "word": "neutron", "stimulus": "<p id=\"stim\">NEUTRON</p>", "conditions": [18, 1200, "v", 18000], "internal_node_id": "0.0-48.0", "trial": 1, "time_elapsed": 387284, "serialpos": 11, "key_press": -1, "wordID": 946, "type": "PRES_VIS", "trial_index": 66}, "uniqueid": "MTK3230:3OXV7EAXLFXVB76OUAX47US3Q2G63C", "dateTime": 1520270695727}, {"current_trial": 67, "trialdata": {"rt": -1, "trial_type": "single-stim", "word": "hostess", "stimulus": "<p id=\"stim\">HOSTESS</p>", "conditions": [18, 1200, "v", 18000], "internal_node_id": "0.0-49.0", "trial": 1, "time_elapsed": 389659, "serialpos": 12, "key_press": -1, "wordID": 722, "type": "PRES_VIS", "trial_index": 67}, "uniqueid": "MTK3230:3OXV7EAXLFXVB76OUAX47US3Q2G63C", "dateTime": 1520270698102}, {"current_trial": 68, "trialdata": {"rt": -1, "trial_type": "single-stim", "word": "france", "stimulus": "<p id=\"stim\">FRANCE</p>", "conditions": [18, 1200, "v", 18000], "internal_node_id": "0.0-50.0", "trial": 1, "time_elapsed": 391820, "serialpos": 13, "key_press": -1, "wordID": 600, "type": "PRES_VIS", "trial_index": 68}, "uniqueid": "MTK3230:3OXV7EAXLFXVB76OUAX47US3Q2G63C", "dateTime": 1520270700264}, {"current_trial": 69, "trialdata": {"rt": -1, "trial_type": "single-stim", "word": "pecan", "stimulus": "<p id=\"stim\">PECAN</p>", "conditions": [18, 1200, "v", 18000], "internal_node_id": "0.0-51.0", "trial": 1, "time_elapsed": 393856, "serialpos": 14, "key_press": -1, "wordID": 1035, "type": "PRES_VIS", "trial_index": 69}, "uniqueid": "MTK3230:3OXV7EAXLFXVB76OUAX47US3Q2G63C", "dateTime": 1520270702299}, {"current_trial": 70, "trialdata": {"rt": -1, "trial_type": "single-stim", "word": "airplane", "stimulus": "<p id=\"stim\">AIRPLANE</p>", "conditions": [18, 1200, "v", 18000], "internal_node_id": "0.0-52.0", "trial": 1, "time_elapsed": 395878, "serialpos": 15, "key_press": -1, "wordID": 11, "type": "PRES_VIS", "trial_index": 70}, "uniqueid": "MTK3230:3OXV7EAXLFXVB76OUAX47US3Q2G63C", "dateTime": 1520270704321}, {"current_trial": 71, "trialdata": {"rt": -1, "trial_type": "single-stim", "word": "wrist", "stimulus": "<p id=\"stim\">WRIST</p>", "conditions": [18, 1200, "v", 18000], "internal_node_id": "0.0-53.0", "trial": 1, "time_elapsed": 398238, "serialpos": 16, "key_press": -1, "wordID": 1625, "type": "PRES_VIS", "trial_index": 71}, "uniqueid": "MTK3230:3OXV7EAXLFXVB76OUAX47US3Q2G63C", "dateTime": 1520270706681}, {"current_trial": 72, "trialdata": {"rt": -1, "trial_type": "single-stim", "word": "shrub", "stimulus": "<p id=\"stim\">SHRUB</p>", "conditions": [18, 1200, "v", 18000], "internal_node_id": "0.0-54.0", "trial": 1, "time_elapsed": 400350, "serialpos": 17, "key_press": -1, "wordID": 1298, "type": "PRES_VIS", "trial_index": 72}, "uniqueid": "MTK3230:3OXV7EAXLFXVB76OUAX47US3Q2G63C", "dateTime": 1520270708793}, {"current_trial": 73, "trialdata": {"rt": -1, "trial_type": "single-stim", "stimulus": "", "internal_node_id": "0.0-55.0-0.0", "time_elapsed": 402627, "key_press": -1, "type": "PRE_RECALL_DELAY", "trial_index": 73}, "uniqueid": "MTK3230:3OXV7EAXLFXVB76OUAX47US3Q2G63C", "dateTime": 1520270711070}, {"current_trial": 74, "trialdata": {"rt": -1000, "trial_type": "single-audio", "stimulus": "/static/audio/400Hz.wav", "internal_node_id": "0.0-56.0", "time_elapsed": 403128, "key_press": -1, "type": "PRE_RECALL_ALERT", "trial_index": 74}, "uniqueid": "MTK3230:3OXV7EAXLFXVB76OUAX47US3Q2G63C", "dateTime": 1520270711572}, {"current_trial": 75, "trialdata": {"rt": [2896, 6496, 9328, 12584, 15664, 18240, 19984, 22359, 24687, 26527, 29159], "recwords": ["shrub", "airplain", "pecan", "hostess", "necklas", "pepper", "glass", "captive", "snail", "paddle", "stamp"], "key_times": [1833, 1992, 2184, 2296, 2552, 2896, 4024, 4208, 4536, 4680, 4824, 4944, 5328, 5688, 5912, 6040, 6120, 6232, 6496, 7512, 8032, 8248, 8504, 8784, 8944, 9040, 9328, 11320, 11432, 11584, 11736, 11840, 12032, 12160, 12584, 14135, 14295, 14600, 14712, 15231, 15367, 15528, 15664, 16864, 17048, 17456, 17607, 17799, 17888, 18240, 19376, 19472, 19567, 19736, 19872, 19984, 21431, 21592, 21736, 21928, 21992, 22127, 22263, 22359, 23367, 23536, 23671, 23887, 24055, 24687, 25680, 25831, 26072, 26207, 26304, 26424, 26527, 27216, 27343, 27495, 27624, 27751, 29159], "trial_type": "free-recall", "conditions": [18, 1200, "v", 18000], "internal_node_id": "0.0-57.0-0.0", "key_presses": [83, 72, 82, 85, 66, 13, 83, 73, 8, 8, 65, 73, 82, 80, 76, 65, 73, 78, 13, 82, 8, 80, 69, 67, 65, 78, 13, 72, 79, 83, 84, 69, 83, 83, 13, 78, 69, 67, 75, 76, 65, 83, 13, 80, 69, 80, 80, 69, 82, 13, 71, 76, 65, 83, 83, 13, 67, 65, 80, 84, 73, 86, 69, 13, 83, 78, 65, 73, 76, 13, 80, 65, 68, 68, 76, 69, 13, 83, 84, 65, 77, 80, 13], "trial": 1, "time_elapsed": 463132, "type": "FREE_RECALL", "trial_index": 75}, "uniqueid": "MTK3230:3OXV7EAXLFXVB76OUAX47US3Q2G63C", "dateTime": 1520270771578}, {"current_trial": 76, "trialdata": {"rt": 13738, "trial_type": "text", "internal_node_id": "0.0-58.0", "time_elapsed": 478873, "key_press": 13, "type": "INSTRUCTIONS", "trial_index": 76}, "uniqueid": "MTK3230:3OXV7EAXLFXVB76OUAX47US3Q2G63C", "dateTime": 1520270787316}, {"current_trial": 77, "trialdata": {"rt": [8878], "trial_type": "math-distractor", "key_times": [4134, 5462, 6038, 6254, 8021, 8493, 8878], "responses": ["11"], "num2": [1, 5], "num3": [6, 2], "conditions": [24, 1600, "v", 12000], "internal_node_id": "0.0-59.0", "key_presses": [105, 8, 97, 96, 8, 97, 13], "trial": 2, "time_elapsed": 491876, "type": "DISTRACTOR", "trial_index": 77, "num1": [4, 1]}, "uniqueid": "MTK3230:3OXV7EAXLFXVB76OUAX47US3Q2G63C", "dateTime": 1520270800319}, {"current_trial": 78, "trialdata": {"rt": -1, "trial_type": "single-stim", "stimulus": "<p id=\"stim\">10</p>", "internal_node_id": "0.0-60.0-0.0", "time_elapsed": 494878, "key_press": -1, "trial_index": 78}, "uniqueid": "MTK3230:3OXV7EAXLFXVB76OUAX47US3Q2G63C", "dateTime": 1520270803321}, {"current_trial": 79, "trialdata": {"rt": -1, "trial_type": "single-stim", "stimulus": "<p id=\"stim\">9</p>", "internal_node_id": "0.0-60.0-1.0", "time_elapsed": 495880, "key_press": -1, "trial_index": 79}, "uniqueid": "MTK3230:3OXV7EAXLFXVB76OUAX47US3Q2G63C", "dateTime": 1520270804323}, {"current_trial": 80, "trialdata": {"rt": -1, "trial_type": "single-stim", "stimulus": "<p id=\"stim\">8</p>", "internal_node_id": "0.0-60.0-2.0", "time_elapsed": 496880, "key_press": -1, "trial_index": 80}, "uniqueid": "MTK3230:3OXV7EAXLFXVB76OUAX47US3Q2G63C", "dateTime": 1520270805324}, {"current_trial": 81, "trialdata": {"rt": -1, "trial_type": "single-stim", "stimulus": "<p id=\"stim\">7</p>", "internal_node_id": "0.0-60.0-3.0", "time_elapsed": 497881, "key_press": -1, "trial_index": 81}, "uniqueid": "MTK3230:3OXV7EAXLFXVB76OUAX47US3Q2G63C", "dateTime": 1520270806324}, {"current_trial": 82, "trialdata": {"rt": -1, "trial_type": "single-stim", "stimulus": "<p id=\"stim\">6</p>", "internal_node_id": "0.0-60.0-4.0", "time_elapsed": 498883, "key_press": -1, "trial_index": 82}, "uniqueid": "MTK3230:3OXV7EAXLFXVB76OUAX47US3Q2G63C", "dateTime": 1520270807326}, {"current_trial": 83, "trialdata": {"rt": -1, "trial_type": "single-stim", "stimulus": "<p id=\"stim\">5</p>", "internal_node_id": "0.0-60.0-5.0", "time_elapsed": 499883, "key_press": -1, "trial_index": 83}, "uniqueid": "MTK3230:3OXV7EAXLFXVB76OUAX47US3Q2G63C", "dateTime": 1520270808327}, {"current_trial": 84, "trialdata": {"rt": -1, "trial_type": "single-stim", "stimulus": "<p id=\"stim\">4</p>", "internal_node_id": "0.0-60.0-6.0", "time_elapsed": 500884, "key_press": -1, "trial_index": 84}, "uniqueid": "MTK3230:3OXV7EAXLFXVB76OUAX47US3Q2G63C", "dateTime": 1520270809327}, {"current_trial": 85, "trialdata": {"rt": -1, "trial_type": "single-stim", "stimulus": "<p id=\"stim\">3</p>", "internal_node_id": "0.0-60.0-7.0", "time_elapsed": 501886, "key_press": -1, "trial_index": 85}, "uniqueid": "MTK3230:3OXV7EAXLFXVB76OUAX47US3Q2G63C", "dateTime": 1520270810329}, {"current_trial": 86, "trialdata": {"rt": -1, "trial_type": "single-stim", "stimulus": "<p id=\"stim\">2</p>", "internal_node_id": "0.0-60.0-8.0", "time_elapsed": 502887, "key_press": -1, "trial_index": 86}, "uniqueid": "MTK3230:3OXV7EAXLFXVB76OUAX47US3Q2G63C", "dateTime": 1520270811330}, {"current_trial": 87, "trialdata": {"rt": -1, "trial_type": "single-stim", "stimulus": "<p id=\"stim\">1</p>", "internal_node_id": "0.0-60.0-9.0", "time_elapsed": 503888, "key_press": -1, "trial_index": 87}, "uniqueid": "MTK3230:3OXV7EAXLFXVB76OUAX47US3Q2G63C", "dateTime": 1520270812331}, {"current_trial": 88, "trialdata": {"rt": -1, "trial_type": "single-stim", "stimulus": "<p id=\"stim\">+</p>", "internal_node_id": "0.0-61.0-0.0", "time_elapsed": 505389, "key_press": -1, "type": "FIXATION", "trial_index": 88}, "uniqueid": "MTK3230:3OXV7EAXLFXVB76OUAX47US3Q2G63C", "dateTime": 1520270813832}, {"current_trial": 89, "trialdata": {"rt": -1, "trial_type": "single-stim", "word": "sandwich", "stimulus": "<p id=\"stim\">SANDWICH</p>", "conditions": [24, 1600, "v", 12000], "internal_node_id": "0.0-62.0", "trial": 2, "time_elapsed": 506990, "serialpos": 0, "key_press": -1, "wordID": 1231, "type": "PRES_VIS", "trial_index": 89}, "uniqueid": "MTK3230:3OXV7EAXLFXVB76OUAX47US3Q2G63C", "dateTime": 1520270815433}, {"current_trial": 90, "trialdata": {"rt": -1, "trial_type": "single-stim", "word": "sausage", "stimulus": "<p id=\"stim\">SAUSAGE</p>", "conditions": [24, 1600, "v", 12000], "internal_node_id": "0.0-63.0", "trial": 2, "time_elapsed": 509751, "serialpos": 1, "key_press": -1, "wordID": 1237, "type": "PRES_VIS", "trial_index": 90}, "uniqueid": "MTK3230:3OXV7EAXLFXVB76OUAX47US3Q2G63C", "dateTime": 1520270818194}, {"current_trial": 91, "trialdata": {"rt": -1, "trial_type": "single-stim", "word": "bison", "stimulus": "<p id=\"stim\">BISON</p>", "conditions": [24, 1600, "v", 12000], "internal_node_id": "0.0-64.0", "trial": 2, "time_elapsed": 512486, "serialpos": 2, "key_press": -1, "wordID": 130, "type": "PRES_VIS", "trial_index": 91}, "uniqueid": "MTK3230:3OXV7EAXLFXVB76OUAX47US3Q2G63C", "dateTime": 1520270820929}, {"current_trial": 92, "trialdata": {"rt": -1, "trial_type": "single-stim", "word": "cattle", "stimulus": "<p id=\"stim\">CATTLE</p>", "conditions": [24, 1600, "v", 12000], "internal_node_id": "0.0-65.0", "trial": 2, "time_elapsed": 515136, "serialpos": 3, "key_press": -1, "wordID": 260, "type": "PRES_VIS", "trial_index": 92}, "uniqueid": "MTK3230:3OXV7EAXLFXVB76OUAX47US3Q2G63C", "dateTime": 1520270823579}, {"current_trial": 93, "trialdata": {"rt": -1, "trial_type": "single-stim", "word": "beaver", "stimulus": "<p id=\"stim\">BEAVER</p>", "conditions": [24, 1600, "v", 12000], "internal_node_id": "0.0-66.0", "trial": 2, "time_elapsed": 517587, "serialpos": 4, "key_press": -1, "wordID": 108, "type": "PRES_VIS", "trial_index": 93}, "uniqueid": "MTK3230:3OXV7EAXLFXVB76OUAX47US3Q2G63C", "dateTime": 1520270826030}, {"current_trial": 94, "trialdata": {"rt": -1, "trial_type": "single-stim", "word": "drink", "stimulus": "<p id=\"stim\">DRINK</p>", "conditions": [24, 1600, "v", 12000], "internal_node_id": "0.0-67.0", "trial": 2, "time_elapsed": 520071, "serialpos": 5, "key_press": -1, "wordID": 497, "type": "PRES_VIS", "trial_index": 94}, "uniqueid": "MTK3230:3OXV7EAXLFXVB76OUAX47US3Q2G63C", "dateTime": 1520270828514}, {"current_trial": 95, "trialdata": {"rt": -1, "trial_type": "single-stim", "word": "pebble", "stimulus": "<p id=\"stim\">PEBBLE</p>", "conditions": [24, 1600, "v", 12000], "internal_node_id": "0.0-68.0", "trial": 2, "time_elapsed": 522544, "serialpos": 6, "key_press": -1, "wordID": 1034, "type": "PRES_VIS", "trial_index": 95}, "uniqueid": "MTK3230:3OXV7EAXLFXVB76OUAX47US3Q2G63C", "dateTime": 1520270830987}, {"current_trial": 96, "trialdata": {"rt": -1, "trial_type": "single-stim", "word": "rabbit", "stimulus": "<p id=\"stim\">RABBIT</p>", "conditions": [24, 1600, "v", 12000], "internal_node_id": "0.0-69.0", "trial": 2, "time_elapsed": 525331, "serialpos": 7, "key_press": -1, "wordID": 1151, "type": "PRES_VIS", "trial_index": 96}, "uniqueid": "MTK3230:3OXV7EAXLFXVB76OUAX47US3Q2G63C", "dateTime": 1520270833774}, {"current_trial": 97, "trialdata": {"rt": -1, "trial_type": "single-stim", "word": "slime", "stimulus": "<p id=\"stim\">SLIME</p>", "conditions": [24, 1600, "v", 12000], "internal_node_id": "0.0-70.0", "trial": 2, "time_elapsed": 527921, "serialpos": 8, "key_press": -1, "wordID": 1326, "type": "PRES_VIS", "trial_index": 97}, "uniqueid": "MTK3230:3OXV7EAXLFXVB76OUAX47US3Q2G63C", "dateTime": 1520270836364}, {"current_trial": 98, "trialdata": {"rt": -1, "trial_type": "single-stim", "word": "apron", "stimulus": "<p id=\"stim\">APRON</p>", "conditions": [24, 1600, "v", 12000], "internal_node_id": "0.0-71.0", "trial": 2, "time_elapsed": 530338, "serialpos": 9, "key_press": -1, "wordID": 34, "type": "PRES_VIS", "trial_index": 98}, "uniqueid": "MTK3230:3OXV7EAXLFXVB76OUAX47US3Q2G63C", "dateTime": 1520270838781}, {"current_trial": 99, "trialdata": {"rt": -1, "trial_type": "single-stim", "word": "cashew", "stimulus": "<p id=\"stim\">CASHEW</p>", "conditions": [24, 1600, "v", 12000], "internal_node_id": "0.0-72.0", "trial": 2, "time_elapsed": 533124, "serialpos": 10, "key_press": -1, "wordID": 252, "type": "PRES_VIS", "trial_index": 99}, "uniqueid": "MTK3230:3OXV7EAXLFXVB76OUAX47US3Q2G63C", "dateTime": 1520270841567}, {"current_trial": 100, "trialdata": {"rt": -1, "trial_type": "single-stim", "word": "peach", "stimulus": "<p id=\"stim\">PEACH</p>", "conditions": [24, 1600, "v", 12000], "internal_node_id": "0.0-73.0", "trial": 2, "time_elapsed": 535558, "serialpos": 11, "key_press": -1, "wordID": 1030, "type": "PRES_VIS", "trial_index": 100}, "uniqueid": "MTK3230:3OXV7EAXLFXVB76OUAX47US3Q2G63C", "dateTime": 1520270844001}, {"current_trial": 101, "trialdata": {"rt": -1, "trial_type": "single-stim", "word": "napkin", "stimulus": "<p id=\"stim\">NAPKIN</p>", "conditions": [24, 1600, "v", 12000], "internal_node_id": "0.0-74.0", "trial": 2, "time_elapsed": 538275, "serialpos": 12, "key_press": -1, "wordID": 936, "type": "PRES_VIS", "trial_index": 101}, "uniqueid": "MTK3230:3OXV7EAXLFXVB76OUAX47US3Q2G63C", "dateTime": 1520270846718}, {"current_trial": 102, "trialdata": {"rt": -1, "trial_type": "single-stim", "word": "thief", "stimulus": "<p id=\"stim\">THIEF</p>", "conditions": [24, 1600, "v", 12000], "internal_node_id": "0.0-75.0", "trial": 2, "time_elapsed": 540736, "serialpos": 13, "key_press": -1, "wordID": 1455, "type": "PRES_VIS", "trial_index": 102}, "uniqueid": "MTK3230:3OXV7EAXLFXVB76OUAX47US3Q2G63C", "dateTime": 1520270849179}, {"current_trial": 103, "trialdata": {"rt": -1, "trial_type": "single-stim", "word": "robber", "stimulus": "<p id=\"stim\">ROBBER</p>", "conditions": [24, 1600, "v", 12000], "internal_node_id": "0.0-76.0", "trial": 2, "time_elapsed": 543266, "serialpos": 14, "key_press": -1, "wordID": 1196, "type": "PRES_VIS", "trial_index": 103}, "uniqueid": "MTK3230:3OXV7EAXLFXVB76OUAX47US3Q2G63C", "dateTime": 1520270851709}, {"current_trial": 104, "trialdata": {"rt": -1, "trial_type": "single-stim", "word": "scotch", "stimulus": "<p id=\"stim\">SCOTCH</p>", "conditions": [24, 1600, "v", 12000], "internal_node_id": "0.0-77.0", "trial": 2, "time_elapsed": 545871, "serialpos": 15, "key_press": -1, "wordID": 1250, "type": "PRES_VIS", "trial_index": 104}, "uniqueid": "MTK3230:3OXV7EAXLFXVB76OUAX47US3Q2G63C", "dateTime": 1520270854314}, {"current_trial": 105, "trialdata": {"rt": -1, "trial_type": "single-stim", "word": "plate", "stimulus": "<p id=\"stim\">PLATE</p>", "conditions": [24, 1600, "v", 12000], "internal_node_id": "0.0-78.0", "trial": 2, "time_elapsed": 548533, "serialpos": 16, "key_press": -1, "wordID": 1085, "type": "PRES_VIS", "trial_index": 105}, "uniqueid": "MTK3230:3OXV7EAXLFXVB76OUAX47US3Q2G63C", "dateTime": 1520270856976}, {"current_trial": 106, "trialdata": {"rt": -1, "trial_type": "single-stim", "word": "robin", "stimulus": "<p id=\"stim\">ROBIN</p>", "conditions": [24, 1600, "v", 12000], "internal_node_id": "0.0-79.0", "trial": 2, "time_elapsed": 551269, "serialpos": 17, "key_press": -1, "wordID": 1198, "type": "PRES_VIS", "trial_index": 106}, "uniqueid": "MTK3230:3OXV7EAXLFXVB76OUAX47US3Q2G63C", "dateTime": 1520270859712}, {"current_trial": 107, "trialdata": {"rt": -1, "trial_type": "single-stim", "word": "cyclone", "stimulus": "<p id=\"stim\">CYCLONE</p>", "conditions": [24, 1600, "v", 12000], "internal_node_id": "0.0-80.0", "trial": 2, "time_elapsed": 553997, "serialpos": 18, "key_press": -1, "wordID": 430, "type": "PRES_VIS", "trial_index": 107}, "uniqueid": "MTK3230:3OXV7EAXLFXVB76OUAX47US3Q2G63C", "dateTime": 1520270862440}, {"current_trial": 108, "trialdata": {"rt": -1, "trial_type": "single-stim", "word": "silk", "stimulus": "<p id=\"stim\">SILK</p>", "conditions": [24, 1600, "v", 12000], "internal_node_id": "0.0-81.0", "trial": 2, "time_elapsed": 556655, "serialpos": 19, "key_press": -1, "wordID": 1306, "type": "PRES_VIS", "trial_index": 108}, "uniqueid": "MTK3230:3OXV7EAXLFXVB76OUAX47US3Q2G63C", "dateTime": 1520270865098}, {"current_trial": 109, "trialdata": {"rt": -1, "trial_type": "single-stim", "word": "trout", "stimulus": "<p id=\"stim\">TROUT</p>", "conditions": [24, 1600, "v", 12000], "internal_node_id": "0.0-82.0", "trial": 2, "time_elapsed": 559320, "serialpos": 20, "key_press": -1, "wordID": 1510, "type": "PRES_VIS", "trial_index": 109}, "uniqueid": "MTK3230:3OXV7EAXLFXVB76OUAX47US3Q2G63C", "dateTime": 1520270867764}, {"current_trial": 110, "trialdata": {"rt": -1, "trial_type": "single-stim", "word": "river", "stimulus": "<p id=\"stim\">RIVER</p>", "conditions": [24, 1600, "v", 12000], "internal_node_id": "0.0-83.0", "trial": 2, "time_elapsed": 562017, "serialpos": 21, "key_press": -1, "wordID": 1193, "type": "PRES_VIS", "trial_index": 110}, "uniqueid": "MTK3230:3OXV7EAXLFXVB76OUAX47US3Q2G63C", "dateTime": 1520270870460}, {"current_trial": 111, "trialdata": {"rt": -1, "trial_type": "single-stim", "word": "crater", "stimulus": "<p id=\"stim\">CRATER</p>", "conditions": [24, 1600, "v", 12000], "internal_node_id": "0.0-84.0", "trial": 2, "time_elapsed": 564672, "serialpos": 22, "key_press": -1, "wordID": 399, "type": "PRES_VIS", "trial_index": 111}, "uniqueid": "MTK3230:3OXV7EAXLFXVB76OUAX47US3Q2G63C", "dateTime": 1520270873115}, {"current_trial": 112, "trialdata": {"rt": -1, "trial_type": "single-stim", "word": "salmon", "stimulus": "<p id=\"stim\">SALMON</p>", "conditions": [24, 1600, "v", 12000], "internal_node_id": "0.0-85.0", "trial": 2, "time_elapsed": 567447, "serialpos": 23, "key_press": -1, "wordID": 1226, "type": "PRES_VIS", "trial_index": 112}, "uniqueid": "MTK3230:3OXV7EAXLFXVB76OUAX47US3Q2G63C", "dateTime": 1520270875890}, {"current_trial": 113, "trialdata": {"rt": -1, "trial_type": "single-stim", "stimulus": "", "internal_node_id": "0.0-86.0-0.0", "time_elapsed": 569556, "key_press": -1, "type": "PRE_RECALL_DELAY", "trial_index": 113}, "uniqueid": "MTK3230:3OXV7EAXLFXVB76OUAX47US3Q2G63C", "dateTime": 1520270877999}, {"current_trial": 114, "trialdata": {"rt": -1000, "trial_type": "single-audio", "stimulus": "/static/audio/400Hz.wav", "internal_node_id": "0.0-87.0", "time_elapsed": 570056, "key_press": -1, "type": "PRE_RECALL_ALERT", "trial_index": 114}, "uniqueid": "MTK3230:3OXV7EAXLFXVB76OUAX47US3Q2G63C", "dateTime": 1520270878499}, {"current_trial": 115, "trialdata": {"rt": [2799, 4343, 5975, 8487, 9832, 11543, 14015, 20080, 22215, 23224, 26631, 31279, 36951], "recwords": ["trout", "river", "salmon", "bison", "cattle", "beaver", "rabbit", "robber", "palte", "", "silk", "robin", "drink"], "key_times": [1807, 2023, 2159, 2239, 2535, 2799, 3487, 3575, 3735, 3895, 3967, 4343, 4759, 4935, 5135, 5351, 5527, 5647, 5975, 7791, 7895, 8015, 8111, 8223, 8487, 8968, 9112, 9240, 9384, 9496, 9632, 9832, 10488, 10664, 10839, 10984, 11112, 11224, 11543, 13064, 13248, 13448, 13591, 13752, 13911, 14015, 19303, 19447, 19607, 19751, 19904, 19944, 20080, 21095, 21248, 21383, 21528, 21608, 22215, 23224, 25552, 25632, 25799, 25903, 26207, 26456, 26631, 30647, 30776, 30887, 30967, 31119, 31279, 36071, 36343, 36479, 36608, 36743, 36951], "trial_type": "free-recall", "conditions": [24, 1600, "v", 12000], "internal_node_id": "0.0-88.0-0.0", "key_presses": [84, 82, 79, 85, 84, 13, 82, 73, 86, 69, 82, 13, 83, 65, 76, 77, 79, 78, 13, 66, 73, 83, 79, 78, 13, 67, 65, 84, 84, 76, 69, 13, 66, 69, 65, 86, 69, 82, 13, 82, 65, 66, 66, 73, 84, 13, 82, 79, 66, 66, 69, 82, 13, 80, 65, 76, 84, 69, 13, 13, 83, 73, 76, 70, 8, 75, 13, 82, 79, 66, 73, 78, 13, 68, 82, 73, 78, 75, 13], "trial": 2, "time_elapsed": 630058, "type": "FREE_RECALL", "trial_index": 115}, "uniqueid": "MTK3230:3OXV7EAXLFXVB76OUAX47US3Q2G63C", "dateTime": 1520270938503}, {"current_trial": 116, "trialdata": {"rt": 1851, "trial_type": "text", "internal_node_id": "0.0-89.0", "time_elapsed": 633912, "key_press": 13, "type": "INSTRUCTIONS", "trial_index": 116}, "uniqueid": "MTK3230:3OXV7EAXLFXVB76OUAX47US3Q2G63C", "dateTime": 1520270942355}, {"current_trial": 117, "trialdata": {"rt": [2742, 5599, 11935, 18039, 20615, 20823], "trial_type": "math-distractor", "key_times": [2294, 2549, 2742, 5368, 5599, 11239, 11415, 11935, 17767, 17903, 18039, 20287, 20615, 20823, 22943, 23726], "responses": ["14", "7", "20", "22", "6", ""], "num2": [4, 1, 8, 8, 4, 6, 1], "num3": [3, 4, 9, 5, 1, 8, 2], "conditions": [12, 1600, "v", 24000], "internal_node_id": "0.0-90.0", "key_presses": [97, 100, 13, 103, 13, 98, 96, 13, 98, 98, 13, 102, 13, 13, 98, 8], "trial": 3, "time_elapsed": 659916, "type": "DISTRACTOR", "trial_index": 117, "num1": [7, 2, 4, 9, 1, 3, 9]}, "uniqueid": "MTK3230:3OXV7EAXLFXVB76OUAX47US3Q2G63C", "dateTime": 1520270968359}, {"current_trial": 118, "trialdata": {"rt": -1, "trial_type": "single-stim", "stimulus": "<p id=\"stim\">10</p>", "internal_node_id": "0.0-91.0-0.0", "time_elapsed": 662918, "key_press": -1, "trial_index": 118}, "uniqueid": "MTK3230:3OXV7EAXLFXVB76OUAX47US3Q2G63C", "dateTime": 1520270971361}, {"current_trial": 119, "trialdata": {"rt": -1, "trial_type": "single-stim", "stimulus": "<p id=\"stim\">9</p>", "internal_node_id": "0.0-91.0-1.0", "time_elapsed": 663920, "key_press": -1, "trial_index": 119}, "uniqueid": "MTK3230:3OXV7EAXLFXVB76OUAX47US3Q2G63C", "dateTime": 1520270972363}, {"current_trial": 120, "trialdata": {"rt": -1, "trial_type": "single-stim", "stimulus": "<p id=\"stim\">8</p>", "internal_node_id": "0.0-91.0-2.0", "time_elapsed": 664921, "key_press": -1, "trial_index": 120}, "uniqueid": "MTK3230:3OXV7EAXLFXVB76OUAX47US3Q2G63C", "dateTime": 1520270973364}, {"current_trial": 121, "trialdata": {"rt": -1, "trial_type": "single-stim", "stimulus": "<p id=\"stim\">7</p>", "internal_node_id": "0.0-91.0-3.0", "time_elapsed": 665923, "key_press": -1, "trial_index": 121}, "uniqueid": "MTK3230:3OXV7EAXLFXVB76OUAX47US3Q2G63C", "dateTime": 1520270974366}, {"current_trial": 122, "trialdata": {"rt": -1, "trial_type": "single-stim", "stimulus": "<p id=\"stim\">6</p>", "internal_node_id": "0.0-91.0-4.0", "time_elapsed": 666924, "key_press": -1, "trial_index": 122}, "uniqueid": "MTK3230:3OXV7EAXLFXVB76OUAX47US3Q2G63C", "dateTime": 1520270975367}, {"current_trial": 123, "trialdata": {"rt": -1, "trial_type": "single-stim", "stimulus": "<p id=\"stim\">5</p>", "internal_node_id": "0.0-91.0-5.0", "time_elapsed": 667924, "key_press": -1, "trial_index": 123}, "uniqueid": "MTK3230:3OXV7EAXLFXVB76OUAX47US3Q2G63C", "dateTime": 1520270976367}, {"current_trial": 124, "trialdata": {"rt": -1, "trial_type": "single-stim", "stimulus": "<p id=\"stim\">4</p>", "internal_node_id": "0.0-91.0-6.0", "time_elapsed": 668926, "key_press": -1, "trial_index": 124}, "uniqueid": "MTK3230:3OXV7EAXLFXVB76OUAX47US3Q2G63C", "dateTime": 1520270977369}, {"current_trial": 125, "trialdata": {"rt": -1, "trial_type": "single-stim", "stimulus": "<p id=\"stim\">3</p>", "internal_node_id": "0.0-91.0-7.0", "time_elapsed": 669926, "key_press": -1, "trial_index": 125}, "uniqueid": "MTK3230:3OXV7EAXLFXVB76OUAX47US3Q2G63C", "dateTime": 1520270978369}, {"current_trial": 126, "trialdata": {"rt": -1, "trial_type": "single-stim", "stimulus": "<p id=\"stim\">2</p>", "internal_node_id": "0.0-91.0-8.0", "time_elapsed": 670927, "key_press": -1, "trial_index": 126}, "uniqueid": "MTK3230:3OXV7EAXLFXVB76OUAX47US3Q2G63C", "dateTime": 1520270979370}, {"current_trial": 127, "trialdata": {"rt": -1, "trial_type": "single-stim", "stimulus": "<p id=\"stim\">1</p>", "internal_node_id": "0.0-91.0-9.0", "time_elapsed": 671928, "key_press": -1, "trial_index": 127}, "uniqueid": "MTK3230:3OXV7EAXLFXVB76OUAX47US3Q2G63C", "dateTime": 1520270980371}, {"current_trial": 128, "trialdata": {"rt": -1, "trial_type": "single-stim", "stimulus": "<p id=\"stim\">+</p>", "internal_node_id": "0.0-92.0-0.0", "time_elapsed": 673430, "key_press": -1, "type": "FIXATION", "trial_index": 128}, "uniqueid": "MTK3230:3OXV7EAXLFXVB76OUAX47US3Q2G63C", "dateTime": 1520270981873}, {"current_trial": 129, "trialdata": {"rt": -1, "trial_type": "single-stim", "word": "comet", "stimulus": "<p id=\"stim\">COMET</p>", "conditions": [12, 1600, "v", 24000], "internal_node_id": "0.0-93.0", "trial": 3, "time_elapsed": 675031, "serialpos": 0, "key_press": -1, "wordID": 352, "type": "PRES_VIS", "trial_index": 129}, "uniqueid": "MTK3230:3OXV7EAXLFXVB76OUAX47US3Q2G63C", "dateTime": 1520270983474}, {"current_trial": 130, "trialdata": {"rt": -1, "trial_type": "single-stim", "word": "barley", "stimulus": "<p id=\"stim\">BARLEY</p>", "conditions": [12, 1600, "v", 24000], "internal_node_id": "0.0-94.0", "trial": 3, "time_elapsed": 677658, "serialpos": 1, "key_press": -1, "wordID": 87, "type": "PRES_VIS", "trial_index": 130}, "uniqueid": "MTK3230:3OXV7EAXLFXVB76OUAX47US3Q2G63C", "dateTime": 1520270986101}, {"current_trial": 131, "trialdata": {"rt": -1, "trial_type": "single-stim", "word": "jelly", "stimulus": "<p id=\"stim\">JELLY</p>", "conditions": [12, 1600, "v", 24000], "internal_node_id": "0.0-95.0", "trial": 3, "time_elapsed": 680068, "serialpos": 2, "key_press": -1, "wordID": 754, "type": "PRES_VIS", "trial_index": 131}, "uniqueid": "MTK3230:3OXV7EAXLFXVB76OUAX47US3Q2G63C", "dateTime": 1520270988511}, {"current_trial": 132, "trialdata": {"rt": -1, "trial_type": "single-stim", "word": "jungle", "stimulus": "<p id=\"stim\">JUNGLE</p>", "conditions": [12, 1600, "v", 24000], "internal_node_id": "0.0-96.0", "trial": 3, "time_elapsed": 682625, "serialpos": 3, "key_press": -1, "wordID": 763, "type": "PRES_VIS", "trial_index": 132}, "uniqueid": "MTK3230:3OXV7EAXLFXVB76OUAX47US3Q2G63C", "dateTime": 1520270991068}, {"current_trial": 133, "trialdata": {"rt": -1, "trial_type": "single-stim", "word": "chest", "stimulus": "<p id=\"stim\">CHEST</p>", "conditions": [12, 1600, "v", 24000], "internal_node_id": "0.0-97.0", "trial": 3, "time_elapsed": 685091, "serialpos": 4, "key_press": -1, "wordID": 294, "type": "PRES_VIS", "trial_index": 133}, "uniqueid": "MTK3230:3OXV7EAXLFXVB76OUAX47US3Q2G63C", "dateTime": 1520270993534}, {"current_trial": 134, "trialdata": {"rt": -1, "trial_type": "single-stim", "word": "monster", "stimulus": "<p id=\"stim\">MONSTER</p>", "conditions": [12, 1600, "v", 24000], "internal_node_id": "0.0-98.0", "trial": 3, "time_elapsed": 687510, "serialpos": 5, "key_press": -1, "wordID": 911, "type": "PRES_VIS", "trial_index": 134}, "uniqueid": "MTK3230:3OXV7EAXLFXVB76OUAX47US3Q2G63C", "dateTime": 1520270995953}, {"current_trial": 135, "trialdata": {"rt": -1, "trial_type": "single-stim", "word": "beast", "stimulus": "<p id=\"stim\">BEAST</p>", "conditions": [12, 1600, "v", 24000], "internal_node_id": "0.0-99.0", "trial": 3, "time_elapsed": 690158, "serialpos": 6, "key_press": -1, "wordID": 107, "type": "PRES_VIS", "trial_index": 135}, "uniqueid": "MTK3230:3OXV7EAXLFXVB76OUAX47US3Q2G63C", "dateTime": 1520270998601}, {"current_trial": 136, "trialdata": {"rt": -1, "trial_type": "single-stim", "word": "glove", "stimulus": "<p id=\"stim\">GLOVE</p>", "conditions": [12, 1600, "v", 24000], "internal_node_id": "0.0-100.0", "trial": 3, "time_elapsed": 692737, "serialpos": 7, "key_press": -1, "wordID": 641, "type": "PRES_VIS", "trial_index": 136}, "uniqueid": "MTK3230:3OXV7EAXLFXVB76OUAX47US3Q2G63C", "dateTime": 1520271001181}, {"current_trial": 137, "trialdata": {"rt": -1, "trial_type": "single-stim", "word": "gift", "stimulus": "<p id=\"stim\">GIFT</p>", "conditions": [12, 1600, "v", 24000], "internal_node_id": "0.0-101.0", "trial": 3, "time_elapsed": 695388, "serialpos": 8, "key_press": -1, "wordID": 634, "type": "PRES_VIS", "trial_index": 137}, "uniqueid": "MTK3230:3OXV7EAXLFXVB76OUAX47US3Q2G63C", "dateTime": 1520271003831}, {"current_trial": 138, "trialdata": {"rt": -1, "trial_type": "single-stim", "word": "dress", "stimulus": "<p id=\"stim\">DRESS</p>", "conditions": [12, 1600, "v", 24000], "internal_node_id": "0.0-102.0", "trial": 3, "time_elapsed": 697972, "serialpos": 9, "key_press": -1, "wordID": 494, "type": "PRES_VIS", "trial_index": 138}, "uniqueid": "MTK3230:3OXV7EAXLFXVB76OUAX47US3Q2G63C", "dateTime": 1520271006415}, {"current_trial": 139, "trialdata": {"rt": -1, "trial_type": "single-stim", "word": "proton", "stimulus": "<p id=\"stim\">PROTON</p>", "conditions": [12, 1600, "v", 24000], "internal_node_id": "0.0-103.0", "trial": 3, "time_elapsed": 700637, "serialpos": 10, "key_press": -1, "wordID": 1131, "type": "PRES_VIS", "trial_index": 139}, "uniqueid": "MTK3230:3OXV7EAXLFXVB76OUAX47US3Q2G63C", "dateTime": 1520271009080}, {"current_trial": 140, "trialdata": {"rt": -1, "trial_type": "single-stim", "word": "custard", "stimulus": "<p id=\"stim\">CUSTARD</p>", "conditions": [12, 1600, "v", 24000], "internal_node_id": "0.0-104.0", "trial": 3, "time_elapsed": 703111, "serialpos": 11, "key_press": -1, "wordID": 428, "type": "PRES_VIS", "trial_index": 140}, "uniqueid": "MTK3230:3OXV7EAXLFXVB76OUAX47US3Q2G63C", "dateTime": 1520271011554}, {"current_trial": 141, "trialdata": {"rt": -1, "trial_type": "single-stim", "stimulus": "", "internal_node_id": "0.0-105.0-0.0", "time_elapsed": 705475, "key_press": -1, "type": "PRE_RECALL_DELAY", "trial_index": 141}, "uniqueid": "MTK3230:3OXV7EAXLFXVB76OUAX47US3Q2G63C", "dateTime": 1520271013918}, {"current_trial": 142, "trialdata": {"rt": -1000, "trial_type": "single-audio", "stimulus": "/static/audio/400Hz.wav", "internal_node_id": "0.0-106.0", "time_elapsed": 705976, "key_press": -1, "type": "PRE_RECALL_ALERT", "trial_index": 142}, "uniqueid": "MTK3230:3OXV7EAXLFXVB76OUAX47US3Q2G63C", "dateTime": 1520271014419}, {"current_trial": 143, "trialdata": {"rt": [7057, 9176, 10497, 13985, 15472, 19176, 20601, 31473], "recwords": ["beat", "beast", "monster", "glove", "jungle", "proton", "dress", "comet"], "key_times": [3281, 5913, 6081, 6425, 7057, 7993, 8145, 8329, 8520, 8585, 9176, 9521, 9657, 9785, 9921, 10017, 10161, 10209, 10497, 13049, 13393, 13569, 13609, 13809, 13985, 14489, 14649, 14849, 14961, 15088, 15329, 15472, 17656, 17825, 17944, 18577, 18697, 18817, 19176, 19481, 19697, 19841, 20312, 20448, 20601, 30809, 30904, 31008, 31153, 31265, 31473], "trial_type": "free-recall", "conditions": [12, 1600, "v", 24000], "internal_node_id": "0.0-107.0-0.0", "key_presses": [66, 69, 65, 84, 13, 66, 69, 65, 83, 84, 13, 77, 79, 78, 83, 84, 69, 82, 13, 71, 76, 79, 86, 69, 13, 74, 85, 78, 71, 76, 69, 13, 80, 82, 79, 84, 79, 78, 13, 68, 82, 69, 83, 83, 13, 67, 79, 77, 69, 84, 13], "trial": 3, "time_elapsed": 765979, "type": "FREE_RECALL", "trial_index": 143}, "uniqueid": "MTK3230:3OXV7EAXLFXVB76OUAX47US3Q2G63C", "dateTime": 1520271074423}, {"current_trial": 144, "trialdata": {"rt": 2012, "trial_type": "text", "internal_node_id": "0.0-108.0", "time_elapsed": 769993, "key_press": 13, "type": "INSTRUCTIONS", "trial_index": 144}, "uniqueid": "MTK3230:3OXV7EAXLFXVB76OUAX47US3Q2G63C", "dateTime": 1520271078436}, {"current_trial": 145, "trialdata": {"rt": [2958, 4686, 9022, 11574, 15478, 18485, 20957], "trial_type": "math-distractor", "key_times": [2566, 2646, 2958, 4358, 4462, 4686, 8726, 8862, 9022, 11285, 11413, 11574, 15094, 15326, 15478, 18229, 18317, 18485, 20574, 20693, 20957], "responses": ["15", "15", "22", "20", "17", "15", "18"], "num2": [6, 1, 9, 4, 9, 6, 2, 4], "num3": [1, 9, 8, 8, 3, 7, 9, 2], "conditions": [24, 800, "v", 24000], "internal_node_id": "0.0-109.0", "key_presses": [97, 101, 13, 97, 101, 13, 98, 98, 13, 98, 96, 13, 97, 103, 13, 97, 101, 13, 97, 104, 13], "trial": 4, "time_elapsed": 795996, "type": "DISTRACTOR", "trial_index": 145, "num1": [8, 5, 5, 8, 6, 2, 7, 6]}, "uniqueid": "MTK3230:3OXV7EAXLFXVB76OUAX47US3Q2G63C", "dateTime": 1520271104439}, {"current_trial": 146, "trialdata": {"rt": -1, "trial_type": "single-stim", "stimulus": "<p id=\"stim\">10</p>", "internal_node_id": "0.0-110.0-0.0", "time_elapsed": 798999, "key_press": -1, "trial_index": 146}, "uniqueid": "MTK3230:3OXV7EAXLFXVB76OUAX47US3Q2G63C", "dateTime": 1520271107442}, {"current_trial": 147, "trialdata": {"rt": -1, "trial_type": "single-stim", "stimulus": "<p id=\"stim\">9</p>", "internal_node_id": "0.0-110.0-1.0", "time_elapsed": 800000, "key_press": -1, "trial_index": 147}, "uniqueid": "MTK3230:3OXV7EAXLFXVB76OUAX47US3Q2G63C", "dateTime": 1520271108443}, {"current_trial": 148, "trialdata": {"rt": -1, "trial_type": "single-stim", "stimulus": "<p id=\"stim\">8</p>", "internal_node_id": "0.0-110.0-2.0", "time_elapsed": 801000, "key_press": -1, "trial_index": 148}, "uniqueid": "MTK3230:3OXV7EAXLFXVB76OUAX47US3Q2G63C", "dateTime": 1520271109443}, {"current_trial": 149, "trialdata": {"rt": -1, "trial_type": "single-stim", "stimulus": "<p id=\"stim\">7</p>", "internal_node_id": "0.0-110.0-3.0", "time_elapsed": 802002, "key_press": -1, "trial_index": 149}, "uniqueid": "MTK3230:3OXV7EAXLFXVB76OUAX47US3Q2G63C", "dateTime": 1520271110445}, {"current_trial": 150, "trialdata": {"rt": -1, "trial_type": "single-stim", "stimulus": "<p id=\"stim\">6</p>", "internal_node_id": "0.0-110.0-4.0", "time_elapsed": 803003, "key_press": -1, "trial_index": 150}, "uniqueid": "MTK3230:3OXV7EAXLFXVB76OUAX47US3Q2G63C", "dateTime": 1520271111446}, {"current_trial": 151, "trialdata": {"rt": -1, "trial_type": "single-stim", "stimulus": "<p id=\"stim\">5</p>", "internal_node_id": "0.0-110.0-5.0", "time_elapsed": 804004, "key_press": -1, "trial_index": 151}, "uniqueid": "MTK3230:3OXV7EAXLFXVB76OUAX47US3Q2G63C", "dateTime": 1520271112447}, {"current_trial": 152, "trialdata": {"rt": -1, "trial_type": "single-stim", "stimulus": "<p id=\"stim\">4</p>", "internal_node_id": "0.0-110.0-6.0", "time_elapsed": 805005, "key_press": -1, "trial_index": 152}, "uniqueid": "MTK3230:3OXV7EAXLFXVB76OUAX47US3Q2G63C", "dateTime": 1520271113448}, {"current_trial": 153, "trialdata": {"rt": -1, "trial_type": "single-stim", "stimulus": "<p id=\"stim\">3</p>", "internal_node_id": "0.0-110.0-7.0", "time_elapsed": 806006, "key_press": -1, "trial_index": 153}, "uniqueid": "MTK3230:3OXV7EAXLFXVB76OUAX47US3Q2G63C", "dateTime": 1520271114449}, {"current_trial": 154, "trialdata": {"rt": -1, "trial_type": "single-stim", "stimulus": "<p id=\"stim\">2</p>", "internal_node_id": "0.0-110.0-8.0", "time_elapsed": 807006, "key_press": -1, "trial_index": 154}, "uniqueid": "MTK3230:3OXV7EAXLFXVB76OUAX47US3Q2G63C", "dateTime": 1520271115450}, {"current_trial": 155, "trialdata": {"rt": -1, "trial_type": "single-stim", "stimulus": "<p id=\"stim\">1</p>", "internal_node_id": "0.0-110.0-9.0", "time_elapsed": 808007, "key_press": -1, "trial_index": 155}, "uniqueid": "MTK3230:3OXV7EAXLFXVB76OUAX47US3Q2G63C", "dateTime": 1520271116451}, {"current_trial": 156, "trialdata": {"rt": -1, "trial_type": "single-stim", "stimulus": "<p id=\"stim\">+</p>", "internal_node_id": "0.0-111.0-0.0", "time_elapsed": 809509, "key_press": -1, "type": "FIXATION", "trial_index": 156}, "uniqueid": "MTK3230:3OXV7EAXLFXVB76OUAX47US3Q2G63C", "dateTime": 1520271117952}, {"current_trial": 157, "trialdata": {"rt": -1, "trial_type": "single-stim", "word": "clamp", "stimulus": "<p id=\"stim\">CLAMP</p>", "conditions": [24, 800, "v", 24000], "internal_node_id": "0.0-112.0", "trial": 4, "time_elapsed": 810310, "serialpos": 0, "key_press": -1, "wordID": 315, "type": "PRES_VIS", "trial_index": 157}, "uniqueid": "MTK3230:3OXV7EAXLFXVB76OUAX47US3Q2G63C", "dateTime": 1520271118753}, {"current_trial": 158, "trialdata": {"rt": -1, "trial_type": "single-stim", "word": "badge", "stimulus": "<p id=\"stim\">BADGE</p>", "conditions": [24, 800, "v", 24000], "internal_node_id": "0.0-113.0", "trial": 4, "time_elapsed": 811973, "serialpos": 1, "key_press": -1, "wordID": 67, "type": "PRES_VIS", "trial_index": 158}, "uniqueid": "MTK3230:3OXV7EAXLFXVB76OUAX47US3Q2G63C", "dateTime": 1520271120416}, {"current_trial": 159, "trialdata": {"rt": -1, "trial_type": "single-stim", "word": "machine", "stimulus": "<p id=\"stim\">MACHINE</p>", "conditions": [24, 800, "v", 24000], "internal_node_id": "0.0-114.0", "trial": 4, "time_elapsed": 813750, "serialpos": 2, "key_press": -1, "wordID": 851, "type": "PRES_VIS", "trial_index": 159}, "uniqueid": "MTK3230:3OXV7EAXLFXVB76OUAX47US3Q2G63C", "dateTime": 1520271122193}, {"current_trial": 160, "trialdata": {"rt": -1, "trial_type": "single-stim", "word": "fragrance", "stimulus": "<p id=\"stim\">FRAGRANCE</p>", "conditions": [24, 800, "v", 24000], "internal_node_id": "0.0-115.0", "trial": 4, "time_elapsed": 815646, "serialpos": 3, "key_press": -1, "wordID": 598, "type": "PRES_VIS", "trial_index": 160}, "uniqueid": "MTK3230:3OXV7EAXLFXVB76OUAX47US3Q2G63C", "dateTime": 1520271124089}, {"current_trial": 161, "trialdata": {"rt": -1, "trial_type": "single-stim", "word": "bunny", "stimulus": "<p id=\"stim\">BUNNY</p>", "conditions": [24, 800, "v", 24000], "internal_node_id": "0.0-116.0", "trial": 4, "time_elapsed": 817406, "serialpos": 4, "key_press": -1, "wordID": 197, "type": "PRES_VIS", "trial_index": 161}, "uniqueid": "MTK3230:3OXV7EAXLFXVB76OUAX47US3Q2G63C", "dateTime": 1520271125849}, {"current_trial": 162, "trialdata": {"rt": -1, "trial_type": "single-stim", "word": "london", "stimulus": "<p id=\"stim\">LONDON</p>", "conditions": [24, 800, "v", 24000], "internal_node_id": "0.0-117.0", "trial": 4, "time_elapsed": 819398, "serialpos": 5, "key_press": -1, "wordID": 842, "type": "PRES_VIS", "trial_index": 162}, "uniqueid": "MTK3230:3OXV7EAXLFXVB76OUAX47US3Q2G63C", "dateTime": 1520271127841}, {"current_trial": 163, "trialdata": {"rt": -1, "trial_type": "single-stim", "word": "japan", "stimulus": "<p id=\"stim\">JAPAN</p>", "conditions": [24, 800, "v", 24000], "internal_node_id": "0.0-118.0", "trial": 4, "time_elapsed": 821097, "serialpos": 6, "key_press": -1, "wordID": 748, "type": "PRES_VIS", "trial_index": 163}, "uniqueid": "MTK3230:3OXV7EAXLFXVB76OUAX47US3Q2G63C", "dateTime": 1520271129540}, {"current_trial": 164, "trialdata": {"rt": -1, "trial_type": "single-stim", "word": "xerox", "stimulus": "<p id=\"stim\">XEROX</p>", "conditions": [24, 800, "v", 24000], "internal_node_id": "0.0-119.0", "trial": 4, "time_elapsed": 822706, "serialpos": 7, "key_press": -1, "wordID": 1627, "type": "PRES_VIS", "trial_index": 164}, "uniqueid": "MTK3230:3OXV7EAXLFXVB76OUAX47US3Q2G63C", "dateTime": 1520271131149}, {"current_trial": 165, "trialdata": {"rt": -1, "trial_type": "single-stim", "word": "saddle", "stimulus": "<p id=\"stim\">SADDLE</p>", "conditions": [24, 800, "v", 24000], "internal_node_id": "0.0-120.0", "trial": 4, "time_elapsed": 824593, "serialpos": 8, "key_press": -1, "wordID": 1220, "type": "PRES_VIS", "trial_index": 165}, "uniqueid": "MTK3230:3OXV7EAXLFXVB76OUAX47US3Q2G63C", "dateTime": 1520271133036}, {"current_trial": 166, "trialdata": {"rt": -1, "trial_type": "single-stim", "word": "pigeon", "stimulus": "<p id=\"stim\">PIGEON</p>", "conditions": [24, 800, "v", 24000], "internal_node_id": "0.0-121.0", "trial": 4, "time_elapsed": 826305, "serialpos": 9, "key_press": -1, "wordID": 1064, "type": "PRES_VIS", "trial_index": 166}, "uniqueid": "MTK3230:3OXV7EAXLFXVB76OUAX47US3Q2G63C", "dateTime": 1520271134749}, {"current_trial": 167, "trialdata": {"rt": -1, "trial_type": "single-stim", "word": "fox", "stimulus": "<p id=\"stim\">FOX</p>", "conditions": [24, 800, "v", 24000], "internal_node_id": "0.0-122.0", "trial": 4, "time_elapsed": 827969, "serialpos": 10, "key_press": -1, "wordID": 597, "type": "PRES_VIS", "trial_index": 167}, "uniqueid": "MTK3230:3OXV7EAXLFXVB76OUAX47US3Q2G63C", "dateTime": 1520271136412}, {"current_trial": 168, "trialdata": {"rt": -1, "trial_type": "single-stim", "word": "puppy", "stimulus": "<p id=\"stim\">PUPPY</p>", "conditions": [24, 800, "v", 24000], "internal_node_id": "0.0-123.0", "trial": 4, "time_elapsed": 829825, "serialpos": 11, "key_press": -1, "wordID": 1143, "type": "PRES_VIS", "trial_index": 168}, "uniqueid": "MTK3230:3OXV7EAXLFXVB76OUAX47US3Q2G63C", "dateTime": 1520271138269}, {"current_trial": 169, "trialdata": {"rt": -1, "trial_type": "single-stim", "word": "fireman", "stimulus": "<p id=\"stim\">FIREMAN</p>", "conditions": [24, 800, "v", 24000], "internal_node_id": "0.0-124.0", "trial": 4, "time_elapsed": 831451, "serialpos": 12, "key_press": -1, "wordID": 568, "type": "PRES_VIS", "trial_index": 169}, "uniqueid": "MTK3230:3OXV7EAXLFXVB76OUAX47US3Q2G63C", "dateTime": 1520271139894}, {"current_trial": 170, "trialdata": {"rt": -1, "trial_type": "single-stim", "word": "mammal", "stimulus": "<p id=\"stim\">MAMMAL</p>", "conditions": [24, 800, "v", 24000], "internal_node_id": "0.0-125.0", "trial": 4, "time_elapsed": 833440, "serialpos": 13, "key_press": -1, "wordID": 860, "type": "PRES_VIS", "trial_index": 170}, "uniqueid": "MTK3230:3OXV7EAXLFXVB76OUAX47US3Q2G63C", "dateTime": 1520271141884}, {"current_trial": 171, "trialdata": {"rt": -1, "trial_type": "single-stim", "word": "shark", "stimulus": "<p id=\"stim\">SHARK</p>", "conditions": [24, 800, "v", 24000], "internal_node_id": "0.0-126.0", "trial": 4, "time_elapsed": 835274, "serialpos": 14, "key_press": -1, "wordID": 1274, "type": "PRES_VIS", "trial_index": 171}, "uniqueid": "MTK3230:3OXV7EAXLFXVB76OUAX47US3Q2G63C", "dateTime": 1520271143717}, {"current_trial": 172, "trialdata": {"rt": -1, "trial_type": "single-stim", "word": "cashier", "stimulus": "<p id=\"stim\">CASHIER</p>", "conditions": [24, 800, "v", 24000], "internal_node_id": "0.0-127.0", "trial": 4, "time_elapsed": 837060, "serialpos": 15, "key_press": -1, "wordID": 253, "type": "PRES_VIS", "trial_index": 172}, "uniqueid": "MTK3230:3OXV7EAXLFXVB76OUAX47US3Q2G63C", "dateTime": 1520271145503}, {"current_trial": 173, "trialdata": {"rt": -1, "trial_type": "single-stim", "word": "college", "stimulus": "<p id=\"stim\">COLLEGE</p>", "conditions": [24, 800, "v", 24000], "internal_node_id": "0.0-128.0", "trial": 4, "time_elapsed": 838891, "serialpos": 16, "key_press": -1, "wordID": 345, "type": "PRES_VIS", "trial_index": 173}, "uniqueid": "MTK3230:3OXV7EAXLFXVB76OUAX47US3Q2G63C", "dateTime": 1520271147334}, {"current_trial": 174, "trialdata": {"rt": -1, "trial_type": "single-stim", "word": "knife", "stimulus": "<p id=\"stim\">KNIFE</p>", "conditions": [24, 800, "v", 24000], "internal_node_id": "0.0-129.0", "trial": 4, "time_elapsed": 840593, "serialpos": 17, "key_press": -1, "wordID": 784, "type": "PRES_VIS", "trial_index": 174}, "uniqueid": "MTK3230:3OXV7EAXLFXVB76OUAX47US3Q2G63C", "dateTime": 1520271149036}, {"current_trial": 175, "trialdata": {"rt": -1, "trial_type": "single-stim", "word": "softball", "stimulus": "<p id=\"stim\">SOFTBALL</p>", "conditions": [24, 800, "v", 24000], "internal_node_id": "0.0-130.0", "trial": 4, "time_elapsed": 842581, "serialpos": 18, "key_press": -1, "wordID": 1342, "type": "PRES_VIS", "trial_index": 175}, "uniqueid": "MTK3230:3OXV7EAXLFXVB76OUAX47US3Q2G63C", "dateTime": 1520271151024}, {"current_trial": 176, "trialdata": {"rt": -1, "trial_type": "single-stim", "word": "basement", "stimulus": "<p id=\"stim\">BASEMENT</p>", "conditions": [24, 800, "v", 24000], "internal_node_id": "0.0-131.0", "trial": 4, "time_elapsed": 844502, "serialpos": 19, "key_press": -1, "wordID": 93, "type": "PRES_VIS", "trial_index": 176}, "uniqueid": "MTK3230:3OXV7EAXLFXVB76OUAX47US3Q2G63C", "dateTime": 1520271152945}, {"current_trial": 177, "trialdata": {"rt": -1, "trial_type": "single-stim", "word": "climber", "stimulus": "<p id=\"stim\">CLIMBER</p>", "conditions": [24, 800, "v", 24000], "internal_node_id": "0.0-132.0", "trial": 4, "time_elapsed": 846287, "serialpos": 20, "key_press": -1, "wordID": 322, "type": "PRES_VIS", "trial_index": 177}, "uniqueid": "MTK3230:3OXV7EAXLFXVB76OUAX47US3Q2G63C", "dateTime": 1520271154731}, {"current_trial": 178, "trialdata": {"rt": -1, "trial_type": "single-stim", "word": "crevice", "stimulus": "<p id=\"stim\">CREVICE</p>", "conditions": [24, 800, "v", 24000], "internal_node_id": "0.0-133.0", "trial": 4, "time_elapsed": 847950, "serialpos": 21, "key_press": -1, "wordID": 404, "type": "PRES_VIS", "trial_index": 178}, "uniqueid": "MTK3230:3OXV7EAXLFXVB76OUAX47US3Q2G63C", "dateTime": 1520271156393}, {"current_trial": 179, "trialdata": {"rt": -1, "trial_type": "single-stim", "word": "lizard", "stimulus": "<p id=\"stim\">LIZARD</p>", "conditions": [24, 800, "v", 24000], "internal_node_id": "0.0-134.0", "trial": 4, "time_elapsed": 849742, "serialpos": 22, "key_press": -1, "wordID": 833, "type": "PRES_VIS", "trial_index": 179}, "uniqueid": "MTK3230:3OXV7EAXLFXVB76OUAX47US3Q2G63C", "dateTime": 1520271158185}, {"current_trial": 180, "trialdata": {"rt": -1, "trial_type": "single-stim", "word": "cellar", "stimulus": "<p id=\"stim\">CELLAR</p>", "conditions": [24, 800, "v", 24000], "internal_node_id": "0.0-135.0", "trial": 4, "time_elapsed": 851452, "serialpos": 23, "key_press": -1, "wordID": 266, "type": "PRES_VIS", "trial_index": 180}, "uniqueid": "MTK3230:3OXV7EAXLFXVB76OUAX47US3Q2G63C", "dateTime": 1520271159895}, {"current_trial": 181, "trialdata": {"rt": -1, "trial_type": "single-stim", "stimulus": "", "internal_node_id": "0.0-136.0-0.0", "time_elapsed": 853778, "key_press": -1, "type": "PRE_RECALL_DELAY", "trial_index": 181}, "uniqueid": "MTK3230:3OXV7EAXLFXVB76OUAX47US3Q2G63C", "dateTime": 1520271162222}, {"current_trial": 182, "trialdata": {"rt": -1000, "trial_type": "single-audio", "stimulus": "/static/audio/400Hz.wav", "internal_node_id": "0.0-137.0", "time_elapsed": 854280, "key_press": -1, "type": "PRE_RECALL_ALERT", "trial_index": 182}, "uniqueid": "MTK3230:3OXV7EAXLFXVB76OUAX47US3Q2G63C", "dateTime": 1520271162723}, {"current_trial": 183, "trialdata": {"rt": [3104, 4809, 6305, 8705, 12400, 14984, 15760, 18552, 21392, 24296, 27273, 33113], "recwords": ["badge", "bunny", "london", "japan", "saddle", "pigion", "fox", "puppy", "fireman", "shark", "lizard", "knife"], "key_times": [2217, 2425, 2616, 2873, 3000, 3104, 3872, 4009, 4249, 4384, 4585, 4809, 5336, 5505, 5657, 5880, 5960, 6056, 6305, 7752, 7929, 8201, 8384, 8496, 8705, 10360, 10680, 10832, 11265, 11425, 11545, 11897, 12040, 12136, 12289, 12400, 13640, 13816, 14377, 14496, 14616, 14720, 14984, 15360, 15488, 15648, 15760, 17256, 17368, 17736, 17888, 18200, 18552, 19512, 19857, 20080, 20768, 21008, 21144, 21224, 21392, 23489, 23616, 23720, 23984, 24120, 24296, 25776, 25936, 26145, 26489, 26617, 26825, 26993, 27185, 27273, 31553, 31745, 31897, 32393, 32648, 32769, 33025, 33113], "trial_type": "free-recall", "conditions": [24, 800, "v", 24000], "internal_node_id": "0.0-138.0-0.0", "key_presses": [66, 65, 68, 71, 69, 13, 66, 85, 78, 78, 89, 13, 76, 79, 78, 68, 79, 78, 13, 74, 65, 80, 65, 78, 13, 83, 83, 65, 8, 8, 65, 68, 68, 76, 69, 13, 80, 73, 71, 73, 79, 78, 13, 70, 79, 88, 13, 80, 85, 80, 80, 89, 13, 70, 73, 82, 69, 77, 65, 78, 13, 83, 72, 65, 82, 75, 13, 76, 73, 65, 8, 90, 65, 82, 68, 13, 75, 78, 75, 8, 73, 70, 69, 13], "trial": 4, "time_elapsed": 914282, "type": "FREE_RECALL", "trial_index": 183}, "uniqueid": "MTK3230:3OXV7EAXLFXVB76OUAX47US3Q2G63C", "dateTime": 1520271222728}, {"current_trial": 184, "trialdata": {"rt": 1532, "trial_type": "text", "internal_node_id": "0.0-139.0", "time_elapsed": 917817, "key_press": 13, "type": "INSTRUCTIONS", "trial_index": 184}, "uniqueid": "MTK3230:3OXV7EAXLFXVB76OUAX47US3Q2G63C", "dateTime": 1520271226260}, {"current_trial": 185, "trialdata": {"rt": [3070, 7350, 11734], "trial_type": "math-distractor", "key_times": [2782, 2878, 3070, 7055, 7206, 7350, 10655, 11206, 11734], "responses": ["21", "22", "19"], "num2": [5, 7, 8, 3], "num3": [8, 9, 7, 9], "conditions": [12, 800, "v", 12000], "internal_node_id": "0.0-140.0", "key_presses": [98, 97, 13, 98, 98, 13, 97, 105, 13], "trial": 5, "time_elapsed": 931820, "type": "DISTRACTOR", "trial_index": 185, "num1": [8, 6, 4, 6]}, "uniqueid": "MTK3230:3OXV7EAXLFXVB76OUAX47US3Q2G63C", "dateTime": 1520271240263}, {"current_trial": 186, "trialdata": {"rt": -1, "trial_type": "single-stim", "stimulus": "<p id=\"stim\">10</p>", "internal_node_id": "0.0-141.0-0.0", "time_elapsed": 934821, "key_press": -1, "trial_index": 186}, "uniqueid": "MTK3230:3OXV7EAXLFXVB76OUAX47US3Q2G63C", "dateTime": 1520271243265}, {"current_trial": 187, "trialdata": {"rt": -1, "trial_type": "single-stim", "stimulus": "<p id=\"stim\">9</p>", "internal_node_id": "0.0-141.0-1.0", "time_elapsed": 935822, "key_press": -1, "trial_index": 187}, "uniqueid": "MTK3230:3OXV7EAXLFXVB76OUAX47US3Q2G63C", "dateTime": 1520271244265}, {"current_trial": 188, "trialdata": {"rt": -1, "trial_type": "single-stim", "stimulus": "<p id=\"stim\">8</p>", "internal_node_id": "0.0-141.0-2.0", "time_elapsed": 936823, "key_press": -1, "trial_index": 188}, "uniqueid": "MTK3230:3OXV7EAXLFXVB76OUAX47US3Q2G63C", "dateTime": 1520271245266}, {"current_trial": 189, "trialdata": {"rt": -1, "trial_type": "single-stim", "stimulus": "<p id=\"stim\">7</p>", "internal_node_id": "0.0-141.0-3.0", "time_elapsed": 937824, "key_press": -1, "trial_index": 189}, "uniqueid": "MTK3230:3OXV7EAXLFXVB76OUAX47US3Q2G63C", "dateTime": 1520271246267}, {"current_trial": 190, "trialdata": {"rt": -1, "trial_type": "single-stim", "stimulus": "<p id=\"stim\">6</p>", "internal_node_id": "0.0-141.0-4.0", "time_elapsed": 938826, "key_press": -1, "trial_index": 190}, "uniqueid": "MTK3230:3OXV7EAXLFXVB76OUAX47US3Q2G63C", "dateTime": 1520271247269}, {"current_trial": 191, "trialdata": {"rt": -1, "trial_type": "single-stim", "stimulus": "<p id=\"stim\">5</p>", "internal_node_id": "0.0-141.0-5.0", "time_elapsed": 939826, "key_press": -1, "trial_index": 191}, "uniqueid": "MTK3230:3OXV7EAXLFXVB76OUAX47US3Q2G63C", "dateTime": 1520271248269}, {"current_trial": 192, "trialdata": {"rt": -1, "trial_type": "single-stim", "stimulus": "<p id=\"stim\">4</p>", "internal_node_id": "0.0-141.0-6.0", "time_elapsed": 940829, "key_press": -1, "trial_index": 192}, "uniqueid": "MTK3230:3OXV7EAXLFXVB76OUAX47US3Q2G63C", "dateTime": 1520271249272}, {"current_trial": 193, "trialdata": {"rt": -1, "trial_type": "single-stim", "stimulus": "<p id=\"stim\">3</p>", "internal_node_id": "0.0-141.0-7.0", "time_elapsed": 941829, "key_press": -1, "trial_index": 193}, "uniqueid": "MTK3230:3OXV7EAXLFXVB76OUAX47US3Q2G63C", "dateTime": 1520271250272}, {"current_trial": 194, "trialdata": {"rt": -1, "trial_type": "single-stim", "stimulus": "<p id=\"stim\">2</p>", "internal_node_id": "0.0-141.0-8.0", "time_elapsed": 942831, "key_press": -1, "trial_index": 194}, "uniqueid": "MTK3230:3OXV7EAXLFXVB76OUAX47US3Q2G63C", "dateTime": 1520271251274}, {"current_trial": 195, "trialdata": {"rt": -1, "trial_type": "single-stim", "stimulus": "<p id=\"stim\">1</p>", "internal_node_id": "0.0-141.0-9.0", "time_elapsed": 943831, "key_press": -1, "trial_index": 195}, "uniqueid": "MTK3230:3OXV7EAXLFXVB76OUAX47US3Q2G63C", "dateTime": 1520271252275}, {"current_trial": 196, "trialdata": {"rt": -1, "trial_type": "single-stim", "stimulus": "<p id=\"stim\">+</p>", "internal_node_id": "0.0-142.0-0.0", "time_elapsed": 945333, "key_press": -1, "type": "FIXATION", "trial_index": 196}, "uniqueid": "MTK3230:3OXV7EAXLFXVB76OUAX47US3Q2G63C", "dateTime": 1520271253776}, {"current_trial": 197, "trialdata": {"rt": -1, "trial_type": "single-stim", "word": "rod", "stimulus": "<p id=\"stim\">ROD</p>", "conditions": [12, 800, "v", 12000], "internal_node_id": "0.0-143.0", "trial": 5, "time_elapsed": 946134, "serialpos": 0, "key_press": -1, "wordID": 1202, "type": "PRES_VIS", "trial_index": 197}, "uniqueid": "MTK3230:3OXV7EAXLFXVB76OUAX47US3Q2G63C", "dateTime": 1520271254577}, {"current_trial": 198, "trialdata": {"rt": -1, "trial_type": "single-stim", "word": "hornet", "stimulus": "<p id=\"stim\">HORNET</p>", "conditions": [12, 800, "v", 12000], "internal_node_id": "0.0-144.0", "trial": 5, "time_elapsed": 948040, "serialpos": 1, "key_press": -1, "wordID": 717, "type": "PRES_VIS", "trial_index": 198}, "uniqueid": "MTK3230:3OXV7EAXLFXVB76OUAX47US3Q2G63C", "dateTime": 1520271256483}, {"current_trial": 199, "trialdata": {"rt": -1, "trial_type": "single-stim", "word": "wasp", "stimulus": "<p id=\"stim\">WASP</p>", "conditions": [12, 800, "v", 12000], "internal_node_id": "0.0-145.0", "trial": 5, "time_elapsed": 949858, "serialpos": 2, "key_press": -1, "wordID": 1592, "type": "PRES_VIS", "trial_index": 199}, "uniqueid": "MTK3230:3OXV7EAXLFXVB76OUAX47US3Q2G63C", "dateTime": 1520271258302}, {"current_trial": 200, "trialdata": {"rt": -1, "trial_type": "single-stim", "word": "helmet", "stimulus": "<p id=\"stim\">HELMET</p>", "conditions": [12, 800, "v", 12000], "internal_node_id": "0.0-146.0", "trial": 5, "time_elapsed": 951664, "serialpos": 3, "key_press": -1, "wordID": 701, "type": "PRES_VIS", "trial_index": 200}, "uniqueid": "MTK3230:3OXV7EAXLFXVB76OUAX47US3Q2G63C", "dateTime": 1520271260107}, {"current_trial": 201, "trialdata": {"rt": -1, "trial_type": "single-stim", "word": "tribe", "stimulus": "<p id=\"stim\">TRIBE</p>", "conditions": [12, 800, "v", 12000], "internal_node_id": "0.0-147.0", "trial": 5, "time_elapsed": 953336, "serialpos": 4, "key_press": -1, "wordID": 1504, "type": "PRES_VIS", "trial_index": 201}, "uniqueid": "MTK3230:3OXV7EAXLFXVB76OUAX47US3Q2G63C", "dateTime": 1520271261779}, {"current_trial": 202, "trialdata": {"rt": -1, "trial_type": "single-stim", "word": "apple", "stimulus": "<p id=\"stim\">APPLE</p>", "conditions": [12, 800, "v", 12000], "internal_node_id": "0.0-148.0", "trial": 5, "time_elapsed": 955026, "serialpos": 5, "key_press": -1, "wordID": 32, "type": "PRES_VIS", "trial_index": 202}, "uniqueid": "MTK3230:3OXV7EAXLFXVB76OUAX47US3Q2G63C", "dateTime": 1520271263469}, {"current_trial": 203, "trialdata": {"rt": -1, "trial_type": "single-stim", "word": "subway", "stimulus": "<p id=\"stim\">SUBWAY</p>", "conditions": [12, 800, "v", 12000], "internal_node_id": "0.0-149.0", "trial": 5, "time_elapsed": 956782, "serialpos": 6, "key_press": -1, "wordID": 1399, "type": "PRES_VIS", "trial_index": 203}, "uniqueid": "MTK3230:3OXV7EAXLFXVB76OUAX47US3Q2G63C", "dateTime": 1520271265225}, {"current_trial": 204, "trialdata": {"rt": -1, "trial_type": "single-stim", "word": "spool", "stimulus": "<p id=\"stim\">SPOOL</p>", "conditions": [12, 800, "v", 12000], "internal_node_id": "0.0-150.0", "trial": 5, "time_elapsed": 958539, "serialpos": 7, "key_press": -1, "wordID": 1355, "type": "PRES_VIS", "trial_index": 204}, "uniqueid": "MTK3230:3OXV7EAXLFXVB76OUAX47US3Q2G63C", "dateTime": 1520271266982}, {"current_trial": 205, "trialdata": {"rt": -1, "trial_type": "single-stim", "word": "onion", "stimulus": "<p id=\"stim\">ONION</p>", "conditions": [12, 800, "v", 12000], "internal_node_id": "0.0-151.0", "trial": 5, "time_elapsed": 960154, "serialpos": 8, "key_press": -1, "wordID": 976, "type": "PRES_VIS", "trial_index": 205}, "uniqueid": "MTK3230:3OXV7EAXLFXVB76OUAX47US3Q2G63C", "dateTime": 1520271268597}, {"current_trial": 206, "trialdata": {"rt": -1, "trial_type": "single-stim", "word": "freezer", "stimulus": "<p id=\"stim\">FREEZER</p>", "conditions": [12, 800, "v", 12000], "internal_node_id": "0.0-152.0", "trial": 5, "time_elapsed": 962127, "serialpos": 9, "key_press": -1, "wordID": 603, "type": "PRES_VIS", "trial_index": 206}, "uniqueid": "MTK3230:3OXV7EAXLFXVB76OUAX47US3Q2G63C", "dateTime": 1520271270571}, {"current_trial": 207, "trialdata": {"rt": -1, "trial_type": "single-stim", "word": "flesh", "stimulus": "<p id=\"stim\">FLESH</p>", "conditions": [12, 800, "v", 12000], "internal_node_id": "0.0-153.0", "trial": 5, "time_elapsed": 963750, "serialpos": 10, "key_press": -1, "wordID": 578, "type": "PRES_VIS", "trial_index": 207}, "uniqueid": "MTK3230:3OXV7EAXLFXVB76OUAX47US3Q2G63C", "dateTime": 1520271272193}, {"current_trial": 208, "trialdata": {"rt": -1, "trial_type": "single-stim", "word": "perch", "stimulus": "<p id=\"stim\">PERCH</p>", "conditions": [12, 800, "v", 12000], "internal_node_id": "0.0-154.0", "trial": 5, "time_elapsed": 965598, "serialpos": 11, "key_press": -1, "wordID": 1047, "type": "PRES_VIS", "trial_index": 208}, "uniqueid": "MTK3230:3OXV7EAXLFXVB76OUAX47US3Q2G63C", "dateTime": 1520271274041}, {"current_trial": 209, "trialdata": {"rt": -1, "trial_type": "single-stim", "stimulus": "", "internal_node_id": "0.0-155.0-0.0", "time_elapsed": 967838, "key_press": -1, "type": "PRE_RECALL_DELAY", "trial_index": 209}, "uniqueid": "MTK3230:3OXV7EAXLFXVB76OUAX47US3Q2G63C", "dateTime": 1520271276281}, {"current_trial": 210, "trialdata": {"rt": -1000, "trial_type": "single-audio", "stimulus": "/static/audio/400Hz.wav", "internal_node_id": "0.0-156.0", "time_elapsed": 968339, "key_press": -1, "type": "PRE_RECALL_ALERT", "trial_index": 210}, "uniqueid": "MTK3230:3OXV7EAXLFXVB76OUAX47US3Q2G63C", "dateTime": 1520271276782}, {"current_trial": 211, "trialdata": {"rt": [5301, 6932, 10100, 12508, 15052, 20700, 23204], "recwords": ["hornet", "wasp", "apple", "onion", "frezzer", "subway", "helmet"], "key_times": [3709, 3804, 4436, 4645, 4756, 4877, 5301, 6005, 6325, 6477, 6668, 6932, 9237, 9372, 9533, 9732, 9940, 10100, 10740, 11812, 11948, 12076, 12228, 12508, 13492, 13749, 13973, 14445, 14540, 14748, 14821, 15052, 16677, 16844, 18093, 18332, 18997, 19252, 19732, 20180, 20372, 20484, 20700, 21932, 22300, 22468, 22708, 22820, 22988, 23204], "trial_type": "free-recall", "conditions": [12, 800, "v", 12000], "internal_node_id": "0.0-157.0-0.0", "key_presses": [72, 79, 82, 78, 69, 84, 13, 87, 65, 83, 80, 13, 65, 80, 80, 76, 69, 13, 79, 78, 73, 79, 78, 13, 70, 82, 69, 90, 90, 69, 82, 13, 83, 80, 8, 8, 83, 85, 66, 87, 65, 89, 13, 72, 69, 76, 77, 69, 84, 13], "trial": 5, "time_elapsed": 1028342, "type": "FREE_RECALL", "trial_index": 211}, "uniqueid": "MTK3230:3OXV7EAXLFXVB76OUAX47US3Q2G63C", "dateTime": 1520271336787}, {"current_trial": 212, "trialdata": {"rt": 1520, "trial_type": "text", "internal_node_id": "0.0-158.0", "time_elapsed": 1031865, "key_press": 13, "type": "INSTRUCTIONS", "trial_index": 212}, "uniqueid": "MTK3230:3OXV7EAXLFXVB76OUAX47US3Q2G63C", "dateTime": 1520271340308}, {"current_trial": 213, "trialdata": {"rt": [2741, 5021, 6958, 8389, 10958], "trial_type": "math-distractor", "key_times": [2357, 2469, 2741, 4526, 4773, 5021, 6398, 6670, 6958, 8125, 8285, 8389, 10637, 10765, 10958], "responses": ["18", "17", "17", "11", "12"], "num2": [5, 2, 1, 5, 1, 1], "num3": [4, 8, 9, 5, 5, 7], "conditions": [12, 1600, "v", 12000], "internal_node_id": "0.0-159.0", "key_presses": [97, 104, 13, 97, 103, 13, 97, 103, 13, 97, 97, 13, 97, 98, 13], "trial": 6, "time_elapsed": 1045869, "type": "DISTRACTOR", "trial_index": 213, "num1": [9, 7, 7, 1, 6, 9]}, "uniqueid": "MTK3230:3OXV7EAXLFXVB76OUAX47US3Q2G63C", "dateTime": 1520271354312}, {"current_trial": 214, "trialdata": {"rt": -1, "trial_type": "single-stim", "stimulus": "<p id=\"stim\">10</p>", "internal_node_id": "0.0-160.0-0.0", "time_elapsed": 1048871, "key_press": -1, "trial_index": 214}, "uniqueid": "MTK3230:3OXV7EAXLFXVB76OUAX47US3Q2G63C", "dateTime": 1520271357314}, {"current_trial": 215, "trialdata": {"rt": -1, "trial_type": "single-stim", "stimulus": "<p id=\"stim\">9</p>", "internal_node_id": "0.0-160.0-1.0", "time_elapsed": 1049872, "key_press": -1, "trial_index": 215}, "uniqueid": "MTK3230:3OXV7EAXLFXVB76OUAX47US3Q2G63C", "dateTime": 1520271358315}, {"current_trial": 216, "trialdata": {"rt": -1, "trial_type": "single-stim", "stimulus": "<p id=\"stim\">8</p>", "internal_node_id": "0.0-160.0-2.0", "time_elapsed": 1050873, "key_press": -1, "trial_index": 216}, "uniqueid": "MTK3230:3OXV7EAXLFXVB76OUAX47US3Q2G63C", "dateTime": 1520271359316}, {"current_trial": 217, "trialdata": {"rt": -1, "trial_type": "single-stim", "stimulus": "<p id=\"stim\">7</p>", "internal_node_id": "0.0-160.0-3.0", "time_elapsed": 1051874, "key_press": -1, "trial_index": 217}, "uniqueid": "MTK3230:3OXV7EAXLFXVB76OUAX47US3Q2G63C", "dateTime": 1520271360317}, {"current_trial": 218, "trialdata": {"rt": -1, "trial_type": "single-stim", "stimulus": "<p id=\"stim\">6</p>", "internal_node_id": "0.0-160.0-4.0", "time_elapsed": 1052875, "key_press": -1, "trial_index": 218}, "uniqueid": "MTK3230:3OXV7EAXLFXVB76OUAX47US3Q2G63C", "dateTime": 1520271361318}, {"current_trial": 219, "trialdata": {"rt": -1, "trial_type": "single-stim", "stimulus": "<p id=\"stim\">5</p>", "internal_node_id": "0.0-160.0-5.0", "time_elapsed": 1053876, "key_press": -1, "trial_index": 219}, "uniqueid": "MTK3230:3OXV7EAXLFXVB76OUAX47US3Q2G63C", "dateTime": 1520271362319}, {"current_trial": 220, "trialdata": {"rt": -1, "trial_type": "single-stim", "stimulus": "<p id=\"stim\">4</p>", "internal_node_id": "0.0-160.0-6.0", "time_elapsed": 1054877, "key_press": -1, "trial_index": 220}, "uniqueid": "MTK3230:3OXV7EAXLFXVB76OUAX47US3Q2G63C", "dateTime": 1520271363320}, {"current_trial": 221, "trialdata": {"rt": -1, "trial_type": "single-stim", "stimulus": "<p id=\"stim\">3</p>", "internal_node_id": "0.0-160.0-7.0", "time_elapsed": 1055878, "key_press": -1, "trial_index": 221}, "uniqueid": "MTK3230:3OXV7EAXLFXVB76OUAX47US3Q2G63C", "dateTime": 1520271364321}, {"current_trial": 222, "trialdata": {"rt": -1, "trial_type": "single-stim", "stimulus": "<p id=\"stim\">2</p>", "internal_node_id": "0.0-160.0-8.0", "time_elapsed": 1056879, "key_press": -1, "trial_index": 222}, "uniqueid": "MTK3230:3OXV7EAXLFXVB76OUAX47US3Q2G63C", "dateTime": 1520271365322}, {"current_trial": 223, "trialdata": {"rt": -1, "trial_type": "single-stim", "stimulus": "<p id=\"stim\">1</p>", "internal_node_id": "0.0-160.0-9.0", "time_elapsed": 1057880, "key_press": -1, "trial_index": 223}, "uniqueid": "MTK3230:3OXV7EAXLFXVB76OUAX47US3Q2G63C", "dateTime": 1520271366323}, {"current_trial": 224, "trialdata": {"rt": -1, "trial_type": "single-stim", "stimulus": "<p id=\"stim\">+</p>", "internal_node_id": "0.0-161.0-0.0", "time_elapsed": 1059381, "key_press": -1, "type": "FIXATION", "trial_index": 224}, "uniqueid": "MTK3230:3OXV7EAXLFXVB76OUAX47US3Q2G63C", "dateTime": 1520271367824}, {"current_trial": 225, "trialdata": {"rt": -1, "trial_type": "single-stim", "word": "soda", "stimulus": "<p id=\"stim\">SODA</p>", "conditions": [12, 1600, "v", 12000], "internal_node_id": "0.0-162.0", "trial": 6, "time_elapsed": 1060983, "serialpos": 0, "key_press": -1, "wordID": 1340, "type": "PRES_VIS", "trial_index": 225}, "uniqueid": "MTK3230:3OXV7EAXLFXVB76OUAX47US3Q2G63C", "dateTime": 1520271369426}, {"current_trial": 226, "trialdata": {"rt": -1, "trial_type": "single-stim", "word": "lady", "stimulus": "<p id=\"stim\">LADY</p>", "conditions": [12, 1600, "v", 12000], "internal_node_id": "0.0-163.0", "trial": 6, "time_elapsed": 1063397, "serialpos": 1, "key_press": -1, "wordID": 793, "type": "PRES_VIS", "trial_index": 226}, "uniqueid": "MTK3230:3OXV7EAXLFXVB76OUAX47US3Q2G63C", "dateTime": 1520271371840}, {"current_trial": 227, "trialdata": {"rt": -1, "trial_type": "single-stim", "word": "notebook", "stimulus": "<p id=\"stim\">NOTEBOOK</p>", "conditions": [12, 1600, "v", 12000], "internal_node_id": "0.0-164.0", "trial": 6, "time_elapsed": 1066107, "serialpos": 2, "key_press": -1, "wordID": 958, "type": "PRES_VIS", "trial_index": 227}, "uniqueid": "MTK3230:3OXV7EAXLFXVB76OUAX47US3Q2G63C", "dateTime": 1520271374550}, {"current_trial": 228, "trialdata": {"rt": -1, "trial_type": "single-stim", "word": "leg", "stimulus": "<p id=\"stim\">LEG</p>", "conditions": [12, 1600, "v", 12000], "internal_node_id": "0.0-165.0", "trial": 6, "time_elapsed": 1068588, "serialpos": 3, "key_press": -1, "wordID": 808, "type": "PRES_VIS", "trial_index": 228}, "uniqueid": "MTK3230:3OXV7EAXLFXVB76OUAX47US3Q2G63C", "dateTime": 1520271377031}, {"current_trial": 229, "trialdata": {"rt": -1, "trial_type": "single-stim", "word": "kitchen", "stimulus": "<p id=\"stim\">KITCHEN</p>", "conditions": [12, 1600, "v", 12000], "internal_node_id": "0.0-166.0", "trial": 6, "time_elapsed": 1071173, "serialpos": 4, "key_press": -1, "wordID": 777, "type": "PRES_VIS", "trial_index": 229}, "uniqueid": "MTK3230:3OXV7EAXLFXVB76OUAX47US3Q2G63C", "dateTime": 1520271379617}, {"current_trial": 230, "trialdata": {"rt": -1, "trial_type": "single-stim", "word": "blockade", "stimulus": "<p id=\"stim\">BLOCKADE</p>", "conditions": [12, 1600, "v", 12000], "internal_node_id": "0.0-167.0", "trial": 6, "time_elapsed": 1073825, "serialpos": 5, "key_press": -1, "wordID": 136, "type": "PRES_VIS", "trial_index": 230}, "uniqueid": "MTK3230:3OXV7EAXLFXVB76OUAX47US3Q2G63C", "dateTime": 1520271382268}, {"current_trial": 231, "trialdata": {"rt": -1, "trial_type": "single-stim", "word": "lover", "stimulus": "<p id=\"stim\">LOVER</p>", "conditions": [12, 1600, "v", 12000], "internal_node_id": "0.0-168.0", "trial": 6, "time_elapsed": 1076436, "serialpos": 6, "key_press": -1, "wordID": 845, "type": "PRES_VIS", "trial_index": 231}, "uniqueid": "MTK3230:3OXV7EAXLFXVB76OUAX47US3Q2G63C", "dateTime": 1520271384879}, {"current_trial": 232, "trialdata": {"rt": -1, "trial_type": "single-stim", "word": "boyfriend", "stimulus": "<p id=\"stim\">BOYFRIEND</p>", "conditions": [12, 1600, "v", 12000], "internal_node_id": "0.0-169.0", "trial": 6, "time_elapsed": 1079144, "serialpos": 7, "key_press": -1, "wordID": 161, "type": "PRES_VIS", "trial_index": 232}, "uniqueid": "MTK3230:3OXV7EAXLFXVB76OUAX47US3Q2G63C", "dateTime": 1520271387587}, {"current_trial": 233, "trialdata": {"rt": -1, "trial_type": "single-stim", "word": "headband", "stimulus": "<p id=\"stim\">HEADBAND</p>", "conditions": [12, 1600, "v", 12000], "internal_node_id": "0.0-170.0", "trial": 6, "time_elapsed": 1081593, "serialpos": 8, "key_press": -1, "wordID": 695, "type": "PRES_VIS", "trial_index": 233}, "uniqueid": "MTK3230:3OXV7EAXLFXVB76OUAX47US3Q2G63C", "dateTime": 1520271390036}, {"current_trial": 234, "trialdata": {"rt": -1, "trial_type": "single-stim", "word": "mars", "stimulus": "<p id=\"stim\">MARS</p>", "conditions": [12, 1600, "v", 12000], "internal_node_id": "0.0-171.0", "trial": 6, "time_elapsed": 1084392, "serialpos": 9, "key_press": -1, "wordID": 872, "type": "PRES_VIS", "trial_index": 234}, "uniqueid": "MTK3230:3OXV7EAXLFXVB76OUAX47US3Q2G63C", "dateTime": 1520271392835}, {"current_trial": 235, "trialdata": {"rt": -1, "trial_type": "single-stim", "word": "hamper", "stimulus": "<p id=\"stim\">HAMPER</p>", "conditions": [12, 1600, "v", 12000], "internal_node_id": "0.0-172.0", "trial": 6, "time_elapsed": 1086832, "serialpos": 10, "key_press": -1, "wordID": 681, "type": "PRES_VIS", "trial_index": 235}, "uniqueid": "MTK3230:3OXV7EAXLFXVB76OUAX47US3Q2G63C", "dateTime": 1520271395275}, {"current_trial": 236, "trialdata": {"rt": -1, "trial_type": "single-stim", "word": "stove", "stimulus": "<p id=\"stim\">STOVE</p>", "conditions": [12, 1600, "v", 12000], "internal_node_id": "0.0-173.0", "trial": 6, "time_elapsed": 1089605, "serialpos": 11, "key_press": -1, "wordID": 1387, "type": "PRES_VIS", "trial_index": 236}, "uniqueid": "MTK3230:3OXV7EAXLFXVB76OUAX47US3Q2G63C", "dateTime": 1520271398048}, {"current_trial": 237, "trialdata": {"rt": -1, "trial_type": "single-stim", "stimulus": "", "internal_node_id": "0.0-174.0-0.0", "time_elapsed": 1091857, "key_press": -1, "type": "PRE_RECALL_DELAY", "trial_index": 237}, "uniqueid": "MTK3230:3OXV7EAXLFXVB76OUAX47US3Q2G63C", "dateTime": 1520271400300}, {"current_trial": 238, "trialdata": {"rt": -1000, "trial_type": "single-audio", "stimulus": "/static/audio/400Hz.wav", "internal_node_id": "0.0-175.0", "time_elapsed": 1092357, "key_press": -1, "type": "PRE_RECALL_ALERT", "trial_index": 238}, "uniqueid": "MTK3230:3OXV7EAXLFXVB76OUAX47US3Q2G63C", "dateTime": 1520271400800}, {"current_trial": 239, "trialdata": {"rt": [4179, 5611, 9938, 13363, 14595, 17371, 18762, 28250], "recwords": ["lady", "lover", "boyfriend", "soda", "leg", "mars", "stove", "notebook"], "key_times": [3251, 3474, 3699, 3771, 4179, 4755, 4970, 5123, 5290, 5347, 5611, 6202, 6419, 6571, 6666, 7026, 7394, 7562, 7698, 7978, 8442, 8859, 9027, 9242, 9379, 9570, 9938, 12747, 12866, 13034, 13202, 13363, 14130, 14250, 14434, 14595, 16563, 16715, 16898, 17187, 17371, 17691, 17866, 18059, 18378, 18563, 18762, 21219, 21410, 21715, 21994, 22139, 22290, 24067, 24218, 24378, 24530, 24674, 25250, 25419, 25594, 25834, 25930, 26114, 26794, 27082, 27194, 28250], "trial_type": "free-recall", "conditions": [12, 1600, "v", 12000], "internal_node_id": "0.0-176.0-0.0", "key_presses": [76, 65, 68, 89, 13, 76, 79, 86, 69, 82, 13, 66, 79, 82, 89, 70, 8, 8, 8, 89, 70, 82, 73, 69, 78, 68, 13, 83, 79, 68, 65, 13, 76, 69, 71, 13, 77, 65, 82, 83, 13, 83, 84, 79, 86, 69, 13, 78, 69, 66, 79, 79, 75, 8, 8, 8, 8, 8, 79, 84, 69, 66, 79, 75, 8, 79, 75, 13], "trial": 6, "time_elapsed": 1152361, "type": "FREE_RECALL", "trial_index": 239}, "uniqueid": "MTK3230:3OXV7EAXLFXVB76OUAX47US3Q2G63C", "dateTime": 1520271460806}, {"current_trial": 240, "trialdata": {"rt": 1741, "trial_type": "text", "internal_node_id": "0.0-177.0", "time_elapsed": 1156105, "key_press": 32, "type": "INSTRUCTIONS", "trial_index": 240}, "uniqueid": "MTK3230:3OXV7EAXLFXVB76OUAX47US3Q2G63C", "dateTime": 1520271464548}, {"current_trial": 241, "trialdata": {"rt": [2382, 3950, 6453, 10365, 12941, 15445, 19061, 21014], "trial_type": "math-distractor", "key_times": [1973, 2117, 2382, 3661, 3821, 3950, 5854, 6237, 6453, 10086, 10157, 10365, 12549, 12678, 12941, 15045, 15261, 15445, 18781, 18901, 19061, 20510, 20741, 21014, 23757, 23902], "responses": ["16", "11", "24", "13", "15", "13", "21", "17"], "num2": [2, 8, 8, 3, 8, 4, 7, 5, 3], "num3": [8, 1, 9, 3, 1, 6, 6, 5, 3], "conditions": [24, 1600, "v", 24000], "internal_node_id": "0.0-178.0", "key_presses": [97, 102, 13, 97, 97, 13, 98, 100, 13, 97, 99, 13, 97, 101, 13, 97, 99, 13, 98, 97, 13, 97, 103, 13, 97, 99], "trial": 7, "time_elapsed": 1182108, "type": "DISTRACTOR", "trial_index": 241, "num1": [4, 2, 7, 7, 6, 3, 8, 7, 7]}, "uniqueid": "MTK3230:3OXV7EAXLFXVB76OUAX47US3Q2G63C", "dateTime": 1520271490551}, {"current_trial": 242, "trialdata": {"rt": -1, "trial_type": "single-stim", "stimulus": "<p id=\"stim\">10</p>", "internal_node_id": "0.0-179.0-0.0", "time_elapsed": 1185111, "key_press": -1, "trial_index": 242}, "uniqueid": "MTK3230:3OXV7EAXLFXVB76OUAX47US3Q2G63C", "dateTime": 1520271493554}, {"current_trial": 243, "trialdata": {"rt": -1, "trial_type": "single-stim", "stimulus": "<p id=\"stim\">9</p>", "internal_node_id": "0.0-179.0-1.0", "time_elapsed": 1186112, "key_press": -1, "trial_index": 243}, "uniqueid": "MTK3230:3OXV7EAXLFXVB76OUAX47US3Q2G63C", "dateTime": 1520271494555}, {"current_trial": 244, "trialdata": {"rt": -1, "trial_type": "single-stim", "stimulus": "<p id=\"stim\">8</p>", "internal_node_id": "0.0-179.0-2.0", "time_elapsed": 1187113, "key_press": -1, "trial_index": 244}, "uniqueid": "MTK3230:3OXV7EAXLFXVB76OUAX47US3Q2G63C", "dateTime": 1520271495556}, {"current_trial": 245, "trialdata": {"rt": -1, "trial_type": "single-stim", "stimulus": "<p id=\"stim\">7</p>", "internal_node_id": "0.0-179.0-3.0", "time_elapsed": 1188114, "key_press": -1, "trial_index": 245}, "uniqueid": "MTK3230:3OXV7EAXLFXVB76OUAX47US3Q2G63C", "dateTime": 1520271496557}, {"current_trial": 246, "trialdata": {"rt": -1, "trial_type": "single-stim", "stimulus": "<p id=\"stim\">6</p>", "internal_node_id": "0.0-179.0-4.0", "time_elapsed": 1189115, "key_press": -1, "trial_index": 246}, "uniqueid": "MTK3230:3OXV7EAXLFXVB76OUAX47US3Q2G63C", "dateTime": 1520271497558}, {"current_trial": 247, "trialdata": {"rt": -1, "trial_type": "single-stim", "stimulus": "<p id=\"stim\">5</p>", "internal_node_id": "0.0-179.0-5.0", "time_elapsed": 1190116, "key_press": -1, "trial_index": 247}, "uniqueid": "MTK3230:3OXV7EAXLFXVB76OUAX47US3Q2G63C", "dateTime": 1520271498559}, {"current_trial": 248, "trialdata": {"rt": -1, "trial_type": "single-stim", "stimulus": "<p id=\"stim\">4</p>", "internal_node_id": "0.0-179.0-6.0", "time_elapsed": 1191117, "key_press": -1, "trial_index": 248}, "uniqueid": "MTK3230:3OXV7EAXLFXVB76OUAX47US3Q2G63C", "dateTime": 1520271499560}, {"current_trial": 249, "trialdata": {"rt": -1, "trial_type": "single-stim", "stimulus": "<p id=\"stim\">3</p>", "internal_node_id": "0.0-179.0-7.0", "time_elapsed": 1192118, "key_press": -1, "trial_index": 249}, "uniqueid": "MTK3230:3OXV7EAXLFXVB76OUAX47US3Q2G63C", "dateTime": 1520271500561}, {"current_trial": 250, "trialdata": {"rt": -1, "trial_type": "single-stim", "stimulus": "<p id=\"stim\">2</p>", "internal_node_id": "0.0-179.0-8.0", "time_elapsed": 1193120, "key_press": -1, "trial_index": 250}, "uniqueid": "MTK3230:3OXV7EAXLFXVB76OUAX47US3Q2G63C", "dateTime": 1520271501563}, {"current_trial": 251, "trialdata": {"rt": -1, "trial_type": "single-stim", "stimulus": "<p id=\"stim\">1</p>", "internal_node_id": "0.0-179.0-9.0", "time_elapsed": 1194121, "key_press": -1, "trial_index": 251}, "uniqueid": "MTK3230:3OXV7EAXLFXVB76OUAX47US3Q2G63C", "dateTime": 1520271502564}, {"current_trial": 252, "trialdata": {"rt": -1, "trial_type": "single-stim", "stimulus": "<p id=\"stim\">+</p>", "internal_node_id": "0.0-180.0-0.0", "time_elapsed": 1195622, "key_press": -1, "type": "FIXATION", "trial_index": 252}, "uniqueid": "MTK3230:3OXV7EAXLFXVB76OUAX47US3Q2G63C", "dateTime": 1520271504065}, {"current_trial": 253, "trialdata": {"rt": -1, "trial_type": "single-stim", "word": "po