{"assignmentId": "3WOKGM4L72NPJLDVBJ1FMWGN7ZXO0C", "workerId": "MTK3049", "questiondata": {"origin": "France", "strat-rehearsal": "6", "marital": "Married/Domestic Partnership", "education": "Bachelor's degree", "ethnicity": "Not Hispanic", "color_depth": 24, "distracted": "No", "wrote-notes": "No", "strat-other": "", "screen_width": 1920, "avail_screen_width": 1920, "avail_screen_height": 962, "strat-image": "3", "language": "English", "gender": "Male", "age": "65", "gender_other": "", "race": ["White"], "strat-categorize": "100", "pixel_depth": 24, "strat-spatial": "0", "strat-story": "2", "race_other": "", "screen_height": 1080}, "bonus": 0, "hitId": "3KI0JD2ZU1PBP69H6KVSVR8Z90B67L", "counterbalance": 297, "useragent": "Mozilla/5.0 (Macintosh; Intel Mac OS X 10_13_3) AppleWebKit/537.36 (KHTML, like Gecko) Chrome/64.0.3282.167 Safari/537.36", "eventdata": [{"eventtype": "initialized", "interval": 0, "value": null, "timestamp": 1519675429111}, {"eventtype": "window_resize", "interval": 0, "value": [1920, 914], "timestamp": 1519675429111}], "data": [{"current_trial": 0, "trialdata": {"rt": 2000, "trial_type": "text", "internal_node_id": "0.0-0.0", "time_elapsed": 2002, "key_press": 32, "type": "INSTRUCTIONS", "trial_index": 0}, "uniqueid": "MTK3049:3WOKGM4L72NPJLDVBJ1FMWGN7ZXO0C", "dateTime": 1519675452859}, {"current_trial": 1, "trialdata": {"rt": 49880, "trial_type": "text", "internal_node_id": "0.0-1.0", "time_elapsed": 51884, "key_press": 32, "type": "INSTRUCTIONS", "trial_index": 1}, "uniqueid": "MTK3049:3WOKGM4L72NPJLDVBJ1FMWGN7ZXO0C", "dateTime": 1519675502740}, {"current_trial": 2, "trialdata": {"rt": [11939], "trial_type": "audio-test", "responses": ["ocean"], "internal_node_id": "0.0-2.0", "time_elapsed": 63832, "type": "AUDIO_TEST", "trial_index": 2}, "uniqueid": "MTK3049:3WOKGM4L72NPJLDVBJ1FMWGN7ZXO0C", "dateTime": 1519675514688}, {"current_trial": 3, "trialdata": {"rt": [10684], "trial_type": "audio-test", "responses": ["crystal"], "internal_node_id": "0.0-3.0", "time_elapsed": 74519, "type": "AUDIO_TEST", "trial_index": 3}, "uniqueid": "MTK3049:3WOKGM4L72NPJLDVBJ1FMWGN7ZXO0C", "dateTime": 1519675525375}, {"current_trial": 4, "trialdata": {"rt": [6599], "trial_type": "audio-test", "responses": ["spice"], "internal_node_id": "0.0-4.0", "time_elapsed": 81123, "type": "AUDIO_TEST", "trial_index": 4}, "uniqueid": "MTK3049:3WOKGM4L72NPJLDVBJ1FMWGN7ZXO0C", "dateTime": 1519675531979}, {"current_trial": 5, "trialdata": {"rt": 27713, "trial_type": "survey-text", "responses": "{\"Q0\":\"10pm\",\"Q1\":\"5am\",\"Q2\":\"5\"}", "internal_node_id": "0.0-5.0", "time_elapsed": 109592, "type": "SLEEP_SURVEY", "trial_index": 5}, "uniqueid": "MTK3049:3WOKGM4L72NPJLDVBJ1FMWGN7ZXO0C", "dateTime": 1519675560448}, {"current_trial": 6, "trialdata": {"rt": 43628, "trial_type": "text", "internal_node_id": "0.0-6.0", "time_elapsed": 154224, "key_press": 32, "type": "INSTRUCTIONS", "trial_index": 6}, "uniqueid": "MTK3049:3WOKGM4L72NPJLDVBJ1FMWGN7ZXO0C", "dateTime": 1519675605080}, {"current_trial": 7, "trialdata": {"rt": 16147, "trial_type": "text", "internal_node_id": "0.0-7.0", "time_elapsed": 170876, "key_press": 32, "type": "INSTRUCTIONS", "trial_index": 7}, "uniqueid": "MTK3049:3WOKGM4L72NPJLDVBJ1FMWGN7ZXO0C", "dateTime": 1519675621732}, {"current_trial": 8, "trialdata": {"rt": 25370, "trial_type": "text", "internal_node_id": "0.0-8.0", "time_elapsed": 196750, "key_press": 32, "type": "INSTRUCTIONS", "trial_index": 8}, "uniqueid": "MTK3049:3WOKGM4L72NPJLDVBJ1FMWGN7ZXO0C", "dateTime": 1519675647606}, {"current_trial": 9, "trialdata": {"rt": [4305, 6948, 8972, 11369, 13596, 16634], "trial_type": "math-distractor", "key_times": [2571, 3033, 4305, 5823, 6464, 6948, 8748, 8972, 10514, 11066, 11369, 12798, 13337, 13596, 16173, 16308, 16634, 17927], "responses": ["14", "17", "8", "19", "18", "21"], "num2": [8, 7, 4, 8, 8, 8, 1], "num3": [3, 3, 3, 7, 1, 8, 4], "conditions": [18, 1200, "a", 18000], "internal_node_id": "0.0-9.0", "key_presses": [49, 52, 13, 49, 55, 13, 56, 13, 49, 57, 13, 49, 56, 13, 50, 49, 13, 49], "trial": 0, "time_elapsed": 215762, "type": "DISTRACTOR", "trial_index": 9, "num1": [3, 7, 1, 4, 9, 5, 9]}, "uniqueid": "MTK3049:3WOKGM4L72NPJLDVBJ1FMWGN7ZXO0C", "dateTime": 1519675666618}, {"current_trial": 10, "trialdata": {"rt": -1, "trial_type": "single-stim", "stimulus": "<p id=\"stim\">10</p>", "internal_node_id": "0.0-10.0-0.0", "time_elapsed": 218771, "key_press": -1, "trial_index": 10}, "uniqueid": "MTK3049:3WOKGM4L72NPJLDVBJ1FMWGN7ZXO0C", "dateTime": 1519675669627}, {"current_trial": 11, "trialdata": {"rt": -1, "trial_type": "single-stim", "stimulus": "<p id=\"stim\">9</p>", "internal_node_id": "0.0-10.0-1.0", "time_elapsed": 219776, "key_press": -1, "trial_index": 11}, "uniqueid": "MTK3049:3WOKGM4L72NPJLDVBJ1FMWGN7ZXO0C", "dateTime": 1519675670632}, {"current_trial": 12, "trialdata": {"rt": -1, "trial_type": "single-stim", "stimulus": "<p id=\"stim\">8</p>", "internal_node_id": "0.0-10.0-2.0", "time_elapsed": 220781, "key_press": -1, "trial_index": 12}, "uniqueid": "MTK3049:3WOKGM4L72NPJLDVBJ1FMWGN7ZXO0C", "dateTime": 1519675671637}, {"current_trial": 13, "trialdata": {"rt": -1, "trial_type": "single-stim", "stimulus": "<p id=\"stim\">7</p>", "internal_node_id": "0.0-10.0-3.0", "time_elapsed": 221785, "key_press": -1, "trial_index": 13}, "uniqueid": "MTK3049:3WOKGM4L72NPJLDVBJ1FMWGN7ZXO0C", "dateTime": 1519675672641}, {"current_trial": 14, "trialdata": {"rt": -1, "trial_type": "single-stim", "stimulus": "<p id=\"stim\">6</p>", "internal_node_id": "0.0-10.0-4.0", "time_elapsed": 222789, "key_press": -1, "trial_index": 14}, "uniqueid": "MTK3049:3WOKGM4L72NPJLDVBJ1FMWGN7ZXO0C", "dateTime": 1519675673645}, {"current_trial": 15, "trialdata": {"rt": -1, "trial_type": "single-stim", "stimulus": "<p id=\"stim\">5</p>", "internal_node_id": "0.0-10.0-5.0", "time_elapsed": 223792, "key_press": -1, "trial_index": 15}, "uniqueid": "MTK3049:3WOKGM4L72NPJLDVBJ1FMWGN7ZXO0C", "dateTime": 1519675674649}, {"current_trial": 16, "trialdata": {"rt": -1, "trial_type": "single-stim", "stimulus": "<p id=\"stim\">4</p>", "internal_node_id": "0.0-10.0-6.0", "time_elapsed": 224794, "key_press": -1, "trial_index": 16}, "uniqueid": "MTK3049:3WOKGM4L72NPJLDVBJ1FMWGN7ZXO0C", "dateTime": 1519675675650}, {"current_trial": 17, "trialdata": {"rt": -1, "trial_type": "single-stim", "stimulus": "<p id=\"stim\">3</p>", "internal_node_id": "0.0-10.0-7.0", "time_elapsed": 225800, "key_press": -1, "trial_index": 17}, "uniqueid": "MTK3049:3WOKGM4L72NPJLDVBJ1FMWGN7ZXO0C", "dateTime": 1519675676656}, {"current_trial": 18, "trialdata": {"rt": -1, "trial_type": "single-stim", "stimulus": "<p id=\"stim\">2</p>", "internal_node_id": "0.0-10.0-8.0", "time_elapsed": 226805, "key_press": -1, "trial_index": 18}, "uniqueid": "MTK3049:3WOKGM4L72NPJLDVBJ1FMWGN7ZXO0C", "dateTime": 1519675677661}, {"current_trial": 19, "trialdata": {"rt": -1, "trial_type": "single-stim", "stimulus": "<p id=\"stim\">1</p>", "internal_node_id": "0.0-10.0-9.0", "time_elapsed": 227809, "key_press": -1, "trial_index": 19}, "uniqueid": "MTK3049:3WOKGM4L72NPJLDVBJ1FMWGN7ZXO0C", "dateTime": 1519675678666}, {"current_trial": 20, "trialdata": {"rt": -1, "trial_type": "single-stim", "stimulus": "<p id=\"stim\">+</p>", "internal_node_id": "0.0-11.0-0.0", "time_elapsed": 229313, "key_press": -1, "type": "FIXATION", "trial_index": 20}, "uniqueid": "MTK3049:3WOKGM4L72NPJLDVBJ1FMWGN7ZXO0C", "dateTime": 1519675680169}, {"current_trial": 21, "trialdata": {"rt": -1000, "trial_type": "single-audio", "word": "dandruff", "stimulus": "/static/audio/wordpool/DANDRUFF.wav", "conditions": [18, 1200, "a", 18000], "internal_node_id": "0.0-12.0", "trial": 0, "time_elapsed": 231357, "serialpos": 0, "key_press": -1, "wordID": 438, "type": "PRES_AUD", "trial_index": 21}, "uniqueid": "MTK3049:3WOKGM4L72NPJLDVBJ1FMWGN7ZXO0C", "dateTime": 1519675682213}, {"current_trial": 22, "trialdata": {"rt": -1000, "trial_type": "single-audio", "word": "fireman", "stimulus": "/static/audio/wordpool/FIREMAN.wav", "conditions": [18, 1200, "a", 18000], "internal_node_id": "0.0-13.0", "trial": 0, "time_elapsed": 233744, "serialpos": 1, "key_press": -1, "wordID": 568, "type": "PRES_AUD", "trial_index": 22}, "uniqueid": "MTK3049:3WOKGM4L72NPJLDVBJ1FMWGN7ZXO0C", "dateTime": 1519675684600}, {"current_trial": 23, "trialdata": {"rt": -1000, "trial_type": "single-audio", "word": "island", "stimulus": "/static/audio/wordpool/ISLAND.wav", "conditions": [18, 1200, "a", 18000], "internal_node_id": "0.0-14.0", "trial": 0, "time_elapsed": 235860, "serialpos": 2, "key_press": -1, "wordID": 744, "type": "PRES_AUD", "trial_index": 23}, "uniqueid": "MTK3049:3WOKGM4L72NPJLDVBJ1FMWGN7ZXO0C", "dateTime": 1519675686716}, {"current_trial": 24, "trialdata": {"rt": -1000, "trial_type": "single-audio", "word": "concert", "stimulus": "/static/audio/wordpool/CONCERT.wav", "conditions": [18, 1200, "a", 18000], "internal_node_id": "0.0-15.0", "trial": 0, "time_elapsed": 237969, "serialpos": 3, "key_press": -1, "wordID": 359, "type": "PRES_AUD", "trial_index": 24}, "uniqueid": "MTK3049:3WOKGM4L72NPJLDVBJ1FMWGN7ZXO0C", "dateTime": 1519675688825}, {"current_trial": 25, "trialdata": {"rt": -1000, "trial_type": "single-audio", "word": "hatchet", "stimulus": "/static/audio/wordpool/HATCHET.wav", "conditions": [18, 1200, "a", 18000], "internal_node_id": "0.0-16.0", "trial": 0, "time_elapsed": 240209, "serialpos": 4, "key_press": -1, "wordID": 690, "type": "PRES_AUD", "trial_index": 25}, "uniqueid": "MTK3049:3WOKGM4L72NPJLDVBJ1FMWGN7ZXO0C", "dateTime": 1519675691065}, {"current_trial": 26, "trialdata": {"rt": -1000, "trial_type": "single-audio", "word": "dancer", "stimulus": "/static/audio/wordpool/DANCER.wav", "conditions": [18, 1200, "a", 18000], "internal_node_id": "0.0-17.0", "trial": 0, "time_elapsed": 242229, "serialpos": 5, "key_press": -1, "wordID": 436, "type": "PRES_AUD", "trial_index": 26}, "uniqueid": "MTK3049:3WOKGM4L72NPJLDVBJ1FMWGN7ZXO0C", "dateTime": 1519675693085}, {"current_trial": 27, "trialdata": {"rt": -1000, "trial_type": "single-audio", "word": "banker", "stimulus": "/static/audio/wordpool/BANKER.wav", "conditions": [18, 1200, "a", 18000], "internal_node_id": "0.0-18.0", "trial": 0, "time_elapsed": 244580, "serialpos": 6, "key_press": -1, "wordID": 83, "type": "PRES_AUD", "trial_index": 27}, "uniqueid": "MTK3049:3WOKGM4L72NPJLDVBJ1FMWGN7ZXO0C", "dateTime": 1519675695436}, {"current_trial": 28, "trialdata": {"rt": -1000, "trial_type": "single-audio", "word": "crown", "stimulus": "/static/audio/wordpool/CROWN.wav", "conditions": [18, 1200, "a", 18000], "internal_node_id": "0.0-19.0", "trial": 0, "time_elapsed": 246969, "serialpos": 7, "key_press": -1, "wordID": 414, "type": "PRES_AUD", "trial_index": 28}, "uniqueid": "MTK3049:3WOKGM4L72NPJLDVBJ1FMWGN7ZXO0C", "dateTime": 1519675697825}, {"current_trial": 29, "trialdata": {"rt": -1000, "trial_type": "single-audio", "word": "kidney", "stimulus": "/static/audio/wordpool/KIDNEY.wav", "conditions": [18, 1200, "a", 18000], "internal_node_id": "0.0-20.0", "trial": 0, "time_elapsed": 248996, "serialpos": 8, "key_press": -1, "wordID": 775, "type": "PRES_AUD", "trial_index": 29}, "uniqueid": "MTK3049:3WOKGM4L72NPJLDVBJ1FMWGN7ZXO0C", "dateTime": 1519675699852}, {"current_trial": 30, "trialdata": {"rt": -1000, "trial_type": "single-audio", "word": "coin", "stimulus": "/static/audio/wordpool/COIN.wav", "conditions": [18, 1200, "a", 18000], "internal_node_id": "0.0-21.0", "trial": 0, "time_elapsed": 251137, "serialpos": 9, "key_press": -1, "wordID": 342, "type": "PRES_AUD", "trial_index": 30}, "uniqueid": "MTK3049:3WOKGM4L72NPJLDVBJ1FMWGN7ZXO0C", "dateTime": 1519675701993}, {"current_trial": 31, "trialdata": {"rt": -1000, "trial_type": "single-audio", "word": "smog", "stimulus": "/static/audio/wordpool/SMOG.wav", "conditions": [18, 1200, "a", 18000], "internal_node_id": "0.0-22.0", "trial": 0, "time_elapsed": 253522, "serialpos": 10, "key_press": -1, "wordID": 1329, "type": "PRES_AUD", "trial_index": 31}, "uniqueid": "MTK3049:3WOKGM4L72NPJLDVBJ1FMWGN7ZXO0C", "dateTime": 1519675704378}, {"current_trial": 32, "trialdata": {"rt": -1000, "trial_type": "single-audio", "word": "mummy", "stimulus": "/static/audio/wordpool/MUMMY.wav", "conditions": [18, 1200, "a", 18000], "internal_node_id": "0.0-23.0", "trial": 0, "time_elapsed": 255793, "serialpos": 11, "key_press": -1, "wordID": 931, "type": "PRES_AUD", "trial_index": 32}, "uniqueid": "MTK3049:3WOKGM4L72NPJLDVBJ1FMWGN7ZXO0C", "dateTime": 1519675706649}, {"current_trial": 33, "trialdata": {"rt": -1000, "trial_type": "single-audio", "word": "drug", "stimulus": "/static/audio/wordpool/DRUG.wav", "conditions": [18, 1200, "a", 18000], "internal_node_id": "0.0-24.0", "trial": 0, "time_elapsed": 258090, "serialpos": 12, "key_press": -1, "wordID": 500, "type": "PRES_AUD", "trial_index": 33}, "uniqueid": "MTK3049:3WOKGM4L72NPJLDVBJ1FMWGN7ZXO0C", "dateTime": 1519675708946}, {"current_trial": 34, "trialdata": {"rt": -1000, "trial_type": "single-audio", "word": "napkin", "stimulus": "/static/audio/wordpool/NAPKIN.wav", "conditions": [18, 1200, "a", 18000], "internal_node_id": "0.0-25.0", "trial": 0, "time_elapsed": 260489, "serialpos": 13, "key_press": -1, "wordID": 936, "type": "PRES_AUD", "trial_index": 34}, "uniqueid": "MTK3049:3WOKGM4L72NPJLDVBJ1FMWGN7ZXO0C", "dateTime": 1519675711345}, {"current_trial": 35, "trialdata": {"rt": -1000, "trial_type": "single-audio", "word": "flask", "stimulus": "/static/audio/wordpool/FLASK.wav", "conditions": [18, 1200, "a", 18000], "internal_node_id": "0.0-26.0", "trial": 0, "time_elapsed": 262637, "serialpos": 14, "key_press": -1, "wordID": 575, "type": "PRES_AUD", "trial_index": 35}, "uniqueid": "MTK3049:3WOKGM4L72NPJLDVBJ1FMWGN7ZXO0C", "dateTime": 1519675713494}, {"current_trial": 36, "trialdata": {"rt": -1000, "trial_type": "single-audio", "word": "cocktail", "stimulus": "/static/audio/wordpool/COCKTAIL.wav", "conditions": [18, 1200, "a", 18000], "internal_node_id": "0.0-27.0", "trial": 0, "time_elapsed": 264841, "serialpos": 15, "key_press": -1, "wordID": 337, "type": "PRES_AUD", "trial_index": 36}, "uniqueid": "MTK3049:3WOKGM4L72NPJLDVBJ1FMWGN7ZXO0C", "dateTime": 1519675715698}, {"current_trial": 37, "trialdata": {"rt": -1000, "trial_type": "single-audio", "word": "pigment", "stimulus": "/static/audio/wordpool/PIGMENT.wav", "conditions": [18, 1200, "a", 18000], "internal_node_id": "0.0-28.0", "trial": 0, "time_elapsed": 267046, "serialpos": 16, "key_press": -1, "wordID": 1065, "type": "PRES_AUD", "trial_index": 37}, "uniqueid": "MTK3049:3WOKGM4L72NPJLDVBJ1FMWGN7ZXO0C", "dateTime": 1519675717902}, {"current_trial": 38, "trialdata": {"rt": -1000, "trial_type": "single-audio", "word": "mammal", "stimulus": "/static/audio/wordpool/MAMMAL.wav", "conditions": [18, 1200, "a", 18000], "internal_node_id": "0.0-29.0", "trial": 0, "time_elapsed": 269222, "serialpos": 17, "key_press": -1, "wordID": 860, "type": "PRES_AUD", "trial_index": 38}, "uniqueid": "MTK3049:3WOKGM4L72NPJLDVBJ1FMWGN7ZXO0C", "dateTime": 1519675720078}, {"current_trial": 39, "trialdata": {"rt": -1, "trial_type": "single-stim", "stimulus": "", "internal_node_id": "0.0-30.0-0.0", "time_elapsed": 270516, "key_press": -1, "type": "PRE_RECALL_DELAY", "trial_index": 39}, "uniqueid": "MTK3049:3WOKGM4L72NPJLDVBJ1FMWGN7ZXO0C", "dateTime": 1519675721372}, {"current_trial": 40, "trialdata": {"rt": -1000, "trial_type": "single-audio", "stimulus": "/static/audio/400Hz.wav", "internal_node_id": "0.0-31.0", "time_elapsed": 271017, "key_press": -1, "type": "PRE_RECALL_ALERT", "trial_index": 40}, "uniqueid": "MTK3049:3WOKGM4L72NPJLDVBJ1FMWGN7ZXO0C", "dateTime": 1519675721873}, {"current_trial": 41, "trialdata": {"rt": [3796, 7553, 9590, 12087, 16745, 20303, 25520, 28118, 56301], "recwords": ["mammal", "cocktail", "mommy", "flask", "firemen", "island", "hatchet", "", ""], "key_times": [1053, 1186, 1332, 1489, 1636, 2018, 3796, 4516, 4718, 4910, 5169, 5607, 5820, 6090, 6339, 7553, 7992, 8251, 8521, 8690, 9140, 9590, 10118, 10298, 10513, 10602, 10995, 12087, 13258, 13471, 13718, 13831, 14067, 14697, 14854, 16745, 17487, 17712, 17926, 18139, 18286, 18623, 20303, 20760, 20907, 21064, 21256, 21470, 21661, 22010, 25520, 28118, 56301], "trial_type": "free-recall", "conditions": [18, 1200, "a", 18000], "internal_node_id": "0.0-32.0-0.0", "key_presses": [77, 65, 77, 77, 65, 76, 13, 67, 79, 67, 75, 84, 65, 73, 76, 13, 77, 79, 77, 77, 89, 13, 70, 76, 65, 83, 75, 13, 70, 73, 82, 69, 77, 69, 78, 13, 73, 83, 76, 65, 78, 68, 13, 72, 65, 84, 67, 72, 69, 84, 13, 13, 32], "trial": 0, "time_elapsed": 331025, "type": "FREE_RECALL", "trial_index": 41}, "uniqueid": "MTK3049:3WOKGM4L72NPJLDVBJ1FMWGN7ZXO0C", "dateTime": 1519675781882}, {"current_trial": 42, "trialdata": {"rt": 2199, "trial_type": "text", "internal_node_id": "0.0-33.0", "time_elapsed": 335226, "key_press": 32, "type": "INSTRUCTIONS", "trial_index": 42}, "uniqueid": "MTK3049:3WOKGM4L72NPJLDVBJ1FMWGN7ZXO0C", "dateTime": 1519675786082}, {"current_trial": 43, "trialdata": {"rt": [2866, 4767, 6477, 9233, 11450, 13329, 15702], "trial_type": "math-distractor", "key_times": [1798, 2247, 2866, 4497, 4767, 6253, 6477, 8637, 8896, 9233, 11078, 11202, 11450, 12959, 13114, 13329, 14926, 15702], "responses": ["15", "9", "9", "11", "12", "22", "8"], "num2": [1, 2, 5, 3, 7, 8, 2, 4], "num3": [7, 6, 3, 4, 1, 5, 4, 9], "conditions": [18, 1200, "a", 18000], "internal_node_id": "0.0-34.0", "key_presses": [49, 53, 13, 57, 13, 57, 13, 49, 49, 13, 49, 50, 13, 50, 50, 13, 56, 13], "trial": 1, "time_elapsed": 355235, "type": "DISTRACTOR", "trial_index": 43, "num1": [7, 1, 1, 4, 4, 9, 2, 9]}, "uniqueid": "MTK3049:3WOKGM4L72NPJLDVBJ1FMWGN7ZXO0C", "dateTime": 1519675806092}, {"current_trial": 44, "trialdata": {"rt": -1, "trial_type": "single-stim", "stimulus": "<p id=\"stim\">10</p>", "internal_node_id": "0.0-35.0-0.0", "time_elapsed": 358247, "key_press": -1, "trial_index": 44}, "uniqueid": "MTK3049:3WOKGM4L72NPJLDVBJ1FMWGN7ZXO0C", "dateTime": 1519675809103}, {"current_trial": 45, "trialdata": {"rt": -1, "trial_type": "single-stim", "stimulus": "<p id=\"stim\">9</p>", "internal_node_id": "0.0-35.0-1.0", "time_elapsed": 359251, "key_press": -1, "trial_index": 45}, "uniqueid": "MTK3049:3WOKGM4L72NPJLDVBJ1FMWGN7ZXO0C", "dateTime": 1519675810107}, {"current_trial": 46, "trialdata": {"rt": -1, "trial_type": "single-stim", "stimulus": "<p id=\"stim\">8</p>", "internal_node_id": "0.0-35.0-2.0", "time_elapsed": 360255, "key_press": -1, "trial_index": 46}, "uniqueid": "MTK3049:3WOKGM4L72NPJLDVBJ1FMWGN7ZXO0C", "dateTime": 1519675811111}, {"current_trial": 47, "trialdata": {"rt": -1, "trial_type": "single-stim", "stimulus": "<p id=\"stim\">7</p>", "internal_node_id": "0.0-35.0-3.0", "time_elapsed": 361259, "key_press": -1, "trial_index": 47}, "uniqueid": "MTK3049:3WOKGM4L72NPJLDVBJ1FMWGN7ZXO0C", "dateTime": 1519675812116}, {"current_trial": 48, "trialdata": {"rt": -1, "trial_type": "single-stim", "stimulus": "<p id=\"stim\">6</p>", "internal_node_id": "0.0-35.0-4.0", "time_elapsed": 362264, "key_press": -1, "trial_index": 48}, "uniqueid": "MTK3049:3WOKGM4L72NPJLDVBJ1FMWGN7ZXO0C", "dateTime": 1519675813120}, {"current_trial": 49, "trialdata": {"rt": -1, "trial_type": "single-stim", "stimulus": "<p id=\"stim\">5</p>", "internal_node_id": "0.0-35.0-5.0", "time_elapsed": 363267, "key_press": -1, "trial_index": 49}, "uniqueid": "MTK3049:3WOKGM4L72NPJLDVBJ1FMWGN7ZXO0C", "dateTime": 1519675814123}, {"current_trial": 50, "trialdata": {"rt": -1, "trial_type": "single-stim", "stimulus": "<p id=\"stim\">4</p>", "internal_node_id": "0.0-35.0-6.0", "time_elapsed": 364271, "key_press": -1, "trial_index": 50}, "uniqueid": "MTK3049:3WOKGM4L72NPJLDVBJ1FMWGN7ZXO0C", "dateTime": 1519675815127}, {"current_trial": 51, "trialdata": {"rt": -1, "trial_type": "single-stim", "stimulus": "<p id=\"stim\">3</p>", "internal_node_id": "0.0-35.0-7.0", "time_elapsed": 365276, "key_press": -1, "trial_index": 51}, "uniqueid": "MTK3049:3WOKGM4L72NPJLDVBJ1FMWGN7ZXO0C", "dateTime": 1519675816132}, {"current_trial": 52, "trialdata": {"rt": -1, "trial_type": "single-stim", "stimulus": "<p id=\"stim\">2</p>", "internal_node_id": "0.0-35.0-8.0", "time_elapsed": 366279, "key_press": -1, "trial_index": 52}, "uniqueid": "MTK3049:3WOKGM4L72NPJLDVBJ1FMWGN7ZXO0C", "dateTime": 1519675817136}, {"current_trial": 53, "trialdata": {"rt": -1, "trial_type": "single-stim", "stimulus": "<p id=\"stim\">1</p>", "internal_node_id": "0.0-35.0-9.0", "time_elapsed": 367284, "key_press": -1, "trial_index": 53}, "uniqueid": "MTK3049:3WOKGM4L72NPJLDVBJ1FMWGN7ZXO0C", "dateTime": 1519675818140}, {"current_trial": 54, "trialdata": {"rt": -1, "trial_type": "single-stim", "stimulus": "<p id=\"stim\">+</p>", "internal_node_id": "0.0-36.0-0.0", "time_elapsed": 368788, "key_press": -1, "type": "FIXATION", "trial_index": 54}, "uniqueid": "MTK3049:3WOKGM4L72NPJLDVBJ1FMWGN7ZXO0C", "dateTime": 1519675819644}, {"current_trial": 55, "trialdata": {"rt": -1000, "trial_type": "single-audio", "word": "ulcer", "stimulus": "/static/audio/wordpool/ULCER.wav", "conditions": [18, 1200, "a", 18000], "internal_node_id": "0.0-37.0", "trial": 1, "time_elapsed": 370936, "serialpos": 0, "key_press": -1, "wordID": 1532, "type": "PRES_AUD", "trial_index": 55}, "uniqueid": "MTK3049:3WOKGM4L72NPJLDVBJ1FMWGN7ZXO0C", "dateTime": 1519675821792}, {"current_trial": 56, "trialdata": {"rt": -1000, "trial_type": "single-audio", "word": "outfit", "stimulus": "/static/audio/wordpool/OUTFIT.wav", "conditions": [18, 1200, "a", 18000], "internal_node_id": "0.0-38.0", "trial": 1, "time_elapsed": 373191, "serialpos": 1, "key_press": -1, "wordID": 987, "type": "PRES_AUD", "trial_index": 56}, "uniqueid": "MTK3049:3WOKGM4L72NPJLDVBJ1FMWGN7ZXO0C", "dateTime": 1519675824047}, {"current_trial": 57, "trialdata": {"rt": -1000, "trial_type": "single-audio", "word": "poet", "stimulus": "/static/audio/wordpool/POET.wav", "conditions": [18, 1200, "a", 18000], "internal_node_id": "0.0-39.0", "trial": 1, "time_elapsed": 375207, "serialpos": 2, "key_press": -1, "wordID": 1094, "type": "PRES_AUD", "trial_index": 57}, "uniqueid": "MTK3049:3WOKGM4L72NPJLDVBJ1FMWGN7ZXO0C", "dateTime": 1519675826064}, {"current_trial": 58, "trialdata": {"rt": -1000, "trial_type": "single-audio", "word": "body", "stimulus": "/static/audio/wordpool/BODY.wav", "conditions": [18, 1200, "a", 18000], "internal_node_id": "0.0-40.0", "trial": 1, "time_elapsed": 377405, "serialpos": 3, "key_press": -1, "wordID": 144, "type": "PRES_AUD", "trial_index": 58}, "uniqueid": "MTK3049:3WOKGM4L72NPJLDVBJ1FMWGN7ZXO0C", "dateTime": 1519675828261}, {"current_trial": 59, "trialdata": {"rt": -1000, "trial_type": "single-audio", "word": "lion", "stimulus": "/static/audio/wordpool/LION.wav", "conditions": [18, 1200, "a", 18000], "internal_node_id": "0.0-41.0", "trial": 1, "time_elapsed": 379697, "serialpos": 4, "key_press": -1, "wordID": 826, "type": "PRES_AUD", "trial_index": 59}, "uniqueid": "MTK3049:3WOKGM4L72NPJLDVBJ1FMWGN7ZXO0C", "dateTime": 1519675830553}, {"current_trial": 60, "trialdata": {"rt": -1000, "trial_type": "single-audio", "word": "eyelash", "stimulus": "/static/audio/wordpool/EYELASH.wav", "conditions": [18, 1200, "a", 18000], "internal_node_id": "0.0-42.0", "trial": 1, "time_elapsed": 382044, "serialpos": 5, "key_press": -1, "wordID": 545, "type": "PRES_AUD", "trial_index": 60}, "uniqueid": "MTK3049:3WOKGM4L72NPJLDVBJ1FMWGN7ZXO0C", "dateTime": 1519675832900}, {"current_trial": 61, "trialdata": {"rt": -1000, "trial_type": "single-audio", "word": "sheriff", "stimulus": "/static/audio/wordpool/SHERIFF.wav", "conditions": [18, 1200, "a", 18000], "internal_node_id": "0.0-43.0", "trial": 1, "time_elapsed": 384152, "serialpos": 6, "key_press": -1, "wordID": 1283, "type": "PRES_AUD", "trial_index": 61}, "uniqueid": "MTK3049:3WOKGM4L72NPJLDVBJ1FMWGN7ZXO0C", "dateTime": 1519675835008}, {"current_trial": 62, "trialdata": {"rt": -1000, "trial_type": "single-audio", "word": "queen", "stimulus": "/static/audio/wordpool/QUEEN.wav", "conditions": [18, 1200, "a", 18000], "internal_node_id": "0.0-44.0", "trial": 1, "time_elapsed": 386251, "serialpos": 7, "key_press": -1, "wordID": 1148, "type": "PRES_AUD", "trial_index": 62}, "uniqueid": "MTK3049:3WOKGM4L72NPJLDVBJ1FMWGN7ZXO0C", "dateTime": 1519675837107}, {"current_trial": 63, "trialdata": {"rt": -1000, "trial_type": "single-audio", "word": "compass", "stimulus": "/static/audio/wordpool/COMPASS.wav", "conditions": [18, 1200, "a", 18000], "internal_node_id": "0.0-45.0", "trial": 1, "time_elapsed": 388285, "serialpos": 8, "key_press": -1, "wordID": 357, "type": "PRES_AUD", "trial_index": 63}, "uniqueid": "MTK3049:3WOKGM4L72NPJLDVBJ1FMWGN7ZXO0C", "dateTime": 1519675839141}, {"current_trial": 64, "trialdata": {"rt": -1000, "trial_type": "single-audio", "word": "sister", "stimulus": "/static/audio/wordpool/SISTER.wav", "conditions": [18, 1200, "a", 18000], "internal_node_id": "0.0-46.0", "trial": 1, "time_elapsed": 390339, "serialpos": 9, "key_press": -1, "wordID": 1311, "type": "PRES_AUD", "trial_index": 64}, "uniqueid": "MTK3049:3WOKGM4L72NPJLDVBJ1FMWGN7ZXO0C", "dateTime": 1519675841195}, {"current_trial": 65, "trialdata": {"rt": -1000, "trial_type": "single-audio", "word": "velvet", "stimulus": "/static/audio/wordpool/VELVET.wav", "conditions": [18, 1200, "a", 18000], "internal_node_id": "0.0-47.0", "trial": 1, "time_elapsed": 392711, "serialpos": 10, "key_press": -1, "wordID": 1554, "type": "PRES_AUD", "trial_index": 65}, "uniqueid": "MTK3049:3WOKGM4L72NPJLDVBJ1FMWGN7ZXO0C", "dateTime": 1519675843567}, {"current_trial": 66, "trialdata": {"rt": -1000, "trial_type": "single-audio", "word": "ox", "stimulus": "/static/audio/wordpool/OX.wav", "conditions": [18, 1200, "a", 18000], "internal_node_id": "0.0-48.0", "trial": 1, "time_elapsed": 394976, "serialpos": 11, "key_press": -1, "wordID": 993, "type": "PRES_AUD", "trial_index": 66}, "uniqueid": "MTK3049:3WOKGM4L72NPJLDVBJ1FMWGN7ZXO0C", "dateTime": 1519675845832}, {"current_trial": 67, "trialdata": {"rt": -1000, "trial_type": "single-audio", "word": "garlic", "stimulus": "/static/audio/wordpool/GARLIC.wav", "conditions": [18, 1200, "a", 18000], "internal_node_id": "0.0-49.0", "trial": 1, "time_elapsed": 397008, "serialpos": 12, "key_press": -1, "wordID": 623, "type": "PRES_AUD", "trial_index": 67}, "uniqueid": "MTK3049:3WOKGM4L72NPJLDVBJ1FMWGN7ZXO0C", "dateTime": 1519675847864}, {"current_trial": 68, "trialdata": {"rt": -1000, "trial_type": "single-audio", "word": "hiker", "stimulus": "/static/audio/wordpool/HIKER.wav", "conditions": [18, 1200, "a", 18000], "internal_node_id": "0.0-50.0", "trial": 1, "time_elapsed": 399304, "serialpos": 13, "key_press": -1, "wordID": 707, "type": "PRES_AUD", "trial_index": 68}, "uniqueid": "MTK3049:3WOKGM4L72NPJLDVBJ1FMWGN7ZXO0C", "dateTime": 1519675850161}, {"current_trial": 69, "trialdata": {"rt": -1000, "trial_type": "single-audio", "word": "loft", "stimulus": "/static/audio/wordpool/LOFT.wav", "conditions": [18, 1200, "a", 18000], "internal_node_id": "0.0-51.0", "trial": 1, "time_elapsed": 401534, "serialpos": 14, "key_press": -1, "wordID": 839, "type": "PRES_AUD", "trial_index": 69}, "uniqueid": "MTK3049:3WOKGM4L72NPJLDVBJ1FMWGN7ZXO0C", "dateTime": 1519675852390}, {"current_trial": 70, "trialdata": {"rt": -1000, "trial_type": "single-audio", "word": "laser", "stimulus": "/static/audio/wordpool/LASER.wav", "conditions": [18, 1200, "a", 18000], "internal_node_id": "0.0-52.0", "trial": 1, "time_elapsed": 403931, "serialpos": 15, "key_press": -1, "wordID": 800, "type": "PRES_AUD", "trial_index": 70}, "uniqueid": "MTK3049:3WOKGM4L72NPJLDVBJ1FMWGN7ZXO0C", "dateTime": 1519675854787}, {"current_trial": 71, "trialdata": {"rt": -1000, "trial_type": "single-audio", "word": "whistle", "stimulus": "/static/audio/wordpool/WHISTLE.wav", "conditions": [18, 1200, "a", 18000], "internal_node_id": "0.0-53.0", "trial": 1, "time_elapsed": 405984, "serialpos": 16, "key_press": -1, "wordID": 1605, "type": "PRES_AUD", "trial_index": 71}, "uniqueid": "MTK3049:3WOKGM4L72NPJLDVBJ1FMWGN7ZXO0C", "dateTime": 1519675856840}, {"current_trial": 72, "trialdata": {"rt": -1000, "trial_type": "single-audio", "word": "mask", "stimulus": "/static/audio/wordpool/MASK.wav", "conditions": [18, 1200, "a", 18000], "internal_node_id": "0.0-54.0", "trial": 1, "time_elapsed": 408218, "serialpos": 17, "key_press": -1, "wordID": 875, "type": "PRES_AUD", "trial_index": 72}, "uniqueid": "MTK3049:3WOKGM4L72NPJLDVBJ1FMWGN7ZXO0C", "dateTime": 1519675859075}, {"current_trial": 73, "trialdata": {"rt": -1, "trial_type": "single-stim", "stimulus": "", "internal_node_id": "0.0-55.0-0.0", "time_elapsed": 409454, "key_press": -1, "type": "PRE_RECALL_DELAY", "trial_index": 73}, "uniqueid": "MTK3049:3WOKGM4L72NPJLDVBJ1FMWGN7ZXO0C", "dateTime": 1519675860310}, {"current_trial": 74, "trialdata": {"rt": -1000, "trial_type": "single-audio", "stimulus": "/static/audio/400Hz.wav", "internal_node_id": "0.0-56.0", "time_elapsed": 409956, "key_press": -1, "type": "PRE_RECALL_ALERT", "trial_index": 74}, "uniqueid": "MTK3049:3WOKGM4L72NPJLDVBJ1FMWGN7ZXO0C", "dateTime": 1519675860812}, {"current_trial": 75, "trialdata": {"rt": [2478, 4695, 6135, 12852, 17227, 21412, 30851], "recwords": ["loft", "laser", "mask", "whistl", "lion", "poet", "ulcer"], "key_times": [736, 949, 1286, 1534, 2478, 3671, 3874, 3975, 4245, 4447, 4695, 5168, 5291, 5459, 5831, 6135, 6349, 6585, 6810, 7248, 7789, 8260, 8744, 9611, 9948, 10106, 12852, 14887, 15180, 15371, 15697, 17227, 17970, 18173, 18409, 18825, 21412, 29570, 29692, 30120, 30356, 30447, 30851], "trial_type": "free-recall", "conditions": [18, 1200, "a", 18000], "internal_node_id": "0.0-57.0-0.0", "key_presses": [76, 79, 70, 84, 13, 76, 65, 83, 69, 82, 13, 77, 65, 83, 75, 13, 87, 72, 73, 84, 76, 8, 8, 83, 84, 76, 13, 76, 73, 79, 78, 13, 80, 79, 69, 84, 13, 85, 76, 67, 69, 82, 13], "trial": 1, "time_elapsed": 469963, "type": "FREE_RECALL", "trial_index": 75}, "uniqueid": "MTK3049:3WOKGM4L72NPJLDVBJ1FMWGN7ZXO0C", "dateTime": 1519675920820}, {"current_trial": 76, "trialdata": {"rt": 4911, "trial_type": "text", "internal_node_id": "0.0-58.0", "time_elapsed": 476876, "key_press": 13, "type": "INSTRUCTIONS", "trial_index": 76}, "uniqueid": "MTK3049:3WOKGM4L72NPJLDVBJ1FMWGN7ZXO0C", "dateTime": 1519675927732}, {"current_trial": 77, "trialdata": {"rt": [2829, 8049, 9895, 13123, 15901, 17488, 19490, 21628], "trial_type": "math-distractor", "key_times": [1862, 1985, 2829, 6879, 7644, 8049, 9500, 9669, 9895, 12166, 12268, 13123, 14900, 15485, 15901, 17050, 17185, 17488, 19254, 19490, 20829, 21380, 21628, 23170], "responses": ["23", "19", "11", "21", "10", "12", "7", "19"], "num2": [5, 4, 2, 7, 4, 4, 4, 7, 9], "num3": [9, 6, 7, 8, 3, 4, 2, 9, 4], "conditions": [12, 800, "a", 24000], "internal_node_id": "0.0-59.0", "key_presses": [50, 51, 13, 49, 57, 13, 49, 49, 13, 50, 49, 13, 49, 48, 13, 49, 50, 13, 55, 13, 49, 57, 13, 49], "trial": 2, "time_elapsed": 501886, "type": "DISTRACTOR", "trial_index": 77, "num1": [9, 9, 2, 6, 3, 4, 1, 3, 3]}, "uniqueid": "MTK3049:3WOKGM4L72NPJLDVBJ1FMWGN7ZXO0C", "dateTime": 1519675952742}, {"current_trial": 78, "trialdata": {"rt": -1, "trial_type": "single-stim", "stimulus": "<p id=\"stim\">10</p>", "internal_node_id": "0.0-60.0-0.0", "time_elapsed": 504896, "key_press": -1, "trial_index": 78}, "uniqueid": "MTK3049:3WOKGM4L72NPJLDVBJ1FMWGN7ZXO0C", "dateTime": 1519675955752}, {"current_trial": 79, "trialdata": {"rt": -1, "trial_type": "single-stim", "stimulus": "<p id=\"stim\">9</p>", "internal_node_id": "0.0-60.0-1.0", "time_elapsed": 505899, "key_press": -1, "trial_index": 79}, "uniqueid": "MTK3049:3WOKGM4L72NPJLDVBJ1FMWGN7ZXO0C", "dateTime": 1519675956755}, {"current_trial": 80, "trialdata": {"rt": -1, "trial_type": "single-stim", "stimulus": "<p id=\"stim\">8</p>", "internal_node_id": "0.0-60.0-2.0", "time_elapsed": 506902, "key_press": -1, "trial_index": 80}, "uniqueid": "MTK3049:3WOKGM4L72NPJLDVBJ1FMWGN7ZXO0C", "dateTime": 1519675957758}, {"current_trial": 81, "trialdata": {"rt": -1, "trial_type": "single-stim", "stimulus": "<p id=\"stim\">7</p>", "internal_node_id": "0.0-60.0-3.0", "time_elapsed": 507906, "key_press": -1, "trial_index": 81}, "uniqueid": "MTK3049:3WOKGM4L72NPJLDVBJ1FMWGN7ZXO0C", "dateTime": 1519675958762}, {"current_trial": 82, "trialdata": {"rt": -1, "trial_type": "single-stim", "stimulus": "<p id=\"stim\">6</p>", "internal_node_id": "0.0-60.0-4.0", "time_elapsed": 508911, "key_press": -1, "trial_index": 82}, "uniqueid": "MTK3049:3WOKGM4L72NPJLDVBJ1FMWGN7ZXO0C", "dateTime": 1519675959767}, {"current_trial": 83, "trialdata": {"rt": -1, "trial_type": "single-stim", "stimulus": "<p id=\"stim\">5</p>", "internal_node_id": "0.0-60.0-5.0", "time_elapsed": 509914, "key_press": -1, "trial_index": 83}, "uniqueid": "MTK3049:3WOKGM4L72NPJLDVBJ1FMWGN7ZXO0C", "dateTime": 1519675960770}, {"current_trial": 84, "trialdata": {"rt": -1, "trial_type": "single-stim", "stimulus": "<p id=\"stim\">4</p>", "internal_node_id": "0.0-60.0-6.0", "time_elapsed": 510919, "key_press": -1, "trial_index": 84}, "uniqueid": "MTK3049:3WOKGM4L72NPJLDVBJ1FMWGN7ZXO0C", "dateTime": 1519675961775}, {"current_trial": 85, "trialdata": {"rt": -1, "trial_type": "single-stim", "stimulus": "<p id=\"stim\">3</p>", "internal_node_id": "0.0-60.0-7.0", "time_elapsed": 511923, "key_press": -1, "trial_index": 85}, "uniqueid": "MTK3049:3WOKGM4L72NPJLDVBJ1FMWGN7ZXO0C", "dateTime": 1519675962779}, {"current_trial": 86, "trialdata": {"rt": -1, "trial_type": "single-stim", "stimulus": "<p id=\"stim\">2</p>", "internal_node_id": "0.0-60.0-8.0", "time_elapsed": 512926, "key_press": -1, "trial_index": 86}, "uniqueid": "MTK3049:3WOKGM4L72NPJLDVBJ1FMWGN7ZXO0C", "dateTime": 1519675963782}, {"current_trial": 87, "trialdata": {"rt": -1, "trial_type": "single-stim", "stimulus": "<p id=\"stim\">1</p>", "internal_node_id": "0.0-60.0-9.0", "time_elapsed": 513930, "key_press": -1, "trial_index": 87}, "uniqueid": "MTK3049:3WOKGM4L72NPJLDVBJ1FMWGN7ZXO0C", "dateTime": 1519675964786}, {"current_trial": 88, "trialdata": {"rt": -1, "trial_type": "single-stim", "stimulus": "<p id=\"stim\">+</p>", "internal_node_id": "0.0-61.0-0.0", "time_elapsed": 515432, "key_press": -1, "type": "FIXATION", "trial_index": 88}, "uniqueid": "MTK3049:3WOKGM4L72NPJLDVBJ1FMWGN7ZXO0C", "dateTime": 1519675966288}, {"current_trial": 89, "trialdata": {"rt": -1000, "trial_type": "single-audio", "word": "robot", "stimulus": "/static/audio/wordpool/ROBOT.wav", "conditions": [12, 800, "a", 24000], "internal_node_id": "0.0-62.0", "trial": 2, "time_elapsed": 517197, "serialpos": 0, "key_press": -1, "wordID": 1199, "type": "PRES_AUD", "trial_index": 89}, "uniqueid": "MTK3049:3WOKGM4L72NPJLDVBJ1FMWGN7ZXO0C", "dateTime": 1519675968053}, {"current_trial": 90, "trialdata": {"rt": -1000, "trial_type": "single-audio", "word": "waitress", "stimulus": "/static/audio/wordpool/WAITRESS.wav", "conditions": [12, 800, "a", 24000], "internal_node_id": "0.0-63.0", "trial": 2, "time_elapsed": 518957, "serialpos": 1, "key_press": -1, "wordID": 1580, "type": "PRES_AUD", "trial_index": 90}, "uniqueid": "MTK3049:3WOKGM4L72NPJLDVBJ1FMWGN7ZXO0C", "dateTime": 1519675969813}, {"current_trial": 91, "trialdata": {"rt": -1000, "trial_type": "single-audio", "word": "turtle", "stimulus": "/static/audio/wordpool/TURTLE.wav", "conditions": [12, 800, "a", 24000], "internal_node_id": "0.0-64.0", "trial": 2, "time_elapsed": 520923, "serialpos": 2, "key_press": -1, "wordID": 1521, "type": "PRES_AUD", "trial_index": 91}, "uniqueid": "MTK3049:3WOKGM4L72NPJLDVBJ1FMWGN7ZXO0C", "dateTime": 1519675971779}, {"current_trial": 92, "trialdata": {"rt": -1000, "trial_type": "single-audio", "word": "fireplace", "stimulus": "/static/audio/wordpool/FIREPLACE.wav", "conditions": [12, 800, "a", 24000], "internal_node_id": "0.0-65.0", "trial": 2, "time_elapsed": 522838, "serialpos": 3, "key_press": -1, "wordID": 569, "type": "PRES_AUD", "trial_index": 92}, "uniqueid": "MTK3049:3WOKGM4L72NPJLDVBJ1FMWGN7ZXO0C", "dateTime": 1519675973695}, {"current_trial": 93, "trialdata": {"rt": -1000, "trial_type": "single-audio", "word": "snake", "stimulus": "/static/audio/wordpool/SNAKE.wav", "conditions": [12, 800, "a", 24000], "internal_node_id": "0.0-66.0", "trial": 2, "time_elapsed": 524638, "serialpos": 4, "key_press": -1, "wordID": 1332, "type": "PRES_AUD", "trial_index": 93}, "uniqueid": "MTK3049:3WOKGM4L72NPJLDVBJ1FMWGN7ZXO0C", "dateTime": 1519675975495}, {"current_trial": 94, "trialdata": {"rt": -1000, "trial_type": "single-audio", "word": "possum", "stimulus": "/static/audio/wordpool/POSSUM.wav", "conditions": [12, 800, "a", 24000], "internal_node_id": "0.0-67.0", "trial": 2, "time_elapsed": 526486, "serialpos": 5, "key_press": -1, "wordID": 1111, "type": "PRES_AUD", "trial_index": 94}, "uniqueid": "MTK3049:3WOKGM4L72NPJLDVBJ1FMWGN7ZXO0C", "dateTime": 1519675977342}, {"current_trial": 95, "trialdata": {"rt": -1000, "trial_type": "single-audio", "word": "sidewalk", "stimulus": "/static/audio/wordpool/SIDEWALK.wav", "conditions": [12, 800, "a", 24000], "internal_node_id": "0.0-68.0", "trial": 2, "time_elapsed": 528458, "serialpos": 6, "key_press": -1, "wordID": 1302, "type": "PRES_AUD", "trial_index": 95}, "uniqueid": "MTK3049:3WOKGM4L72NPJLDVBJ1FMWGN7ZXO0C", "dateTime": 1519675979314}, {"current_trial": 96, "trialdata": {"rt": -1000, "trial_type": "single-audio", "word": "preacher", "stimulus": "/static/audio/wordpool/PREACHER.wav", "conditions": [12, 800, "a", 24000], "internal_node_id": "0.0-69.0", "trial": 2, "time_elapsed": 530378, "serialpos": 7, "key_press": -1, "wordID": 1118, "type": "PRES_AUD", "trial_index": 96}, "uniqueid": "MTK3049:3WOKGM4L72NPJLDVBJ1FMWGN7ZXO0C", "dateTime": 1519675981234}, {"current_trial": 97, "trialdata": {"rt": -1000, "trial_type": "single-audio", "word": "church", "stimulus": "/static/audio/wordpool/CHURCH.wav", "conditions": [12, 800, "a", 24000], "internal_node_id": "0.0-70.0", "trial": 2, "time_elapsed": 532102, "serialpos": 8, "key_press": -1, "wordID": 306, "type": "PRES_AUD", "trial_index": 97}, "uniqueid": "MTK3049:3WOKGM4L72NPJLDVBJ1FMWGN7ZXO0C", "dateTime": 1519675982958}, {"current_trial": 98, "trialdata": {"rt": -1000, "trial_type": "single-audio", "word": "plaza", "stimulus": "/static/audio/wordpool/PLAZA.wav", "conditions": [12, 800, "a", 24000], "internal_node_id": "0.0-71.0", "trial": 2, "time_elapsed": 533967, "serialpos": 9, "key_press": -1, "wordID": 1087, "type": "PRES_AUD", "trial_index": 98}, "uniqueid": "MTK3049:3WOKGM4L72NPJLDVBJ1FMWGN7ZXO0C", "dateTime": 1519675984823}, {"current_trial": 99, "trialdata": {"rt": -1000, "trial_type": "single-audio", "word": "inmate", "stimulus": "/static/audio/wordpool/INMATE.wav", "conditions": [12, 800, "a", 24000], "internal_node_id": "0.0-72.0", "trial": 2, "time_elapsed": 535796, "serialpos": 10, "key_press": -1, "wordID": 737, "type": "PRES_AUD", "trial_index": 99}, "uniqueid": "MTK3049:3WOKGM4L72NPJLDVBJ1FMWGN7ZXO0C", "dateTime": 1519675986653}, {"current_trial": 100, "trialdata": {"rt": -1000, "trial_type": "single-audio", "word": "cigar", "stimulus": "/static/audio/wordpool/CIGAR.wav", "conditions": [12, 800, "a", 24000], "internal_node_id": "0.0-73.0", "trial": 2, "time_elapsed": 537487, "serialpos": 11, "key_press": -1, "wordID": 307, "type": "PRES_AUD", "trial_index": 100}, "uniqueid": "MTK3049:3WOKGM4L72NPJLDVBJ1FMWGN7ZXO0C", "dateTime": 1519675988344}, {"current_trial": 101, "trialdata": {"rt": -1, "trial_type": "single-stim", "stimulus": "", "internal_node_id": "0.0-74.0-0.0", "time_elapsed": 538783, "key_press": -1, "type": "PRE_RECALL_DELAY", "trial_index": 101}, "uniqueid": "MTK3049:3WOKGM4L72NPJLDVBJ1FMWGN7ZXO0C", "dateTime": 1519675989639}, {"current_trial": 102, "trialdata": {"rt": -1000, "trial_type": "single-audio", "stimulus": "/static/audio/400Hz.wav", "internal_node_id": "0.0-75.0", "time_elapsed": 539283, "key_press": -1, "type": "PRE_RECALL_ALERT", "trial_index": 102}, "uniqueid": "MTK3049:3WOKGM4L72NPJLDVBJ1FMWGN7ZXO0C", "dateTime": 1519675990139}, {"current_trial": 103, "trialdata": {"rt": [1582, 3607, 6273, 11877, 16083], "recwords": ["cigar", "inmate", "snake", "robot", "turtle"], "key_times": [525, 626, 896, 1087, 1279, 1582, 1908, 2066, 2291, 2437, 2684, 3010, 3607, 4822, 5024, 5160, 5351, 5610, 6273, 7297, 7579, 7962, 8501, 9052, 11877, 12506, 13024, 13304, 13563, 13765, 14126, 16083], "trial_type": "free-recall", "conditions": [12, 800, "a", 24000], "internal_node_id": "0.0-76.0-0.0", "key_presses": [67, 73, 71, 65, 82, 32, 73, 78, 77, 65, 84, 69, 32, 83, 78, 65, 75, 69, 32, 82, 79, 66, 79, 84, 32, 84, 85, 82, 84, 76, 69, 32], "trial": 2, "time_elapsed": 599290, "type": "FREE_RECALL", "trial_index": 103}, "uniqueid": "MTK3049:3WOKGM4L72NPJLDVBJ1FMWGN7ZXO0C", "dateTime": 1519676050149}, {"current_trial": 104, "trialdata": {"rt": 2112, "trial_type": "text", "internal_node_id": "0.0-77.0", "time_elapsed": 603405, "key_press": 32, "type": "INSTRUCTIONS", "trial_index": 104}, "uniqueid": "MTK3049:3WOKGM4L72NPJLDVBJ1FMWGN7ZXO0C", "dateTime": 1519676054262}, {"current_trial": 105, "trialdata": {"rt": [2373, 4387, 6154, 7717, 9697, 11610, 13556, 15277, 17865, 21273, 23219], "trial_type": "math-distractor", "key_times": [1451, 1867, 2373, 3667, 4207, 4387, 5749, 5906, 6154, 7223, 7515, 7717, 8989, 9483, 9697, 10947, 11430, 11610, 13016, 13388, 13556, 14771, 15142, 15277, 17010, 17606, 17865, 20183, 20857, 21273, 22950, 23219], "responses": ["16", "10", "21", "13", "10", "17", "15", "15", "19", "12", "7"], "num2": [6, 1, 8, 9, 1, 2, 4, 8, 9, 7, 1, 2], "num3": [4, 4, 6, 2, 3, 8, 6, 6, 8, 3, 3, 2], "conditions": [24, 800, "a", 24000], "internal_node_id": "0.0-78.0", "key_presses": [49, 54, 13, 49, 48, 13, 50, 49, 13, 49, 51, 13, 49, 48, 13, 49, 55, 13, 49, 53, 13, 49, 53, 13, 49, 57, 13, 49, 50, 13, 55, 13], "trial": 3, "time_elapsed": 629414, "type": "DISTRACTOR", "trial_index": 105, "num1": [6, 5, 7, 2, 6, 7, 5, 1, 2, 2, 3, 6]}, "uniqueid": "MTK3049:3WOKGM4L72NPJLDVBJ1FMWGN7ZXO0C", "dateTime": 1519676080270}, {"current_trial": 106, "trialdata": {"rt": -1, "trial_type": "single-stim", "stimulus": "<p id=\"stim\">10</p>", "internal_node_id": "0.0-79.0-0.0", "time_elapsed": 632421, "key_press": -1, "trial_index": 106}, "uniqueid": "MTK3049:3WOKGM4L72NPJLDVBJ1FMWGN7ZXO0C", "dateTime": 1519676083277}, {"current_trial": 107, "trialdata": {"rt": -1, "trial_type": "single-stim", "stimulus": "<p id=\"stim\">9</p>", "internal_node_id": "0.0-79.0-1.0", "time_elapsed": 633424, "key_press": -1, "trial_index": 107}, "uniqueid": "MTK3049:3WOKGM4L72NPJLDVBJ1FMWGN7ZXO0C", "dateTime": 1519676084280}, {"current_trial": 108, "trialdata": {"rt": -1, "trial_type": "single-stim", "stimulus": "<p id=\"stim\">8</p>", "internal_node_id": "0.0-79.0-2.0", "time_elapsed": 634428, "key_press": -1, "trial_index": 108}, "uniqueid": "MTK3049:3WOKGM4L72NPJLDVBJ1FMWGN7ZXO0C", "dateTime": 1519676085284}, {"current_trial": 109, "trialdata": {"rt": -1, "trial_type": "single-stim", "stimulus": "<p id=\"stim\">7</p>", "internal_node_id": "0.0-79.0-3.0", "time_elapsed": 635433, "key_press": -1, "trial_index": 109}, "uniqueid": "MTK3049:3WOKGM4L72NPJLDVBJ1FMWGN7ZXO0C", "dateTime": 1519676086289}, {"current_trial": 110, "trialdata": {"rt": -1, "trial_type": "single-stim", "stimulus": "<p id=\"stim\">6</p>", "internal_node_id": "0.0-79.0-4.0", "time_elapsed": 636437, "key_press": -1, "trial_index": 110}, "uniqueid": "MTK3049:3WOKGM4L72NPJLDVBJ1FMWGN7ZXO0C", "dateTime": 1519676087293}, {"current_trial": 111, "trialdata": {"rt": -1, "trial_type": "single-stim", "stimulus": "<p id=\"stim\">5</p>", "internal_node_id": "0.0-79.0-5.0", "time_elapsed": 637440, "key_press": -1, "trial_index": 111}, "uniqueid": "MTK3049:3WOKGM4L72NPJLDVBJ1FMWGN7ZXO0C", "dateTime": 1519676088296}, {"current_trial": 112, "trialdata": {"rt": -1, "trial_type": "single-stim", "stimulus": "<p id=\"stim\">4</p>", "internal_node_id": "0.0-79.0-6.0", "time_elapsed": 638444, "key_press": -1, "trial_index": 112}, "uniqueid": "MTK3049:3WOKGM4L72NPJLDVBJ1FMWGN7ZXO0C", "dateTime": 1519676089300}, {"current_trial": 113, "trialdata": {"rt": -1, "trial_type": "single-stim", "stimulus": "<p id=\"stim\">3</p>", "internal_node_id": "0.0-79.0-7.0", "time_elapsed": 639448, "key_press": -1, "trial_index": 113}, "uniqueid": "MTK3049:3WOKGM4L72NPJLDVBJ1FMWGN7ZXO0C", "dateTime": 1519676090304}, {"current_trial": 114, "trialdata": {"rt": -1, "trial_type": "single-stim", "stimulus": "<p id=\"stim\">2</p>", "internal_node_id": "0.0-79.0-8.0", "time_elapsed": 640453, "key_press": -1, "trial_index": 114}, "uniqueid": "MTK3049:3WOKGM4L72NPJLDVBJ1FMWGN7ZXO0C", "dateTime": 1519676091309}, {"current_trial": 115, "trialdata": {"rt": -1, "trial_type": "single-stim", "stimulus": "<p id=\"stim\">1</p>", "internal_node_id": "0.0-79.0-9.0", "time_elapsed": 641457, "key_press": -1, "trial_index": 115}, "uniqueid": "MTK3049:3WOKGM4L72NPJLDVBJ1FMWGN7ZXO0C", "dateTime": 1519676092313}, {"current_trial": 116, "trialdata": {"rt": -1, "trial_type": "single-stim", "stimulus": "<p id=\"stim\">+</p>", "internal_node_id": "0.0-80.0-0.0", "time_elapsed": 642960, "key_press": -1, "type": "FIXATION", "trial_index": 116}, "uniqueid": "MTK3049:3WOKGM4L72NPJLDVBJ1FMWGN7ZXO0C", "dateTime": 1519676093816}, {"current_trial": 117, "trialdata": {"rt": -1000, "trial_type": "single-audio", "word": "badge", "stimulus": "/static/audio/wordpool/BADGE.wav", "conditions": [24, 800, "a", 24000], "internal_node_id": "0.0-81.0", "trial": 3, "time_elapsed": 644725, "serialpos": 0, "key_press": -1, "wordID": 67, "type": "PRES_AUD", "trial_index": 117}, "uniqueid": "MTK3049:3WOKGM4L72NPJLDVBJ1FMWGN7ZXO0C", "dateTime": 1519676095581}, {"current_trial": 118, "trialdata": {"rt": -1000, "trial_type": "single-audio", "word": "typist", "stimulus": "/static/audio/wordpool/TYPIST.wav", "conditions": [24, 800, "a", 24000], "internal_node_id": "0.0-82.0", "trial": 3, "time_elapsed": 646537, "serialpos": 1, "key_press": -1, "wordID": 1531, "type": "PRES_AUD", "trial_index": 118}, "uniqueid": "MTK3049:3WOKGM4L72NPJLDVBJ1FMWGN7ZXO0C", "dateTime": 1519676097393}, {"current_trial": 119, "trialdata": {"rt": -1000, "trial_type": "single-audio", "word": "switch", "stimulus": "/static/audio/wordpool/SWITCH.wav", "conditions": [24, 800, "a", 24000], "internal_node_id": "0.0-83.0", "trial": 3, "time_elapsed": 648488, "serialpos": 2, "key_press": -1, "wordID": 1421, "type": "PRES_AUD", "trial_index": 119}, "uniqueid": "MTK3049:3WOKGM4L72NPJLDVBJ1FMWGN7ZXO0C", "dateTime": 1519676099344}, {"current_trial": 120, "trialdata": {"rt": -1000, "trial_type": "single-audio", "word": "turkey", "stimulus": "/static/audio/wordpool/TURKEY.wav", "conditions": [24, 800, "a", 24000], "internal_node_id": "0.0-84.0", "trial": 3, "time_elapsed": 650099, "serialpos": 3, "key_press": -1, "wordID": 1519, "type": "PRES_AUD", "trial_index": 120}, "uniqueid": "MTK3049:3WOKGM4L72NPJLDVBJ1FMWGN7ZXO0C", "dateTime": 1519676100955}, {"current_trial": 121, "trialdata": {"rt": -1000, "trial_type": "single-audio", "word": "marine", "stimulus": "/static/audio/wordpool/MARINE.wav", "conditions": [24, 800, "a", 24000], "internal_node_id": "0.0-85.0", "trial": 3, "time_elapsed": 651869, "serialpos": 4, "key_press": -1, "wordID": 868, "type": "PRES_AUD", "trial_index": 121}, "uniqueid": "MTK3049:3WOKGM4L72NPJLDVBJ1FMWGN7ZXO0C", "dateTime": 1519676102725}, {"current_trial": 122, "trialdata": {"rt": -1000, "trial_type": "single-audio", "word": "girl", "stimulus": "/static/audio/wordpool/GIRL.wav", "conditions": [24, 800, "a", 24000], "internal_node_id": "0.0-86.0", "trial": 3, "time_elapsed": 653762, "serialpos": 5, "key_press": -1, "wordID": 636, "type": "PRES_AUD", "trial_index": 122}, "uniqueid": "MTK3049:3WOKGM4L72NPJLDVBJ1FMWGN7ZXO0C", "dateTime": 1519676104618}, {"current_trial": 123, "trialdata": {"rt": -1000, "trial_type": "single-audio", "word": "daughter", "stimulus": "/static/audio/wordpool/DAUGHTER.wav", "conditions": [24, 800, "a", 24000], "internal_node_id": "0.0-87.0", "trial": 3, "time_elapsed": 655397, "serialpos": 6, "key_press": -1, "wordID": 441, "type": "PRES_AUD", "trial_index": 123}, "uniqueid": "MTK3049:3WOKGM4L72NPJLDVBJ1FMWGN7ZXO0C", "dateTime": 1519676106253}, {"current_trial": 124, "trialdata": {"rt": -1000, "trial_type": "single-audio", "word": "butcher", "stimulus": "/static/audio/wordpool/BUTCHER.wav", "conditions": [24, 800, "a", 24000], "internal_node_id": "0.0-88.0", "trial": 3, "time_elapsed": 657301, "serialpos": 7, "key_press": -1, "wordID": 202, "type": "PRES_AUD", "trial_index": 124}, "uniqueid": "MTK3049:3WOKGM4L72NPJLDVBJ1FMWGN7ZXO0C", "dateTime": 1519676108157}, {"current_trial": 125, "trialdata": {"rt": -1000, "trial_type": "single-audio", "word": "chest", "stimulus": "/static/audio/wordpool/CHEST.wav", "conditions": [24, 800, "a", 24000], "internal_node_id": "0.0-89.0", "trial": 3, "time_elapsed": 658917, "serialpos": 8, "key_press": -1, "wordID": 294, "type": "PRES_AUD", "trial_index": 125}, "uniqueid": "MTK3049:3WOKGM4L72NPJLDVBJ1FMWGN7ZXO0C", "dateTime": 1519676109773}, {"current_trial": 126, "trialdata": {"rt": -1000, "trial_type": "single-audio", "word": "shelf", "stimulus": "/static/audio/wordpool/SHELF.wav", "conditions": [24, 800, "a", 24000], "internal_node_id": "0.0-90.0", "trial": 3, "time_elapsed": 660693, "serialpos": 9, "key_press": -1, "wordID": 1279, "type": "PRES_AUD", "trial_index": 126}, "uniqueid": "MTK3049:3WOKGM4L72NPJLDVBJ1FMWGN7ZXO0C", "dateTime": 1519676111549}, {"current_trial": 127, "trialdata": {"rt": -1000, "trial_type": "single-audio", "word": "sticker", "stimulus": "/static/audio/wordpool/STICKER.wav", "conditions": [24, 800, "a", 24000], "internal_node_id": "0.0-91.0", "trial": 3, "time_elapsed": 662389, "serialpos": 10, "key_press": -1, "wordID": 1381, "type": "PRES_AUD", "trial_index": 127}, "uniqueid": "MTK3049:3WOKGM4L72NPJLDVBJ1FMWGN7ZXO0C", "dateTime": 1519676113245}, {"current_trial": 128, "trialdata": {"rt": -1000, "trial_type": "single-audio", "word": "ketchup", "stimulus": "/static/audio/wordpool/KETCHUP.wav", "conditions": [24, 800, "a", 24000], "internal_node_id": "0.0-92.0", "trial": 3, "time_elapsed": 664204, "serialpos": 11, "key_press": -1, "wordID": 770, "type": "PRES_AUD", "trial_index": 128}, "uniqueid": "MTK3049:3WOKGM4L72NPJLDVBJ1FMWGN7ZXO0C", "dateTime": 1519676115060}, {"current_trial": 129, "trialdata": {"rt": -1000, "trial_type": "single-audio", "word": "leopard", "stimulus": "/static/audio/wordpool/LEOPARD.wav", "conditions": [24, 800, "a", 24000], "internal_node_id": "0.0-93.0", "trial": 3, "time_elapsed": 665856, "serialpos": 12, "key_press": -1, "wordID": 811, "type": "PRES_AUD", "trial_index": 129}, "uniqueid": "MTK3049:3WOKGM4L72NPJLDVBJ1FMWGN7ZXO0C", "dateTime": 1519676116713}, {"current_trial": 130, "trialdata": {"rt": -1000, "trial_type": "single-audio", "word": "friend", "stimulus": "/static/audio/wordpool/FRIEND.wav", "conditions": [24, 800, "a", 24000], "internal_node_id": "0.0-94.0", "trial": 3, "time_elapsed": 667716, "serialpos": 13, "key_press": -1, "wordID": 605, "type": "PRES_AUD", "trial_index": 130}, "uniqueid": "MTK3049:3WOKGM4L72NPJLDVBJ1FMWGN7ZXO0C", "dateTime": 1519676118572}, {"current_trial": 131, "trialdata": {"rt": -1000, "trial_type": "single-audio", "word": "receipt", "stimulus": "/static/audio/wordpool/RECEIPT.wav", "conditions": [24, 800, "a", 24000], "internal_node_id": "0.0-95.0", "trial": 3, "time_elapsed": 669352, "serialpos": 14, "key_press": -1, "wordID": 1172, "type": "PRES_AUD", "trial_index": 131}, "uniqueid": "MTK3049:3WOKGM4L72NPJLDVBJ1FMWGN7ZXO0C", "dateTime": 1519676120208}, {"current_trial": 132, "trialdata": {"rt": -1000, "trial_type": "single-audio", "word": "asia", "stimulus": "/static/audio/wordpool/ASIA.wav", "conditions": [24, 800, "a", 24000], "internal_node_id": "0.0-96.0", "trial": 3, "time_elapsed": 671037, "serialpos": 15, "key_press": -1, "wordID": 45, "type": "PRES_AUD", "trial_index": 132}, "uniqueid": "MTK3049:3WOKGM4L72NPJLDVBJ1FMWGN7ZXO0C", "dateTime": 1519676121893}, {"current_trial": 133, "trialdata": {"rt": -1000, "trial_type": "single-audio", "word": "dorm", "stimulus": "/static/audio/wordpool/DORM.wav", "conditions": [24, 800, "a", 24000], "internal_node_id": "0.0-97.0", "trial": 3, "time_elapsed": 672805, "serialpos": 16, "key_press": -1, "wordID": 487, "type": "PRES_AUD", "trial_index": 133}, "uniqueid": "MTK3049:3WOKGM4L72NPJLDVBJ1FMWGN7ZXO0C", "dateTime": 1519676123662}, {"current_trial": 134, "trialdata": {"rt": -1000, "trial_type": "single-audio", "word": "lodge", "stimulus": "/static/audio/wordpool/LODGE.wav", "conditions": [24, 800, "a", 24000], "internal_node_id": "0.0-98.0", "trial": 3, "time_elapsed": 674460, "serialpos": 17, "key_press": -1, "wordID": 838, "type": "PRES_AUD", "trial_index": 134}, "uniqueid": "MTK3049:3WOKGM4L72NPJLDVBJ1FMWGN7ZXO0C", "dateTime": 1519676125316}, {"current_trial": 135, "trialdata": {"rt": -1000, "trial_type": "single-audio", "word": "picture", "stimulus": "/static/audio/wordpool/PICTURE.wav", "conditions": [24, 800, "a", 24000], "internal_node_id": "0.0-99.0", "trial": 3, "time_elapsed": 676221, "serialpos": 18, "key_press": -1, "wordID": 1060, "type": "PRES_AUD", "trial_index": 135}, "uniqueid": "MTK3049:3WOKGM4L72NPJLDVBJ1FMWGN7ZXO0C", "dateTime": 1519676127077}, {"current_trial": 136, "trialdata": {"rt": -1000, "trial_type": "single-audio", "word": "europe", "stimulus": "/static/audio/wordpool/EUROPE.wav", "conditions": [24, 800, "a", 24000], "internal_node_id": "0.0-100.0", "trial": 3, "time_elapsed": 678064, "serialpos": 19, "key_press": -1, "wordID": 540, "type": "PRES_AUD", "trial_index": 136}, "uniqueid": "MTK3049:3WOKGM4L72NPJLDVBJ1FMWGN7ZXO0C", "dateTime": 1519676128920}, {"current_trial": 137, "trialdata": {"rt": -1000, "trial_type": "single-audio", "word": "crater", "stimulus": "/static/audio/wordpool/CRATER.wav", "conditions": [24, 800, "a", 24000], "internal_node_id": "0.0-101.0", "trial": 3, "time_elapsed": 679886, "serialpos": 20, "key_press": -1, "wordID": 399, "type": "PRES_AUD", "trial_index": 137}, "uniqueid": "MTK3049:3WOKGM4L72NPJLDVBJ1FMWGN7ZXO0C", "dateTime": 1519676130742}, {"current_trial": 138, "trialdata": {"rt": -1000, "trial_type": "single-audio", "word": "diver", "stimulus": "/static/audio/wordpool/DIVER.wav", "conditions": [24, 800, "a", 24000], "internal_node_id": "0.0-102.0", "trial": 3, "time_elapsed": 681882, "serialpos": 21, "key_press": -1, "wordID": 475, "type": "PRES_AUD", "trial_index": 138}, "uniqueid": "MTK3049:3WOKGM4L72NPJLDVBJ1FMWGN7ZXO0C", "dateTime": 1519676132738}, {"current_trial": 139, "trialdata": {"rt": -1000, "trial_type": "single-audio", "word": "swimmer", "stimulus": "/static/audio/wordpool/SWIMMER.wav", "conditions": [24, 800, "a", 24000], "internal_node_id": "0.0-103.0", "trial": 3, "time_elapsed": 683662, "serialpos": 22, "key_press": -1, "wordID": 1419, "type": "PRES_AUD", "trial_index": 139}, "uniqueid": "MTK3049:3WOKGM4L72NPJLDVBJ1FMWGN7ZXO0C", "dateTime": 1519676134518}, {"current_trial": 140, "trialdata": {"rt": -1000, "trial_type": "single-audio", "word": "cloud", "stimulus": "/static/audio/wordpool/CLOUD.wav", "conditions": [24, 800, "a", 24000], "internal_node_id": "0.0-104.0", "trial": 3, "time_elapsed": 685573, "serialpos": 23, "key_press": -1, "wordID": 327, "type": "PRES_AUD", "trial_index": 140}, "uniqueid": "MTK3049:3WOKGM4L72NPJLDVBJ1FMWGN7ZXO0C", "dateTime": 1519676136430}, {"current_trial": 141, "trialdata": {"rt": -1, "trial_type": "single-stim", "stimulus": "", "internal_node_id": "0.0-105.0-0.0", "time_elapsed": 686938, "key_press": -1, "type": "PRE_RECALL_DELAY", "trial_index": 141}, "uniqueid": "MTK3049:3WOKGM4L72NPJLDVBJ1FMWGN7ZXO0C", "dateTime": 1519676137794}, {"current_trial": 142, "trialdata": {"rt": -1000, "trial_type": "single-audio", "stimulus": "/static/audio/400Hz.wav", "internal_node_id": "0.0-106.0", "time_elapsed": 687438, "key_press": -1, "type": "PRE_RECALL_ALERT", "trial_index": 142}, "uniqueid": "MTK3049:3WOKGM4L72NPJLDVBJ1FMWGN7ZXO0C", "dateTime": 1519676138294}, {"current_trial": 143, "trialdata": {"rt": [2411, 3052, 5134, 5539, 12525, 16643, 23640, 25992], "recwords": ["asia", "", "sticker", "c", "cloud", "shelf", "typist", "girl"], "key_times": [1275, 1849, 2006, 2197, 2411, 3052, 3289, 3671, 3863, 4111, 4403, 4628, 4853, 5134, 5392, 5539, 6023, 6282, 6506, 6810, 7103, 8486, 8644, 8813, 8970, 9791, 10140, 10331, 10646, 11231, 12525, 14640, 14820, 15124, 15484, 15844, 16643, 20265, 20513, 20738, 21052, 21300, 21716, 23640, 24248, 24551, 24788, 25238, 25992], "trial_type": "free-recall", "conditions": [24, 800, "a", 24000], "internal_node_id": "0.0-107.0-0.0", "key_presses": [65, 83, 73, 65, 32, 13, 83, 84, 73, 67, 75, 69, 82, 13, 67, 186, 8, 76, 79, 85, 68, 8, 8, 8, 8, 67, 76, 79, 85, 68, 13, 83, 72, 69, 76, 70, 13, 84, 89, 80, 73, 83, 84, 13, 71, 73, 82, 76, 13], "trial": 3, "time_elapsed": 747442, "type": "FREE_RECALL", "trial_index": 143}, "uniqueid": "MTK3049:3WOKGM4L72NPJLDVBJ1FMWGN7ZXO0C", "dateTime": 1519676198299}, {"current_trial": 144, "trialdata": {"rt": 941, "trial_type": "text", "internal_node_id": "0.0-108.0", "time_elapsed": 750387, "key_press": 32, "type": "INSTRUCTIONS", "trial_index": 144}, "uniqueid": "MTK3049:3WOKGM4L72NPJLDVBJ1FMWGN7ZXO0C", "dateTime": 1519676201243}, {"current_trial": 145, "trialdata": {"rt": [3699, 6242, 8549, 10584], "trial_type": "math-distractor", "key_times": [2405, 2698, 3699, 4914, 5455, 5634, 6062, 6242, 7929, 8425, 8549, 10304, 10450, 10584], "responses": ["24", "18", "19", "11"], "num2": [8, 5, 8, 3, 1], "num3": [9, 5, 3, 3, 5], "conditions": [12, 1600, "a", 12000], "internal_node_id": "0.0-109.0", "key_presses": [50, 52, 13, 50, 8, 49, 56, 13, 49, 57, 13, 49, 49, 13], "trial": 4, "time_elapsed": 764395, "type": "DISTRACTOR", "trial_index": 145, "num1": [7, 8, 8, 5, 1]}, "uniqueid": "MTK3049:3WOKGM4L72NPJLDVBJ1FMWGN7ZXO0C", "dateTime": 1519676215251}, {"current_trial": 146, "trialdata": {"rt": -1, "trial_type": "single-stim", "stimulus": "<p id=\"stim\">10</p>", "internal_node_id": "0.0-110.0-0.0", "time_elapsed": 767406, "key_press": -1, "trial_index": 146}, "uniqueid": "MTK3049:3WOKGM4L72NPJLDVBJ1FMWGN7ZXO0C", "dateTime": 1519676218262}, {"current_trial": 147, "trialdata": {"rt": -1, "trial_type": "single-stim", "stimulus": "<p id=\"stim\">9</p>", "internal_node_id": "0.0-110.0-1.0", "time_elapsed": 768410, "key_press": -1, "trial_index": 147}, "uniqueid": "MTK3049:3WOKGM4L72NPJLDVBJ1FMWGN7ZXO0C", "dateTime": 1519676219266}, {"current_trial": 148, "trialdata": {"rt": -1, "trial_type": "single-stim", "stimulus": "<p id=\"stim\">8</p>", "internal_node_id": "0.0-110.0-2.0", "time_elapsed": 769415, "key_press": -1, "trial_index": 148}, "uniqueid": "MTK3049:3WOKGM4L72NPJLDVBJ1FMWGN7ZXO0C", "dateTime": 1519676220271}, {"current_trial": 149, "trialdata": {"rt": -1, "trial_type": "single-stim", "stimulus": "<p id=\"stim\">7</p>", "internal_node_id": "0.0-110.0-3.0", "time_elapsed": 770418, "key_press": -1, "trial_index": 149}, "uniqueid": "MTK3049:3WOKGM4L72NPJLDVBJ1FMWGN7ZXO0C", "dateTime": 1519676221274}, {"current_trial": 150, "trialdata": {"rt": -1, "trial_type": "single-stim", "stimulus": "<p id=\"stim\">6</p>", "internal_node_id": "0.0-110.0-4.0", "time_elapsed": 771421, "key_press": -1, "trial_index": 150}, "uniqueid": "MTK3049:3WOKGM4L72NPJLDVBJ1FMWGN7ZXO0C", "dateTime": 1519676222278}, {"current_trial": 151, "trialdata": {"rt": -1, "trial_type": "single-stim", "stimulus": "<p id=\"stim\">5</p>", "internal_node_id": "0.0-110.0-5.0", "time_elapsed": 772427, "key_press": -1, "trial_index": 151}, "uniqueid": "MTK3049:3WOKGM4L72NPJLDVBJ1FMWGN7ZXO0C", "dateTime": 1519676223283}, {"current_trial": 152, "trialdata": {"rt": -1, "trial_type": "single-stim", "stimulus": "<p id=\"stim\">4</p>", "internal_node_id": "0.0-110.0-6.0", "time_elapsed": 773431, "key_press": -1, "trial_index": 152}, "uniqueid": "MTK3049:3WOKGM4L72NPJLDVBJ1FMWGN7ZXO0C", "dateTime": 1519676224287}, {"current_trial": 153, "trialdata": {"rt": -1, "trial_type": "single-stim", "stimulus": "<p id=\"stim\">3</p>", "internal_node_id": "0.0-110.0-7.0", "time_elapsed": 774435, "key_press": -1, "trial_index": 153}, "uniqueid": "MTK3049:3WOKGM4L72NPJLDVBJ1FMWGN7ZXO0C", "dateTime": 1519676225291}, {"current_trial": 154, "trialdata": {"rt": -1, "trial_type": "single-stim", "stimulus": "<p id=\"stim\">2</p>", "internal_node_id": "0.0-110.0-8.0", "time_elapsed": 775439, "key_press": -1, "trial_index": 154}, "uniqueid": "MTK3049:3WOKGM4L72NPJLDVBJ1FMWGN7ZXO0C", "dateTime": 1519676226295}, {"current_trial": 155, "trialdata": {"rt": -1, "trial_type": "single-stim", "stimulus": "<p id=\"stim\">1</p>", "internal_node_id": "0.0-110.0-9.0", "time_elapsed": 776443, "key_press": -1, "trial_index": 155}, "uniqueid": "MTK3049:3WOKGM4L72NPJLDVBJ1FMWGN7ZXO0C", "dateTime": 1519676227299}, {"current_trial": 156, "trialdata": {"rt": -1, "trial_type": "single-stim", "stimulus": "<p id=\"stim\">+</p>", "internal_node_id": "0.0-111.0-0.0", "time_elapsed": 777947, "key_press": -1, "type": "FIXATION", "trial_index": 156}, "uniqueid": "MTK3049:3WOKGM4L72NPJLDVBJ1FMWGN7ZXO0C", "dateTime": 1519676228803}, {"current_trial": 157, "trialdata": {"rt": -1000, "trial_type": "single-audio", "word": "barley", "stimulus": "/static/audio/wordpool/BARLEY.wav", "conditions": [12, 1600, "a", 12000], "internal_node_id": "0.0-112.0", "trial": 4, "time_elapsed": 780519, "serialpos": 0, "key_press": -1, "wordID": 87, "type": "PRES_AUD", "trial_index": 157}, "uniqueid": "MTK3049:3WOKGM4L72NPJLDVBJ1FMWGN7ZXO0C", "dateTime": 1519676231375}, {"current_trial": 158, "trialdata": {"rt": -1000, "trial_type": "single-audio", "word": "dresser", "stimulus": "/static/audio/wordpool/DRESSER.wav", "conditions": [12, 1600, "a", 12000], "internal_node_id": "0.0-113.0", "trial": 4, "time_elapsed": 783170, "serialpos": 1, "key_press": -1, "wordID": 495, "type": "PRES_AUD", "trial_index": 158}, "uniqueid": "MTK3049:3WOKGM4L72NPJLDVBJ1FMWGN7ZXO0C", "dateTime": 1519676234026}, {"current_trial": 159, "trialdata": {"rt": -1000, "trial_type": "single-audio", "word": "sculpture", "stimulus": "/static/audio/wordpool/SCULPTURE.wav", "conditions": [12, 1600, "a", 12000], "internal_node_id": "0.0-114.0", "trial": 4, "time_elapsed": 785811, "serialpos": 2, "key_press": -1, "wordID": 1257, "type": "PRES_AUD", "trial_index": 159}, "uniqueid": "MTK3049:3WOKGM4L72NPJLDVBJ1FMWGN7ZXO0C", "dateTime": 1519676236667}, {"current_trial": 160, "trialdata": {"rt": -1000, "trial_type": "single-audio", "word": "cashier", "stimulus": "/static/audio/wordpool/CASHIER.wav", "conditions": [12, 1600, "a", 12000], "internal_node_id": "0.0-115.0", "trial": 4, "time_elapsed": 788328, "serialpos": 3, "key_press": -1, "wordID": 253, "type": "PRES_AUD", "trial_index": 160}, "uniqueid": "MTK3049:3WOKGM4L72NPJLDVBJ1FMWGN7ZXO0C", "dateTime": 1519676239184}, {"current_trial": 161, "trialdata": {"rt": -1000, "trial_type": "single-audio", "word": "shoulder", "stimulus": "/static/audio/wordpool/SHOULDER.wav", "conditions": [12, 1600, "a", 12000], "internal_node_id": "0.0-116.0", "trial": 4, "time_elapsed": 790795, "serialpos": 4, "key_press": -1, "wordID": 1293, "type": "PRES_AUD", "trial_index": 161}, "uniqueid": "MTK3049:3WOKGM4L72NPJLDVBJ1FMWGN7ZXO0C", "dateTime": 1519676241651}, {"current_trial": 162, "trialdata": {"rt": -1000, "trial_type": "single-audio", "word": "bucket", "stimulus": "/static/audio/wordpool/BUCKET.wav", "conditions": [12, 1600, "a", 12000], "internal_node_id": "0.0-117.0", "trial": 4, "time_elapsed": 793535, "serialpos": 5, "key_press": -1, "wordID": 183, "type": "PRES_AUD", "trial_index": 162}, "uniqueid": "MTK3049:3WOKGM4L72NPJLDVBJ1FMWGN7ZXO0C", "dateTime": 1519676244392}, {"current_trial": 163, "trialdata": {"rt": -1000, "trial_type": "single-audio", "word": "diner", "stimulus": "/static/audio/wordpool/DINER.wav", "conditions": [12, 1600, "a", 12000], "internal_node_id": "0.0-118.0", "trial": 4, "time_elapsed": 796067, "serialpos": 6, "key_press": -1, "wordID": 466, "type": "PRES_AUD", "trial_index": 163}, "uniqueid": "MTK3049:3WOKGM4L72NPJLDVBJ1FMWGN7ZXO0C", "dateTime": 1519676246923}, {"current_trial": 164, "trialdata": {"rt": -1000, "trial_type": "single-audio", "word": "hornet", "stimulus": "/static/audio/wordpool/HORNET.wav", "conditions": [12, 1600, "a", 12000], "internal_node_id": "0.0-119.0", "trial": 4, "time_elapsed": 798511, "serialpos": 7, "key_press": -1, "wordID": 717, "type": "PRES_AUD", "trial_index": 164}, "uniqueid": "MTK3049:3WOKGM4L72NPJLDVBJ1FMWGN7ZXO0C", "dateTime": 1519676249367}, {"current_trial": 165, "trialdata": {"rt": -1000, "trial_type": "single-audio", "word": "spool", "stimulus": "/static/audio/wordpool/SPOOL.wav", "conditions": [12, 1600, "a", 12000], "internal_node_id": "0.0-120.0", "trial": 4, "time_elapsed": 801060, "serialpos": 8, "key_press": -1, "wordID": 1355, "type": "PRES_AUD", "trial_index": 165}, "uniqueid": "MTK3049:3WOKGM4L72NPJLDVBJ1FMWGN7ZXO0C", "dateTime": 1519676251917}, {"current_trial": 166, "trialdata": {"rt": -1000, "trial_type": "single-audio", "word": "rod", "stimulus": "/static/audio/wordpool/ROD.wav", "conditions": [12, 1600, "a", 12000], "internal_node_id": "0.0-121.0", "trial": 4, "time_elapsed": 803498, "serialpos": 9, "key_press": -1, "wordID": 1202, "type": "PRES_AUD", "trial_index": 166}, "uniqueid": "MTK3049:3WOKGM4L72NPJLDVBJ1FMWGN7ZXO0C", "dateTime": 1519676254354}, {"current_trial": 167, "trialdata": {"rt": -1000, "trial_type": "single-audio", "word": "leg", "stimulus": "/static/audio/wordpool/LEG.wav", "conditions": [12, 1600, "a", 12000], "internal_node_id": "0.0-122.0", "trial": 4, "time_elapsed": 806254, "serialpos": 10, "key_press": -1, "wordID": 808, "type": "PRES_AUD", "trial_index": 167}, "uniqueid": "MTK3049:3WOKGM4L72NPJLDVBJ1FMWGN7ZXO0C", "dateTime": 1519676257110}, {"current_trial": 168, "trialdata": {"rt": -1000, "trial_type": "single-audio", "word": "dragon", "stimulus": "/static/audio/wordpool/DRAGON.wav", "conditions": [12, 1600, "a", 12000], "internal_node_id": "0.0-123.0", "trial": 4, "time_elapsed": 808662, "serialpos": 11, "key_press": -1, "wordID": 491, "type": "PRES_AUD", "trial_index": 168}, "uniqueid": "MTK3049:3WOKGM4L72NPJLDVBJ1FMWGN7ZXO0C", "dateTime": 1519676259518}, {"current_trial": 169, "trialdata": {"rt": -1, "trial_type": "single-stim", "stimulus": "", "internal_node_id": "0.0-124.0-0.0", "time_elapsed": 809955, "key_press": -1, "type": "PRE_RECALL_DELAY", "trial_index": 169}, "uniqueid": "MTK3049:3WOKGM4L72NPJLDVBJ1FMWGN7ZXO0C", "dateTime": 1519676260812}, {"current_trial": 170, "trialdata": {"rt": -1000, "trial_type": "single-audio", "stimulus": "/static/audio/400Hz.wav", "internal_node_id": "0.0-125.0", "time_elapsed": 810457, "key_press": -1, "type": "PRE_RECALL_ALERT", "trial_index": 170}, "uniqueid": "MTK3049:3WOKGM4L72NPJLDVBJ1FMWGN7ZXO0C", "dateTime": 1519676261313}, {"current_trial": 171, "trialdata": {"rt": [3515, 6350, 13359, 17296, 20704], "recwords": ["dragon", "bucket", "shoulder", "barley", "hornet"], "key_times": [1051, 1265, 1557, 1771, 2221, 2502, 3515, 4043, 4370, 4730, 4955, 5191, 5551, 6350, 10929, 11142, 11390, 11615, 11863, 12076, 12380, 12425, 13359, 14247, 14405, 14798, 15046, 15203, 15598, 17296, 19029, 19187, 19523, 19737, 19840, 20154, 20704], "trial_type": "free-recall", "conditions": [12, 1600, "a", 12000], "internal_node_id": "0.0-126.0-0.0", "key_presses": [68, 82, 65, 71, 79, 78, 13, 66, 85, 67, 75, 69, 84, 13, 83, 72, 79, 85, 76, 68, 69, 82, 13, 66, 65, 82, 76, 69, 89, 13, 72, 79, 82, 78, 69, 84, 13], "trial": 4, "time_elapsed": 870463, "type": "FREE_RECALL", "trial_index": 171}, "uniqueid": "MTK3049:3WOKGM4L72NPJLDVBJ1FMWGN7ZXO0C", "dateTime": 1519676321322}, {"current_trial": 172, "trialdata": {"rt": 691, "trial_type": "text", "internal_node_id": "0.0-127.0", "time_elapsed": 873159, "key_press": 32, "type": "INSTRUCTIONS", "trial_index": 172}, "uniqueid": "MTK3049:3WOKGM4L72NPJLDVBJ1FMWGN7ZXO0C", "dateTime": 1519676324015}, {"current_trial": 173, "trialdata": {"rt": [2218, 4052, 5863, 7843, 9710, 11444], "trial_type": "math-distractor", "key_times": [1419, 1926, 2218, 3759, 3860, 4052, 5188, 5706, 5863, 7449, 7629, 7843, 9227, 9542, 9710, 11016, 11252, 11444], "responses": ["19", "12", "18", "11", "15", "13"], "num2": [7, 5, 7, 5, 1, 1, 4], "num3": [8, 4, 4, 3, 9, 6, 4], "conditions": [24, 800, "a", 12000], "internal_node_id": "0.0-128.0", "key_presses": [49, 57, 13, 49, 50, 13, 49, 56, 13, 49, 49, 13, 49, 53, 13, 49, 51, 13], "trial": 5, "time_elapsed": 887164, "type": "DISTRACTOR", "trial_index": 173, "num1": [4, 3, 7, 3, 5, 6, 8]}, "uniqueid": "MTK3049:3WOKGM4L72NPJLDVBJ1FMWGN7ZXO0C", "dateTime": 1519676338020}, {"current_trial": 174, "trialdata": {"rt": 271, "trial_type": "single-stim", "stimulus": "<p id=\"stim\">10</p>", "internal_node_id": "0.0-129.0-0.0", "time_elapsed": 890170, "key_press": 13, "trial_index": 174}, "uniqueid": "MTK3049:3WOKGM4L72NPJLDVBJ1FMWGN7ZXO0C", "dateTime": 1519676341026}, {"current_trial": 175, "trialdata": {"rt": -1, "trial_type": "single-stim", "stimulus": "<p id=\"stim\">9</p>", "internal_node_id": "0.0-129.0-1.0", "time_elapsed": 891173, "key_press": -1, "trial_index": 175}, "uniqueid": "MTK3049:3WOKGM4L72NPJLDVBJ1FMWGN7ZXO0C", "dateTime": 1519676342030}, {"current_trial": 176, "trialdata": {"rt": -1, "trial_type": "single-stim", "stimulus": "<p id=\"stim\">8</p>", "internal_node_id": "0.0-129.0-2.0", "time_elapsed": 892180, "key_press": -1, "trial_index": 176}, "uniqueid": "MTK3049:3WOKGM4L72NPJLDVBJ1FMWGN7ZXO0C", "dateTime": 1519676343036}, {"current_trial": 177, "trialdata": {"rt": -1, "trial_type": "single-stim", "stimulus": "<p id=\"stim\">7</p>", "internal_node_id": "0.0-129.0-3.0", "time_elapsed": 893182, "key_press": -1, "trial_index": 177}, "uniqueid": "MTK3049:3WOKGM4L72NPJLDVBJ1FMWGN7ZXO0C", "dateTime": 1519676344038}, {"current_trial": 178, "trialdata": {"rt": -1, "trial_type": "single-stim", "stimulus": "<p id=\"stim\">6</p>", "internal_node_id": "0.0-129.0-4.0", "time_elapsed": 894186, "key_press": -1, "trial_index": 178}, "uniqueid": "MTK3049:3WOKGM4L72NPJLDVBJ1FMWGN7ZXO0C", "dateTime": 1519676345042}, {"current_trial": 179, "trialdata": {"rt": -1, "trial_type": "single-stim", "stimulus": "<p id=\"stim\">5</p>", "internal_node_id": "0.0-129.0-5.0", "time_elapsed": 895190, "key_press": -1, "trial_index": 179}, "uniqueid": "MTK3049:3WOKGM4L72NPJLDVBJ1FMWGN7ZXO0C", "dateTime": 1519676346046}, {"current_trial": 180, "trialdata": {"rt": -1, "trial_type": "single-stim", "stimulus": "<p id=\"stim\">4</p>", "internal_node_id": "0.0-129.0-6.0", "time_elapsed": 896195, "key_press": -1, "trial_index": 180}, "uniqueid": "MTK3049:3WOKGM4L72NPJLDVBJ1FMWGN7ZXO0C", "dateTime": 1519676347051}, {"current_trial": 181, "trialdata": {"rt": -1, "trial_type": "single-stim", "stimulus": "<p id=\"stim\">3</p>", "internal_node_id": "0.0-129.0-7.0", "time_elapsed": 897198, "key_press": -1, "trial_index": 181}, "uniqueid": "MTK3049:3WOKGM4L72NPJLDVBJ1FMWGN7ZXO0C", "dateTime": 1519676348054}, {"current_trial": 182, "trialdata": {"rt": -1, "trial_type": "single-stim", "stimulus": "<p id=\"stim\">2</p>", "internal_node_id": "0.0-129.0-8.0", "time_elapsed": 898203, "key_press": -1, "trial_index": 182}, "uniqueid": "MTK3049:3WOKGM4L72NPJLDVBJ1FMWGN7ZXO0C", "dateTime": 1519676349059}, {"current_trial": 183, "trialdata": {"rt": -1, "trial_type": "single-stim", "stimulus": "<p id=\"stim\">1</p>", "internal_node_id": "0.0-129.0-9.0", "time_elapsed": 899207, "key_press": -1, "trial_index": 183}, "uniqueid": "MTK3049:3WOKGM4L72NPJLDVBJ1FMWGN7ZXO0C", "dateTime": 1519676350064}, {"current_trial": 184, "trialdata": {"rt": -1, "trial_type": "single-stim", "stimulus": "<p id=\"stim\">+</p>", "internal_node_id": "0.0-130.0-0.0", "time_elapsed": 900710, "key_press": -1, "type": "FIXATION", "trial_index": 184}, "uniqueid": "MTK3049:3WOKGM4L72NPJLDVBJ1FMWGN7ZXO0C", "dateTime": 1519676351566}, {"current_trial": 185, "trialdata": {"rt": -1000, "trial_type": "single-audio", "word": "glove", "stimulus": "/static/audio/wordpool/GLOVE.wav", "conditions": [24, 800, "a", 12000], "internal_node_id": "0.0-131.0", "trial": 5, "time_elapsed": 902549, "serialpos": 0, "key_press": -1, "wordID": 641, "type": "PRES_AUD", "trial_index": 185}, "uniqueid": "MTK3049:3WOKGM4L72NPJLDVBJ1FMWGN7ZXO0C", "dateTime": 1519676353405}, {"current_trial": 186, "trialdata": {"rt": -1000, "trial_type": "single-audio", "word": "clothes", "stimulus": "/static/audio/wordpool/CLOTHES.wav", "conditions": [24, 800, "a", 12000], "internal_node_id": "0.0-132.0", "trial": 5, "time_elapsed": 904512, "serialpos": 1, "key_press": -1, "wordID": 326, "type": "PRES_AUD", "trial_index": 186}, "uniqueid": "MTK3049:3WOKGM4L72NPJLDVBJ1FMWGN7ZXO0C", "dateTime": 1519676355368}, {"current_trial": 187, "trialdata": {"rt": -1000, "trial_type": "single-audio", "word": "dress", "stimulus": "/static/audio/wordpool/DRESS.wav", "conditions": [24, 800, "a", 12000], "internal_node_id": "0.0-133.0", "trial": 5, "time_elapsed": 906446, "serialpos": 2, "key_press": -1, "wordID": 494, "type": "PRES_AUD", "trial_index": 187}, "uniqueid": "MTK3049:3WOKGM4L72NPJLDVBJ1FMWGN7ZXO0C", "dateTime": 1519676357302}, {"current_trial": 188, "trialdata": {"rt": -1000, "trial_type": "single-audio", "word": "tweezers", "stimulus": "/static/audio/wordpool/TWEEZERS.wav", "conditions": [24, 800, "a", 12000], "internal_node_id": "0.0-134.0", "trial": 5, "time_elapsed": 908349, "serialpos": 3, "key_press": -1, "wordID": 1525, "type": "PRES_AUD", "trial_index": 188}, "uniqueid": "MTK3049:3WOKGM4L72NPJLDVBJ1FMWGN7ZXO0C", "dateTime": 1519676359206}, {"current_trial": 189, "trialdata": {"rt": -1000, "trial_type": "single-audio", "word": "tile", "stimulus": "/static/audio/wordpool/TILE.wav", "conditions": [24, 800, "a", 12000], "internal_node_id": "0.0-135.0", "trial": 5, "time_elapsed": 910321, "serialpos": 4, "key_press": -1, "wordID": 1467, "type": "PRES_AUD", "trial_index": 189}, "uniqueid": "MTK3049:3WOKGM4L72NPJLDVBJ1FMWGN7ZXO0C", "dateTime": 1519676361177}, {"current_trial": 190, "trialdata": {"rt": -1000, "trial_type": "single-audio", "word": "racket", "stimulus": "/static/audio/wordpool/RACKET.wav", "conditions": [24, 800, "a", 12000], "internal_node_id": "0.0-136.0", "trial": 5, "time_elapsed": 912230, "serialpos": 5, "key_press": -1, "wordID": 1154, "type": "PRES_AUD", "trial_index": 190}, "uniqueid": "MTK3049:3WOKGM4L72NPJLDVBJ1FMWGN7ZXO0C", "dateTime": 1519676363087}, {"current_trial": 191, "trialdata": {"rt": -1000, "trial_type": "single-audio", "word": "bubble", "stimulus": "/static/audio/wordpool/BUBBLE.wav", "conditions": [24, 800, "a", 12000], "internal_node_id": "0.0-137.0", "trial": 5, "time_elapsed": 913850, "serialpos": 6, "key_press": -1, "wordID": 182, "type": "PRES_AUD", "trial_index": 191}, "uniqueid": "MTK3049:3WOKGM4L72NPJLDVBJ1FMWGN7ZXO0C", "dateTime": 1519676364706}, {"current_trial": 192, "trialdata": {"rt": -1000, "trial_type": "single-audio", "word": "luggage", "stimulus": "/static/audio/wordpool/LUGGAGE.wav", "conditions": [24, 800, "a", 12000], "internal_node_id": "0.0-138.0", "trial": 5, "time_elapsed": 915582, "serialpos": 7, "key_press": -1, "wordID": 846, "type": "PRES_AUD", "trial_index": 192}, "uniqueid": "MTK3049:3WOKGM4L72NPJLDVBJ1FMWGN7ZXO0C", "dateTime": 1519676366438}, {"current_trial": 193, "trialdata": {"rt": -1000, "trial_type": "single-audio", "word": "baby", "stimulus": "/static/audio/wordpool/BABY.wav", "conditions": [24, 800, "a", 12000], "internal_node_id": "0.0-139.0", "trial": 5, "time_elapsed": 917291, "serialpos": 8, "key_press": -1, "wordID": 63, "type": "PRES_AUD", "trial_index": 193}, "uniqueid": "MTK3049:3WOKGM4L72NPJLDVBJ1FMWGN7ZXO0C", "dateTime": 1519676368147}, {"current_trial": 194, "trialdata": {"rt": -1000, "trial_type": "single-audio", "word": "child", "stimulus": "/static/audio/wordpool/CHILD.wav", "conditions": [24, 800, "a", 12000], "internal_node_id": "0.0-140.0", "trial": 5, "time_elapsed": 919174, "serialpos": 9, "key_press": -1, "wordID": 298, "type": "PRES_AUD", "trial_index": 194}, "uniqueid": "MTK3049:3WOKGM4L72NPJLDVBJ1FMWGN7ZXO0C", "dateTime": 1519676370030}, {"current_trial": 195, "trialdata": {"rt": -1000, "trial_type": "single-audio", "word": "scarf", "stimulus": "/static/audio/wordpool/SCARF.wav", "conditions": [24, 800, "a", 12000], "internal_node_id": "0.0-141.0", "trial": 5, "time_elapsed": 921094, "serialpos": 10, "key_press": -1, "wordID": 1245, "type": "PRES_AUD", "trial_index": 195}, "uniqueid": "MTK3049:3WOKGM4L72NPJLDVBJ1FMWGN7ZXO0C", "dateTime": 1519676371950}, {"current_trial": 196, "trialdata": {"rt": -1000, "trial_type": "single-audio", "word": "drink", "stimulus": "/static/audio/wordpool/DRINK.wav", "conditions": [24, 800, "a", 12000], "internal_node_id": "0.0-142.0", "trial": 5, "time_elapsed": 922827, "serialpos": 11, "key_press": -1, "wordID": 497, "type": "PRES_AUD", "trial_index": 196}, "uniqueid": "MTK3049:3WOKGM4L72NPJLDVBJ1FMWGN7ZXO0C", "dateTime": 1519676373683}, {"current_trial": 197, "trialdata": {"rt": -1000, "trial_type": "single-audio", "word": "blueprint", "stimulus": "/static/audio/wordpool/BLUEPRINT.wav", "conditions": [24, 800, "a", 12000], "internal_node_id": "0.0-143.0", "trial": 5, "time_elapsed": 924442, "serialpos": 12, "key_press": -1, "wordID": 141, "type": "PRES_AUD", "trial_index": 197}, "uniqueid": "MTK3049:3WOKGM4L72NPJLDVBJ1FMWGN7ZXO0C", "dateTime": 1519676375298}, {"current_trial": 198, "trialdata": {"rt": -1000, "trial_type": "single-audio", "word": "camel", "stimulus": "/static/audio/wordpool/CAMEL.wav", "conditions": [24, 800, "a", 12000], "internal_node_id": "0.0-144.0", "trial": 5, "time_elapsed": 926096, "serialpos": 13, "key_press": -1, "wordID": 222, "type": "PRES_AUD", "trial_index": 198}, "uniqueid": "MTK3049:3WOKGM4L72NPJLDVBJ1FMWGN7ZXO0C", "dateTime": 1519676376952}, {"current_trial": 199, "trialdata": {"rt": -1000, "trial_type": "single-audio", "word": "donkey", "stimulus": "/static/audio/wordpool/DONKEY.wav", "conditions": [24, 800, "a", 12000], "internal_node_id": "0.0-145.0", "trial": 5, "time_elapsed": 927965, "serialpos": 14, "key_press": -1, "wordID": 483, "type": "PRES_AUD", "trial_index": 199}, "uniqueid": "MTK3049:3WOKGM4L72NPJLDVBJ1FMWGN7ZXO0C", "dateTime": 1519676378821}, {"current_trial": 200, "trialdata": {"rt": -1000, "trial_type": "single-audio", "word": "panther", "stimulus": "/static/audio/wordpool/PANTHER.wav", "conditions": [24, 800, "a", 12000], "internal_node_id": "0.0-146.0", "trial": 5, "time_elapsed": 929851, "serialpos": 15, "key_press": -1, "wordID": 1008, "type": "PRES_AUD", "trial_index": 200}, "uniqueid": "MTK3049:3WOKGM4L72NPJLDVBJ1FMWGN7ZXO0C", "dateTime": 1519676380708}, {"current_trial": 201, "trialdata": {"rt": -1000, "trial_type": "single-audio", "word": "buggy", "stimulus": "/static/audio/wordpool/BUGGY.wav", "conditions": [24, 800, "a", 12000], "internal_node_id": "0.0-147.0", "trial": 5, "time_elapsed": 931849, "serialpos": 16, "key_press": -1, "wordID": 187, "type": "PRES_AUD", "trial_index": 201}, "uniqueid": "MTK3049:3WOKGM4L72NPJLDVBJ1FMWGN7ZXO0C", "dateTime": 1519676382706}, {"current_trial": 202, "trialdata": {"rt": -1000, "trial_type": "single-audio", "word": "lagoon", "stimulus": "/static/audio/wordpool/LAGOON.wav", "conditions": [24, 800, "a", 12000], "internal_node_id": "0.0-148.0", "trial": 5, "time_elapsed": 933654, "serialpos": 17, "key_press": -1, "wordID": 794, "type": "PRES_AUD", "trial_index": 202}, "uniqueid": "MTK3049:3WOKGM4L72NPJLDVBJ1FMWGN7ZXO0C", "dateTime": 1519676384510}, {"current_trial": 203, "trialdata": {"rt": -1000, "trial_type": "single-audio", "word": "cabin", "stimulus": "/static/audio/wordpool/CABIN.wav", "conditions": [24, 800, "a", 12000], "internal_node_id": "0.0-149.0", "trial": 5, "time_elapsed": 935443, "serialpos": 18, "key_press": -1, "wordID": 210, "type": "PRES_AUD", "trial_index": 203}, "uniqueid": "MTK3049:3WOKGM4L72NPJLDVBJ1FMWGN7ZXO0C", "dateTime": 1519676386299}, {"current_trial": 204, "trialdata": {"rt": -1000, "trial_type": "single-audio", "word": "rocket", "stimulus": "/static/audio/wordpool/ROCKET.wav", "conditions": [24, 800, "a", 12000], "internal_node_id": "0.0-150.0", "trial": 5, "time_elapsed": 937329, "serialpos": 19, "key_press": -1, "wordID": 1201, "type": "PRES_AUD", "trial_index": 204}, "uniqueid": "MTK3049:3WOKGM4L72NPJLDVBJ1FMWGN7ZXO0C", "dateTime": 1519676388185}, {"current_trial": 205, "trialdata": {"rt": -1000, "trial_type": "single-audio", "word": "puddle", "stimulus": "/static/audio/wordpool/PUDDLE.wav", "conditions": [24, 800, "a", 12000], "internal_node_id": "0.0-151.0", "trial": 5, "time_elapsed": 939148, "serialpos": 20, "key_press": -1, "wordID": 1139, "type": "PRES_AUD", "trial_index": 205}, "uniqueid": "MTK3049:3WOKGM4L72NPJLDVBJ1FMWGN7ZXO0C", "dateTime": 1519676390004}, {"current_trial": 206, "trialdata": {"rt": -1000, "trial_type": "single-audio", "word": "zebra", "stimulus": "/static/audio/wordpool/ZEBRA.wav", "conditions": [24, 800, "a", 12000], "internal_node_id": "0.0-152.0", "trial": 5, "time_elapsed": 941142, "serialpos": 21, "key_press": -1, "wordID": 1634, "type": "PRES_AUD", "trial_index": 206}, "uniqueid": "MTK3049:3WOKGM4L72NPJLDVBJ1FMWGN7ZXO0C", "dateTime": 1519676391998}, {"current_trial": 207, "trialdata": {"rt": -1000, "trial_type": "single-audio", "word": "brick", "stimulus": "/static/audio/wordpool/BRICK.wav", "conditions": [24, 800, "a", 12000], "internal_node_id": "0.0-153.0", "trial": 5, "time_elapsed": 942935, "serialpos": 22, "key_press": -1, "wordID": 171, "type": "PRES_AUD", "trial_index": 207}, "uniqueid": "MTK3049:3WOKGM4L72NPJLDVBJ1FMWGN7ZXO0C", "dateTime": 1519676393791}, {"current_trial": 208, "trialdata": {"rt": -1000, "trial_type": "single-audio", "word": "scotch", "stimulus": "/static/audio/wordpool/SCOTCH.wav", "conditions": [24, 800, "a", 12000], "internal_node_id": "0.0-154.0", "trial": 5, "time_elapsed": 944693, "serialpos": 23, "key_press": -1, "wordID": 1250, "type": "PRES_AUD", "trial_index": 208}, "uniqueid": "MTK3049:3WOKGM4L72NPJLDVBJ1FMWGN7ZXO0C", "dateTime": 1519676395549}, {"current_trial": 209, "trialdata": {"rt": -1, "trial_type": "single-stim", "stimulus": "", "internal_node_id": "0.0-155.0-0.0", "time_elapsed": 945995, "key_press": -1, "type": "PRE_RECALL_DELAY", "trial_index": 209}, "uniqueid": "MTK3049:3WOKGM4L72NPJLDVBJ1FMWGN7ZXO0C", "dateTime": 1519676396851}, {"current_trial": 210, "trialdata": {"rt": -1000, "trial_type": "single-audio", "stimulus": "/static/audio/400Hz.wav", "internal_node_id": "0.0-156.0", "time_elapsed": 946496, "key_press": -1, "type": "PRE_RECALL_ALERT", "trial_index": 210}, "uniqueid": "MTK3049:3WOKGM4L72NPJLDVBJ1FMWGN7ZXO0C", "dateTime": 1519676397352}, {"current_trial": 211, "trialdata": {"rt": [2769, 8349, 10689, 12939, 15257, 25348, 28869], "recwords": ["brick", "scotch", "panther", "baby", "child", "glove", "dress"], "key_times": [1487, 1745, 1970, 2274, 2487, 2769, 3072, 3332, 3568, 3838, 4006, 6279, 6503, 7494, 7764, 8090, 8349, 8743, 8900, 9102, 9385, 9542, 9687, 9811, 10689, 11511, 11712, 12017, 12320, 12939, 13344, 13715, 13985, 14244, 14637, 15257, 22862, 22986, 23200, 23907, 24391, 25348, 25821, 26090, 26293, 26597, 26742, 28869], "trial_type": "free-recall", "conditions": [24, 800, "a", 12000], "internal_node_id": "0.0-157.0-0.0", "key_presses": [66, 82, 73, 67, 75, 13, 83, 67, 79, 84, 72, 8, 8, 84, 67, 72, 13, 80, 65, 78, 84, 72, 69, 82, 32, 66, 65, 66, 89, 13, 67, 72, 73, 76, 68, 13, 71, 76, 79, 86, 69, 13, 68, 82, 69, 83, 83, 13], "trial": 5, "time_elapsed": 1006502, "type": "FREE_RECALL", "trial_index": 211}, "uniqueid": "MTK3049:3WOKGM4L72NPJLDVBJ1FMWGN7ZXO0C", "dateTime": 1519676457360}, {"current_trial": 212, "trialdata": {"rt": 8586, "trial_type": "text", "internal_node_id": "0.0-158.0", "time_elapsed": 1017093, "key_press": 32, "type": "INSTRUCTIONS", "trial_index": 212}, "uniqueid": "MTK3049:3WOKGM4L72NPJLDVBJ1FMWGN7ZXO0C", "dateTime": 1519676467949}, {"current_trial": 213, "trialdata": {"rt": [2191, 4824, 6803, 8896, 10808], "trial_type": "math-distractor", "key_times": [1471, 1876, 2191, 3575, 4094, 4215, 4530, 4824, 6096, 6567, 6803, 8188, 8705, 8896, 10100, 10607, 10808, 11899], "responses": ["15", "24", "16", "19", "19"], "num2": [8, 9, 8, 8, 2, 1], "num3": [1, 7, 5, 9, 8, 9], "conditions": [24, 1600, "a", 12000], "internal_node_id": "0.0-159.0", "key_presses": [49, 53, 13, 49, 8, 50, 52, 13, 49, 54, 13, 49, 57, 13, 49, 57, 13, 49], "trial": 6, "time_elapsed": 1031102, "type": "DISTRACTOR", "trial_index": 213, "num1": [6, 8, 3, 2, 9, 1]}, "uniqueid": "MTK3049:3WOKGM4L72NPJLDVBJ1FMWGN7ZXO0C", "dateTime": 1519676481958}, {"current_trial": 214, "trialdata": {"rt": -1, "trial_type": "single-stim", "stimulus": "<p id=\"stim\">10</p>", "internal_node_id": "0.0-160.0-0.0", "time_elapsed": 1034107, "key_press": -1, "trial_index": 214}, "uniqueid": "MTK3049:3WOKGM4L72NPJLDVBJ1FMWGN7ZXO0C", "dateTime": 1519676484963}, {"current_trial": 215, "trialdata": {"rt": -1, "trial_type": "single-stim", "stimulus": "<p id=\"stim\">9</p>", "internal_node_id": "0.0-160.0-1.0", "time_elapsed": 1035111, "key_press": -1, "trial_index": 215}, "uniqueid": "MTK3049:3WOKGM4L72NPJLDVBJ1FMWGN7ZXO0C", "dateTime": 1519676485967}, {"current_trial": 216, "trialdata": {"rt": -1, "trial_type": "single-stim", "stimulus": "<p id=\"stim\">8</p>", "internal_node_id": "0.0-160.0-2.0", "time_elapsed": 1036115, "key_press": -1, "trial_index": 216}, "uniqueid": "MTK3049:3WOKGM4L72NPJLDVBJ1FMWGN7ZXO0C", "dateTime": 1519676486971}, {"current_trial": 217, "trialdata": {"rt": -1, "trial_type": "single-stim", "stimulus": "<p id=\"stim\">7</p>", "internal_node_id": "0.0-160.0-3.0", "time_elapsed": 1037119, "key_press": -1, "trial_index": 217}, "uniqueid": "MTK3049:3WOKGM4L72NPJLDVBJ1FMWGN7ZXO0C", "dateTime": 1519676487975}, {"current_trial": 218, "trialdata": {"rt": -1, "trial_type": "single-stim", "stimulus": "<p id=\"stim\">6</p>", "internal_node_id": "0.0-160.0-4.0", "time_elapsed": 1038122, "key_press": -1, "trial_index": 218}, "uniqueid": "MTK3049:3WOKGM4L72NPJLDVBJ1FMWGN7ZXO0C", "dateTime": 1519676488979}, {"current_trial": 219, "trialdata": {"rt": -1, "trial_type": "single-stim", "stimulus": "<p id=\"stim\">5</p>", "internal_node_id": "0.0-160.0-5.0", "time_elapsed": 1039126, "key_press": -1, "trial_index": 219}, "uniqueid": "MTK3049:3WOKGM4L72NPJLDVBJ1FMWGN7ZXO0C", "dateTime": 1519676489983}, {"current_trial": 220, "trialdata": {"rt": -1, "trial_type": "single-stim", "stimulus": "<p id=\"stim\">4</p>", "internal_node_id": "0.0-160.0-6.0", "time_elapsed": 1040132, "key_press": -1, "trial_index": 220}, "uniqueid": "MTK3049:3WOKGM4L72NPJLDVBJ1FMWGN7ZXO0C", "dateTime": 1519676490988}, {"current_trial": 221, "trialdata": {"rt": -1, "trial_type": "single-stim", "stimulus": "<p id=\"stim\">3</p>", "internal_node_id": "0.0-160.0-7.0", "time_elapsed": 1041137, "key_press": -1, "trial_index": 221}, "uniqueid": "MTK3049:3WOKGM4L72NPJLDVBJ1FMWGN7ZXO0C", "dateTime": 1519676491994}, {"current_trial": 222, "trialdata": {"rt": -1, "trial_type": "single-stim", "stimulus": "<p id=\"stim\">2</p>", "internal_node_id": "0.0-160.0-8.0", "time_elapsed": 1042142, "key_press": -1, "trial_index": 222}, "uniqueid": "MTK3049:3WOKGM4L72NPJLDVBJ1FMWGN7ZXO0C", "dateTime": 1519676492998}, {"current_trial": 223, "trialdata": {"rt": -1, "trial_type": "single-stim", "stimulus": "<p id=\"stim\">1</p>", "internal_node_id": "0.0-160.0-9.0", "time_elapsed": 1043146, "key_press": -1, "trial_index": 223}, "uniqueid": "MTK3049:3WOKGM4L72NPJLDVBJ1FMWGN7ZXO0C", "dateTime": 1519676494002}, {"current_trial": 224, "trialdata": {"rt": -1, "trial_type": "single-stim", "stimulus": "<p id=\"stim\">+</p>", "internal_node_id": "0.0-161.0-0.0", "time_elapsed": 1044649, "key_press": -1, "type": "FIXATION", "trial_index": 224}, "uniqueid": "MTK3049:3WOKGM4L72NPJLDVBJ1FMWGN7ZXO0C", "dateTime": 1519676495505}, {"current_trial": 225, "trialdata": {"rt": -1000, "trial_type": "single-audio", "word": "wrist", "stimulus": "/static/audio/wordpool/WRIST.wav", "conditions": [24, 1600, "a", 12000], "internal_node_id": "0.0-162.0", "trial": 6, "time_elapsed": 1047194, "serialpos": 0, "key_press": -1, "wordID": 1625, "type": "PRES_AUD", "trial_index": 225}, "uniqueid": "MTK3049:3WOKGM4L72NPJLDVBJ1FMWGN7ZXO0C", "dateTime": 1519676498050}, {"current_trial": 226, "trialdata": {"rt": -1000, "trial_type": "single-audio", "word": "convict", "stimulus": "/static/audio/wordpool/CONVICT.wav", "conditions": [24, 1600, "a", 12000], "internal_node_id": "0.0-163.0", "trial": 6, "time_elapsed": 1049870, "serialpos": 1, "key_press": -1, "wordID": 370, "type": "PRES_AUD", "trial_index": 226}, "uniqueid": "MTK3049:3WOKGM4L72NPJLDVBJ1FMWGN7ZXO0C", "dateTime": 1519676500726}, {"current_trial": 227, "trialdata": {"rt": -1000, "trial_type": "single-audio", "word": "wardrobe", "stimulus": "/static/audio/wordpool/WARDROBE.wav", "conditions": [24, 1600, "a", 12000], "internal_node_id": "0.0-164.0", "trial": 6, "time_elapsed": 1052441, "serialpos": 2, "key_press": -1, "wordID": 1586, "type": "PRES_AUD", "trial_index": 227}, "uniqueid": "MTK3049:3WOKGM4L72NPJLDVBJ1FMWGN7ZXO0C", "dateTime": 1519676503298}, {"current_trial": 228, "trialdata": {"rt": -1000, "trial_type": "single-audio", "word": "gazelle", "stimulus": "/static/audio/wordpool/GAZELLE.wav", "conditions": [24, 1600, "a", 12000], "internal_node_id": "0.0-165.0", "trial": 6, "time_elapsed": 1055122, "serialpos": 3, "key_press": -1, "wordID": 627, "type": "PRES_AUD", "trial_index": 228}, "uniqueid": "MTK3049:3WOKGM4L72NPJLDVBJ1FMWGN7ZXO0C", "dateTime": 1519676505979}, {"current_trial": 229, "trialdata": {"rt": -1000, "trial_type": "single-audio", "word": "football", "stimulus": "/static/audio/wordpool/FOOTBALL.wav", "conditions": [24, 1600, "a", 12000], "internal_node_id": "0.0-166.0", "trial": 6, "time_elapsed": 1057566, "serialpos": 4, "key_press": -1, "wordID": 590, "type": "PRES_AUD", "trial_index": 229}, "uniqueid": "MTK3049:3WOKGM4L72NPJLDVBJ1FMWGN7ZXO0C", "dateTime": 1519676508422}, {"current_trial": 230, "trialdata": {"rt": -1000, "trial_type": "single-audio", "word": "cricket", "stimulus": "/static/audio/wordpool/CRICKET.wav", "conditions": [24, 1600, "a", 12000], "internal_node_id": "0.0-167.0", "trial": 6, "time_elapsed": 1060206, "serialpos": 5, "key_press": -1, "wordID": 407, "type": "PRES_AUD", "trial_index": 230}, "uniqueid": "MTK3049:3WOKGM4L72NPJLDVBJ1FMWGN7ZXO0C", "dateTime": 1519676511062}, {"current_trial": 231, "trialdata": {"rt": -1000, "trial_type": "single-audio", "word": "lamp", "stimulus": "/static/audio/wordpool/LAMP.wav", "conditions": [24, 1600, "a", 12000], "internal_node_id": "0.0-168.0", "trial": 6, "time_elapsed": 1062942, "serialpos": 6, "key_press": -1, "wordID": 797, "type": "PRES_AUD", "trial_index": 231}, "uniqueid": "MTK3049:3WOKGM4L72NPJLDVBJ1FMWGN7ZXO0C", "dateTime": 1519676513798}, {"current_trial": 232, "trialdata": {"rt": -1000, "trial_type": "single-audio", "word": "river", "stimulus": "/static/audio/wordpool/RIVER.wav", "conditions": [24, 1600, "a", 12000], "internal_node_id": "0.0-169.0", "trial": 6, "time_elapsed": 1065437, "serialpos": 7, "key_press": -1, "wordID": 1193, "type": "PRES_AUD", "trial_index": 232}, "uniqueid": "MTK3049:3WOKGM4L72NPJLDVBJ1FMWGN7ZXO0C", "dateTime": 1519676516293}, {"current_trial": 233, "trialdata": {"rt": -1000, "trial_type": "single-audio", "word": "captive", "stimulus": "/static/audio/wordpool/CAPTIVE.wav", "conditions": [24, 1600, "a", 12000], "internal_node_id": "0.0-170.0", "trial": 6, "time_elapsed": 1067973, "serialpos": 8, "key_press": -1, "wordID": 239, "type": "PRES_AUD", "trial_index": 233}, "uniqueid": "MTK3049:3WOKGM4L72NPJLDVBJ1FMWGN7ZXO0C", "dateTime": 1519676518829}, {"current_trial": 234, "trialdata": {"rt": -1000, "trial_type": "single-audio", "word": "boyfriend", "stimulus": "/static/audio/wordpool/BOYFRIEND.wav", "conditions": [24, 1600, "a", 12000], "internal_node_id": "0.0-171.0", "trial": 6, "time_elapsed": 1070660, "serialpos": 9, "key_press": -1, "wordID": 161, "type": "PRES_AUD", "trial_index": 234}, "uniqueid": "MTK3049:3WOKGM4L72NPJLDVBJ1FMWGN7ZXO0C", "dateTime": 1519676521516}, {"current_trial": 235, "trialdata": {"rt": -1000, "trial_type": "single-audio", "word": "husband", "stimulus": "/static/audio/wordpool/HUSBAND.wav", "conditions": [24, 1600, "a", 12000], "internal_node_id": "0.0-172.0", "trial": 6, "time_elapsed": 1073214, "serialpos": 10, "key_press": -1, "wordID": 727, "type": "PRES_AUD", "trial_index": 235}, "uniqueid": "MTK3049:3WOKGM4L72NPJLDVBJ1FMWGN7ZXO0C", "dateTime": 1519676524070}, {"current_trial": 236, "trialdata": {"rt": -1000, "trial_type": "single-audio", "word": "canal", "stimulus": "/static/audio/wordpool/CANAL.wav", "conditions": [24, 1600, "a", 12000], "internal_node_id": "0.0-173.0", "trial": 6, "time_elapsed": 1075912, "serialpos": 11, "key_press": -1, "wordID": 225, "type": "PRES_AUD", "trial_index": 236}, "uniqueid": "MTK3049:3WOKGM4L72NPJLDVBJ1FMWGN7ZXO0C", "dateTime": 1519676526768}, {"current_trial": 237, "trialdata": {"rt": -1000, "trial_type": "single-audio", "word": "hook", "stimulus": "/static/audio/wordpool/HOOK.wav", "conditions": [24, 1600, "a", 12000], "internal_node_id": "0.0-174.0", "trial": 6, "time_elapsed": 1078714, "serialpos": 12, "key_press": -1, "wordID": 714, "type": "PRES_AUD", "trial_index": 237}, "uniqueid": "MTK3049:3WOKGM4L72NPJLDVBJ1FMWGN7ZXO0C", "dateTime": 1519676529571}, {"current_trial": 238, "trialdata": {"rt": -1000, "trial_type": "single-audio", "word": "pork", "stimulus": "/static/audio/wordpool/PORK.wav", "conditions": [24, 1600, "a", 12000], "internal_node_id": "0.0-175.0", "trial": 6, "time_elapsed": 1081172, "serialpos": 13, "key_press": -1, "wordID": 1107, "type": "PRES_AUD", "trial_index": 238}, "uniqueid": "MTK3049:3WOKGM4L72NPJLDVBJ1FMWGN7ZXO0C", "dateTime": 1519676532029}, {"current_trial": 239, "trialdata": {"rt": -1000, "trial_type": "single-audio", "word": "cobra", "stimulus": "/static/audio/wordpool/COBRA.wav", "conditions": [24, 1600, "a", 12000], "internal_node_id": "0.0-176.0", "trial": 6, "time_elapsed": 1083802, "serialpos": 14, "key_press": -1, "wordID": 335, "type": "PRES_AUD", "trial_index": 239}, "uniqueid": "MTK3049:3WOKGM4L72NPJLDVBJ1FMWGN7ZXO0C", "dateTime": 1519676534658}, {"current_trial": 240, "trialdata": {"rt": -1000, "trial_type": "single-audio", "word": "neutron", "stimulus": "/static/audio/wordpool/NEUTRON.wav", "conditions": [24, 1600, "a", 12000], "internal_node_id": "0.0-177.0", "trial": 6, "time_elapsed": 1086395, "serialpos": 15, "key_press": -1, "wordID": 946, "type": "PRES_AUD", "trial_index": 240}, "uniqueid": "MTK3049:3WOKGM4L72NPJLDVBJ1FMWGN7ZXO0C", "dateTime": 1519676537251}, {"current_trial": 241, "trialdata": {"rt": -1000, "trial_type": "single-audio", "word": "tombstone", "stimulus": "/static/audio/wordpool/TOMBSTONE.wav", "conditions": [24, 1600, "a", 12000], "internal_node_id": "0.0-178.0", "trial": 6, "time_elapsed": 1089194, "serialpos": 16, "key_press": -1, "wordID": 1477, "type": "PRES_AUD", "trial_index": 241}, "uniqueid": "MTK3049:3WOKGM4L72NPJLDVBJ1FMWGN7ZXO0C", "dateTime": 1519676540050}, {"current_trial": 242, "trialdata": {"rt": -1000, "trial_type": "single-audio", "word": "statue", "stimulus": "/static/audio/wordpool/STATUE.wav", "conditions": [24, 1600, "a", 12000], "internal_node_id": "0.0-179.0", "trial": 6, "time_elapsed": 1091694, "serialpos": 17, "key_press": -1, "wordID": 1373, "type": "PRES_AUD", "trial_index": 242}, "uniqueid": "MTK3049:3WOKGM4L72NPJLDVBJ1FMWGN7ZXO0C", "dateTime": 1519676542551}, {"current_trial": 243, "trialdata": {"rt": -1000, "trial_type": "single-audio", "word": "cod", "stimulus": "/static/audio/wordpool/COD.wav", "conditions": [24, 1600, "a", 12000], "internal_node_id": "0.0-180.0", "trial": 6, "time_elapsed": 1094418, "serialpos": 18, "key_press": -1, "wordID": 339, "type": "PRES_AUD", "trial_index": 243}, "uniqueid": "MTK3049:3WOKGM4L72NPJLDVBJ1FMWGN7ZXO0C", "dateTime": 1519676545274}, {"current_trial": 244, "trialdata": {"rt": -1000, "trial_type": "single-audio", "word": "sausage", "stimulus": "/static/audio/wordpool/SAUSAGE.wav", "conditions": [24, 1600, "a", 12000], "internal_node_id": "0.0-181.0", "trial": 6, "time_elapsed": 1097197, "serialpos": 19, "key_press": -1, "wordID": 1237, "type": "PRES_AUD", "trial_index": 244}, "uniqueid": "MTK3049:3WOKGM4L72NPJLDVBJ1FMWGN7ZXO0C", "dateTime": 1519676548053}, {"current_trial": 245, "trialdata": {"rt": -1000, "trial_type": "single-audio", "word": "mop", "stimulus": "/static/audio/wordpool/MOP.wav", "conditions": [24, 1600, "a", 12000], "internal_node_id": "0.0-182.0", "trial": 6, "time_elapsed": 1099703, "serialpos": 20, "key_press": -1, "wordID": 915, "type": "PRES_AUD", "trial_index": 245}, "uniqueid": "MTK3049:3WOKGM4L72NPJLDVBJ1FMWGN7ZXO0C", "dateTime": 1519676550559}, {"current_trial": 246, "trialdata": {"rt": -1000, "trial_type": "single-audio", "word": "casket", "stimulus": "/static/audio/wordpool/CASKET.wav", "conditions": [24, 1600, "a", 12000], "internal_node_id": "0.0-183.0", "trial": 6, "time_elapsed": 1102311, "serialpos": 21, "key_press": -1, "wordID": 254, "type": "PRES_AUD", "trial_index": 246}, "uniqueid": "MTK3049:3WOKGM4L72NPJLDVBJ1FMWGN7ZXO0C", "dateTime": 1519676553167}, {"current_trial": 247, "trialdata": {"rt": -1000, "trial_type": "single-audio", "word": "ankle", "stimulus": "/static/audio/wordpool/ANKLE.wav", "conditions": [24, 1600, "a", 12000], "internal_node_id": "0.0-184.0", "trial": 6, "time_elapsed": 1104986, "serialpos": 22, "key_press": -1, "wordID": 23, "type": "PRES_AUD", "trial_index": 247}, "uniqueid": "MTK3049:3WOKGM4L72NPJLDVBJ1FMWGN7ZXO0C", "dateTime": 1519676555842}, {"current_trial": 248, "trialdata": {"rt": -1000, "trial_type": "single-audio", "word": "icing", "stimulus": "/static/audio/wordpool/ICING.wav", "conditions": [24, 1600, "a", 12000], "internal_node_id": "0.0-185.0", "trial": 6, "time_elapsed": 1107506, "serialpos": 23, "key_press": -1, "wordID": 731, "type": "PRES_AUD", "trial_index": 248}, "uniqueid": "MTK3049:3WOKGM4L72NPJLDVBJ1FMWGN7ZXO0C", "dateTime": 1519676558362}, {"current_trial": 249, "trialdata": {"rt": -1, "trial_type": "single-stim", "stimulus": "", "internal_node_id": "0.0-186.0-0.0", "time_elapsed": 1108767, "key_press": -1, "type": "PRE_RECALL_DELAY", "trial_index": 249}, "uniqueid": "MTK3049:3WOKGM4L72NPJLDVBJ1FMWGN7ZXO0C", "dateTime": 1519676559623}, {"current_trial": 250, "trialdata": {"rt": -1000, "trial_type": "single-audio", "stimulus": "/static/audio/400Hz.wav", "internal_node_id": "0.0-187.0", "time_elapsed": 1109268, "key_press": -1, "type": "PRE_RECALL_ALERT", "trial_index": 250}, "uniqueid": "MTK3049:3WOKGM4L72NPJLDVBJ1FMWGN7ZXO0C", "dateTime": 1519676560124}, {"current_trial": 251, "trialdata": {"rt": [2267, 4709, 6588, 9277, 15825, 20366, 25848], "recwords": ["cod", "sausage", "icing", "casket", "convict", "cricket", "panther"], "key_times": [1233, 1491, 1750, 2267, 2571, 2988, 3246, 3381, 3741, 3933, 4068, 4282, 4472, 4709, 5137, 5327, 5552, 5688, 5991, 6588, 7173, 7364, 7577, 7849, 8140, 8399, 9277, 12416, 12561, 12854, 13101, 13337, 13743, 13900, 15825, 16770, 17073, 17264, 17613, 17905, 18130, 18413, 20366, 23070, 23283, 23711, 24014, 24149, 24386, 24441, 25848], "trial_type": "free-recall", "conditions": [24, 1600, "a", 12000], "internal_node_id": "0.0-188.0-0.0", "key_presses": [67, 79, 68, 13, 67, 8, 83, 65, 85, 83, 65, 71, 69, 13, 73, 67, 73, 78, 71, 13, 67, 65, 83, 75, 69, 84, 13, 67, 79, 78, 86, 73, 67, 84, 13, 67, 82, 73, 67, 75, 69, 84, 13, 80, 65, 78, 84, 72, 69, 82, 13], "trial": 6, "time_elapsed": 1169276, "type": "FREE_RECALL", "trial_index": 251}, "uniqueid": "MTK3049:3WOKGM4L72NPJLDVBJ1FMWGN7ZXO0C", "dateTime": 1519676620134}, {"current_trial": 252, "trialdata": {"rt": 2038, "trial_type": "text", "internal_node_id": "0.0-189.0", "time_elapsed": 1173322, "key_press"