{"assignmentId": "3QFUFYSY9ZMCCWI3VH5RB5XMXGM4FZ", "workerId": "MTK3466", "questiondata": {"origin": "United States", "strat-rehearsal": "10", "marital": "Divorced", "education": "Master's degree", "ethnicity": "Hispanic", "color_depth": 24, "distracted": "No", "wrote-notes": "No", "strat-other": "", "screen_width": 1366, "avail_screen_width": 1366, "avail_screen_height": 728, "strat-image": "10", "language": "English", "gender": "Female", "age": "39", "gender_other": "", "race": ["American Indian/Alaskan Native"], "strat-categorize": "50", "pixel_depth": 24, "strat-spatial": "30", "strat-story": "0", "race_other": "", "screen_height": 768}, "bonus": 0, "hitId": "3C8QQOM6JP8QXBTKCF5RBZG5ELVLI8", "counterbalance": 2567, "useragent": "Mozilla/5.0 (Windows NT 6.1; WOW64) AppleWebKit/537.36 (KHTML, like Gecko) Chrome/46.0.2480.0 Safari/537.36", "eventdata": [{"eventtype": "initialized", "interval": 0, "value": null, "timestamp": 1520613387028}, {"eventtype": "window_resize", "interval": 0, "value": [1366, 722], "timestamp": 1520613387028}, {"eventtype": "focus", "interval": 79237, "value": "off", "timestamp": 1520613466265}, {"eventtype": "focus", "interval": 2522, "value": "on", "timestamp": 1520613468787}, {"eventtype": "focus", "interval": 151414, "value": "off", "timestamp": 1520613620201}, {"eventtype": "focus", "interval": 15507, "value": "on", "timestamp": 1520613635708}, {"eventtype": "focus", "interval": 2052744, "value": "off", "timestamp": 1520615688452}, {"eventtype": "focus", "interval": 14960, "value": "on", "timestamp": 1520615703412}, {"eventtype": "focus", "interval": 2383, "value": "off", "timestamp": 1520615705795}, {"eventtype": "focus", "interval": 58203, "value": "on", "timestamp": 1520615763998}], "data": [{"current_trial": 0, "trialdata": {"rt": 2757, "trial_type": "text", "internal_node_id": "0.0-0.0", "time_elapsed": 2767, "key_press": 77, "type": "INSTRUCTIONS", "trial_index": 0}, "uniqueid": "MTK3466:3QFUFYSY9ZMCCWI3VH5RB5XMXGM4FZ", "dateTime": 1520613391096}, {"current_trial": 1, "trialdata": {"rt": 38928, "trial_type": "text", "internal_node_id": "0.0-1.0", "time_elapsed": 41695, "key_press": 77, "type": "INSTRUCTIONS", "trial_index": 1}, "uniqueid": "MTK3466:3QFUFYSY9ZMCCWI3VH5RB5XMXGM4FZ", "dateTime": 1520613430024}, {"current_trial": 2, "trialdata": {"rt": [14013], "trial_type": "audio-test", "responses": ["ocean"], "internal_node_id": "0.0-2.0", "time_elapsed": 55949, "type": "AUDIO_TEST", "trial_index": 2}, "uniqueid": "MTK3466:3QFUFYSY9ZMCCWI3VH5RB5XMXGM4FZ", "dateTime": 1520613444278}, {"current_trial": 3, "trialdata": {"rt": [7334, 16787], "trial_type": "audio-test", "responses": ["cristal", "crystal"], "internal_node_id": "0.0-3.0", "time_elapsed": 72736, "type": "AUDIO_TEST", "trial_index": 3}, "uniqueid": "MTK3466:3QFUFYSY9ZMCCWI3VH5RB5XMXGM4FZ", "dateTime": 1520613461065}, {"current_trial": 4, "trialdata": {"rt": [9395], "trial_type": "audio-test", "responses": ["spice"], "internal_node_id": "0.0-4.0", "time_elapsed": 82144, "type": "AUDIO_TEST", "trial_index": 4}, "uniqueid": "MTK3466:3QFUFYSY9ZMCCWI3VH5RB5XMXGM4FZ", "dateTime": 1520613470473}, {"current_trial": 5, "trialdata": {"rt": 24667, "trial_type": "survey-text", "responses": "{\"Q0\":\"11 pm\",\"Q1\":\"6 am\",\"Q2\":\"4\"}", "internal_node_id": "0.0-5.0", "time_elapsed": 107566, "type": "SLEEP_SURVEY", "trial_index": 5}, "uniqueid": "MTK3466:3QFUFYSY9ZMCCWI3VH5RB5XMXGM4FZ", "dateTime": 1520613495895}, {"current_trial": 6, "trialdata": {"rt": 145676, "trial_type": "text", "internal_node_id": "0.0-6.0", "time_elapsed": 254250, "key_press": 77, "type": "INSTRUCTIONS", "trial_index": 6}, "uniqueid": "MTK3466:3QFUFYSY9ZMCCWI3VH5RB5XMXGM4FZ", "dateTime": 1520613642579}, {"current_trial": 7, "trialdata": {"rt": 84407, "trial_type": "text", "internal_node_id": "0.0-7.0", "time_elapsed": 339170, "key_press": 77, "type": "INSTRUCTIONS", "trial_index": 7}, "uniqueid": "MTK3466:3QFUFYSY9ZMCCWI3VH5RB5XMXGM4FZ", "dateTime": 1520613727499}, {"current_trial": 8, "trialdata": {"rt": 24575, "trial_type": "text", "internal_node_id": "0.0-8.0", "time_elapsed": 364247, "key_press": 77, "type": "INSTRUCTIONS", "trial_index": 8}, "uniqueid": "MTK3466:3QFUFYSY9ZMCCWI3VH5RB5XMXGM4FZ", "dateTime": 1520613752576}, {"current_trial": 9, "trialdata": {"rt": [5827, 12127, 15187, 17207], "trial_type": "math-distractor", "key_times": [5055, 5442, 5827, 10950, 11112, 12127, 14680, 14855, 15187, 16682, 16840, 17207], "responses": ["17", "21", "17", "17"], "num2": [6, 5, 4, 6, 9], "num3": [4, 9, 5, 5, 2], "conditions": [18, 1200, "v", 18000], "internal_node_id": "0.0-9.0", "key_presses": [49, 55, 13, 50, 49, 13, 49, 55, 13, 49, 55, 13], "trial": 0, "time_elapsed": 383270, "type": "DISTRACTOR", "trial_index": 9, "num1": [7, 7, 8, 6, 3]}, "uniqueid": "MTK3466:3QFUFYSY9ZMCCWI3VH5RB5XMXGM4FZ", "dateTime": 1520613771599}, {"current_trial": 10, "trialdata": {"rt": -1, "trial_type": "single-stim", "stimulus": "<p id=\"stim\">10</p>", "internal_node_id": "0.0-10.0-0.0", "time_elapsed": 386275, "key_press": -1, "trial_index": 10}, "uniqueid": "MTK3466:3QFUFYSY9ZMCCWI3VH5RB5XMXGM4FZ", "dateTime": 1520613774604}, {"current_trial": 11, "trialdata": {"rt": -1, "trial_type": "single-stim", "stimulus": "<p id=\"stim\">9</p>", "internal_node_id": "0.0-10.0-1.0", "time_elapsed": 387282, "key_press": -1, "trial_index": 11}, "uniqueid": "MTK3466:3QFUFYSY9ZMCCWI3VH5RB5XMXGM4FZ", "dateTime": 1520613775611}, {"current_trial": 12, "trialdata": {"rt": -1, "trial_type": "single-stim", "stimulus": "<p id=\"stim\">8</p>", "internal_node_id": "0.0-10.0-2.0", "time_elapsed": 388287, "key_press": -1, "trial_index": 12}, "uniqueid": "MTK3466:3QFUFYSY9ZMCCWI3VH5RB5XMXGM4FZ", "dateTime": 1520613776616}, {"current_trial": 13, "trialdata": {"rt": -1, "trial_type": "single-stim", "stimulus": "<p id=\"stim\">7</p>", "internal_node_id": "0.0-10.0-3.0", "time_elapsed": 389290, "key_press": -1, "trial_index": 13}, "uniqueid": "MTK3466:3QFUFYSY9ZMCCWI3VH5RB5XMXGM4FZ", "dateTime": 1520613777619}, {"current_trial": 14, "trialdata": {"rt": -1, "trial_type": "single-stim", "stimulus": "<p id=\"stim\">6</p>", "internal_node_id": "0.0-10.0-4.0", "time_elapsed": 390300, "key_press": -1, "trial_index": 14}, "uniqueid": "MTK3466:3QFUFYSY9ZMCCWI3VH5RB5XMXGM4FZ", "dateTime": 1520613778629}, {"current_trial": 15, "trialdata": {"rt": -1, "trial_type": "single-stim", "stimulus": "<p id=\"stim\">5</p>", "internal_node_id": "0.0-10.0-5.0", "time_elapsed": 391305, "key_press": -1, "trial_index": 15}, "uniqueid": "MTK3466:3QFUFYSY9ZMCCWI3VH5RB5XMXGM4FZ", "dateTime": 1520613779634}, {"current_trial": 16, "trialdata": {"rt": -1, "trial_type": "single-stim", "stimulus": "<p id=\"stim\">4</p>", "internal_node_id": "0.0-10.0-6.0", "time_elapsed": 392310, "key_press": -1, "trial_index": 16}, "uniqueid": "MTK3466:3QFUFYSY9ZMCCWI3VH5RB5XMXGM4FZ", "dateTime": 1520613780639}, {"current_trial": 17, "trialdata": {"rt": -1, "trial_type": "single-stim", "stimulus": "<p id=\"stim\">3</p>", "internal_node_id": "0.0-10.0-7.0", "time_elapsed": 393320, "key_press": -1, "trial_index": 17}, "uniqueid": "MTK3466:3QFUFYSY9ZMCCWI3VH5RB5XMXGM4FZ", "dateTime": 1520613781649}, {"current_trial": 18, "trialdata": {"rt": -1, "trial_type": "single-stim", "stimulus": "<p id=\"stim\">2</p>", "internal_node_id": "0.0-10.0-8.0", "time_elapsed": 394330, "key_press": -1, "trial_index": 18}, "uniqueid": "MTK3466:3QFUFYSY9ZMCCWI3VH5RB5XMXGM4FZ", "dateTime": 1520613782659}, {"current_trial": 19, "trialdata": {"rt": -1, "trial_type": "single-stim", "stimulus": "<p id=\"stim\">1</p>", "internal_node_id": "0.0-10.0-9.0", "time_elapsed": 395335, "key_press": -1, "trial_index": 19}, "uniqueid": "MTK3466:3QFUFYSY9ZMCCWI3VH5RB5XMXGM4FZ", "dateTime": 1520613783664}, {"current_trial": 20, "trialdata": {"rt": -1, "trial_type": "single-stim", "stimulus": "<p id=\"stim\">+</p>", "internal_node_id": "0.0-11.0-0.0", "time_elapsed": 396845, "key_press": -1, "type": "FIXATION", "trial_index": 20}, "uniqueid": "MTK3466:3QFUFYSY9ZMCCWI3VH5RB5XMXGM4FZ", "dateTime": 1520613785174}, {"current_trial": 21, "trialdata": {"rt": -1, "trial_type": "single-stim", "word": "cellar", "stimulus": "<p id=\"stim\">CELLAR</p>", "conditions": [18, 1200, "v", 18000], "internal_node_id": "0.0-12.0", "trial": 0, "time_elapsed": 398050, "serialpos": 0, "key_press": -1, "wordID": 266, "type": "PRES_VIS", "trial_index": 21}, "uniqueid": "MTK3466:3QFUFYSY9ZMCCWI3VH5RB5XMXGM4FZ", "dateTime": 1520613786379}, {"current_trial": 22, "trialdata": {"rt": -1, "trial_type": "single-stim", "word": "pasta", "stimulus": "<p id=\"stim\">PASTA</p>", "conditions": [18, 1200, "v", 18000], "internal_node_id": "0.0-13.0", "trial": 0, "time_elapsed": 400277, "serialpos": 1, "key_press": -1, "wordID": 1020, "type": "PRES_VIS", "trial_index": 22}, "uniqueid": "MTK3466:3QFUFYSY9ZMCCWI3VH5RB5XMXGM4FZ", "dateTime": 1520613788606}, {"current_trial": 23, "trialdata": {"rt": -1, "trial_type": "single-stim", "word": "scotch", "stimulus": "<p id=\"stim\">SCOTCH</p>", "conditions": [18, 1200, "v", 18000], "internal_node_id": "0.0-14.0", "trial": 0, "time_elapsed": 402292, "serialpos": 2, "key_press": -1, "wordID": 1250, "type": "PRES_VIS", "trial_index": 23}, "uniqueid": "MTK3466:3QFUFYSY9ZMCCWI3VH5RB5XMXGM4FZ", "dateTime": 1520613790621}, {"current_trial": 24, "trialdata": {"rt": -1, "trial_type": "single-stim", "word": "church", "stimulus": "<p id=\"stim\">CHURCH</p>", "conditions": [18, 1200, "v", 18000], "internal_node_id": "0.0-15.0", "trial": 0, "time_elapsed": 404670, "serialpos": 3, "key_press": -1, "wordID": 306, "type": "PRES_VIS", "trial_index": 24}, "uniqueid": "MTK3466:3QFUFYSY9ZMCCWI3VH5RB5XMXGM4FZ", "dateTime": 1520613792999}, {"current_trial": 25, "trialdata": {"rt": -1, "trial_type": "single-stim", "word": "label", "stimulus": "<p id=\"stim\">LABEL</p>", "conditions": [18, 1200, "v", 18000], "internal_node_id": "0.0-16.0", "trial": 0, "time_elapsed": 407057, "serialpos": 4, "key_press": -1, "wordID": 789, "type": "PRES_VIS", "trial_index": 25}, "uniqueid": "MTK3466:3QFUFYSY9ZMCCWI3VH5RB5XMXGM4FZ", "dateTime": 1520613795386}, {"current_trial": 26, "trialdata": {"rt": -1, "trial_type": "single-stim", "word": "tuba", "stimulus": "<p id=\"stim\">TUBA</p>", "conditions": [18, 1200, "v", 18000], "internal_node_id": "0.0-17.0", "trial": 0, "time_elapsed": 409245, "serialpos": 5, "key_press": -1, "wordID": 1514, "type": "PRES_VIS", "trial_index": 26}, "uniqueid": "MTK3466:3QFUFYSY9ZMCCWI3VH5RB5XMXGM4FZ", "dateTime": 1520613797574}, {"current_trial": 27, "trialdata": {"rt": -1, "trial_type": "single-stim", "word": "turnip", "stimulus": "<p id=\"stim\">TURNIP</p>", "conditions": [18, 1200, "v", 18000], "internal_node_id": "0.0-18.0", "trial": 0, "time_elapsed": 411317, "serialpos": 6, "key_press": -1, "wordID": 1520, "type": "PRES_VIS", "trial_index": 27}, "uniqueid": "MTK3466:3QFUFYSY9ZMCCWI3VH5RB5XMXGM4FZ", "dateTime": 1520613799646}, {"current_trial": 28, "trialdata": {"rt": -1, "trial_type": "single-stim", "word": "poison", "stimulus": "<p id=\"stim\">POISON</p>", "conditions": [18, 1200, "v", 18000], "internal_node_id": "0.0-19.0", "trial": 0, "time_elapsed": 413350, "serialpos": 7, "key_press": -1, "wordID": 1095, "type": "PRES_VIS", "trial_index": 28}, "uniqueid": "MTK3466:3QFUFYSY9ZMCCWI3VH5RB5XMXGM4FZ", "dateTime": 1520613801679}, {"current_trial": 29, "trialdata": {"rt": -1, "trial_type": "single-stim", "word": "virus", "stimulus": "<p id=\"stim\">VIRUS</p>", "conditions": [18, 1200, "v", 18000], "internal_node_id": "0.0-20.0", "trial": 0, "time_elapsed": 415570, "serialpos": 8, "key_press": -1, "wordID": 1571, "type": "PRES_VIS", "trial_index": 29}, "uniqueid": "MTK3466:3QFUFYSY9ZMCCWI3VH5RB5XMXGM4FZ", "dateTime": 1520613803899}, {"current_trial": 30, "trialdata": {"rt": -1, "trial_type": "single-stim", "word": "smog", "stimulus": "<p id=\"stim\">SMOG</p>", "conditions": [18, 1200, "v", 18000], "internal_node_id": "0.0-21.0", "trial": 0, "time_elapsed": 417610, "serialpos": 9, "key_press": -1, "wordID": 1329, "type": "PRES_VIS", "trial_index": 30}, "uniqueid": "MTK3466:3QFUFYSY9ZMCCWI3VH5RB5XMXGM4FZ", "dateTime": 1520613805939}, {"current_trial": 31, "trialdata": {"rt": -1, "trial_type": "single-stim", "word": "mask", "stimulus": "<p id=\"stim\">MASK</p>", "conditions": [18, 1200, "v", 18000], "internal_node_id": "0.0-22.0", "trial": 0, "time_elapsed": 419722, "serialpos": 10, "key_press": -1, "wordID": 875, "type": "PRES_VIS", "trial_index": 31}, "uniqueid": "MTK3466:3QFUFYSY9ZMCCWI3VH5RB5XMXGM4FZ", "dateTime": 1520613808051}, {"current_trial": 32, "trialdata": {"rt": -1, "trial_type": "single-stim", "word": "receipt", "stimulus": "<p id=\"stim\">RECEIPT</p>", "conditions": [18, 1200, "v", 18000], "internal_node_id": "0.0-23.0", "trial": 0, "time_elapsed": 421782, "serialpos": 11, "key_press": -1, "wordID": 1172, "type": "PRES_VIS", "trial_index": 32}, "uniqueid": "MTK3466:3QFUFYSY9ZMCCWI3VH5RB5XMXGM4FZ", "dateTime": 1520613810111}, {"current_trial": 33, "trialdata": {"rt": -1, "trial_type": "single-stim", "word": "lace", "stimulus": "<p id=\"stim\">LACE</p>", "conditions": [18, 1200, "v", 18000], "internal_node_id": "0.0-24.0", "trial": 0, "time_elapsed": 423897, "serialpos": 12, "key_press": -1, "wordID": 791, "type": "PRES_VIS", "trial_index": 33}, "uniqueid": "MTK3466:3QFUFYSY9ZMCCWI3VH5RB5XMXGM4FZ", "dateTime": 1520613812226}, {"current_trial": 34, "trialdata": {"rt": -1, "trial_type": "single-stim", "word": "sandwich", "stimulus": "<p id=\"stim\">SANDWICH</p>", "conditions": [18, 1200, "v", 18000], "internal_node_id": "0.0-25.0", "trial": 0, "time_elapsed": 426222, "serialpos": 13, "key_press": -1, "wordID": 1231, "type": "PRES_VIS", "trial_index": 34}, "uniqueid": "MTK3466:3QFUFYSY9ZMCCWI3VH5RB5XMXGM4FZ", "dateTime": 1520613814551}, {"current_trial": 35, "trialdata": {"rt": -1, "trial_type": "single-stim", "word": "rooster", "stimulus": "<p id=\"stim\">ROOSTER</p>", "conditions": [18, 1200, "v", 18000], "internal_node_id": "0.0-26.0", "trial": 0, "time_elapsed": 428302, "serialpos": 14, "key_press": -1, "wordID": 1208, "type": "PRES_VIS", "trial_index": 35}, "uniqueid": "MTK3466:3QFUFYSY9ZMCCWI3VH5RB5XMXGM4FZ", "dateTime": 1520613816631}, {"current_trial": 36, "trialdata": {"rt": -1, "trial_type": "single-stim", "word": "snail", "stimulus": "<p id=\"stim\">SNAIL</p>", "conditions": [18, 1200, "v", 18000], "internal_node_id": "0.0-27.0", "trial": 0, "time_elapsed": 430532, "serialpos": 15, "key_press": -1, "wordID": 1331, "type": "PRES_VIS", "trial_index": 36}, "uniqueid": "MTK3466:3QFUFYSY9ZMCCWI3VH5RB5XMXGM4FZ", "dateTime": 1520613818861}, {"current_trial": 37, "trialdata": {"rt": -1, "trial_type": "single-stim", "word": "couch", "stimulus": "<p id=\"stim\">COUCH</p>", "conditions": [18, 1200, "v", 18000], "internal_node_id": "0.0-28.0", "trial": 0, "time_elapsed": 432597, "serialpos": 16, "key_press": -1, "wordID": 385, "type": "PRES_VIS", "trial_index": 37}, "uniqueid": "MTK3466:3QFUFYSY9ZMCCWI3VH5RB5XMXGM4FZ", "dateTime": 1520613820926}, {"current_trial": 38, "trialdata": {"rt": -1, "trial_type": "single-stim", "word": "river", "stimulus": "<p id=\"stim\">RIVER</p>", "conditions": [18, 1200, "v", 18000], "internal_node_id": "0.0-29.0", "trial": 0, "time_elapsed": 435010, "serialpos": 17, "key_press": -1, "wordID": 1193, "type": "PRES_VIS", "trial_index": 38}, "uniqueid": "MTK3466:3QFUFYSY9ZMCCWI3VH5RB5XMXGM4FZ", "dateTime": 1520613823339}, {"current_trial": 39, "trialdata": {"rt": -1, "trial_type": "single-stim", "stimulus": "", "internal_node_id": "0.0-30.0-0.0", "time_elapsed": 437290, "key_press": -1, "type": "PRE_RECALL_DELAY", "trial_index": 39}, "uniqueid": "MTK3466:3QFUFYSY9ZMCCWI3VH5RB5XMXGM4FZ", "dateTime": 1520613825619}, {"current_trial": 40, "trialdata": {"rt": -1000, "trial_type": "single-audio", "stimulus": "/static/audio/400Hz.wav", "internal_node_id": "0.0-31.0", "time_elapsed": 437855, "key_press": -1, "type": "PRE_RECALL_ALERT", "trial_index": 40}, "uniqueid": "MTK3466:3QFUFYSY9ZMCCWI3VH5RB5XMXGM4FZ", "dateTime": 1520613826184}, {"current_trial": 41, "trialdata": {"rt": [2890, 6752, 8532, 10770, 13062, 14257, 17510, 19350, 21912, 25075, 27687, 33137, 36345, 41707], "recwords": ["pasta", "scotch", "church", "label", "tuba", "lace", "virus", "river", "receipt", "rooster", "couch", "sandwich", "poison", "mask"], "key_times": [2267, 2352, 2385, 2540, 2642, 2890, 3860, 4397, 4740, 4815, 4980, 5107, 5642, 6070, 6185, 6330, 6752, 7417, 7532, 7712, 7815, 8077, 8190, 8532, 8937, 9030, 9147, 9302, 9327, 9865, 10022, 10082, 10310, 10770, 12045, 12237, 12397, 12477, 13062, 13387, 13477, 13617, 13815, 14257, 15300, 15452, 15547, 15742, 15752, 15845, 16197, 16350, 16432, 17032, 17170, 17510, 18242, 18350, 18462, 18587, 18687, 19350, 20232, 20282, 20470, 20642, 21120, 21345, 21462, 21912, 23047, 23187, 23325, 23490, 23640, 23755, 23857, 25075, 26802, 26940, 27060, 27227, 27342, 27687, 31365, 31470, 31592, 31742, 32142, 32590, 32717, 32792, 33137, 35297, 35445, 35615, 35690, 35802, 36065, 36345, 40712, 40832, 40880, 41507, 41707], "trial_type": "free-recall", "conditions": [18, 1200, "v", 18000], "internal_node_id": "0.0-32.0-0.0", "key_presses": [80, 65, 83, 84, 65, 13, 83, 79, 8, 67, 79, 84, 72, 8, 67, 72, 13, 67, 72, 85, 82, 67, 72, 13, 76, 65, 66, 76, 69, 8, 8, 69, 76, 13, 84, 85, 66, 65, 13, 76, 65, 67, 69, 13, 86, 73, 82, 89, 85, 83, 8, 8, 8, 85, 83, 13, 82, 73, 86, 69, 82, 13, 82, 69, 67, 69, 73, 80, 84, 13, 82, 79, 79, 83, 84, 69, 82, 13, 67, 79, 85, 67, 72, 13, 83, 65, 78, 68, 87, 73, 67, 72, 13, 80, 79, 73, 83, 79, 78, 13, 77, 65, 83, 75, 13], "trial": 0, "time_elapsed": 497865, "type": "FREE_RECALL", "trial_index": 41}, "uniqueid": "MTK3466:3QFUFYSY9ZMCCWI3VH5RB5XMXGM4FZ", "dateTime": 1520613886194}, {"current_trial": 42, "trialdata": {"rt": 2665, "trial_type": "text", "internal_node_id": "0.0-33.0", "time_elapsed": 502543, "key_press": 77, "type": "INSTRUCTIONS", "trial_index": 42}, "uniqueid": "MTK3466:3QFUFYSY9ZMCCWI3VH5RB5XMXGM4FZ", "dateTime": 1520613890872}, {"current_trial": 43, "trialdata": {"rt": [6750, 9435, 12713, 14860, 16630], "trial_type": "math-distractor", "key_times": [6075, 6220, 6750, 8928, 9035, 9435, 12275, 12438, 12713, 14365, 14563, 14860, 16228, 16390, 16630, 17975], "responses": ["21", "10", "20", "18", "12"], "num2": [5, 3, 8, 4, 7, 5], "num3": [9, 1, 5, 7, 3, 7], "conditions": [18, 1200, "v", 18000], "internal_node_id": "0.0-34.0", "key_presses": [50, 49, 13, 49, 48, 13, 50, 48, 13, 49, 56, 13, 49, 50, 13, 49], "trial": 1, "time_elapsed": 522555, "type": "DISTRACTOR", "trial_index": 43, "num1": [7, 6, 7, 7, 2, 5]}, "uniqueid": "MTK3466:3QFUFYSY9ZMCCWI3VH5RB5XMXGM4FZ", "dateTime": 1520613910884}, {"current_trial": 44, "trialdata": {"rt": -1, "trial_type": "single-stim", "stimulus": "<p id=\"stim\">10</p>", "internal_node_id": "0.0-35.0-0.0", "time_elapsed": 525570, "key_press": -1, "trial_index": 44}, "uniqueid": "MTK3466:3QFUFYSY9ZMCCWI3VH5RB5XMXGM4FZ", "dateTime": 1520613913899}, {"current_trial": 45, "trialdata": {"rt": -1, "trial_type": "single-stim", "stimulus": "<p id=\"stim\">9</p>", "internal_node_id": "0.0-35.0-1.0", "time_elapsed": 526580, "key_press": -1, "trial_index": 45}, "uniqueid": "MTK3466:3QFUFYSY9ZMCCWI3VH5RB5XMXGM4FZ", "dateTime": 1520613914909}, {"current_trial": 46, "trialdata": {"rt": -1, "trial_type": "single-stim", "stimulus": "<p id=\"stim\">8</p>", "internal_node_id": "0.0-35.0-2.0", "time_elapsed": 527585, "key_press": -1, "trial_index": 46}, "uniqueid": "MTK3466:3QFUFYSY9ZMCCWI3VH5RB5XMXGM4FZ", "dateTime": 1520613915914}, {"current_trial": 47, "trialdata": {"rt": -1, "trial_type": "single-stim", "stimulus": "<p id=\"stim\">7</p>", "internal_node_id": "0.0-35.0-3.0", "time_elapsed": 528593, "key_press": -1, "trial_index": 47}, "uniqueid": "MTK3466:3QFUFYSY9ZMCCWI3VH5RB5XMXGM4FZ", "dateTime": 1520613916922}, {"current_trial": 48, "trialdata": {"rt": -1, "trial_type": "single-stim", "stimulus": "<p id=\"stim\">6</p>", "internal_node_id": "0.0-35.0-4.0", "time_elapsed": 529598, "key_press": -1, "trial_index": 48}, "uniqueid": "MTK3466:3QFUFYSY9ZMCCWI3VH5RB5XMXGM4FZ", "dateTime": 1520613917927}, {"current_trial": 49, "trialdata": {"rt": -1, "trial_type": "single-stim", "stimulus": "<p id=\"stim\">5</p>", "internal_node_id": "0.0-35.0-5.0", "time_elapsed": 530603, "key_press": -1, "trial_index": 49}, "uniqueid": "MTK3466:3QFUFYSY9ZMCCWI3VH5RB5XMXGM4FZ", "dateTime": 1520613918932}, {"current_trial": 50, "trialdata": {"rt": -1, "trial_type": "single-stim", "stimulus": "<p id=\"stim\">4</p>", "internal_node_id": "0.0-35.0-6.0", "time_elapsed": 531608, "key_press": -1, "trial_index": 50}, "uniqueid": "MTK3466:3QFUFYSY9ZMCCWI3VH5RB5XMXGM4FZ", "dateTime": 1520613919937}, {"current_trial": 51, "trialdata": {"rt": -1, "trial_type": "single-stim", "stimulus": "<p id=\"stim\">3</p>", "internal_node_id": "0.0-35.0-7.0", "time_elapsed": 532610, "key_press": -1, "trial_index": 51}, "uniqueid": "MTK3466:3QFUFYSY9ZMCCWI3VH5RB5XMXGM4FZ", "dateTime": 1520613920939}, {"current_trial": 52, "trialdata": {"rt": -1, "trial_type": "single-stim", "stimulus": "<p id=\"stim\">2</p>", "internal_node_id": "0.0-35.0-8.0", "time_elapsed": 533615, "key_press": -1, "trial_index": 52}, "uniqueid": "MTK3466:3QFUFYSY9ZMCCWI3VH5RB5XMXGM4FZ", "dateTime": 1520613921944}, {"current_trial": 53, "trialdata": {"rt": -1, "trial_type": "single-stim", "stimulus": "<p id=\"stim\">1</p>", "internal_node_id": "0.0-35.0-9.0", "time_elapsed": 534620, "key_press": -1, "trial_index": 53}, "uniqueid": "MTK3466:3QFUFYSY9ZMCCWI3VH5RB5XMXGM4FZ", "dateTime": 1520613922949}, {"current_trial": 54, "trialdata": {"rt": -1, "trial_type": "single-stim", "stimulus": "<p id=\"stim\">+</p>", "internal_node_id": "0.0-36.0-0.0", "time_elapsed": 536123, "key_press": -1, "type": "FIXATION", "trial_index": 54}, "uniqueid": "MTK3466:3QFUFYSY9ZMCCWI3VH5RB5XMXGM4FZ", "dateTime": 1520613924452}, {"current_trial": 55, "trialdata": {"rt": -1, "trial_type": "single-stim", "word": "viking", "stimulus": "<p id=\"stim\">VIKING</p>", "conditions": [18, 1200, "v", 18000], "internal_node_id": "0.0-37.0", "trial": 1, "time_elapsed": 537333, "serialpos": 0, "key_press": -1, "wordID": 1564, "type": "PRES_VIS", "trial_index": 55}, "uniqueid": "MTK3466:3QFUFYSY9ZMCCWI3VH5RB5XMXGM4FZ", "dateTime": 1520613925662}, {"current_trial": 56, "trialdata": {"rt": -1, "trial_type": "single-stim", "word": "package", "stimulus": "<p id=\"stim\">PACKAGE</p>", "conditions": [18, 1200, "v", 18000], "internal_node_id": "0.0-38.0", "trial": 1, "time_elapsed": 539675, "serialpos": 1, "key_press": -1, "wordID": 996, "type": "PRES_VIS", "trial_index": 56}, "uniqueid": "MTK3466:3QFUFYSY9ZMCCWI3VH5RB5XMXGM4FZ", "dateTime": 1520613928004}, {"current_trial": 57, "trialdata": {"rt": -1, "trial_type": "single-stim", "word": "robin", "stimulus": "<p id=\"stim\">ROBIN</p>", "conditions": [18, 1200, "v", 18000], "internal_node_id": "0.0-39.0", "trial": 1, "time_elapsed": 541935, "serialpos": 2, "key_press": -1, "wordID": 1198, "type": "PRES_VIS", "trial_index": 57}, "uniqueid": "MTK3466:3QFUFYSY9ZMCCWI3VH5RB5XMXGM4FZ", "dateTime": 1520613930264}, {"current_trial": 58, "trialdata": {"rt": -1, "trial_type": "single-stim", "word": "hamper", "stimulus": "<p id=\"stim\">HAMPER</p>", "conditions": [18, 1200, "v", 18000], "internal_node_id": "0.0-40.0", "trial": 1, "time_elapsed": 543958, "serialpos": 3, "key_press": -1, "wordID": 681, "type": "PRES_VIS", "trial_index": 58}, "uniqueid": "MTK3466:3QFUFYSY9ZMCCWI3VH5RB5XMXGM4FZ", "dateTime": 1520613932287}, {"current_trial": 59, "trialdata": {"rt": -1, "trial_type": "single-stim", "word": "beaker", "stimulus": "<p id=\"stim\">BEAKER</p>", "conditions": [18, 1200, "v", 18000], "internal_node_id": "0.0-41.0", "trial": 1, "time_elapsed": 546305, "serialpos": 4, "key_press": -1, "wordID": 103, "type": "PRES_VIS", "trial_index": 59}, "uniqueid": "MTK3466:3QFUFYSY9ZMCCWI3VH5RB5XMXGM4FZ", "dateTime": 1520613934634}, {"current_trial": 60, "trialdata": {"rt": -1, "trial_type": "single-stim", "word": "partner", "stimulus": "<p id=\"stim\">PARTNER</p>", "conditions": [18, 1200, "v", 18000], "internal_node_id": "0.0-42.0", "trial": 1, "time_elapsed": 548465, "serialpos": 5, "key_press": -1, "wordID": 1016, "type": "PRES_VIS", "trial_index": 60}, "uniqueid": "MTK3466:3QFUFYSY9ZMCCWI3VH5RB5XMXGM4FZ", "dateTime": 1520613936794}, {"current_trial": 61, "trialdata": {"rt": -1, "trial_type": "single-stim", "word": "contract", "stimulus": "<p id=\"stim\">CONTRACT</p>", "conditions": [18, 1200, "v", 18000], "internal_node_id": "0.0-43.0", "trial": 1, "time_elapsed": 550843, "serialpos": 6, "key_press": -1, "wordID": 367, "type": "PRES_VIS", "trial_index": 61}, "uniqueid": "MTK3466:3QFUFYSY9ZMCCWI3VH5RB5XMXGM4FZ", "dateTime": 1520613939172}, {"current_trial": 62, "trialdata": {"rt": -1, "trial_type": "single-stim", "word": "arm", "stimulus": "<p id=\"stim\">ARM</p>", "conditions": [18, 1200, "v", 18000], "internal_node_id": "0.0-44.0", "trial": 1, "time_elapsed": 553075, "serialpos": 7, "key_press": -1, "wordID": 37, "type": "PRES_VIS", "trial_index": 62}, "uniqueid": "MTK3466:3QFUFYSY9ZMCCWI3VH5RB5XMXGM4FZ", "dateTime": 1520613941404}, {"current_trial": 63, "trialdata": {"rt": -1, "trial_type": "single-stim", "word": "slide", "stimulus": "<p id=\"stim\">SLIDE</p>", "conditions": [18, 1200, "v", 18000], "internal_node_id": "0.0-45.0", "trial": 1, "time_elapsed": 555123, "serialpos": 8, "key_press": -1, "wordID": 1325, "type": "PRES_VIS", "trial_index": 63}, "uniqueid": "MTK3466:3QFUFYSY9ZMCCWI3VH5RB5XMXGM4FZ", "dateTime": 1520613943452}, {"current_trial": 64, "trialdata": {"rt": -1, "trial_type": "single-stim", "word": "tombstone", "stimulus": "<p id=\"stim\">TOMBSTONE</p>", "conditions": [18, 1200, "v", 18000], "internal_node_id": "0.0-46.0", "trial": 1, "time_elapsed": 557293, "serialpos": 9, "key_press": -1, "wordID": 1477, "type": "PRES_VIS", "trial_index": 64}, "uniqueid": "MTK3466:3QFUFYSY9ZMCCWI3VH5RB5XMXGM4FZ", "dateTime": 1520613945622}, {"current_trial": 65, "trialdata": {"rt": -1, "trial_type": "single-stim", "word": "mattress", "stimulus": "<p id=\"stim\">MATTRESS</p>", "conditions": [18, 1200, "v", 18000], "internal_node_id": "0.0-47.0", "trial": 1, "time_elapsed": 559338, "serialpos": 10, "key_press": -1, "wordID": 878, "type": "PRES_VIS", "trial_index": 65}, "uniqueid": "MTK3466:3QFUFYSY9ZMCCWI3VH5RB5XMXGM4FZ", "dateTime": 1520613947667}, {"current_trial": 66, "trialdata": {"rt": -1, "trial_type": "single-stim", "word": "sphinx", "stimulus": "<p id=\"stim\">SPHINX</p>", "conditions": [18, 1200, "v", 18000], "internal_node_id": "0.0-48.0", "trial": 1, "time_elapsed": 561605, "serialpos": 11, "key_press": -1, "wordID": 1348, "type": "PRES_VIS", "trial_index": 66}, "uniqueid": "MTK3466:3QFUFYSY9ZMCCWI3VH5RB5XMXGM4FZ", "dateTime": 1520613949934}, {"current_trial": 67, "trialdata": {"rt": -1, "trial_type": "single-stim", "word": "spoon", "stimulus": "<p id=\"stim\">SPOON</p>", "conditions": [18, 1200, "v", 18000], "internal_node_id": "0.0-49.0", "trial": 1, "time_elapsed": 563780, "serialpos": 12, "key_press": -1, "wordID": 1356, "type": "PRES_VIS", "trial_index": 67}, "uniqueid": "MTK3466:3QFUFYSY9ZMCCWI3VH5RB5XMXGM4FZ", "dateTime": 1520613952109}, {"current_trial": 68, "trialdata": {"rt": -1, "trial_type": "single-stim", "word": "nurse", "stimulus": "<p id=\"stim\">NURSE</p>", "conditions": [18, 1200, "v", 18000], "internal_node_id": "0.0-50.0", "trial": 1, "time_elapsed": 566180, "serialpos": 13, "key_press": -1, "wordID": 962, "type": "PRES_VIS", "trial_index": 68}, "uniqueid": "MTK3466:3QFUFYSY9ZMCCWI3VH5RB5XMXGM4FZ", "dateTime": 1520613954509}, {"current_trial": 69, "trialdata": {"rt": -1, "trial_type": "single-stim", "word": "banquet", "stimulus": "<p id=\"stim\">BANQUET</p>", "conditions": [18, 1200, "v", 18000], "internal_node_id": "0.0-51.0", "trial": 1, "time_elapsed": 568343, "serialpos": 14, "key_press": -1, "wordID": 85, "type": "PRES_VIS", "trial_index": 69}, "uniqueid": "MTK3466:3QFUFYSY9ZMCCWI3VH5RB5XMXGM4FZ", "dateTime": 1520613956672}, {"current_trial": 70, "trialdata": {"rt": -1, "trial_type": "single-stim", "word": "laser", "stimulus": "<p id=\"stim\">LASER</p>", "conditions": [18, 1200, "v", 18000], "internal_node_id": "0.0-52.0", "trial": 1, "time_elapsed": 570513, "serialpos": 15, "key_press": -1, "wordID": 800, "type": "PRES_VIS", "trial_index": 70}, "uniqueid": "MTK3466:3QFUFYSY9ZMCCWI3VH5RB5XMXGM4FZ", "dateTime": 1520613958842}, {"current_trial": 71, "trialdata": {"rt": -1, "trial_type": "single-stim", "word": "marker", "stimulus": "<p id=\"stim\">MARKER</p>", "conditions": [18, 1200, "v", 18000], "internal_node_id": "0.0-53.0", "trial": 1, "time_elapsed": 572638, "serialpos": 16, "key_press": -1, "wordID": 869, "type": "PRES_VIS", "trial_index": 71}, "uniqueid": "MTK3466:3QFUFYSY9ZMCCWI3VH5RB5XMXGM4FZ", "dateTime": 1520613960967}, {"current_trial": 72, "trialdata": {"rt": -1, "trial_type": "single-stim", "word": "cashier", "stimulus": "<p id=\"stim\">CASHIER</p>", "conditions": [18, 1200, "v", 18000], "internal_node_id": "0.0-54.0", "trial": 1, "time_elapsed": 574785, "serialpos": 17, "key_press": -1, "wordID": 253, "type": "PRES_VIS", "trial_index": 72}, "uniqueid": "MTK3466:3QFUFYSY9ZMCCWI3VH5RB5XMXGM4FZ", "dateTime": 1520613963114}, {"current_trial": 73, "trialdata": {"rt": -1, "trial_type": "single-stim", "stimulus": "", "internal_node_id": "0.0-55.0-0.0", "time_elapsed": 577105, "key_press": -1, "type": "PRE_RECALL_DELAY", "trial_index": 73}, "uniqueid": "MTK3466:3QFUFYSY9ZMCCWI3VH5RB5XMXGM4FZ", "dateTime": 1520613965434}, {"current_trial": 74, "trialdata": {"rt": -1000, "trial_type": "single-audio", "stimulus": "/static/audio/400Hz.wav", "internal_node_id": "0.0-56.0", "time_elapsed": 577613, "key_press": -1, "type": "PRE_RECALL_ALERT", "trial_index": 74}, "uniqueid": "MTK3466:3QFUFYSY9ZMCCWI3VH5RB5XMXGM4FZ", "dateTime": 1520613965942}, {"current_trial": 75, "trialdata": {"rt": [3410, 5925, 8552, 10625, 13667, 15895, 18962, 20952, 22847, 24092, 26575, 29507, 33031, 36386, 38901, 45051, 47956], "recwords": ["viking", "partner", "nurse", "laser", "cashier", "mattress", "sphinx", "contract", "arm", "slide", "beaker", "hamper", "laser", "marker", "package", "beaker", "robin"], "key_times": [2350, 2535, 2687, 2812, 2922, 3020, 3410, 4865, 4990, 5085, 5215, 5477, 5570, 5632, 5925, 6737, 6962, 7080, 7330, 7700, 7882, 7962, 8552, 9392, 9550, 9617, 10132, 10247, 10625, 12387, 12530, 12775, 13095, 13172, 13342, 13405, 13667, 14457, 14580, 14715, 14817, 15135, 15227, 15427, 15577, 15895, 16932, 17217, 17717, 17907, 18207, 18532, 18962, 19740, 19827, 19955, 20032, 20147, 20237, 20392, 20577, 20952, 21447, 21757, 21882, 22847, 23220, 23357, 23527, 23637, 23767, 24092, 25570, 25705, 25880, 26167, 26277, 26355, 26575, 28332, 28402, 28597, 28755, 29015, 29087, 29507, 32146, 32301, 32588, 32711, 32803, 33031, 35238, 35778, 35828, 36058, 36133, 36211, 36386, 37923, 38013, 38158, 38276, 38493, 38673, 38788, 38901, 43838, 43988, 44198, 44718, 44828, 44893, 45051, 47243, 47343, 47468, 47593, 47731, 47956], "trial_type": "free-recall", "conditions": [18, 1200, "v", 18000], "internal_node_id": "0.0-57.0-0.0", "key_presses": [86, 73, 75, 73, 78, 71, 13, 80, 65, 82, 84, 78, 69, 82, 13, 78, 85, 82, 67, 8, 83, 69, 13, 76, 65, 83, 69, 82, 13, 67, 65, 83, 72, 73, 69, 82, 13, 77, 65, 84, 84, 82, 69, 83, 83, 13, 83, 80, 72, 73, 78, 88, 13, 67, 79, 78, 84, 82, 65, 67, 84, 13, 65, 82, 77, 13, 83, 76, 73, 68, 69, 13, 66, 69, 65, 75, 69, 82, 13, 72, 65, 77, 80, 69, 82, 13, 76, 65, 83, 69, 82, 13, 77, 65, 82, 75, 69, 82, 13, 80, 65, 67, 75, 65, 71, 69, 13, 66, 69, 65, 75, 69, 82, 13, 82, 79, 66, 73, 78, 13], "trial": 1, "time_elapsed": 637626, "type": "FREE_RECALL", "trial_index": 75}, "uniqueid": "MTK3466:3QFUFYSY9ZMCCWI3VH5RB5XMXGM4FZ", "dateTime": 1520614025955}, {"current_trial": 76, "trialdata": {"rt": 2730, "trial_type": "text", "internal_node_id": "0.0-58.0", "time_elapsed": 642369, "key_press": 77, "type": "INSTRUCTIONS", "trial_index": 76}, "uniqueid": "MTK3466:3QFUFYSY9ZMCCWI3VH5RB5XMXGM4FZ", "dateTime": 1520614030698}, {"current_trial": 77, "trialdata": {"rt": [1942, 3920, 7160, 8717, 11123], "trial_type": "math-distractor", "key_times": [1565, 1942, 3537, 3862, 3920, 6345, 6812, 7160, 8377, 8565, 8717, 10633, 10828, 11123], "responses": ["7", "14", "15", "12", "16"], "num2": [3, 4, 3, 7, 6, 6], "num3": [3, 4, 9, 2, 7, 4], "conditions": [24, 1600, "v", 12000], "internal_node_id": "0.0-59.0", "key_presses": [55, 13, 49, 52, 13, 49, 53, 13, 49, 50, 13, 49, 54, 13], "trial": 2, "time_elapsed": 655389, "type": "DISTRACTOR", "trial_index": 77, "num1": [1, 6, 3, 3, 3, 4]}, "uniqueid": "MTK3466:3QFUFYSY9ZMCCWI3VH5RB5XMXGM4FZ", "dateTime": 1520614043718}, {"current_trial": 78, "trialdata": {"rt": -1, "trial_type": "single-stim", "stimulus": "<p id=\"stim\">10</p>", "internal_node_id": "0.0-60.0-0.0", "time_elapsed": 658404, "key_press": -1, "trial_index": 78}, "uniqueid": "MTK3466:3QFUFYSY9ZMCCWI3VH5RB5XMXGM4FZ", "dateTime": 1520614046733}, {"current_trial": 79, "trialdata": {"rt": -1, "trial_type": "single-stim", "stimulus": "<p id=\"stim\">9</p>", "internal_node_id": "0.0-60.0-1.0", "time_elapsed": 659407, "key_press": -1, "trial_index": 79}, "uniqueid": "MTK3466:3QFUFYSY9ZMCCWI3VH5RB5XMXGM4FZ", "dateTime": 1520614047736}, {"current_trial": 80, "trialdata": {"rt": -1, "trial_type": "single-stim", "stimulus": "<p id=\"stim\">8</p>", "internal_node_id": "0.0-60.0-2.0", "time_elapsed": 660414, "key_press": -1, "trial_index": 80}, "uniqueid": "MTK3466:3QFUFYSY9ZMCCWI3VH5RB5XMXGM4FZ", "dateTime": 1520614048743}, {"current_trial": 81, "trialdata": {"rt": -1, "trial_type": "single-stim", "stimulus": "<p id=\"stim\">7</p>", "internal_node_id": "0.0-60.0-3.0", "time_elapsed": 661419, "key_press": -1, "trial_index": 81}, "uniqueid": "MTK3466:3QFUFYSY9ZMCCWI3VH5RB5XMXGM4FZ", "dateTime": 1520614049748}, {"current_trial": 82, "trialdata": {"rt": -1, "trial_type": "single-stim", "stimulus": "<p id=\"stim\">6</p>", "internal_node_id": "0.0-60.0-4.0", "time_elapsed": 662422, "key_press": -1, "trial_index": 82}, "uniqueid": "MTK3466:3QFUFYSY9ZMCCWI3VH5RB5XMXGM4FZ", "dateTime": 1520614050751}, {"current_trial": 83, "trialdata": {"rt": -1, "trial_type": "single-stim", "stimulus": "<p id=\"stim\">5</p>", "internal_node_id": "0.0-60.0-5.0", "time_elapsed": 663424, "key_press": -1, "trial_index": 83}, "uniqueid": "MTK3466:3QFUFYSY9ZMCCWI3VH5RB5XMXGM4FZ", "dateTime": 1520614051753}, {"current_trial": 84, "trialdata": {"rt": -1, "trial_type": "single-stim", "stimulus": "<p id=\"stim\">4</p>", "internal_node_id": "0.0-60.0-6.0", "time_elapsed": 664427, "key_press": -1, "trial_index": 84}, "uniqueid": "MTK3466:3QFUFYSY9ZMCCWI3VH5RB5XMXGM4FZ", "dateTime": 1520614052756}, {"current_trial": 85, "trialdata": {"rt": -1, "trial_type": "single-stim", "stimulus": "<p id=\"stim\">3</p>", "internal_node_id": "0.0-60.0-7.0", "time_elapsed": 665437, "key_press": -1, "trial_index": 85}, "uniqueid": "MTK3466:3QFUFYSY9ZMCCWI3VH5RB5XMXGM4FZ", "dateTime": 1520614053766}, {"current_trial": 86, "trialdata": {"rt": -1, "trial_type": "single-stim", "stimulus": "<p id=\"stim\">2</p>", "internal_node_id": "0.0-60.0-8.0", "time_elapsed": 666447, "key_press": -1, "trial_index": 86}, "uniqueid": "MTK3466:3QFUFYSY9ZMCCWI3VH5RB5XMXGM4FZ", "dateTime": 1520614054776}, {"current_trial": 87, "trialdata": {"rt": -1, "trial_type": "single-stim", "stimulus": "<p id=\"stim\">1</p>", "internal_node_id": "0.0-60.0-9.0", "time_elapsed": 667457, "key_press": -1, "trial_index": 87}, "uniqueid": "MTK3466:3QFUFYSY9ZMCCWI3VH5RB5XMXGM4FZ", "dateTime": 1520614055786}, {"current_trial": 88, "trialdata": {"rt": -1, "trial_type": "single-stim", "stimulus": "<p id=\"stim\">+</p>", "internal_node_id": "0.0-61.0-0.0", "time_elapsed": 668964, "key_press": -1, "type": "FIXATION", "trial_index": 88}, "uniqueid": "MTK3466:3QFUFYSY9ZMCCWI3VH5RB5XMXGM4FZ", "dateTime": 1520614057293}, {"current_trial": 89, "trialdata": {"rt": -1, "trial_type": "single-stim", "word": "asia", "stimulus": "<p id=\"stim\">ASIA</p>", "conditions": [24, 1600, "v", 12000], "internal_node_id": "0.0-62.0", "trial": 2, "time_elapsed": 670571, "serialpos": 0, "key_press": -1, "wordID": 45, "type": "PRES_VIS", "trial_index": 89}, "uniqueid": "MTK3466:3QFUFYSY9ZMCCWI3VH5RB5XMXGM4FZ", "dateTime": 1520614058900}, {"current_trial": 90, "trialdata": {"rt": -1, "trial_type": "single-stim", "word": "robber", "stimulus": "<p id=\"stim\">ROBBER</p>", "conditions": [24, 1600, "v", 12000], "internal_node_id": "0.0-63.0", "trial": 2, "time_elapsed": 673178, "serialpos": 1, "key_press": -1, "wordID": 1196, "type": "PRES_VIS", "trial_index": 90}, "uniqueid": "MTK3466:3QFUFYSY9ZMCCWI3VH5RB5XMXGM4FZ", "dateTime": 1520614061507}, {"current_trial": 91, "trialdata": {"rt": -1, "trial_type": "single-stim", "word": "burglar", "stimulus": "<p id=\"stim\">BURGLAR</p>", "conditions": [24, 1600, "v", 12000], "internal_node_id": "0.0-64.0", "trial": 2, "time_elapsed": 675833, "serialpos": 2, "key_press": -1, "wordID": 199, "type": "PRES_VIS", "trial_index": 91}, "uniqueid": "MTK3466:3QFUFYSY9ZMCCWI3VH5RB5XMXGM4FZ", "dateTime": 1520614064162}, {"current_trial": 92, "trialdata": {"rt": -1, "trial_type": "single-stim", "word": "snake", "stimulus": "<p id=\"stim\">SNAKE</p>", "conditions": [24, 1600, "v", 12000], "internal_node_id": "0.0-65.0", "trial": 2, "time_elapsed": 678386, "serialpos": 3, "key_press": -1, "wordID": 1332, "type": "PRES_VIS", "trial_index": 92}, "uniqueid": "MTK3466:3QFUFYSY9ZMCCWI3VH5RB5XMXGM4FZ", "dateTime": 1520614066715}, {"current_trial": 93, "trialdata": {"rt": -1, "trial_type": "single-stim", "word": "gravel", "stimulus": "<p id=\"stim\">GRAVEL</p>", "conditions": [24, 1600, "v", 12000], "internal_node_id": "0.0-66.0", "trial": 2, "time_elapsed": 681023, "serialpos": 4, "key_press": -1, "wordID": 658, "type": "PRES_VIS", "trial_index": 93}, "uniqueid": "MTK3466:3QFUFYSY9ZMCCWI3VH5RB5XMXGM4FZ", "dateTime": 1520614069352}, {"current_trial": 94, "trialdata": {"rt": -1, "trial_type": "single-stim", "word": "valve", "stimulus": "<p id=\"stim\">VALVE</p>", "conditions": [24, 1600, "v", 12000], "internal_node_id": "0.0-67.0", "trial": 2, "time_elapsed": 683521, "serialpos": 5, "key_press": -1, "wordID": 1545, "type": "PRES_VIS", "trial_index": 94}, "uniqueid": "MTK3466:3QFUFYSY9ZMCCWI3VH5RB5XMXGM4FZ", "dateTime": 1520614071850}, {"current_trial": 95, "trialdata": {"rt": -1, "trial_type": "single-stim", "word": "world", "stimulus": "<p id=\"stim\">WORLD</p>", "conditions": [24, 1600, "v", 12000], "internal_node_id": "0.0-68.0", "trial": 2, "time_elapsed": 685993, "serialpos": 6, "key_press": -1, "wordID": 1621, "type": "PRES_VIS", "trial_index": 95}, "uniqueid": "MTK3466:3QFUFYSY9ZMCCWI3VH5RB5XMXGM4FZ", "dateTime": 1520614074322}, {"current_trial": 96, "trialdata": {"rt": -1, "trial_type": "single-stim", "word": "antler", "stimulus": "<p id=\"stim\">ANTLER</p>", "conditions": [24, 1600, "v", 12000], "internal_node_id": "0.0-69.0", "trial": 2, "time_elapsed": 688506, "serialpos": 7, "key_press": -1, "wordID": 28, "type": "PRES_VIS", "trial_index": 96}, "uniqueid": "MTK3466:3QFUFYSY9ZMCCWI3VH5RB5XMXGM4FZ", "dateTime": 1520614076835}, {"current_trial": 97, "trialdata": {"rt": -1, "trial_type": "single-stim", "word": "cashew", "stimulus": "<p id=\"stim\">CASHEW</p>", "conditions": [24, 1600, "v", 12000], "internal_node_id": "0.0-70.0", "trial": 2, "time_elapsed": 690923, "serialpos": 8, "key_press": -1, "wordID": 252, "type": "PRES_VIS", "trial_index": 97}, "uniqueid": "MTK3466:3QFUFYSY9ZMCCWI3VH5RB5XMXGM4FZ", "dateTime": 1520614079252}, {"current_trial": 98, "trialdata": {"rt": -1, "trial_type": "single-stim", "word": "marine", "stimulus": "<p id=\"stim\">MARINE</p>", "conditions": [24, 1600, "v", 12000], "internal_node_id": "0.0-71.0", "trial": 2, "time_elapsed": 693551, "serialpos": 9, "key_press": -1, "wordID": 868, "type": "PRES_VIS", "trial_index": 98}, "uniqueid": "MTK3466:3QFUFYSY9ZMCCWI3VH5RB5XMXGM4FZ", "dateTime": 1520614081880}, {"current_trial": 99, "trialdata": {"rt": -1, "trial_type": "single-stim", "word": "waitress", "stimulus": "<p id=\"stim\">WAITRESS</p>", "conditions": [24, 1600, "v", 12000], "internal_node_id": "0.0-72.0", "trial": 2, "time_elapsed": 696101, "serialpos": 10, "key_press": -1, "wordID": 1580, "type": "PRES_VIS", "trial_index": 99}, "uniqueid": "MTK3466:3QFUFYSY9ZMCCWI3VH5RB5XMXGM4FZ", "dateTime": 1520614084430}, {"current_trial": 100, "trialdata": {"rt": -1, "trial_type": "single-stim", "word": "piston", "stimulus": "<p id=\"stim\">PISTON</p>", "conditions": [24, 1600, "v", 12000], "internal_node_id": "0.0-73.0", "trial": 2, "time_elapsed": 698691, "serialpos": 11, "key_press": -1, "wordID": 1075, "type": "PRES_VIS", "trial_index": 100}, "uniqueid": "MTK3466:3QFUFYSY9ZMCCWI3VH5RB5XMXGM4FZ", "dateTime": 1520614087020}, {"current_trial": 101, "trialdata": {"rt": -1, "trial_type": "single-stim", "word": "bacon", "stimulus": "<p id=\"stim\">BACON</p>", "conditions": [24, 1600, "v", 12000], "internal_node_id": "0.0-74.0", "trial": 2, "time_elapsed": 701178, "serialpos": 12, "key_press": -1, "wordID": 66, "type": "PRES_VIS", "trial_index": 101}, "uniqueid": "MTK3466:3QFUFYSY9ZMCCWI3VH5RB5XMXGM4FZ", "dateTime": 1520614089507}, {"current_trial": 102, "trialdata": {"rt": -1, "trial_type": "single-stim", "word": "mammal", "stimulus": "<p id=\"stim\">MAMMAL</p>", "conditions": [24, 1600, "v", 12000], "internal_node_id": "0.0-75.0", "trial": 2, "time_elapsed": 703943, "serialpos": 13, "key_press": -1, "wordID": 860, "type": "PRES_VIS", "trial_index": 102}, "uniqueid": "MTK3466:3QFUFYSY9ZMCCWI3VH5RB5XMXGM4FZ", "dateTime": 1520614092272}, {"current_trial": 103, "trialdata": {"rt": -1, "trial_type": "single-stim", "word": "film", "stimulus": "<p id=\"stim\">FILM</p>", "conditions": [24, 1600, "v", 12000], "internal_node_id": "0.0-76.0", "trial": 2, "time_elapsed": 706468, "serialpos": 14, "key_press": -1, "wordID": 564, "type": "PRES_VIS", "trial_index": 103}, "uniqueid": "MTK3466:3QFUFYSY9ZMCCWI3VH5RB5XMXGM4FZ", "dateTime": 1520614094797}, {"current_trial": 104, "trialdata": {"rt": -1, "trial_type": "single-stim", "word": "parsley", "stimulus": "<p id=\"stim\">PARSLEY</p>", "conditions": [24, 1600, "v", 12000], "internal_node_id": "0.0-77.0", "trial": 2, "time_elapsed": 709023, "serialpos": 15, "key_press": -1, "wordID": 1015, "type": "PRES_VIS", "trial_index": 104}, "uniqueid": "MTK3466:3QFUFYSY9ZMCCWI3VH5RB5XMXGM4FZ", "dateTime": 1520614097352}, {"current_trial": 105, "trialdata": {"rt": -1, "trial_type": "single-stim", "word": "pudding", "stimulus": "<p id=\"stim\">PUDDING</p>", "conditions": [24, 1600, "v", 12000], "internal_node_id": "0.0-78.0", "trial": 2, "time_elapsed": 711571, "serialpos": 16, "key_press": -1, "wordID": 1138, "type": "PRES_VIS", "trial_index": 105}, "uniqueid": "MTK3466:3QFUFYSY9ZMCCWI3VH5RB5XMXGM4FZ", "dateTime": 1520614099900}, {"current_trial": 106, "trialdata": {"rt": -1, "trial_type": "single-stim", "word": "lizard", "stimulus": "<p id=\"stim\">LIZARD</p>", "conditions": [24, 1600, "v", 12000], "internal_node_id": "0.0-79.0", "trial": 2, "time_elapsed": 714108, "serialpos": 17, "key_press": -1, "wordID": 833, "type": "PRES_VIS", "trial_index": 106}, "uniqueid": "MTK3466:3QFUFYSY9ZMCCWI3VH5RB5XMXGM4FZ", "dateTime": 1520614102437}, {"current_trial": 107, "trialdata": {"rt": -1, "trial_type": "single-stim", "word": "panther", "stimulus": "<p id=\"stim\">PANTHER</p>", "conditions": [24, 1600, "v", 12000], "internal_node_id": "0.0-80.0", "trial": 2, "time_elapsed": 716786, "serialpos": 18, "key_press": -1, "wordID": 1008, "type": "PRES_VIS", "trial_index": 107}, "uniqueid": "MTK3466:3QFUFYSY9ZMCCWI3VH5RB5XMXGM4FZ", "dateTime": 1520614105115}, {"current_trial": 108, "trialdata": {"rt": -1, "trial_type": "single-stim", "word": "beef", "stimulus": "<p id=\"stim\">BEEF</p>", "conditions": [24, 1600, "v", 12000], "internal_node_id": "0.0-81.0", "trial": 2, "time_elapsed": 719298, "serialpos": 19, "key_press": -1, "wordID": 112, "type": "PRES_VIS", "trial_index": 108}, "uniqueid": "MTK3466:3QFUFYSY9ZMCCWI3VH5RB5XMXGM4FZ", "dateTime": 1520614107627}, {"current_trial": 109, "trialdata": {"rt": -1, "trial_type": "single-stim", "word": "outdoors", "stimulus": "<p id=\"stim\">OUTDOORS</p>", "conditions": [24, 1600, "v", 12000], "internal_node_id": "0.0-82.0", "trial": 2, "time_elapsed": 722056, "serialpos": 20, "key_press": -1, "wordID": 986, "type": "PRES_VIS", "trial_index": 109}, "uniqueid": "MTK3466:3QFUFYSY9ZMCCWI3VH5RB5XMXGM4FZ", "dateTime": 1520614110385}, {"current_trial": 110, "trialdata": {"rt": -1, "trial_type": "single-stim", "word": "dolphin", "stimulus": "<p id=\"stim\">DOLPHIN</p>", "conditions": [24, 1600, "v", 12000], "internal_node_id": "0.0-83.0", "trial": 2, "time_elapsed": 724753, "serialpos": 21, "key_press": -1, "wordID": 482, "type": "PRES_VIS", "trial_index": 110}, "uniqueid": "MTK3466:3QFUFYSY9ZMCCWI3VH5RB5XMXGM4FZ", "dateTime": 1520614113082}, {"current_trial": 111, "trialdata": {"rt": -1, "trial_type": "single-stim", "word": "flipper", "stimulus": "<p id=\"stim\">FLIPPER</p>", "conditions": [24, 1600, "v", 12000], "internal_node_id": "0.0-84.0", "trial": 2, "time_elapsed": 727453, "serialpos": 22, "key_press": -1, "wordID": 579, "type": "PRES_VIS", "trial_index": 111}, "uniqueid": "MTK3466:3QFUFYSY9ZMCCWI3VH5RB5XMXGM4FZ", "dateTime": 1520614115782}, {"current_trial": 112, "trialdata": {"rt": -1, "trial_type": "single-stim", "word": "honey", "stimulus": "<p id=\"stim\">HONEY</p>", "conditions": [24, 1600, "v", 12000], "internal_node_id": "0.0-85.0", "trial": 2, "time_elapsed": 729939, "serialpos": 23, "key_press": -1, "wordID": 712, "type": "PRES_VIS", "trial_index": 112}, "uniqueid": "MTK3466:3QFUFYSY9ZMCCWI3VH5RB5XMXGM4FZ", "dateTime": 1520614118268}, {"current_trial": 113, "trialdata": {"rt": -1, "trial_type": "single-stim", "stimulus": "", "internal_node_id": "0.0-86.0-0.0", "time_elapsed": 732349, "key_press": -1, "type": "PRE_RECALL_DELAY", "trial_index": 113}, "uniqueid": "MTK3466:3QFUFYSY9ZMCCWI3VH5RB5XMXGM4FZ", "dateTime": 1520614120678}, {"current_trial": 114, "trialdata": {"rt": -1000, "trial_type": "single-audio", "stimulus": "/static/audio/400Hz.wav", "internal_node_id": "0.0-87.0", "time_elapsed": 732854, "key_press": -1, "type": "PRE_RECALL_ALERT", "trial_index": 114}, "uniqueid": "MTK3466:3QFUFYSY9ZMCCWI3VH5RB5XMXGM4FZ", "dateTime": 1520614121183}, {"current_trial": 115, "trialdata": {"rt": [3583, 5455, 6758, 8390, 10180, 13185, 16755, 20190, 23448, 26123, 27955, 31855, 37278, 39715, 49043], "recwords": ["outdoors", "piston", "valve", "baco", "film", "pudding", "cashew", "waitress", "dolphin", "beef", "panther", "snake", "asia", "world", "burglar"], "key_times": [1900, 2070, 2205, 2353, 2433, 2803, 2953, 3315, 3583, 4298, 4598, 4805, 4955, 5058, 5203, 5455, 6005, 6135, 6245, 6448, 6578, 6758, 7563, 7663, 7840, 7940, 8390, 9238, 9325, 9500, 9828, 10180, 11670, 11888, 12000, 12103, 12510, 12660, 12755, 13185, 14985, 15113, 15380, 15525, 15685, 16090, 16755, 17575, 17710, 17833, 18480, 18958, 19053, 19303, 19448, 20190, 21968, 22088, 22278, 22425, 22715, 22835, 22983, 23448, 24900, 25118, 25268, 25378, 26123, 26758, 26918, 27165, 27270, 27403, 27473, 27538, 27955, 28915, 29045, 29200, 29930, 30875, 31270, 31370, 31855, 34445, 34628, 34820, 35263, 35538, 35673, 35810, 36008, 36068, 36250, 36643, 36915, 37058, 37278, 38683, 38760, 38858, 39230, 39340, 39715, 47668, 47830, 47970, 48295, 48705, 48833, 48915, 49043], "trial_type": "free-recall", "conditions": [24, 1600, "v", 12000], "internal_node_id": "0.0-88.0-0.0", "key_presses": [79, 85, 84, 68, 79, 79, 82, 83, 13, 80, 73, 83, 84, 79, 78, 13, 86, 65, 76, 86, 69, 13, 66, 65, 67, 79, 13, 70, 73, 76, 77, 13, 80, 85, 68, 68, 73, 78, 71, 13, 67, 65, 83, 72, 69, 87, 13, 87, 65, 73, 84, 82, 69, 83, 83, 13, 68, 79, 76, 80, 72, 73, 78, 13, 66, 69, 69, 70, 13, 80, 65, 78, 84, 72, 69, 82, 13, 83, 78, 65, 76, 8, 75, 69, 13, 82, 79, 66, 8, 8, 8, 8, 65, 83, 83, 8, 73, 65, 13, 87, 79, 82, 76, 68, 13, 66, 85, 82, 71, 76, 65, 82, 13], "trial": 2, "time_elapsed": 792862, "type": "FREE_RECALL", "trial_index": 115}, "uniqueid": "MTK3466:3QFUFYSY9ZMCCWI3VH5RB5XMXGM4FZ", "dateTime": 1520614181191}, {"current_trial": 116, "trialdata": {"rt": 2170, "trial_type": "text", "internal_node_id": "0.0-89.0", "time_elapsed": 797047, "key_press": 77, "type": "INSTRUCTIONS", "trial_index": 116}, "uniqueid": "MTK3466:3QFUFYSY9ZMCCWI3VH5RB5XMXGM4FZ", "dateTime": 1520614185376}, {"current_trial": 117, "trialdata": {"rt": [3237, 4885, 6595, 9222, 11115], "trial_type": "math-distractor", "key_times": [2730, 2872, 3237, 4512, 4657, 4885, 6277, 6595, 8647, 9092, 9222, 10767, 10922, 11115], "responses": ["15", "12", "9", "14", "11"], "num2": [6, 2, 4, 5, 3, 8], "num3": [4, 2, 1, 6, 6, 4], "conditions": [12, 1600, "v", 12000], "internal_node_id": "0.0-90.0", "key_presses": [49, 53, 13, 49, 50, 13, 57, 13, 49, 52, 13, 49, 49, 13], "trial": 3, "time_elapsed": 811062, "type": "DISTRACTOR", "trial_index": 117, "num1": [5, 8, 4, 3, 2, 1]}, "uniqueid": "MTK3466:3QFUFYSY9ZMCCWI3VH5RB5XMXGM4FZ", "dateTime": 1520614199391}, {"current_trial": 118, "trialdata": {"rt": -1, "trial_type": "single-stim", "stimulus": "<p id=\"stim\">10</p>", "internal_node_id": "0.0-91.0-0.0", "time_elapsed": 814070, "key_press": -1, "trial_index": 118}, "uniqueid": "MTK3466:3QFUFYSY9ZMCCWI3VH5RB5XMXGM4FZ", "dateTime": 1520614202399}, {"current_trial": 119, "trialdata": {"rt": -1, "trial_type": "single-stim", "stimulus": "<p id=\"stim\">9</p>", "internal_node_id": "0.0-91.0-1.0", "time_elapsed": 815072, "key_press": -1, "trial_index": 119}, "uniqueid": "MTK3466:3QFUFYSY9ZMCCWI3VH5RB5XMXGM4FZ", "dateTime": 1520614203401}, {"current_trial": 120, "trialdata": {"rt": -1, "trial_type": "single-stim", "stimulus": "<p id=\"stim\">8</p>", "internal_node_id": "0.0-91.0-2.0", "time_elapsed": 816077, "key_press": -1, "trial_index": 120}, "uniqueid": "MTK3466:3QFUFYSY9ZMCCWI3VH5RB5XMXGM4FZ", "dateTime": 1520614204406}, {"current_trial": 121, "trialdata": {"rt": -1, "trial_type": "single-stim", "stimulus": "<p id=\"stim\">7</p>", "internal_node_id": "0.0-91.0-3.0", "time_elapsed": 817085, "key_press": -1, "trial_index": 121}, "uniqueid": "MTK3466:3QFUFYSY9ZMCCWI3VH5RB5XMXGM4FZ", "dateTime": 1520614205414}, {"current_trial": 122, "trialdata": {"rt": -1, "trial_type": "single-stim", "stimulus": "<p id=\"stim\">6</p>", "internal_node_id": "0.0-91.0-4.0", "time_elapsed": 818090, "key_press": -1, "trial_index": 122}, "uniqueid": "MTK3466:3QFUFYSY9ZMCCWI3VH5RB5XMXGM4FZ", "dateTime": 1520614206419}, {"current_trial": 123, "trialdata": {"rt": -1, "trial_type": "single-stim", "stimulus": "<p id=\"stim\">5</p>", "internal_node_id": "0.0-91.0-5.0", "time_elapsed": 819095, "key_press": -1, "trial_index": 123}, "uniqueid": "MTK3466:3QFUFYSY9ZMCCWI3VH5RB5XMXGM4FZ", "dateTime": 1520614207424}, {"current_trial": 124, "trialdata": {"rt": -1, "trial_type": "single-stim", "stimulus": "<p id=\"stim\">4</p>", "internal_node_id": "0.0-91.0-6.0", "time_elapsed": 820100, "key_press": -1, "trial_index": 124}, "uniqueid": "MTK3466:3QFUFYSY9ZMCCWI3VH5RB5XMXGM4FZ", "dateTime": 1520614208429}, {"current_trial": 125, "trialdata": {"rt": -1, "trial_type": "single-stim", "stimulus": "<p id=\"stim\">3</p>", "internal_node_id": "0.0-91.0-7.0", "time_elapsed": 821107, "key_press": -1, "trial_index": 125}, "uniqueid": "MTK3466:3QFUFYSY9ZMCCWI3VH5RB5XMXGM4FZ", "dateTime": 1520614209436}, {"current_trial": 126, "trialdata": {"rt": -1, "trial_type": "single-stim", "stimulus": "<p id=\"stim\">2</p>", "internal_node_id": "0.0-91.0-8.0", "time_elapsed": 822112, "key_press": -1, "trial_index": 126}, "uniqueid": "MTK3466:3QFUFYSY9ZMCCWI3VH5RB5XMXGM4FZ", "dateTime": 1520614210441}, {"current_trial": 127, "trialdata": {"rt": -1, "trial_type": "single-stim", "stimulus": "<p id=\"stim\">1</p>", "internal_node_id": "0.0-91.0-9.0", "time_elapsed": 823122, "key_press": -1, "trial_index": 127}, "uniqueid": "MTK3466:3QFUFYSY9ZMCCWI3VH5RB5XMXGM4FZ", "dateTime": 1520614211451}, {"current_trial": 128, "trialdata": {"rt": -1, "trial_type": "single-stim", "stimulus": "<p id=\"stim\">+</p>", "internal_node_id": "0.0-92.0-0.0", "time_elapsed": 824627, "key_press": -1, "type": "FIXATION", "trial_index": 128}, "uniqueid": "MTK3466:3QFUFYSY9ZMCCWI3VH5RB5XMXGM4FZ", "dateTime": 1520614212956}, {"current_trial": 129, "trialdata": {"rt": -1, "trial_type": "single-stim", "word": "kleenex", "stimulus": "<p id=\"stim\">KLEENEX</p>", "conditions": [12, 1600, "v", 12000], "internal_node_id": "0.0-93.0", "trial": 3, "time_elapsed": 826230, "serialpos": 0, "key_press": -1, "wordID": 781, "type": "PRES_VIS", "trial_index": 129}, "uniqueid": "MTK3466:3QFUFYSY9ZMCCWI3VH5RB5XMXGM4FZ", "dateTime": 1520614214559}, {"current_trial": 130, "trialdata": {"rt": -1, "trial_type": "single-stim", "word": "rattle", "stimulus": "<p id=\"stim\">RATTLE</p>", "conditions": [12, 1600, "v", 12000], "internal_node_id": "0.0-94.0", "trial": 3, "time_elapsed": 828895, "serialpos": 1, "key_press": -1, "wordID": 1169, "type": "PRES_VIS", "trial_index": 130}, "uniqueid": "MTK3466:3QFUFYSY9ZMCCWI3VH5RB5XMXGM4FZ", "dateTime": 1520614217224}, {"current_trial": 131, "trialdata": {"rt": -1, "trial_type": "single-stim", "word": "trout", "stimulus": "<p id=\"stim\">TROUT</p>", "conditions": [12, 1600, "v", 12000], "internal_node_id": "0.0-95.0", "trial": 3, "time_elapsed": 831505, "serialpos": 2, "key_press": -1, "wordID": 1510, "type": "PRES_VIS", "trial_index": 131}, "uniqueid": "MTK3466:3QFUFYSY9ZMCCWI3VH5RB5XMXGM4FZ", "dateTime": 1520614219834}, {"current_trial": 132, "trialdata": {"rt": -1, "trial_type": "single-stim", "word": "fragrance", "stimulus": "<p id=\"stim\">FRAGRANCE</p>", "conditions": [12, 1600, "v", 12000], "internal_node_id": "0.0-96.0", "trial": 3, "time_elapsed": 834232, "serialpos": 3, "key_press": -1, "wordID": 598, "type": "PRES_VIS", "trial_index": 132}, "uniqueid": "MTK3466:3QFUFYSY9ZMCCWI3VH5RB5XMXGM4FZ", "dateTime": 1520614222561}, {"current_trial": 133, "trialdata": {"rt": -1, "trial_type": "single-stim", "word": "report", "stimulus": "<p id=\"stim\">REPORT</p>", "conditions": [12, 1600, "v", 12000], "internal_node_id": "0.0-97.0", "trial": 3, "time_elapsed": 836995, "serialpos": 4, "key_press": -1, "wordID": 1183, "type": "PRES_VIS", "trial_index": 133}, "uniqueid": "MTK3466:3QFUFYSY9ZMCCWI3VH5RB5XMXGM4FZ", "dateTime": 1520614225324}, {"current_trial": 134, "trialdata": {"rt": -1, "trial_type": "single-stim", "word": "truck", "stimulus": "<p id=\"stim\">TRUCK</p>", "conditions": [12, 1600, "v", 12000], "internal_node_id": "0.0-98.0", "trial": 3, "time_elapsed": 839512, "serialpos": 5, "key_press": -1, "wordID": 1511, "type": "PRES_VIS", "trial_index": 134}, "uniqueid": "MTK3466:3QFUFYSY9ZMCCWI3VH5RB5XMXGM4FZ", "dateTime": 1520614227841}, {"current_trial": 135, "trialdata": {"rt": -1, "trial_type": "single-stim", "word": "playground", "stimulus": "<p id=\"stim\">PLAYGROUND</p>", "conditions": [12, 1600, "v", 12000], "internal_node_id": "0.0-99.0", "trial": 3, "time_elapsed": 842260, "serialpos": 6, "key_press": -1, "wordID": 1086, "type": "PRES_VIS", "trial_index": 135}, "uniqueid": "MTK3466:3QFUFYSY9ZMCCWI3VH5RB5XMXGM4FZ", "dateTime": 1520614230589}, {"current_trial": 136, "trialdata": {"rt": -1, "trial_type": "single-stim", "word": "perch", "stimulus": "<p id=\"stim\">PERCH</p>", "conditions": [12, 1600, "v", 12000], "internal_node_id": "0.0-100.0", "trial": 3, "time_elapsed": 844897, "serialpos": 7, "key_press": -1, "wordID": 1047, "type": "PRES_VIS", "trial_index": 136}, "uniqueid": "MTK3466:3QFUFYSY9ZMCCWI3VH5RB5XMXGM4FZ", "dateTime": 1520614233226}, {"current_trial": 137, "trialdata": {"rt": -1, "trial_type": "single-stim", "word": "perfume", "stimulus": "<p id=\"stim\">PERFUME</p>", "conditions": [12, 1600, "v", 12000], "internal_node_id": "0.0-101.0", "trial": 3, "time_elapsed": 847492, "serialpos": 8, "key_press": -1, "wordID": 1048, "type": "PRES_VIS", "trial_index": 137}, "uniqueid": "MTK3466:3QFUFYSY9ZMCCWI3VH5RB5XMXGM4FZ", "dateTime": 1520614235821}, {"current_trial": 138, "trialdata": {"rt": -1, "trial_type": "single-stim", "word": "flask", "stimulus": "<p id=\"stim\">FLASK</p>", "conditions": [12, 1600, "v", 12000], "internal_node_id": "0.0-102.0", "trial": 3, "time_elapsed": 849977, "serialpos": 9, "key_press": -1, "wordID": 575, "type": "PRES_VIS", "trial_index": 138}, "uniqueid": "MTK3466:3QFUFYSY9ZMCCWI3VH5RB5XMXGM4FZ", "dateTime": 1520614238306}, {"current_trial": 139, "trialdata": {"rt": -1, "trial_type": "single-stim", "word": "cook", "stimulus": "<p id=\"stim\">COOK</p>", "conditions": [12, 1600, "v", 12000], "internal_node_id": "0.0-103.0", "trial": 3, "time_elapsed": 852715, "serialpos": 10, "key_press": -1, "wordID": 371, "type": "PRES_VIS", "trial_index": 139}, "uniqueid": "MTK3466:3QFUFYSY9ZMCCWI3VH5RB5XMXGM4FZ", "dateTime": 1520614241044}, {"current_trial": 140, "trialdata": {"rt": -1, "trial_type": "single-stim", "word": "grill", "stimulus": "<p id=\"stim\">GRILL</p>", "conditions": [12, 1600, "v", 12000], "internal_node_id": "0.0-104.0", "trial": 3, "time_elapsed": 855125, "serialpos": 11, "key_press": -1, "wordID": 660, "type": "PRES_VIS", "trial_index": 140}, "uniqueid": "MTK3466:3QFUFYSY9ZMCCWI3VH5RB5XMXGM4FZ", "dateTime": 1520614243454}, {"current_trial": 141, "trialdata": {"rt": -1, "trial_type": "single-stim", "stimulus": "", "internal_node_id": "0.0-105.0-0.0", "time_elapsed": 857595, "key_press": -1, "type": "PRE_RECALL_DELAY", "trial_index": 141}, "uniqueid": "MTK3466:3QFUFYSY9ZMCCWI3VH5RB5XMXGM4FZ", "dateTime": 1520614245924}, {"current_trial": 142, "trialdata": {"rt": -1000, "trial_type": "single-audio", "stimulus": "/static/audio/400Hz.wav", "internal_node_id": "0.0-106.0", "time_elapsed": 858105, "key_press": -1, "type": "PRE_RECALL_ALERT", "trial_index": 142}, "uniqueid": "MTK3466:3QFUFYSY9ZMCCWI3VH5RB5XMXGM4FZ", "dateTime": 1520614246434}, {"current_trial": 143, "trialdata": {"rt": [4430, 7040, 8417, 10670, 13927, 15257, 19245, 23022, 30792, 52386], "recwords": ["perch", "cook", "grill", "trout", "truck", "report", "playground", "perfume", "kleenex", "grill"], "key_times": [3250, 3422, 3462, 3695, 3825, 4430, 6115, 6242, 6385, 6572, 7040, 7377, 7555, 7620, 7830, 7945, 8417, 9882, 10012, 10100, 10220, 10410, 10670, 12962, 13105, 13255, 13460, 13565, 13927, 14240, 14325, 14425, 14585, 14700, 14822, 15257, 16570, 17022, 17157, 17420, 17677, 17840, 17935, 18020, 18347, 19097, 19245, 21930, 22007, 22072, 22280, 22402, 22690, 22807, 23022, 28192, 28907, 29282, 29572, 29865, 30047, 30207, 30370, 30570, 30792, 51484, 51669, 51806, 52019, 52136, 52386, 58914, 59066, 59191, 59279, 59791], "trial_type": "free-recall", "conditions": [12, 1600, "v", 12000], "internal_node_id": "0.0-107.0-0.0", "key_presses": [80, 69, 82, 67, 72, 13, 67, 79, 79, 75, 13, 71, 82, 73, 76, 76, 13, 84, 82, 79, 85, 84, 13, 84, 82, 85, 67, 75, 13, 82, 69, 80, 79, 82, 84, 13, 80, 76, 65, 89, 71, 82, 79, 85, 78, 68, 13, 80, 69, 82, 70, 85, 77, 69, 13, 76, 8, 75, 76, 69, 69, 78, 69, 88, 13, 71, 82, 73, 76, 76, 13, 70, 76, 65, 83, 75], "trial": 3, "time_elapsed": 918116, "type": "FREE_RECALL", "trial_index": 143}, "uniqueid": "MTK3466:3QFUFYSY9ZMCCWI3VH5RB5XMXGM4FZ", "dateTime": 1520614306450}, {"current_trial": 144, "trialdata": {"rt": 1815, "trial_type": "text", "internal_node_id": "0.0-108.0", "time_elapsed": 921941, "key_press": 77, "type": "INSTRUCTIONS", "trial_index": 144}, "uniqueid": "MTK3466:3QFUFYSY9ZMCCWI3VH5RB5XMXGM4FZ", "dateTime": 1520614310270}, {"current_trial": 145, "trialdata": {"rt": [1810, 3835, 5365, 7433, 9095, 12730, 14560, 16990, 18913, 21243, 23688], "trial_type": "math-distractor", "key_times": [1445, 1598, 1810, 3238, 3688, 3835, 4920, 5170, 5365, 7275, 7433, 8950, 9095, 12450, 12565, 12730, 14330, 14560, 16823, 16990, 18500, 18643, 18913, 20458, 20893, 21243, 23293, 23545, 23688], "responses": ["12", "15", "13", "6", "9", "21", "8", "8", "10", "17", "13"], "num2": [3, 5, 4, 1, 1, 6, 1, 3, 4, 7, 1, 2], "num3": [8, 7, 6, 2, 6, 9, 1, 3, 2, 6, 5, 7], "conditions": [12, 1600, "v", 24000], "internal_node_id": "0.0-109.0", "key_presses": [49, 50, 13, 49, 53, 13, 49, 51, 13, 54, 13, 57, 13, 50, 49, 13, 56, 13, 56, 13, 49, 48, 13, 49, 55, 13, 49, 51, 13], "trial": 4, "time_elapsed": 947951, "type": "DISTRACTOR", "trial_index": 145, "num1": [1, 3, 3, 3, 2, 6, 6, 2, 4, 4, 7, 3]}, "uniqueid": "MTK3466:3QFUFYSY9ZMCCWI3VH5RB5XMXGM4FZ", "dateTime": 1520614336280}, {"current_trial": 146, "trialdata": {"rt": -1, "trial_type": "single-stim", "stimulus": "<p id=\"stim\">10</p>", "internal_node_id": "0.0-110.0-0.0", "time_elapsed": 950961, "key_press": -1, "trial_index": 146}, "uniqueid": "MTK3466:3QFUFYSY9ZMCCWI3VH5RB5XMXGM4FZ", "dateTime": 1520614339290}, {"current_trial": 147, "trialdata": {"rt": -1, "trial_type": "single-stim", "stimulus": "<p id=\"stim\">9</p>", "internal_node_id": "0.0-110.0-1.0", "time_elapsed": 951964, "key_press": -1, "trial_index": 147}, "uniqueid": "MTK3466:3QFUFYSY9ZMCCWI3VH5RB5XMXGM4FZ", "dateTime": 1520614340293}, {"current_trial": 148, "trialdata": {"rt": -1, "trial_type": "single-stim", "stimulus": "<p id=\"stim\">8</p>", "internal_node_id": "0.0-110.0-2.0", "time_elapsed": 952969, "key_press": -1, "trial_index": 148}, "uniqueid": "MTK3466:3QFUFYSY9ZMCCWI3VH5RB5XMXGM4FZ", "dateTime": 1520614341298}, {"current_trial": 149, "trialdata": {"rt": -1, "trial_type": "single-stim", "stimulus": "<p id=\"stim\">7</p>", "internal_node_id": "0.0-110.0-3.0", "time_elapsed": 953976, "key_press": -1, "trial_index": 149}, "uniqueid": "MTK3466:3QFUFYSY9ZMCCWI3VH5RB5XMXGM4FZ", "dateTime": 1520614342305}, {"current_trial": 150, "trialdata": {"rt": -1, "trial_type": "single-stim", "stimulus": "<p id=\"stim\">6</p>", "internal_node_id": "0.0-110.0-4.0", "time_elapsed": 954979, "key_press": -1, "trial_index": 150}, "uniqueid": "MTK3466:3QFUFYSY9ZMCCWI3VH5RB5XMXGM4FZ", "dateTime": 1520614343308}, {"current_trial": 151, "trialdata": {"rt": -1, "trial_type": "single-stim", "stimulus": "<p id=\"stim\">5</p>", "internal_node_id": "0.0-110.0-5.0", "time_elapsed": 955984, "key_press": -1, "trial_index": 151}, "uniqueid": "MTK3466:3QFUFYSY9ZMCCWI3VH5RB5XMXGM4FZ", "dateTime": 1520614344313}, {"current_trial": 152, "trialdata": {"rt": -1, "trial_type": "single-stim", "stimulus": "<p id=\"stim\">4</p>", "internal_node_id": "0.0-110.0-6.0", "time_elapsed": 956989, "key_press": -1, "trial_index": 152}, "uniqueid": "MTK3466:3QFUFYSY9ZMCCWI3VH5RB5XMXGM4FZ", "dateTime": 1520614345318}, {"current_trial": 153, "trialdata": {"rt": -1, "trial_type": "single-stim", "stimulus": "<p id=\"stim\">3</p>", "internal_node_id": "0.0-110.0-7.0", "time_elapsed": 957999, "key_press": -1, "trial_index": 153}, "uniqueid": "MTK3466:3QFUFYSY9ZMCCWI3VH5RB5XMXGM4FZ", "dateTime": 1520614346328}, {"current_trial": 154, "trialdata": {"rt": -1, "trial_type": "single-stim", "stimulus": "<p id=\"stim\">2</p>", "internal_node_id": "0.0-110.0-8.0", "time_elapsed": 959006, "key_press": -1, "trial_index": 154}, "uniqueid": "MTK3466:3QFUFYSY9ZMCCWI3VH5RB5XMXGM4FZ", "dateTime": 1520614347335}, {"current_trial": 155, "trialdata": {"rt": -1, "trial_type": "single-stim", "stimulus": "<p id=\"stim\">1</p>", "internal_node_id": "0.0-110.0-9.0", "time_elapsed": 960016, "key_press": -1, "trial_index": 155}, "uniqueid": "MTK3466:3QFUFYSY9ZMCCWI3VH5RB5XMXGM4FZ", "dateTime": 1520614348345}, {"current_trial": 156, "trialdata": {"rt": -1, "trial_type": "single-stim", "stimulus": "<p id=\"stim\">+</p>", "internal_node_id": "0.0-111.0-0.0", "time_elapsed": 961519, "key_press": -1, "type": "FIXATION", "trial_index": 156}, "uniqueid": "MTK3466:3QFUFYSY9ZMCCWI3VH5RB5XMXGM4FZ", "dateTime": 1520614349848}, {"current_trial": 157, "trialdata": {"rt": -1, "trial_type": "single-stim", "word": "milk", "stimulus": "<p id=\"stim\">MILK</p>", "conditions": [12, 1600, "v", 24000], "internal_node_id": "0.0-112.0", "trial": 4, "time_elapsed": 963124, "serialpos": 0, "key_press": -1, "wordID": 894, "type": "PRES_VIS", "trial_index": 157}, "uniqueid": "MTK3466:3QFUFYSY9ZMCCWI3VH5RB5XMXGM4FZ", "dateTime": 1520614351453}, {"current_trial": 158, "trialdata": {"rt": -1, "trial_type": "single-stim", "word": "breast", "stimulus": "<p id=\"stim\">BREAST</p>", "conditions": [12, 1600, "v", 24000], "internal_node_id": "0.0-113.0", "trial": 4, "time_elapsed": 965836, "serialpos": 1, "key_press": -1, "wordID": 170, "type": "PRES_VIS", "trial_index": 158}, "uniqueid": "MTK3466:3QFUFYSY9ZMCCWI3VH5RB5XMXGM4FZ", "dateTime": 1520614354165}, {"current_trial": 159, "trialdata": {"rt": -1, "trial_type": "single-stim", "word": "drink", "stimulus": "<p id=\"stim\">DRINK</p>", "conditions": [12, 1600, "v", 24000], "internal_node_id": "0.0-114.0", "trial": 4, "time_elapsed": 968426, "serialpos": 2, "key_press": -1, "wordID": 497, "type": "PRES_VIS", "trial_index": 159}, "uniqueid": "MTK3466:3QFUFYSY9ZMCCWI3VH5RB5XMXGM4FZ", "dateTime": 1520614356755}, {"current_trial": 160, "trialdata": {"rt": -1, "trial_type": "single-stim", "word": "scarecrow", "stimulus": "<p id=\"stim\">SCARECROW</p>", "conditions": [12, 1600, "v", 24000], "internal_node_id": "0.0-115.0", "trial": 4, "time_elapsed": 971120, "serialpos": 3, "key_press": -1, "wordID": 1244, "type": "PRES_VIS", "trial_index": 160}, "uniqueid": "MTK3466:3QFUFYSY9ZMCCWI3VH5RB5XMXGM4FZ", "dateTime": 1520614359449}, {"current_trial": 161, "trialdata": {"rt": -1, "trial_type": "single-stim", "word": "cyclone", "stimulus": "<p id=\"stim\">CYCLONE</p>", "conditions": [12, 1600, "v", 24000], "internal_node_id": "0.0-116.0", "trial": 4, "time_elapsed": 973743, "serialpos": 4, "key_press": -1, "wordID": 430, "type": "PRES_VIS", "trial_index": 161}, "uniqueid": "MTK3466:3QFUFYSY9ZMCCWI3VH5RB5XMXGM4FZ", "dateTime": 1520614362072}, {"current_trial": 162, "trialdata": {"rt": -1, "trial_type": "single-stim", "word": "soda", "stimulus": "<p id=\"stim\">SODA</p>", "conditions": [12, 1600, "v", 24000], "internal_node_id": "0.0-117.0", "trial": 4, "time_elapsed": 976415, "serialpos": 5, "key_press": -1, "wordID": 1340, "type": "PRES_VIS", "trial_index": 162}, "uniqueid": "MTK3466:3QFUFYSY9ZMCCWI3VH5RB5XMXGM4FZ", "dateTime": 1520614364744}, {"current_trial": 163, "trialdata": {"rt": -1, "trial_type": "single-stim", "word": "passage", "stimulus": "<p id=\"stim\">PASSAGE</p>", "conditions": [12, 1600, "v", 24000], "internal_node_id": "0.0-118.0", "trial": 4, "time_elapsed": 978835, "serialpos": 6, "key_press": -1, "wordID": 1018, "type": "PRES_VIS", "trial_index": 163}, "uniqueid": "MTK3466:3QFUFYSY9ZMCCWI3VH5RB5XMXGM4FZ", "dateTime": 1520614367164}, {"current_trial": 164, "trialdata": {"rt": -1, "trial_type": "single-stim", "word": "army", "stimulus": "<p id=\"stim\">ARMY</p>", "conditions": [12, 1600, "v", 24000], "internal_node_id": "0.0-119.0", "trial": 4, "time_elapsed": 981545, "serialpos": 7, "key_press": -1, "wordID": 38, "type": "PRES_VIS", "trial_index": 164}, "uniqueid": "MTK3466:3QFUFYSY9ZMCCWI3VH5RB5XMXGM4FZ", "dateTime": 1520614369874}, {"current_trial": 165, "trialdata": {"rt": -1, "trial_type": "single-stim", "word": "island", "stimulus": "<p id=\"stim\">ISLAND</p>", "conditions": [12, 1600, "v", 24000], "internal_node_id": "0.0-120.0", "trial": 4, "time_elapsed": 984050, "serialpos": 8, "key_press": -1, "wordID": 744, "type": "PRES_VIS", "trial_index": 165}, "uniqueid": "MTK3466:3QFUFYSY9ZMCCWI3VH5RB5XMXGM4FZ", "dateTime": 1520614372379}, {"current_trial": 166, "trialdata": {"rt": -1, "trial_type": "single-stim", "word": "lover", "stimulus": "<p id=\"stim\">LOVER</p>", "conditions": [12, 1600, "v", 24000], "internal_node_id": "0.0-121.0", "trial": 4, "time_elapsed": 986738, "serialpos": 9, "key_press": -1, "wordID": 845, "type": "PRES_VIS", "trial_index": 166}, "uniqueid": "MTK3466:3QFUFYSY9ZMCCWI3VH5RB5XMXGM4FZ", "dateTime": 1520614375067}, {"current_trial": 167, "trialdata": {"rt": -1, "trial_type": "single-stim", "word": "rabbit", "stimulus": "<p id=\"stim\">RABBIT</p>", "conditions": [12, 1600, "v", 24000], "internal_node_id": "0.0-122.0", "trial": 4, "time_elapsed": 989410, "serialpos": 10, "key_press": -1, "wordID": 1151, "type": "PRES_VIS", "trial_index": 167}, "uniqueid": "MTK3466:3QFUFYSY9ZMCCWI3VH5RB5XMXGM4FZ", "dateTime": 1520614377739}, {"current_trial": 168, "trialdata": {"rt": -1, "trial_type": "single-stim", "word": "beaver", "stimulus": "<p id=\"stim\">BEAVER</p>", "conditions": [12, 1600, "v", 24000], "internal_node_id": "0.0-123.0", "trial": 4, "time_elapsed": 992003, "serialpos": 11, "key_press": -1, "wordID": 108, "type": "PRES_VIS", "trial_index": 168}, "uniqueid": "MTK3466:3QFUFYSY9ZMCCWI3VH5RB5XMXGM4FZ", "dateTime": 1520614380332}, {"current_trial": 169, "trialdata": {"rt": -1, "trial_type": "single-stim", "stimulus": "", "internal_node_id": "0.0-124.0-0.0", "time_elapsed": 994353, "key_press": -1, "type": "PRE_RECALL_DELAY", "trial_index": 169}, "uniqueid": "MTK3466:3QFUFYSY9ZMCCWI3VH5RB5XMXGM4FZ", "dateTime": 1520614382682}, {"current_trial": 170, "trialdata": {"rt": -1000, "trial_type": "single-audio", "stimulus": "/static/audio/400Hz.wav", "internal_node_id": "0.0-125.0", "time_elapsed": 994863, "key_press": -1, "type": "PRE_RECALL_ALERT", "trial_index": 170}, "uniqueid": "MTK3466:3QFUFYSY9ZMCCWI3VH5RB5XMXGM4FZ", "dateTime": 1520614383192}, {"current_trial": 171, "trialdata": {"rt": [4465, 6477, 8547, 11320, 13055, 16270, 18075, 20955, 22835, 25662, 29905, 35769, 38436], "recwords": ["passage", "army", "island", "milk", "breast", "drink", "soda", "island", "lover", "rabbit", "breast", "drink", "cyclone"], "key_times": [1962, 2145, 2400, 2527, 2802, 3280, 3425, 4465, 4932, 5020, 5400, 5740, 6477, 7357, 7507, 7630, 7755, 8020, 8127, 8547, 10477, 10650, 10820, 10977, 11320, 11590, 11790, 11867, 12027, 12102, 12255, 13055, 13830, 13997, 14125, 14882, 14992, 15107, 15300, 15422, 15530, 16270, 17565, 17657, 17765, 17920, 18075, 19867, 19980, 20132, 20250, 20425, 20527, 20955, 21272, 21407, 21515, 21650, 21737, 22835, 23212, 23310, 23695, 23825, 23945, 24137, 25662, 26925, 27190, 27267, 27415, 27565, 28145, 28215, 28350, 29905, 33567, 33705, 33895, 34030, 34342, 34490, 34624, 34754, 34941, 35036, 35404, 35769, 36721, 36896, 37206, 37346, 37476, 37641, 37751, 38436], "trial_type": "free-recall", "conditions": [12, 1600, "v", 24000], "internal_node_id": "0.0-126.0-0.0", "key_presses": [80, 65, 83, 83, 65, 71, 69, 13, 65, 82, 77, 89, 13, 73, 83, 76, 65, 78, 68, 13, 77, 73, 76, 75, 13, 66, 82, 69, 65, 83, 84, 13, 68, 73, 78, 8, 8, 82, 73, 78, 75, 13, 83, 79, 68, 65, 13, 73, 83, 76, 65, 78, 68, 13, 76, 79, 86, 69, 82, 13, 82, 65, 66, 66, 73, 84, 13, 66, 82, 69, 65, 84, 8, 83, 84, 13, 68, 73, 78, 75, 8, 8, 8, 82, 73, 78, 75, 13, 67, 89, 67, 76, 79, 78, 69, 13], "trial": 4, "time_elapsed": 1054872, "type": "FREE_RECALL", "trial_index": 171}, "uniqueid": "MTK3466:3QFUFYSY9ZMCCWI3VH5RB5XMXGM4FZ", "dateTime": 1520614443201}, {"current_trial": 172, "trialdata": {"rt": 1310, "trial_type": "text", "internal_node_id": "0.0-127.0", "time_elapsed": 1058192, "key_press": 77, "type": "INSTRUCTIONS", "trial_index": 172}, "uniqueid": "MTK3466:3QFUFYSY9ZMCCWI3VH5RB5XMXGM4FZ", "dateTime": 1520614446521}, {"current_trial": 173, "trialdata": {"rt": [3418, 5123, 6583, 8240, 11520, 12933, 14620, 17025, 20773, 23005], "trial_type": "math-distractor", "key_times": [2720, 3048, 3418, 4973, 5123, 6230, 6383, 6583, 8080, 8240, 10745, 11340, 11520, 12768, 12933, 14055, 14463, 14620, 16505, 16885, 17025, 20508, 20673, 20773, 22438, 22883, 23005], "responses": ["17", "6", "12", "9", "15", "7", "16", "17", "21", "15"], "num2": [3, 1, 2, 2, 4, 3, 4, 9, 9, 8, 4], "num3": [8, 2, 7, 7, 4, 3, 6, 5, 7, 3, 7], "conditions": [12, 800, "v", 24000], "internal_node_id": "0.0-128.0", "key_presses": [49, 55, 13, 54, 13, 49, 50, 13, 57, 13, 49, 53, 13, 55, 13, 49, 54, 13, 49, 55, 13, 50, 49, 13, 49, 53, 13], "trial": 5, "time_elapsed": 1084199, "type": "DISTRACTOR", "trial_index": 173, "num1": [6, 3, 3, 1, 7, 1, 6, 3, 5, 4, 1]}, "uniqueid": "MTK3466:3QFUFYSY9ZMCCWI3VH5RB5XMXGM4FZ", "dateTime": 1520614472528}, {"current_trial": 174, "trialdata": {"rt": -1, "trial_type": "single-stim", "stimulus": "<p id=\"stim\">10</p>", "internal_node_id": "0.0-129.0-0.0", "time_elapsed": 1087212, "key_press": -1, "trial_index": 174}, "uniqueid": "MTK3466:3QFUFYSY9ZMCCWI3VH5RB5XMXGM4FZ", "dateTime": 1520614475541}, {"current_trial": 175, "trialdata": {"rt": -1, "trial_type": "single-stim", "stimulus": "<p id=\"stim\">9</p>", "internal_node_id": "0.0-129.0-1.0", "time_elapsed": 1088219, "key_press": -1, "trial_index": 175}, "uniqueid": "MTK3466:3QFUFYSY9ZMCCWI3VH5RB5XMXGM4FZ", "dateTime": 1520614476548}, {"current_trial": 176, "trialdata": {"rt": -1, "trial_type": "single-stim", "stimulus": "<p id=\"stim\">8</p>", "internal_node_id": "0.0-129.0-2.0", "time_elapsed": 1089224, "key_press": -1, "trial_index": 176}, "uniqueid": "MTK3466:3QFUFYSY9ZMCCWI3VH5RB5XMXGM4FZ", "dateTime": 1520614477553}, {"current_trial": 177, "trialdata": {"rt": -1, "trial_type": "single-stim", "stimulus": "<p id=\"stim\">7</p>", "internal_node_id": "0.0-129.0-3.0", "time_elapsed": 1090227, "key_press": -1, "trial_index": 177}, "uniqueid": "MTK3466:3QFUFYSY9ZMCCWI3VH5RB5XMXGM4FZ", "dateTime": 1520614478556}, {"current_trial": 178, "trialdata": {"rt": -1, "trial_type": "single-stim", "stimulus": "<p id=\"stim\">6</p>", "internal_node_id": "0.0-129.0-4.0", "time_elapsed": 1091234, "key_press": -1, "trial_index": 178}, "uniqueid": "MTK3466:3QFUFYSY9ZMCCWI3VH5RB5XMXGM4FZ", "dateTime": 1520614479563}, {"current_trial": 179, "trialdata": {"rt": -1, "trial_type": "single-stim", "stimulus": "<p id=\"stim\">5</p>", "internal_node_id": "0.0-129.0-5.0", "time_elapsed": 1092239, "key_press": -1, "trial_index": 179}, "uniqueid": "MTK3466:3QFUFYSY9ZMCCWI3VH5RB5XMXGM4FZ", "dateTime": 1520614480568}, {"current_trial": 180, "trialdata": {"rt": -1, "trial_type": "single-stim", "stimulus": "<p id=\"stim\">4</p>", "internal_node_id": "0.0-129.0-6.0", "time_elapsed": 1093244, "key_press": -1, "trial_index": 180}, "uniqueid": "MTK3466:3QFUFYSY9ZMCCWI3VH5RB5XMXGM4FZ", "dateTime": 1520614481573}, {"current_trial": 181, "trialdata": {"rt": -1, "trial_type": "single-stim", "stimulus": "<p id=\"stim\">3</p>", "internal_node_id": "0.0-129.0-7.0", "time_elapsed": 1094254, "key_press": -1, "trial_index": 181}, "uniqueid": "MTK3466:3QFUFYSY9ZMCCWI3VH5RB5XMXGM4FZ", "dateTime": 1520614482583}, {"current_trial": 182, "trialdata": {"rt": -1, "trial_type": "single-stim", "stimulus": "<p id=\"stim\">2</p>", "internal_node_id": "0.0-129.0-8.0", "time_elapsed": 1095264, "key_press": -1, "trial_index": 182}, "uniqueid": "MTK3466:3QFUFYSY9ZMCCWI3VH5RB5XMXGM4FZ", "dateTime": 1520614483593}, {"current_trial": 183, "trialdata": {"rt": -1, "trial_type": "single-stim", "stimulus": "<p id=\"stim\">1</p>", "internal_node_id": "0.0-129.0-9.0", "time_elapsed": 1096269, "key_press": -1, "trial_index": 183}, "uniqueid": "MTK3466:3QFUFYSY9ZMCCWI3VH5RB5XMXGM4FZ", "dateTime": 1520614484598}, {"current_trial": 184, "trialdata": {"rt": -1, "trial_type": "single-stim", "stimulus": "<p id=\"stim\">+</p>", "internal_node_id": "0.0-130.0-0.0", "time_elapsed": 1097772, "key_press": -1, "type": "FIXATION", "trial_index": 184}, "uniqueid": "MTK3466:3QFUFYSY9ZMCCWI3VH5RB5XMXGM4FZ", "dateTime": 1520614486101}, {"current_trial": 185, "trialdata": {"rt": -1, "trial_type": "single-stim", "word": "transplant", "stimulus": "<p id=\"stim\">TRANSPLANT</p>", "conditions": [12, 800, "v", 24000], "internal_node_id": "0.0-131.0", "trial": 5, "time_elapsed": 1098577, "serialpos": 0, "key_press": -1, "wordID": 1495, "type": "PRES_VIS", "trial_index": 185}, "uniqueid": "MTK3466:3QFUFYSY9ZMCCWI3VH5RB5XMXGM4FZ", "dateTime": 1520614486906}, {"current_trial": 186, "trialdata": {"rt": -1, "trial_type": "single-stim", "word": "mailbox", "stimulus": "<p id=\"stim\">MAILBOX</p>", "conditions": [12, 800, "v", 24000], "internal_node_id": "0.0-132.0", "trial": 5, "time_elapsed": 1100489, "serialpos": 1, "key_press": -1, "wordID": 856, "type": "PRES_VIS", "trial_index": 186}, "uniqueid": "MTK3466:3QFUFYSY9ZMCCWI3VH5RB5XMXGM4FZ", "dateTime": 1520614488818}, {"current_trial": 187, "trialdata": {"rt": -1, "trial_type": "single-stim", "word": "crevice", "stimulus": "<p id=\"stim\">CREVICE</p>", "conditions": [12, 800, "v", 24000], "internal_node_id": "0.0-133.0", "trial": 5, "time_elapsed": 1102399, "serialpos": 2, "key_press": -1, "wordID": 404, "type": "PRES_VIS", "trial_index": 187}, "uniqueid": "MTK3466:3QFUFYSY9ZMCCWI3VH5RB5XMXGM4FZ", "dateTime": 1520614490728}, {"current_trial": 188, "trialdata": {"rt": -1, "trial_type": "single-stim", "word": "forehead", "stimulus": "<p id=\"stim\">FOREHEAD</p>", "conditions": [12, 800, "v", 24000], "internal_node_id": "0.0-134.0", "trial": 5, "time_elapsed": 1104112, "serialpos": 3, "key_press": -1, "wordID": 591, "type": "PRES_VIS", "trial_index": 188}, "uniqueid": "MTK3466:3QFUFYSY9ZMCCWI3VH5RB5XMXGM4FZ", "dateTime": 1520614492441}, {"current_trial": 189, "trialdata": {"rt": -1, "trial_type": "single-stim", "word": "actress", "stimulus": "<p id=\"stim\">ACTRESS</p>", "conditions": [12, 800, "v", 24000], "internal_node_id": "0.0-135.0", "trial": 5, "time_elapsed": 1106057, "serialpos": 4, "key_press": -1, "wordID": 5, "type": "PRES_VIS", "trial_index": 189}, "uniqueid": "MTK3466:3QFUFYSY9ZMCCWI3VH5RB5XMXGM4FZ", "dateTime": 1520614494386}, {"current_trial": 190, "trialdata": {"rt": -1, "trial_type": "single-stim", "word": "shelf", "stimulus": "<p id=\"stim\">SHELF</p>", "conditions": [12, 800, "v", 24000], "internal_node_id": "0.0-136.0", "trial": 5, "time_elapsed": 1107929, "serialpos": 5, "key_press": -1, "wordID": 1279, "type": "PRES_VIS", "trial_index": 190}, "uniqueid": "MTK3466:3QFUFYSY9ZMCCWI3VH5RB5XMXGM4FZ", "dateTime": 1520614496258}, {"current_trial": 191, "trialdata": {"rt": -1, "trial_type": "single-stim", "word": "blackboard", "stimulus": "<p id=\"stim\">BLACKBOARD</p>", "conditions": [12, 800, "v", 24000], "internal_node_id": "0.0-137.0", "trial": 5, "time_elapsed": 1109847, "serialpos": 6, "key_press": -1, "wordID": 132, "type": "PRES_VIS", "trial_index": 191}, "uniqueid": "MTK3466:3QFUFYSY9ZMCCWI3VH5RB5XMXGM4FZ", "dateTime": 1520614498176}, {"current_trial": 192, "trialdata": {"rt": -1, "trial_type": "single-stim", "word": "mailman", "stimulus": "<p id=\"stim\">MAILMAN</p>", "conditions": [12, 800, "v", 24000], "internal_node_id": "0.0-138.0", "trial": 5, "time_elapsed": 1111687, "serialpos": 7, "key_press": -1, "wordID": 857, "type": "PRES_VIS", "trial_index": 192}, "uniqueid": "MTK3466:3QFUFYSY9ZMCCWI3VH5RB5XMXGM4FZ", "dateTime": 1520614500016}, {"current_trial": 193, "trialdata": {"rt": -1, "trial_type": "single-stim", "word": "jury", "stimulus": "<p id=\"stim\">JURY</p>", "conditions": [12, 800, "v", 24000], "internal_node_id": "0.0-139.0", "trial": 5, "time_elapsed": 1113454, "serialpos": 8, "key_press": -1, "wordID": 765, "type": "PRES_VIS", "trial_index": 193}, "uniqueid": "MTK3466:3QFUFYSY9ZMCCWI3VH5RB5XMXGM4FZ", "dateTime": 1520614501783}, {"current_trial": 194, "trialdata": {"rt": -1, "trial_type": "single-stim", "word": "judge", "stimulus": "<p id=\"stim\">JUDGE</p>", "conditions": [12, 800, "v", 24000], "internal_node_id": "0.0-140.0", "trial": 5, "time_elapsed": 1115214, "serialpos": 9, "key_press": -1, "wordID": 760, "type": "PRES_VIS", "trial_index": 194}, "uniqueid": "MTK3466:3QFUFYSY9ZMCCWI3VH5RB5XMXGM4FZ", "dateTime": 1520614503543}, {"current_trial": 195, "trialdata": {"rt": -1, "trial_type": "single-stim", "word": "blouse", "stimulus": "<p id=\"stim\">BLOUSE</p>", "conditions": [12, 800, "v", 24000], "internal_node_id": "0.0-141.0", "trial": 5, "time_elapsed": 1117107, "serialpos": 10, "key_press": -1, "wordID": 138, "type": "PRES_VIS", "trial_index": 195}, "uniqueid": "MTK3466:3QFUFYSY9ZMCCWI3VH5RB5XMXGM4FZ", "dateTime": 1520614505436}, {"current_trial": 196, "trialdata": {"rt": -1, "trial_type": "single-stim", "word": "jello", "stimulus": "<p id=\"stim\">JELLO</p>", "conditions": [12, 800, "v", 24000], "internal_node_id": "0.0-142.0", "trial": 5, "time_elapsed": 1118862, "serialpos": 11, "key_press": -1, "wordID": 753, "type": "PRES_VIS", "trial_index": 196}, "uniqueid": "MTK3466:3QFUFYSY9ZMCCWI3VH5RB5XMXGM4FZ", "dateTime": 1520614507191}, {"current_trial": 197, "trialdata": {"rt": -1, "trial_type": "single-stim", "stimulus": "", "internal_node_id": "0.0-143.0-0.0", "time_elapsed": 1121434, "key_press": -1, "type": "PRE_RECALL_DELAY", "trial_index": 197}, "uniqueid": "MTK3466:3QFUFYSY9ZMCCWI3VH5RB5XMXGM4FZ", "dateTime": 1520614509763}, {"current_trial": 198, "trialdata": {"rt": -1000, "trial_type": "single-audio", "stimulus": "/static/audio/400Hz.wav", "internal_node_id": "0.0-144.0", "time_elapsed": 1121937, "key_press": -1, "type": "PRE_RECALL_ALERT", "trial_index": 198}, "uniqueid": "MTK3466:3QFUFYSY9ZMCCWI3VH5RB5XMXGM4FZ", "dateTime": 1520614510266}, {"current_trial": 199, "trialdata": {"rt": [4722, 7347, 11053, 14618, 18115, 22443, 24338, 26418, 35688, 37410], "recwords": ["blouse", "judge", "shelf", "transplant", "mailbox", "mailman", "jury", "blouse", "forehead", "actress"], "key_times": [3547, 3767, 3945, 4170, 4297, 4360, 4722, 6370, 6522, 6627, 6887, 7002, 7347, 8283, 8388, 8823, 9100, 9180, 9660, 9813, 10275, 10370, 10533, 10670, 11053, 12058, 12198, 12303, 12338, 12808, 13090, 13278, 13478, 13890, 14008, 14618, 15288, 15398, 15493, 16028, 16765, 16885, 17528, 18115, 18810, 19008, 19750, 19945, 21315, 21390, 21500, 21675, 21795, 21903, 21968, 22443, 23423, 23615, 23775, 23915, 24338, 25473, 25553, 25703, 25893, 26020, 26093, 26418, 28805, 28993, 29248, 29258, 29810, 30335, 30468, 30888, 31060, 31855, 32345, 32383, 32413, 32443, 32473, 32503, 32535, 32563, 32593, 32623, 32653, 32683, 34260, 34368, 34498, 34575, 34943, 35175, 35285, 35480, 35688, 36170, 36340, 36590, 36773, 36860, 37063, 37243, 37410], "trial_type": "free-recall", "conditions": [12, 800, "v", 24000], "internal_node_id": "0.0-145.0-0.0", "key_presses": [66, 76, 79, 85, 83, 69, 13, 74, 85, 68, 71, 69, 13, 83, 69, 8, 71, 69, 8, 8, 72, 69, 76, 70, 13, 84, 82, 65, 78, 83, 80, 76, 65, 78, 84, 13, 77, 65, 73, 76, 66, 79, 88, 13, 65, 67, 8, 8, 77, 65, 73, 76, 77, 65, 78, 13, 74, 85, 82, 89, 13, 66, 76, 79, 85, 83, 69, 13, 65, 67, 84, 82, 8, 82, 69, 83, 83, 8, 8, 8, 8, 8, 8, 8, 8, 8, 8, 8, 8, 8, 70, 79, 82, 69, 72, 69, 65, 68, 13, 65, 67, 84, 82, 69, 83, 83, 13], "trial": 5, "time_elapsed": 1181952, "type": "FREE_RECALL", "trial_index": 199}, "uniqueid": "MTK3466:3QFUFYSY9ZMCCWI3VH5RB5XMXGM4FZ", "dateTime": 1520614570281}, {"current_trial": 200, "trialdata": {"rt": 1672, "trial_type": "text", "internal_node_id": "0.0-146.0", "time_elapsed": 1185642, "key_press": 77, "type": "INSTRUCTIONS", "trial_index": 200}, "uniqueid": "MTK3466:3QFUFYSY9ZMCCWI3VH5RB5XMXGM4FZ", "dateTime": 1520614573971}, {"current_trial": 201, "trialdata": {"rt": [3482, 5222, 7515, 10235, 13465, 15677, 17222, 21180, 22478], "trial_type": "math-distractor", "key_times": [2952, 3137, 3482, 4947, 5222, 6765, 7150, 7515, 9780, 9927, 10235, 12995, 13185, 13465, 15330, 15502, 15677, 16687, 17085, 17222, 18952, 20175, 20570, 20870, 21180, 22153, 22281, 22478, 23968], "responses": ["16", "9", "15", "17", "16", "11", "13", "14", "11"], "num2": [7, 5, 7, 7, 9, 4, 8, 3, 8, 5], "num3": [5, 3, 1, 9, 2, 2, 3, 7, 2, 4], "conditions": [24, 1600, "v", 24000], "internal_node_id": "0.0-147.0", "key_presses": [49, 54, 13, 57, 13, 49, 53, 13, 49, 55, 13, 49, 54, 13, 49, 49, 13, 49, 51, 13, 192, 8, 49, 52, 13, 49, 49, 13, 49], "trial": 6, "time_elapsed": 1211656, "type": "DISTRACTOR", "trial_index": 201, "num1": [4, 1, 7, 1, 5, 5, 2, 4, 1, 6]}, "uniqueid": "MTK3466:3QFUFYSY9ZMCCWI3VH5RB5XMXGM4FZ", "dateTime": 1520614599985}, {"current_trial": 202, "trialdata": {"rt": -1, "trial_type": "single-stim", "stimulus": "<p id=\"stim\">10</p>", "internal_node_id": "0.0-148.0-0.0", "time_elapsed": 1214668, "key_press": -1, "trial_index": 202}, "uniqueid": "MTK3466:3QFUFYSY9ZMCCWI3VH5RB5XMXGM4FZ", "dateTime": 1520614602997}, {"current_trial": 203, "trialdata": {"rt": -1, "trial_type": "single-stim", "stimulus": "<p id=\"stim\">9</p>", "internal_node_id": "0.0-148.0-1.0", "time_elapsed": 1215671, "key_press": -1, "trial_index": 203}, "uniqueid": "MTK3466:3QFUFYSY9ZMCCWI3VH5RB5XMXGM4FZ", "dateTime": 1520614604000}, {"current_trial": 204, "trialdata": {"rt": -1, "trial_type": "single-stim", "stimulus": "<p id=\"stim\">8</p>", "internal_node_id": "0.0-148.0-2.0", "time_elapsed": 1216678, "key_press": -1, "trial_index": 204}, "uniqueid": "MTK3466:3QFUFYSY9ZMCCWI3VH5RB5XMXGM4FZ", "dateTime": 1520614605007}, {"current_trial": 205, "trialdata": {"rt": -1, "trial_type": "single-stim", "stimulus": "<p id=\"stim\">7</p>", "internal_node_id": "0.0-148.0-3.0", "time_elapsed": 1217688, "key_press": -1, "trial_index": 205}, "uniqueid": "MTK3466:3QFUFYSY9ZMCCWI3VH5RB5XMXGM4FZ", "dateTime": 1520614606017}, {"current_trial": 206, "trialdata": {"rt": -1, "trial_type": "single-stim", "stimulus": "<p id=\"stim\">6</p>", "internal_node_id": "0.0-148.0-4.0", "time_elapsed": 1218698, "key_press": -1, "trial_index": 206}, "uniqueid": "MTK3466:3QFUFYSY9ZMCCWI3VH5RB5XMXGM4FZ", "dateTime": 1520614607027}, {"current_trial": 207, "trialdata": {"rt": -1, "trial_type": "single-stim", "stimulus": "<p id=\"stim\">5</p>", "internal_node_id": "0.0-148.0-5.0", "time_elapsed": 1219701, "key_press": -1, "trial_index": 207}, "uniqueid": "MTK3466:3QFUFYSY9ZMCCWI3VH5RB5XMXGM4FZ", "dateTime": 1520614608030}, {"current_trial": 208, "trialdata": {"rt": -1, "trial_type": "single-stim", "stimulus": "<p id=\"stim\">4</p>", "internal_node_id": "0.0-148.0-6.0", "time_elapsed": 1220706, "key_press": -1, "trial_index": 208}, "uniqueid": "MTK3466:3QFUFYSY9ZMCCWI3VH5RB5XMXGM4FZ", "dateTime": 1520614609035}, {"current_trial": 209, "trialdata": {"rt": -1, "trial_type": "single-stim", "stimulus": "<p id=\"stim\">3</p>", "internal_node_id": "0.0-148.0-7.0", "time_elapsed": 1221711, "key_press": -1, "trial_index": 209}, "uniqueid": "MTK3466:3QFUFYSY9ZMCCWI3VH5RB5XMXGM4FZ", "dateTime": 1520614610040}, {"current_trial": 210, "trialdata": {"rt": -1, "trial_type": "single-stim", "stimulus": "<p id=\"stim\">2</p>", "internal_node_id": "0.0-148.0-8.0", "time_elapsed": 1222713, "key_press": -1, "trial_index": 210}, "uniqueid": "MTK3466:3QFUFYSY9ZMCCWI3VH5RB5XMXGM4FZ", "dateTime": 1520614611042}, {"current_trial": 211, "trialdata": {"rt": -1, "trial_type": "single-stim", "stimulus": "<p id=\"stim\">1</p>", "internal_node_id": "0.0-148.0-9.0", "time_elapsed": 1223716, "key_press": -1, "trial_index": 211}, "uniqueid": "MTK3466:3QFUFYSY9ZMCCWI3VH5RB5XMXGM4FZ", "dateTime": 1520614612045}, {"current_trial": 212, "trialdata": {"rt": -1, "trial_type": "single-stim", "stimulus": "<p id=\"stim\">+</p>", "internal_node_id": "0.0-149.0-0.0", "time_elapsed": 1225221, "key_press": -1, "type": "FIXATION", "trial_index": 212}, "uniqueid": "MTK3466:3QFUFYSY9ZMCCWI3VH5RB5XMXGM4FZ", "dateTime": 1520614613550}, {"current_trial": 213, "trialdata": {"rt": -1, "trial_type": "single-stim", "word": "turtle", "stimulus": "<p id=\"stim\">TURTLE</p>", "conditions": [24, 1600, "v", 24000], "internal_node_id": "0.0-150.0", "trial": 6, "time_elapsed": 1226823, "serialpos": 0, "key_press": -1, "wordID": 1521, "type": "PRES_VIS", "trial_index": 213}, "uniqueid": "MTK3466:3QFUFYSY9ZMCCWI3VH5RB5XMXGM4FZ", "dateTime": 1520614615152}, {"current_trial": 214, "trialdata": {"rt": -1, "trial_type": "single-stim", "word": "boyfriend", "stimulus": "<p id=\"stim\">BOYFRIEND</p>", "conditions": [24, 1600, "v", 24000], "internal_node_id": "0.0-151.0", "trial": 6, "time_elapsed": 1229621, "serialpos": 1, "key_press": -1, "wordID": 161, "type": "PRES_VIS", "trial_index": 214}, "uniqueid": "MTK3466:3QFUFYSY9ZMCCWI3VH5RB5XMXGM4FZ", "dateTime": 1520614617950}, {"current_trial": 215, "trialdata": {"rt": -1, "trial_type": "single-stim", "word": "ankle", "stimulus": "<p id=\"stim\">ANKLE</p>", "conditions": [24, 1600, "v", 24000], "internal_node_id": "0.0-152.0", "trial": 6, "time_elapsed": 1232411, "serialpos": 2, "key_press": -1, "wordID": 23, "type": "PRES_VIS", "trial_index": 215}, "uniqueid": "MTK3466:3QFUFYSY9ZMCCWI3VH5RB5XMXGM4FZ", "dateTime": 1520614620740}, {"current_trial": 216, "trialdata": {"rt": -1, "trial_type": "single-stim", "word": "woman", "stimulus": "<p id=\"stim\">WOMAN</p>", "conditions": [24, 1600, "v", 24000], "internal_node_id": "0.0-153.0", "trial": 6, "time_elapsed": 1235051, "serialpos": 3, "key_press": -1, "wordID": 1619, "type": "PRES_VIS", "trial_index": 216}, "uniqueid": "MTK3466:3QFUFYSY9ZMCCWI3VH5RB5XMXGM4FZ", "dateTime": 1520614623380}, {"current_trial": 217, "trialdata": {"rt": -1, "trial_type": "single-stim", "word": "brick", "stimulus": "<p id=\"stim\">BRICK</p>", "conditions": [24, 1600, "v", 24000], "internal_node_id": "0.0-154.0", "trial": 6, "time_elapsed": 1237831, "serialpos": 4, "key_press": -1, "wordID": 171, "type": "PRES_VIS", "trial_index": 217}, "uniqueid": "MTK3466:3QFUFYSY9ZMCCWI3VH5RB5XMXGM4FZ", "dateTime": 1520614626160}, {"current_trial": 218, "trialdata": {"rt": -1, "trial_type": "single-stim", "word": "tile", "stimulus": "<p id=\"stim\">TILE</p>", "conditions": [24, 1600, "v", 24000], "internal_node_id": "0.0-155.0", "trial": 6, "time_elapsed": 1240366, "serialpos": 5, "key_press": -1, "wordID": 1467, "type": "PRES_VIS", "trial_index": 218}, "uniqueid": "MTK3466:3QFUFYSY9ZMCCWI3VH5RB5XMXGM4FZ", "dateTime": 1520614628695}, {"current_trial": 219, "trialdata": {"rt": -1, "trial_type": "single-stim", "word": "mister", "stimulus": "<p id=\"stim\">MISTER</p>", "conditions": [24, 1600, "v", 24000], "internal_node_id": "0.0-156.0", "trial": 6, "time_elapsed": 1242876, "serialpos": 6, "key_press": -1, "wordID": 900, "type": "PRES_VIS", "trial_index": 219}, "uniqueid": "MTK3466:3QFUFYSY9ZMCCWI3VH5RB5XMXGM4FZ", "dateTime": 1520614631205}, {"current_trial": 220, "trialdata": {"rt": -1, "trial_type": "single-stim", "word": "spool", "stimulus": "<p id=\"stim\">SPOOL</p>", "conditions": [24, 1600, "v", 24000], "internal_node_id": "0.0-157.0", "trial": 6, "time_elapsed": 1245333, "serialpos": 7, "key_press": -1, "wordID": 1355, "type": "PRES_VIS", "trial_index": 220}, "uniqueid": "MTK3466:3QFUFYSY9ZMCCWI3VH5RB5XMXGM4FZ", "dateTime": 1520614633662}, {"current_trial": 221, "trialdata": {"rt": -1, "trial_type": "single-stim", "word": "lettuce", "stimulus": "<p id=\"stim\">LETTUCE</p>", "conditions": [24, 1600, "v", 24000], "internal_node_id": "0.0-158.0", "trial": 6, "time_elapsed": 1248083, "serialpos": 8, "key_press": -1, "wordID": 813, "type": "PRES_VIS", "trial_index": 221}, "uniqueid": "MTK3466:3QFUFYSY9ZMCCWI3VH5RB5XMXGM4FZ", "dateTime": 1520614636412}, {"current_trial": 222, "trialdata": {"rt": -1, "trial_type": "single-stim", "word": "lady", "stimulus": "<p id=\"stim\">LADY</p>", "conditions": [24, 1600, "v", 24000], "internal_node_id": "0.0-159.0", "trial": 6, "time_elapsed": 1250533, "serialpos": 9, "key_press": -1, "wordID": 793, "type": "PRES_VIS", "trial_index": 222}, "uniqueid": "MTK3466:3QFUFYSY9ZMCCWI3VH5RB5XMXGM4FZ", "dateTime": 1520614638862}, {"current_trial": 223, "trialdata": {"rt": -1, "trial_type": "single-stim", "word": "glove", "stimulus": "<p id=\"stim\">GLOVE</p>", "conditions": [24, 1600, "v", 24000], "internal_node_id": "0.0-160.0", "trial": 6, "time_elapsed": 1253021, "serialpos": 10, "key_press": -1, "wordID": 641, "type": "PRES_VIS", "trial_index": 223}, "uniqueid": "MTK3466:3QFUFYSY9ZMCCWI3VH5RB5XMXGM4FZ", "dateTime": 1520614641350}, {"current_trial": 224, "trialdata": {"rt": -1, "trial_type": "single-stim", "word": "japan", "stimulus": "<p id=\"stim\">JAPAN</p>", "conditions": [24, 1600, "v", 24000], "internal_node_id": "0.0-161.0", "trial": 6, "time_elapsed": 1255518, "serialpos": 11, "key_press": -1, "wordID": 748, "type": "PRES_VIS", "trial_index": 224}, "uniqueid": "MTK3466:3QFUFYSY9ZMCCWI3VH5RB5XMXGM4FZ", "dateTime": 1520614643847}, {"current_trial": 225, "trialdata": {"rt": -1, "trial_type": "single-stim", "word": "venus", "stimulus": "<p id=\"stim\">VENUS</p>", "conditions": [24, 1600, "v", 24000], "internal_node_id": "0.0-162.0", "trial": 6, "time_elapsed": 1257961, "serialpos": 12, "key_press": -1, "wordID": 1556, "type": "PRES_VIS", "trial_index": 225}, "uniqueid": "MTK3466:3QFUFYSY9ZMCCWI3VH5RB5XMXGM4FZ", "dateTime": 1520614646290}, {"current_trial": 226, "trialdata": {"rt": -1, "trial_type": "single-stim", "word": "kidney", "stimulus": "<p id=\"stim\">KIDNEY</p>", "conditions": [24, 1600, "v", 24000], "internal_node_id": "0.0-163.0", "trial": 6, "time_elapsed": 1260386, "serialpos": 13, "key_press": -1, "wordID": 775, "type": "PRES_VIS", "trial_index": 226}, "uniqueid": "MTK3466:3QFUFYSY9ZMCCWI3VH5RB5XMXGM4FZ", "dateTime": 1520614648715}, {"current_trial": 227, "trialdata": {"rt": -1, "trial_type": "single-stim", "word": "liver", "stimulus": "<p id=\"stim\">LIVER</p>", "conditions": [24, 1600, "v", 24000], "internal_node_id": "0.0-164.0", "trial": 6, "time_elapsed": 1263136, "serialpos": 14, "key_press": -1, "wordID": 832, "type": "PRES_VIS", "trial_index": 227}, "uniqueid": "MTK3466:3QFUFYSY9ZMCCWI3VH5RB5XMXGM4FZ", "dateTime": 1520614651465}, {"current_trial": 228, "trialdata": {"rt": -1, "trial_type": "single-stim", "word": "necklace", "stimulus": "<p id=\"stim\">NECKLACE</p>", "conditions": [24, 1600, "v", 24000], "internal_node_id": "0.0-165.0", "trial": 6, "time_elapsed": 1265568, "serialpos": 15, "key_press": -1, "wordID": 939, "type": "PRES_VIS", "trial_index": 228}, "uniqueid": "MTK3466:3QFUFYSY9ZMCCWI3VH5RB5XMXGM4FZ", "dateTime": 1520614653897}, {"current_trial": 229, "trialdata": {"rt": -1, "trial_type": "single-stim", "word": "dorm", "stimulus": "<p id=\"stim\">DORM</p>", "conditions": [24, 1600, "v", 24000], "internal_node_id": "0.0-166.0", "trial": 6, "time_elapsed": 1268253, "serialpos": 16, "key_press": -1, "wordID": 487, "type": "PRES_VIS", "trial_index": 229}, "uniqueid": "MTK3466:3QFUFYSY9ZMCCWI3VH5RB5XMXGM4FZ", "dateTime": 1520614656582}, {"current_trial": 230, "trialdata": {"rt": -1, "trial_type": "single-stim", "word": "country", "stimulus": "<p id=\"stim\">COUNTRY</p>", "conditions": [24, 1600, "v", 24000], "internal_node_id": "0.0-167.0", "trial": 6, "time_elapsed": 1270776, "serialpos": 17, "key_press": -1, "wordID": 387, "type": "PRES_VIS", "trial_index": 230}, "uniqueid": "MTK3466:3QFUFYSY9ZMCCWI3VH5RB5XMXGM4FZ", "dateTime": 1520614659105}, {"current_trial": 231, "trialdata": {"rt": -1, "trial_type": "single-stim", "word": "curtain", "stimulus": "<p id=\"stim\">CURTAIN</p>", "conditions": [24, 1600, "v", 24000], "internal_node_id": "0.0-168.0", "trial": 6, "time_elapsed": 1273236, "serialpos": 18, "key_press": -1, "wordID": 426, "type": "PRES_VIS", "trial_index": 231}, "uniqueid": "MTK3466:3QFUFYSY9ZMCCWI3VH5RB5XMXGM4FZ", "dateTime": 1520614661565}, {"current_trial": 232, "trialdata": {"rt": -1, "trial_type": "single-stim", "word": "switch", "stimulus": "<p id=\"stim\">SWITCH</p>", "conditions": [24, 1600, "v", 24000], "internal_node_id": "0.0-169.0", "trial": 6, "time_elapsed": 1275931, "serialpos": 19, "key_press": -1, "wordID": 1421, "type": "PRES_VIS", "trial_index": 232}, "uniqueid": "MTK3466:3QFUFYSY9ZMCCWI3VH5RB5XMXGM4FZ", "dateTime": 1520614664260}, {"current_trial": 233, "trialdata": {"rt": -1, "trial_type": "single-stim", "word": "handbag", "stimulus": "<p id=\"stim\">HANDBAG</p>", "conditions": [24, 1600, "v", 24000], "internal_node_id": "0.0-170.0", "trial": 6, "time_elapsed": 1278568, "serialpos": 20, "key_press": -1, "wordID": 683, "type": "PRES_VIS", "trial_index": 233}, "uniqueid": "MTK3466:3QFUFYSY9ZMCCWI3VH5RB5XMXGM4FZ", "dateTime": 1520614666897}, {"current_trial": 234, "trialdata": {"rt": -1, "trial_type": "single-stim", "word": "beast", "stimulus": "<p id=\"stim\">BEAST</p>", "conditions": [24, 1600, "v", 24000], "internal_node_id": "0.0-171.0", "trial": 6, "time_elapsed": 1281288, "serialpos": 21, "key_press": -1, "wordID": 107, "type": "PRES_VIS", "trial_index": 234}, "uniqueid": "MTK3466:3QFUFYSY9ZMCCWI3VH5RB5XMXGM4FZ", "dateTime": 1520614669617}, {"current_trial": 235, "trialdata": {"rt": -1, "trial_type": "single-stim", "word": "cowboy", "stimulus": "<p id=\"stim\">COWBOY</p>", "conditions": [24, 1600, "v", 24000], "internal_node_id": "0.0-172.0", "trial": 6, "time_elapsed": 1283871, "serialpos": 22, "key_press": -1, "wordID": 394, "type": "PRES_VIS", "trial_index": 235}, "uniqueid": "MTK3466:3QFUFYSY9ZMCCWI3VH5RB5XMXGM4FZ", "dateTime": 1520614672200}, {"current_trial": 236, "trialdata": {"rt": -1, "trial_type": "single-stim", "word": "pigment", "stimulus": "<p id=\"stim\">PIGMENT</p>", "conditions": [24, 1600, "v", 24000], "internal_node_id": "0.0-173.0", "trial": 6, "time_elapsed": 1286473, "serialpos": 23, "key_press": -1, "wordID": 1065, "type": "PRES_VIS", "trial_index": 236}, "uniqueid": "MTK3466:3QFUFYSY9ZMCCWI3VH5RB5XMXGM4FZ", "dateTime": 1520614674802}, {"current_trial": 237, "trialdata": {"rt": -1, "trial_type": "single-stim", "stimulus": "", "internal_node_id": "0.0-174.0-0.0", "time_elapsed": 1288763, "key_press": -1, "type": "PRE_RECALL_DELAY", "trial_index": 237}, "uniqueid": "MTK3466:3QFUFYSY9ZMCCWI3VH5RB5XMXGM4FZ", "dateTime": 1520614677092}, {"current_trial": 238, "trialdata": {"rt": -1000, "trial_type": "single-audio", "stimulus": "/static/audio/400Hz.wav", "internal_node_id": "0.0-175.0", "time_elapsed": 1289273, "key_press": -1, "type": "PRE_RECALL_ALERT", "trial_index": 238}, "uniqueid": "MTK3466:3QFUFYSY9ZMCCWI3VH5RB5XMXGM4FZ", "dateTime": 1520614677602}, {"current_trial": 239, "trialdata": {"rt": [4600, 7350, 9805, 11858, 13760, 16101, 17531, 19566, 21206, 22958, 24893, 28528, 30918, 35071, 37741, 40850, 43652, 51202, 55590], "recwords": ["pigment", "cowboy", "country", "turtle", "brick", "boyfrind", "lady", "venus", "ankle", "japan", "woman", "curtain", "liver", "mister", "spool", "lettuce", "dorm", "japan", "boyfriend"], "key_times": [3333, 3538, 3708, 3933, 4038, 4120, 4215, 4600, 4918, 5068, 5670, 6075, 6135, 6403, 7350, 8175, 8650, 8818, 8975, 9018, 9198, 9358, 9805, 10725, 10853, 10990, 11365, 11503, 11603, 11858, 12178, 12368, 12508, 12785, 12888, 13760, 14440, 14533, 14753, 15118, 15276, 15391, 15746, 15868, 16101, 16376, 16463, 16833, 16983, 17531, 18623, 18788, 18936, 19143, 19343, 19566, 19926, 20056, 20578, 20836, 20993, 21206, 21776, 21908, 22008, 22126, 22543, 22958, 23701, 23781, 23926, 24078, 24186, 24893, 26103, 26203, 26378, 26561, 26676, 26813, 27648, 27938, 28051, 28528, 29998, 30181, 30288, 30443, 30503, 30918, 33113, 33271, 33713, 33893, 34296, 34426, 34543, 34648, 34856, 34923, 35071, 36183, 36321, 36626, 37036, 37268, 37741, 38611, 38723, 38893, 39593, 39736, 40066, 40258, 40850, 42222, 42612, 42705, 42850, 43007, 43207, 43652, 49155, 49842, 50325, 50442, 50530, 50645, 50802, 51202, 53567, 53717, 53985, 54232, 54455, 54860, 55152, 55247, 55365, 55590, 59325, 59560, 59762], "trial_type": "free-recall", "conditions": [24, 1600, "v", 24000], "internal_node_id": "0.0-176.0-0.0", "key_presses": [80, 73, 71, 77, 69, 78, 84, 13, 67, 79, 87, 66, 79, 89, 13, 67, 79, 85, 78, 84, 82, 89, 13, 84, 85, 82, 84, 76, 69, 13, 66, 82, 73, 67, 75, 13, 66, 79, 89, 70, 82, 73, 78, 68, 13, 76, 65, 68, 89, 13, 86, 69, 78, 85, 83, 13, 65, 78, 75, 76, 69, 13, 74, 65, 80, 65, 78, 13, 87, 79, 77, 65, 78, 13, 67, 85, 82, 84, 65, 78, 8, 73, 78, 13, 76, 73, 86, 69, 82, 13, 84, 73, 8, 8, 77, 73, 83, 84, 69, 82, 13, 83, 80, 79, 79, 76, 13, 76, 69, 84, 84, 85, 67, 69, 13, 70, 8, 68, 79, 82, 77, 13, 76, 8, 74, 65, 80, 65, 78, 13, 66, 79, 89, 70, 82, 73, 69, 78, 68, 13, 75, 73, 68], "trial": 6, "time_elapsed": 1349283, "type": "FREE_RECALL", "trial_index": 239}, "uniqueid": "MTK3466:3QFUFYSY9ZMCCWI3VH5RB5XMXGM4FZ", "dateTime": 1520614737612}, {"current_trial": 240, "trialdata": {"rt": 1550, "trial_type":