{"assignmentId": "3VJ40NV2QJUQZUAM9LPP67IS4AOTON", "workerId": "MTK3007", "questiondata": {"origin": "Chile", "strat-rehearsal": "20", "marital": "Single", "education": "Bachelor's degree", "ethnicity": "Hispanic", "color_depth": 24, "distracted": "No", "wrote-notes": "Yes", "strat-other": "I tried to make  story with the words ", "screen_width": 1280, "avail_screen_width": 1280, "avail_screen_height": 680, "strat-image": "30", "language": "Spanish", "gender": "Female", "age": "25", "gender_other": "", "race": ["Other"], "strat-categorize": "50", "pixel_depth": 24, "strat-spatial": "20", "strat-story": "90", "race_other": "", "screen_height": 720}, "bonus": 0, "hitId": "3R5LWXWHR0F71E4E0A8C1HYC57UGXT", "counterbalance": 721, "useragent": "Mozilla/5.0 (Windows NT 10.0; Win64; x64) AppleWebKit/537.36 (KHTML, like Gecko) Chrome/63.0.3239.132 Safari/537.36", "eventdata": [{"eventtype": "initialized", "interval": 0, "value": null, "timestamp": 1519667068014}, {"eventtype": "window_resize", "interval": 0, "value": [1283, 672], "timestamp": 1519667068014}, {"eventtype": "focus", "interval": 3811, "value": "off", "timestamp": 1519667071825}, {"eventtype": "focus", "interval": 5471, "value": "on", "timestamp": 1519667077296}, {"eventtype": "window_resize", "interval": 1146, "value": [1280, 630], "timestamp": 1519667078442}, {"eventtype": "focus", "interval": 2038732, "value": "off", "timestamp": 1519669117174}, {"eventtype": "focus", "interval": 8608, "value": "on", "timestamp": 1519669125782}, {"eventtype": "window_resize", "interval": 554867, "value": [1283, 672], "timestamp": 1519669680649}, {"eventtype": "window_resize", "interval": 109087, "value": [1280, 630], "timestamp": 1519669789736}, {"eventtype": "focus", "interval": 898, "value": "off", "timestamp": 1519669790634}, {"eventtype": "focus", "interval": 21328, "value": "on", "timestamp": 1519669811962}, {"eventtype": "focus", "interval": 100769, "value": "off", "timestamp": 1519669912731}, {"eventtype": "focus", "interval": 13662, "value": "on", "timestamp": 1519669926393}, {"eventtype": "focus", "interval": 2994, "value": "off", "timestamp": 1519669929387}, {"eventtype": "focus", "interval": 26072, "value": "on", "timestamp": 1519669955459}, {"eventtype": "focus", "interval": 399164, "value": "off", "timestamp": 1519670354623}, {"eventtype": "focus", "interval": 3550, "value": "on", "timestamp": 1519670358173}, {"eventtype": "focus", "interval": 159927, "value": "off", "timestamp": 1519670518100}, {"eventtype": "focus", "interval": 2725, "value": "on", "timestamp": 1519670520825}], "data": [{"current_trial": 0, "trialdata": {"rt": 11079, "trial_type": "text", "internal_node_id": "0.0-0.0", "time_elapsed": 11082, "key_press": 13, "type": "INSTRUCTIONS", "trial_index": 0}, "uniqueid": "MTK3007:3VJ40NV2QJUQZUAM9LPP67IS4AOTON", "dateTime": 1519667079857}, {"current_trial": 1, "trialdata": {"rt": 21401, "trial_type": "text", "internal_node_id": "0.0-1.0", "time_elapsed": 32485, "key_press": 13, "type": "INSTRUCTIONS", "trial_index": 1}, "uniqueid": "MTK3007:3VJ40NV2QJUQZUAM9LPP67IS4AOTON", "dateTime": 1519667101259}, {"current_trial": 2, "trialdata": {"rt": [6948], "trial_type": "audio-test", "responses": ["ocean"], "internal_node_id": "0.0-2.0", "time_elapsed": 39444, "type": "AUDIO_TEST", "trial_index": 2}, "uniqueid": "MTK3007:3VJ40NV2QJUQZUAM9LPP67IS4AOTON", "dateTime": 1519667108218}, {"current_trial": 3, "trialdata": {"rt": [8718], "trial_type": "audio-test", "responses": ["crystal"], "internal_node_id": "0.0-3.0", "time_elapsed": 48166, "type": "AUDIO_TEST", "trial_index": 3}, "uniqueid": "MTK3007:3VJ40NV2QJUQZUAM9LPP67IS4AOTON", "dateTime": 1519667116940}, {"current_trial": 4, "trialdata": {"rt": [5926], "trial_type": "audio-test", "responses": ["spice"], "internal_node_id": "0.0-4.0", "time_elapsed": 54095, "type": "AUDIO_TEST", "trial_index": 4}, "uniqueid": "MTK3007:3VJ40NV2QJUQZUAM9LPP67IS4AOTON", "dateTime": 1519667122869}, {"current_trial": 5, "trialdata": {"rt": 44844, "trial_type": "survey-text", "responses": "{\"Q0\":\"11:00pm\",\"Q1\":\"8:00am\",\"Q2\":\"4\"}", "internal_node_id": "0.0-5.0", "time_elapsed": 99692, "type": "SLEEP_SURVEY", "trial_index": 5}, "uniqueid": "MTK3007:3VJ40NV2QJUQZUAM9LPP67IS4AOTON", "dateTime": 1519667168466}, {"current_trial": 6, "trialdata": {"rt": 56280, "trial_type": "text", "internal_node_id": "0.0-6.0", "time_elapsed": 156974, "key_press": 13, "type": "INSTRUCTIONS", "trial_index": 6}, "uniqueid": "MTK3007:3VJ40NV2QJUQZUAM9LPP67IS4AOTON", "dateTime": 1519667225748}, {"current_trial": 7, "trialdata": {"rt": 22137, "trial_type": "text", "internal_node_id": "0.0-7.0", "time_elapsed": 179613, "key_press": 13, "type": "INSTRUCTIONS", "trial_index": 7}, "uniqueid": "MTK3007:3VJ40NV2QJUQZUAM9LPP67IS4AOTON", "dateTime": 1519667248387}, {"current_trial": 8, "trialdata": {"rt": 17931, "trial_type": "text", "internal_node_id": "0.0-8.0", "time_elapsed": 198045, "key_press": 13, "type": "INSTRUCTIONS", "trial_index": 8}, "uniqueid": "MTK3007:3VJ40NV2QJUQZUAM9LPP67IS4AOTON", "dateTime": 1519667266819}, {"current_trial": 9, "trialdata": {"rt": [16539], "trial_type": "math-distractor", "key_times": [2948, 3209, 9370, 9906, 15946, 16219, 16539], "responses": ["12"], "num2": [3, 1], "num3": [3, 3], "conditions": [18, 1200, "v", 18000], "internal_node_id": "0.0-9.0", "key_presses": [49, 50, 8, 49, 8, 50, 13], "trial": 0, "time_elapsed": 217050, "type": "DISTRACTOR", "trial_index": 9, "num1": [6, 1]}, "uniqueid": "MTK3007:3VJ40NV2QJUQZUAM9LPP67IS4AOTON", "dateTime": 1519667285824}, {"current_trial": 10, "trialdata": {"rt": -1, "trial_type": "single-stim", "stimulus": "<p id=\"stim\">10</p>", "internal_node_id": "0.0-10.0-0.0", "time_elapsed": 220053, "key_press": -1, "trial_index": 10}, "uniqueid": "MTK3007:3VJ40NV2QJUQZUAM9LPP67IS4AOTON", "dateTime": 1519667288828}, {"current_trial": 11, "trialdata": {"rt": -1, "trial_type": "single-stim", "stimulus": "<p id=\"stim\">9</p>", "internal_node_id": "0.0-10.0-1.0", "time_elapsed": 221054, "key_press": -1, "trial_index": 11}, "uniqueid": "MTK3007:3VJ40NV2QJUQZUAM9LPP67IS4AOTON", "dateTime": 1519667289828}, {"current_trial": 12, "trialdata": {"rt": -1, "trial_type": "single-stim", "stimulus": "<p id=\"stim\">8</p>", "internal_node_id": "0.0-10.0-2.0", "time_elapsed": 222056, "key_press": -1, "trial_index": 12}, "uniqueid": "MTK3007:3VJ40NV2QJUQZUAM9LPP67IS4AOTON", "dateTime": 1519667290830}, {"current_trial": 13, "trialdata": {"rt": -1, "trial_type": "single-stim", "stimulus": "<p id=\"stim\">7</p>", "internal_node_id": "0.0-10.0-3.0", "time_elapsed": 223058, "key_press": -1, "trial_index": 13}, "uniqueid": "MTK3007:3VJ40NV2QJUQZUAM9LPP67IS4AOTON", "dateTime": 1519667291832}, {"current_trial": 14, "trialdata": {"rt": -1, "trial_type": "single-stim", "stimulus": "<p id=\"stim\">6</p>", "internal_node_id": "0.0-10.0-4.0", "time_elapsed": 224060, "key_press": -1, "trial_index": 14}, "uniqueid": "MTK3007:3VJ40NV2QJUQZUAM9LPP67IS4AOTON", "dateTime": 1519667292834}, {"current_trial": 15, "trialdata": {"rt": -1, "trial_type": "single-stim", "stimulus": "<p id=\"stim\">5</p>", "internal_node_id": "0.0-10.0-5.0", "time_elapsed": 225062, "key_press": -1, "trial_index": 15}, "uniqueid": "MTK3007:3VJ40NV2QJUQZUAM9LPP67IS4AOTON", "dateTime": 1519667293837}, {"current_trial": 16, "trialdata": {"rt": -1, "trial_type": "single-stim", "stimulus": "<p id=\"stim\">4</p>", "internal_node_id": "0.0-10.0-6.0", "time_elapsed": 226064, "key_press": -1, "trial_index": 16}, "uniqueid": "MTK3007:3VJ40NV2QJUQZUAM9LPP67IS4AOTON", "dateTime": 1519667294838}, {"current_trial": 17, "trialdata": {"rt": -1, "trial_type": "single-stim", "stimulus": "<p id=\"stim\">3</p>", "internal_node_id": "0.0-10.0-7.0", "time_elapsed": 227066, "key_press": -1, "trial_index": 17}, "uniqueid": "MTK3007:3VJ40NV2QJUQZUAM9LPP67IS4AOTON", "dateTime": 1519667295840}, {"current_trial": 18, "trialdata": {"rt": -1, "trial_type": "single-stim", "stimulus": "<p id=\"stim\">2</p>", "internal_node_id": "0.0-10.0-8.0", "time_elapsed": 228068, "key_press": -1, "trial_index": 18}, "uniqueid": "MTK3007:3VJ40NV2QJUQZUAM9LPP67IS4AOTON", "dateTime": 1519667296843}, {"current_trial": 19, "trialdata": {"rt": -1, "trial_type": "single-stim", "stimulus": "<p id=\"stim\">1</p>", "internal_node_id": "0.0-10.0-9.0", "time_elapsed": 229070, "key_press": -1, "trial_index": 19}, "uniqueid": "MTK3007:3VJ40NV2QJUQZUAM9LPP67IS4AOTON", "dateTime": 1519667297844}, {"current_trial": 20, "trialdata": {"rt": -1, "trial_type": "single-stim", "stimulus": "<p id=\"stim\">+</p>", "internal_node_id": "0.0-11.0-0.0", "time_elapsed": 230572, "key_press": -1, "type": "FIXATION", "trial_index": 20}, "uniqueid": "MTK3007:3VJ40NV2QJUQZUAM9LPP67IS4AOTON", "dateTime": 1519667299346}, {"current_trial": 21, "trialdata": {"rt": -1, "trial_type": "single-stim", "word": "rifle", "stimulus": "<p id=\"stim\">RIFLE</p>", "conditions": [18, 1200, "v", 18000], "internal_node_id": "0.0-12.0", "trial": 0, "time_elapsed": 231773, "serialpos": 0, "key_press": -1, "wordID": 1191, "type": "PRES_VIS", "trial_index": 21}, "uniqueid": "MTK3007:3VJ40NV2QJUQZUAM9LPP67IS4AOTON", "dateTime": 1519667300548}, {"current_trial": 22, "trialdata": {"rt": -1, "trial_type": "single-stim", "word": "suspect", "stimulus": "<p id=\"stim\">SUSPECT</p>", "conditions": [18, 1200, "v", 18000], "internal_node_id": "0.0-13.0", "trial": 0, "time_elapsed": 233897, "serialpos": 1, "key_press": -1, "wordID": 1414, "type": "PRES_VIS", "trial_index": 22}, "uniqueid": "MTK3007:3VJ40NV2QJUQZUAM9LPP67IS4AOTON", "dateTime": 1519667302671}, {"current_trial": 23, "trialdata": {"rt": -1, "trial_type": "single-stim", "word": "iceberg", "stimulus": "<p id=\"stim\">ICEBERG</p>", "conditions": [18, 1200, "v", 18000], "internal_node_id": "0.0-14.0", "trial": 0, "time_elapsed": 236182, "serialpos": 2, "key_press": -1, "wordID": 730, "type": "PRES_VIS", "trial_index": 23}, "uniqueid": "MTK3007:3VJ40NV2QJUQZUAM9LPP67IS4AOTON", "dateTime": 1519667304956}, {"current_trial": 24, "trialdata": {"rt": -1, "trial_type": "single-stim", "word": "basement", "stimulus": "<p id=\"stim\">BASEMENT</p>", "conditions": [18, 1200, "v", 18000], "internal_node_id": "0.0-15.0", "trial": 0, "time_elapsed": 238389, "serialpos": 3, "key_press": -1, "wordID": 93, "type": "PRES_VIS", "trial_index": 24}, "uniqueid": "MTK3007:3VJ40NV2QJUQZUAM9LPP67IS4AOTON", "dateTime": 1519667307163}, {"current_trial": 25, "trialdata": {"rt": -1, "trial_type": "single-stim", "word": "mildew", "stimulus": "<p id=\"stim\">MILDEW</p>", "conditions": [18, 1200, "v", 18000], "internal_node_id": "0.0-16.0", "trial": 0, "time_elapsed": 240587, "serialpos": 4, "key_press": -1, "wordID": 892, "type": "PRES_VIS", "trial_index": 25}, "uniqueid": "MTK3007:3VJ40NV2QJUQZUAM9LPP67IS4AOTON", "dateTime": 1519667309362}, {"current_trial": 26, "trialdata": {"rt": -1, "trial_type": "single-stim", "word": "daughter", "stimulus": "<p id=\"stim\">DAUGHTER</p>", "conditions": [18, 1200, "v", 18000], "internal_node_id": "0.0-17.0", "trial": 0, "time_elapsed": 242707, "serialpos": 5, "key_press": -1, "wordID": 441, "type": "PRES_VIS", "trial_index": 26}, "uniqueid": "MTK3007:3VJ40NV2QJUQZUAM9LPP67IS4AOTON", "dateTime": 1519667311481}, {"current_trial": 27, "trialdata": {"rt": -1, "trial_type": "single-stim", "word": "custard", "stimulus": "<p id=\"stim\">CUSTARD</p>", "conditions": [18, 1200, "v", 18000], "internal_node_id": "0.0-18.0", "trial": 0, "time_elapsed": 245061, "serialpos": 6, "key_press": -1, "wordID": 428, "type": "PRES_VIS", "trial_index": 27}, "uniqueid": "MTK3007:3VJ40NV2QJUQZUAM9LPP67IS4AOTON", "dateTime": 1519667313835}, {"current_trial": 28, "trialdata": {"rt": -1, "trial_type": "single-stim", "word": "garden", "stimulus": "<p id=\"stim\">GARDEN</p>", "conditions": [18, 1200, "v", 18000], "internal_node_id": "0.0-19.0", "trial": 0, "time_elapsed": 247417, "serialpos": 7, "key_press": -1, "wordID": 622, "type": "PRES_VIS", "trial_index": 28}, "uniqueid": "MTK3007:3VJ40NV2QJUQZUAM9LPP67IS4AOTON", "dateTime": 1519667316191}, {"current_trial": 29, "trialdata": {"rt": -1, "trial_type": "single-stim", "word": "garlic", "stimulus": "<p id=\"stim\">GARLIC</p>", "conditions": [18, 1200, "v", 18000], "internal_node_id": "0.0-20.0", "trial": 0, "time_elapsed": 249736, "serialpos": 8, "key_press": -1, "wordID": 623, "type": "PRES_VIS", "trial_index": 29}, "uniqueid": "MTK3007:3VJ40NV2QJUQZUAM9LPP67IS4AOTON", "dateTime": 1519667318511}, {"current_trial": 30, "trialdata": {"rt": -1, "trial_type": "single-stim", "word": "maple", "stimulus": "<p id=\"stim\">MAPLE</p>", "conditions": [18, 1200, "v", 18000], "internal_node_id": "0.0-21.0", "trial": 0, "time_elapsed": 251763, "serialpos": 9, "key_press": -1, "wordID": 865, "type": "PRES_VIS", "trial_index": 30}, "uniqueid": "MTK3007:3VJ40NV2QJUQZUAM9LPP67IS4AOTON", "dateTime": 1519667320537}, {"current_trial": 31, "trialdata": {"rt": -1, "trial_type": "single-stim", "word": "whiskers", "stimulus": "<p id=\"stim\">WHISKERS</p>", "conditions": [18, 1200, "v", 18000], "internal_node_id": "0.0-22.0", "trial": 0, "time_elapsed": 253818, "serialpos": 10, "key_press": -1, "wordID": 1604, "type": "PRES_VIS", "trial_index": 31}, "uniqueid": "MTK3007:3VJ40NV2QJUQZUAM9LPP67IS4AOTON", "dateTime": 1519667322592}, {"current_trial": 32, "trialdata": {"rt": -1, "trial_type": "single-stim", "word": "item", "stimulus": "<p id=\"stim\">ITEM</p>", "conditions": [18, 1200, "v", 18000], "internal_node_id": "0.0-23.0", "trial": 0, "time_elapsed": 256041, "serialpos": 11, "key_press": -1, "wordID": 745, "type": "PRES_VIS", "trial_index": 32}, "uniqueid": "MTK3007:3VJ40NV2QJUQZUAM9LPP67IS4AOTON", "dateTime": 1519667324815}, {"current_trial": 33, "trialdata": {"rt": -1, "trial_type": "single-stim", "word": "preacher", "stimulus": "<p id=\"stim\">PREACHER</p>", "conditions": [18, 1200, "v", 18000], "internal_node_id": "0.0-24.0", "trial": 0, "time_elapsed": 258325, "serialpos": 12, "key_press": -1, "wordID": 1118, "type": "PRES_VIS", "trial_index": 33}, "uniqueid": "MTK3007:3VJ40NV2QJUQZUAM9LPP67IS4AOTON", "dateTime": 1519667327100}, {"current_trial": 34, "trialdata": {"rt": -1, "trial_type": "single-stim", "word": "leg", "stimulus": "<p id=\"stim\">LEG</p>", "conditions": [18, 1200, "v", 18000], "internal_node_id": "0.0-25.0", "trial": 0, "time_elapsed": 260437, "serialpos": 13, "key_press": -1, "wordID": 808, "type": "PRES_VIS", "trial_index": 34}, "uniqueid": "MTK3007:3VJ40NV2QJUQZUAM9LPP67IS4AOTON", "dateTime": 1519667329211}, {"current_trial": 35, "trialdata": {"rt": -1, "trial_type": "single-stim", "word": "fruit", "stimulus": "<p id=\"stim\">FRUIT</p>", "conditions": [18, 1200, "v", 18000], "internal_node_id": "0.0-26.0", "trial": 0, "time_elapsed": 262826, "serialpos": 14, "key_press": -1, "wordID": 609, "type": "PRES_VIS", "trial_index": 35}, "uniqueid": "MTK3007:3VJ40NV2QJUQZUAM9LPP67IS4AOTON", "dateTime": 1519667331600}, {"current_trial": 36, "trialdata": {"rt": -1, "trial_type": "single-stim", "word": "trench", "stimulus": "<p id=\"stim\">TRENCH</p>", "conditions": [18, 1200, "v", 18000], "internal_node_id": "0.0-27.0", "trial": 0, "time_elapsed": 265136, "serialpos": 15, "key_press": -1, "wordID": 1502, "type": "PRES_VIS", "trial_index": 36}, "uniqueid": "MTK3007:3VJ40NV2QJUQZUAM9LPP67IS4AOTON", "dateTime": 1519667333910}, {"current_trial": 37, "trialdata": {"rt": -1, "trial_type": "single-stim", "word": "robber", "stimulus": "<p id=\"stim\">ROBBER</p>", "conditions": [18, 1200, "v", 18000], "internal_node_id": "0.0-28.0", "trial": 0, "time_elapsed": 267511, "serialpos": 16, "key_press": -1, "wordID": 1196, "type": "PRES_VIS", "trial_index": 37}, "uniqueid": "MTK3007:3VJ40NV2QJUQZUAM9LPP67IS4AOTON", "dateTime": 1519667336285}, {"current_trial": 38, "trialdata": {"rt": -1, "trial_type": "single-stim", "word": "laser", "stimulus": "<p id=\"stim\">LASER</p>", "conditions": [18, 1200, "v", 18000], "internal_node_id": "0.0-29.0", "trial": 0, "time_elapsed": 269847, "serialpos": 17, "key_press": -1, "wordID": 800, "type": "PRES_VIS", "trial_index": 38}, "uniqueid": "MTK3007:3VJ40NV2QJUQZUAM9LPP67IS4AOTON", "dateTime": 1519667338622}, {"current_trial": 39, "trialdata": {"rt": -1, "trial_type": "single-stim", "stimulus": "", "internal_node_id": "0.0-30.0-0.0", "time_elapsed": 272147, "key_press": -1, "type": "PRE_RECALL_DELAY", "trial_index": 39}, "uniqueid": "MTK3007:3VJ40NV2QJUQZUAM9LPP67IS4AOTON", "dateTime": 1519667340921}, {"current_trial": 40, "trialdata": {"rt": -1000, "trial_type": "single-audio", "stimulus": "/static/audio/400Hz.wav", "internal_node_id": "0.0-31.0", "time_elapsed": 272650, "key_press": -1, "type": "PRE_RECALL_ALERT", "trial_index": 40}, "uniqueid": "MTK3007:3VJ40NV2QJUQZUAM9LPP67IS4AOTON", "dateTime": 1519667341424}, {"current_trial": 41, "trialdata": {"rt": [3172, 5326, 7513, 9380, 12552, 14591, 16114, 17975, 20148, 26734, 32452, 35222, 48897, 56476], "recwords": ["robber", "suspect", "daughter", "iceberg", "basement", "rifle", "laser", "garden", "garlic", "maple", "whiskers", "preacher", "fruit", "trench"], "key_times": [1991, 2104, 2373, 2510, 2639, 2752, 3172, 4049, 4217, 4334, 4536, 4667, 4860, 4985, 5326, 6030, 6242, 6390, 6558, 6649, 6870, 6947, 7098, 7513, 8006, 8160, 8329, 8469, 8571, 8723, 8828, 9380, 10329, 10439, 10786, 10955, 11380, 11520, 11656, 11819, 11958, 12092, 12193, 12323, 12552, 13160, 13323, 13551, 13819, 13968, 14093, 14238, 14591, 15273, 15380, 15580, 15743, 15898, 16114, 16924, 17028, 17240, 17422, 17574, 17673, 17975, 18520, 18777, 19012, 19502, 19695, 19788, 20148, 22040, 22695, 25802, 25902, 26058, 26224, 26319, 26734, 27955, 28361, 28502, 28629, 29247, 29449, 29997, 30314, 30503, 30581, 30762, 30881, 31036, 31223, 32452, 33733, 33871, 34017, 34216, 34445, 34530, 34645, 34803, 35222, 47849, 48032, 48168, 48321, 48427, 48897, 55101, 55261, 55427, 55544, 55726, 55829, 56476], "trial_type": "free-recall", "conditions": [18, 1200, "v", 18000], "internal_node_id": "0.0-32.0-0.0", "key_presses": [82, 79, 66, 66, 69, 82, 13, 83, 85, 83, 80, 69, 67, 84, 13, 68, 65, 85, 71, 72, 84, 69, 82, 13, 73, 67, 69, 66, 69, 82, 71, 13, 66, 65, 69, 77, 8, 8, 83, 69, 77, 69, 78, 84, 13, 82, 73, 68, 8, 70, 76, 69, 13, 76, 65, 83, 69, 82, 13, 71, 65, 82, 68, 69, 78, 13, 71, 65, 82, 76, 73, 67, 13, 84, 8, 77, 65, 80, 76, 69, 13, 87, 73, 83, 80, 8, 8, 8, 72, 73, 83, 75, 69, 82, 83, 13, 80, 82, 69, 65, 67, 72, 69, 82, 13, 70, 82, 85, 73, 84, 13, 84, 82, 69, 78, 67, 72, 13], "trial": 0, "time_elapsed": 332653, "type": "FREE_RECALL", "trial_index": 41}, "uniqueid": "MTK3007:3VJ40NV2QJUQZUAM9LPP67IS4AOTON", "dateTime": 1519667401430}, {"current_trial": 42, "trialdata": {"rt": 2393, "trial_type": "text", "internal_node_id": "0.0-33.0", "time_elapsed": 337051, "key_press": 13, "type": "INSTRUCTIONS", "trial_index": 42}, "uniqueid": "MTK3007:3VJ40NV2QJUQZUAM9LPP67IS4AOTON", "dateTime": 1519667405825}, {"current_trial": 43, "trialdata": {"rt": [4165, 7092, 14512], "trial_type": "math-distractor", "key_times": [3237, 3462, 4165, 6362, 7092, 12705, 12922, 13811, 14213, 14512, 17724, 17946], "responses": ["11", "7", "15"], "num2": [6, 4, 3, 5], "num3": [2, 1, 8, 7], "conditions": [18, 1200, "v", 18000], "internal_node_id": "0.0-34.0", "key_presses": [49, 49, 13, 55, 13, 49, 54, 8, 53, 13, 50, 49], "trial": 1, "time_elapsed": 357056, "type": "DISTRACTOR", "trial_index": 43, "num1": [3, 2, 3, 9]}, "uniqueid": "MTK3007:3VJ40NV2QJUQZUAM9LPP67IS4AOTON", "dateTime": 1519667425830}, {"current_trial": 44, "trialdata": {"rt": -1, "trial_type": "single-stim", "stimulus": "<p id=\"stim\">10</p>", "internal_node_id": "0.0-35.0-0.0", "time_elapsed": 360058, "key_press": -1, "trial_index": 44}, "uniqueid": "MTK3007:3VJ40NV2QJUQZUAM9LPP67IS4AOTON", "dateTime": 1519667428832}, {"current_trial": 45, "trialdata": {"rt": -1, "trial_type": "single-stim", "stimulus": "<p id=\"stim\">9</p>", "internal_node_id": "0.0-35.0-1.0", "time_elapsed": 361060, "key_press": -1, "trial_index": 45}, "uniqueid": "MTK3007:3VJ40NV2QJUQZUAM9LPP67IS4AOTON", "dateTime": 1519667429834}, {"current_trial": 46, "trialdata": {"rt": -1, "trial_type": "single-stim", "stimulus": "<p id=\"stim\">8</p>", "internal_node_id": "0.0-35.0-2.0", "time_elapsed": 362061, "key_press": -1, "trial_index": 46}, "uniqueid": "MTK3007:3VJ40NV2QJUQZUAM9LPP67IS4AOTON", "dateTime": 1519667430835}, {"current_trial": 47, "trialdata": {"rt": -1, "trial_type": "single-stim", "stimulus": "<p id=\"stim\">7</p>", "internal_node_id": "0.0-35.0-3.0", "time_elapsed": 363063, "key_press": -1, "trial_index": 47}, "uniqueid": "MTK3007:3VJ40NV2QJUQZUAM9LPP67IS4AOTON", "dateTime": 1519667431838}, {"current_trial": 48, "trialdata": {"rt": -1, "trial_type": "single-stim", "stimulus": "<p id=\"stim\">6</p>", "internal_node_id": "0.0-35.0-4.0", "time_elapsed": 364065, "key_press": -1, "trial_index": 48}, "uniqueid": "MTK3007:3VJ40NV2QJUQZUAM9LPP67IS4AOTON", "dateTime": 1519667432839}, {"current_trial": 49, "trialdata": {"rt": -1, "trial_type": "single-stim", "stimulus": "<p id=\"stim\">5</p>", "internal_node_id": "0.0-35.0-5.0", "time_elapsed": 365066, "key_press": -1, "trial_index": 49}, "uniqueid": "MTK3007:3VJ40NV2QJUQZUAM9LPP67IS4AOTON", "dateTime": 1519667433840}, {"current_trial": 50, "trialdata": {"rt": -1, "trial_type": "single-stim", "stimulus": "<p id=\"stim\">4</p>", "internal_node_id": "0.0-35.0-6.0", "time_elapsed": 366067, "key_press": -1, "trial_index": 50}, "uniqueid": "MTK3007:3VJ40NV2QJUQZUAM9LPP67IS4AOTON", "dateTime": 1519667434841}, {"current_trial": 51, "trialdata": {"rt": -1, "trial_type": "single-stim", "stimulus": "<p id=\"stim\">3</p>", "internal_node_id": "0.0-35.0-7.0", "time_elapsed": 367070, "key_press": -1, "trial_index": 51}, "uniqueid": "MTK3007:3VJ40NV2QJUQZUAM9LPP67IS4AOTON", "dateTime": 1519667435844}, {"current_trial": 52, "trialdata": {"rt": -1, "trial_type": "single-stim", "stimulus": "<p id=\"stim\">2</p>", "internal_node_id": "0.0-35.0-8.0", "time_elapsed": 368071, "key_press": -1, "trial_index": 52}, "uniqueid": "MTK3007:3VJ40NV2QJUQZUAM9LPP67IS4AOTON", "dateTime": 1519667436845}, {"current_trial": 53, "trialdata": {"rt": -1, "trial_type": "single-stim", "stimulus": "<p id=\"stim\">1</p>", "internal_node_id": "0.0-35.0-9.0", "time_elapsed": 369073, "key_press": -1, "trial_index": 53}, "uniqueid": "MTK3007:3VJ40NV2QJUQZUAM9LPP67IS4AOTON", "dateTime": 1519667437847}, {"current_trial": 54, "trialdata": {"rt": -1, "trial_type": "single-stim", "stimulus": "<p id=\"stim\">+</p>", "internal_node_id": "0.0-36.0-0.0", "time_elapsed": 370574, "key_press": -1, "type": "FIXATION", "trial_index": 54}, "uniqueid": "MTK3007:3VJ40NV2QJUQZUAM9LPP67IS4AOTON", "dateTime": 1519667439348}, {"current_trial": 55, "trialdata": {"rt": -1, "trial_type": "single-stim", "word": "lodge", "stimulus": "<p id=\"stim\">LODGE</p>", "conditions": [18, 1200, "v", 18000], "internal_node_id": "0.0-37.0", "trial": 1, "time_elapsed": 371776, "serialpos": 0, "key_press": -1, "wordID": 838, "type": "PRES_VIS", "trial_index": 55}, "uniqueid": "MTK3007:3VJ40NV2QJUQZUAM9LPP67IS4AOTON", "dateTime": 1519667440550}, {"current_trial": 56, "trialdata": {"rt": -1, "trial_type": "single-stim", "word": "shirt", "stimulus": "<p id=\"stim\">SHIRT</p>", "conditions": [18, 1200, "v", 18000], "internal_node_id": "0.0-38.0", "trial": 1, "time_elapsed": 374155, "serialpos": 1, "key_press": -1, "wordID": 1286, "type": "PRES_VIS", "trial_index": 56}, "uniqueid": "MTK3007:3VJ40NV2QJUQZUAM9LPP67IS4AOTON", "dateTime": 1519667442930}, {"current_trial": 57, "trialdata": {"rt": -1, "trial_type": "single-stim", "word": "actor", "stimulus": "<p id=\"stim\">ACTOR</p>", "conditions": [18, 1200, "v", 18000], "internal_node_id": "0.0-39.0", "trial": 1, "time_elapsed": 376502, "serialpos": 2, "key_press": -1, "wordID": 4, "type": "PRES_VIS", "trial_index": 57}, "uniqueid": "MTK3007:3VJ40NV2QJUQZUAM9LPP67IS4AOTON", "dateTime": 1519667445276}, {"current_trial": 58, "trialdata": {"rt": -1, "trial_type": "single-stim", "word": "cook", "stimulus": "<p id=\"stim\">COOK</p>", "conditions": [18, 1200, "v", 18000], "internal_node_id": "0.0-40.0", "trial": 1, "time_elapsed": 378716, "serialpos": 3, "key_press": -1, "wordID": 371, "type": "PRES_VIS", "trial_index": 58}, "uniqueid": "MTK3007:3VJ40NV2QJUQZUAM9LPP67IS4AOTON", "dateTime": 1519667447490}, {"current_trial": 59, "trialdata": {"rt": -1, "trial_type": "single-stim", "word": "banjo", "stimulus": "<p id=\"stim\">BANJO</p>", "conditions": [18, 1200, "v", 18000], "internal_node_id": "0.0-41.0", "trial": 1, "time_elapsed": 381091, "serialpos": 4, "key_press": -1, "wordID": 81, "type": "PRES_VIS", "trial_index": 59}, "uniqueid": "MTK3007:3VJ40NV2QJUQZUAM9LPP67IS4AOTON", "dateTime": 1519667449865}, {"current_trial": 60, "trialdata": {"rt": -1, "trial_type": "single-stim", "word": "globe", "stimulus": "<p id=\"stim\">GLOBE</p>", "conditions": [18, 1200, "v", 18000], "internal_node_id": "0.0-42.0", "trial": 1, "time_elapsed": 383168, "serialpos": 5, "key_press": -1, "wordID": 640, "type": "PRES_VIS", "trial_index": 60}, "uniqueid": "MTK3007:3VJ40NV2QJUQZUAM9LPP67IS4AOTON", "dateTime": 1519667451942}, {"current_trial": 61, "trialdata": {"rt": -1, "trial_type": "single-stim", "word": "pecan", "stimulus": "<p id=\"stim\">PECAN</p>", "conditions": [18, 1200, "v", 18000], "internal_node_id": "0.0-43.0", "trial": 1, "time_elapsed": 385505, "serialpos": 6, "key_press": -1, "wordID": 1035, "type": "PRES_VIS", "trial_index": 61}, "uniqueid": "MTK3007:3VJ40NV2QJUQZUAM9LPP67IS4AOTON", "dateTime": 1519667454280}, {"current_trial": 62, "trialdata": {"rt": -1, "trial_type": "single-stim", "word": "flag", "stimulus": "<p id=\"stim\">FLAG</p>", "conditions": [18, 1200, "v", 18000], "internal_node_id": "0.0-44.0", "trial": 1, "time_elapsed": 387791, "serialpos": 7, "key_press": -1, "wordID": 572, "type": "PRES_VIS", "trial_index": 62}, "uniqueid": "MTK3007:3VJ40NV2QJUQZUAM9LPP67IS4AOTON", "dateTime": 1519667456565}, {"current_trial": 63, "trialdata": {"rt": -1, "trial_type": "single-stim", "word": "plaid", "stimulus": "<p id=\"stim\">PLAID</p>", "conditions": [18, 1200, "v", 18000], "internal_node_id": "0.0-45.0", "trial": 1, "time_elapsed": 390124, "serialpos": 8, "key_press": -1, "wordID": 1079, "type": "PRES_VIS", "trial_index": 63}, "uniqueid": "MTK3007:3VJ40NV2QJUQZUAM9LPP67IS4AOTON", "dateTime": 1519667458898}, {"current_trial": 64, "trialdata": {"rt": -1, "trial_type": "single-stim", "word": "police", "stimulus": "<p id=\"stim\">POLICE</p>", "conditions": [18, 1200, "v", 18000], "internal_node_id": "0.0-46.0", "trial": 1, "time_elapsed": 392459, "serialpos": 9, "key_press": -1, "wordID": 1097, "type": "PRES_VIS", "trial_index": 64}, "uniqueid": "MTK3007:3VJ40NV2QJUQZUAM9LPP67IS4AOTON", "dateTime": 1519667461233}, {"current_trial": 65, "trialdata": {"rt": -1, "trial_type": "single-stim", "word": "turnip", "stimulus": "<p id=\"stim\">TURNIP</p>", "conditions": [18, 1200, "v", 18000], "internal_node_id": "0.0-47.0", "trial": 1, "time_elapsed": 394812, "serialpos": 10, "key_press": -1, "wordID": 1520, "type": "PRES_VIS", "trial_index": 65}, "uniqueid": "MTK3007:3VJ40NV2QJUQZUAM9LPP67IS4AOTON", "dateTime": 1519667463587}, {"current_trial": 66, "trialdata": {"rt": -1, "trial_type": "single-stim", "word": "judge", "stimulus": "<p id=\"stim\">JUDGE</p>", "conditions": [18, 1200, "v", 18000], "internal_node_id": "0.0-48.0", "trial": 1, "time_elapsed": 396833, "serialpos": 11, "key_press": -1, "wordID": 760, "type": "PRES_VIS", "trial_index": 66}, "uniqueid": "MTK3007:3VJ40NV2QJUQZUAM9LPP67IS4AOTON", "dateTime": 1519667465607}, {"current_trial": 67, "trialdata": {"rt": -1, "trial_type": "single-stim", "word": "bucket", "stimulus": "<p id=\"stim\">BUCKET</p>", "conditions": [18, 1200, "v", 18000], "internal_node_id": "0.0-49.0", "trial": 1, "time_elapsed": 399159, "serialpos": 12, "key_press": -1, "wordID": 183, "type": "PRES_VIS", "trial_index": 67}, "uniqueid": "MTK3007:3VJ40NV2QJUQZUAM9LPP67IS4AOTON", "dateTime": 1519667467933}, {"current_trial": 68, "trialdata": {"rt": -1, "trial_type": "single-stim", "word": "fleet", "stimulus": "<p id=\"stim\">FLEET</p>", "conditions": [18, 1200, "v", 18000], "internal_node_id": "0.0-50.0", "trial": 1, "time_elapsed": 401454, "serialpos": 13, "key_press": -1, "wordID": 577, "type": "PRES_VIS", "trial_index": 68}, "uniqueid": "MTK3007:3VJ40NV2QJUQZUAM9LPP67IS4AOTON", "dateTime": 1519667470228}, {"current_trial": 69, "trialdata": {"rt": -1, "trial_type": "single-stim", "word": "hostess", "stimulus": "<p id=\"stim\">HOSTESS</p>", "conditions": [18, 1200, "v", 18000], "internal_node_id": "0.0-51.0", "trial": 1, "time_elapsed": 403632, "serialpos": 14, "key_press": -1, "wordID": 722, "type": "PRES_VIS", "trial_index": 69}, "uniqueid": "MTK3007:3VJ40NV2QJUQZUAM9LPP67IS4AOTON", "dateTime": 1519667472406}, {"current_trial": 70, "trialdata": {"rt": -1, "trial_type": "single-stim", "word": "pasta", "stimulus": "<p id=\"stim\">PASTA</p>", "conditions": [18, 1200, "v", 18000], "internal_node_id": "0.0-52.0", "trial": 1, "time_elapsed": 405795, "serialpos": 15, "key_press": -1, "wordID": 1020, "type": "PRES_VIS", "trial_index": 70}, "uniqueid": "MTK3007:3VJ40NV2QJUQZUAM9LPP67IS4AOTON", "dateTime": 1519667474569}, {"current_trial": 71, "trialdata": {"rt": -1, "trial_type": "single-stim", "word": "snail", "stimulus": "<p id=\"stim\">SNAIL</p>", "conditions": [18, 1200, "v", 18000], "internal_node_id": "0.0-53.0", "trial": 1, "time_elapsed": 408147, "serialpos": 16, "key_press": -1, "wordID": 1331, "type": "PRES_VIS", "trial_index": 71}, "uniqueid": "MTK3007:3VJ40NV2QJUQZUAM9LPP67IS4AOTON", "dateTime": 1519667476921}, {"current_trial": 72, "trialdata": {"rt": -1, "trial_type": "single-stim", "word": "uncle", "stimulus": "<p id=\"stim\">UNCLE</p>", "conditions": [18, 1200, "v", 18000], "internal_node_id": "0.0-54.0", "trial": 1, "time_elapsed": 410469, "serialpos": 17, "key_press": -1, "wordID": 1535, "type": "PRES_VIS", "trial_index": 72}, "uniqueid": "MTK3007:3VJ40NV2QJUQZUAM9LPP67IS4AOTON", "dateTime": 1519667479243}, {"current_trial": 73, "trialdata": {"rt": -1, "trial_type": "single-stim", "stimulus": "", "internal_node_id": "0.0-55.0-0.0", "time_elapsed": 412639, "key_press": -1, "type": "PRE_RECALL_DELAY", "trial_index": 73}, "uniqueid": "MTK3007:3VJ40NV2QJUQZUAM9LPP67IS4AOTON", "dateTime": 1519667481413}, {"current_trial": 74, "trialdata": {"rt": -1000, "trial_type": "single-audio", "stimulus": "/static/audio/400Hz.wav", "internal_node_id": "0.0-56.0", "time_elapsed": 413141, "key_press": -1, "type": "PRE_RECALL_ALERT", "trial_index": 74}, "uniqueid": "MTK3007:3VJ40NV2QJUQZUAM9LPP67IS4AOTON", "dateTime": 1519667481915}, {"current_trial": 75, "trialdata": {"rt": [2480, 3760, 11063, 12959, 14440, 16819, 18490, 19790, 21107, 25459, 28011, 32887, 40141, 50753], "recwords": ["actor", "shirt", "hostess", "pasta", "snail", "flag", "plaid", "police", "fleet", "pecans", "global", "cook", "turnip", "banjo"], "key_times": [1329, 1602, 1826, 1960, 2059, 2480, 2960, 3143, 3318, 3421, 3571, 3760, 9618, 9816, 9917, 10134, 10251, 10491, 10656, 11063, 12239, 12349, 12518, 12655, 12745, 12959, 13296, 13401, 13550, 14046, 14234, 14440, 15437, 15549, 15689, 15875, 16819, 17435, 17613, 17718, 17854, 17982, 18490, 18939, 19118, 19288, 19468, 19517, 19698, 19790, 20211, 20402, 20538, 20688, 20826, 21107, 23118, 23305, 23939, 24335, 24671, 24829, 24971, 25106, 25459, 26292, 26416, 26576, 26848, 26961, 27420, 28011, 31954, 32128, 32273, 32448, 32887, 38516, 38684, 38786, 38961, 39157, 39351, 40141, 49959, 50043, 50182, 50357, 50533, 50753], "trial_type": "free-recall", "conditions": [18, 1200, "v", 18000], "internal_node_id": "0.0-57.0-0.0", "key_presses": [65, 67, 84, 79, 82, 13, 83, 72, 73, 82, 84, 13, 72, 79, 83, 84, 69, 83, 83, 13, 80, 65, 83, 84, 65, 13, 83, 78, 65, 73, 76, 13, 70, 76, 65, 71, 13, 80, 76, 65, 73, 68, 13, 80, 79, 76, 73, 67, 69, 13, 70, 76, 69, 69, 84, 13, 80, 69, 67, 69, 8, 65, 78, 83, 13, 71, 76, 79, 66, 65, 76, 13, 67, 79, 79, 75, 13, 84, 85, 82, 78, 73, 80, 13, 66, 65, 78, 74, 79, 13], "trial": 1, "time_elapsed": 473144, "type": "FREE_RECALL", "trial_index": 75}, "uniqueid": "MTK3007:3VJ40NV2QJUQZUAM9LPP67IS4AOTON", "dateTime": 1519667541922}, {"current_trial": 76, "trialdata": {"rt": 4057, "trial_type": "text", "internal_node_id": "0.0-58.0", "time_elapsed": 479207, "key_press": 13, "type": "INSTRUCTIONS", "trial_index": 76}, "uniqueid": "MTK3007:3VJ40NV2QJUQZUAM9LPP67IS4AOTON", "dateTime": 1519667547981}, {"current_trial": 77, "trialdata": {"rt": [2833, 6589, 11627, 14738, 16865, 19415], "trial_type": "math-distractor", "key_times": [2131, 2497, 2833, 5885, 6037, 6589, 11194, 11308, 11627, 14007, 14314, 14738, 16623, 16865, 18864, 19133, 19415], "responses": ["16", "21", "20", "15", "9", "18"], "num2": [6, 3, 4, 9, 2, 5, 6], "num3": [5, 9, 8, 1, 2, 8, 8], "conditions": [24, 1600, "v", 24000], "internal_node_id": "0.0-59.0", "key_presses": [49, 54, 13, 50, 49, 13, 50, 48, 13, 49, 53, 13, 57, 13, 49, 56, 13], "trial": 2, "time_elapsed": 504212, "type": "DISTRACTOR", "trial_index": 77, "num1": [5, 9, 8, 5, 5, 5, 6]}, "uniqueid": "MTK3007:3VJ40NV2QJUQZUAM9LPP67IS4AOTON", "dateTime": 1519667572987}, {"current_trial": 78, "trialdata": {"rt": -1, "trial_type": "single-stim", "stimulus": "<p id=\"stim\">10</p>", "internal_node_id": "0.0-60.0-0.0", "time_elapsed": 507215, "key_press": -1, "trial_index": 78}, "uniqueid": "MTK3007:3VJ40NV2QJUQZUAM9LPP67IS4AOTON", "dateTime": 1519667575990}, {"current_trial": 79, "trialdata": {"rt": -1, "trial_type": "single-stim", "stimulus": "<p id=\"stim\">9</p>", "internal_node_id": "0.0-60.0-1.0", "time_elapsed": 508218, "key_press": -1, "trial_index": 79}, "uniqueid": "MTK3007:3VJ40NV2QJUQZUAM9LPP67IS4AOTON", "dateTime": 1519667576992}, {"current_trial": 80, "trialdata": {"rt": -1, "trial_type": "single-stim", "stimulus": "<p id=\"stim\">8</p>", "internal_node_id": "0.0-60.0-2.0", "time_elapsed": 509219, "key_press": -1, "trial_index": 80}, "uniqueid": "MTK3007:3VJ40NV2QJUQZUAM9LPP67IS4AOTON", "dateTime": 1519667577993}, {"current_trial": 81, "trialdata": {"rt": -1, "trial_type": "single-stim", "stimulus": "<p id=\"stim\">7</p>", "internal_node_id": "0.0-60.0-3.0", "time_elapsed": 510221, "key_press": -1, "trial_index": 81}, "uniqueid": "MTK3007:3VJ40NV2QJUQZUAM9LPP67IS4AOTON", "dateTime": 1519667578995}, {"current_trial": 82, "trialdata": {"rt": -1, "trial_type": "single-stim", "stimulus": "<p id=\"stim\">6</p>", "internal_node_id": "0.0-60.0-4.0", "time_elapsed": 511222, "key_press": -1, "trial_index": 82}, "uniqueid": "MTK3007:3VJ40NV2QJUQZUAM9LPP67IS4AOTON", "dateTime": 1519667579996}, {"current_trial": 83, "trialdata": {"rt": -1, "trial_type": "single-stim", "stimulus": "<p id=\"stim\">5</p>", "internal_node_id": "0.0-60.0-5.0", "time_elapsed": 512224, "key_press": -1, "trial_index": 83}, "uniqueid": "MTK3007:3VJ40NV2QJUQZUAM9LPP67IS4AOTON", "dateTime": 1519667580998}, {"current_trial": 84, "trialdata": {"rt": -1, "trial_type": "single-stim", "stimulus": "<p id=\"stim\">4</p>", "internal_node_id": "0.0-60.0-6.0", "time_elapsed": 513226, "key_press": -1, "trial_index": 84}, "uniqueid": "MTK3007:3VJ40NV2QJUQZUAM9LPP67IS4AOTON", "dateTime": 1519667582000}, {"current_trial": 85, "trialdata": {"rt": -1, "trial_type": "single-stim", "stimulus": "<p id=\"stim\">3</p>", "internal_node_id": "0.0-60.0-7.0", "time_elapsed": 514228, "key_press": -1, "trial_index": 85}, "uniqueid": "MTK3007:3VJ40NV2QJUQZUAM9LPP67IS4AOTON", "dateTime": 1519667583002}, {"current_trial": 86, "trialdata": {"rt": -1, "trial_type": "single-stim", "stimulus": "<p id=\"stim\">2</p>", "internal_node_id": "0.0-60.0-8.0", "time_elapsed": 515230, "key_press": -1, "trial_index": 86}, "uniqueid": "MTK3007:3VJ40NV2QJUQZUAM9LPP67IS4AOTON", "dateTime": 1519667584004}, {"current_trial": 87, "trialdata": {"rt": -1, "trial_type": "single-stim", "stimulus": "<p id=\"stim\">1</p>", "internal_node_id": "0.0-60.0-9.0", "time_elapsed": 516232, "key_press": -1, "trial_index": 87}, "uniqueid": "MTK3007:3VJ40NV2QJUQZUAM9LPP67IS4AOTON", "dateTime": 1519667585006}, {"current_trial": 88, "trialdata": {"rt": -1, "trial_type": "single-stim", "stimulus": "<p id=\"stim\">+</p>", "internal_node_id": "0.0-61.0-0.0", "time_elapsed": 517734, "key_press": -1, "type": "FIXATION", "trial_index": 88}, "uniqueid": "MTK3007:3VJ40NV2QJUQZUAM9LPP67IS4AOTON", "dateTime": 1519667586508}, {"current_trial": 89, "trialdata": {"rt": -1, "trial_type": "single-stim", "word": "radish", "stimulus": "<p id=\"stim\">RADISH</p>", "conditions": [24, 1600, "v", 24000], "internal_node_id": "0.0-62.0", "trial": 2, "time_elapsed": 519336, "serialpos": 0, "key_press": -1, "wordID": 1157, "type": "PRES_VIS", "trial_index": 89}, "uniqueid": "MTK3007:3VJ40NV2QJUQZUAM9LPP67IS4AOTON", "dateTime": 1519667588110}, {"current_trial": 90, "trialdata": {"rt": -1, "trial_type": "single-stim", "word": "onion", "stimulus": "<p id=\"stim\">ONION</p>", "conditions": [24, 1600, "v", 24000], "internal_node_id": "0.0-63.0", "trial": 2, "time_elapsed": 522013, "serialpos": 1, "key_press": -1, "wordID": 976, "type": "PRES_VIS", "trial_index": 90}, "uniqueid": "MTK3007:3VJ40NV2QJUQZUAM9LPP67IS4AOTON", "dateTime": 1519667590787}, {"current_trial": 91, "trialdata": {"rt": -1, "trial_type": "single-stim", "word": "rabbit", "stimulus": "<p id=\"stim\">RABBIT</p>", "conditions": [24, 1600, "v", 24000], "internal_node_id": "0.0-64.0", "trial": 2, "time_elapsed": 524778, "serialpos": 2, "key_press": -1, "wordID": 1151, "type": "PRES_VIS", "trial_index": 91}, "uniqueid": "MTK3007:3VJ40NV2QJUQZUAM9LPP67IS4AOTON", "dateTime": 1519667593552}, {"current_trial": 92, "trialdata": {"rt": -1, "trial_type": "single-stim", "word": "fungus", "stimulus": "<p id=\"stim\">FUNGUS</p>", "conditions": [24, 1600, "v", 24000], "internal_node_id": "0.0-65.0", "trial": 2, "time_elapsed": 527328, "serialpos": 3, "key_press": -1, "wordID": 613, "type": "PRES_VIS", "trial_index": 92}, "uniqueid": "MTK3007:3VJ40NV2QJUQZUAM9LPP67IS4AOTON", "dateTime": 1519667596102}, {"current_trial": 93, "trialdata": {"rt": -1, "trial_type": "single-stim", "word": "hand", "stimulus": "<p id=\"stim\">HAND</p>", "conditions": [24, 1600, "v", 24000], "internal_node_id": "0.0-66.0", "trial": 2, "time_elapsed": 529733, "serialpos": 4, "key_press": -1, "wordID": 682, "type": "PRES_VIS", "trial_index": 93}, "uniqueid": "MTK3007:3VJ40NV2QJUQZUAM9LPP67IS4AOTON", "dateTime": 1519667598507}, {"current_trial": 94, "trialdata": {"rt": -1, "trial_type": "single-stim", "word": "ground", "stimulus": "<p id=\"stim\">GROUND</p>", "conditions": [24, 1600, "v", 24000], "internal_node_id": "0.0-67.0", "trial": 2, "time_elapsed": 532227, "serialpos": 5, "key_press": -1, "wordID": 665, "type": "PRES_VIS", "trial_index": 94}, "uniqueid": "MTK3007:3VJ40NV2QJUQZUAM9LPP67IS4AOTON", "dateTime": 1519667601001}, {"current_trial": 95, "trialdata": {"rt": -1, "trial_type": "single-stim", "word": "nomad", "stimulus": "<p id=\"stim\">NOMAD</p>", "conditions": [24, 1600, "v", 24000], "internal_node_id": "0.0-68.0", "trial": 2, "time_elapsed": 534702, "serialpos": 6, "key_press": -1, "wordID": 954, "type": "PRES_VIS", "trial_index": 95}, "uniqueid": "MTK3007:3VJ40NV2QJUQZUAM9LPP67IS4AOTON", "dateTime": 1519667603477}, {"current_trial": 96, "trialdata": {"rt": -1, "trial_type": "single-stim", "word": "peach", "stimulus": "<p id=\"stim\">PEACH</p>", "conditions": [24, 1600, "v", 24000], "internal_node_id": "0.0-69.0", "trial": 2, "time_elapsed": 537216, "serialpos": 7, "key_press": -1, "wordID": 1030, "type": "PRES_VIS", "trial_index": 96}, "uniqueid": "MTK3007:3VJ40NV2QJUQZUAM9LPP67IS4AOTON", "dateTime": 1519667605990}, {"current_trial": 97, "trialdata": {"rt": -1, "trial_type": "single-stim", "word": "dress", "stimulus": "<p id=\"stim\">DRESS</p>", "conditions": [24, 1600, "v", 24000], "internal_node_id": "0.0-70.0", "trial": 2, "time_elapsed": 539896, "serialpos": 8, "key_press": -1, "wordID": 494, "type": "PRES_VIS", "trial_index": 97}, "uniqueid": "MTK3007:3VJ40NV2QJUQZUAM9LPP67IS4AOTON", "dateTime": 1519667608670}, {"current_trial": 98, "trialdata": {"rt": -1, "trial_type": "single-stim", "word": "japan", "stimulus": "<p id=\"stim\">JAPAN</p>", "conditions": [24, 1600, "v", 24000], "internal_node_id": "0.0-71.0", "trial": 2, "time_elapsed": 542308, "serialpos": 9, "key_press": -1, "wordID": 748, "type": "PRES_VIS", "trial_index": 98}, "uniqueid": "MTK3007:3VJ40NV2QJUQZUAM9LPP67IS4AOTON", "dateTime": 1519667611082}, {"current_trial": 99, "trialdata": {"rt": -1, "trial_type": "single-stim", "word": "lizard", "stimulus": "<p id=\"stim\">LIZARD</p>", "conditions": [24, 1600, "v", 24000], "internal_node_id": "0.0-72.0", "trial": 2, "time_elapsed": 544753, "serialpos": 10, "key_press": -1, "wordID": 833, "type": "PRES_VIS", "trial_index": 99}, "uniqueid": "MTK3007:3VJ40NV2QJUQZUAM9LPP67IS4AOTON", "dateTime": 1519667613527}, {"current_trial": 100, "trialdata": {"rt": -1, "trial_type": "single-stim", "word": "receipt", "stimulus": "<p id=\"stim\">RECEIPT</p>", "conditions": [24, 1600, "v", 24000], "internal_node_id": "0.0-73.0", "trial": 2, "time_elapsed": 547276, "serialpos": 11, "key_press": -1, "wordID": 1172, "type": "PRES_VIS", "trial_index": 100}, "uniqueid": "MTK3007:3VJ40NV2QJUQZUAM9LPP67IS4AOTON", "dateTime": 1519667616051}, {"current_trial": 101, "trialdata": {"rt": -1, "trial_type": "single-stim", "word": "hood", "stimulus": "<p id=\"stim\">HOOD</p>", "conditions": [24, 1600, "v", 24000], "internal_node_id": "0.0-74.0", "trial": 2, "time_elapsed": 549985, "serialpos": 12, "key_press": -1, "wordID": 713, "type": "PRES_VIS", "trial_index": 101}, "uniqueid": "MTK3007:3VJ40NV2QJUQZUAM9LPP67IS4AOTON", "dateTime": 1519667618759}, {"current_trial": 102, "trialdata": {"rt": -1, "trial_type": "single-stim", "word": "waitress", "stimulus": "<p id=\"stim\">WAITRESS</p>", "conditions": [24, 1600, "v", 24000], "internal_node_id": "0.0-75.0", "trial": 2, "time_elapsed": 552602, "serialpos": 13, "key_press": -1, "wordID": 1580, "type": "PRES_VIS", "trial_index": 102}, "uniqueid": "MTK3007:3VJ40NV2QJUQZUAM9LPP67IS4AOTON", "dateTime": 1519667621376}, {"current_trial": 103, "trialdata": {"rt": -1, "trial_type": "single-stim", "word": "widow", "stimulus": "<p id=\"stim\">WIDOW</p>", "conditions": [24, 1600, "v", 24000], "internal_node_id": "0.0-76.0", "trial": 2, "time_elapsed": 555196, "serialpos": 14, "key_press": -1, "wordID": 1607, "type": "PRES_VIS", "trial_index": 103}, "uniqueid": "MTK3007:3VJ40NV2QJUQZUAM9LPP67IS4AOTON", "dateTime": 1519667623970}, {"current_trial": 104, "trialdata": {"rt": -1, "trial_type": "single-stim", "word": "lady", "stimulus": "<p id=\"stim\">LADY</p>", "conditions": [24, 1600, "v", 24000], "internal_node_id": "0.0-77.0", "trial": 2, "time_elapsed": 557652, "serialpos": 15, "key_press": -1, "wordID": 793, "type": "PRES_VIS", "trial_index": 104}, "uniqueid": "MTK3007:3VJ40NV2QJUQZUAM9LPP67IS4AOTON", "dateTime": 1519667626426}, {"current_trial": 105, "trialdata": {"rt": -1, "trial_type": "single-stim", "word": "harp", "stimulus": "<p id=\"stim\">HARP</p>", "conditions": [24, 1600, "v", 24000], "internal_node_id": "0.0-78.0", "trial": 2, "time_elapsed": 560085, "serialpos": 16, "key_press": -1, "wordID": 688, "type": "PRES_VIS", "trial_index": 105}, "uniqueid": "MTK3007:3VJ40NV2QJUQZUAM9LPP67IS4AOTON", "dateTime": 1519667628859}, {"current_trial": 106, "trialdata": {"rt": -1, "trial_type": "single-stim", "word": "guitar", "stimulus": "<p id=\"stim\">GUITAR</p>", "conditions": [24, 1600, "v", 24000], "internal_node_id": "0.0-79.0", "trial": 2, "time_elapsed": 562534, "serialpos": 17, "key_press": -1, "wordID": 669, "type": "PRES_VIS", "trial_index": 106}, "uniqueid": "MTK3007:3VJ40NV2QJUQZUAM9LPP67IS4AOTON", "dateTime": 1519667631308}, {"current_trial": 107, "trialdata": {"rt": -1, "trial_type": "single-stim", "word": "ointment", "stimulus": "<p id=\"stim\">OINTMENT</p>", "conditions": [24, 1600, "v", 24000], "internal_node_id": "0.0-80.0", "trial": 2, "time_elapsed": 565232, "serialpos": 18, "key_press": -1, "wordID": 973, "type": "PRES_VIS", "trial_index": 107}, "uniqueid": "MTK3007:3VJ40NV2QJUQZUAM9LPP67IS4AOTON", "dateTime": 1519667634006}, {"current_trial": 108, "trialdata": {"rt": -1, "trial_type": "single-stim", "word": "waiter", "stimulus": "<p id=\"stim\">WAITER</p>", "conditions": [24, 1600, "v", 24000], "internal_node_id": "0.0-81.0", "trial": 2, "time_elapsed": 567924, "serialpos": 19, "key_press": -1, "wordID": 1579, "type": "PRES_VIS", "trial_index": 108}, "uniqueid": "MTK3007:3VJ40NV2QJUQZUAM9LPP67IS4AOTON", "dateTime": 1519667636698}, {"current_trial": 109, "trialdata": {"rt": -1, "trial_type": "single-stim", "word": "author", "stimulus": "<p id=\"stim\">AUTHOR</p>", "conditions": [24, 1600, "v", 24000], "internal_node_id": "0.0-82.0", "trial": 2, "time_elapsed": 570428, "serialpos": 20, "key_press": -1, "wordID": 60, "type": "PRES_VIS", "trial_index": 109}, "uniqueid": "MTK3007:3VJ40NV2QJUQZUAM9LPP67IS4AOTON", "dateTime": 1519667639203}, {"current_trial": 110, "trialdata": {"rt": -1, "trial_type": "single-stim", "word": "stallion", "stimulus": "<p id=\"stim\">STALLION</p>", "conditions": [24, 1600, "v", 24000], "internal_node_id": "0.0-83.0", "trial": 2, "time_elapsed": 572921, "serialpos": 21, "key_press": -1, "wordID": 1368, "type": "PRES_VIS", "trial_index": 110}, "uniqueid": "MTK3007:3VJ40NV2QJUQZUAM9LPP67IS4AOTON", "dateTime": 1519667641695}, {"current_trial": 111, "trialdata": {"rt": -1, "trial_type": "single-stim", "word": "cabbage", "stimulus": "<p id=\"stim\">CABBAGE</p>", "conditions": [24, 1600, "v", 24000], "internal_node_id": "0.0-84.0", "trial": 2, "time_elapsed": 575561, "serialpos": 22, "key_press": -1, "wordID": 209, "type": "PRES_VIS", "trial_index": 111}, "uniqueid": "MTK3007:3VJ40NV2QJUQZUAM9LPP67IS4AOTON", "dateTime": 1519667644335}, {"current_trial": 112, "trialdata": {"rt": -1, "trial_type": "single-stim", "word": "critic", "stimulus": "<p id=\"stim\">CRITIC</p>", "conditions": [24, 1600, "v", 24000], "internal_node_id": "0.0-85.0", "trial": 2, "time_elapsed": 578064, "serialpos": 23, "key_press": -1, "wordID": 409, "type": "PRES_VIS", "trial_index": 112}, "uniqueid": "MTK3007:3VJ40NV2QJUQZUAM9LPP67IS4AOTON", "dateTime": 1519667646838}, {"current_trial": 113, "trialdata": {"rt": -1, "trial_type": "single-stim", "stimulus": "", "internal_node_id": "0.0-86.0-0.0", "time_elapsed": 580416, "key_press": -1, "type": "PRE_RECALL_DELAY", "trial_index": 113}, "uniqueid": "MTK3007:3VJ40NV2QJUQZUAM9LPP67IS4AOTON", "dateTime": 1519667649190}, {"current_trial": 114, "trialdata": {"rt": -1000, "trial_type": "single-audio", "stimulus": "/static/audio/400Hz.wav", "internal_node_id": "0.0-87.0", "time_elapsed": 580917, "key_press": -1, "type": "PRE_RECALL_ALERT", "trial_index": 114}, "uniqueid": "MTK3007:3VJ40NV2QJUQZUAM9LPP67IS4AOTON", "dateTime": 1519667649692}, {"current_trial": 115, "trialdata": {"rt": [2553, 4597, 6604, 8387, 10696, 12293, 14415, 16563, 21479, 23247, 33382, 34638, 35762, 48815, 52556], "recwords": ["hood", "receipt", "ground", "onion", "radish", "peach", "rabbit", "hands", "waiter", "waitress", "dress", "lady", "widow", "japan", "lizard"], "key_times": [1514, 1799, 1942, 2059, 2553, 3105, 3288, 3523, 3725, 3858, 4042, 4147, 4597, 5668, 5866, 5971, 6165, 6343, 6430, 6604, 7293, 7529, 7756, 7907, 8125, 8387, 8967, 9196, 9724, 9894, 10033, 10127, 10696, 11130, 11316, 11524, 11764, 11937, 12293, 13238, 13495, 13617, 13746, 13926, 14029, 14415, 14902, 15006, 15128, 15263, 15528, 16563, 20549, 20726, 20815, 21039, 21128, 21293, 21479, 21964, 22145, 22225, 22449, 22576, 22722, 22910, 23054, 23247, 32280, 32504, 32695, 33123, 33280, 33382, 33871, 33959, 34150, 34300, 34638, 35081, 35256, 35380, 35502, 35620, 35762, 48092, 48196, 48325, 48464, 48575, 48815, 51250, 51457, 51657, 51856, 52076, 52240, 52556], "trial_type": "free-recall", "conditions": [24, 1600, "v", 24000], "internal_node_id": "0.0-88.0-0.0", "key_presses": [72, 79, 79, 68, 13, 82, 69, 67, 69, 73, 80, 84, 13, 71, 82, 79, 85, 78, 68, 13, 79, 78, 73, 79, 78, 13, 82, 65, 68, 73, 83, 72, 13, 80, 69, 65, 67, 72, 13, 82, 65, 66, 66, 73, 84, 13, 72, 65, 78, 68, 83, 13, 87, 65, 73, 84, 69, 82, 13, 87, 65, 73, 84, 82, 69, 83, 83, 13, 68, 82, 69, 83, 83, 13, 76, 65, 68, 89, 13, 87, 73, 68, 79, 87, 13, 74, 65, 80, 65, 78, 13, 76, 73, 90, 65, 82, 68, 13], "trial": 2, "time_elapsed": 640920, "type": "FREE_RECALL", "trial_index": 115}, "uniqueid": "MTK3007:3VJ40NV2QJUQZUAM9LPP67IS4AOTON", "dateTime": 1519667709699}, {"current_trial": 116, "trialdata": {"rt": 2440, "trial_type": "text", "internal_node_id": "0.0-89.0", "time_elapsed": 645366, "key_press": 13, "type": "INSTRUCTIONS", "trial_index": 116}, "uniqueid": "MTK3007:3VJ40NV2QJUQZUAM9LPP67IS4AOTON", "dateTime": 1519667714140}, {"current_trial": 117, "trialdata": {"rt": [2846, 9269, 11286], "trial_type": "math-distractor", "key_times": [2160, 2479, 2846, 8517, 9049, 9269, 11045, 11286], "responses": ["15", "13", "5"], "num2": [7, 7, 1, 1], "num3": [7, 4, 2, 6], "conditions": [24, 1600, "v", 12000], "internal_node_id": "0.0-90.0", "key_presses": [49, 53, 13, 49, 51, 13, 53, 13], "trial": 3, "time_elapsed": 659370, "type": "DISTRACTOR", "trial_index": 117, "num1": [1, 2, 2, 7]}, "uniqueid": "MTK3007:3VJ40NV2QJUQZUAM9LPP67IS4AOTON", "dateTime": 1519667728144}, {"current_trial": 118, "trialdata": {"rt": -1, "trial_type": "single-stim", "stimulus": "<p id=\"stim\">10</p>", "internal_node_id": "0.0-91.0-0.0", "time_elapsed": 662371, "key_press": -1, "trial_index": 118}, "uniqueid": "MTK3007:3VJ40NV2QJUQZUAM9LPP67IS4AOTON", "dateTime": 1519667731145}, {"current_trial": 119, "trialdata": {"rt": -1, "trial_type": "single-stim", "stimulus": "<p id=\"stim\">9</p>", "internal_node_id": "0.0-91.0-1.0", "time_elapsed": 663372, "key_press": -1, "trial_index": 119}, "uniqueid": "MTK3007:3VJ40NV2QJUQZUAM9LPP67IS4AOTON", "dateTime": 1519667732146}, {"current_trial": 120, "trialdata": {"rt": -1, "trial_type": "single-stim", "stimulus": "<p id=\"stim\">8</p>", "internal_node_id": "0.0-91.0-2.0", "time_elapsed": 664373, "key_press": -1, "trial_index": 120}, "uniqueid": "MTK3007:3VJ40NV2QJUQZUAM9LPP67IS4AOTON", "dateTime": 1519667733147}, {"current_trial": 121, "trialdata": {"rt": -1, "trial_type": "single-stim", "stimulus": "<p id=\"stim\">7</p>", "internal_node_id": "0.0-91.0-3.0", "time_elapsed": 665375, "key_press": -1, "trial_index": 121}, "uniqueid": "MTK3007:3VJ40NV2QJUQZUAM9LPP67IS4AOTON", "dateTime": 1519667734149}, {"current_trial": 122, "trialdata": {"rt": -1, "trial_type": "single-stim", "stimulus": "<p id=\"stim\">6</p>", "internal_node_id": "0.0-91.0-4.0", "time_elapsed": 666378, "key_press": -1, "trial_index": 122}, "uniqueid": "MTK3007:3VJ40NV2QJUQZUAM9LPP67IS4AOTON", "dateTime": 1519667735152}, {"current_trial": 123, "trialdata": {"rt": -1, "trial_type": "single-stim", "stimulus": "<p id=\"stim\">5</p>", "internal_node_id": "0.0-91.0-5.0", "time_elapsed": 667379, "key_press": -1, "trial_index": 123}, "uniqueid": "MTK3007:3VJ40NV2QJUQZUAM9LPP67IS4AOTON", "dateTime": 1519667736153}, {"current_trial": 124, "trialdata": {"rt": -1, "trial_type": "single-stim", "stimulus": "<p id=\"stim\">4</p>", "internal_node_id": "0.0-91.0-6.0", "time_elapsed": 668381, "key_press": -1, "trial_index": 124}, "uniqueid": "MTK3007:3VJ40NV2QJUQZUAM9LPP67IS4AOTON", "dateTime": 1519667737155}, {"current_trial": 125, "trialdata": {"rt": -1, "trial_type": "single-stim", "stimulus": "<p id=\"stim\">3</p>", "internal_node_id": "0.0-91.0-7.0", "time_elapsed": 669382, "key_press": -1, "trial_index": 125}, "uniqueid": "MTK3007:3VJ40NV2QJUQZUAM9LPP67IS4AOTON", "dateTime": 1519667738156}, {"current_trial": 126, "trialdata": {"rt": -1, "trial_type": "single-stim", "stimulus": "<p id=\"stim\">2</p>", "internal_node_id": "0.0-91.0-8.0", "time_elapsed": 670384, "key_press": -1, "trial_index": 126}, "uniqueid": "MTK3007:3VJ40NV2QJUQZUAM9LPP67IS4AOTON", "dateTime": 1519667739158}, {"current_trial": 127, "trialdata": {"rt": -1, "trial_type": "single-stim", "stimulus": "<p id=\"stim\">1</p>", "internal_node_id": "0.0-91.0-9.0", "time_elapsed": 671385, "key_press": -1, "trial_index": 127}, "uniqueid": "MTK3007:3VJ40NV2QJUQZUAM9LPP67IS4AOTON", "dateTime": 1519667740159}, {"current_trial": 128, "trialdata": {"rt": -1, "trial_type": "single-stim", "stimulus": "<p id=\"stim\">+</p>", "internal_node_id": "0.0-92.0-0.0", "time_elapsed": 672893, "key_press": -1, "type": "FIXATION", "trial_index": 128}, "uniqueid": "MTK3007:3VJ40NV2QJUQZUAM9LPP67IS4AOTON", "dateTime": 1519667741667}, {"current_trial": 129, "trialdata": {"rt": -1, "trial_type": "single-stim", "word": "sandwich", "stimulus": "<p id=\"stim\">SANDWICH</p>", "conditions": [24, 1600, "v", 12000], "internal_node_id": "0.0-93.0", "trial": 3, "time_elapsed": 674494, "serialpos": 0, "key_press": -1, "wordID": 1231, "type": "PRES_VIS", "trial_index": 129}, "uniqueid": "MTK3007:3VJ40NV2QJUQZUAM9LPP67IS4AOTON", "dateTime": 1519667743268}, {"current_trial": 130, "trialdata": {"rt": -1, "trial_type": "single-stim", "word": "paddle", "stimulus": "<p id=\"stim\">PADDLE</p>", "conditions": [24, 1600, "v", 12000], "internal_node_id": "0.0-94.0", "trial": 3, "time_elapsed": 677215, "serialpos": 1, "key_press": -1, "wordID": 999, "type": "PRES_VIS", "trial_index": 130}, "uniqueid": "MTK3007:3VJ40NV2QJUQZUAM9LPP67IS4AOTON", "dateTime": 1519667745989}, {"current_trial": 131, "trialdata": {"rt": -1, "trial_type": "single-stim", "word": "beaker", "stimulus": "<p id=\"stim\">BEAKER</p>", "conditions": [24, 1600, "v", 12000], "internal_node_id": "0.0-95.0", "trial": 3, "time_elapsed": 679904, "serialpos": 2, "key_press": -1, "wordID": 103, "type": "PRES_VIS", "trial_index": 131}, "uniqueid": "MTK3007:3VJ40NV2QJUQZUAM9LPP67IS4AOTON", "dateTime": 1519667748678}, {"current_trial": 132, "trialdata": {"rt": -1, "trial_type": "single-stim", "word": "chemist", "stimulus": "<p id=\"stim\">CHEMIST</p>", "conditions": [24, 1600, "v", 12000], "internal_node_id": "0.0-96.0", "trial": 3, "time_elapsed": 682351, "serialpos": 3, "key_press": -1, "wordID": 291, "type": "PRES_VIS", "trial_index": 132}, "uniqueid": "MTK3007:3VJ40NV2QJUQZUAM9LPP67IS4AOTON", "dateTime": 1519667751125}, {"current_trial": 133, "trialdata": {"rt": -1, "trial_type": "single-stim", "word": "doughnut", "stimulus": "<p id=\"stim\">DOUGHNUT</p>", "conditions": [24, 1600, "v", 12000], "internal_node_id": "0.0-97.0", "trial": 3, "time_elapsed": 684760, "serialpos": 4, "key_press": -1, "wordID": 489, "type": "PRES_VIS", "trial_index": 133}, "uniqueid": "MTK3007:3VJ40NV2QJUQZUAM9LPP67IS4AOTON", "dateTime": 1519667753534}, {"current_trial": 134, "trialdata": {"rt": -1, "trial_type": "single-stim", "word": "burglar", "stimulus": "<p id=\"stim\">BURGLAR</p>", "conditions": [24, 1600, "v", 12000], "internal_node_id": "0.0-98.0", "trial": 3, "time_elapsed": 687175, "serialpos": 5, "key_press": -1, "wordID": 199, "type": "PRES_VIS", "trial_index": 134}, "uniqueid": "MTK3007:3VJ40NV2QJUQZUAM9LPP67IS4AOTON", "dateTime": 1519667755949}, {"current_trial": 135, "trialdata": {"rt": -1, "trial_type": "single-stim", "word": "monster", "stimulus": "<p id=\"stim\">MONSTER</p>", "conditions": [24, 1600, "v", 12000], "internal_node_id": "0.0-99.0", "trial": 3, "time_elapsed": 689816, "serialpos": 6, "key_press": -1, "wordID": 911, "type": "PRES_VIS", "trial_index": 135}, "uniqueid": "MTK3007:3VJ40NV2QJUQZUAM9LPP67IS4AOTON", "dateTime": 1519667758590}, {"current_trial": 136, "trialdata": {"rt": -1, "trial_type": "single-stim", "word": "staple", "stimulus": "<p id=\"stim\">STAPLE</p>", "conditions": [24, 1600, "v", 12000], "internal_node_id": "0.0-100.0", "trial": 3, "time_elapsed": 692591, "serialpos": 7, "key_press": -1, "wordID": 1370, "type": "PRES_VIS", "trial_index": 136}, "uniqueid": "MTK3007:3VJ40NV2QJUQZUAM9LPP67IS4AOTON", "dateTime": 1519667761365}, {"current_trial": 137, "trialdata": {"rt": -1, "trial_type": "single-stim", "word": "ketchup", "stimulus": "<p id=\"stim\">KETCHUP</p>", "conditions": [24, 1600, "v", 12000], "internal_node_id": "0.0-101.0", "trial": 3, "time_elapsed": 695037, "serialpos": 8, "key_press": -1, "wordID": 770, "type": "PRES_VIS", "trial_index": 137}, "uniqueid": "MTK3007:3VJ40NV2QJUQZUAM9LPP67IS4AOTON", "dateTime": 1519667763811}, {"current_trial": 138, "trialdata": {"rt": -1, "trial_type": "single-stim", "word": "flask", "stimulus": "<p id=\"stim\">FLASK</p>", "conditions": [24, 1600, "v", 12000], "internal_node_id": "0.0-102.0", "trial": 3, "time_elapsed": 697809, "serialpos": 9, "key_press": -1, "wordID": 575, "type": "PRES_VIS", "trial_index": 138}, "uniqueid": "MTK3007:3VJ40NV2QJUQZUAM9LPP67IS4AOTON", "dateTime": 1519667766583}, {"current_trial": 139, "trialdata": {"rt": -1, "trial_type": "single-stim", "word": "scalpel", "stimulus": "<p id=\"stim\">SCALPEL</p>", "conditions": [24, 1600, "v", 12000], "internal_node_id": "0.0-103.0", "trial": 3, "time_elapsed": 700425, "serialpos": 10, "key_press": -1, "wordID": 1242, "type": "PRES_VIS", "trial_index": 139}, "uniqueid": "MTK3007:3VJ40NV2QJUQZUAM9LPP67IS4AOTON", "dateTime": 1519667769200}, {"current_trial": 140, "trialdata": {"rt": -1, "trial_type": "single-stim", "word": "razor", "stimulus": "<p id=\"stim\">RAZOR</p>", "conditions": [24, 1600, "v", 12000], "internal_node_id": "0.0-104.0", "trial": 3, "time_elapsed": 703169, "serialpos": 11, "key_press": -1, "wordID": 1170, "type": "PRES_VIS", "trial_index": 140}, "uniqueid": "MTK3007:3VJ40NV2QJUQZUAM9LPP67IS4AOTON", "dateTime": 1519667771943}, {"current_trial": 141, "trialdata": {"rt": -1, "trial_type": "single-stim", "word": "queen", "stimulus": "<p id=\"stim\">QUEEN</p>", "conditions": [24, 1600, "v", 12000], "internal_node_id": "0.0-105.0", "trial": 3, "time_elapsed": 705731, "serialpos": 12, "key_press": -1, "wordID": 1148, "type": "PRES_VIS", "trial_index": 141}, "uniqueid": "MTK3007:3VJ40NV2QJUQZUAM9LPP67IS4AOTON", "dateTime": 1519667774506}, {"current_trial": 142, "trialdata": {"rt": -1, "trial_type": "single-stim", "word": "tribe", "stimulus": "<p id=\"stim\">TRIBE</p>", "conditions": [24, 1600, "v", 12000], "internal_node_id": "0.0-106.0", "trial": 3, "time_elapsed": 708326, "serialpos": 13, "key_press": -1, "wordID": 1504, "type": "PRES_VIS", "trial_index": 142}, "uniqueid": "MTK3007:3VJ40NV2QJUQZUAM9LPP67IS4AOTON", "dateTime": 1519667777100}, {"current_trial": 143, "trialdata": {"rt": -1, "trial_type": "single-stim", "word": "tart", "stimulus": "<p id=\"stim\">TART</p>", "conditions": [24, 1600, "v", 12000], "internal_node_id": "0.0-107.0", "trial": 3, "time_elapsed": 711070, "serialpos": 14, "key_press": -1, "wordID": 1435, "type": "PRES_VIS", "trial_index": 143}, "uniqueid": "MTK3007:3VJ40NV2QJUQZUAM9LPP67IS4AOTON", "dateTime": 1519667779845}, {"current_trial": 144, "trialdata": {"rt": -1, "trial_type": "single-stim", "word": "diver", "stimulus": "<p id=\"stim\">DIVER</p>", "conditions": [24, 1600, "v", 12000], "internal_node_id": "0.0-108.0", "trial": 3, "time_elapsed": 713807, "serialpos": 15, "key_press": -1, "wordID": 475, "type": "PRES_VIS", "trial_index": 144}, "uniqueid": "MTK3007:3VJ40NV2QJUQZUAM9LPP67IS4AOTON", "dateTime": 1519667782581}, {"current_trial": 145, "trialdata": {"rt": -1, "trial_type": "single-stim", "word": "turtle", "stimulus": "<p id=\"stim\">TURTLE</p>", "conditions": [24, 1600, "v", 12000], "internal_node_id": "0.0-109.0", "trial": 3, "time_elapsed": 716405, "serialpos": 16, "key_press": -1, "wordID": 1521, "type": "PRES_VIS", "trial_index": 145}, "uniqueid": "MTK3007:3VJ40NV2QJUQZUAM9LPP67IS4AOTON", "dateTime": 1519667785179}, {"current_trial": 146, "trialdata": {"rt": -1, "trial_type": "single-stim", "word": "termite", "stimulus": "<p id=\"stim\">TERMITE</p>", "conditions": [24, 1600, "v", 12000], "internal_node_id": "0.0-110.0", "trial": 3, "time_elapsed": 718995, "serialpos": 17, "key_press": -1, "wordID": 1450, "type": "PRES_VIS", "trial_index": 146}, "uniqueid": "MTK3007:3VJ40NV2QJUQZUAM9LPP67IS4AOTON", "dateTime": 1519667787769}, {"current_trial": 147, "trialdata": {"rt": -1, "trial_type": "single-stim", "word": "icing", "stimulus": "<p id=\"stim\">ICING</p>", "conditions": [24, 1600, "v", 12000], "internal_node_id": "0.0-111.0", "trial": 3, "time_elapsed": 721551, "serialpos": 18, "key_press": -1, "wordID": 731, "type": "PRES_VIS", "trial_index": 147}, "uniqueid": "MTK3007:3VJ40NV2QJUQZUAM9LPP67IS4AOTON", "dateTime": 1519667790326}, {"current_trial": 148, "trialdata": {"rt": -1, "trial_type": "single-stim", "word": "penguin", "stimulus": "<p id=\"stim\">PENGUIN</p>", "conditions": [24, 1600, "v", 12000], "internal_node_id": "0.0-112.0", "trial": 3, "time_elapsed": 724190, "serialpos": 19, "key_press": -1, "wordID": 1043, "type": "PRES_VIS", "trial_index": 148}, "uniqueid": "MTK3007:3VJ40NV2QJUQZUAM9LPP67IS4AOTON", "dateTime": 1519667792964}, {"current_trial": 149, "trialdata": {"rt": -1, "trial_type": "single-stim", "word": "mustard", "stimulus": "<p id=\"stim\">MUSTARD</p>", "conditions": [24, 1600, "v", 12000], "internal_node_id": "0.0-113.0", "trial": 3, "time_elapsed": 726700, "serialpos": 20, "key_press": -1, "wordID": 934, "type": "PRES_VIS", "trial_index": 149}, "uniqueid": "MTK3007:3VJ40NV2QJUQZUAM9LPP67IS4AOTON", "dateTime": 1519667795474}, {"current_trial": 150, "trialdata": {"rt": -1, "trial_type": "single-stim", "word": "victim", "stimulus": "<p id=\"stim\">VICTIM</p>", "conditions": [24, 1600, "v", 12000], "internal_node_id": "0.0-114.0", "trial": 3, "time_elapsed": 729252, "serialpos": 21, "key_press": -1, "wordID": 1561, "type": "PRES_VIS", "trial_index": 150}, "uniqueid": "MTK3007:3VJ40NV2QJUQZUAM9LPP67IS4AOTON", "dateTime": 1519667798027}, {"current_trial": 151, "trialdata": {"rt": -1, "trial_type": "single-stim", "word": "woman", "stimulus": "<p id=\"stim\">WOMAN</p>", "conditions": [24, 1600, "v", 12000], "internal_node_id": "0.0-115.0", "trial": 3, "time_elapsed": 731904, "serialpos": 22, "key_press": -1, "wordID": 1619, "type": "PRES_VIS", "trial_index": 151}, "uniqueid": "MTK3007:3VJ40NV2QJUQZUAM9LPP67IS4AOTON", "dateTime": 1519667800678}, {"current_trial": 152, "trialdata": {"rt": -1, "trial_type": "single-stim", "word": "transplant", "stimulus": "<p id=\"stim\">TRANSPLANT</p>", "conditions": [24, 1600, "v", 12000], "internal_node_id": "0.0-116.0", "trial": 3, "time_elapsed": 734622, "serialpos": 23, "key_press": -1, "wordID": 1495, "type": "PRES_VIS", "trial_index": 152}, "uniqueid": "MTK3007:3VJ40NV2QJUQZUAM9LPP67IS4AOTON", "dateTime": 1519667803397}, {"current_trial": 153, "trialdata": {"rt": -1, "trial_type": "single-stim", "stimulus": "", "internal_node_id": "0.0-117.0-0.0", "time_elapsed": 736904, "key_press": -1, "type": "PRE_RECALL_DELAY", "trial_index": 153}, "uniqueid": "MTK3007:3VJ40NV2QJUQZUAM9LPP67IS4AOTON", "dateTime": 1519667805678}, {"current_trial": 154, "trialdata": {"rt": -1000, "trial_type": "single-audio", "stimulus": "/static/audio/400Hz.wav", "internal_node_id": "0.0-118.0", "time_elapsed": 737405, "key_press": -1, "type": "PRE_RECALL_ALERT", "trial_index": 154}, "uniqueid": "MTK3007:3VJ40NV2QJUQZUAM9LPP67IS4AOTON", "dateTime": 1519667806179}, {"current_trial": 155, "trialdata": {"rt": [4750, 12067, 15133, 16797, 18433, 22062, 24214, 26820, 35011], "recwords": ["sandwhich", "paddle", "chemist", "beaker", "flask", "mustard", "donut", "robber", "penguin"], "key_times": [1684, 1884, 1988, 2372, 2686, 2802, 3012, 3146, 3332, 3452, 3583, 4750, 5960, 6092, 6290, 6798, 6959, 7092, 7260, 10817, 10955, 11347, 11500, 11679, 11844, 12067, 14147, 14281, 14400, 14517, 14715, 14805, 15024, 15133, 15776, 15928, 16132, 16285, 16479, 16635, 16797, 17410, 17530, 17689, 17860, 18095, 18433, 20996, 21220, 21317, 21484, 21577, 21805, 21946, 22062, 22523, 22611, 22819, 23138, 23522, 23768, 23887, 24214, 25711, 25826, 26083, 26211, 26300, 26437, 26820, 33881, 34017, 34164, 34317, 34429, 34587, 34767, 35011], "trial_type": "free-recall", "conditions": [24, 1600, "v", 12000], "internal_node_id": "0.0-119.0-0.0", "key_presses": [83, 65, 78, 83, 8, 68, 87, 72, 73, 67, 72, 13, 71, 76, 79, 8, 8, 8, 8, 80, 65, 68, 68, 76, 69, 13, 67, 72, 69, 77, 73, 83, 84, 13, 66, 69, 65, 75, 69, 82, 13, 70, 76, 65, 83, 75, 13, 77, 85, 83, 84, 65, 82, 68, 13, 68, 79, 78, 84, 8, 85, 84, 13, 82, 79, 66, 66, 69, 82, 13, 80, 69, 78, 71, 85, 73, 78, 13], "trial": 3, "time_elapsed": 797408, "type": "FREE_RECALL", "trial_index": 155}, "uniqueid": "MTK3007:3VJ40NV2QJUQZUAM9LPP67IS4AOTON", "dateTime": 1519667866184}, {"current_trial": 156, "trialdata": {"rt": 1839, "trial_type": "text", "internal_node_id": "0.0-120.0", "time_elapsed": 801251, "key_press": 13, "type": "INSTRUCTIONS", "trial_index": 156}, "uniqueid": "MTK3007:3VJ40NV2QJUQZUAM9LPP67IS4AOTON", "dateTime": 1519667870025}, {"current_trial": 157, "trialdata": {"rt": [8826], "trial_type": "math-distractor", "key_times": [7927, 8163, 8826], "responses": ["17"], "num2": [7, 3], "num3": [1, 9], "conditions": [24, 800, "v", 12000], "internal_node_id": "0.0-121.0", "key_presses": [49, 55, 13], "trial": 4, "time_elapsed": 815255, "type": "DISTRACTOR", "trial_index": 157, "num1": [9, 6]}, "uniqueid": "MTK3007:3VJ40NV2QJUQZUAM9LPP67IS4AOTON", "dateTime": 1519667884030}, {"current_trial": 158, "trialdata": {"rt": -1, "trial_type": "single-stim", "stimulus": "<p id=\"stim\">10</p>", "internal_node_id": "0.0-122.0-0.0", "time_elapsed": 818257, "key_press": -1, "trial_index": 158}, "uniqueid": "MTK3007:3VJ40NV2QJUQZUAM9LPP67IS4AOTON", "dateTime": 1519667887031}, {"current_trial": 159, "trialdata": {"rt": -1, "trial_type": "single-stim", "stimulus": "<p id=\"stim\">9</p>", "internal_node_id": "0.0-122.0-1.0", "time_elapsed": 819259, "key_press": -1, "trial_index": 159}, "uniqueid": "MTK3007:3VJ40NV2QJUQZUAM9LPP67IS4AOTON", "dateTime": 1519667888033}, {"current_trial": 160, "trialdata": {"rt": -1, "trial_type": "single-stim", "stimulus": "<p id=\"stim\">8</p>", "internal_node_id": "0.0-122.0-2.0", "time_elapsed": 820260, "key_press": -1, "trial_index": 160}, "uniqueid": "MTK3007:3VJ40NV2QJUQZUAM9LPP67IS4AOTON", "dateTime": 1519667889035}, {"current_trial": 161, "trialdata": {"rt": -1, "trial_type": "single-stim", "stimulus": "<p id=\"stim\">7</p>", "internal_node_id": "0.0-122.0-3.0", "time_elapsed": 821263, "key_press": -1, "trial_index": 161}, "uniqueid": "MTK3007:3VJ40NV2QJUQZUAM9LPP67IS4AOTON", "dateTime": 1519667890037}, {"current_trial": 162, "trialdata": {"rt": -1, "trial_type": "single-stim", "stimulus": "<p id=\"stim\">6</p>", "internal_node_id": "0.0-122.0-4.0", "time_elapsed": 822265, "key_press": -1, "trial_index": 162}, "uniqueid": "MTK3007:3VJ40NV2QJUQZUAM9LPP67IS4AOTON", "dateTime": 1519667891039}, {"current_trial": 163, "trialdata": {"rt": -1, "trial_type": "single-stim", "stimulus": "<p id=\"stim\">5</p>", "internal_node_id": "0.0-122.0-5.0", "time_elapsed": 823267, "key_press": -1, "trial_index": 163}, "uniqueid": "MTK3007:3VJ40NV2QJUQZUAM9LPP67IS4AOTON", "dateTime": 1519667892041}, {"current_trial": 164, "trialdata": {"rt": -1, "trial_type": "single-stim", "stimulus": "<p id=\"stim\">4</p>", "internal_node_id": "0.0-122.0-6.0", "time_elapsed": 824268, "key_press": -1, "trial_index": 164}, "uniqueid": "MTK3007:3VJ40NV2QJUQZUAM9LPP67IS4AOTON", "dateTime": 1519667893042}, {"current_trial": 165, "trialdata": {"rt": -1, "trial_type": "single-stim", "stimulus": "<p id=\"stim\">3</p>", "internal_node_id": "0.0-122.0-7.0", "time_elapsed": 825270, "key_press": -1, "trial_index": 165}, "uniqueid": "MTK3007:3VJ40NV2QJUQZUAM9LPP67IS4AOTON", "dateTime": 1519667894044}, {"current_trial": 166, "trialdata": {"rt": -1, "trial_type": "single-stim", "stimulus": "<p id=\"stim\">2</p>", "internal_node_id": "0.0-122.0-8.0", "time_elapsed": 826273, "key_press": -1, "trial_index": 166}, "uniqueid": "MTK3007:3VJ40NV2QJUQZUAM9LPP67IS4AOTON", "dateTime": 1519667895048}, {"current_trial": 167, "trialdata": {"rt": -1, "trial_type": "single-stim", "stimulus": "<p id=\"stim\">1</p>", "internal_node_id": "0.0-122.0-9.0", "time_elapsed": 827276, "key_press": -1, "trial_index": 167}, "uniqueid": "MTK3007:3VJ40NV2QJUQZUAM9LPP67IS4AOTON", "dateTime": 1519667896050}, {"current_trial": 168, "trialdata": {"rt": -1, "trial_type": "single-stim", "stimulus": "<p id=\"stim\">+</p>", "internal_node_id": "0.0-123.0-0.0", "time_elapsed": 828778, "key_press": -1, "type": "FIXATION", "trial_index": 168}, "uniqueid": "MTK3007:3VJ40NV2QJUQZUAM9LPP67IS4AOTON", "dateTime": 1519667897552}, {"current_trial": 169, "trialdata": {"rt": -1, "trial_type": "single-stim", "word": "rocket", "stimulus": "<p id=\"stim\">ROCKET</p>", "conditions": [24, 800, "v", 12000], "internal_node_id": "0.0-124.0", "trial": 4, "time_elapsed": 829581, "serialpos": 0, "key_press": -1, "wordID": 1201, "type": "PRES_VIS", "trial_index": 169}, "uniqueid": "MTK3007:3VJ40NV2QJUQZUAM9LPP67IS4AOTON", "dateTime": 1519667898355}, {"current_trial": 170, "trialdata": {"rt": -1, "trial_type": "single-stim", "word": "banquet", "stimulus": "<p id=\"stim\">BANQUET</p>", "conditions": [24, 800, "v", 12000], "internal_node_id": "0.0-125.0", "trial": 4, "time_elapsed": 831188, "serialpos": 1, "key_press": -1, "wordID": 85, "type": "PRES_VIS", "trial_index": 170}, "uniqueid": "MTK3007:3VJ40NV2QJUQZUAM9LPP67IS4AOTON", "dateTime": 1519667899963}, {"current_trial": 171, "trialdata": {"rt": -1, "trial_type": "single-stim", "word": "pizza", "stimulus": "<p id=\"stim\">PIZZA</p>", "conditions": [24, 800, "v", 12000], "internal_node_id": "0.0-126.0", "trial": 4, "time_elapsed": 833023, "serialpos": 2, "key_press": -1, "wordID": 1078, "type": "PRES_VIS", "trial_index": 171}, "uniqueid": "MTK3007:3VJ40NV2QJUQZUAM9LPP67IS4AOTON", "dateTime": 1519667901798}, {"current_trial": 172, "trialdata": {"rt": -1, "trial_type": "single-stim", "word": "sausage", "stimulus": "<p id=\"stim\">SAUSAGE</p>", "conditions": [24, 800, "v", 12000], "internal_node_id": "0.0-127.0", "trial": 4, "time_elapsed": 834911, "serialpos": 3, "key_press": -1, "wordID": 1237, "type": "PRES_VIS", "trial_index": 172}, "uniqueid": "MTK3007:3VJ40NV2QJUQZUAM9LPP67IS4AOTON", "dateTime": 1519667903686}, {"current_trial": 173, "trialdata": {"rt": -1, "trial_type": "single-stim", "word": "cyclone", "stimulus": "<p id=\"stim\">CYCLONE</p>", "conditions": [24, 800, "v", 12000], "internal_node_id": "0.0-128.0", "trial": 4, "time_elapsed": 836853, "serialpos": 4, "key_press": -1, "wordID": 430, "type": "PRES_VIS", "trial_index": 173}, "uniqueid": "MTK3007:3VJ40NV2QJUQZUAM9LPP67IS4AOTON", "dateTime": 1519667905627}, {"current_trial": 174, "trialdata": {"rt": -1, "trial_type": "single-stim", "word": "forehead", "stimulus": "<p id=\"stim\">FOREHEAD</p>", "conditions": [24, 800, "v", 12000], "internal_node_id": "0.0-129.0", "trial": 4, "time_elapsed": 838469, "serialpos": 5, "key_press": -1, "wordID": 591, "type": "PRES_VIS", "trial_index": 174}, "uniqueid": "MTK3007:3VJ40NV2QJUQZUAM9LPP67IS4AOTON", "dateTime": 1519667907243}, {"current_trial": 175, "trialdata": {"rt": -1, "trial_type": "single-stim", "word": "chest", "stimulus": "<p id=\"stim\">CHEST</p>", "conditions": [24, 800, "v", 12000], "internal_node_id": "0.0-130.0", "trial": 4, "time_elapsed": 840135, "serialpos": 6, "key_press": -1, "wordID": 294, "type": "PRES_VIS", "trial_index": 175}, "uniqueid": "MTK3007:3VJ40NV2QJUQZUAM9LPP67IS4AOTON", "dateTime": 1519667908909}, {"current_trial": 176, "trialdata": {"rt": -1, "trial_type": "single-stim", "word": "apron", "stimulus": "<p id=\"stim\">APRON</p>", "conditions": [24, 800, "v", 12000], "internal_node_id": "0.0-131.0", "trial": 4, "time_elapsed": 841952, "serialpos": 7, "key_press": -1, "wordID": 34, "type": "PRES_VIS", "trial_index": 176}, "uniqueid": "MTK3007:3VJ40NV2QJUQZUAM9LPP67IS4AOTON", "dateTime": 1519667910726}, {"current_trial": 177, "trialdata": {"rt": -1, "trial_type": "single-stim", "word": "witness", "stimulus": "<p id=\"stim\">WITNESS</p>", "conditions": [24, 800, "v", 12000], "internal_node_id": "0.0-132.0", "trial": 4, "time_elapsed": 843743, "serialpos": 8, "key_press": -1, "wordID": 1617, "type": "PRES_VIS", "trial_index": 177}, "uniqueid": "MTK3007:3VJ40NV2QJUQZUAM9LPP67IS4AOTON", "dateTime": 1519667912517}, {"current_trial": 178, "trialdata": {"rt": -1, "trial_type": "single-stim", "word": "mars", "stimulus": "<p id=\"stim\">MARS</p>", "conditions": [24, 800, "v", 12000], "internal_node_id": "0.0-133.0", "trial": 4, "time_elapsed": 845576, "serialpos": 9, "key_press": -1, "wordID": 872, "type": "PRES_VIS", "trial_index": 178}, "uniqueid": "MTK3007:3VJ40NV2QJUQZUAM9LPP67IS4AOTON", "dateTime": 1519667914350}, {"current_trial": 179, "trialdata": {"rt": -1, "trial_type": "single-stim", "word": "convict", "stimulus": "<p id=\"stim\">CONVICT</p>", "conditions": [24, 800, "v", 12000], "internal_node_id": "0.0-134.0", "trial": 4, "time_elapsed": 847228, "serialpos": 10, "key_press": -1, "wordID": 370, "type": "PRES_VIS", "trial_index": 179}, "uniqueid": "MTK3007:3VJ40NV2QJUQZUAM9LPP67IS4AOTON", "dateTime": 1519667916002}, {"current_trial": 180, "trialdata": {"rt": -1, "trial_type": "single-stim", "word": "missile", "stimulus": "<p id=\"stim\">MISSILE</p>", "conditions": [24, 800, "v", 12000], "internal_node_id": "0.0-135.0", "trial": 4, "time_elapsed": 848961, "serialpos": 11, "key_press": -1, "wordID": 899, "type": "PRES_VIS", "trial_index": 180}, "uniqueid": "MTK3007:3VJ40NV2QJUQZUAM9LPP67IS4AOTON", "dateTime": 1519667917735}, {"current_trial": 181, "trialdata": {"rt": -1, "trial_type": "single-stim", "word": "tombstone", "stimulus": "<p id=\"stim\">TOMBSTONE</p>", "conditions": [24, 800, "v", 12000], "internal_node_id": "0.0-136.0", "trial": 4, "time_elapsed": 850616, "serialpos": 12, "key_press": -1, "wordID": 1477, "type": "PRES_VIS", "trial_index": 181}, "uniqueid": "MTK3007:3VJ40NV2QJUQZUAM9LPP67IS4AOTON", "dateTime": 1519667919390}, {"current_trial": 182, "trialdata": {"rt": -1, "trial_type": "single-stim", "word": "trout", "stimulus": "<p id=\"stim\">TROUT</p>", "conditions": [24, 800, "v", 12000], "internal_node_id": "0.0-137.0", "trial": 4, "time_elapsed": 852530, "serialpos": 13, "key_press": -1, "wordID": 1510, "type": "PRES_VIS", "trial_index": 182}, "uniqueid": "MTK3007:3VJ40NV2QJUQZUAM9LPP67IS4AOTON", "dateTime": 1519667921304}, {"current_trial": 183, "trialdata": {"rt": -1, "trial_type": "single-stim", "word": "chauffeur", "stimulus": "<p id=\"stim\">CHAUFFEUR</p>", "conditions": [24, 800, "v", 12000], "internal_node_id": "0.0-138.0", "trial": 4, "time_elapsed": 854267, "serialpos": 14, "key_press": -1, "wordID": 282, "type": "PRES_VIS", "trial_index": 183}, "uniqueid": "MTK3007:3VJ40NV2QJUQZUAM9LPP67IS4AOTON", "dateTime": 1519667923041}, {"current_trial": 184, "trialdata": {"rt": -1, "trial_type": "single-stim", "word": "blender", "stimulus": "<p id=\"stim\">BLENDER</p>", "conditions": [24, 800, "v", 12000], "internal_node_id": "0.0-139.0", "trial": 4, "time_elapsed": 856052, "serialpos": 15, "key_press": -1, "wordID": 135, "type": "PRES_VIS", "trial_index": 184}, "uniqueid": "MTK3007:3VJ40NV2QJUQZUAM9LPP67IS4AOTON", "dateTime": 1519667924826}, {"current_trial": 185, "trialdata": {"rt": -1, "trial_type": "single-stim", "word": "dresser", "stimulus": "<p id=\"stim\">DRESSER</p>", "conditions": [24, 800, "v", 12000], "internal_node_id": "0.0-140.0", "trial": 4, "time_elapsed": 857786, "serialpos": 16, "key_press": -1, "wordID": 495, "type": "PRES_VIS", "trial_index": 185}, "uniqueid": "MTK3007:3VJ40NV2QJUQZUAM9LPP67IS4AOTON", "dateTime": 1519667926560}, {"current_trial": 186, "trialdata": {"rt": -1, "trial_type": "single-stim", "word": "peanut", "stimulus": "<p id=\"stim\">PEANUT</p>", "conditions": [24, 800, "v", 12000], "internal_node_id": "0.0-141.0", "trial": 4, "time_elapsed": 859720, "serialpos": 17, "key_press": -1, "wordID": 1031, "type": "PRES_VIS", "trial_index": 186}, "uniqueid": "MTK3007:3VJ40NV2QJUQZUAM9LPP67IS4AOTON", "dateTime": 1519667928495}, {"current_trial": 187, "trialdata": {"rt": -1, "trial_type": "single-stim", "word": "parrot", "stimulus": "<p id=\"stim\">PARROT</p>", "conditions": [24, 800, "v", 12000], "internal_node_id": "0.0-142.0", "trial": 4, "time_elapsed": 861466, "serialpos": 18, "key_press": -1, "wordID": 1014, "type": "PRES_VIS", "trial_index": 187}, "uniqueid": "MTK3007:3VJ40NV2QJUQZUAM9LPP67IS4AOTON", "dateTime": 1519667930240}, {"current_trial": 188, "trialdata": {"rt": -1, "trial_type": "single-stim", "word": "rooster", "stimulus": "<p id=\"stim\">ROOSTER</p>", "conditions": [24, 800, "v", 12000], "internal_node_id": "0.0-143.0", "trial": 4, "time_elapsed": 863378, "serialpos": 19, "key_press": -1, "wordID": 1208, "type": "PRES_VIS", "trial_index": 188}, "uniqueid": "MTK3007:3VJ40NV2QJUQZUAM9LPP67IS4AOTON", "dateTime": 1519667932152}, {"current_trial": 189, "trialdata": {"rt": -1, "trial_type": "single-stim", "word": "shovel", "stimulus": "<p id=\"stim\">SHOVEL</p>", "conditions": [24, 800, "v", 12000], "internal_node_id": "0.0-144.0", "trial": 4, "time_elapsed": 865335, "serialpos": 20, "key_press": -1, "wordID": 1294, "type": "PRES_VIS", "trial_index": 189}, "uniqueid": "MTK3007:3VJ40NV2QJUQZUAM9LPP67IS4AOTON", "dateTime": 1519667934110}, {"current_trial": 190, "trialdata": {"rt": -1, "trial_type": "single-stim", "word": "friend", "stimulus": "<p id=\"stim\">FRIEND</p>", "conditions": [24, 800, "v", 12000], "internal_node_id": "0.0-145.0", "trial": 4, "time_elapsed": 867336, "serialpos": 21, "key_press": -1, "wordID": 605, "type": "PRES_VIS", "trial_index": 190}, "uniqueid": "MTK3007:3VJ40NV2QJUQZUAM9LPP67IS4AOTON", "dateTime": 1519667936110}, {"current_trial": 191, "trialdata": {"rt": -1, "trial_type": "single-stim", "word": "statue", "stimulus": "<p id=\"stim\">STATUE</p>", "conditions": [24, 800, "v", 12000], "internal_node_id": "0.0-146.0", "trial": 4, "time_elapsed": 869116, "serialpos": 22, "key_press": -1, "wordID": 1373, "type": "PRES_VIS", "trial_index": 191}, "uniqueid": "MTK3007:3VJ40NV2QJUQZUAM9LPP67IS4AOTON", "dateTime": 1519667937891}, {"current_trial": 192, "trialdata": {"rt": -1, "trial_type": "single-stim", "word": "scotch", "stimulus": "<p id=\"stim\">SCOTCH</p>", "conditions": [24, 800, "v", 12000], "internal_node_id": "0.0-147.0", "trial": 4, "time_elapsed": 870916, "serialpos": 23, "key_press": -1, "wordID": 1250, "type": "PRES_VIS", "trial_index": 192}, "uniqueid": "MTK3007:3VJ40NV2QJUQZUAM9LPP67IS4AOTON", "dateTime": 1519667939690}, {"current_trial": 193, "trialdata": {"rt": -1, "trial_type": "single-stim", "stimulus": "", "internal_node_id": "0.0-148.0-0.0", "time_elapsed": 872946, "key_press": -1, "type": "PRE_RECALL_DELAY", "trial_index": 193}, "uniqueid": "MTK3007:3VJ40NV2QJUQZUAM9LPP67IS4AOTON", "dateTime": 1519667941721}, {"current_trial": 194, "trialdata": {"rt": -1000, "trial_type": "single-audio", "stimulus": "/static/audio/400Hz.wav", "internal_node_id": "0.0-149.0", "time_elapsed": 873448, "key_press": -1, "type": "PRE_RECALL_ALERT", "trial_index": 194}, "uniqueid": "MTK3007:3VJ40NV2QJUQZUAM9LPP67IS4AOTON", "dateTime": 1519667942223}, {"current_trial": 195, "trialdata": {"rt": [3700, 5396, 8122, 13566, 18595, 24542, 29225], "recwords": ["cyclone", "pizza", "rocket", "banquet", "convict", "sausage", "parrot"], "key_times": [2057, 2370, 2569, 2670, 2844, 3053, 3168, 3700, 4226, 4463, 4642, 4826, 4993, 5396, 6028, 6188, 6512, 6985, 7531, 7650, 7789, 7992, 8122, 8336, 9108, 9890, 9981, 10126, 10534, 10910, 11492, 11676, 12207, 12888, 13023, 13157, 13566, 16291, 16412, 16615, 16802, 16885, 17022, 17741, 18151, 18365, 18595, 22937, 23096, 23211, 23662, 23827, 23929, 24067, 24542, 28145, 28225, 28547, 28693, 28792, 28938, 29225, 59370, 59501, 59629, 59750], "trial_type": "free-recall", "conditions": [24, 800, "v", 12000], "internal_node_id": "0.0-150.0-0.0", "key_presses": [67, 89, 67, 76, 79, 78, 69, 13, 80, 73, 90, 90, 65, 13, 82, 79, 66, 8, 67, 75, 69, 84, 32, 66, 8, 66, 65, 78, 85, 8, 81, 89, 8, 85, 69, 84, 13, 67, 79, 78, 86, 73, 67, 89, 8, 84, 13, 83, 65, 85, 83, 65, 71, 69, 13, 80, 65, 82, 82, 79, 84, 13, 67, 72, 65, 85], "trial": 4, "time_elapsed": 933452, "type": "FREE_RECALL", "trial_index": 195}, "uniqueid": "MTK3007:3VJ40NV2QJUQZUAM9LPP67IS4AOTON", "dateTime": 1519668002231}, {"current_trial": 196, "trialdata": {"rt": 2582, "trial_type": "text", "internal_node_id": "0.0-151.0", "time_elapsed": 938040, "key_press": 13, "type": "INSTRUCTIONS", "trial_index": 196}, "uniqueid": "MTK3007:3VJ40NV2QJUQZUAM9LPP67IS4AOTON", "dateTime": 1519668006815}, {"current_trial": 197, "trialdata": {"rt": [2625, 6145, 9574, 11617], "trial_type": "math-distractor", "key_times": [2012, 2431, 2625, 5654, 5851, 6145, 9027, 9204, 9574, 11368, 11617], "responses": ["14", "18", "18", "8"], "num2": [1, 7, 9, 3, 6], "num3": [5, 9, 5, 1, 8], "conditions": [24, 1600, "v", 12000], "internal_node_id": "0.0-152.0", "key_presses": [49, 52, 13, 49, 56, 13, 49, 56, 13, 56, 13], "trial": 5, "time_elapsed": 952045, "type": "DISTRACTOR", "trial_index": 197, "num1": [8, 3, 4, 4, 6]}, "uniqueid": "MTK3007:3VJ40NV2QJUQZUAM9LPP67IS4AOTON", "dateTime": 1519668020820}, {"current_trial": 198, "trialdata": {"rt": -1, "trial_type": "single-stim", "stimulus": "<p id=\"stim\">10</p>", "internal_node_id": "0.0-153.0-0.0", "time_elapsed": 955049, "key_press": -1, "trial_index": 198}, "uniqueid": "MTK3007:3VJ40NV2QJUQZUAM9LPP67IS4AOTON", "dateTime": 1519668023823}, {"current_trial": 199, "trialdata": {"rt": -1, "trial_type": "single-stim", "stimulus": "<p id=\"stim\">9</p>", "internal_node_id": "0.0-153.0-1.0", "time_elapsed": 956050, "key_press": -1, "trial_index": 199}, "uniqueid": "MTK3007:3VJ40NV2QJUQZUAM9LPP67IS4AOTON", "dateTime": 1519668024825}, {"current_trial": 200, "trialdata": {"rt": -1, "trial_type": "single-stim", "stimulus": "<p id=\"stim\">8</p>", "internal_node_id": "0.0-153.0-2.0", "time_elapsed": 957052, "key_press": -1, "trial_index": 200}, "uniqueid": "MTK3007:3VJ40NV2QJUQZUAM9LPP67IS4AOTON", "dateTime": 1519668025826}, {"current_trial": 201, "trialdata": {"rt": -1, "trial_type": "single-stim", "stimulus": "<p id=\"stim\">7</p>", "internal_node_id": "0.0-153.0-3.0", "time_elapsed": 958054, "key_press": -1, "trial_index": 201}, "uniqueid": "MTK3007:3VJ40NV2QJUQZUAM9LPP67IS4AOTON", "dateTime": 1519668026828}, {"current_trial": 202, "trialdata": {"rt": -1, "trial_type": "single-stim", "stimulus": "<p id=\"stim\">6</p>", "internal_node_id": "0.0-153.0-4.0", "time_elapsed": 959055, "key_press": -1, "trial_index": 202}, "uniqueid": "MTK3007:3VJ40NV2QJUQZUAM9LPP67IS4AOTON", "dateTime": 1519668027829}, {"current_trial": 203, "trialdata": {"rt": -1, "trial_type": "single-stim", "stimulus": "<p id=\"stim\">5</p>", "internal_node_id": "0.0-153.0-5.0", "time_elapsed": 960057, "key_press": -1, "trial_index": 203}, "uniqueid": "MTK3007:3VJ40NV2QJUQZUAM9LPP67IS4AOTON", "dateTime": 1519668028831}, {"current_trial": 204, "trialdata": {"rt": -1, "trial_type": "single-stim", "stimulus": "<p id=\"stim\">4</p>", "internal_node_id": "0.0-153.0-6.0", "time_elapsed": 961059, "key_press": -1, "trial_index": 204}, "uniqueid": "MTK3007:3VJ40NV2QJUQZUAM9LPP67IS4AOTON", "dateTime": 1519668029833}, {"current_trial": 205, "trialdata": {"rt": -1, "trial_type": "single-stim", "stimulus": "<p id=\"stim\">3</p>", "internal_node_id": "0.0-153.0-7.0", "time_elapsed": 962060, "key_press": -1, "trial_index": 205}, "uniqueid": "MTK3007:3VJ40NV2QJUQZUAM9LPP67IS4AOTON", "dateTime": 1519668030834}, {"current_trial": 206, "trialdata": {"rt": -1, "trial_type": "single-stim", "stimulus": "<p id=\"stim\">2</p>", "internal_node_id": "0.0-153.0-8.0", "time_elapsed": 963061, "key_press": -1, "trial_index": 206}, "uniqueid": "MTK3007:3VJ40NV2QJUQZUAM9LPP67IS4AOTON", "dateTime": 1519668031836}, {"current_trial": 207, "trialdata": {"rt": -1, "trial_type": "single-stim", "stimulus": "<p id=\"stim\">1</p>", "internal_node_id": "0.0-153.0-9.0", "time_elapsed": 964063, "key_press": -1, "trial_index": 207}, "uniqueid": "MTK3007:3VJ40NV2QJUQZUAM9LPP67IS4AOTON", "dateTime": 1519668032837}, {"current_trial": 208, "trialdata": {"rt": -1, "trial_type": "single-stim", "stimulus": "<p id=\"stim\">+</p>", "internal_node_id": "0.0-154.0-0.0", "time_elapsed": 965564, "key_press": -1, "type": "FIXATION", "trial_index": 208}, "uniqueid": "MTK3007:3VJ40NV2QJUQZUAM9LPP67IS4AOTON", "dateTime": 1519668034339}, {"current_trial": 209, "trialdata": {"rt": -1, "trial_type": "single-stim", "word": "oyster", "stimulus": "<p id=\"stim\">OYSTER</p>", "conditions": [24, 1600, "v", 12000], "internal_node_id": "0.0-155.0", "trial": 5, "time_elapsed": 967166, "serialpos": 0, "key_press": -1, "wordID": 994, "type": "PRES_VIS", "trial_index": 209}, "uniqueid": "MTK3007:3VJ40NV2QJUQZUAM9LPP67IS4AOTON", "dateTime": 1519668035941}, {"current_trial": 210, "trialdata": {"rt": -1, "trial_type": "single-stim", "word": "gangster", "stimulus": "<p id=\"stim\">GANGSTER</p>", "conditions": [24, 1600, "v", 12000], "internal_node_id": "0.0-156.0", "trial": 5, "time_elapsed": 969815, "serialpos": 1, "key_press": -1, "wordID": 619, "type": "PRES_VIS", "trial_index": 210}, "uniqueid": "MTK3007:3VJ40NV2QJUQZUAM9LPP67IS4AOTON", "dateTime": 1519668038589}, {"current_trial": 211, "trialdata": {"rt": -1, "trial_type": "single-stim", "word": "fox", "stimulus": "<p id=\"stim\">FOX</p>", "conditions": [24, 1600, "v", 12000], "internal_node_id": "0.0-157.0", "trial": 5, "time_elapsed": 972458, "serialpos": 2, "key_press": -1, "wordID": 597, "type": "PRES_VIS", "trial_index": 211}, "uniqueid": "MTK3007:3VJ40NV2QJUQZUAM9LPP67IS4AOTON", "dateTime": 1519668041233}, {"current_trial": 212, "trialdata": {"rt": -1, "trial_type": "single-stim", "word": "supper", "stimulus": "<p id=\"stim\">SUPPER</p>", "conditions": [24, 1600, "v", 12000], "internal_node_id": "0.0-158.0", "trial": 5, "time_elapsed": 975024, "serialpos": 3, "key_press": -1, "wordID": 1410, "type": "PRES_VIS", "trial_index": 212}, "uniqueid": "MTK3007:3VJ40NV2QJUQZUAM9LPP67IS4AOTON", "dateTime": 1519668043798}, {"current_trial": 213, "trialdata": {"rt": -1, "trial_type": "single-stim", "word": "snake", "stimulus": "<p id=\"stim\">SNAKE</p>", "conditions": [24, 1600, "v", 12000], "internal_node_id": "0.0-159.0", "trial": 5, "time_elapsed": 977737, "serialpos": 4, "key_press": -1, "wordID": 1332, "type": "PRES_VIS", "trial_index": 213}, "uniqueid": "MTK3007:3VJ40NV2QJUQZUAM9LPP67IS4AOTON", "dateTime": 1519668046512}, {"current_trial": 214, "trialdata": {"rt": -1, "trial_type": "single-stim", "word": "switch", "stimulus": "<p id=\"stim\">SWITCH</p>", "conditions": [24, 1600, "v", 12000], "internal_node_id": "0.0-160.0", "trial": 5, "time_elapsed": 980481, "serialpos": 5, "key_press": -1, "wordID": 1421, "type": "PRES_VIS", "trial_index": 214}, "uniqueid": "MTK3007:3VJ40NV2QJUQZUAM9LPP67IS4AOTON", "dateTime": 1519668049255}, {"current_trial": 215, "trialdata": {"rt": -1, "trial_type": "single-stim", "word": "wrench", "stimulus": "<p id=\"stim\">WRENCH</p>", "conditions": [24, 1600, "v", 12000], "internal_node_id": "0.0-161.0", "trial": 5, "time_elapsed": 983050, "serialpos": 6, "key_press": -1, "wordID": 1624, "type": "PRES_VIS", "trial_index": 215}, "uniqueid": "MTK3007:3VJ40NV2QJUQZUAM9LPP67IS4AOTON", "dateTime": 1519668051825}, {"current_trial": 216, "trialdata": {"rt": -1, "trial_type": "single-stim", "word": "country", "stimulus": "<p id=\"stim\">COUNTRY</p>", "conditions": [24, 1600, "v", 12000], "internal_node_id": "0.0-162.0", "trial": 5, "time_elapsed": 985775, "serialpos": 7, "key_press": -1, "wordID": 387, "type": "PRES_VIS", "trial_index": 216}, "uniqueid": "MTK3007:3VJ40NV2QJUQZUAM9LPP67IS4AOTON", "dateTime": 1519668054549}, {"current_trial": 217, "trialdata": {"rt": -1, "trial_type": "single-stim", "word": "world", "stimulus": "<p id=\"stim\">WORLD</p>", "conditions": [24, 1600, "v", 12000], "internal_node_id": "0.0-163.0", "trial": 5, "time_elapsed": 988380, "serialpos": 8, "key_press": -1, "wordID": 1621, "type": "PRES_VIS", "trial_index": 217}, "uniqueid": "MTK3007:3VJ40NV2QJUQZUAM9LPP67IS4AOTON", "dateTime": 1519668057154}, {"current_trial": 218, "trialdata": {"rt": -1, "trial_type": "single-stim", "word": "drink", "stimulus": "<p id=\"stim\">DRINK</p>", "conditions": [24, 1600, "v", 12000], "internal_node_id": "0.0-164.0", "trial": 5, "time_elapsed": 991102, "serialpos": 9, "key_press": -1, "wordID": 497, "type": "PRES_VIS", "trial_index": 218}, "uniqueid": "MTK3007:3VJ40NV2QJUQZUAM9LPP67IS4AOTON", "dateTime": 1519668059876}, {"current_trial": 219, "trialdata": {"rt": -1, "trial_type": "single-stim", "word": "flute", "stimulus": "<p id=\"stim\">FLUTE</p>", "conditions": [24, 1600, "v", 12000], "internal_node_id": "0.0-165.0", "trial": 5, "time_elapsed": 993768, "serialpos": 10, "key_press": -1, "wordID": 584, "type": "PRES_VIS", "trial_index": 219}, "uniqueid": "MTK3007:3VJ40NV2QJUQZUAM9LPP67IS4AOTON", "dateTime": 1519668062542}, {"current_trial": 220, "trialdata": {"rt": -1, "trial_type": "single-stim", "word": "spider", "stimulus": "<p id=\"stim\">SPIDER</p>", "conditions": [24, 1600, "v", 12000], "internal_node_id": "0.0-166.0", "trial": 5, "time_elapsed": 996369, "serialpos": 11, "key_press": -1, "wordID": 1350, "type": "PRES_VIS", "trial_index": 220}, "uniqueid": "MTK3007:3VJ40NV2QJUQZUAM9LPP67IS4AOTON", "dateTime": 1519668065143}, {"current_trial": 221, "trialdata": {"rt": -1, "trial_type": "single-stim", "word": "softball", "stimulus": "<p id=\"stim\">SOFTBALL</p>", "conditions": [24, 1600, "v", 12000], "internal_node_id": "0.0-167.0", "trial": 5, "time_elapsed": 999044, "serialpos": 12, "key_press": -1, "wordID": 1342, "type": "PRES_VIS", "trial_index": 221}, "uniqueid": "MTK3007:3VJ40NV2QJUQZUAM9LPP67IS4AOTON", "dateTime": 1519668067818}, {"current_trial": 222, "trialdata": {"rt": -1, "trial_type": "single-stim", "word": "diner", "stimulus": "<p id=\"stim\">DINER</p>", "conditions": [24, 1600, "v", 12000], "internal_node_id": "0.0-168.0", "trial": 5, "time_elapsed": 1001827, "serialpos": 13, "key_press": -1, "wordID": 466, "type": "PRES_VIS", "trial_index": 222}, "uniqueid": "MTK3007:3VJ40NV2QJUQZUAM9LPP67IS4AOTON", "dateTime": 1519668070601}, {"current_trial": 223, "trialdata": {"rt": -1, "trial_type": "single-stim", "word": "infant", "stimulus": "<p id=\"stim\">INFANT</p>", "conditions": [24, 1600, "v", 12000], "internal_node_id": "0.0-169.0", "trial": 5, "time_elapsed": 1004594, "serialpos": 14, "key_press": -1, "wordID": 736, "type": "PRES_VIS", "trial_index": 223}, "uniqueid": "MTK3007:3VJ40NV2QJUQZUAM9LPP67IS4AOTON", "dateTime": 1519668073368}, {"current_trial": 224, "trialdata": {"rt": -1, "trial_type": "single-stim", "word": "asia", "stimulus": "<p id=\"stim\">ASIA</p>", "conditions": [24, 1600, "v", 12000], "internal_node_id": "0.0-170.0", "trial": 5, "time_elapsed": 1007029, "serialpos": 15, "key_press": -1, "wordID": 45, "type": "PRES_VIS", "trial_index": 224}, "uniqueid": "MTK3007:3VJ40NV2QJUQZUAM9LPP67IS4AOTON", "dateTime": 1519668075803}, {"current_trial": 225, "trialdata": {"rt": -1, "trial_type": "single-stim", "word": "mailman", "stimulus": "<p id=\"stim\">MAILMAN</p>", "conditions": [24, 1600, "v", 12000], "internal_node_id": "0.0-171.0", "trial": 5, "time_elapsed": 1009792, "serialpos": 16, "key_press": -1, "wordID": 857, "type": "PRES_VIS", "trial_index": 225}, "uniqueid": "MTK3007:3VJ40NV2QJUQZUAM9LPP67IS4AOTON", "dateTime": 1519668078566}, {"current_trial": 226, "trialdata": {"rt": -1, "trial_type": "single-stim", "word": "cookbook", "stimulus": "<p id=\"stim\">COOKBOOK</p>", "conditions": [24, 1600, "v", 12000], "internal_node_id": "0.0-172.0", "trial": 5, "time_elapsed": 1012455, "serialpos": 17, "key_press": -1, "wordID": 372, "type": "PRES_VIS", "trial_index": 226}, "uniqueid": "MTK3007:3VJ40NV2QJUQZUAM9LPP67IS4AOTON", "dateTime": 1519668081229}, {"current_trial": 227, "trialdata": {"rt": -1, "trial_type": "single-stim", "word": "catcher", "stimulus": "<p id=\"stim\">CATCHER</p>", "conditions": [24, 1600, "v", 12000], "internal_node_id": "0.0-173.0", "trial": 5, "time_elapsed": 1014870, "serialpos": 18, "key_press": -1, "wordID": 257, "type": "PRES_VIS", "trial_index": 227}, "uniqueid": "MTK3007:3VJ40NV2QJUQZUAM9LPP67IS4AOTON", "dateTime": 1519668083644}, {"current_trial": 228, "trialdata": {"rt": -1, "trial_type": "single-stim", "word": "ozone", "stimulus": "<p id=\"stim\">OZONE</p>", "conditions": [24, 1600, "v", 12000], "internal_node_id": "0.0-174.0", "trial": 5, "time_elapsed": 1017407, "serialpos": 19, "key_press": -1, "wordID": 995, "type": "PRES_VIS", "trial_index": 228}, "uniqueid": "MTK3007:3VJ40NV2QJUQZUAM9LPP67IS4AOTON", "dateTime": 1519668086182}, {"current_trial": 229, "trialdata": {"rt": -1, "trial_type": "single-stim", "word": "smog", "stimulus": "<p id=\"stim\">SMOG</p>", "conditions": [24, 1600, "v", 12000], "internal_node_id": "0.0-175.0", "trial": 5, "time_elapsed": 1020121, "serialpos": 20, "key_press": -1, "wordID": 1329, "type": "PRES_VIS", "trial_index": 229}, "uniqueid": "MTK3007:3VJ40NV2QJUQZUAM9LPP67IS4AOTON", "dateTime": 1519668088895}, {"current_trial": 230, "trialdata": {"rt": -1, "trial_type": "single-stim", "word": "cafe", "stimulus": "<p id=\"stim\">CAFE</p>", "conditions": [24, 1600, "v", 12000], "internal_node_id": "0.0-176.0", "trial": 5, "time_elapsed": 1022721, "serialpos": 21, "key_press": -1, "wordID": 215, "type": "PRES_VIS", "trial_index": 230}, "uniqueid": "MTK3007:3VJ40NV2QJUQZUAM9LPP67IS4AOTON", "dateTime": 1519668091495}, {"current_trial": 231, "trialdata": {"rt": -1, "trial_type": "single-stim", "word": "trombone", "stimulus": "<p id=\"stim\">TROMBONE</p>", "conditions": [24, 1600, "v", 12000], "internal_node_id": "0.0-177.0", "trial": 5, "time_elapsed": 1025321, "serialpos": 22, "key_press": -1, "wordID": 1507, "type": "PRES_VIS", "trial_index": 231}, "uniqueid": "MTK3007:3VJ40NV2QJUQZUAM9LPP67IS4AOTON", "dateTime": 1519668094095}, {"current_trial": 232, "trialdata": {"rt": -1, "trial_type": "single-stim", "word": "poet", "stimulus": "<p id=\"stim\">POET</p>", "conditions": [24, 1600, "v", 12000], "internal_node_id": "0.0-178.0", "trial": 5, "time_elapsed": 1027792, "serialpos": 23, "key_press": -1, "wordID": 1094, "type": "PRES_VIS", "trial_index": 232}, "uniqueid": "MTK3007:3VJ40NV2QJUQZUAM9LPP67IS4AOTON", "dateTime": 1519668096566}, {"current_trial": 233, "trialdata": {"rt": -1, "trial_type": "single-stim", "stimulus": "", "internal_node_id": "0.0-179.0-0.0", "time_elapsed": 1030198, "key_press": -1, "type": "PRE_RECALL_DELAY", "trial_index": 233}, "uniqueid": "MTK3007:3VJ40NV2QJUQZUAM9LPP67IS4AOTON", "dateTime": 1519668098973}, {"current_trial": 234, "trialdata": {"rt": -1000, "trial_type": "single-audio", "stimulus": "/static/audio/400Hz.wav", "internal_node_id": "0.0-180.0", "time_elapsed": 1030700, "key_press": -1, "type": "PRE_RECALL_ALERT", "trial_index": 234}, "uniqueid": "MTK3007:3VJ40NV2QJUQZUAM9LPP67IS4AOTON", "dateTime": 1519668099475}, {"current_trial": 235, "trialdata": {"rt": [3666, 6242, 8357, 11469, 12984, 14698, 20258, 25603, 30954, 34402, 39101, 42318, 52293], "recwords": ["oyster", "gangster", "fox", "supper", "diner", "wrench", "tombstone", "cookbook", "world", "country", "smog", "ozone", "infant"], "key_times": [1648, 1907, 2091, 2221, 2346, 2545, 3666, 4245, 4377, 4519, 5194, 5306, 5500, 5650, 5831, 6242, 7515, 7673, 7879, 8357, 10464, 10609, 10833, 10975, 11038, 11183, 11469, 12062, 12180, 12365, 12478, 12638, 12984, 13596, 13877, 14047, 14192, 14334, 14432, 14698, 18001, 18116, 18311, 18533, 18633, 18863, 18954, 19450, 19610, 20258, 22310, 22441, 22583, 22761, 23145, 23285, 23430, 23616, 23903, 24042, 24185, 24316, 24853, 24968, 25115, 25284, 25603, 29955, 30083, 30263, 30372, 30547, 30954, 32968, 33054, 33257, 33418, 33538, 33698, 33786, 34402, 38137, 38309, 38498, 38645, 39101, 41387, 41581, 41707, 41937, 42082, 42318, 51142, 51332, 51469, 51661, 51775, 51940, 52293, 59377, 59453, 59647, 59806], "trial_type": "free-recall", "conditions": [24, 1600, "v", 12000], "internal_node_id": "0.0-181.0-0.0", "key_presses": [79, 89, 83, 84, 69, 82, 13, 71, 65, 78, 71, 83, 84, 69, 82, 13, 70, 79, 88, 13, 83, 85, 80, 80, 69, 82, 13, 68, 73, 78, 69, 82, 13, 87, 82, 69, 78, 67, 72, 13, 84, 79, 77, 66, 83, 84, 79, 78, 69, 13, 67, 79, 79, 75, 67, 79, 79, 75, 8, 8, 8, 8, 66, 79, 79, 75, 13, 87, 79, 82, 76, 68, 13, 67, 79, 85, 78, 84, 82, 89, 13, 83, 77, 79, 71, 13, 79, 90, 79, 78, 69, 13, 73, 78, 70, 65, 78, 84, 13, 77, 65, 73, 76], "trial": 5, "time_elapsed": 1090703, "type": "FREE_RECALL", "trial_index": 235}, "uniqueid": "MTK3007:3VJ40NV2QJUQZUAM9LPP67IS4AOTON", "dateTime": 1519668159482}, {"current_trial": 236, "trialdata": {"rt": 2623, "trial_type": "text", "internal_node_id": "0.0-182.0", "time_elapsed": 1095334, "key_press": 13, "type": "INSTRUCTIONS", "trial_index": 236}, "uniqueid": "MTK3007:3VJ40NV2QJUQZUAM9LPP67IS4AOTON", "dateTime": 1519668164108}, {"current_trial": 237, "trialdata": {"rt": [3727, 6645, 11254, 15000, 18211, 23854], "trial_type": "math-distractor", "key_times": [3057, 3390, 3727, 6401, 6645, 10111, 10760, 11254, 14341, 14712, 15000, 17850, 18034, 18211, 23306, 23605, 23854], "responses": ["15", "8", "13", "15", "21", "17"], "num2": [6, 2, 7, 2, 8, 6, 4], "num3": [5, 2, 1, 8, 5, 7, 9], "conditions": [24, 1600, "v", 24000], "internal_node_id": "0.0-183.0", "key_presses": [49, 53, 13, 56, 13, 49, 51, 13, 49, 53, 13, 50, 49, 13, 49, 55, 13], "trial": 6, "time_elapsed": 1121337, "type": "DISTRACTOR", "trial_index": 237, "num1": [4, 4, 5, 5, 8, 4, 9]}, "uniqueid": "MTK3007:3VJ40NV2QJUQZUAM9LPP67IS4AOTON", "dateTime": 1519668190111}, {"current_trial": 238, "trialdata": {"rt": -1, "trial_type": "single-stim", "stimulus": "<p id=\"stim\">10</p>", "internal_node_id": "0.0-184.0-0.0", "time_elapsed": 1124340, "key_press": -1, "trial_index": 238}, "uniqueid": "MTK3007:3VJ40NV2QJUQZUAM9LPP67IS4AOTON", "dateTime": 1519668193114}, {"current_trial": 239, "trialdata": {"rt": -1, "trial_type": "single-stim", "stimulus": "<p id=\"stim\">9</p>", "internal_node_id": "0.0-184.0-1.0", "time_elapsed": 1125342, "key_press": -1, "trial_index": 239}, "uniqueid": "MTK3007:3VJ40NV2QJUQZUAM9LPP67IS4AOTON", "dateTime": 1519668194116}, {"current_trial": 240, "trialdata": {"rt": -1, "trial_type": "single-stim", "stimulus": "<p id=\"stim\">8</p>", "internal_node_id": "0.0-184.0-2.0", "time_elapsed": 1126344, "key_press": -1, "trial_index": 240}, "uniqueid": "MTK3007:3VJ40NV2QJUQZUAM9LPP67IS4AOTON", "dateTime": 1519668195118}, {"current_trial": 241, "trialdata": {"rt": -1, "trial_type": "single-stim", "stimulus": "<p id=\"stim\">7</p>", "internal_node_id": "0.0-184.0-3.0", "time_elapsed": 1127346, "key_press": -1, "trial_index": 241}, "uniqueid": "MTK3007:3VJ40NV2QJUQZUAM9LPP67IS4AOTON", "dateTime": 1519668196120}, {"current_trial": 242, "trialdata": {"rt": -1, "trial_type": "single-stim", "stimulus": "<p id=\"stim\">6</p>", "internal_node_id": "0.0-184.0-4.0", "time_elapsed": 1128349, "key_press": -1, "trial_index": 242}, "uniqueid": "MTK3007:3VJ40NV2QJUQZUAM9LPP67IS4AOTON", "dateTime": 1519668197123}, {"current_trial": 243, "trialdata": {"rt": -1, "trial_type": "single-stim", "stimulus": "<p id=\"stim\">5</p>", "internal_node_id": "0.0-184.0-5.0", "time_elapsed": 1129350, "key_press": -1, "trial_index": 243}, "uniqueid": "MTK3007:3VJ40NV2QJUQZUAM9LPP67IS4AOTON", "dateTime": 1519668198125}, {"current_trial": 244, "trialdata": {"rt": -1, "trial_type": "single-stim", "stimulus": "<p id=\"stim\">4</p>", "internal_node_id": "0.0-184.0-6.0", "time_elapsed": 1130353, "key_press": -1, "trial_index": 244}, "uniqueid": "MTK3007:3VJ40NV2QJUQZUAM9LPP67IS4AOTON", "dateTime": 1519668199127}, {"current_trial": 245, "trialdata": {"rt": -1, "trial_type": "single-stim", "stimulus": "<p id=\"stim\">3</p>", "internal_node_id": "0.0-184.0-7.0", "time_elapsed": 1131355, "key_press": -1, "trial_index": 245}, "uniqueid": "MTK3007:3VJ40NV2QJUQZUAM9LPP67IS4AOTON", "dateTime": 1519668200130}, {"current_trial": 246, "trialdata": {"rt": -1, "trial_type": "single-stim", "stimulus": "<