{"assignmentId": "3QFUFYSY9ZMCCWI3VH5RB5XMXMMF4M", "workerId": "MTK3616", "questiondata": {"origin": "United States", "strat-rehearsal": "29", "marital": "Single", "education": "High school diploma", "ethnicity": "Not Hispanic", "color_depth": 24, "distracted": "No", "wrote-notes": "No", "strat-other": "", "screen_width": 1366, "avail_screen_width": 1366, "avail_screen_height": 728, "strat-image": "67", "language": "English", "gender": "Female", "age": "38", "gender_other": "", "race": ["Black"], "strat-categorize": "56", "pixel_depth": 24, "strat-spatial": "72", "strat-story": "54", "race_other": "", "screen_height": 768}, "bonus": 0, "hitId": "3HEADTGN2PZ6MF8XG616C0FYSHKVRD", "counterbalance": 951, "useragent": "Mozilla/5.0 (Windows NT 10.0; Win64; x64) AppleWebKit/537.36 (KHTML, like Gecko) Chrome/64.0.3282.186 Safari/537.36", "eventdata": [{"eventtype": "initialized", "interval": 0, "value": null, "timestamp": 1520809893177}, {"eventtype": "window_resize", "interval": 0, "value": [1366, 721], "timestamp": 1520809893177}, {"eventtype": "focus", "interval": 16880, "value": "off", "timestamp": 1520809910057}, {"eventtype": "focus", "interval": 6541, "value": "on", "timestamp": 1520809916598}, {"eventtype": "focus", "interval": 269899, "value": "off", "timestamp": 1520810186497}, {"eventtype": "focus", "interval": 4935, "value": "on", "timestamp": 1520810191432}], "data": [{"current_trial": 0, "trialdata": {"rt": 5552, "trial_type": "text", "internal_node_id": "0.0-0.0", "time_elapsed": 5557, "key_press": 75, "type": "INSTRUCTIONS", "trial_index": 0}, "uniqueid": "MTK3616:3QFUFYSY9ZMCCWI3VH5RB5XMXMMF4M", "dateTime": 1520809917798}, {"current_trial": 1, "trialdata": {"rt": 251347, "trial_type": "text", "internal_node_id": "0.0-1.0", "time_elapsed": 256908, "key_press": 32, "type": "INSTRUCTIONS", "trial_index": 1}, "uniqueid": "MTK3616:3QFUFYSY9ZMCCWI3VH5RB5XMXMMF4M", "dateTime": 1520810169148}, {"current_trial": 2, "trialdata": {"rt": [6593], "trial_type": "audio-test", "responses": ["ocean"], "internal_node_id": "0.0-2.0", "time_elapsed": 263835, "type": "AUDIO_TEST", "trial_index": 2}, "uniqueid": "MTK3616:3QFUFYSY9ZMCCWI3VH5RB5XMXMMF4M", "dateTime": 1520810176076}, {"current_trial": 3, "trialdata": {"rt": [16065], "trial_type": "audio-test", "responses": ["crystal"], "internal_node_id": "0.0-3.0", "time_elapsed": 279912, "type": "AUDIO_TEST", "trial_index": 3}, "uniqueid": "MTK3616:3QFUFYSY9ZMCCWI3VH5RB5XMXMMF4M", "dateTime": 1520810192152}, {"current_trial": 4, "trialdata": {"rt": [7678], "trial_type": "audio-test", "responses": ["spice"], "internal_node_id": "0.0-4.0", "time_elapsed": 287600, "type": "AUDIO_TEST", "trial_index": 4}, "uniqueid": "MTK3616:3QFUFYSY9ZMCCWI3VH5RB5XMXMMF4M", "dateTime": 1520810199840}, {"current_trial": 5, "trialdata": {"rt": 27506, "trial_type": "survey-text", "responses": "{\"Q0\":\"10:00\",\"Q1\":\"9:45\",\"Q2\":\"5\"}", "internal_node_id": "0.0-5.0", "time_elapsed": 315860, "type": "SLEEP_SURVEY", "trial_index": 5}, "uniqueid": "MTK3616:3QFUFYSY9ZMCCWI3VH5RB5XMXMMF4M", "dateTime": 1520810228100}, {"current_trial": 6, "trialdata": {"rt": 54494, "trial_type": "text", "internal_node_id": "0.0-6.0", "time_elapsed": 371359, "key_press": 32, "type": "INSTRUCTIONS", "trial_index": 6}, "uniqueid": "MTK3616:3QFUFYSY9ZMCCWI3VH5RB5XMXMMF4M", "dateTime": 1520810283599}, {"current_trial": 7, "trialdata": {"rt": 26433, "trial_type": "text", "internal_node_id": "0.0-7.0", "time_elapsed": 398294, "key_press": 32, "type": "INSTRUCTIONS", "trial_index": 7}, "uniqueid": "MTK3616:3QFUFYSY9ZMCCWI3VH5RB5XMXMMF4M", "dateTime": 1520810310534}, {"current_trial": 8, "trialdata": {"rt": 29287, "trial_type": "text", "internal_node_id": "0.0-8.0", "time_elapsed": 428083, "key_press": 32, "type": "INSTRUCTIONS", "trial_index": 8}, "uniqueid": "MTK3616:3QFUFYSY9ZMCCWI3VH5RB5XMXMMF4M", "dateTime": 1520810340325}, {"current_trial": 9, "trialdata": {"rt": [9840, 15174], "trial_type": "math-distractor", "key_times": [8450, 9025, 9840, 14043, 14363, 15174], "responses": ["18", "12"], "num2": [7, 8, 3], "num3": [5, 1, 4], "conditions": [18, 1200, "a", 18000], "internal_node_id": "0.0-9.0", "key_presses": [49, 56, 13, 49, 50, 13], "trial": 0, "time_elapsed": 447096, "type": "DISTRACTOR", "trial_index": 9, "num1": [6, 3, 1]}, "uniqueid": "MTK3616:3QFUFYSY9ZMCCWI3VH5RB5XMXMMF4M", "dateTime": 1520810359336}, {"current_trial": 10, "trialdata": {"rt": -1, "trial_type": "single-stim", "stimulus": "<p id=\"stim\">10</p>", "internal_node_id": "0.0-10.0-0.0", "time_elapsed": 450103, "key_press": -1, "trial_index": 10}, "uniqueid": "MTK3616:3QFUFYSY9ZMCCWI3VH5RB5XMXMMF4M", "dateTime": 1520810362344}, {"current_trial": 11, "trialdata": {"rt": -1, "trial_type": "single-stim", "stimulus": "<p id=\"stim\">9</p>", "internal_node_id": "0.0-10.0-1.0", "time_elapsed": 451107, "key_press": -1, "trial_index": 11}, "uniqueid": "MTK3616:3QFUFYSY9ZMCCWI3VH5RB5XMXMMF4M", "dateTime": 1520810363347}, {"current_trial": 12, "trialdata": {"rt": -1, "trial_type": "single-stim", "stimulus": "<p id=\"stim\">8</p>", "internal_node_id": "0.0-10.0-2.0", "time_elapsed": 452110, "key_press": -1, "trial_index": 12}, "uniqueid": "MTK3616:3QFUFYSY9ZMCCWI3VH5RB5XMXMMF4M", "dateTime": 1520810364350}, {"current_trial": 13, "trialdata": {"rt": -1, "trial_type": "single-stim", "stimulus": "<p id=\"stim\">7</p>", "internal_node_id": "0.0-10.0-3.0", "time_elapsed": 453113, "key_press": -1, "trial_index": 13}, "uniqueid": "MTK3616:3QFUFYSY9ZMCCWI3VH5RB5XMXMMF4M", "dateTime": 1520810365353}, {"current_trial": 14, "trialdata": {"rt": -1, "trial_type": "single-stim", "stimulus": "<p id=\"stim\">6</p>", "internal_node_id": "0.0-10.0-4.0", "time_elapsed": 454114, "key_press": -1, "trial_index": 14}, "uniqueid": "MTK3616:3QFUFYSY9ZMCCWI3VH5RB5XMXMMF4M", "dateTime": 1520810366354}, {"current_trial": 15, "trialdata": {"rt": -1, "trial_type": "single-stim", "stimulus": "<p id=\"stim\">5</p>", "internal_node_id": "0.0-10.0-5.0", "time_elapsed": 455117, "key_press": -1, "trial_index": 15}, "uniqueid": "MTK3616:3QFUFYSY9ZMCCWI3VH5RB5XMXMMF4M", "dateTime": 1520810367357}, {"current_trial": 16, "trialdata": {"rt": -1, "trial_type": "single-stim", "stimulus": "<p id=\"stim\">4</p>", "internal_node_id": "0.0-10.0-6.0", "time_elapsed": 456120, "key_press": -1, "trial_index": 16}, "uniqueid": "MTK3616:3QFUFYSY9ZMCCWI3VH5RB5XMXMMF4M", "dateTime": 1520810368361}, {"current_trial": 17, "trialdata": {"rt": -1, "trial_type": "single-stim", "stimulus": "<p id=\"stim\">3</p>", "internal_node_id": "0.0-10.0-7.0", "time_elapsed": 457122, "key_press": -1, "trial_index": 17}, "uniqueid": "MTK3616:3QFUFYSY9ZMCCWI3VH5RB5XMXMMF4M", "dateTime": 1520810369362}, {"current_trial": 18, "trialdata": {"rt": -1, "trial_type": "single-stim", "stimulus": "<p id=\"stim\">2</p>", "internal_node_id": "0.0-10.0-8.0", "time_elapsed": 458127, "key_press": -1, "trial_index": 18}, "uniqueid": "MTK3616:3QFUFYSY9ZMCCWI3VH5RB5XMXMMF4M", "dateTime": 1520810370367}, {"current_trial": 19, "trialdata": {"rt": -1, "trial_type": "single-stim", "stimulus": "<p id=\"stim\">1</p>", "internal_node_id": "0.0-10.0-9.0", "time_elapsed": 459128, "key_press": -1, "trial_index": 19}, "uniqueid": "MTK3616:3QFUFYSY9ZMCCWI3VH5RB5XMXMMF4M", "dateTime": 1520810371368}, {"current_trial": 20, "trialdata": {"rt": -1, "trial_type": "single-stim", "stimulus": "<p id=\"stim\">+</p>", "internal_node_id": "0.0-11.0-0.0", "time_elapsed": 460632, "key_press": -1, "type": "FIXATION", "trial_index": 20}, "uniqueid": "MTK3616:3QFUFYSY9ZMCCWI3VH5RB5XMXMMF4M", "dateTime": 1520810372872}, {"current_trial": 21, "trialdata": {"rt": -1000, "trial_type": "single-audio", "word": "peach", "stimulus": "/static/audio/wordpool/PEACH.wav", "conditions": [18, 1200, "a", 18000], "internal_node_id": "0.0-12.0", "trial": 0, "time_elapsed": 462746, "serialpos": 0, "key_press": -1, "wordID": 1030, "type": "PRES_AUD", "trial_index": 21}, "uniqueid": "MTK3616:3QFUFYSY9ZMCCWI3VH5RB5XMXMMF4M", "dateTime": 1520810374986}, {"current_trial": 22, "trialdata": {"rt": -1000, "trial_type": "single-audio", "word": "banjo", "stimulus": "/static/audio/wordpool/BANJO.wav", "conditions": [18, 1200, "a", 18000], "internal_node_id": "0.0-13.0", "trial": 0, "time_elapsed": 465024, "serialpos": 1, "key_press": -1, "wordID": 81, "type": "PRES_AUD", "trial_index": 22}, "uniqueid": "MTK3616:3QFUFYSY9ZMCCWI3VH5RB5XMXMMF4M", "dateTime": 1520810377264}, {"current_trial": 23, "trialdata": {"rt": -1000, "trial_type": "single-audio", "word": "shorts", "stimulus": "/static/audio/wordpool/SHORTS.wav", "conditions": [18, 1200, "a", 18000], "internal_node_id": "0.0-14.0", "trial": 0, "time_elapsed": 467208, "serialpos": 2, "key_press": -1, "wordID": 1292, "type": "PRES_AUD", "trial_index": 23}, "uniqueid": "MTK3616:3QFUFYSY9ZMCCWI3VH5RB5XMXMMF4M", "dateTime": 1520810379450}, {"current_trial": 24, "trialdata": {"rt": -1000, "trial_type": "single-audio", "word": "table", "stimulus": "/static/audio/wordpool/TABLE.wav", "conditions": [18, 1200, "a", 18000], "internal_node_id": "0.0-15.0", "trial": 0, "time_elapsed": 469573, "serialpos": 3, "key_press": -1, "wordID": 1425, "type": "PRES_AUD", "trial_index": 24}, "uniqueid": "MTK3616:3QFUFYSY9ZMCCWI3VH5RB5XMXMMF4M", "dateTime": 1520810381813}, {"current_trial": 25, "trialdata": {"rt": -1000, "trial_type": "single-audio", "word": "stream", "stimulus": "/static/audio/wordpool/STREAM.wav", "conditions": [18, 1200, "a", 18000], "internal_node_id": "0.0-16.0", "trial": 0, "time_elapsed": 471671, "serialpos": 4, "key_press": -1, "wordID": 1391, "type": "PRES_AUD", "trial_index": 25}, "uniqueid": "MTK3616:3QFUFYSY9ZMCCWI3VH5RB5XMXMMF4M", "dateTime": 1520810383911}, {"current_trial": 26, "trialdata": {"rt": -1000, "trial_type": "single-audio", "word": "rocket", "stimulus": "/static/audio/wordpool/ROCKET.wav", "conditions": [18, 1200, "a", 18000], "internal_node_id": "0.0-17.0", "trial": 0, "time_elapsed": 473998, "serialpos": 5, "key_press": -1, "wordID": 1201, "type": "PRES_AUD", "trial_index": 26}, "uniqueid": "MTK3616:3QFUFYSY9ZMCCWI3VH5RB5XMXMMF4M", "dateTime": 1520810386240}, {"current_trial": 27, "trialdata": {"rt": -1000, "trial_type": "single-audio", "word": "seal", "stimulus": "/static/audio/wordpool/SEAL.wav", "conditions": [18, 1200, "a", 18000], "internal_node_id": "0.0-18.0", "trial": 0, "time_elapsed": 476254, "serialpos": 6, "key_press": -1, "wordID": 1261, "type": "PRES_AUD", "trial_index": 27}, "uniqueid": "MTK3616:3QFUFYSY9ZMCCWI3VH5RB5XMXMMF4M", "dateTime": 1520810388494}, {"current_trial": 28, "trialdata": {"rt": -1000, "trial_type": "single-audio", "word": "concert", "stimulus": "/static/audio/wordpool/CONCERT.wav", "conditions": [18, 1200, "a", 18000], "internal_node_id": "0.0-19.0", "trial": 0, "time_elapsed": 478351, "serialpos": 7, "key_press": -1, "wordID": 359, "type": "PRES_AUD", "trial_index": 28}, "uniqueid": "MTK3616:3QFUFYSY9ZMCCWI3VH5RB5XMXMMF4M", "dateTime": 1520810390591}, {"current_trial": 29, "trialdata": {"rt": -1000, "trial_type": "single-audio", "word": "lace", "stimulus": "/static/audio/wordpool/LACE.wav", "conditions": [18, 1200, "a", 18000], "internal_node_id": "0.0-20.0", "trial": 0, "time_elapsed": 480686, "serialpos": 8, "key_press": -1, "wordID": 791, "type": "PRES_AUD", "trial_index": 29}, "uniqueid": "MTK3616:3QFUFYSY9ZMCCWI3VH5RB5XMXMMF4M", "dateTime": 1520810392926}, {"current_trial": 30, "trialdata": {"rt": -1000, "trial_type": "single-audio", "word": "hiker", "stimulus": "/static/audio/wordpool/HIKER.wav", "conditions": [18, 1200, "a", 18000], "internal_node_id": "0.0-21.0", "trial": 0, "time_elapsed": 482793, "serialpos": 9, "key_press": -1, "wordID": 707, "type": "PRES_AUD", "trial_index": 30}, "uniqueid": "MTK3616:3QFUFYSY9ZMCCWI3VH5RB5XMXMMF4M", "dateTime": 1520810395033}, {"current_trial": 31, "trialdata": {"rt": -1000, "trial_type": "single-audio", "word": "atlas", "stimulus": "/static/audio/wordpool/ATLAS.wav", "conditions": [18, 1200, "a", 18000], "internal_node_id": "0.0-22.0", "trial": 0, "time_elapsed": 484931, "serialpos": 10, "key_press": -1, "wordID": 52, "type": "PRES_AUD", "trial_index": 31}, "uniqueid": "MTK3616:3QFUFYSY9ZMCCWI3VH5RB5XMXMMF4M", "dateTime": 1520810397171}, {"current_trial": 32, "trialdata": {"rt": -1000, "trial_type": "single-audio", "word": "puddle", "stimulus": "/static/audio/wordpool/PUDDLE.wav", "conditions": [18, 1200, "a", 18000], "internal_node_id": "0.0-23.0", "trial": 0, "time_elapsed": 487071, "serialpos": 11, "key_press": -1, "wordID": 1139, "type": "PRES_AUD", "trial_index": 32}, "uniqueid": "MTK3616:3QFUFYSY9ZMCCWI3VH5RB5XMXMMF4M", "dateTime": 1520810399311}, {"current_trial": 33, "trialdata": {"rt": -1000, "trial_type": "single-audio", "word": "europe", "stimulus": "/static/audio/wordpool/EUROPE.wav", "conditions": [18, 1200, "a", 18000], "internal_node_id": "0.0-24.0", "trial": 0, "time_elapsed": 489392, "serialpos": 12, "key_press": -1, "wordID": 540, "type": "PRES_AUD", "trial_index": 33}, "uniqueid": "MTK3616:3QFUFYSY9ZMCCWI3VH5RB5XMXMMF4M", "dateTime": 1520810401632}, {"current_trial": 34, "trialdata": {"rt": -1000, "trial_type": "single-audio", "word": "marine", "stimulus": "/static/audio/wordpool/MARINE.wav", "conditions": [18, 1200, "a", 18000], "internal_node_id": "0.0-25.0", "trial": 0, "time_elapsed": 491778, "serialpos": 13, "key_press": -1, "wordID": 868, "type": "PRES_AUD", "trial_index": 34}, "uniqueid": "MTK3616:3QFUFYSY9ZMCCWI3VH5RB5XMXMMF4M", "dateTime": 1520810404019}, {"current_trial": 35, "trialdata": {"rt": -1000, "trial_type": "single-audio", "word": "partner", "stimulus": "/static/audio/wordpool/PARTNER.wav", "conditions": [18, 1200, "a", 18000], "internal_node_id": "0.0-26.0", "trial": 0, "time_elapsed": 494117, "serialpos": 14, "key_press": -1, "wordID": 1016, "type": "PRES_AUD", "trial_index": 35}, "uniqueid": "MTK3616:3QFUFYSY9ZMCCWI3VH5RB5XMXMMF4M", "dateTime": 1520810406357}, {"current_trial": 36, "trialdata": {"rt": -1000, "trial_type": "single-audio", "word": "drink", "stimulus": "/static/audio/wordpool/DRINK.wav", "conditions": [18, 1200, "a", 18000], "internal_node_id": "0.0-27.0", "trial": 0, "time_elapsed": 496515, "serialpos": 15, "key_press": -1, "wordID": 497, "type": "PRES_AUD", "trial_index": 36}, "uniqueid": "MTK3616:3QFUFYSY9ZMCCWI3VH5RB5XMXMMF4M", "dateTime": 1520810408755}, {"current_trial": 37, "trialdata": {"rt": -1000, "trial_type": "single-audio", "word": "mailbox", "stimulus": "/static/audio/wordpool/MAILBOX.wav", "conditions": [18, 1200, "a", 18000], "internal_node_id": "0.0-28.0", "trial": 0, "time_elapsed": 498668, "serialpos": 16, "key_press": -1, "wordID": 856, "type": "PRES_AUD", "trial_index": 37}, "uniqueid": "MTK3616:3QFUFYSY9ZMCCWI3VH5RB5XMXMMF4M", "dateTime": 1520810410908}, {"current_trial": 38, "trialdata": {"rt": -1000, "trial_type": "single-audio", "word": "barrel", "stimulus": "/static/audio/wordpool/BARREL.wav", "conditions": [18, 1200, "a", 18000], "internal_node_id": "0.0-29.0", "trial": 0, "time_elapsed": 500976, "serialpos": 17, "key_press": -1, "wordID": 90, "type": "PRES_AUD", "trial_index": 38}, "uniqueid": "MTK3616:3QFUFYSY9ZMCCWI3VH5RB5XMXMMF4M", "dateTime": 1520810413216}, {"current_trial": 39, "trialdata": {"rt": -1, "trial_type": "single-stim", "stimulus": "", "internal_node_id": "0.0-30.0-0.0", "time_elapsed": 502244, "key_press": -1, "type": "PRE_RECALL_DELAY", "trial_index": 39}, "uniqueid": "MTK3616:3QFUFYSY9ZMCCWI3VH5RB5XMXMMF4M", "dateTime": 1520810414484}, {"current_trial": 40, "trialdata": {"rt": -1000, "trial_type": "single-audio", "stimulus": "/static/audio/400Hz.wav", "internal_node_id": "0.0-31.0", "time_elapsed": 502752, "key_press": -1, "type": "PRE_RECALL_ALERT", "trial_index": 40}, "uniqueid": "MTK3616:3QFUFYSY9ZMCCWI3VH5RB5XMXMMF4M", "dateTime": 1520810414992}, {"current_trial": 41, "trialdata": {"rt": [3920, 6035, 9053, 11779, 16621, 34135, 37440, 43086], "recwords": ["marine", "barrel", "rocket", "mailbox", "ocean", "peach", "table", "shorts"], "key_times": [2346, 2416, 2555, 2643, 2827, 3161, 3920, 4613, 4762, 4995, 5129, 5632, 5754, 6035, 7963, 8060, 8308, 8378, 8518, 8799, 9053, 9588, 9647, 9996, 10139, 11096, 11156, 11340, 11779, 15673, 15862, 16033, 16176, 16287, 16621, 33312, 33437, 33562, 33783, 33864, 34135, 36577, 36724, 36918, 37036, 37155, 37440, 42052, 42158, 42288, 42432, 42601, 42803, 43086, 59569, 59735, 59847, 59999], "trial_type": "free-recall", "conditions": [18, 1200, "a", 18000], "internal_node_id": "0.0-32.0-0.0", "key_presses": [77, 65, 82, 73, 78, 69, 13, 66, 65, 82, 82, 69, 76, 13, 82, 79, 67, 75, 69, 84, 13, 77, 65, 73, 76, 66, 79, 88, 13, 79, 67, 69, 65, 78, 13, 80, 69, 65, 67, 72, 13, 84, 65, 66, 76, 69, 13, 83, 72, 79, 82, 84, 83, 13, 80, 65, 82, 84], "trial": 0, "time_elapsed": 562764, "type": "FREE_RECALL", "trial_index": 41}, "uniqueid": "MTK3616:3QFUFYSY9ZMCCWI3VH5RB5XMXMMF4M", "dateTime": 1520810475058}, {"current_trial": 42, "trialdata": {"rt": 2032, "trial_type": "text", "internal_node_id": "0.0-33.0", "time_elapsed": 566854, "key_press": 32, "type": "INSTRUCTIONS", "trial_index": 42}, "uniqueid": "MTK3616:3QFUFYSY9ZMCCWI3VH5RB5XMXMMF4M", "dateTime": 1520810479094}, {"current_trial": 43, "trialdata": {"rt": [5182, 9690, 14603], "trial_type": "math-distractor", "key_times": [3986, 4547, 5182, 8920, 9057, 9690, 13798, 14005, 14603, 17935], "responses": ["18", "22", "21"], "num2": [3, 9, 3, 7], "num3": [8, 7, 8, 2], "conditions": [18, 1200, "a", 18000], "internal_node_id": "0.0-34.0", "key_presses": [49, 56, 13, 50, 50, 13, 50, 49, 13, 49], "trial": 1, "time_elapsed": 586860, "type": "DISTRACTOR", "trial_index": 43, "num1": [7, 6, 9, 8]}, "uniqueid": "MTK3616:3QFUFYSY9ZMCCWI3VH5RB5XMXMMF4M", "dateTime": 1520810499100}, {"current_trial": 44, "trialdata": {"rt": -1, "trial_type": "single-stim", "stimulus": "<p id=\"stim\">10</p>", "internal_node_id": "0.0-35.0-0.0", "time_elapsed": 589865, "key_press": -1, "trial_index": 44}, "uniqueid": "MTK3616:3QFUFYSY9ZMCCWI3VH5RB5XMXMMF4M", "dateTime": 1520810502105}, {"current_trial": 45, "trialdata": {"rt": -1, "trial_type": "single-stim", "stimulus": "<p id=\"stim\">9</p>", "internal_node_id": "0.0-35.0-1.0", "time_elapsed": 590869, "key_press": -1, "trial_index": 45}, "uniqueid": "MTK3616:3QFUFYSY9ZMCCWI3VH5RB5XMXMMF4M", "dateTime": 1520810503109}, {"current_trial": 46, "trialdata": {"rt": -1, "trial_type": "single-stim", "stimulus": "<p id=\"stim\">8</p>", "internal_node_id": "0.0-35.0-2.0", "time_elapsed": 591871, "key_press": -1, "trial_index": 46}, "uniqueid": "MTK3616:3QFUFYSY9ZMCCWI3VH5RB5XMXMMF4M", "dateTime": 1520810504111}, {"current_trial": 47, "trialdata": {"rt": -1, "trial_type": "single-stim", "stimulus": "<p id=\"stim\">7</p>", "internal_node_id": "0.0-35.0-3.0", "time_elapsed": 592871, "key_press": -1, "trial_index": 47}, "uniqueid": "MTK3616:3QFUFYSY9ZMCCWI3VH5RB5XMXMMF4M", "dateTime": 1520810505111}, {"current_trial": 48, "trialdata": {"rt": -1, "trial_type": "single-stim", "stimulus": "<p id=\"stim\">6</p>", "internal_node_id": "0.0-35.0-4.0", "time_elapsed": 593875, "key_press": -1, "trial_index": 48}, "uniqueid": "MTK3616:3QFUFYSY9ZMCCWI3VH5RB5XMXMMF4M", "dateTime": 1520810506116}, {"current_trial": 49, "trialdata": {"rt": -1, "trial_type": "single-stim", "stimulus": "<p id=\"stim\">5</p>", "internal_node_id": "0.0-35.0-5.0", "time_elapsed": 594879, "key_press": -1, "trial_index": 49}, "uniqueid": "MTK3616:3QFUFYSY9ZMCCWI3VH5RB5XMXMMF4M", "dateTime": 1520810507120}, {"current_trial": 50, "trialdata": {"rt": -1, "trial_type": "single-stim", "stimulus": "<p id=\"stim\">4</p>", "internal_node_id": "0.0-35.0-6.0", "time_elapsed": 595880, "key_press": -1, "trial_index": 50}, "uniqueid": "MTK3616:3QFUFYSY9ZMCCWI3VH5RB5XMXMMF4M", "dateTime": 1520810508120}, {"current_trial": 51, "trialdata": {"rt": -1, "trial_type": "single-stim", "stimulus": "<p id=\"stim\">3</p>", "internal_node_id": "0.0-35.0-7.0", "time_elapsed": 596885, "key_press": -1, "trial_index": 51}, "uniqueid": "MTK3616:3QFUFYSY9ZMCCWI3VH5RB5XMXMMF4M", "dateTime": 1520810509125}, {"current_trial": 52, "trialdata": {"rt": -1, "trial_type": "single-stim", "stimulus": "<p id=\"stim\">2</p>", "internal_node_id": "0.0-35.0-8.0", "time_elapsed": 597889, "key_press": -1, "trial_index": 52}, "uniqueid": "MTK3616:3QFUFYSY9ZMCCWI3VH5RB5XMXMMF4M", "dateTime": 1520810510130}, {"current_trial": 53, "trialdata": {"rt": -1, "trial_type": "single-stim", "stimulus": "<p id=\"stim\">1</p>", "internal_node_id": "0.0-35.0-9.0", "time_elapsed": 598892, "key_press": -1, "trial_index": 53}, "uniqueid": "MTK3616:3QFUFYSY9ZMCCWI3VH5RB5XMXMMF4M", "dateTime": 1520810511132}, {"current_trial": 54, "trialdata": {"rt": -1, "trial_type": "single-stim", "stimulus": "<p id=\"stim\">+</p>", "internal_node_id": "0.0-36.0-0.0", "time_elapsed": 600394, "key_press": -1, "type": "FIXATION", "trial_index": 54}, "uniqueid": "MTK3616:3QFUFYSY9ZMCCWI3VH5RB5XMXMMF4M", "dateTime": 1520810512634}, {"current_trial": 55, "trialdata": {"rt": -1000, "trial_type": "single-audio", "word": "ozone", "stimulus": "/static/audio/wordpool/OZONE.wav", "conditions": [18, 1200, "a", 18000], "internal_node_id": "0.0-37.0", "trial": 1, "time_elapsed": 602713, "serialpos": 0, "key_press": -1, "wordID": 995, "type": "PRES_AUD", "trial_index": 55}, "uniqueid": "MTK3616:3QFUFYSY9ZMCCWI3VH5RB5XMXMMF4M", "dateTime": 1520810514953}, {"current_trial": 56, "trialdata": {"rt": -1000, "trial_type": "single-audio", "word": "body", "stimulus": "/static/audio/wordpool/BODY.wav", "conditions": [18, 1200, "a", 18000], "internal_node_id": "0.0-38.0", "trial": 1, "time_elapsed": 604726, "serialpos": 1, "key_press": -1, "wordID": 144, "type": "PRES_AUD", "trial_index": 56}, "uniqueid": "MTK3616:3QFUFYSY9ZMCCWI3VH5RB5XMXMMF4M", "dateTime": 1520810516967}, {"current_trial": 57, "trialdata": {"rt": -1000, "trial_type": "single-audio", "word": "motor", "stimulus": "/static/audio/wordpool/MOTOR.wav", "conditions": [18, 1200, "a", 18000], "internal_node_id": "0.0-39.0", "trial": 1, "time_elapsed": 606897, "serialpos": 2, "key_press": -1, "wordID": 921, "type": "PRES_AUD", "trial_index": 57}, "uniqueid": "MTK3616:3QFUFYSY9ZMCCWI3VH5RB5XMXMMF4M", "dateTime": 1520810519138}, {"current_trial": 58, "trialdata": {"rt": -1000, "trial_type": "single-audio", "word": "friend", "stimulus": "/static/audio/wordpool/FRIEND.wav", "conditions": [18, 1200, "a", 18000], "internal_node_id": "0.0-40.0", "trial": 1, "time_elapsed": 609202, "serialpos": 3, "key_press": -1, "wordID": 605, "type": "PRES_AUD", "trial_index": 58}, "uniqueid": "MTK3616:3QFUFYSY9ZMCCWI3VH5RB5XMXMMF4M", "dateTime": 1520810521442}, {"current_trial": 59, "trialdata": {"rt": -1000, "trial_type": "single-audio", "word": "clam", "stimulus": "/static/audio/wordpool/CLAM.wav", "conditions": [18, 1200, "a", 18000], "internal_node_id": "0.0-41.0", "trial": 1, "time_elapsed": 611546, "serialpos": 4, "key_press": -1, "wordID": 314, "type": "PRES_AUD", "trial_index": 59}, "uniqueid": "MTK3616:3QFUFYSY9ZMCCWI3VH5RB5XMXMMF4M", "dateTime": 1520810523786}, {"current_trial": 60, "trialdata": {"rt": -1000, "trial_type": "single-audio", "word": "cloud", "stimulus": "/static/audio/wordpool/CLOUD.wav", "conditions": [18, 1200, "a", 18000], "internal_node_id": "0.0-42.0", "trial": 1, "time_elapsed": 613679, "serialpos": 5, "key_press": -1, "wordID": 327, "type": "PRES_AUD", "trial_index": 60}, "uniqueid": "MTK3616:3QFUFYSY9ZMCCWI3VH5RB5XMXMMF4M", "dateTime": 1520810525920}, {"current_trial": 61, "trialdata": {"rt": -1000, "trial_type": "single-audio", "word": "sidewalk", "stimulus": "/static/audio/wordpool/SIDEWALK.wav", "conditions": [18, 1200, "a", 18000], "internal_node_id": "0.0-43.0", "trial": 1, "time_elapsed": 615850, "serialpos": 6, "key_press": -1, "wordID": 1302, "type": "PRES_AUD", "trial_index": 61}, "uniqueid": "MTK3616:3QFUFYSY9ZMCCWI3VH5RB5XMXMMF4M", "dateTime": 1520810528090}, {"current_trial": 62, "trialdata": {"rt": -1000, "trial_type": "single-audio", "word": "swamp", "stimulus": "/static/audio/wordpool/SWAMP.wav", "conditions": [18, 1200, "a", 18000], "internal_node_id": "0.0-44.0", "trial": 1, "time_elapsed": 618196, "serialpos": 7, "key_press": -1, "wordID": 1415, "type": "PRES_AUD", "trial_index": 62}, "uniqueid": "MTK3616:3QFUFYSY9ZMCCWI3VH5RB5XMXMMF4M", "dateTime": 1520810530436}, {"current_trial": 63, "trialdata": {"rt": -1000, "trial_type": "single-audio", "word": "bike", "stimulus": "/static/audio/wordpool/BIKE.wav", "conditions": [18, 1200, "a", 18000], "internal_node_id": "0.0-45.0", "trial": 1, "time_elapsed": 620279, "serialpos": 8, "key_press": -1, "wordID": 124, "type": "PRES_AUD", "trial_index": 63}, "uniqueid": "MTK3616:3QFUFYSY9ZMCCWI3VH5RB5XMXMMF4M", "dateTime": 1520810532519}, {"current_trial": 64, "trialdata": {"rt": -1000, "trial_type": "single-audio", "word": "sheriff", "stimulus": "/static/audio/wordpool/SHERIFF.wav", "conditions": [18, 1200, "a", 18000], "internal_node_id": "0.0-46.0", "trial": 1, "time_elapsed": 622602, "serialpos": 9, "key_press": -1, "wordID": 1283, "type": "PRES_AUD", "trial_index": 64}, "uniqueid": "MTK3616:3QFUFYSY9ZMCCWI3VH5RB5XMXMMF4M", "dateTime": 1520810534842}, {"current_trial": 65, "trialdata": {"rt": -1000, "trial_type": "single-audio", "word": "oyster", "stimulus": "/static/audio/wordpool/OYSTER.wav", "conditions": [18, 1200, "a", 18000], "internal_node_id": "0.0-47.0", "trial": 1, "time_elapsed": 624912, "serialpos": 10, "key_press": -1, "wordID": 994, "type": "PRES_AUD", "trial_index": 65}, "uniqueid": "MTK3616:3QFUFYSY9ZMCCWI3VH5RB5XMXMMF4M", "dateTime": 1520810537152}, {"current_trial": 66, "trialdata": {"rt": -1000, "trial_type": "single-audio", "word": "hook", "stimulus": "/static/audio/wordpool/HOOK.wav", "conditions": [18, 1200, "a", 18000], "internal_node_id": "0.0-48.0", "trial": 1, "time_elapsed": 627297, "serialpos": 11, "key_press": -1, "wordID": 714, "type": "PRES_AUD", "trial_index": 66}, "uniqueid": "MTK3616:3QFUFYSY9ZMCCWI3VH5RB5XMXMMF4M", "dateTime": 1520810539537}, {"current_trial": 67, "trialdata": {"rt": -1000, "trial_type": "single-audio", "word": "sketch", "stimulus": "/static/audio/wordpool/SKETCH.wav", "conditions": [18, 1200, "a", 18000], "internal_node_id": "0.0-49.0", "trial": 1, "time_elapsed": 629357, "serialpos": 12, "key_press": -1, "wordID": 1314, "type": "PRES_AUD", "trial_index": 67}, "uniqueid": "MTK3616:3QFUFYSY9ZMCCWI3VH5RB5XMXMMF4M", "dateTime": 1520810541597}, {"current_trial": 68, "trialdata": {"rt": -1000, "trial_type": "single-audio", "word": "spoon", "stimulus": "/static/audio/wordpool/SPOON.wav", "conditions": [18, 1200, "a", 18000], "internal_node_id": "0.0-50.0", "trial": 1, "time_elapsed": 631435, "serialpos": 13, "key_press": -1, "wordID": 1356, "type": "PRES_AUD", "trial_index": 68}, "uniqueid": "MTK3616:3QFUFYSY9ZMCCWI3VH5RB5XMXMMF4M", "dateTime": 1520810543680}, {"current_trial": 69, "trialdata": {"rt": -1000, "trial_type": "single-audio", "word": "knife", "stimulus": "/static/audio/wordpool/KNIFE.wav", "conditions": [18, 1200, "a", 18000], "internal_node_id": "0.0-51.0", "trial": 1, "time_elapsed": 633580, "serialpos": 14, "key_press": -1, "wordID": 784, "type": "PRES_AUD", "trial_index": 69}, "uniqueid": "MTK3616:3QFUFYSY9ZMCCWI3VH5RB5XMXMMF4M", "dateTime": 1520810545820}, {"current_trial": 70, "trialdata": {"rt": -1000, "trial_type": "single-audio", "word": "dime", "stimulus": "/static/audio/wordpool/DIME.wav", "conditions": [18, 1200, "a", 18000], "internal_node_id": "0.0-52.0", "trial": 1, "time_elapsed": 635803, "serialpos": 15, "key_press": -1, "wordID": 465, "type": "PRES_AUD", "trial_index": 70}, "uniqueid": "MTK3616:3QFUFYSY9ZMCCWI3VH5RB5XMXMMF4M", "dateTime": 1520810548044}, {"current_trial": 71, "trialdata": {"rt": -1000, "trial_type": "single-audio", "word": "actress", "stimulus": "/static/audio/wordpool/ACTRESS.wav", "conditions": [18, 1200, "a", 18000], "internal_node_id": "0.0-53.0", "trial": 1, "time_elapsed": 638051, "serialpos": 16, "key_press": -1, "wordID": 5, "type": "PRES_AUD", "trial_index": 71}, "uniqueid": "MTK3616:3QFUFYSY9ZMCCWI3VH5RB5XMXMMF4M", "dateTime": 1520810550291}, {"current_trial": 72, "trialdata": {"rt": -1000, "trial_type": "single-audio", "word": "garbage", "stimulus": "/static/audio/wordpool/GARBAGE.wav", "conditions": [18, 1200, "a", 18000], "internal_node_id": "0.0-54.0", "trial": 1, "time_elapsed": 640250, "serialpos": 17, "key_press": -1, "wordID": 621, "type": "PRES_AUD", "trial_index": 72}, "uniqueid": "MTK3616:3QFUFYSY9ZMCCWI3VH5RB5XMXMMF4M", "dateTime": 1520810552490}, {"current_trial": 73, "trialdata": {"rt": -1, "trial_type": "single-stim", "stimulus": "", "internal_node_id": "0.0-55.0-0.0", "time_elapsed": 641584, "key_press": -1, "type": "PRE_RECALL_DELAY", "trial_index": 73}, "uniqueid": "MTK3616:3QFUFYSY9ZMCCWI3VH5RB5XMXMMF4M", "dateTime": 1520810553824}, {"current_trial": 74, "trialdata": {"rt": -1000, "trial_type": "single-audio", "stimulus": "/static/audio/400Hz.wav", "internal_node_id": "0.0-56.0", "time_elapsed": 642096, "key_press": -1, "type": "PRE_RECALL_ALERT", "trial_index": 74}, "uniqueid": "MTK3616:3QFUFYSY9ZMCCWI3VH5RB5XMXMMF4M", "dateTime": 1520810554336}, {"current_trial": 75, "trialdata": {"rt": [4287, 9097, 15240, 43174, 53059], "recwords": ["garbage", "spoon", "dime", "popsicle", "pen"], "key_times": [1781, 1983, 2084, 2357, 2605, 2780, 3504, 4287, 7261, 7351, 8247, 8415, 8710, 9097, 14598, 14722, 14908, 14986, 15240, 38217, 38445, 38610, 39355, 40350, 40461, 41174, 41310, 41586, 41978, 42182, 42328, 43174, 52093, 52290, 52360, 53059], "trial_type": "free-recall", "conditions": [18, 1200, "a", 18000], "internal_node_id": "0.0-57.0-0.0", "key_presses": [71, 65, 82, 66, 65, 71, 69, 13, 83, 80, 79, 79, 78, 13, 68, 73, 77, 69, 13, 80, 79, 80, 83, 67, 73, 8, 8, 73, 67, 76, 69, 13, 80, 69, 78, 13], "trial": 1, "time_elapsed": 702101, "type": "FREE_RECALL", "trial_index": 75}, "uniqueid": "MTK3616:3QFUFYSY9ZMCCWI3VH5RB5XMXMMF4M", "dateTime": 1520810614349}, {"current_trial": 76, "trialdata": {"rt": 2343, "trial_type": "text", "internal_node_id": "0.0-58.0", "time_elapsed": 706454, "key_press": 32, "type": "INSTRUCTIONS", "trial_index": 76}, "uniqueid": "MTK3616:3QFUFYSY9ZMCCWI3VH5RB5XMXMMF4M", "dateTime": 1520810618694}, {"current_trial": 77, "trialdata": {"rt": [3398, 7597, 12236, 16498, 20958], "trial_type": "math-distractor", "key_times": [2243, 2770, 3398, 6157, 6867, 7597, 11041, 11507, 12236, 15232, 15698, 16498, 19933, 20255, 20958, 23784], "responses": ["20", "17", "18", "17", "14"], "num2": [8, 6, 8, 9, 3, 4], "num3": [4, 9, 4, 4, 4, 2], "conditions": [24, 800, "a", 24000], "internal_node_id": "0.0-59.0", "key_presses": [50, 48, 13, 49, 55, 13, 49, 56, 13, 49, 55, 13, 49, 52, 13, 49], "trial": 2, "time_elapsed": 731461, "type": "DISTRACTOR", "trial_index": 77, "num1": [8, 2, 6, 4, 7, 9]}, "uniqueid": "MTK3616:3QFUFYSY9ZMCCWI3VH5RB5XMXMMF4M", "dateTime": 1520810643701}, {"current_trial": 78, "trialdata": {"rt": -1, "trial_type": "single-stim", "stimulus": "<p id=\"stim\">10</p>", "internal_node_id": "0.0-60.0-0.0", "time_elapsed": 734465, "key_press": -1, "trial_index": 78}, "uniqueid": "MTK3616:3QFUFYSY9ZMCCWI3VH5RB5XMXMMF4M", "dateTime": 1520810646705}, {"current_trial": 79, "trialdata": {"rt": -1, "trial_type": "single-stim", "stimulus": "<p id=\"stim\">9</p>", "internal_node_id": "0.0-60.0-1.0", "time_elapsed": 735468, "key_press": -1, "trial_index": 79}, "uniqueid": "MTK3616:3QFUFYSY9ZMCCWI3VH5RB5XMXMMF4M", "dateTime": 1520810647708}, {"current_trial": 80, "trialdata": {"rt": -1, "trial_type": "single-stim", "stimulus": "<p id=\"stim\">8</p>", "internal_node_id": "0.0-60.0-2.0", "time_elapsed": 736470, "key_press": -1, "trial_index": 80}, "uniqueid": "MTK3616:3QFUFYSY9ZMCCWI3VH5RB5XMXMMF4M", "dateTime": 1520810648713}, {"current_trial": 81, "trialdata": {"rt": -1, "trial_type": "single-stim", "stimulus": "<p id=\"stim\">7</p>", "internal_node_id": "0.0-60.0-3.0", "time_elapsed": 737474, "key_press": -1, "trial_index": 81}, "uniqueid": "MTK3616:3QFUFYSY9ZMCCWI3VH5RB5XMXMMF4M", "dateTime": 1520810649714}, {"current_trial": 82, "trialdata": {"rt": -1, "trial_type": "single-stim", "stimulus": "<p id=\"stim\">6</p>", "internal_node_id": "0.0-60.0-4.0", "time_elapsed": 738477, "key_press": -1, "trial_index": 82}, "uniqueid": "MTK3616:3QFUFYSY9ZMCCWI3VH5RB5XMXMMF4M", "dateTime": 1520810650717}, {"current_trial": 83, "trialdata": {"rt": -1, "trial_type": "single-stim", "stimulus": "<p id=\"stim\">5</p>", "internal_node_id": "0.0-60.0-5.0", "time_elapsed": 739480, "key_press": -1, "trial_index": 83}, "uniqueid": "MTK3616:3QFUFYSY9ZMCCWI3VH5RB5XMXMMF4M", "dateTime": 1520810651720}, {"current_trial": 84, "trialdata": {"rt": -1, "trial_type": "single-stim", "stimulus": "<p id=\"stim\">4</p>", "internal_node_id": "0.0-60.0-6.0", "time_elapsed": 740481, "key_press": -1, "trial_index": 84}, "uniqueid": "MTK3616:3QFUFYSY9ZMCCWI3VH5RB5XMXMMF4M", "dateTime": 1520810652721}, {"current_trial": 85, "trialdata": {"rt": -1, "trial_type": "single-stim", "stimulus": "<p id=\"stim\">3</p>", "internal_node_id": "0.0-60.0-7.0", "time_elapsed": 741483, "key_press": -1, "trial_index": 85}, "uniqueid": "MTK3616:3QFUFYSY9ZMCCWI3VH5RB5XMXMMF4M", "dateTime": 1520810653723}, {"current_trial": 86, "trialdata": {"rt": -1, "trial_type": "single-stim", "stimulus": "<p id=\"stim\">2</p>", "internal_node_id": "0.0-60.0-8.0", "time_elapsed": 742487, "key_press": -1, "trial_index": 86}, "uniqueid": "MTK3616:3QFUFYSY9ZMCCWI3VH5RB5XMXMMF4M", "dateTime": 1520810654727}, {"current_trial": 87, "trialdata": {"rt": -1, "trial_type": "single-stim", "stimulus": "<p id=\"stim\">1</p>", "internal_node_id": "0.0-60.0-9.0", "time_elapsed": 743490, "key_press": -1, "trial_index": 87}, "uniqueid": "MTK3616:3QFUFYSY9ZMCCWI3VH5RB5XMXMMF4M", "dateTime": 1520810655730}, {"current_trial": 88, "trialdata": {"rt": -1, "trial_type": "single-stim", "stimulus": "<p id=\"stim\">+</p>", "internal_node_id": "0.0-61.0-0.0", "time_elapsed": 744992, "key_press": -1, "type": "FIXATION", "trial_index": 88}, "uniqueid": "MTK3616:3QFUFYSY9ZMCCWI3VH5RB5XMXMMF4M", "dateTime": 1520810657232}, {"current_trial": 89, "trialdata": {"rt": -1000, "trial_type": "single-audio", "word": "knapsack", "stimulus": "/static/audio/wordpool/KNAPSACK.wav", "conditions": [24, 800, "a", 24000], "internal_node_id": "0.0-62.0", "trial": 2, "time_elapsed": 746915, "serialpos": 0, "key_press": -1, "wordID": 782, "type": "PRES_AUD", "trial_index": 89}, "uniqueid": "MTK3616:3QFUFYSY9ZMCCWI3VH5RB5XMXMMF4M", "dateTime": 1520810659155}, {"current_trial": 90, "trialdata": {"rt": -1000, "trial_type": "single-audio", "word": "farmer", "stimulus": "/static/audio/wordpool/FARMER.wav", "conditions": [24, 800, "a", 24000], "internal_node_id": "0.0-63.0", "trial": 2, "time_elapsed": 748644, "serialpos": 1, "key_press": -1, "wordID": 552, "type": "PRES_AUD", "trial_index": 90}, "uniqueid": "MTK3616:3QFUFYSY9ZMCCWI3VH5RB5XMXMMF4M", "dateTime": 1520810660884}, {"current_trial": 91, "trialdata": {"rt": -1000, "trial_type": "single-audio", "word": "shrub", "stimulus": "/static/audio/wordpool/SHRUB.wav", "conditions": [24, 800, "a", 24000], "internal_node_id": "0.0-64.0", "trial": 2, "time_elapsed": 750402, "serialpos": 2, "key_press": -1, "wordID": 1298, "type": "PRES_AUD", "trial_index": 91}, "uniqueid": "MTK3616:3QFUFYSY9ZMCCWI3VH5RB5XMXMMF4M", "dateTime": 1520810662642}, {"current_trial": 92, "trialdata": {"rt": -1000, "trial_type": "single-audio", "word": "flower", "stimulus": "/static/audio/wordpool/FLOWER.wav", "conditions": [24, 800, "a", 24000], "internal_node_id": "0.0-65.0", "trial": 2, "time_elapsed": 752212, "serialpos": 3, "key_press": -1, "wordID": 583, "type": "PRES_AUD", "trial_index": 92}, "uniqueid": "MTK3616:3QFUFYSY9ZMCCWI3VH5RB5XMXMMF4M", "dateTime": 1520810664452}, {"current_trial": 93, "trialdata": {"rt": -1000, "trial_type": "single-audio", "word": "muffin", "stimulus": "/static/audio/wordpool/MUFFIN.wav", "conditions": [24, 800, "a", 24000], "internal_node_id": "0.0-66.0", "trial": 2, "time_elapsed": 754215, "serialpos": 4, "key_press": -1, "wordID": 928, "type": "PRES_AUD", "trial_index": 93}, "uniqueid": "MTK3616:3QFUFYSY9ZMCCWI3VH5RB5XMXMMF4M", "dateTime": 1520810666455}, {"current_trial": 94, "trialdata": {"rt": -1000, "trial_type": "single-audio", "word": "girl", "stimulus": "/static/audio/wordpool/GIRL.wav", "conditions": [24, 800, "a", 24000], "internal_node_id": "0.0-67.0", "trial": 2, "time_elapsed": 755889, "serialpos": 5, "key_press": -1, "wordID": 636, "type": "PRES_AUD", "trial_index": 94}, "uniqueid": "MTK3616:3QFUFYSY9ZMCCWI3VH5RB5XMXMMF4M", "dateTime": 1520810668129}, {"current_trial": 95, "trialdata": {"rt": -1000, "trial_type": "single-audio", "word": "shark", "stimulus": "/static/audio/wordpool/SHARK.wav", "conditions": [24, 800, "a", 24000], "internal_node_id": "0.0-68.0", "trial": 2, "time_elapsed": 757873, "serialpos": 6, "key_press": -1, "wordID": 1274, "type": "PRES_AUD", "trial_index": 95}, "uniqueid": "MTK3616:3QFUFYSY9ZMCCWI3VH5RB5XMXMMF4M", "dateTime": 1520810670113}, {"current_trial": 96, "trialdata": {"rt": -1000, "trial_type": "single-audio", "word": "atom", "stimulus": "/static/audio/wordpool/ATOM.wav", "conditions": [24, 800, "a", 24000], "internal_node_id": "0.0-69.0", "trial": 2, "time_elapsed": 759475, "serialpos": 7, "key_press": -1, "wordID": 54, "type": "PRES_AUD", "trial_index": 96}, "uniqueid": "MTK3616:3QFUFYSY9ZMCCWI3VH5RB5XMXMMF4M", "dateTime": 1520810671715}, {"current_trial": 97, "trialdata": {"rt": -1000, "trial_type": "single-audio", "word": "washer", "stimulus": "/static/audio/wordpool/WASHER.wav", "conditions": [24, 800, "a", 24000], "internal_node_id": "0.0-70.0", "trial": 2, "time_elapsed": 761243, "serialpos": 8, "key_press": -1, "wordID": 1591, "type": "PRES_AUD", "trial_index": 97}, "uniqueid": "MTK3616:3QFUFYSY9ZMCCWI3VH5RB5XMXMMF4M", "dateTime": 1520810673483}, {"current_trial": 98, "trialdata": {"rt": -1000, "trial_type": "single-audio", "word": "pastry", "stimulus": "/static/audio/wordpool/PASTRY.wav", "conditions": [24, 800, "a", 24000], "internal_node_id": "0.0-71.0", "trial": 2, "time_elapsed": 762921, "serialpos": 9, "key_press": -1, "wordID": 1021, "type": "PRES_AUD", "trial_index": 98}, "uniqueid": "MTK3616:3QFUFYSY9ZMCCWI3VH5RB5XMXMMF4M", "dateTime": 1520810675161}, {"current_trial": 99, "trialdata": {"rt": -1000, "trial_type": "single-audio", "word": "pilot", "stimulus": "/static/audio/wordpool/PILOT.wav", "conditions": [24, 800, "a", 24000], "internal_node_id": "0.0-72.0", "trial": 2, "time_elapsed": 764643, "serialpos": 10, "key_press": -1, "wordID": 1069, "type": "PRES_AUD", "trial_index": 99}, "uniqueid": "MTK3616:3QFUFYSY9ZMCCWI3VH5RB5XMXMMF4M", "dateTime": 1520810676883}, {"current_trial": 100, "trialdata": {"rt": -1000, "trial_type": "single-audio", "word": "mop", "stimulus": "/static/audio/wordpool/MOP.wav", "conditions": [24, 800, "a", 24000], "internal_node_id": "0.0-73.0", "trial": 2, "time_elapsed": 766427, "serialpos": 11, "key_press": -1, "wordID": 915, "type": "PRES_AUD", "trial_index": 100}, "uniqueid": "MTK3616:3QFUFYSY9ZMCCWI3VH5RB5XMXMMF4M", "dateTime": 1520810678667}, {"current_trial": 101, "trialdata": {"rt": -1000, "trial_type": "single-audio", "word": "japan", "stimulus": "/static/audio/wordpool/JAPAN.wav", "conditions": [24, 800, "a", 24000], "internal_node_id": "0.0-74.0", "trial": 2, "time_elapsed": 768087, "serialpos": 12, "key_press": -1, "wordID": 748, "type": "PRES_AUD", "trial_index": 101}, "uniqueid": "MTK3616:3QFUFYSY9ZMCCWI3VH5RB5XMXMMF4M", "dateTime": 1520810680328}, {"current_trial": 102, "trialdata": {"rt": -1000, "trial_type": "single-audio", "word": "asia", "stimulus": "/static/audio/wordpool/ASIA.wav", "conditions": [24, 800, "a", 24000], "internal_node_id": "0.0-75.0", "trial": 2, "time_elapsed": 769844, "serialpos": 13, "key_press": -1, "wordID": 45, "type": "PRES_AUD", "trial_index": 102}, "uniqueid": "MTK3616:3QFUFYSY9ZMCCWI3VH5RB5XMXMMF4M", "dateTime": 1520810682084}, {"current_trial": 103, "trialdata": {"rt": -1000, "trial_type": "single-audio", "word": "outdoors", "stimulus": "/static/audio/wordpool/OUTDOORS.wav", "conditions": [24, 800, "a", 24000], "internal_node_id": "0.0-76.0", "trial": 2, "time_elapsed": 771658, "serialpos": 14, "key_press": -1, "wordID": 986, "type": "PRES_AUD", "trial_index": 103}, "uniqueid": "MTK3616:3QFUFYSY9ZMCCWI3VH5RB5XMXMMF4M", "dateTime": 1520810683898}, {"current_trial": 104, "trialdata": {"rt": -1000, "trial_type": "single-audio", "word": "orange", "stimulus": "/static/audio/wordpool/ORANGE.wav", "conditions": [24, 800, "a", 24000], "internal_node_id": "0.0-77.0", "trial": 2, "time_elapsed": 773507, "serialpos": 15, "key_press": -1, "wordID": 979, "type": "PRES_AUD", "trial_index": 104}, "uniqueid": "MTK3616:3QFUFYSY9ZMCCWI3VH5RB5XMXMMF4M", "dateTime": 1520810685747}, {"current_trial": 105, "trialdata": {"rt": -1000, "trial_type": "single-audio", "word": "shortcake", "stimulus": "/static/audio/wordpool/SHORTCAKE.wav", "conditions": [24, 800, "a", 24000], "internal_node_id": "0.0-78.0", "trial": 2, "time_elapsed": 775504, "serialpos": 16, "key_press": -1, "wordID": 1291, "type": "PRES_AUD", "trial_index": 105}, "uniqueid": "MTK3616:3QFUFYSY9ZMCCWI3VH5RB5XMXMMF4M", "dateTime": 1520810687744}, {"current_trial": 106, "trialdata": {"rt": -1000, "trial_type": "single-audio", "word": "dentist", "stimulus": "/static/audio/wordpool/DENTIST.wav", "conditions": [24, 800, "a", 24000], "internal_node_id": "0.0-79.0", "trial": 2, "time_elapsed": 777136, "serialpos": 17, "key_press": -1, "wordID": 446, "type": "PRES_AUD", "trial_index": 106}, "uniqueid": "MTK3616:3QFUFYSY9ZMCCWI3VH5RB5XMXMMF4M", "dateTime": 1520810689376}, {"current_trial": 107, "trialdata": {"rt": -1000, "trial_type": "single-audio", "word": "mask", "stimulus": "/static/audio/wordpool/MASK.wav", "conditions": [24, 800, "a", 24000], "internal_node_id": "0.0-80.0", "trial": 2, "time_elapsed": 779120, "serialpos": 18, "key_press": -1, "wordID": 875, "type": "PRES_AUD", "trial_index": 107}, "uniqueid": "MTK3616:3QFUFYSY9ZMCCWI3VH5RB5XMXMMF4M", "dateTime": 1520810691360}, {"current_trial": 108, "trialdata": {"rt": -1000, "trial_type": "single-audio", "word": "milk", "stimulus": "/static/audio/wordpool/MILK.wav", "conditions": [24, 800, "a", 24000], "internal_node_id": "0.0-81.0", "trial": 2, "time_elapsed": 781074, "serialpos": 19, "key_press": -1, "wordID": 894, "type": "PRES_AUD", "trial_index": 108}, "uniqueid": "MTK3616:3QFUFYSY9ZMCCWI3VH5RB5XMXMMF4M", "dateTime": 1520810693314}, {"current_trial": 109, "trialdata": {"rt": -1000, "trial_type": "single-audio", "word": "beaver", "stimulus": "/static/audio/wordpool/BEAVER.wav", "conditions": [24, 800, "a", 24000], "internal_node_id": "0.0-82.0", "trial": 2, "time_elapsed": 782813, "serialpos": 20, "key_press": -1, "wordID": 108, "type": "PRES_AUD", "trial_index": 109}, "uniqueid": "MTK3616:3QFUFYSY9ZMCCWI3VH5RB5XMXMMF4M", "dateTime": 1520810695054}, {"current_trial": 110, "trialdata": {"rt": -1000, "trial_type": "single-audio", "word": "permit", "stimulus": "/static/audio/wordpool/PERMIT.wav", "conditions": [24, 800, "a", 24000], "internal_node_id": "0.0-83.0", "trial": 2, "time_elapsed": 784459, "serialpos": 21, "key_press": -1, "wordID": 1050, "type": "PRES_AUD", "trial_index": 110}, "uniqueid": "MTK3616:3QFUFYSY9ZMCCWI3VH5RB5XMXMMF4M", "dateTime": 1520810696699}, {"current_trial": 111, "trialdata": {"rt": -1000, "trial_type": "single-audio", "word": "candy", "stimulus": "/static/audio/wordpool/CANDY.wav", "conditions": [24, 800, "a", 24000], "internal_node_id": "0.0-84.0", "trial": 2, "time_elapsed": 786259, "serialpos": 22, "key_press": -1, "wordID": 229, "type": "PRES_AUD", "trial_index": 111}, "uniqueid": "MTK3616:3QFUFYSY9ZMCCWI3VH5RB5XMXMMF4M", "dateTime": 1520810698500}, {"current_trial": 112, "trialdata": {"rt": -1000, "trial_type": "single-audio", "word": "omelet", "stimulus": "/static/audio/wordpool/OMELET.wav", "conditions": [24, 800, "a", 24000], "internal_node_id": "0.0-85.0", "trial": 2, "time_elapsed": 788088, "serialpos": 23, "key_press": -1, "wordID": 975, "type": "PRES_AUD", "trial_index": 112}, "uniqueid": "MTK3616:3QFUFYSY9ZMCCWI3VH5RB5XMXMMF4M", "dateTime": 1520810700329}, {"current_trial": 113, "trialdata": {"rt": -1, "trial_type": "single-stim", "stimulus": "", "internal_node_id": "0.0-86.0-0.0", "time_elapsed": 789413, "key_press": -1, "type": "PRE_RECALL_DELAY", "trial_index": 113}, "uniqueid": "MTK3616:3QFUFYSY9ZMCCWI3VH5RB5XMXMMF4M", "dateTime": 1520810701654}, {"current_trial": 114, "trialdata": {"rt": -1000, "trial_type": "single-audio", "stimulus": "/static/audio/400Hz.wav", "internal_node_id": "0.0-87.0", "time_elapsed": 789919, "key_press": -1, "type": "PRE_RECALL_ALERT", "trial_index": 114}, "uniqueid": "MTK3616:3QFUFYSY9ZMCCWI3VH5RB5XMXMMF4M", "dateTime": 1520810702159}, {"current_trial": 115, "trialdata": {"rt": [4421, 6064, 7288, 9073, 30732], "recwords": ["omlet", "beaver", "shore", "candy", "burger"], "key_times": [1034, 1997, 2655, 2853, 3208, 3347, 3543, 4421, 4938, 5123, 5295, 5530, 5684, 5744, 6064, 6422, 6509, 6624, 6776, 6854, 7288, 7576, 7729, 7858, 8312, 8435, 9073, 29356, 29491, 29737, 29949, 30080, 30124, 30732], "trial_type": "free-recall", "conditions": [24, 800, "a", 24000], "internal_node_id": "0.0-88.0-0.0", "key_presses": [73, 8, 79, 77, 76, 69, 84, 13, 66, 69, 65, 86, 69, 82, 13, 83, 72, 79, 82, 69, 13, 67, 65, 78, 68, 89, 13, 66, 85, 82, 71, 69, 82, 13], "trial": 2, "time_elapsed": 849927, "type": "FREE_RECALL", "trial_index": 115}, "uniqueid": "MTK3616:3QFUFYSY9ZMCCWI3VH5RB5XMXMMF4M", "dateTime": 1520810762171}, {"current_trial": 116, "trialdata": {"rt": 5340, "trial_type": "text", "internal_node_id": "0.0-89.0", "time_elapsed": 857275, "key_press": 32, "type": "INSTRUCTIONS", "trial_index": 116}, "uniqueid": "MTK3616:3QFUFYSY9ZMCCWI3VH5RB5XMXMMF4M", "dateTime": 1520810769515}, {"current_trial": 117, "trialdata": {"rt": [3139, 7758, 11327], "trial_type": "math-distractor", "key_times": [2373, 2510, 3139, 6729, 7159, 7758, 10492, 10973, 11327], "responses": ["11", "15", "16"], "num2": [9, 6, 1, 1], "num3": [1, 5, 8, 3], "conditions": [24, 800, "a", 12000], "internal_node_id": "0.0-90.0", "key_presses": [49, 49, 13, 49, 53, 13, 49, 54, 13], "trial": 3, "time_elapsed": 871282, "type": "DISTRACTOR", "trial_index": 117, "num1": [1, 4, 7, 4]}, "uniqueid": "MTK3616:3QFUFYSY9ZMCCWI3VH5RB5XMXMMF4M", "dateTime": 1520810783522}, {"current_trial": 118, "trialdata": {"rt": -1, "trial_type": "single-stim", "stimulus": "<p id=\"stim\">10</p>", "internal_node_id": "0.0-91.0-0.0", "time_elapsed": 874288, "key_press": -1, "trial_index": 118}, "uniqueid": "MTK3616:3QFUFYSY9ZMCCWI3VH5RB5XMXMMF4M", "dateTime": 1520810786529}, {"current_trial": 119, "trialdata": {"rt": -1, "trial_type": "single-stim", "stimulus": "<p id=\"stim\">9</p>", "internal_node_id": "0.0-91.0-1.0", "time_elapsed": 875291, "key_press": -1, "trial_index": 119}, "uniqueid": "MTK3616:3QFUFYSY9ZMCCWI3VH5RB5XMXMMF4M", "dateTime": 1520810787531}, {"current_trial": 120, "trialdata": {"rt": -1, "trial_type": "single-stim", "stimulus": "<p id=\"stim\">8</p>", "internal_node_id": "0.0-91.0-2.0", "time_elapsed": 876293, "key_press": -1, "trial_index": 120}, "uniqueid": "MTK3616:3QFUFYSY9ZMCCWI3VH5RB5XMXMMF4M", "dateTime": 1520810788533}, {"current_trial": 121, "trialdata": {"rt": -1, "trial_type": "single-stim", "stimulus": "<p id=\"stim\">7</p>", "internal_node_id": "0.0-91.0-3.0", "time_elapsed": 877297, "key_press": -1, "trial_index": 121}, "uniqueid": "MTK3616:3QFUFYSY9ZMCCWI3VH5RB5XMXMMF4M", "dateTime": 1520810789538}, {"current_trial": 122, "trialdata": {"rt": -1, "trial_type": "single-stim", "stimulus": "<p id=\"stim\">6</p>", "internal_node_id": "0.0-91.0-4.0", "time_elapsed": 878299, "key_press": -1, "trial_index": 122}, "uniqueid": "MTK3616:3QFUFYSY9ZMCCWI3VH5RB5XMXMMF4M", "dateTime": 1520810790539}, {"current_trial": 123, "trialdata": {"rt": -1, "trial_type": "single-stim", "stimulus": "<p id=\"stim\">5</p>", "internal_node_id": "0.0-91.0-5.0", "time_elapsed": 879306, "key_press": -1, "trial_index": 123}, "uniqueid": "MTK3616:3QFUFYSY9ZMCCWI3VH5RB5XMXMMF4M", "dateTime": 1520810791546}, {"current_trial": 124, "trialdata": {"rt": -1, "trial_type": "single-stim", "stimulus": "<p id=\"stim\">4</p>", "internal_node_id": "0.0-91.0-6.0", "time_elapsed": 880308, "key_press": -1, "trial_index": 124}, "uniqueid": "MTK3616:3QFUFYSY9ZMCCWI3VH5RB5XMXMMF4M", "dateTime": 1520810792548}, {"current_trial": 125, "trialdata": {"rt": -1, "trial_type": "single-stim", "stimulus": "<p id=\"stim\">3</p>", "internal_node_id": "0.0-91.0-7.0", "time_elapsed": 881310, "key_press": -1, "trial_index": 125}, "uniqueid": "MTK3616:3QFUFYSY9ZMCCWI3VH5RB5XMXMMF4M", "dateTime": 1520810793550}, {"current_trial": 126, "trialdata": {"rt": -1, "trial_type": "single-stim", "stimulus": "<p id=\"stim\">2</p>", "internal_node_id": "0.0-91.0-8.0", "time_elapsed": 882313, "key_press": -1, "trial_index": 126}, "uniqueid": "MTK3616:3QFUFYSY9ZMCCWI3VH5RB5XMXMMF4M", "dateTime": 1520810794554}, {"current_trial": 127, "trialdata": {"rt": -1, "trial_type": "single-stim", "stimulus": "<p id=\"stim\">1</p>", "internal_node_id": "0.0-91.0-9.0", "time_elapsed": 883315, "key_press": -1, "trial_index": 127}, "uniqueid": "MTK3616:3QFUFYSY9ZMCCWI3VH5RB5XMXMMF4M", "dateTime": 1520810795555}, {"current_trial": 128, "trialdata": {"rt": -1, "trial_type": "single-stim", "stimulus": "<p id=\"stim\">+</p>", "internal_node_id": "0.0-92.0-0.0", "time_elapsed": 884817, "key_press": -1, "type": "FIXATION", "trial_index": 128}, "uniqueid": "MTK3616:3QFUFYSY9ZMCCWI3VH5RB5XMXMMF4M", "dateTime": 1520810797057}, {"current_trial": 129, "trialdata": {"rt": -1000, "trial_type": "single-audio", "word": "salmon", "stimulus": "/static/audio/wordpool/SALMON.wav", "conditions": [24, 800, "a", 12000], "internal_node_id": "0.0-93.0", "trial": 3, "time_elapsed": 886825, "serialpos": 0, "key_press": -1, "wordID": 1226, "type": "PRES_AUD", "trial_index": 129}, "uniqueid": "MTK3616:3QFUFYSY9ZMCCWI3VH5RB5XMXMMF4M", "dateTime": 1520810799065}, {"current_trial": 130, "trialdata": {"rt": -1000, "trial_type": "single-audio", "word": "london", "stimulus": "/static/audio/wordpool/LONDON.wav", "conditions": [24, 800, "a", 12000], "internal_node_id": "0.0-94.0", "trial": 3, "time_elapsed": 888860, "serialpos": 1, "key_press": -1, "wordID": 842, "type": "PRES_AUD", "trial_index": 130}, "uniqueid": "MTK3616:3QFUFYSY9ZMCCWI3VH5RB5XMXMMF4M", "dateTime": 1520810801100}, {"current_trial": 131, "trialdata": {"rt": -1000, "trial_type": "single-audio", "word": "carriage", "stimulus": "/static/audio/wordpool/CARRIAGE.wav", "conditions": [24, 800, "a", 12000], "internal_node_id": "0.0-95.0", "trial": 3, "time_elapsed": 890529, "serialpos": 2, "key_press": -1, "wordID": 247, "type": "PRES_AUD", "trial_index": 131}, "uniqueid": "MTK3616:3QFUFYSY9ZMCCWI3VH5RB5XMXMMF4M", "dateTime": 1520810802769}, {"current_trial": 132, "trialdata": {"rt": -1000, "trial_type": "single-audio", "word": "lumber", "stimulus": "/static/audio/wordpool/LUMBER.wav", "conditions": [24, 800, "a", 12000], "internal_node_id": "0.0-96.0", "trial": 3, "time_elapsed": 892392, "serialpos": 3, "key_press": -1, "wordID": 847, "type": "PRES_AUD", "trial_index": 132}, "uniqueid": "MTK3616:3QFUFYSY9ZMCCWI3VH5RB5XMXMMF4M", "dateTime": 1520810804632}, {"current_trial": 133, "trialdata": {"rt": -1000, "trial_type": "single-audio", "word": "nightgown", "stimulus": "/static/audio/wordpool/NIGHTGOWN.wav", "conditions": [24, 800, "a", 12000], "internal_node_id": "0.0-97.0", "trial": 3, "time_elapsed": 894052, "serialpos": 4, "key_press": -1, "wordID": 952, "type": "PRES_AUD", "trial_index": 133}, "uniqueid": "MTK3616:3QFUFYSY9ZMCCWI3VH5RB5XMXMMF4M", "dateTime": 1520810806292}, {"current_trial": 134, "trialdata": {"rt": -1000, "trial_type": "single-audio", "word": "sparrow", "stimulus": "/static/audio/wordpool/SPARROW.wav", "conditions": [24, 800, "a", 12000], "internal_node_id": "0.0-98.0", "trial": 3, "time_elapsed": 895761, "serialpos": 5, "key_press": -1, "wordID": 1346, "type": "PRES_AUD", "trial_index": 134}, "uniqueid": "MTK3616:3QFUFYSY9ZMCCWI3VH5RB5XMXMMF4M", "dateTime": 1520810808001}, {"current_trial": 135, "trialdata": {"rt": -1000, "trial_type": "single-audio", "word": "trout", "stimulus": "/static/audio/wordpool/TROUT.wav", "conditions": [24, 800, "a", 12000], "internal_node_id": "0.0-99.0", "trial": 3, "time_elapsed": 897546, "serialpos": 6, "key_press": -1, "wordID": 1510, "type": "PRES_AUD", "trial_index": 135}, "uniqueid": "MTK3616:3QFUFYSY9ZMCCWI3VH5RB5XMXMMF4M", "dateTime": 1520810809786}, {"current_trial": 136, "trialdata": {"rt": -1000, "trial_type": "single-audio", "word": "nomad", "stimulus": "/static/audio/wordpool/NOMAD.wav", "conditions": [24, 800, "a", 12000], "internal_node_id": "0.0-100.0", "trial": 3, "time_elapsed": 899180, "serialpos": 7, "key_press": -1, "wordID": 954, "type": "PRES_AUD", "trial_index": 136}, "uniqueid": "MTK3616:3QFUFYSY9ZMCCWI3VH5RB5XMXMMF4M", "dateTime": 1520810811420}, {"current_trial": 137, "trialdata": {"rt": -1000, "trial_type": "single-audio", "word": "female", "stimulus": "/static/audio/wordpool/FEMALE.wav", "conditions": [24, 800, "a", 12000], "internal_node_id": "0.0-101.0", "trial": 3, "time_elapsed": 901098, "serialpos": 8, "key_press": -1, "wordID": 558, "type": "PRES_AUD", "trial_index": 137}, "uniqueid": "MTK3616:3QFUFYSY9ZMCCWI3VH5RB5XMXMMF4M", "dateTime": 1520810813338}, {"current_trial": 138, "trialdata": {"rt": -1000, "trial_type": "single-audio", "word": "bacon", "stimulus": "/static/audio/wordpool/BACON.wav", "conditions": [24, 800, "a", 12000], "internal_node_id": "0.0-102.0", "trial": 3, "time_elapsed": 902918, "serialpos": 9, "key_press": -1, "wordID": 66, "type": "PRES_AUD", "trial_index": 138}, "uniqueid": "MTK3616:3QFUFYSY9ZMCCWI3VH5RB5XMXMMF4M", "dateTime": 1520810815158}, {"current_trial": 139, "trialdata": {"rt": -1000, "trial_type": "single-audio", "word": "pork", "stimulus": "/static/audio/wordpool/PORK.wav", "conditions": [24, 800, "a", 12000], "internal_node_id": "0.0-103.0", "trial": 3, "time_elapsed": 904638, "serialpos": 10, "key_press": -1, "wordID": 1107, "type": "PRES_AUD", "trial_index": 139}, "uniqueid": "MTK3616:3QFUFYSY9ZMCCWI3VH5RB5XMXMMF4M", "dateTime": 1520810816879}, {"current_trial": 140, "trialdata": {"rt": -1000, "trial_type": "single-audio", "word": "agent", "stimulus": "/static/audio/wordpool/AGENT.wav", "conditions": [24, 800, "a", 12000], "internal_node_id": "0.0-104.0", "trial": 3, "time_elapsed": 906275, "serialpos": 11, "key_press": -1, "wordID": 9, "type": "PRES_AUD", "trial_index": 140}, "uniqueid": "MTK3616:3QFUFYSY9ZMCCWI3VH5RB5XMXMMF4M", "dateTime": 1520810818515}, {"current_trial": 141, "trialdata": {"rt": -1000, "trial_type": "single-audio", "word": "airplane", "stimulus": "/static/audio/wordpool/AIRPLANE.wav", "conditions": [24, 800, "a", 12000], "internal_node_id": "0.0-105.0", "trial": 3, "time_elapsed": 908115, "serialpos": 12, "key_press": -1, "wordID": 11, "type": "PRES_AUD", "trial_index": 141}, "uniqueid": "MTK3616:3QFUFYSY9ZMCCWI3VH5RB5XMXMMF4M", "dateTime": 1520810820355}, {"current_trial": 142, "trialdata": {"rt": -1000, "trial_type": "single-audio", "word": "champagne", "stimulus": "/static/audio/wordpool/CHAMPAGNE.wav", "conditions": [24, 800, "a", 12000], "internal_node_id": "0.0-106.0", "trial": 3, "time_elapsed": 909995, "serialpos": 13, "key_press": -1, "wordID": 277, "type": "PRES_AUD", "trial_index": 142}, "uniqueid": "MTK3616:3QFUFYSY9ZMCCWI3VH5RB5XMXMMF4M", "dateTime": 1520810822235}, {"current_trial": 143, "trialdata": {"rt": -1000, "trial_type": "single-audio", "word": "climber", "stimulus": "/static/audio/wordpool/CLIMBER.wav", "conditions": [24, 800, "a", 12000], "internal_node_id": "0.0-107.0", "trial": 3, "time_elapsed": 911792, "serialpos": 14, "key_press": -1, "wordID": 322, "type": "PRES_AUD", "trial_index": 143}, "uniqueid": "MTK3616:3QFUFYSY9ZMCCWI3VH5RB5XMXMMF4M", "dateTime": 1520810824032}, {"current_trial": 144, "trialdata": {"rt": -1000, "trial_type": "single-audio", "word": "stone", "stimulus": "/static/audio/wordpool/STONE.wav", "conditions": [24, 800, "a", 12000], "internal_node_id": "0.0-108.0", "trial": 3, "time_elapsed": 913700, "serialpos": 15, "key_press": -1, "wordID": 1384, "type": "PRES_AUD", "trial_index": 144}, "uniqueid": "MTK3616:3QFUFYSY9ZMCCWI3VH5RB5XMXMMF4M", "dateTime": 1520810825940}, {"current_trial": 145, "trialdata": {"rt": -1000, "trial_type": "single-audio", "word": "brick", "stimulus": "/static/audio/wordpool/BRICK.wav", "conditions": [24, 800, "a", 12000], "internal_node_id": "0.0-109.0", "trial": 3, "time_elapsed": 915364, "serialpos": 16, "key_press": -1, "wordID": 171, "type": "PRES_AUD", "trial_index": 145}, "uniqueid": "MTK3616:3QFUFYSY9ZMCCWI3VH5RB5XMXMMF4M", "dateTime": 1520810827604}, {"current_trial": 146, "trialdata": {"rt": -1000, "trial_type": "single-audio", "word": "witness", "stimulus": "/static/audio/wordpool/WITNESS.wav", "conditions": [24, 800, "a", 12000], "internal_node_id": "0.0-110.0", "trial": 3, "time_elapsed": 917331, "serialpos": 17, "key_press": -1, "wordID": 1617, "type": "PRES_AUD", "trial_index": 146}, "uniqueid": "MTK3616:3QFUFYSY9ZMCCWI3VH5RB5XMXMMF4M", "dateTime": 1520810829571}, {"current_trial": 147, "trialdata": {"rt": -1000, "trial_type": "single-audio", "word": "wife", "stimulus": "/static/audio/wordpool/WIFE.wav", "conditions": [24, 800, "a", 12000], "internal_node_id": "0.0-111.0", "trial": 3, "time_elapsed": 919145, "serialpos": 18, "key_press": -1, "wordID": 1608, "type": "PRES_AUD", "trial_index": 147}, "uniqueid": "MTK3616:3QFUFYSY9ZMCCWI3VH5RB5XMXMMF4M", "dateTime": 1520810831386}, {"current_trial": 148, "trialdata": {"rt": -1000, "trial_type": "single-audio", "word": "church", "stimulus": "/static/audio/wordpool/CHURCH.wav", "conditions": [24, 800, "a", 12000], "internal_node_id": "0.0-112.0", "trial": 3, "time_elapsed": 921055, "serialpos": 19, "key_press": -1, "wordID": 306, "type": "PRES_AUD", "trial_index": 148}, "uniqueid": "MTK3616:3QFUFYSY9ZMCCWI3VH5RB5XMXMMF4M", "dateTime": 1520810833295}, {"current_trial": 149, "trialdata": {"rt": -1000, "trial_type": "single-audio", "word": "briefcase", "stimulus": "/static/audio/wordpool/BRIEFCASE.wav", "conditions": [24, 800, "a", 12000], "internal_node_id": "0.0-113.0", "trial": 3, "time_elapsed": 922715, "serialpos": 20, "key_press": -1, "wordID": 174, "type": "PRES_AUD", "trial_index": 149}, "uniqueid": "MTK3616:3QFUFYSY9ZMCCWI3VH5RB5XMXMMF4M", "dateTime": 1520810834955}, {"current_trial": 150, "trialdata": {"rt": -1000, "trial_type": "single-audio", "word": "postage", "stimulus": "/static/audio/wordpool/POSTAGE.wav", "conditions": [24, 800, "a", 12000], "internal_node_id": "0.0-114.0", "trial": 3, "time_elapsed": 924438, "serialpos": 21, "key_press": -1, "wordID": 1112, "type": "PRES_AUD", "trial_index": 150}, "uniqueid": "MTK3616:3QFUFYSY9ZMCCWI3VH5RB5XMXMMF4M", "dateTime": 1520810836678}, {"current_trial": 151, "trialdata": {"rt": -1000, "trial_type": "single-audio", "word": "inmate", "stimulus": "/static/audio/wordpool/INMATE.wav", "conditions": [24, 800, "a", 12000], "internal_node_id": "0.0-115.0", "trial": 3, "time_elapsed": 926129, "serialpos": 22, "key_press": -1, "wordID": 737, "type": "PRES_AUD", "trial_index": 151}, "uniqueid": "MTK3616:3QFUFYSY9ZMCCWI3VH5RB5XMXMMF4M", "dateTime": 1520810838369}, {"current_trial": 152, "trialdata": {"rt": -1000, "trial_type": "single-audio", "word": "handbag", "stimulus": "/static/audio/wordpool/HANDBAG.wav", "conditions": [24, 800, "a", 12000], "internal_node_id": "0.0-116.0", "trial": 3, "time_elapsed": 928098, "serialpos": 23, "key_press": -1, "wordID": 683, "type": "PRES_AUD", "trial_index": 152}, "uniqueid": "MTK3616:3QFUFYSY9ZMCCWI3VH5RB5XMXMMF4M", "dateTime": 1520810840338}, {"current_trial": 153, "trialdata": {"rt": -1, "trial_type": "single-stim", "stimulus": "", "internal_node_id": "0.0-117.0-0.0", "time_elapsed": 929408, "key_press": -1, "type": "PRE_RECALL_DELAY", "trial_index": 153}, "uniqueid": "MTK3616:3QFUFYSY9ZMCCWI3VH5RB5XMXMMF4M", "dateTime": 1520810841648}, {"current_trial": 154, "trialdata": {"rt": -1000, "trial_type": "single-audio", "stimulus": "/static/audio/400Hz.wav", "internal_node_id": "0.0-118.0", "time_elapsed": 929915, "key_press": -1, "type": "PRE_RECALL_ALERT", "trial_index": 154}, "uniqueid": "MTK3616:3QFUFYSY9ZMCCWI3VH5RB5XMXMMF4M", "dateTime": 1520810842155}, {"current_trial": 155, "trialdata": {"rt": [3213, 6018, 8593, 12183], "recwords": ["inmate", "handbag", "postage", "phone"], "key_times": [928, 1119, 1460, 2021, 2238, 2528, 2653, 2744, 3213, 3824, 3916, 4066, 4426, 5189, 5567, 5739, 6018, 6789, 6942, 7059, 7248, 7376, 7628, 7829, 8593, 10957, 11116, 11244, 11441, 11544, 12183], "trial_type": "free-recall", "conditions": [24, 800, "a", 12000], "internal_node_id": "0.0-119.0-0.0", "key_presses": [73, 78, 84, 8, 77, 65, 84, 69, 13, 72, 65, 78, 68, 66, 65, 71, 13, 80, 79, 83, 84, 65, 71, 69, 13, 80, 72, 79, 78, 69, 13], "trial": 3, "time_elapsed": 989921, "type": "FREE_RECALL", "trial_index": 155}, "uniqueid": "MTK3616:3QFUFYSY9ZMCCWI3VH5RB5XMXMMF4M", "dateTime": 1520810902167}, {"current_trial": 156, "trialdata": {"rt": 9355, "trial_type": "text", "internal_node_id": "0.0-120.0", "time_elapsed": 1001285, "key_press": 32, "type": "INSTRUCTIONS", "trial_index": 156}, "uniqueid": "MTK3616:3QFUFYSY9ZMCCWI3VH5RB5XMXMMF4M", "dateTime": 1520810913525}, {"current_trial": 157, "trialdata": {"rt": [5250, 8184, 10969, 16549, 19433, 23507], "trial_type": "math-distractor", "key_times": [4364, 4812, 5250, 7453, 7796, 8184, 10313, 10508, 10969, 15390, 16174, 16549, 18683, 19031, 19433, 22539, 23170, 23507], "responses": ["16", "14", "21", "19", "15", "17"], "num2": [4, 7, 8, 8, 6, 7, 9], "num3": [7, 2, 8, 5, 3, 4, 1], "conditions": [12, 800, "a", 24000], "internal_node_id": "0.0-121.0", "key_presses": [49, 54, 13, 49, 52, 13, 50, 49, 13, 49, 57, 13, 49, 53, 13, 49, 55, 13], "trial": 4, "time_elapsed": 1027293, "type": "DISTRACTOR", "trial_index": 157, "num1": [5, 5, 5, 6, 6, 6, 7]}, "uniqueid": "MTK3616:3QFUFYSY9ZMCCWI3VH5RB5XMXMMF4M", "dateTime": 1520810939533}, {"current_trial": 158, "trialdata": {"rt": -1, "trial_type": "single-stim", "stimulus": "<p id=\"stim\">10</p>", "internal_node_id": "0.0-122.0-0.0", "time_elapsed": 1030297, "key_press": -1, "trial_index": 158}, "uniqueid": "MTK3616:3QFUFYSY9ZMCCWI3VH5RB5XMXMMF4M", "dateTime": 1520810942537}, {"current_trial": 159, "trialdata": {"rt": -1, "trial_type": "single-stim", "stimulus": "<p id=\"stim\">9</p>", "internal_node_id": "0.0-122.0-1.0", "time_elapsed": 1031300, "key_press": -1, "trial_index": 159}, "uniqueid": "MTK3616:3QFUFYSY9ZMCCWI3VH5RB5XMXMMF4M", "dateTime": 1520810943540}, {"current_trial": 160, "trialdata": {"rt": -1, "trial_type": "single-stim", "stimulus": "<p id=\"stim\">8</p>", "internal_node_id": "0.0-122.0-2.0", "time_elapsed": 1032302, "key_press": -1, "trial_index": 160}, "uniqueid": "MTK3616:3QFUFYSY9ZMCCWI3VH5RB5XMXMMF4M", "dateTime": 1520810944542}, {"current_trial": 161, "trialdata": {"rt": -1, "trial_type": "single-stim", "stimulus": "<p id=\"stim\">7</p>", "internal_node_id": "0.0-122.0-3.0", "time_elapsed": 1033305, "key_press": -1, "trial_index": 161}, "uniqueid": "MTK3616:3QFUFYSY9ZMCCWI3VH5RB5XMXMMF4M", "dateTime": 1520810945545}, {"current_trial": 162, "trialdata": {"rt": -1, "trial_type": "single-stim", "stimulus": "<p id=\"stim\">6</p>", "internal_node_id": "0.0-122.0-4.0", "time_elapsed": 1034309, "key_press": -1, "trial_index": 162}, "uniqueid": "MTK3616:3QFUFYSY9ZMCCWI3VH5RB5XMXMMF4M", "dateTime": 1520810946549}, {"current_trial": 163, "trialdata": {"rt": -1, "trial_type": "single-stim", "stimulus": "<p id=\"stim\">5</p>", "internal_node_id": "0.0-122.0-5.0", "time_elapsed": 1035314, "key_press": -1, "trial_index": 163}, "uniqueid": "MTK3616:3QFUFYSY9ZMCCWI3VH5RB5XMXMMF4M", "dateTime": 1520810947554}, {"current_trial": 164, "trialdata": {"rt": -1, "trial_type": "single-stim", "stimulus": "<p id=\"stim\">4</p>", "internal_node_id": "0.0-122.0-6.0", "time_elapsed": 1036316, "key_press": -1, "trial_index": 164}, "uniqueid": "MTK3616:3QFUFYSY9ZMCCWI3VH5RB5XMXMMF4M", "dateTime": 1520810948557}, {"current_trial": 165, "trialdata": {"rt": -1, "trial_type": "single-stim", "stimulus": "<p id=\"stim\">3</p>", "internal_node_id": "0.0-122.0-7.0", "time_elapsed": 1037318, "key_press": -1, "trial_index": 165}, "uniqueid": "MTK3616:3QFUFYSY9ZMCCWI3VH5RB5XMXMMF4M", "dateTime": 1520810949560}, {"current_trial": 166, "trialdata": {"rt": -1, "trial_type": "single-stim", "stimulus": "<p id=\"stim\">2</p>", "internal_node_id": "0.0-122.0-8.0", "time_elapsed": 1038323, "key_press": -1, "trial_index": 166}, "uniqueid": "MTK3616:3QFUFYSY9ZMCCWI3VH5RB5XMXMMF4M", "dateTime": 1520810950563}, {"current_trial": 167, "trialdata": {"rt": -1, "trial_type": "single-stim", "stimulus": "<p id=\"stim\">1</p>", "internal_node_id": "0.0-122.0-9.0", "time_elapsed": 1039329, "key_press": -1, "trial_index": 167}, "uniqueid": "MTK3616:3QFUFYSY9ZMCCWI3VH5RB5XMXMMF4M", "dateTime": 1520810951569}, {"current_trial": 168, "trialdata": {"rt": -1, "trial_type": "single-stim", "stimulus": "<p id=\"stim\">+</p>", "internal_node_id": "0.0-123.0-0.0", "time_elapsed": 1040832, "key_press": -1, "type": "FIXATION", "trial_index": 168}, "uniqueid": "MTK3616:3QFUFYSY9ZMCCWI3VH5RB5XMXMMF4M", "dateTime": 1520810953073}, {"current_trial": 169, "trialdata": {"rt": -1000, "trial_type": "single-audio", "word": "lizard", "stimulus": "/static/audio/wordpool/LIZARD.wav", "conditions": [12, 800, "a", 24000], "internal_node_id": "0.0-124.0", "trial": 4, "time_elapsed": 1042543, "serialpos": 0, "key_press": -1, "wordID": 833, "type": "PRES_AUD", "trial_index": 169}, "uniqueid": "MTK3616:3QFUFYSY9ZMCCWI3VH5RB5XMXMMF4M", "dateTime": 1520810954783}, {"current_trial": 170, "trialdata": {"rt": -1000, "trial_type": "single-audio", "word": "rust", "stimulus": "/static/audio/wordpool/RUST.wav", "conditions": [12, 800, "a", 24000], "internal_node_id": "0.0-125.0", "trial": 4, "time_elapsed": 1044187, "serialpos": 1, "key_press": -1, "wordID": 1218, "type": "PRES_AUD", "trial_index": 170}, "uniqueid": "MTK3616:3QFUFYSY9ZMCCWI3VH5RB5XMXMMF4M", "dateTime": 1520810956427}, {"current_trial": 171, "trialdata": {"rt": -1000, "trial_type": "single-audio", "word": "rebel", "stimulus": "/static/audio/wordpool/REBEL.wav", "conditions": [12, 800, "a", 24000], "internal_node_id": "0.0-126.0", "trial": 4, "time_elapsed": 1045942, "serialpos": 2, "key_press": -1, "wordID": 1171, "type": "PRES_AUD", "trial_index": 171}, "uniqueid": "MTK3616:3QFUFYSY9ZMCCWI3VH5RB5XMXMMF4M", "dateTime": 1520810958182}, {"current_trial": 172, "trialdata": {"rt": -1000, "trial_type": "single-audio", "word": "marsh", "stimulus": "/static/audio/wordpool/MARSH.wav", "conditions": [12, 800, "a", 24000], "internal_node_id": "0.0-127.0", "trial": 4, "time_elapsed": 1047739, "serialpos": 3, "key_press": -1, "wordID": 873, "type": "PRES_AUD", "trial_index": 172}, "uniqueid": "MTK3616:3QFUFYSY9ZMCCWI3VH5RB5XMXMMF4M", "dateTime": 1520810959980}, {"current_trial": 173, "trialdata": {"rt": -1000, "trial_type": "single-audio", "word": "slime", "stimulus": "/static/audio/wordpool/SLIME.wav", "conditions": [12, 800, "a", 24000], "internal_node_id": "0.0-128.0", "trial": 4, "time_elapsed": 1049540, "serialpos": 4, "key_press": -1, "wordID": 1326, "type": "PRES_AUD", "trial_index": 173}, "uniqueid": "MTK3616:3QFUFYSY9ZMCCWI3VH5RB5XMXMMF4M", "dateTime": 1520810961780}, {"current_trial": 174, "trialdata": {"rt": -1000, "trial_type": "single-audio", "word": "bug", "stimulus": "/static/audio/wordpool/BUG.wav", "conditions": [12, 800, "a", 24000], "internal_node_id": "0.0-129.0", "trial": 4, "time_elapsed": 1051189, "serialpos": 5, "key_press": -1, "wordID": 186, "type": "PRES_AUD", "trial_index": 174}, "uniqueid": "MTK3616:3QFUFYSY9ZMCCWI3VH5RB5XMXMMF4M", "dateTime": 1520810963429}, {"current_trial": 175, "trialdata": {"rt": -1000, "trial_type": "single-audio", "word": "perch", "stimulus": "/static/audio/wordpool/PERCH.wav", "conditions": [12, 800, "a", 24000], "internal_node_id": "0.0-130.0", "trial": 4, "time_elapsed": 1053046, "serialpos": 6, "key_press": -1, "wordID": 1047, "type": "PRES_AUD", "trial_index": 175}, "uniqueid": "MTK3616:3QFUFYSY9ZMCCWI3VH5RB5XMXMMF4M", "dateTime": 1520810965286}, {"current_trial": 176, "trialdata": {"rt": -1000, "trial_type": "single-audio", "word": "mildew", "stimulus": "/static/audio/wordpool/MILDEW.wav", "conditions": [12, 800, "a", 24000], "internal_node_id": "0.0-131.0", "trial": 4, "time_elapsed": 1054880, "serialpos": 7, "key_press": -1, "wordID": 892, "type": "PRES_AUD", "trial_index": 176}, "uniqueid": "MTK3616:3QFUFYSY9ZMCCWI3VH5RB5XMXMMF4M", "dateTime": 1520810967120}, {"current_trial": 177, "trialdata": {"rt": -1000, "trial_type": "single-audio", "word": "tortoise", "stimulus": "/static/audio/wordpool/TORTOISE.wav", "conditions": [12, 800, "a", 24000], "internal_node_id": "0.0-132.0", "trial": 4, "time_elapsed": 1056758, "serialpos": 8, "key_press": -1, "wordID": 1485, "type": "PRES_AUD", "trial_index": 177}, "uniqueid": "MTK3616:3QFUFYSY9ZMCCWI3VH5RB5XMXMMF4M", "dateTime": 1520810968998}, {"current_trial": 178, "trialdata": {"rt": -1000, "trial_type": "single-audio", "word": "statue", "stimulus": "/static/audio/wordpool/STATUE.wav", "conditions": [12, 800, "a", 24000], "internal_node_id": "0.0-133.0", "trial": 4, "time_elapsed": 1058496, "serialpos": 9, "key_press": -1, "wordID": 1373, "type": "PRES_AUD", "trial_index": 178}, "uniqueid": "MTK3616:3QFUFYSY9ZMCCWI3VH5RB5XMXMMF4M", "dateTime": 1520810970736}, {"current_trial": 179, "trialdata": {"rt": -1000, "trial_type": "single-audio", "word": "tombstone", "stimulus": "/static/audio/wordpool/TOMBSTONE.wav", "conditions": [12, 800, "a", 24000], "internal_node_id": "0.0-134.0", "trial": 4, "time_elapsed": 1060203, "serialpos": 10, "key_press": -1, "wordID": 1477, "type": "PRES_AUD", "trial_index": 179}, "uniqueid": "MTK3616:3QFUFYSY9ZMCCWI3VH5RB5XMXMMF4M", "dateTime": 1520810972443}, {"current_trial": 180, "trialdata": {"rt": -1000, "trial_type": "single-audio", "word": "leg", "stimulus": "/static/audio/wordpool/LEG.wav", "conditions": [12, 800, "a", 24000], "internal_node_id": "0.0-135.0", "trial": 4, "time_elapsed": 1062031, "serialpos": 11, "key_press": -1, "wordID": 808, "type": "PRES_AUD", "trial_index": 180}, "uniqueid": "MTK3616:3QFUFYSY9ZMCCWI3VH5RB5XMXMMF4M", "dateTime": 1520810974272}, {"current_trial": 181, "trialdata": {"rt": -1, "trial_type": "single-stim", "stimulus": "", "internal_node_id": "0.0-136.0-0.0", "time_elapsed": 1063265, "key_press": -1, "type": "PRE_RECALL_DELAY", "trial_index": 181}, "uniqueid": "MTK3616:3QFUFYSY9ZMCCWI3VH5RB5XMXMMF4M", "dateTime": 1520810975505}, {"current_trial": 182, "trialdata": {"rt": -1000, "trial_type": "single-audio", "stimulus": "/static/audio/400Hz.wav", "internal_node_id": "0.0-137.0", "time_elapsed": 1063771, "key_press": -1, "type": "PRE_RECALL_ALERT", "trial_index": 182}, "uniqueid": "MTK3616:3QFUFYSY9ZMCCWI3VH5RB5XMXMMF4M", "dateTime": 1520810976011}, {"current_trial": 183, "trialdata": {"rt": [2830, 4559, 6181, 10757, 12431, 14327, 19580, 23972, 35752, 36947, 43339, 50998], "recwords": ["tombstone", "leg", "statue", "lizard", "slime", "mildew", "samon", "bug", "tombstone", "leg", "bog", "frog"], "key_times": [1368, 1476, 1650, 1797, 2108, 2324, 2382, 2483, 2598, 2830, 3225, 3560, 3774, 3883, 4259, 4559, 4843, 5015, 5127, 5560, 5696, 5856, 6181, 8967, 9033, 9699, 9907, 10097, 10478, 10757, 11186, 11255, 11593, 11790, 11891, 12431, 12803, 12920, 13097, 13426, 13650, 13754, 14327, 18665, 18854, 18957, 19101, 19224, 19580, 23097, 23237, 23677, 23972, 33946, 34018, 34202, 34492, 34804, 34961, 35078, 35185, 35291, 35752, 36209, 36323, 36662, 36947, 42779, 42832, 43048, 43339, 50294, 50457, 50539, 50745, 50998], "trial_type": "free-recall", "conditions": [12, 800, "a", 24000], "internal_node_id": "0.0-138.0-0.0", "key_presses": [84, 79, 77, 66, 83, 84, 79, 78, 69, 13, 83, 8, 76, 69, 71, 13, 83, 84, 65, 84, 85, 69, 13, 76, 73, 90, 65, 82, 68, 13, 83, 76, 73, 77, 69, 13, 77, 73, 76, 68, 69, 87, 13, 83, 65, 77, 79, 78, 13, 66, 85, 71, 13, 84, 79, 77, 66, 83, 84, 79, 78, 69, 13, 76, 69, 71, 13, 66, 79, 71, 13, 70, 82, 79, 71, 13], "trial": 4, "time_elapsed": 1123776, "type": "FREE_RECALL", "trial_index": 183}, "uniqueid": "MTK3616:3QFUFYSY9ZMCCWI3VH5RB5XMXMMF4M", "dateTime": 1520811036023}, {"current_trial": 184, "trialdata": {"rt": 1857, "trial_type": "text", "internal_node_id": "0.0-139.0", "time_elapsed": 1127641, "key_press": 32, "type": "INSTRUCTIONS", "trial_index": 184}, "uniqueid": "MTK3616:3QFUFYSY9ZMCCWI3VH5RB5XMXMMF4M", "dateTime": 1520811039881}, {"current_trial": 185, "trialdata": {"rt": [3243, 9970], "trial_type": "math-distractor", "key_times": [2448, 3243, 8479, 9279, 9970], "responses": ["8", "20"], "num2": [1, 6, 3], "num3": [1, 9, 6], "conditions": [12, 800, "a", 12000], "internal_node_id": "0.0-140.0", "key_presses": [56, 13, 50, 48, 13], "trial": 5, "time_elapsed": 1141650, "type": "DISTRACTOR", "trial_index": 185, "num1": [6, 5, 8]}, "uniqueid": "MTK3616:3QFUFYSY9ZMCCWI3VH5RB5XMXMMF4M", "dateTime": 1520811053890}, {"current_trial": 186, "trialdata": {"rt": -1, "trial_type": "single-stim", "stimulus": "<p id=\"stim\">10</p>", "internal_node_id": "0.0-141.0-0.0", "time_elapsed": 1144652, "key_press": -1, "trial_index": 186}, "uniqueid": "MTK3616:3QFUFYSY9ZMCCWI3VH5RB5XMXMMF4M", "dateTime": 1520811056892}, {"current_trial": 187, "trialdata": {"rt": -1, "trial_type": "single-stim", "stimulus": "<p id=\"stim\">9</p>", "internal_node_id": "0.0-141.0-1.0", "time_elapsed": 1145656, "key_press": -1, "trial_index": 187}, "uniqueid": "MTK3616:3QFUFYSY9ZMCCWI3VH5RB5XMXMMF4M", "dateTime": 1520811057896}, {"current_trial": 188, "trialdata": {"rt": -1, "trial_type": "single-stim", "stimulus": "<p id=\"stim\">8</p>", "internal_node_id": "0.0-141.0-2.0", "time_elapsed": 1146658, "key_press": -1, "trial_index": 188}, "uniqueid": "MTK3616:3QFUFYSY9ZMCCWI3VH5RB5XMXMMF4M", "dateTime": 1520811058898}, {"current_trial": 189, "trialdata": {"rt": -1, "trial_type": "single-stim", "stimulus": "<p id=\"stim\">7</p>", "internal_node_id": "0.0-141.0-3.0", "time_elapsed": 1147660, "key_press": -1, "trial_index": 189}, "uniqueid": "MTK3616:3QFUFYSY9ZMCCWI3VH5RB5XMXMMF4M", "dateTime": 1520811059900}, {"current_trial": 190, "trialdata": {"rt": -1, "trial_type": "single-stim", "stimulus": "<p id=\"stim\">6</p>", "internal_node_id": "0.0-141.0-4.0", "time_elapsed": 1148662, "key_press": -1, "trial_index": 190}, "uniqueid": "MTK3616:3QFUFYSY9ZMCCWI3VH5RB5XMXMMF4M", "dateTime": 1520811060903}, {"current_trial": 191, "trialdata": {"rt": -1, "trial_type": "single-stim", "stimulus": "<p id=\"stim\">5</p>", "internal_node_id": "0.0-141.0-5.0", "time_elapsed": 1149665, "key_press": -1, "trial_index": 191}, "uniqueid": "MTK3616:3QFUFYSY9ZMCCWI3VH5RB5XMXMMF4M", "dateTime": 1520811061905}, {"current_trial": 192, "trialdata": {"rt": -1, "trial_type": "single-stim", "stimulus": "<p id=\"stim\">4</p>", "internal_node_id": "0.0-141.0-6.0", "time_elapsed": 1150667, "key_press": -1, "trial_index": 192}, "uniqueid": "MTK3616:3QFUFYSY9ZMCCWI3VH5RB5XMXMMF4M", "dateTime": 1520811062907}, {"current_trial": 193, "trialdata": {"rt": -1, "trial_type": "single-stim", "stimulus": "<p id=\"stim\">3</p>", "internal_node_id": "0.0-141.0-7.0", "time_elapsed": 1151669, "key_press": -1, "trial_index": 193}, "uniqueid": "MTK3616:3QFUFYSY9ZMCCWI3VH5RB5XMXMMF4M", "dateTime": 1520811063909}, {"current_trial": 194, "trialdata": {"rt": -1, "trial_type": "single-stim", "stimulus": "<p id=\"stim\">2</p>", "internal_node_id": "0.0-141.0-8.0", "time_elapsed": 1152670, "key_press": -1, "trial_index": 194}, "uniqueid": "MTK3616:3QFUFYSY9ZMCCWI3VH5RB5XMXMMF4M", "dateTime": 1520811064910}, {"current_trial": 195, "trialdata": {"rt": -1, "trial_type": "single-stim", "stimulus": "<p id=\"stim\">1</p>", "internal_node_id": "0.0-141.0-9.0", "time_elapsed": 1153673, "key_press": -1, "trial_index": 195}, "uniqueid": "MTK3616:3QFUFYSY9ZMCCWI3VH5RB5XMXMMF4M", "dateTime": 1520811065913}, {"current_trial": 196, "trialdata": {"rt": -1, "trial_type": "single-stim", "stimulus": "<p id=\"stim\">+</p>", "internal_node_id": "0.0-142.0-0.0", "time_elapsed": 1155175, "key_press": -1, "type": "FIXATION", "trial_index": 196}, "uniqueid": "MTK3616:3QFUFYSY9ZMCCWI3VH5RB5XMXMMF4M", "dateTime": 1520811067415}, {"current_trial": 197, "trialdata": {"rt": -1000, "trial_type": "single-audio", "word": "twister", "stimulus": "/static/audio/wordpool/TWISTER.wav", "conditions": [12, 800, "a", 12000], "internal_node_id": "0.0-143.0", "trial": 5, "time_elapsed": 1157053, "serialpos": 0, "key_press": -1, "wordID": 1529, "type": "PRES_AUD", "trial_index": 197}, "uniqueid": "MTK3616:3QFUFYSY9ZMCCWI3VH5RB5XMXMMF4M", "dateTime": 1520811069293}, {"current_trial": 198, "trialdata": {"rt": -1000, "trial_type": "single-audio", "word": "cricket", "stimulus": "/static/audio/wordpool/CRICKET.wav", "conditions": [12, 800, "a", 12000], "internal_node_id": "0.0-144.0", "trial": 5, "time_elapsed": 1158923, "serialpos": 1, "key_press": -1, "wordID": 407, "type": "PRES_AUD", "trial_index": 198}, "uniqueid": "MTK3616:3QFUFYSY9ZMCCWI3VH5RB5XMXMMF4M", "dateTime": 1520811071163}, {"current_trial": 199, "trialdata": {"rt": -1000, "trial_type": "single-audio", "word": "fireplace", "stimulus": "/static/audio/wordpool/FIREPLACE.wav", "conditions": [12, 800, "a", 12000], "internal_node_id": "0.0-145.0", "trial": 5, "time_elapsed": 1160798, "serialpos": 2, "key_press": -1, "wordID": 569, "type": "PRES_AUD", "trial_index": 199}, "uniqueid": "MTK3616:3QFUFYSY9ZMCCWI3VH5RB5XMXMMF4M", "dateTime": 1520811073039}, {"current_trial": 200, "trialdata": {"rt": -1000, "trial_type": "single-audio", "word": "flask", "stimulus": "/static/audio/wordpool/FLASK.wav", "conditions": [12, 800, "a", 12000], "internal_node_id": "0.0-146.0", "trial": 5, "time_elapsed": 1162506, "serialpos": 3, "key_press": -1, "wordID": 575, "type": "PRES_AUD", "trial_index": 200}, "uniqueid": "MTK3616:3QFUFYSY9ZMCCWI3VH5RB5XMXMMF4M", "dateTime": 1520811074746}, {"current_trial": 201, "trialdata": {"rt": -1000, "trial_type": "single-audio", "word": "fiddle", "stimulus": "/static/audio/wordpool/FIDDLE.wav", "conditions": [12, 800, "a", 12000], "internal_node_id": "0.0-147.0", "trial": 5, "time_elapsed": 1164428, "serialpos": 4, "key_press": -1, "wordID": 560, "type": "PRES_AUD", "trial_index": 201}, "uniqueid": "MTK3616:3QFUFYSY9ZMCCWI3VH5RB5XMXMMF4M", "dateTime": 1520811076669}, {"current_trial": 202, "trialdata": {"rt": -1000, "trial_type": "single-audio", "word": "cookbook", "stimulus": "/static/audio/wordpool/COOKBOOK.wav", "conditions": [12, 800, "a", 12000], "internal_node_id": "0.0-148.0", "trial": 5, "time_elapsed": 1166166, "serialpos": 5, "key_press": -1, "wordID": 372, "type": "PRES_AUD", "trial_index": 202}, "uniqueid": "MTK3616:3QFUFYSY9ZMCCWI3VH5RB5XMXMMF4M", "dateTime": 1520811078407}, {"current_trial": 203, "trialdata": {"rt": -1000, "trial_type": "single-audio", "word": "doughnut", "stimulus": "/static/audio/wordpool/DOUGHNUT.wav", "conditions": [12, 800, "a", 12000], "internal_node_id": "0.0-149.0", "trial": 5, "time_elapsed": 1167969, "serialpos": 6, "key_press": -1, "wordID": 489, "type": "PRES_AUD", "trial_index": 203}, "uniqueid": "MTK3616:3QFUFYSY9ZMCCWI3VH5RB5XMXMMF4M", "dateTime": 1520811080209}, {"current_trial": 204, "trialdata": {"rt": -1000, "trial_type": "single-audio", "word": "princess", "stimulus": "/static/audio/wordpool/PRINCESS.wav", "conditions": [12, 800, "a", 12000], "internal_node_id": "0.0-150.0", "trial": 5, "time_elapsed": 1169751, "serialpos": 7, "key_press": -1, "wordID": 1124, "type": "PRES_AUD", "trial_index": 204}, "uniqueid": "MTK3616:3QFUFYSY9ZMCCWI3VH5RB5XMXMMF4M", "dateTime": 1520811081991}, {"current_trial": 205, "trialdata": {"rt": -1000, "trial_type": "single-audio", "word": "queen", "stimulus": "/static/audio/wordpool/QUEEN.wav", "conditions": [12, 800, "a", 12000], "internal_node_id": "0.0-151.0", "trial": 5, "time_elapsed": 1171734, "serialpos": 8, "key_press": -1, "wordID": 1148, "type": "PRES_AUD", "trial_index": 205}, "uniqueid": "MTK3616:3QFUFYSY9ZMCCWI3VH5RB5XMXMMF4M", "dateTime": 1520811083974}, {"current_trial": 206, "trialdata": {"rt": -1000, "trial_type": "single-audio", "word": "match", "stimulus": "/static/audio/wordpool/MATCH.wav", "conditions": [12, 800, "a", 12000], "internal_node_id": "0.0-152.0", "trial": 5, "time_elapsed": 1173627, "serialpos": 9, "key_press": -1, "wordID": 877, "type": "PRES_AUD", "trial_index": 206}, "uniqueid": "MTK3616:3QFUFYSY9ZMCCWI3VH5RB5XMXMMF4M", "dateTime": 1520811085867}, {"current_trial": 207, "trialdata": {"rt": -1000, "trial_type": "single-audio", "word": "jury", "stimulus": "/static/audio/wordpool/JURY.wav", "conditions": [12, 800, "a", 12000], "internal_node_id": "0.0-153.0", "trial": 5, "time_elapsed": 1175244, "serialpos": 10, "key_press": -1, "wordID": 765, "type": "PRES_AUD", "trial_index": 207}, "uniqueid": "MTK3616:3QFUFYSY9ZMCCWI3VH5RB5XMXMMF4M", "dateTime": 1520811087484}, {"current_trial": 208, "trialdata": {"rt": -1000, "trial_type": "single-audio", "word": "sandwich", "stimulus": "/static/audio/wordpool/SANDWICH.wav", "conditions": [12, 800, "a", 12000], "internal_node_id": "0.0-154.0", "trial": 5, "time_elapsed": 1176966, "serialpos": 11, "key_press": -1, "wordID": 1231, "type": "PRES_AUD", "trial_index": 208}, "uniqueid": "MTK3616:3QFUFYSY9ZMCCWI3VH5RB5XMXMMF4M", "dateTime": 1520811089206}, {"current_trial": 209, "trialdata": {"rt": -1, "trial_type": "single-stim", "stimulus": "", "internal_node_id": "0.0-155.0-0.0", "time_elapsed": 1178339, "key_press": -1, "type": "PRE_RECALL_DELAY", "trial_index": 209}, "uniqueid": "MTK3616:3QFUFYSY9ZMCCWI3VH5RB5XMXMMF4M", "dateTime": 1520811090579}, {"current_trial": 210, "trialdata": {"rt": -1000, "trial_type": "single-audio", "stimulus": "/static/audio/400Hz.wav", "internal_node_id": "0.0-156.0", "time_elapsed": 1178843, "key_press": -1, "type": "PRE_RECALL_ALERT", "trial_index": 210}, "uniqueid": "MTK3616:3QFUFYSY9ZMCCWI3VH5RB5XMXMMF4M", "dateTime": 1520811091083}, {"current_trial": 211, "trialdata": {"rt": [2428, 5031, 11826], "recwords": ["jury", "sandwhich", "queen"], "key_times": [1151, 1331, 1517, 1661, 2428, 2758, 2917, 3037, 3601, 3842, 4069, 4156, 4423, 4663, 5031, 11103, 11218, 11325, 11502, 11572, 11826], "trial_type": "free-recall", "conditions": [12, 800, "a", 12000], "internal_node_id": "0.0-157.0-0.0", "key_presses": [74, 85, 82, 89, 13, 83, 65, 78, 68, 87, 72, 73, 67, 72, 13, 81, 85, 69, 69, 78, 13], "trial": 5, "time_elapsed": 1238849, "type": "FREE_RECALL", "trial_index": 211}, "uniqueid": "MTK3616:3QFUFYSY9ZMCCWI3VH5RB5XMXMMF4M", "dateTime": 1520811151095}, {"current_trial": 212, "trialdata": {"rt": 45831, "trial_type": "text", "internal_node_id": "0.0-158.0", "time_elapsed": 1286687, "key_press": 32, "type": "INSTRUCTIONS", "trial_index": 212}, "uniqueid": "MTK3616:3QFUFYSY9ZMCCWI3VH5RB5XMXMMF4M", "dateTime": 1520811198928}, {"current_trial": 213, "trialdata": {"rt": [5273, 9309, 14627, 18139, 23285], "trial_type": "math-distractor", "key_times": [3234, 4203, 5273, 7815, 8385, 9309, 13520, 13741, 14627, 16470, 17098, 18139, 21535, 22387, 23285], "responses": ["16", "17", "21", "14", "15"], "num2": [1, 7, 6, 4, 4, 6], "num3": [6, 5, 9, 1, 9, 3], "conditions": [24, 800, "a", 24000], "internal_node_id": "0.0-159.0", "key_presses": [49, 54, 13, 49, 55, 13, 50, 49, 13, 49, 52, 13, 49, 53, 13], "trial": 6, "time_elapsed": 1312694, "type": "DISTRACTOR", "trial_index": 213, "num1": [9, 5, 6, 9, 2, 2]}, "uniqueid": "MTK3616:3QFUFYSY9ZMCCWI3VH5RB5XMXMMF4M", "dateTime": 1520811224934}, {"current_trial": 214, "trialdata": {"rt": -1, "trial_type": "single-stim", "stimulus": "<p id=\"stim\">10</p>", "internal_node_id": "0.0-160.0-0.0", "time_elapsed": 1315695, "key_press": -1, "trial_index": 214}, "uniqueid": "MTK3616:3QFUFYSY9ZMCCWI3VH5RB5XMXMMF4M", "dateTime": 1520811227935}, {"current_trial": 215, "trialdata": {"rt": -1, "trial_type": "single-stim", "stimulus": "<p id=\"stim\">9</p>", "internal_node_id": "0.0-160.0-1.0", "time_elapsed": 1316697, "key_press": -1, "trial_index": 215}, "uniqueid": "MTK3616:3QFUFYSY9ZMCCWI3VH5RB5XMXMMF4M", "dateTime": 1520811228938}, {"current_trial": 216, "trialdata": {"rt": -1, "trial_type": "single-stim", "stimulus": "<p id=\"stim\">8</p>", "internal_node_id": "0.0-160.0-2.0", "time_elapsed": 1317700, "key_press": -1, "trial_index": 216}, "uniqueid": "MTK3616:3QFUFYSY9ZMCCWI3VH5RB5XMXMMF4M", "dateTime": 1520811229940}, {"current_trial": 217, "trialdata": {"rt": -1, "trial_type": "single-stim", "stimulus": "<p id=\"stim\">7</p>", "internal_node_id": "0.0-160.0-3.0", "time_elapsed": 1318701, "key_press": -1, "trial_index": 217}, "uniqueid": "MTK3616:3QFUFYSY9ZMCCWI3VH5RB5XMXMMF4M", "dateTime": 1520811230942}, {"current_trial": 218, "trialdata": {"rt": -1, "trial_type": "single-stim", "stimulus": "<p id=\"stim\">6</p>", "internal_node_id": "0.0-160.0-4.0", "time_elapsed": 1319704, "key_press": -1, "trial_index": 218}, "uniqueid": "MTK3616:3QFUFYSY9ZMCCWI3VH5RB5XMXMMF4M", "dateTime": 1520811231946}, {"current_trial": 219, "trialdata": {"rt": -1, "trial_type": "single-stim", "stimulus": "<p id=\"stim\">5</p>", "internal_node_id": "0.0-160.0-5.0", "time_elapsed": 1320706, "key_press": -1, "trial_index": 219}, "uniqueid": "MTK3616:3QFUFYSY9ZMCCWI3VH5RB5XMXMMF4M", "dateTime": 1520811232948}, {"current_trial": 220, "trialdata": {"rt": -1, "trial_type": "single-stim", "stimulus": "<p id=\"stim\">4</p>", "internal_node_id": "0.0-160.0-6.0", "time_elapsed": 1321710, "key_press": -1, "trial_index": 220}, "uniqueid": "MTK3616:3QFUFYSY9ZMCCWI3VH5RB5XMXMMF4M", "dateTime": 1520811233950}, {"current_trial": 221, "trialdata": {"rt": -1, "trial_type": "single-stim", "stimulus": "<p id=\"stim\">3</p>", "internal_node_id": "0.0-160.0-7.0", "time_elapsed": 1322712, "key_press": -1, "trial_index": 221}, "uniqueid": "MTK3616:3QFUFYSY9ZMCCWI3VH5RB5XMXMMF4M", "dateTime": 1520811234952}, {"current_trial": 222, "trialdata": {"rt": -1, "trial_type": "single-stim", "stimulus": "<p id=\"stim\">2</p>", "internal_node_id": "0.0-160.0-8.0", "time_elapsed": 1323715, "key_press": -1, "trial_index": 222}, "uniqueid": "MTK3616:3QFUFYSY9ZMCCWI3VH5RB5XMXMMF4M", "dateTime": 1520811235956}, {"current_trial": 223, "trialdata": {"rt": -1, "trial_type": "single-stim", "stimulus": "<p id=\"stim\">1</p>", "internal_node_id": "0.0-160.0-9.0", "time_elapsed": 1324717, "key_press": -1, "trial_index": 223}, "uniqueid": "MTK3616:3QFUFYSY9ZMCCWI3VH5RB5XMXMMF4M", "dateTime": 1520811236957}, {"current_trial": 224, "trialdata": {"rt": -1, "trial_type": "single-stim", "stimulus": "<p id=\"stim\">+</p>", "internal_node_id": "0.0-161.0-0.0", "time_elapsed": 1326221, "key_press": -1, "type": "FIXATION", "trial_index": 224}, "uniqueid": "MTK3616:3QFUFYSY9ZMCCWI3VH5RB5XMXMMF4M", "dateTime": 1520811238462}, {"current_trial": 225, "trialdata": {"rt": -1000, "trial_type": "single-audio", "word": "yarn", "stimulus": "/static/audio/wordpool/YARN.wav", "conditions": [24, 800, "a", 24000], "internal_node_id": "0.0-162.0", "trial": 6, "time_elapsed": 1327870, "serialpos": 0, "key_press": -1, "wordID": 1630, "type": "PRES_AUD", "trial_index": 225}, "uniqueid": "MTK3616:3QFUFYSY9ZMCCWI3VH5RB5XMXMMF4M", "dateTime": 1520811240111}, {"current_trial": 226, "trialdata": {"rt": -1000, "trial_type": "single-audio", "word": "buggy", "stimulus": "/static/audio/wordpool/BUGGY.wav", "conditions": [24, 800, "a", 24000], "internal_node_id": "0.0-163.0", "trial": 6, "time_elapsed": 1329593, "serialpos": 1, "key_press": -1, "wordID": 187, "type": "PRES_AUD", "trial_index": 226}, "uniqueid": "MTK3616:3QFUFYSY9ZMCCWI3VH5RB5XMXMMF4M", "dateTime": 1520811241833}, {"current_trial": 227, "trialdata": {"rt": -1000, "trial_type": "single-audio", "word": "dustpan", "stimulus": "/static/audio/wordpool/DUSTPAN.wav", "conditions": [24, 800, "a", 24000], "internal_node_id": "0.0-164.0", "trial": 6, "time_elapsed": 1331242, "serialpos": 2, "key_press": -1, "wordID": 508, "type": "PRES_AUD", "trial_index": 227}, "uniqueid": "MTK3616:3QFUFYSY9ZMCCWI3VH5RB5XMXMMF4M", "dateTime": 1520811243482}, {"current_trial": 228, "trialdata": {"rt": -1000, "trial_type": "single-audio", "word": "forest", "stimulus": "/static/audio/wordpool/FOREST.wav", "conditions": [24, 800, "a", 24000], "internal_node_id": "0.0-165.0", "trial": 6, "time_elapsed": 1333221, "serialpos": 3, "key_press": -1, "wordID": 592, "type": "PRES_AUD", "trial_index": 228}, "uniqueid": "MTK3616:3QFUFYSY9ZMCCWI3VH5RB5XMXMMF4M", "dateTime": 1520811245461}, {"current_trial": 229, "trialdata": {"rt": -1000, "trial_type": "single-audio", "word": "lover", "stimulus": "/static/audio/wordpool/LOVER.wav", "conditions": [24, 800, "a", 24000], "internal_node_id": "0.0-166.0", "trial": 6, "time_elapsed": 1335224, "serialpos": 4, "key_press": -1, "wordID": 845, "type": "PRES_AUD", "trial_index": 229}, "uniqueid": "MTK3616:3QFUFYSY9ZMCCWI3VH5RB5XMXMMF4M", "dateTime": 1520811247464}, {"current_trial": 230, "trialdata": {"rt": -1000, "trial_type": "single-audio", "word": "proton", "stimulus": "/static/audio/wordpool/PROTON.wav", "conditions": [24, 800, "a", 24000], "internal_node_id": "0.0-167.0", "trial": 6, "time_elapsed": 1336979, "serialpos": 5, "key_press": -1, "wordID": 1131, "type": "PRES_AUD", "trial_index": 230}, "uniqueid": "MTK3616:3QFUFYSY9ZMCCWI3VH5RB5XMXMMF4M", "dateTime": 1520811249219}, {"current_trial": 231, "trialdata": {"rt": -1000, "trial_type": "single-audio", "word": "primate", "stimulus": "/static/audio/wordpool/PRIMATE.wav", "conditions": [24, 800, "a", 24000], "internal_node_id": "0.0-168.0", "trial": 6, "time_elapsed": 1338901, "serialpos": 6, "key_press": -1, "wordID": 1122, "type": "PRES_AUD", "trial_index": 231}, "uniqueid": "MTK3616:3QFUFYSY9ZMCCWI3VH5RB5XMXMMF4M", "dateTime": 1520811251141}, {"current_trial": 232, "trialdata": {"rt": -1000, "trial_type": "single-audio", "word": "wasp", "stimulus": "/static/audio/wordpool/WASP.wav", "conditions": [24, 800, "a", 24000], "internal_node_id": "0.0-169.0", "trial": 6, "time_elapsed": 1340744, "serialpos": 7, "key_press": -1, "wordID": 1592, "type": "PRES_AUD", "trial_index": 232}, "uniqueid": "MTK3616:3QFUFYSY9ZMCCWI3VH5RB5XMXMMF4M", "dateTime": 1520811252984}, {"current_trial": 233, "trialdata": {"rt": -1000, "trial_type": "single-audio", "word": "hornet", "stimulus": "/static/audio/wordpool/HORNET.wav", "conditions": [24, 800, "a", 24000], "internal_node_id": "0.0-170.0", "trial": 6, "time_elapsed": 1342639, "serialpos": 8, "key_press": -1, "wordID": 717, "type": "PRES_AUD", "trial_index": 233}, "uniqueid": "MTK3616:3QFUFYSY9ZMCCWI3VH5RB5XMXMMF4M", "dateTime": 1520811254880}, {"current_trial": 234, "trialdata": {"rt": -1000, "trial_type": "single-audio", "word": "pasta", "stimulus": "/static/audio/wordpool/PASTA.wav", "conditions": [24, 800, "a", 24000], "internal_node_id": "0.0-171.0", "trial": 6, "time_elapsed": 1344518, "serialpos": 9, "key_press": -1, "wordID": 1020, "type": "PRES_AUD", "trial_index": 234}, "uniqueid": "MTK3616:3QFUFYSY9ZMCCWI3VH5RB5XMXMMF4M", "dateTime": 1520811256758}, {"current_trial": 235, "trialdata": {"rt": -1000, "trial_type": "single-audio", "word": "server", "stimulus": "/static/audio/wordpool/SERVER.wav", "conditions": [24, 800, "a", 24000], "internal_node_id": "0.0-172.0", "trial": 6, "time_elapsed": 1346474, "serialpos": 10, "key_press": -1, "wordID": 1271, "type": "PRES_AUD", "trial_index": 235}, "uniqueid": "MTK3616:3QFUFYSY9ZMCCWI3VH5RB5XMXMMF4M", "dateTime": 1520811258714}, {"current_trial": 236, "trialdata": {"rt": -1000, "trial_type": "single-audio", "word": "mammal", "stimulus": "/static/audio/wordpool/MAMMAL.wav", "conditions": [24, 800, "a", 24000], "internal_node_id": "0.0-173.0", "trial": 6, "time_elapsed": 1348271, "serialpos": 11, "key_press": -1, "wordID": 860, "type": "PRES_AUD", "trial_index": 236}, "uniqueid": "MTK3616:3QFUFYSY9ZMCCWI3VH5RB5XMXMMF4M", "dateTime": 1520811260511}, {"current_trial": 237, "trialdata": {"rt": -1000, "trial_type": "single-audio", "word": "blackboard", "stimulus": "/static/audio/wordpool/BLACKBOARD.wav", "conditions": [24, 800, "a", 24000], "internal_node_id": "0.0-174.0", "trial": 6, "time_elapsed": 1350252, "serialpos": 12, "key_press": -1, "wordID": 132, "type": "PRES_AUD", "trial_index": 237}, "uniqueid": "MTK3616:3QFUFYSY9ZMCCWI3VH5RB5XMXMMF4M", "dateTime": 1520811262492}, {"current_trial": 238, "trialdata": {"rt": -1000, "trial_type": "single-audio", "word": "toaster", "stimulus": "/static/audio/wordpool/TOASTER.wav", "conditions": [24, 800, "a", 24000], "internal_node_id": "0.0-175.0", "trial": 6, "time_elapsed": 1351885, "serialpos": 13, "key_press": -1, "wordID": 1471, "type": "PRES_AUD", "trial_index": 238}, "uniqueid": "MTK3616:3QFUFYSY9ZMCCWI3VH5RB5XMXMMF4M", "dateTime": 1520811264126}, {"current_trial": 239, "trialdata": {"rt": -1000, "trial_type": "single-audio", "word": "stove", "stimulus": "/static/audio/wordpool/STOVE.wav", "conditions": [24, 800, "a", 24000], "internal_node_id": "0.0-176.0", "trial": 6, "time_elapsed": 1353575, "serialpos": 14, "key_press": -1, "wordID": 1387, "type": "PRES_AUD", "trial_index": 239}, "uniqueid": "MTK3616:3QFUFYSY9ZMCCWI3VH5RB5XMXMMF4M", "dateTime": 1520811265815}, {"current_trial": 240, "trialdata": {"rt": -1000, "trial_type": "single-audio", "word": "flipper", "stimulus": "/static/audio/wordpool/FLIPPER.wav", "conditions": [24, 800, "a", 24000], "internal_node_id": "0.0-177.0", "trial": 6, "time_elapsed": 1355453, "serialpos": 15, "key_press": -1, "wordID": 579, "type": "PRES_AUD", "trial_index": 240}, "uniqueid": "MTK3616:3QFUFYSY9ZMCCWI3VH5RB5XMXMMF4M", "dateTime": 1520811267694}, {"current_trial": 241, "trialdata": {"rt": -1000, "trial_type": "single-audio", "word": "fragrance", "stimulus": "/static/audio/wordpool/FRAGRANCE.wav", "conditions": [24, 800, "a", 24000], "internal_node_id": "0.0-178.0", "trial": 6, "time_elapsed": 1357178, "serialpos": 16, "key_press": -1, "wordID": 598, "type": "PRES_AUD", "trial_index": 241}, "uniqueid": "MTK3616:3QFUFYSY9ZMCCWI3VH5RB5XMXMMF4M", "dateTime": 1520811269419}, {"current_trial": 242, "trialdata": {"rt": -1000, "trial_type": "single-audio", "word": "expert", "stimulus": "/static/audio/wordpool/EXPERT.wav", "conditions": [24, 800, "a", 24000], "internal_node_id": "0.0-179.0", "trial": 6, "time_elapsed": 1358930, "serialpos": 17, "key_press": -1, "wordID": 542, "type": "PRES_AUD", "trial_index": 242}, "uniqueid": "MTK3616:3QFUFYSY9ZMCCWI3VH5RB5XMXMMF4M", "dateTime": 1520811271170}, {"current_trial": 243, "trialdata": {"rt": -1000, "trial_type": "single-audio", "word": "bureau", "stimulus": "/static/audio/wordpool/BUREAU.wav", "conditions": [24, 800, "a", 24000], "internal_node_id": "0.0-180.0", "trial": 6, "time_elapsed": 1360897, "serialpos": 18, "key_press": -1, "wordID": 198, "type": "PRES_AUD", "trial_index": 243}, "uniqueid": "MTK3616:3QFUFYSY9ZMCCWI3VH5RB5XMXMMF4M", "dateTime": 1520811273140}, {"current_trial": 244, "trialdata": {"rt": -1000, "trial_type": "single-audio", "word": "kleenex", "stimulus": "/static/audio/wordpool/KLEENEX.wav", "conditions": [24, 800, "a", 24000], "internal_node_id": "0.0-181.0", "trial": 6, "time_elapsed": 1362529, "serialpos": 19, "key_press": -1, "wordID": 781, "type": "PRES_AUD", "trial_index": 244}, "uniqueid": "MTK3616:3QFUFYSY9ZMCCWI3VH5RB5XMXMMF4M", "dateTime": 1520811274770}, {"current_trial": 245, "trialdata": {"rt": -1000, "trial_type": "single-audio", "word": "dust", "stimulus": "/static/audio/wordpool/DUST.wav", "conditions": [24, 800, "a", 24000], "internal_node_id": "0.0-182.0", "trial": 6, "time_elapsed": 1364391, "serialpos": 20, "key_press": -1, "wordID": 507, "type": "PRES_AUD", "trial_index": 245}, "uniqueid": "MTK3616:3QFUFYSY9ZMCCWI3VH5RB5XMXMMF4M", "dateTime": 1520811276631}, {"current_trial": 246, "trialdata": {"rt": -1000, "trial_type": "single-audio", "word": "brother", "stimulus": "/static/audio/wordpool/BROTHER.wav", "conditions": [24, 800, "a", 24000], "internal_node_id": "0.0-183.0", "trial": 6, "time_elapsed": 1366254, "serialpos": 21, "key_press": -1, "wordID": 178, "type": "PRES_AUD", "trial_index": 246}, "uniqueid": "MTK3616:3QFUFYSY9ZMCCWI3VH5RB5XMXMMF4M", "dateTime": 1520811278494}, {"current_trial": 247, "trialdata": {"rt": -1000, "trial_type": "single-audio", "word": "uncle", "stimulus": "/static/audio/wordpool/UNCLE.wav", "conditions": [24, 800, "a", 24000], "internal_node_id": "0.0-184.0", "trial": 6, "time_elapsed": 1368036, "serialpos": 22, "key_press": -1, "wordID": 1535, "type": "PRES_AUD", "trial_index": 247}, "uniqueid": "MTK3616:3QFUFYSY9ZMCCWI3VH5RB5XMXMMF4M", "dateTime": 1520811280278}, {"current_trial": 248, "trialdata": {"rt": -1000, "trial_type": "single-audio", "word": "perfume", "stimulus": "/static/audio/wordpool/PERFUME.wav", "conditions": [24, 800, "a", 24000], "internal_node_id": "0.0-185.0", "trial": 6, "time_elapsed": 1369837, "serialpos": 23, "key_press": -1, "wordID": 1048, "type": "PRES_AUD", "trial_index": 248}, "uniqueid": "MTK3616:3QFUFYSY9ZMCCWI3VH5RB5XMXMMF4M", "dateTime": 1520811282079}, {"current_trial": 249, "trialdata": {"rt": -1, "trial_type": "single-stim", "stimulus": "", "internal_node_id": "0.0-186.0-0.0", "time_elapsed": 1371191, "key_press": -1, "type": "PRE_RECALL_DELAY", "trial_index": 249}, "uniqueid": "MTK3616:3QFUFYSY9ZMCCWI3VH5RB5XMXMMF4M", "dateTime": 1520811283431}, {"current_trial": 250, "trialdata": {"rt": -1000, "trial_type": "single-audio", "stimulus": "/static/audio/400Hz.wav", "internal_node_id": "0.0-187.0", "time_elapsed": 1371698, "key_press": -1, "type": "PRE_RECALL_ALERT", "trial_index": 250}, "uniqueid": "MTK3616:3QFUFYSY9ZMCCWI3VH5RB5XMXMMF4M", "dateTime": 1520811283938}, {"current_trial": 251, "trialdata": {"rt": [3336, 4604, 6298, 8049, 10256, 16086, 22419, 30210, 38744], "recwords": ["brother", "uncle", "perfume", "dust", "dust", "dustpan", "wasp", "hornet", "buggy"], "key_times": [1260, 1471, 1687, 2121, 2737, 2903, 2929, 3012, 3068, 3336, 3797, 4007, 4171, 4238, 4374, 4604, 5081, 5195, 5260, 5551, 5638, 5890, 6014, 6298, 6807, 6919, 7355, 7709, 7750, 7879, 8049, 8851, 8989, 9038, 9212, 10256, 10421, 10601, 12559, 13263, 13419, 13527, 13703, 13909, 14001, 14186, 15540, 15709, 15778, 16086, 21490, 21646, 21841, 22055, 22419, 28448, 28539, 29044, 29689, 29826, 30028, 30210, 37785, 37873, 38144, 38282, 38448, 38744], "trial_type": "free-recall", "conditions": [24, 800, "a", 24000], "internal_node_id": "0.0-188.0-0.0", "key_presses": [66, 82, 79, 8, 79, 84, 72, 69, 82, 13, 85, 78, 67, 76, 69, 13, 80, 69, 82, 70, 85, 77, 69, 13, 68, 85, 84, 8, 83, 84, 13, 68, 85, 83, 84, 32, 80, 65, 78, 8, 8, 8, 68, 85, 83, 84, 80, 65, 78, 13, 87, 65, 83, 80, 13, 72, 79, 82, 78, 69, 84, 13, 66, 85, 71, 71, 89, 13], "trial": 6, "time_elapsed": 1431701, "type": "FREE_RECALL", "trial_index": 251}, "uniqueid": "MTK3616:3QFUFYSY9ZMCCWI3VH5RB5XMXMMF4M", "dateTime": 1520811343948}, {"current_trial": 252, "trialdata": {"rt": 2965, "trial_type": "text", "internal_node_id": "0.0-189.0", "time_elapsed": 1436675, "key_press": 32, "type": "INSTRUCTIONS", "trial_index": 252}, "uniqueid": "MTK3616:3QFUFYSY9ZMCCWI3VH5RB5XMXMMF4M", "dateTime": 1520811348916}, {"current_trial": 253, "trialdata": {"rt": [4386, 7447, 12291, 15996, 20454], "trial_type": "math-distractor", "key_times": [3513, 4386, 6637, 7447, 11077, 11534, 12291, 14705, 15070, 15996, 19103, 19725, 20454, 22807, 23558], "responses": ["8", "6", "14", "13", "10"], "num2": [2, 1, 3, 6, 5, 9], "num3": [2, 4, 5, 2, 4, 6], "conditions": [12, 1600, "a", 24000], "internal_node_id": "0.0-190.0", "key_presses": [56, 13, 54, 13, 49, 52, 13, 49, 51, 13, 49, 48, 13, 49, 54], "trial": 7, "tim