{"assignmentId": "3MH9DQ757XJH7U8DL72R6UVSXWJUGW", "workerId": "MTK3308", "questiondata": {"origin": "United States", "strat-rehearsal": "6", "marital": "Single", "education": "Bachelor's degree", "ethnicity": "Not Hispanic", "color_depth": 24, "distracted": "No", "wrote-notes": "No", "strat-other": "none", "screen_width": 1280, "avail_screen_width": 1280, "avail_screen_height": 1024, "strat-image": "84", "language": "English", "gender": "Male", "age": "52", "gender_other": "", "race": ["White"], "strat-categorize": "89", "pixel_depth": 24, "strat-spatial": "60", "strat-story": "56", "race_other": "", "screen_height": 1024}, "bonus": 0, "hitId": "30OITAWPBQAV0EHRH0KG6EOVEBO9HP", "counterbalance": 1298, "useragent": "Mozilla/5.0 (Windows NT 6.1) AppleWebKit/537.36 (KHTML, like Gecko) Chrome/64.0.3282.186 Safari/537.36", "eventdata": [{"eventtype": "initialized", "interval": 0, "value": null, "timestamp": 1520355186241}, {"eventtype": "window_resize", "interval": 0, "value": [1280, 974], "timestamp": 1520355186241}, {"eventtype": "focus", "interval": 48371, "value": "off", "timestamp": 1520355234612}, {"eventtype": "focus", "interval": 13659, "value": "on", "timestamp": 1520355248271}, {"eventtype": "window_resize", "interval": 56532, "value": [1280, 925], "timestamp": 1520355304803}, {"eventtype": "focus", "interval": 4906, "value": "off", "timestamp": 1520355309709}, {"eventtype": "window_resize", "interval": 4434, "value": [1280, 974], "timestamp": 1520355314143}, {"eventtype": "focus", "interval": 1892, "value": "on", "timestamp": 1520355316035}, {"eventtype": "focus", "interval": 8707, "value": "off", "timestamp": 1520355324742}, {"eventtype": "focus", "interval": 168, "value": "on", "timestamp": 1520355324910}, {"eventtype": "focus", "interval": 3433699, "value": "off", "timestamp": 1520358758609}, {"eventtype": "focus", "interval": 3818, "value": "on", "timestamp": 1520358762427}], "data": [{"current_trial": 0, "trialdata": {"rt": 5228, "trial_type": "text", "internal_node_id": "0.0-0.0", "time_elapsed": 5234, "key_press": 32, "type": "INSTRUCTIONS", "trial_index": 0}, "uniqueid": "MTK3308:3MH9DQ757XJH7U8DL72R6UVSXWJUGW", "dateTime": 1520355192619}, {"current_trial": 1, "trialdata": {"rt": 59825, "trial_type": "text", "internal_node_id": "0.0-1.0", "time_elapsed": 65063, "key_press": 32, "type": "INSTRUCTIONS", "trial_index": 1}, "uniqueid": "MTK3308:3MH9DQ757XJH7U8DL72R6UVSXWJUGW", "dateTime": 1520355252447}, {"current_trial": 2, "trialdata": {"rt": [79374], "trial_type": "audio-test", "responses": ["ocean"], "internal_node_id": "0.0-2.0", "time_elapsed": 144465, "type": "AUDIO_TEST", "trial_index": 2}, "uniqueid": "MTK3308:3MH9DQ757XJH7U8DL72R6UVSXWJUGW", "dateTime": 1520355331849}, {"current_trial": 3, "trialdata": {"rt": [23803], "trial_type": "audio-test", "responses": ["crystal"], "internal_node_id": "0.0-3.0", "time_elapsed": 168281, "type": "AUDIO_TEST", "trial_index": 3}, "uniqueid": "MTK3308:3MH9DQ757XJH7U8DL72R6UVSXWJUGW", "dateTime": 1520355355664}, {"current_trial": 4, "trialdata": {"rt": [16007], "trial_type": "audio-test", "responses": ["spice"], "internal_node_id": "0.0-4.0", "time_elapsed": 184297, "type": "AUDIO_TEST", "trial_index": 4}, "uniqueid": "MTK3308:3MH9DQ757XJH7U8DL72R6UVSXWJUGW", "dateTime": 1520355371681}, {"current_trial": 5, "trialdata": {"rt": 38459, "trial_type": "survey-text", "responses": "{\"Q0\":\"11:00pm\",\"Q1\":\"7:00am\",\"Q2\":\"5\"}", "internal_node_id": "0.0-5.0", "time_elapsed": 223511, "type": "SLEEP_SURVEY", "trial_index": 5}, "uniqueid": "MTK3308:3MH9DQ757XJH7U8DL72R6UVSXWJUGW", "dateTime": 1520355410894}, {"current_trial": 6, "trialdata": {"rt": 75072, "trial_type": "text", "internal_node_id": "0.0-6.0", "time_elapsed": 299585, "key_press": 32, "type": "INSTRUCTIONS", "trial_index": 6}, "uniqueid": "MTK3308:3MH9DQ757XJH7U8DL72R6UVSXWJUGW", "dateTime": 1520355486968}, {"current_trial": 7, "trialdata": {"rt": 30596, "trial_type": "text", "internal_node_id": "0.0-7.0", "time_elapsed": 330682, "key_press": 32, "type": "INSTRUCTIONS", "trial_index": 7}, "uniqueid": "MTK3308:3MH9DQ757XJH7U8DL72R6UVSXWJUGW", "dateTime": 1520355518065}, {"current_trial": 8, "trialdata": {"rt": 19322, "trial_type": "text", "internal_node_id": "0.0-8.0", "time_elapsed": 350506, "key_press": 32, "type": "INSTRUCTIONS", "trial_index": 8}, "uniqueid": "MTK3308:3MH9DQ757XJH7U8DL72R6UVSXWJUGW", "dateTime": 1520355537889}, {"current_trial": 9, "trialdata": {"rt": [3853, 7957, 11501, 14822, 17581], "trial_type": "math-distractor", "key_times": [2462, 2590, 3853, 6685, 6814, 7957, 10110, 10349, 11501, 13902, 14102, 14822, 16518, 16774, 17581], "responses": ["13", "21", "15", "11", "19"], "num2": [7, 6, 3, 2, 5, 8], "num3": [4, 6, 3, 3, 5, 9], "conditions": [18, 1200, "v", 18000], "internal_node_id": "0.0-9.0", "key_presses": [49, 51, 13, 50, 49, 13, 49, 53, 13, 49, 49, 13, 49, 57, 13], "trial": 0, "time_elapsed": 369514, "type": "DISTRACTOR", "trial_index": 9, "num1": [2, 9, 9, 6, 9, 2]}, "uniqueid": "MTK3308:3MH9DQ757XJH7U8DL72R6UVSXWJUGW", "dateTime": 1520355556897}, {"current_trial": 10, "trialdata": {"rt": -1, "trial_type": "single-stim", "stimulus": "<p id=\"stim\">10</p>", "internal_node_id": "0.0-10.0-0.0", "time_elapsed": 372516, "key_press": -1, "trial_index": 10}, "uniqueid": "MTK3308:3MH9DQ757XJH7U8DL72R6UVSXWJUGW", "dateTime": 1520355559899}, {"current_trial": 11, "trialdata": {"rt": -1, "trial_type": "single-stim", "stimulus": "<p id=\"stim\">9</p>", "internal_node_id": "0.0-10.0-1.0", "time_elapsed": 373519, "key_press": -1, "trial_index": 11}, "uniqueid": "MTK3308:3MH9DQ757XJH7U8DL72R6UVSXWJUGW", "dateTime": 1520355560902}, {"current_trial": 12, "trialdata": {"rt": -1, "trial_type": "single-stim", "stimulus": "<p id=\"stim\">8</p>", "internal_node_id": "0.0-10.0-2.0", "time_elapsed": 374520, "key_press": -1, "trial_index": 12}, "uniqueid": "MTK3308:3MH9DQ757XJH7U8DL72R6UVSXWJUGW", "dateTime": 1520355561903}, {"current_trial": 13, "trialdata": {"rt": -1, "trial_type": "single-stim", "stimulus": "<p id=\"stim\">7</p>", "internal_node_id": "0.0-10.0-3.0", "time_elapsed": 375521, "key_press": -1, "trial_index": 13}, "uniqueid": "MTK3308:3MH9DQ757XJH7U8DL72R6UVSXWJUGW", "dateTime": 1520355562904}, {"current_trial": 14, "trialdata": {"rt": -1, "trial_type": "single-stim", "stimulus": "<p id=\"stim\">6</p>", "internal_node_id": "0.0-10.0-4.0", "time_elapsed": 376522, "key_press": -1, "trial_index": 14}, "uniqueid": "MTK3308:3MH9DQ757XJH7U8DL72R6UVSXWJUGW", "dateTime": 1520355563905}, {"current_trial": 15, "trialdata": {"rt": -1, "trial_type": "single-stim", "stimulus": "<p id=\"stim\">5</p>", "internal_node_id": "0.0-10.0-5.0", "time_elapsed": 377522, "key_press": -1, "trial_index": 15}, "uniqueid": "MTK3308:3MH9DQ757XJH7U8DL72R6UVSXWJUGW", "dateTime": 1520355564906}, {"current_trial": 16, "trialdata": {"rt": -1, "trial_type": "single-stim", "stimulus": "<p id=\"stim\">4</p>", "internal_node_id": "0.0-10.0-6.0", "time_elapsed": 378523, "key_press": -1, "trial_index": 16}, "uniqueid": "MTK3308:3MH9DQ757XJH7U8DL72R6UVSXWJUGW", "dateTime": 1520355565907}, {"current_trial": 17, "trialdata": {"rt": -1, "trial_type": "single-stim", "stimulus": "<p id=\"stim\">3</p>", "internal_node_id": "0.0-10.0-7.0", "time_elapsed": 379524, "key_press": -1, "trial_index": 17}, "uniqueid": "MTK3308:3MH9DQ757XJH7U8DL72R6UVSXWJUGW", "dateTime": 1520355566908}, {"current_trial": 18, "trialdata": {"rt": -1, "trial_type": "single-stim", "stimulus": "<p id=\"stim\">2</p>", "internal_node_id": "0.0-10.0-8.0", "time_elapsed": 380526, "key_press": -1, "trial_index": 18}, "uniqueid": "MTK3308:3MH9DQ757XJH7U8DL72R6UVSXWJUGW", "dateTime": 1520355567909}, {"current_trial": 19, "trialdata": {"rt": -1, "trial_type": "single-stim", "stimulus": "<p id=\"stim\">1</p>", "internal_node_id": "0.0-10.0-9.0", "time_elapsed": 381526, "key_press": -1, "trial_index": 19}, "uniqueid": "MTK3308:3MH9DQ757XJH7U8DL72R6UVSXWJUGW", "dateTime": 1520355568910}, {"current_trial": 20, "trialdata": {"rt": -1, "trial_type": "single-stim", "stimulus": "<p id=\"stim\">+</p>", "internal_node_id": "0.0-11.0-0.0", "time_elapsed": 383027, "key_press": -1, "type": "FIXATION", "trial_index": 20}, "uniqueid": "MTK3308:3MH9DQ757XJH7U8DL72R6UVSXWJUGW", "dateTime": 1520355570411}, {"current_trial": 21, "trialdata": {"rt": -1, "trial_type": "single-stim", "word": "airport", "stimulus": "<p id=\"stim\">AIRPORT</p>", "conditions": [18, 1200, "v", 18000], "internal_node_id": "0.0-12.0", "trial": 0, "time_elapsed": 384229, "serialpos": 0, "key_press": -1, "wordID": 12, "type": "PRES_VIS", "trial_index": 21}, "uniqueid": "MTK3308:3MH9DQ757XJH7U8DL72R6UVSXWJUGW", "dateTime": 1520355571612}, {"current_trial": 22, "trialdata": {"rt": -1, "trial_type": "single-stim", "word": "tutu", "stimulus": "<p id=\"stim\">TUTU</p>", "conditions": [18, 1200, "v", 18000], "internal_node_id": "0.0-13.0", "trial": 0, "time_elapsed": 386493, "serialpos": 1, "key_press": -1, "wordID": 1523, "type": "PRES_VIS", "trial_index": 22}, "uniqueid": "MTK3308:3MH9DQ757XJH7U8DL72R6UVSXWJUGW", "dateTime": 1520355573877}, {"current_trial": 23, "trialdata": {"rt": -1, "trial_type": "single-stim", "word": "playground", "stimulus": "<p id=\"stim\">PLAYGROUND</p>", "conditions": [18, 1200, "v", 18000], "internal_node_id": "0.0-14.0", "trial": 0, "time_elapsed": 388874, "serialpos": 2, "key_press": -1, "wordID": 1086, "type": "PRES_VIS", "trial_index": 23}, "uniqueid": "MTK3308:3MH9DQ757XJH7U8DL72R6UVSXWJUGW", "dateTime": 1520355576257}, {"current_trial": 24, "trialdata": {"rt": -1, "trial_type": "single-stim", "word": "swimmer", "stimulus": "<p id=\"stim\">SWIMMER</p>", "conditions": [18, 1200, "v", 18000], "internal_node_id": "0.0-15.0", "trial": 0, "time_elapsed": 390982, "serialpos": 3, "key_press": -1, "wordID": 1419, "type": "PRES_VIS", "trial_index": 24}, "uniqueid": "MTK3308:3MH9DQ757XJH7U8DL72R6UVSXWJUGW", "dateTime": 1520355578366}, {"current_trial": 25, "trialdata": {"rt": -1, "trial_type": "single-stim", "word": "sheriff", "stimulus": "<p id=\"stim\">SHERIFF</p>", "conditions": [18, 1200, "v", 18000], "internal_node_id": "0.0-16.0", "trial": 0, "time_elapsed": 393327, "serialpos": 4, "key_press": -1, "wordID": 1283, "type": "PRES_VIS", "trial_index": 25}, "uniqueid": "MTK3308:3MH9DQ757XJH7U8DL72R6UVSXWJUGW", "dateTime": 1520355580711}, {"current_trial": 26, "trialdata": {"rt": -1, "trial_type": "single-stim", "word": "dashboard", "stimulus": "<p id=\"stim\">DASHBOARD</p>", "conditions": [18, 1200, "v", 18000], "internal_node_id": "0.0-17.0", "trial": 0, "time_elapsed": 395489, "serialpos": 5, "key_press": -1, "wordID": 440, "type": "PRES_VIS", "trial_index": 26}, "uniqueid": "MTK3308:3MH9DQ757XJH7U8DL72R6UVSXWJUGW", "dateTime": 1520355582873}, {"current_trial": 27, "trialdata": {"rt": -1, "trial_type": "single-stim", "word": "nurse", "stimulus": "<p id=\"stim\">NURSE</p>", "conditions": [18, 1200, "v", 18000], "internal_node_id": "0.0-18.0", "trial": 0, "time_elapsed": 397809, "serialpos": 6, "key_press": -1, "wordID": 962, "type": "PRES_VIS", "trial_index": 27}, "uniqueid": "MTK3308:3MH9DQ757XJH7U8DL72R6UVSXWJUGW", "dateTime": 1520355585192}, {"current_trial": 28, "trialdata": {"rt": -1, "trial_type": "single-stim", "word": "lunch", "stimulus": "<p id=\"stim\">LUNCH</p>", "conditions": [18, 1200, "v", 18000], "internal_node_id": "0.0-19.0", "trial": 0, "time_elapsed": 399993, "serialpos": 7, "key_press": -1, "wordID": 848, "type": "PRES_VIS", "trial_index": 28}, "uniqueid": "MTK3308:3MH9DQ757XJH7U8DL72R6UVSXWJUGW", "dateTime": 1520355587376}, {"current_trial": 29, "trialdata": {"rt": -1, "trial_type": "single-stim", "word": "pocket", "stimulus": "<p id=\"stim\">POCKET</p>", "conditions": [18, 1200, "v", 18000], "internal_node_id": "0.0-20.0", "trial": 0, "time_elapsed": 402019, "serialpos": 8, "key_press": -1, "wordID": 1092, "type": "PRES_VIS", "trial_index": 29}, "uniqueid": "MTK3308:3MH9DQ757XJH7U8DL72R6UVSXWJUGW", "dateTime": 1520355589402}, {"current_trial": 30, "trialdata": {"rt": -1, "trial_type": "single-stim", "word": "dorm", "stimulus": "<p id=\"stim\">DORM</p>", "conditions": [18, 1200, "v", 18000], "internal_node_id": "0.0-21.0", "trial": 0, "time_elapsed": 404031, "serialpos": 9, "key_press": -1, "wordID": 487, "type": "PRES_VIS", "trial_index": 30}, "uniqueid": "MTK3308:3MH9DQ757XJH7U8DL72R6UVSXWJUGW", "dateTime": 1520355591414}, {"current_trial": 31, "trialdata": {"rt": -1, "trial_type": "single-stim", "word": "gymnast", "stimulus": "<p id=\"stim\">GYMNAST</p>", "conditions": [18, 1200, "v", 18000], "internal_node_id": "0.0-22.0", "trial": 0, "time_elapsed": 406419, "serialpos": 10, "key_press": -1, "wordID": 674, "type": "PRES_VIS", "trial_index": 31}, "uniqueid": "MTK3308:3MH9DQ757XJH7U8DL72R6UVSXWJUGW", "dateTime": 1520355593802}, {"current_trial": 32, "trialdata": {"rt": -1, "trial_type": "single-stim", "word": "turnip", "stimulus": "<p id=\"stim\">TURNIP</p>", "conditions": [18, 1200, "v", 18000], "internal_node_id": "0.0-23.0", "trial": 0, "time_elapsed": 408503, "serialpos": 11, "key_press": -1, "wordID": 1520, "type": "PRES_VIS", "trial_index": 32}, "uniqueid": "MTK3308:3MH9DQ757XJH7U8DL72R6UVSXWJUGW", "dateTime": 1520355595886}, {"current_trial": 33, "trialdata": {"rt": -1, "trial_type": "single-stim", "word": "paper", "stimulus": "<p id=\"stim\">PAPER</p>", "conditions": [18, 1200, "v", 18000], "internal_node_id": "0.0-24.0", "trial": 0, "time_elapsed": 410750, "serialpos": 12, "key_press": -1, "wordID": 1010, "type": "PRES_VIS", "trial_index": 33}, "uniqueid": "MTK3308:3MH9DQ757XJH7U8DL72R6UVSXWJUGW", "dateTime": 1520355598133}, {"current_trial": 34, "trialdata": {"rt": -1, "trial_type": "single-stim", "word": "pigeon", "stimulus": "<p id=\"stim\">PIGEON</p>", "conditions": [18, 1200, "v", 18000], "internal_node_id": "0.0-25.0", "trial": 0, "time_elapsed": 412825, "serialpos": 13, "key_press": -1, "wordID": 1064, "type": "PRES_VIS", "trial_index": 34}, "uniqueid": "MTK3308:3MH9DQ757XJH7U8DL72R6UVSXWJUGW", "dateTime": 1520355600209}, {"current_trial": 35, "trialdata": {"rt": -1, "trial_type": "single-stim", "word": "queen", "stimulus": "<p id=\"stim\">QUEEN</p>", "conditions": [18, 1200, "v", 18000], "internal_node_id": "0.0-26.0", "trial": 0, "time_elapsed": 414995, "serialpos": 14, "key_press": -1, "wordID": 1148, "type": "PRES_VIS", "trial_index": 35}, "uniqueid": "MTK3308:3MH9DQ757XJH7U8DL72R6UVSXWJUGW", "dateTime": 1520355602380}, {"current_trial": 36, "trialdata": {"rt": -1, "trial_type": "single-stim", "word": "table", "stimulus": "<p id=\"stim\">TABLE</p>", "conditions": [18, 1200, "v", 18000], "internal_node_id": "0.0-27.0", "trial": 0, "time_elapsed": 417016, "serialpos": 15, "key_press": -1, "wordID": 1425, "type": "PRES_VIS", "trial_index": 36}, "uniqueid": "MTK3308:3MH9DQ757XJH7U8DL72R6UVSXWJUGW", "dateTime": 1520355604399}, {"current_trial": 37, "trialdata": {"rt": -1, "trial_type": "single-stim", "word": "partner", "stimulus": "<p id=\"stim\">PARTNER</p>", "conditions": [18, 1200, "v", 18000], "internal_node_id": "0.0-28.0", "trial": 0, "time_elapsed": 419240, "serialpos": 16, "key_press": -1, "wordID": 1016, "type": "PRES_VIS", "trial_index": 37}, "uniqueid": "MTK3308:3MH9DQ757XJH7U8DL72R6UVSXWJUGW", "dateTime": 1520355606623}, {"current_trial": 38, "trialdata": {"rt": -1, "trial_type": "single-stim", "word": "receipt", "stimulus": "<p id=\"stim\">RECEIPT</p>", "conditions": [18, 1200, "v", 18000], "internal_node_id": "0.0-29.0", "trial": 0, "time_elapsed": 421551, "serialpos": 17, "key_press": -1, "wordID": 1172, "type": "PRES_VIS", "trial_index": 38}, "uniqueid": "MTK3308:3MH9DQ757XJH7U8DL72R6UVSXWJUGW", "dateTime": 1520355608936}, {"current_trial": 39, "trialdata": {"rt": -1, "trial_type": "single-stim", "stimulus": "", "internal_node_id": "0.0-30.0-0.0", "time_elapsed": 423774, "key_press": -1, "type": "PRE_RECALL_DELAY", "trial_index": 39}, "uniqueid": "MTK3308:3MH9DQ757XJH7U8DL72R6UVSXWJUGW", "dateTime": 1520355611157}, {"current_trial": 40, "trialdata": {"rt": -1000, "trial_type": "single-audio", "stimulus": "/static/audio/400Hz.wav", "internal_node_id": "0.0-31.0", "time_elapsed": 424276, "key_press": -1, "type": "PRE_RECALL_ALERT", "trial_index": 40}, "uniqueid": "MTK3308:3MH9DQ757XJH7U8DL72R6UVSXWJUGW", "dateTime": 1520355611659}, {"current_trial": 41, "trialdata": {"rt": [4127, 7664, 12146, 15120, 19160, 22905], "recwords": ["receipt", "airport", "tutu", "queen", "table", "lunch"], "key_times": [1546, 1751, 2104, 2455, 2743, 3040, 3412, 4127, 5063, 5303, 5663, 6137, 6368, 6521, 6728, 7664, 9154, 9337, 9681, 9801, 12146, 13113, 13641, 13760, 14503, 14640, 15120, 15855, 15992, 16152, 16680, 16775, 19160, 20024, 20304, 20568, 20896, 21031, 22905], "trial_type": "free-recall", "conditions": [18, 1200, "v", 18000], "internal_node_id": "0.0-32.0-0.0", "key_presses": [82, 69, 67, 69, 73, 80, 84, 13, 65, 73, 82, 80, 79, 82, 84, 13, 84, 85, 84, 85, 13, 81, 85, 69, 69, 78, 13, 84, 65, 66, 76, 69, 13, 76, 85, 78, 67, 72, 13], "trial": 0, "time_elapsed": 484281, "type": "FREE_RECALL", "trial_index": 41}, "uniqueid": "MTK3308:3MH9DQ757XJH7U8DL72R6UVSXWJUGW", "dateTime": 1520355671668}, {"current_trial": 42, "trialdata": {"rt": 4771, "trial_type": "text", "internal_node_id": "0.0-33.0", "time_elapsed": 491058, "key_press": 32, "type": "INSTRUCTIONS", "trial_index": 42}, "uniqueid": "MTK3308:3MH9DQ757XJH7U8DL72R6UVSXWJUGW", "dateTime": 1520355678441}, {"current_trial": 43, "trialdata": {"rt": [4754, 7652, 10028, 13274, 15994], "trial_type": "math-distractor", "key_times": [2378, 2514, 3354, 4474, 4754, 6650, 6938, 7652, 9220, 9507, 10028, 12579, 12770, 13274, 15346, 15474, 15994], "responses": ["14", "18", "17", "19", "18"], "num2": [2, 1, 4, 8, 8, 5], "num3": [7, 9, 9, 6, 1, 9], "conditions": [18, 1200, "v", 18000], "internal_node_id": "0.0-34.0", "key_presses": [49, 52, 220, 8, 13, 49, 56, 13, 49, 55, 13, 49, 57, 13, 49, 56, 13], "trial": 1, "time_elapsed": 511060, "type": "DISTRACTOR", "trial_index": 43, "num1": [5, 8, 4, 5, 9, 8]}, "uniqueid": "MTK3308:3MH9DQ757XJH7U8DL72R6UVSXWJUGW", "dateTime": 1520355698443}, {"current_trial": 44, "trialdata": {"rt": -1, "trial_type": "single-stim", "stimulus": "<p id=\"stim\">10</p>", "internal_node_id": "0.0-35.0-0.0", "time_elapsed": 514061, "key_press": -1, "trial_index": 44}, "uniqueid": "MTK3308:3MH9DQ757XJH7U8DL72R6UVSXWJUGW", "dateTime": 1520355701444}, {"current_trial": 45, "trialdata": {"rt": -1, "trial_type": "single-stim", "stimulus": "<p id=\"stim\">9</p>", "internal_node_id": "0.0-35.0-1.0", "time_elapsed": 515062, "key_press": -1, "trial_index": 45}, "uniqueid": "MTK3308:3MH9DQ757XJH7U8DL72R6UVSXWJUGW", "dateTime": 1520355702445}, {"current_trial": 46, "trialdata": {"rt": -1, "trial_type": "single-stim", "stimulus": "<p id=\"stim\">8</p>", "internal_node_id": "0.0-35.0-2.0", "time_elapsed": 516062, "key_press": -1, "trial_index": 46}, "uniqueid": "MTK3308:3MH9DQ757XJH7U8DL72R6UVSXWJUGW", "dateTime": 1520355703446}, {"current_trial": 47, "trialdata": {"rt": -1, "trial_type": "single-stim", "stimulus": "<p id=\"stim\">7</p>", "internal_node_id": "0.0-35.0-3.0", "time_elapsed": 517064, "key_press": -1, "trial_index": 47}, "uniqueid": "MTK3308:3MH9DQ757XJH7U8DL72R6UVSXWJUGW", "dateTime": 1520355704447}, {"current_trial": 48, "trialdata": {"rt": -1, "trial_type": "single-stim", "stimulus": "<p id=\"stim\">6</p>", "internal_node_id": "0.0-35.0-4.0", "time_elapsed": 518067, "key_press": -1, "trial_index": 48}, "uniqueid": "MTK3308:3MH9DQ757XJH7U8DL72R6UVSXWJUGW", "dateTime": 1520355705450}, {"current_trial": 49, "trialdata": {"rt": -1, "trial_type": "single-stim", "stimulus": "<p id=\"stim\">5</p>", "internal_node_id": "0.0-35.0-5.0", "time_elapsed": 519067, "key_press": -1, "trial_index": 49}, "uniqueid": "MTK3308:3MH9DQ757XJH7U8DL72R6UVSXWJUGW", "dateTime": 1520355706450}, {"current_trial": 50, "trialdata": {"rt": -1, "trial_type": "single-stim", "stimulus": "<p id=\"stim\">4</p>", "internal_node_id": "0.0-35.0-6.0", "time_elapsed": 520068, "key_press": -1, "trial_index": 50}, "uniqueid": "MTK3308:3MH9DQ757XJH7U8DL72R6UVSXWJUGW", "dateTime": 1520355707451}, {"current_trial": 51, "trialdata": {"rt": -1, "trial_type": "single-stim", "stimulus": "<p id=\"stim\">3</p>", "internal_node_id": "0.0-35.0-7.0", "time_elapsed": 521068, "key_press": -1, "trial_index": 51}, "uniqueid": "MTK3308:3MH9DQ757XJH7U8DL72R6UVSXWJUGW", "dateTime": 1520355708452}, {"current_trial": 52, "trialdata": {"rt": -1, "trial_type": "single-stim", "stimulus": "<p id=\"stim\">2</p>", "internal_node_id": "0.0-35.0-8.0", "time_elapsed": 522070, "key_press": -1, "trial_index": 52}, "uniqueid": "MTK3308:3MH9DQ757XJH7U8DL72R6UVSXWJUGW", "dateTime": 1520355709453}, {"current_trial": 53, "trialdata": {"rt": -1, "trial_type": "single-stim", "stimulus": "<p id=\"stim\">1</p>", "internal_node_id": "0.0-35.0-9.0", "time_elapsed": 523070, "key_press": -1, "trial_index": 53}, "uniqueid": "MTK3308:3MH9DQ757XJH7U8DL72R6UVSXWJUGW", "dateTime": 1520355710454}, {"current_trial": 54, "trialdata": {"rt": -1, "trial_type": "single-stim", "stimulus": "<p id=\"stim\">+</p>", "internal_node_id": "0.0-36.0-0.0", "time_elapsed": 524573, "key_press": -1, "type": "FIXATION", "trial_index": 54}, "uniqueid": "MTK3308:3MH9DQ757XJH7U8DL72R6UVSXWJUGW", "dateTime": 1520355711956}, {"current_trial": 55, "trialdata": {"rt": -1, "trial_type": "single-stim", "word": "scarf", "stimulus": "<p id=\"stim\">SCARF</p>", "conditions": [18, 1200, "v", 18000], "internal_node_id": "0.0-37.0", "trial": 1, "time_elapsed": 525772, "serialpos": 0, "key_press": -1, "wordID": 1245, "type": "PRES_VIS", "trial_index": 55}, "uniqueid": "MTK3308:3MH9DQ757XJH7U8DL72R6UVSXWJUGW", "dateTime": 1520355713156}, {"current_trial": 56, "trialdata": {"rt": -1, "trial_type": "single-stim", "word": "blouse", "stimulus": "<p id=\"stim\">BLOUSE</p>", "conditions": [18, 1200, "v", 18000], "internal_node_id": "0.0-38.0", "trial": 1, "time_elapsed": 527844, "serialpos": 1, "key_press": -1, "wordID": 138, "type": "PRES_VIS", "trial_index": 56}, "uniqueid": "MTK3308:3MH9DQ757XJH7U8DL72R6UVSXWJUGW", "dateTime": 1520355715227}, {"current_trial": 57, "trialdata": {"rt": -1, "trial_type": "single-stim", "word": "grave", "stimulus": "<p id=\"stim\">GRAVE</p>", "conditions": [18, 1200, "v", 18000], "internal_node_id": "0.0-39.0", "trial": 1, "time_elapsed": 530230, "serialpos": 2, "key_press": -1, "wordID": 657, "type": "PRES_VIS", "trial_index": 57}, "uniqueid": "MTK3308:3MH9DQ757XJH7U8DL72R6UVSXWJUGW", "dateTime": 1520355717615}, {"current_trial": 58, "trialdata": {"rt": -1, "trial_type": "single-stim", "word": "chest", "stimulus": "<p id=\"stim\">CHEST</p>", "conditions": [18, 1200, "v", 18000], "internal_node_id": "0.0-40.0", "trial": 1, "time_elapsed": 532437, "serialpos": 3, "key_press": -1, "wordID": 294, "type": "PRES_VIS", "trial_index": 58}, "uniqueid": "MTK3308:3MH9DQ757XJH7U8DL72R6UVSXWJUGW", "dateTime": 1520355719820}, {"current_trial": 59, "trialdata": {"rt": -1, "trial_type": "single-stim", "word": "kitchen", "stimulus": "<p id=\"stim\">KITCHEN</p>", "conditions": [18, 1200, "v", 18000], "internal_node_id": "0.0-41.0", "trial": 1, "time_elapsed": 534640, "serialpos": 4, "key_press": -1, "wordID": 777, "type": "PRES_VIS", "trial_index": 59}, "uniqueid": "MTK3308:3MH9DQ757XJH7U8DL72R6UVSXWJUGW", "dateTime": 1520355722023}, {"current_trial": 60, "trialdata": {"rt": -1, "trial_type": "single-stim", "word": "pluto", "stimulus": "<p id=\"stim\">PLUTO</p>", "conditions": [18, 1200, "v", 18000], "internal_node_id": "0.0-42.0", "trial": 1, "time_elapsed": 536951, "serialpos": 5, "key_press": -1, "wordID": 1091, "type": "PRES_VIS", "trial_index": 60}, "uniqueid": "MTK3308:3MH9DQ757XJH7U8DL72R6UVSXWJUGW", "dateTime": 1520355724334}, {"current_trial": 61, "trialdata": {"rt": -1, "trial_type": "single-stim", "word": "powder", "stimulus": "<p id=\"stim\">POWDER</p>", "conditions": [18, 1200, "v", 18000], "internal_node_id": "0.0-43.0", "trial": 1, "time_elapsed": 539029, "serialpos": 6, "key_press": -1, "wordID": 1116, "type": "PRES_VIS", "trial_index": 61}, "uniqueid": "MTK3308:3MH9DQ757XJH7U8DL72R6UVSXWJUGW", "dateTime": 1520355726413}, {"current_trial": 62, "trialdata": {"rt": -1, "trial_type": "single-stim", "word": "citrus", "stimulus": "<p id=\"stim\">CITRUS</p>", "conditions": [18, 1200, "v", 18000], "internal_node_id": "0.0-44.0", "trial": 1, "time_elapsed": 541198, "serialpos": 7, "key_press": -1, "wordID": 312, "type": "PRES_VIS", "trial_index": 62}, "uniqueid": "MTK3308:3MH9DQ757XJH7U8DL72R6UVSXWJUGW", "dateTime": 1520355728581}, {"current_trial": 63, "trialdata": {"rt": -1, "trial_type": "single-stim", "word": "gift", "stimulus": "<p id=\"stim\">GIFT</p>", "conditions": [18, 1200, "v", 18000], "internal_node_id": "0.0-45.0", "trial": 1, "time_elapsed": 543522, "serialpos": 8, "key_press": -1, "wordID": 634, "type": "PRES_VIS", "trial_index": 63}, "uniqueid": "MTK3308:3MH9DQ757XJH7U8DL72R6UVSXWJUGW", "dateTime": 1520355730906}, {"current_trial": 64, "trialdata": {"rt": -1, "trial_type": "single-stim", "word": "hawk", "stimulus": "<p id=\"stim\">HAWK</p>", "conditions": [18, 1200, "v", 18000], "internal_node_id": "0.0-46.0", "trial": 1, "time_elapsed": 545775, "serialpos": 9, "key_press": -1, "wordID": 691, "type": "PRES_VIS", "trial_index": 64}, "uniqueid": "MTK3308:3MH9DQ757XJH7U8DL72R6UVSXWJUGW", "dateTime": 1520355733159}, {"current_trial": 65, "trialdata": {"rt": -1, "trial_type": "single-stim", "word": "actor", "stimulus": "<p id=\"stim\">ACTOR</p>", "conditions": [18, 1200, "v", 18000], "internal_node_id": "0.0-47.0", "trial": 1, "time_elapsed": 547812, "serialpos": 10, "key_press": -1, "wordID": 4, "type": "PRES_VIS", "trial_index": 65}, "uniqueid": "MTK3308:3MH9DQ757XJH7U8DL72R6UVSXWJUGW", "dateTime": 1520355735195}, {"current_trial": 66, "trialdata": {"rt": -1, "trial_type": "single-stim", "word": "market", "stimulus": "<p id=\"stim\">MARKET</p>", "conditions": [18, 1200, "v", 18000], "internal_node_id": "0.0-48.0", "trial": 1, "time_elapsed": 549837, "serialpos": 11, "key_press": -1, "wordID": 870, "type": "PRES_VIS", "trial_index": 66}, "uniqueid": "MTK3308:3MH9DQ757XJH7U8DL72R6UVSXWJUGW", "dateTime": 1520355737220}, {"current_trial": 67, "trialdata": {"rt": -1, "trial_type": "single-stim", "word": "padding", "stimulus": "<p id=\"stim\">PADDING</p>", "conditions": [18, 1200, "v", 18000], "internal_node_id": "0.0-49.0", "trial": 1, "time_elapsed": 552002, "serialpos": 12, "key_press": -1, "wordID": 998, "type": "PRES_VIS", "trial_index": 67}, "uniqueid": "MTK3308:3MH9DQ757XJH7U8DL72R6UVSXWJUGW", "dateTime": 1520355739385}, {"current_trial": 68, "trialdata": {"rt": -1, "trial_type": "single-stim", "word": "bug", "stimulus": "<p id=\"stim\">BUG</p>", "conditions": [18, 1200, "v", 18000], "internal_node_id": "0.0-50.0", "trial": 1, "time_elapsed": 554329, "serialpos": 13, "key_press": -1, "wordID": 186, "type": "PRES_VIS", "trial_index": 68}, "uniqueid": "MTK3308:3MH9DQ757XJH7U8DL72R6UVSXWJUGW", "dateTime": 1520355741716}, {"current_trial": 69, "trialdata": {"rt": -1, "trial_type": "single-stim", "word": "fragrance", "stimulus": "<p id=\"stim\">FRAGRANCE</p>", "conditions": [18, 1200, "v", 18000], "internal_node_id": "0.0-51.0", "trial": 1, "time_elapsed": 556490, "serialpos": 14, "key_press": -1, "wordID": 598, "type": "PRES_VIS", "trial_index": 69}, "uniqueid": "MTK3308:3MH9DQ757XJH7U8DL72R6UVSXWJUGW", "dateTime": 1520355743874}, {"current_trial": 70, "trialdata": {"rt": -1, "trial_type": "single-stim", "word": "crab", "stimulus": "<p id=\"stim\">CRAB</p>", "conditions": [18, 1200, "v", 18000], "internal_node_id": "0.0-52.0", "trial": 1, "time_elapsed": 558722, "serialpos": 15, "key_press": -1, "wordID": 396, "type": "PRES_VIS", "trial_index": 70}, "uniqueid": "MTK3308:3MH9DQ757XJH7U8DL72R6UVSXWJUGW", "dateTime": 1520355746106}, {"current_trial": 71, "trialdata": {"rt": -1, "trial_type": "single-stim", "word": "whiskers", "stimulus": "<p id=\"stim\">WHISKERS</p>", "conditions": [18, 1200, "v", 18000], "internal_node_id": "0.0-53.0", "trial": 1, "time_elapsed": 560938, "serialpos": 16, "key_press": -1, "wordID": 1604, "type": "PRES_VIS", "trial_index": 71}, "uniqueid": "MTK3308:3MH9DQ757XJH7U8DL72R6UVSXWJUGW", "dateTime": 1520355748323}, {"current_trial": 72, "trialdata": {"rt": -1, "trial_type": "single-stim", "word": "knife", "stimulus": "<p id=\"stim\">KNIFE</p>", "conditions": [18, 1200, "v", 18000], "internal_node_id": "0.0-54.0", "trial": 1, "time_elapsed": 563119, "serialpos": 17, "key_press": -1, "wordID": 784, "type": "PRES_VIS", "trial_index": 72}, "uniqueid": "MTK3308:3MH9DQ757XJH7U8DL72R6UVSXWJUGW", "dateTime": 1520355750502}, {"current_trial": 73, "trialdata": {"rt": -1, "trial_type": "single-stim", "stimulus": "", "internal_node_id": "0.0-55.0-0.0", "time_elapsed": 565613, "key_press": -1, "type": "PRE_RECALL_DELAY", "trial_index": 73}, "uniqueid": "MTK3308:3MH9DQ757XJH7U8DL72R6UVSXWJUGW", "dateTime": 1520355752996}, {"current_trial": 74, "trialdata": {"rt": -1000, "trial_type": "single-audio", "stimulus": "/static/audio/400Hz.wav", "internal_node_id": "0.0-56.0", "time_elapsed": 566115, "key_press": -1, "type": "PRE_RECALL_ALERT", "trial_index": 74}, "uniqueid": "MTK3308:3MH9DQ757XJH7U8DL72R6UVSXWJUGW", "dateTime": 1520355753498}, {"current_trial": 75, "trialdata": {"rt": [2867, 4803, 8356, 16547, 21898, 24818, 28243, 33890], "recwords": ["knife", "grave", "kitchen", "fragarence", "powder", "actor", "citrus", "kitchen"], "key_times": [1445, 1523, 1732, 2067, 2180, 2867, 3756, 3979, 4132, 4396, 4532, 4803, 5900, 6075, 6331, 6667, 6827, 7123, 7219, 8356, 10490, 10947, 11395, 11941, 12387, 12523, 12698, 13146, 13562, 13627, 16547, 19876, 20076, 20196, 20771, 21083, 21187, 21898, 22333, 22476, 22667, 23236, 23298, 24818, 26218, 26443, 26706, 26962, 27226, 27450, 28243, 32380, 32554, 32842, 33035, 33243, 33427, 33562, 33890], "trial_type": "free-recall", "conditions": [18, 1200, "v", 18000], "internal_node_id": "0.0-57.0-0.0", "key_presses": [75, 78, 73, 70, 69, 13, 71, 82, 65, 86, 69, 13, 75, 73, 84, 67, 72, 69, 78, 13, 70, 82, 65, 71, 65, 82, 69, 78, 67, 69, 13, 80, 79, 87, 68, 69, 82, 13, 65, 67, 84, 79, 82, 13, 67, 73, 84, 82, 85, 83, 13, 75, 73, 84, 67, 72, 69, 78, 13], "trial": 1, "time_elapsed": 626117, "type": "FREE_RECALL", "trial_index": 75}, "uniqueid": "MTK3308:3MH9DQ757XJH7U8DL72R6UVSXWJUGW", "dateTime": 1520355813504}, {"current_trial": 76, "trialdata": {"rt": 6631, "trial_type": "text", "internal_node_id": "0.0-58.0", "time_elapsed": 634752, "key_press": 32, "type": "INSTRUCTIONS", "trial_index": 76}, "uniqueid": "MTK3308:3MH9DQ757XJH7U8DL72R6UVSXWJUGW", "dateTime": 1520355822135}, {"current_trial": 77, "trialdata": {"rt": [2829, 5363, 8132, 10068], "trial_type": "math-distractor", "key_times": [2028, 2189, 2829, 4940, 5363, 7667, 8132, 9526, 9732, 10068], "responses": ["18", "8", "7", "11"], "num2": [8, 5, 2, 5, 5], "num3": [3, 1, 2, 1, 4], "conditions": [12, 1600, "v", 12000], "internal_node_id": "0.0-59.0", "key_presses": [49, 56, 13, 56, 13, 55, 13, 49, 49, 13], "trial": 2, "time_elapsed": 647756, "type": "DISTRACTOR", "trial_index": 77, "num1": [7, 2, 3, 5, 3]}, "uniqueid": "MTK3308:3MH9DQ757XJH7U8DL72R6UVSXWJUGW", "dateTime": 1520355835139}, {"current_trial": 78, "trialdata": {"rt": -1, "trial_type": "single-stim", "stimulus": "<p id=\"stim\">10</p>", "internal_node_id": "0.0-60.0-0.0", "time_elapsed": 650756, "key_press": -1, "trial_index": 78}, "uniqueid": "MTK3308:3MH9DQ757XJH7U8DL72R6UVSXWJUGW", "dateTime": 1520355838140}, {"current_trial": 79, "trialdata": {"rt": -1, "trial_type": "single-stim", "stimulus": "<p id=\"stim\">9</p>", "internal_node_id": "0.0-60.0-1.0", "time_elapsed": 651757, "key_press": -1, "trial_index": 79}, "uniqueid": "MTK3308:3MH9DQ757XJH7U8DL72R6UVSXWJUGW", "dateTime": 1520355839140}, {"current_trial": 80, "trialdata": {"rt": -1, "trial_type": "single-stim", "stimulus": "<p id=\"stim\">8</p>", "internal_node_id": "0.0-60.0-2.0", "time_elapsed": 652757, "key_press": -1, "trial_index": 80}, "uniqueid": "MTK3308:3MH9DQ757XJH7U8DL72R6UVSXWJUGW", "dateTime": 1520355840141}, {"current_trial": 81, "trialdata": {"rt": -1, "trial_type": "single-stim", "stimulus": "<p id=\"stim\">7</p>", "internal_node_id": "0.0-60.0-3.0", "time_elapsed": 653759, "key_press": -1, "trial_index": 81}, "uniqueid": "MTK3308:3MH9DQ757XJH7U8DL72R6UVSXWJUGW", "dateTime": 1520355841142}, {"current_trial": 82, "trialdata": {"rt": -1, "trial_type": "single-stim", "stimulus": "<p id=\"stim\">6</p>", "internal_node_id": "0.0-60.0-4.0", "time_elapsed": 654760, "key_press": -1, "trial_index": 82}, "uniqueid": "MTK3308:3MH9DQ757XJH7U8DL72R6UVSXWJUGW", "dateTime": 1520355842143}, {"current_trial": 83, "trialdata": {"rt": -1, "trial_type": "single-stim", "stimulus": "<p id=\"stim\">5</p>", "internal_node_id": "0.0-60.0-5.0", "time_elapsed": 655759, "key_press": -1, "trial_index": 83}, "uniqueid": "MTK3308:3MH9DQ757XJH7U8DL72R6UVSXWJUGW", "dateTime": 1520355843144}, {"current_trial": 84, "trialdata": {"rt": -1, "trial_type": "single-stim", "stimulus": "<p id=\"stim\">4</p>", "internal_node_id": "0.0-60.0-6.0", "time_elapsed": 656761, "key_press": -1, "trial_index": 84}, "uniqueid": "MTK3308:3MH9DQ757XJH7U8DL72R6UVSXWJUGW", "dateTime": 1520355844145}, {"current_trial": 85, "trialdata": {"rt": -1, "trial_type": "single-stim", "stimulus": "<p id=\"stim\">3</p>", "internal_node_id": "0.0-60.0-7.0", "time_elapsed": 657762, "key_press": -1, "trial_index": 85}, "uniqueid": "MTK3308:3MH9DQ757XJH7U8DL72R6UVSXWJUGW", "dateTime": 1520355845145}, {"current_trial": 86, "trialdata": {"rt": -1, "trial_type": "single-stim", "stimulus": "<p id=\"stim\">2</p>", "internal_node_id": "0.0-60.0-8.0", "time_elapsed": 658764, "key_press": -1, "trial_index": 86}, "uniqueid": "MTK3308:3MH9DQ757XJH7U8DL72R6UVSXWJUGW", "dateTime": 1520355846148}, {"current_trial": 87, "trialdata": {"rt": -1, "trial_type": "single-stim", "stimulus": "<p id=\"stim\">1</p>", "internal_node_id": "0.0-60.0-9.0", "time_elapsed": 659766, "key_press": -1, "trial_index": 87}, "uniqueid": "MTK3308:3MH9DQ757XJH7U8DL72R6UVSXWJUGW", "dateTime": 1520355847149}, {"current_trial": 88, "trialdata": {"rt": -1, "trial_type": "single-stim", "stimulus": "<p id=\"stim\">+</p>", "internal_node_id": "0.0-61.0-0.0", "time_elapsed": 661266, "key_press": -1, "type": "FIXATION", "trial_index": 88}, "uniqueid": "MTK3308:3MH9DQ757XJH7U8DL72R6UVSXWJUGW", "dateTime": 1520355848650}, {"current_trial": 89, "trialdata": {"rt": -1, "trial_type": "single-stim", "word": "daughter", "stimulus": "<p id=\"stim\">DAUGHTER</p>", "conditions": [12, 1600, "v", 12000], "internal_node_id": "0.0-62.0", "trial": 2, "time_elapsed": 662866, "serialpos": 0, "key_press": -1, "wordID": 441, "type": "PRES_VIS", "trial_index": 89}, "uniqueid": "MTK3308:3MH9DQ757XJH7U8DL72R6UVSXWJUGW", "dateTime": 1520355850251}, {"current_trial": 90, "trialdata": {"rt": -1, "trial_type": "single-stim", "word": "baby", "stimulus": "<p id=\"stim\">BABY</p>", "conditions": [12, 1600, "v", 12000], "internal_node_id": "0.0-63.0", "trial": 2, "time_elapsed": 665576, "serialpos": 1, "key_press": -1, "wordID": 63, "type": "PRES_VIS", "trial_index": 90}, "uniqueid": "MTK3308:3MH9DQ757XJH7U8DL72R6UVSXWJUGW", "dateTime": 1520355852959}, {"current_trial": 91, "trialdata": {"rt": -1, "trial_type": "single-stim", "word": "blueprint", "stimulus": "<p id=\"stim\">BLUEPRINT</p>", "conditions": [12, 1600, "v", 12000], "internal_node_id": "0.0-64.0", "trial": 2, "time_elapsed": 668371, "serialpos": 2, "key_press": -1, "wordID": 141, "type": "PRES_VIS", "trial_index": 91}, "uniqueid": "MTK3308:3MH9DQ757XJH7U8DL72R6UVSXWJUGW", "dateTime": 1520355855756}, {"current_trial": 92, "trialdata": {"rt": -1, "trial_type": "single-stim", "word": "grape", "stimulus": "<p id=\"stim\">GRAPE</p>", "conditions": [12, 1600, "v", 12000], "internal_node_id": "0.0-65.0", "trial": 2, "time_elapsed": 670902, "serialpos": 3, "key_press": -1, "wordID": 653, "type": "PRES_VIS", "trial_index": 92}, "uniqueid": "MTK3308:3MH9DQ757XJH7U8DL72R6UVSXWJUGW", "dateTime": 1520355858286}, {"current_trial": 93, "trialdata": {"rt": -1, "trial_type": "single-stim", "word": "scalpel", "stimulus": "<p id=\"stim\">SCALPEL</p>", "conditions": [12, 1600, "v", 12000], "internal_node_id": "0.0-66.0", "trial": 2, "time_elapsed": 673630, "serialpos": 4, "key_press": -1, "wordID": 1242, "type": "PRES_VIS", "trial_index": 93}, "uniqueid": "MTK3308:3MH9DQ757XJH7U8DL72R6UVSXWJUGW", "dateTime": 1520355861013}, {"current_trial": 94, "trialdata": {"rt": -1, "trial_type": "single-stim", "word": "denim", "stimulus": "<p id=\"stim\">DENIM</p>", "conditions": [12, 1600, "v", 12000], "internal_node_id": "0.0-67.0", "trial": 2, "time_elapsed": 676174, "serialpos": 5, "key_press": -1, "wordID": 445, "type": "PRES_VIS", "trial_index": 94}, "uniqueid": "MTK3308:3MH9DQ757XJH7U8DL72R6UVSXWJUGW", "dateTime": 1520355863557}, {"current_trial": 95, "trialdata": {"rt": -1, "trial_type": "single-stim", "word": "france", "stimulus": "<p id=\"stim\">FRANCE</p>", "conditions": [12, 1600, "v", 12000], "internal_node_id": "0.0-68.0", "trial": 2, "time_elapsed": 678917, "serialpos": 6, "key_press": -1, "wordID": 600, "type": "PRES_VIS", "trial_index": 95}, "uniqueid": "MTK3308:3MH9DQ757XJH7U8DL72R6UVSXWJUGW", "dateTime": 1520355866301}, {"current_trial": 96, "trialdata": {"rt": -1, "trial_type": "single-stim", "word": "champagne", "stimulus": "<p id=\"stim\">CHAMPAGNE</p>", "conditions": [12, 1600, "v", 12000], "internal_node_id": "0.0-69.0", "trial": 2, "time_elapsed": 681593, "serialpos": 7, "key_press": -1, "wordID": 277, "type": "PRES_VIS", "trial_index": 96}, "uniqueid": "MTK3308:3MH9DQ757XJH7U8DL72R6UVSXWJUGW", "dateTime": 1520355868977}, {"current_trial": 97, "trialdata": {"rt": -1, "trial_type": "single-stim", "word": "atlas", "stimulus": "<p id=\"stim\">ATLAS</p>", "conditions": [12, 1600, "v", 12000], "internal_node_id": "0.0-70.0", "trial": 2, "time_elapsed": 684309, "serialpos": 8, "key_press": -1, "wordID": 52, "type": "PRES_VIS", "trial_index": 97}, "uniqueid": "MTK3308:3MH9DQ757XJH7U8DL72R6UVSXWJUGW", "dateTime": 1520355871694}, {"current_trial": 98, "trialdata": {"rt": -1, "trial_type": "single-stim", "word": "scissors", "stimulus": "<p id=\"stim\">SCISSORS</p>", "conditions": [12, 1600, "v", 12000], "internal_node_id": "0.0-71.0", "trial": 2, "time_elapsed": 686769, "serialpos": 9, "key_press": -1, "wordID": 1249, "type": "PRES_VIS", "trial_index": 98}, "uniqueid": "MTK3308:3MH9DQ757XJH7U8DL72R6UVSXWJUGW", "dateTime": 1520355874152}, {"current_trial": 99, "trialdata": {"rt": -1, "trial_type": "single-stim", "word": "hornet", "stimulus": "<p id=\"stim\">HORNET</p>", "conditions": [12, 1600, "v", 12000], "internal_node_id": "0.0-72.0", "trial": 2, "time_elapsed": 689369, "serialpos": 10, "key_press": -1, "wordID": 717, "type": "PRES_VIS", "trial_index": 99}, "uniqueid": "MTK3308:3MH9DQ757XJH7U8DL72R6UVSXWJUGW", "dateTime": 1520355876753}, {"current_trial": 100, "trialdata": {"rt": -1, "trial_type": "single-stim", "word": "supper", "stimulus": "<p id=\"stim\">SUPPER</p>", "conditions": [12, 1600, "v", 12000], "internal_node_id": "0.0-73.0", "trial": 2, "time_elapsed": 691879, "serialpos": 11, "key_press": -1, "wordID": 1410, "type": "PRES_VIS", "trial_index": 100}, "uniqueid": "MTK3308:3MH9DQ757XJH7U8DL72R6UVSXWJUGW", "dateTime": 1520355879262}, {"current_trial": 101, "trialdata": {"rt": -1, "trial_type": "single-stim", "stimulus": "", "internal_node_id": "0.0-74.0-0.0", "time_elapsed": 694125, "key_press": -1, "type": "PRE_RECALL_DELAY", "trial_index": 101}, "uniqueid": "MTK3308:3MH9DQ757XJH7U8DL72R6UVSXWJUGW", "dateTime": 1520355881508}, {"current_trial": 102, "trialdata": {"rt": -1000, "trial_type": "single-audio", "stimulus": "/static/audio/400Hz.wav", "internal_node_id": "0.0-75.0", "time_elapsed": 694626, "key_press": -1, "type": "PRE_RECALL_ALERT", "trial_index": 102}, "uniqueid": "MTK3308:3MH9DQ757XJH7U8DL72R6UVSXWJUGW", "dateTime": 1520355882009}, {"current_trial": 103, "trialdata": {"rt": [2778, 4577, 6522, 9499, 12299, 18226, 24339], "recwords": ["supper", "hornet", "baby", "daughter", "france", "champaign", "atlas"], "key_times": [1300, 1409, 1706, 1842, 2043, 2170, 2778, 3218, 3426, 3634, 3882, 4073, 4194, 4577, 5154, 5225, 5314, 5530, 6522, 7226, 7497, 7642, 7882, 7962, 8106, 8218, 8370, 9499, 10474, 10643, 10779, 11251, 11556, 11635, 12299, 12315, 13386, 14306, 14442, 14810, 15146, 15530, 15883, 16010, 16323, 16586, 18226, 22795, 22923, 23403, 23531, 23786, 24339], "trial_type": "free-recall", "conditions": [12, 1600, "v", 12000], "internal_node_id": "0.0-76.0-0.0", "key_presses": [83, 85, 80, 80, 69, 82, 13, 72, 79, 82, 78, 69, 84, 13, 66, 65, 66, 89, 13, 68, 65, 85, 71, 72, 84, 69, 82, 13, 70, 82, 65, 78, 67, 69, 13, 220, 8, 67, 72, 65, 77, 80, 65, 73, 71, 78, 13, 65, 84, 76, 65, 83, 13], "trial": 2, "time_elapsed": 754630, "type": "FREE_RECALL", "trial_index": 103}, "uniqueid": "MTK3308:3MH9DQ757XJH7U8DL72R6UVSXWJUGW", "dateTime": 1520355942017}, {"current_trial": 104, "trialdata": {"rt": 4287, "trial_type": "text", "internal_node_id": "0.0-77.0", "time_elapsed": 760921, "key_press": 32, "type": "INSTRUCTIONS", "trial_index": 104}, "uniqueid": "MTK3308:3MH9DQ757XJH7U8DL72R6UVSXWJUGW", "dateTime": 1520355948304}, {"current_trial": 105, "trialdata": {"rt": [2683, 5003, 8373, 11485, 14276, 17251, 19979, 23274], "trial_type": "math-distractor", "key_times": [1853, 2059, 2683, 4123, 4300, 5003, 7276, 7515, 8373, 10860, 11188, 11485, 13334, 13564, 14276, 16618, 16851, 17251, 19117, 19283, 19979, 22499, 22714, 23274], "responses": ["17", "17", "12", "20", "15", "20", "15", "24"], "num2": [3, 6, 4, 7, 7, 4, 2, 7, 3], "num3": [7, 4, 3, 4, 3, 7, 8, 9, 1], "conditions": [24, 800, "v", 24000], "internal_node_id": "0.0-78.0", "key_presses": [49, 55, 13, 49, 55, 13, 49, 50, 13, 50, 48, 13, 49, 53, 13, 50, 48, 13, 49, 53, 13, 50, 52, 13], "trial": 3, "time_elapsed": 786924, "type": "DISTRACTOR", "trial_index": 105, "num1": [7, 7, 5, 9, 5, 9, 5, 8, 3]}, "uniqueid": "MTK3308:3MH9DQ757XJH7U8DL72R6UVSXWJUGW", "dateTime": 1520355974307}, {"current_trial": 106, "trialdata": {"rt": -1, "trial_type": "single-stim", "stimulus": "<p id=\"stim\">10</p>", "internal_node_id": "0.0-79.0-0.0", "time_elapsed": 789925, "key_press": -1, "trial_index": 106}, "uniqueid": "MTK3308:3MH9DQ757XJH7U8DL72R6UVSXWJUGW", "dateTime": 1520355977308}, {"current_trial": 107, "trialdata": {"rt": -1, "trial_type": "single-stim", "stimulus": "<p id=\"stim\">9</p>", "internal_node_id": "0.0-79.0-1.0", "time_elapsed": 790925, "key_press": -1, "trial_index": 107}, "uniqueid": "MTK3308:3MH9DQ757XJH7U8DL72R6UVSXWJUGW", "dateTime": 1520355978309}, {"current_trial": 108, "trialdata": {"rt": -1, "trial_type": "single-stim", "stimulus": "<p id=\"stim\">8</p>", "internal_node_id": "0.0-79.0-2.0", "time_elapsed": 791927, "key_press": -1, "trial_index": 108}, "uniqueid": "MTK3308:3MH9DQ757XJH7U8DL72R6UVSXWJUGW", "dateTime": 1520355979310}, {"current_trial": 109, "trialdata": {"rt": -1, "trial_type": "single-stim", "stimulus": "<p id=\"stim\">7</p>", "internal_node_id": "0.0-79.0-3.0", "time_elapsed": 792926, "key_press": -1, "trial_index": 109}, "uniqueid": "MTK3308:3MH9DQ757XJH7U8DL72R6UVSXWJUGW", "dateTime": 1520355980311}, {"current_trial": 110, "trialdata": {"rt": -1, "trial_type": "single-stim", "stimulus": "<p id=\"stim\">6</p>", "internal_node_id": "0.0-79.0-4.0", "time_elapsed": 793929, "key_press": -1, "trial_index": 110}, "uniqueid": "MTK3308:3MH9DQ757XJH7U8DL72R6UVSXWJUGW", "dateTime": 1520355981312}, {"current_trial": 111, "trialdata": {"rt": -1, "trial_type": "single-stim", "stimulus": "<p id=\"stim\">5</p>", "internal_node_id": "0.0-79.0-5.0", "time_elapsed": 794928, "key_press": -1, "trial_index": 111}, "uniqueid": "MTK3308:3MH9DQ757XJH7U8DL72R6UVSXWJUGW", "dateTime": 1520355982313}, {"current_trial": 112, "trialdata": {"rt": -1, "trial_type": "single-stim", "stimulus": "<p id=\"stim\">4</p>", "internal_node_id": "0.0-79.0-6.0", "time_elapsed": 795930, "key_press": -1, "trial_index": 112}, "uniqueid": "MTK3308:3MH9DQ757XJH7U8DL72R6UVSXWJUGW", "dateTime": 1520355983314}, {"current_trial": 113, "trialdata": {"rt": -1, "trial_type": "single-stim", "stimulus": "<p id=\"stim\">3</p>", "internal_node_id": "0.0-79.0-7.0", "time_elapsed": 796930, "key_press": -1, "trial_index": 113}, "uniqueid": "MTK3308:3MH9DQ757XJH7U8DL72R6UVSXWJUGW", "dateTime": 1520355984315}, {"current_trial": 114, "trialdata": {"rt": -1, "trial_type": "single-stim", "stimulus": "<p id=\"stim\">2</p>", "internal_node_id": "0.0-79.0-8.0", "time_elapsed": 797933, "key_press": -1, "trial_index": 114}, "uniqueid": "MTK3308:3MH9DQ757XJH7U8DL72R6UVSXWJUGW", "dateTime": 1520355985316}, {"current_trial": 115, "trialdata": {"rt": -1, "trial_type": "single-stim", "stimulus": "<p id=\"stim\">1</p>", "internal_node_id": "0.0-79.0-9.0", "time_elapsed": 798933, "key_press": -1, "trial_index": 115}, "uniqueid": "MTK3308:3MH9DQ757XJH7U8DL72R6UVSXWJUGW", "dateTime": 1520355986317}, {"current_trial": 116, "trialdata": {"rt": -1, "trial_type": "single-stim", "stimulus": "<p id=\"stim\">+</p>", "internal_node_id": "0.0-80.0-0.0", "time_elapsed": 800434, "key_press": -1, "type": "FIXATION", "trial_index": 116}, "uniqueid": "MTK3308:3MH9DQ757XJH7U8DL72R6UVSXWJUGW", "dateTime": 1520355987819}, {"current_trial": 117, "trialdata": {"rt": -1, "trial_type": "single-stim", "word": "velvet", "stimulus": "<p id=\"stim\">VELVET</p>", "conditions": [24, 800, "v", 24000], "internal_node_id": "0.0-81.0", "trial": 3, "time_elapsed": 801237, "serialpos": 0, "key_press": -1, "wordID": 1554, "type": "PRES_VIS", "trial_index": 117}, "uniqueid": "MTK3308:3MH9DQ757XJH7U8DL72R6UVSXWJUGW", "dateTime": 1520355988620}, {"current_trial": 118, "trialdata": {"rt": -1, "trial_type": "single-stim", "word": "freezer", "stimulus": "<p id=\"stim\">FREEZER</p>", "conditions": [24, 800, "v", 24000], "internal_node_id": "0.0-82.0", "trial": 3, "time_elapsed": 803017, "serialpos": 1, "key_press": -1, "wordID": 603, "type": "PRES_VIS", "trial_index": 118}, "uniqueid": "MTK3308:3MH9DQ757XJH7U8DL72R6UVSXWJUGW", "dateTime": 1520355990401}, {"current_trial": 119, "trialdata": {"rt": -1, "trial_type": "single-stim", "word": "wardrobe", "stimulus": "<p id=\"stim\">WARDROBE</p>", "conditions": [24, 800, "v", 24000], "internal_node_id": "0.0-83.0", "trial": 3, "time_elapsed": 804735, "serialpos": 2, "key_press": -1, "wordID": 1586, "type": "PRES_VIS", "trial_index": 119}, "uniqueid": "MTK3308:3MH9DQ757XJH7U8DL72R6UVSXWJUGW", "dateTime": 1520355992118}, {"current_trial": 120, "trialdata": {"rt": -1, "trial_type": "single-stim", "word": "shoulder", "stimulus": "<p id=\"stim\">SHOULDER</p>", "conditions": [24, 800, "v", 24000], "internal_node_id": "0.0-84.0", "trial": 3, "time_elapsed": 806490, "serialpos": 3, "key_press": -1, "wordID": 1293, "type": "PRES_VIS", "trial_index": 120}, "uniqueid": "MTK3308:3MH9DQ757XJH7U8DL72R6UVSXWJUGW", "dateTime": 1520355993874}, {"current_trial": 121, "trialdata": {"rt": -1, "trial_type": "single-stim", "word": "wrist", "stimulus": "<p id=\"stim\">WRIST</p>", "conditions": [24, 800, "v", 24000], "internal_node_id": "0.0-85.0", "trial": 3, "time_elapsed": 808143, "serialpos": 4, "key_press": -1, "wordID": 1625, "type": "PRES_VIS", "trial_index": 121}, "uniqueid": "MTK3308:3MH9DQ757XJH7U8DL72R6UVSXWJUGW", "dateTime": 1520355995526}, {"current_trial": 122, "trialdata": {"rt": -1, "trial_type": "single-stim", "word": "cod", "stimulus": "<p id=\"stim\">COD</p>", "conditions": [24, 800, "v", 24000], "internal_node_id": "0.0-86.0", "trial": 3, "time_elapsed": 809746, "serialpos": 5, "key_press": -1, "wordID": 339, "type": "PRES_VIS", "trial_index": 122}, "uniqueid": "MTK3308:3MH9DQ757XJH7U8DL72R6UVSXWJUGW", "dateTime": 1520355997129}, {"current_trial": 123, "trialdata": {"rt": -1, "trial_type": "single-stim", "word": "forest", "stimulus": "<p id=\"stim\">FOREST</p>", "conditions": [24, 800, "v", 24000], "internal_node_id": "0.0-87.0", "trial": 3, "time_elapsed": 811383, "serialpos": 6, "key_press": -1, "wordID": 592, "type": "PRES_VIS", "trial_index": 123}, "uniqueid": "MTK3308:3MH9DQ757XJH7U8DL72R6UVSXWJUGW", "dateTime": 1520355998767}, {"current_trial": 124, "trialdata": {"rt": -1, "trial_type": "single-stim", "word": "rifle", "stimulus": "<p id=\"stim\">RIFLE</p>", "conditions": [24, 800, "v", 24000], "internal_node_id": "0.0-88.0", "trial": 3, "time_elapsed": 813209, "serialpos": 7, "key_press": -1, "wordID": 1191, "type": "PRES_VIS", "trial_index": 124}, "uniqueid": "MTK3308:3MH9DQ757XJH7U8DL72R6UVSXWJUGW", "dateTime": 1520356000594}, {"current_trial": 125, "trialdata": {"rt": -1, "trial_type": "single-stim", "word": "ankle", "stimulus": "<p id=\"stim\">ANKLE</p>", "conditions": [24, 800, "v", 24000], "internal_node_id": "0.0-89.0", "trial": 3, "time_elapsed": 814828, "serialpos": 8, "key_press": -1, "wordID": 23, "type": "PRES_VIS", "trial_index": 125}, "uniqueid": "MTK3308:3MH9DQ757XJH7U8DL72R6UVSXWJUGW", "dateTime": 1520356002212}, {"current_trial": 126, "trialdata": {"rt": -1, "trial_type": "single-stim", "word": "peanut", "stimulus": "<p id=\"stim\">PEANUT</p>", "conditions": [24, 800, "v", 24000], "internal_node_id": "0.0-90.0", "trial": 3, "time_elapsed": 816558, "serialpos": 9, "key_press": -1, "wordID": 1031, "type": "PRES_VIS", "trial_index": 126}, "uniqueid": "MTK3308:3MH9DQ757XJH7U8DL72R6UVSXWJUGW", "dateTime": 1520356003942}, {"current_trial": 127, "trialdata": {"rt": -1, "trial_type": "single-stim", "word": "silk", "stimulus": "<p id=\"stim\">SILK</p>", "conditions": [24, 800, "v", 24000], "internal_node_id": "0.0-91.0", "trial": 3, "time_elapsed": 818532, "serialpos": 10, "key_press": -1, "wordID": 1306, "type": "PRES_VIS", "trial_index": 127}, "uniqueid": "MTK3308:3MH9DQ757XJH7U8DL72R6UVSXWJUGW", "dateTime": 1520356005917}, {"current_trial": 128, "trialdata": {"rt": -1, "trial_type": "single-stim", "word": "spouse", "stimulus": "<p id=\"stim\">SPOUSE</p>", "conditions": [24, 800, "v", 24000], "internal_node_id": "0.0-92.0", "trial": 3, "time_elapsed": 820310, "serialpos": 11, "key_press": -1, "wordID": 1357, "type": "PRES_VIS", "trial_index": 128}, "uniqueid": "MTK3308:3MH9DQ757XJH7U8DL72R6UVSXWJUGW", "dateTime": 1520356007693}, {"current_trial": 129, "trialdata": {"rt": -1, "trial_type": "single-stim", "word": "plaid", "stimulus": "<p id=\"stim\">PLAID</p>", "conditions": [24, 800, "v", 24000], "internal_node_id": "0.0-93.0", "trial": 3, "time_elapsed": 822152, "serialpos": 12, "key_press": -1, "wordID": 1079, "type": "PRES_VIS", "trial_index": 129}, "uniqueid": "MTK3308:3MH9DQ757XJH7U8DL72R6UVSXWJUGW", "dateTime": 1520356009535}, {"current_trial": 130, "trialdata": {"rt": -1, "trial_type": "single-stim", "word": "lace", "stimulus": "<p id=\"stim\">LACE</p>", "conditions": [24, 800, "v", 24000], "internal_node_id": "0.0-94.0", "trial": 3, "time_elapsed": 824107, "serialpos": 13, "key_press": -1, "wordID": 791, "type": "PRES_VIS", "trial_index": 130}, "uniqueid": "MTK3308:3MH9DQ757XJH7U8DL72R6UVSXWJUGW", "dateTime": 1520356011490}, {"current_trial": 131, "trialdata": {"rt": -1, "trial_type": "single-stim", "word": "tortoise", "stimulus": "<p id=\"stim\">TORTOISE</p>", "conditions": [24, 800, "v", 24000], "internal_node_id": "0.0-95.0", "trial": 3, "time_elapsed": 825861, "serialpos": 14, "key_press": -1, "wordID": 1485, "type": "PRES_VIS", "trial_index": 131}, "uniqueid": "MTK3308:3MH9DQ757XJH7U8DL72R6UVSXWJUGW", "dateTime": 1520356013245}, {"current_trial": 132, "trialdata": {"rt": -1, "trial_type": "single-stim", "word": "camel", "stimulus": "<p id=\"stim\">CAMEL</p>", "conditions": [24, 800, "v", 24000], "internal_node_id": "0.0-96.0", "trial": 3, "time_elapsed": 827743, "serialpos": 15, "key_press": -1, "wordID": 222, "type": "PRES_VIS", "trial_index": 132}, "uniqueid": "MTK3308:3MH9DQ757XJH7U8DL72R6UVSXWJUGW", "dateTime": 1520356015126}, {"current_trial": 133, "trialdata": {"rt": -1, "trial_type": "single-stim", "word": "lamp", "stimulus": "<p id=\"stim\">LAMP</p>", "conditions": [24, 800, "v", 24000], "internal_node_id": "0.0-97.0", "trial": 3, "time_elapsed": 829577, "serialpos": 16, "key_press": -1, "wordID": 797, "type": "PRES_VIS", "trial_index": 133}, "uniqueid": "MTK3308:3MH9DQ757XJH7U8DL72R6UVSXWJUGW", "dateTime": 1520356016961}, {"current_trial": 134, "trialdata": {"rt": -1, "trial_type": "single-stim", "word": "truck", "stimulus": "<p id=\"stim\">TRUCK</p>", "conditions": [24, 800, "v", 24000], "internal_node_id": "0.0-98.0", "trial": 3, "time_elapsed": 831356, "serialpos": 17, "key_press": -1, "wordID": 1511, "type": "PRES_VIS", "trial_index": 134}, "uniqueid": "MTK3308:3MH9DQ757XJH7U8DL72R6UVSXWJUGW", "dateTime": 1520356018739}, {"current_trial": 135, "trialdata": {"rt": -1, "trial_type": "single-stim", "word": "eagle", "stimulus": "<p id=\"stim\">EAGLE</p>", "conditions": [24, 800, "v", 24000], "internal_node_id": "0.0-99.0", "trial": 3, "time_elapsed": 833305, "serialpos": 18, "key_press": -1, "wordID": 511, "type": "PRES_VIS", "trial_index": 135}, "uniqueid": "MTK3308:3MH9DQ757XJH7U8DL72R6UVSXWJUGW", "dateTime": 1520356020689}, {"current_trial": 136, "trialdata": {"rt": -1, "trial_type": "single-stim", "word": "turtle", "stimulus": "<p id=\"stim\">TURTLE</p>", "conditions": [24, 800, "v", 24000], "internal_node_id": "0.0-100.0", "trial": 3, "time_elapsed": 835070, "serialpos": 19, "key_press": -1, "wordID": 1521, "type": "PRES_VIS", "trial_index": 136}, "uniqueid": "MTK3308:3MH9DQ757XJH7U8DL72R6UVSXWJUGW", "dateTime": 1520356022453}, {"current_trial": 137, "trialdata": {"rt": -1, "trial_type": "single-stim", "word": "racket", "stimulus": "<p id=\"stim\">RACKET</p>", "conditions": [24, 800, "v", 24000], "internal_node_id": "0.0-101.0", "trial": 3, "time_elapsed": 836749, "serialpos": 20, "key_press": -1, "wordID": 1154, "type": "PRES_VIS", "trial_index": 137}, "uniqueid": "MTK3308:3MH9DQ757XJH7U8DL72R6UVSXWJUGW", "dateTime": 1520356024134}, {"current_trial": 138, "trialdata": {"rt": -1, "trial_type": "single-stim", "word": "maple", "stimulus": "<p id=\"stim\">MAPLE</p>", "conditions": [24, 800, "v", 24000], "internal_node_id": "0.0-102.0", "trial": 3, "time_elapsed": 838597, "serialpos": 21, "key_press": -1, "wordID": 865, "type": "PRES_VIS", "trial_index": 138}, "uniqueid": "MTK3308:3MH9DQ757XJH7U8DL72R6UVSXWJUGW", "dateTime": 1520356025981}, {"current_trial": 139, "trialdata": {"rt": -1, "trial_type": "single-stim", "word": "river", "stimulus": "<p id=\"stim\">RIVER</p>", "conditions": [24, 800, "v", 24000], "internal_node_id": "0.0-103.0", "trial": 3, "time_elapsed": 840466, "serialpos": 22, "key_press": -1, "wordID": 1193, "type": "PRES_VIS", "trial_index": 139}, "uniqueid": "MTK3308:3MH9DQ757XJH7U8DL72R6UVSXWJUGW", "dateTime": 1520356027851}, {"current_trial": 140, "trialdata": {"rt": -1, "trial_type": "single-stim", "word": "lodge", "stimulus": "<p id=\"stim\">LODGE</p>", "conditions": [24, 800, "v", 24000], "internal_node_id": "0.0-104.0", "trial": 3, "time_elapsed": 842236, "serialpos": 23, "key_press": -1, "wordID": 838, "type": "PRES_VIS", "trial_index": 140}, "uniqueid": "MTK3308:3MH9DQ757XJH7U8DL72R6UVSXWJUGW", "dateTime": 1520356029619}, {"current_trial": 141, "trialdata": {"rt": -1, "trial_type": "single-stim", "stimulus": "", "internal_node_id": "0.0-105.0-0.0", "time_elapsed": 844355, "key_press": -1, "type": "PRE_RECALL_DELAY", "trial_index": 141}, "uniqueid": "MTK3308:3MH9DQ757XJH7U8DL72R6UVSXWJUGW", "dateTime": 1520356031739}, {"current_trial": 142, "trialdata": {"rt": -1000, "trial_type": "single-audio", "stimulus": "/static/audio/400Hz.wav", "internal_node_id": "0.0-106.0", "time_elapsed": 844856, "key_press": -1, "type": "PRE_RECALL_ALERT", "trial_index": 142}, "uniqueid": "MTK3308:3MH9DQ757XJH7U8DL72R6UVSXWJUGW", "dateTime": 1520356032240}, {"current_trial": 143, "trialdata": {"rt": [1837, 5548, 8747, 11875, 14508, 21053, 25227, 57378], "recwords": ["river", "river", "lodge", "turtle", "tortoise", "velvet", "freezer", "cod"], "key_times": [965, 1084, 1364, 1501, 1620, 1837, 2501, 3812, 3979, 4324, 4862, 4941, 5548, 6379, 6563, 6973, 7627, 7756, 8747, 9779, 10267, 10459, 10820, 11196, 11323, 11875, 12340, 12604, 13019, 13243, 13596, 13675, 13787, 14004, 14508, 17933, 18052, 18348, 18772, 18893, 20188, 21053, 21613, 21813, 21988, 22164, 22964, 23244, 23395, 25227, 56269, 56555, 56707, 57378, 58259, 58459, 58747, 58891, 59467, 59586], "trial_type": "free-recall", "conditions": [24, 800, "v", 24000], "internal_node_id": "0.0-107.0-0.0", "key_presses": [82, 73, 86, 69, 82, 32, 8, 82, 73, 86, 69, 82, 13, 76, 79, 68, 71, 69, 13, 84, 85, 82, 84, 76, 69, 13, 84, 79, 82, 84, 79, 73, 83, 69, 13, 86, 69, 76, 86, 69, 84, 13, 70, 82, 69, 69, 90, 69, 82, 13, 67, 79, 68, 13, 70, 79, 82, 69, 83, 84], "trial": 3, "time_elapsed": 904860, "type": "FREE_RECALL", "trial_index": 143}, "uniqueid": "MTK3308:3MH9DQ757XJH7U8DL72R6UVSXWJUGW", "dateTime": 1520356092248}, {"current_trial": 144, "trialdata": {"rt": 3348, "trial_type": "text", "internal_node_id": "0.0-108.0", "time_elapsed": 910215, "key_press": 32, "type": "INSTRUCTIONS", "trial_index": 144}, "uniqueid": "MTK3308:3MH9DQ757XJH7U8DL72R6UVSXWJUGW", "dateTime": 1520356097598}, {"current_trial": 145, "trialdata": {"rt": [2573, 4901, 7260, 10044], "trial_type": "math-distractor", "key_times": [1711, 1854, 2573, 4358, 4901, 6493, 6661, 7260, 9148, 9325, 10044, 11982], "responses": ["13", "6", "15", "13"], "num2": [6, 4, 5, 1, 6], "num3": [4, 1, 2, 4, 6], "conditions": [24, 800, "v", 12000], "internal_node_id": "0.0-109.0", "key_presses": [49, 51, 13, 54, 13, 49, 53, 13, 49, 51, 13, 49], "trial": 4, "time_elapsed": 924217, "type": "DISTRACTOR", "trial_index": 145, "num1": [3, 1, 8, 8, 6]}, "uniqueid": "MTK3308:3MH9DQ757XJH7U8DL72R6UVSXWJUGW", "dateTime": 1520356111600}, {"current_trial": 146, "trialdata": {"rt": -1, "trial_type": "single-stim", "stimulus": "<p id=\"stim\">10</p>", "internal_node_id": "0.0-110.0-0.0", "time_elapsed": 927218, "key_press": -1, "trial_index": 146}, "uniqueid": "MTK3308:3MH9DQ757XJH7U8DL72R6UVSXWJUGW", "dateTime": 1520356114602}, {"current_trial": 147, "trialdata": {"rt": -1, "trial_type": "single-stim", "stimulus": "<p id=\"stim\">9</p>", "internal_node_id": "0.0-110.0-1.0", "time_elapsed": 928220, "key_press": -1, "trial_index": 147}, "uniqueid": "MTK3308:3MH9DQ757XJH7U8DL72R6UVSXWJUGW", "dateTime": 1520356115603}, {"current_trial": 148, "trialdata": {"rt": -1, "trial_type": "single-stim", "stimulus": "<p id=\"stim\">8</p>", "internal_node_id": "0.0-110.0-2.0", "time_elapsed": 929220, "key_press": -1, "trial_index": 148}, "uniqueid": "MTK3308:3MH9DQ757XJH7U8DL72R6UVSXWJUGW", "dateTime": 1520356116605}, {"current_trial": 149, "trialdata": {"rt": -1, "trial_type": "single-stim", "stimulus": "<p id=\"stim\">7</p>", "internal_node_id": "0.0-110.0-3.0", "time_elapsed": 930222, "key_press": -1, "trial_index": 149}, "uniqueid": "MTK3308:3MH9DQ757XJH7U8DL72R6UVSXWJUGW", "dateTime": 1520356117605}, {"current_trial": 150, "trialdata": {"rt": -1, "trial_type": "single-stim", "stimulus": "<p id=\"stim\">6</p>", "internal_node_id": "0.0-110.0-4.0", "time_elapsed": 931224, "key_press": -1, "trial_index": 150}, "uniqueid": "MTK3308:3MH9DQ757XJH7U8DL72R6UVSXWJUGW", "dateTime": 1520356118607}, {"current_trial": 151, "trialdata": {"rt": -1, "trial_type": "single-stim", "stimulus": "<p id=\"stim\">5</p>", "internal_node_id": "0.0-110.0-5.0", "time_elapsed": 932225, "key_press": -1, "trial_index": 151}, "uniqueid": "MTK3308:3MH9DQ757XJH7U8DL72R6UVSXWJUGW", "dateTime": 1520356119608}, {"current_trial": 152, "trialdata": {"rt": -1, "trial_type": "single-stim", "stimulus": "<p id=\"stim\">4</p>", "internal_node_id": "0.0-110.0-6.0", "time_elapsed": 933225, "key_press": -1, "trial_index": 152}, "uniqueid": "MTK3308:3MH9DQ757XJH7U8DL72R6UVSXWJUGW", "dateTime": 1520356120609}, {"current_trial": 153, "trialdata": {"rt": -1, "trial_type": "single-stim", "stimulus": "<p id=\"stim\">3</p>", "internal_node_id": "0.0-110.0-7.0", "time_elapsed": 934226, "key_press": -1, "trial_index": 153}, "uniqueid": "MTK3308:3MH9DQ757XJH7U8DL72R6UVSXWJUGW", "dateTime": 1520356121610}, {"current_trial": 154, "trialdata": {"rt": -1, "trial_type": "single-stim", "stimulus": "<p id=\"stim\">2</p>", "internal_node_id": "0.0-110.0-8.0", "time_elapsed": 935226, "key_press": -1, "trial_index": 154}, "uniqueid": "MTK3308:3MH9DQ757XJH7U8DL72R6UVSXWJUGW", "dateTime": 1520356122610}, {"current_trial": 155, "trialdata": {"rt": -1, "trial_type": "single-stim", "stimulus": "<p id=\"stim\">1</p>", "internal_node_id": "0.0-110.0-9.0", "time_elapsed": 936228, "key_press": -1, "trial_index": 155}, "uniqueid": "MTK3308:3MH9DQ757XJH7U8DL72R6UVSXWJUGW", "dateTime": 1520356123612}, {"current_trial": 156, "trialdata": {"rt": -1, "trial_type": "single-stim", "stimulus": "<p id=\"stim\">+</p>", "internal_node_id": "0.0-111.0-0.0", "time_elapsed": 937730, "key_press": -1, "type": "FIXATION", "trial_index": 156}, "uniqueid": "MTK3308:3MH9DQ757XJH7U8DL72R6UVSXWJUGW", "dateTime": 1520356125113}, {"current_trial": 157, "trialdata": {"rt": -1, "trial_type": "single-stim", "word": "mister", "stimulus": "<p id=\"stim\">MISTER</p>", "conditions": [24, 800, "v", 12000], "internal_node_id": "0.0-112.0", "trial": 4, "time_elapsed": 938531, "serialpos": 0, "key_press": -1, "wordID": 900, "type": "PRES_VIS", "trial_index": 157}, "uniqueid": "MTK3308:3MH9DQ757XJH7U8DL72R6UVSXWJUGW", "dateTime": 1520356125914}, {"current_trial": 158, "trialdata": {"rt": -1, "trial_type": "single-stim", "word": "brandy", "stimulus": "<p id=\"stim\">BRANDY</p>", "conditions": [24, 800, "v", 12000], "internal_node_id": "0.0-113.0", "trial": 4, "time_elapsed": 940346, "serialpos": 1, "key_press": -1, "wordID": 168, "type": "PRES_VIS", "trial_index": 158}, "uniqueid": "MTK3308:3MH9DQ757XJH7U8DL72R6UVSXWJUGW", "dateTime": 1520356127730}, {"current_trial": 159, "trialdata": {"rt": -1, "trial_type": "single-stim", "word": "scotch", "stimulus": "<p id=\"stim\">SCOTCH</p>", "conditions": [24, 800, "v", 12000], "internal_node_id": "0.0-114.0", "trial": 4, "time_elapsed": 942074, "serialpos": 2, "key_press": -1, "wordID": 1250, "type": "PRES_VIS", "trial_index": 159}, "uniqueid": "MTK3308:3MH9DQ757XJH7U8DL72R6UVSXWJUGW", "dateTime": 1520356129457}, {"current_trial": 160, "trialdata": {"rt": -1, "trial_type": "single-stim", "word": "hostess", "stimulus": "<p id=\"stim\">HOSTESS</p>", "conditions": [24, 800, "v", 12000], "internal_node_id": "0.0-115.0", "trial": 4, "time_elapsed": 944040, "serialpos": 3, "key_press": -1, "wordID": 722, "type": "PRES_VIS", "trial_index": 160}, "uniqueid": "MTK3308:3MH9DQ757XJH7U8DL72R6UVSXWJUGW", "dateTime": 1520356131423}, {"current_trial": 161, "trialdata": {"rt": -1, "trial_type": "single-stim", "word": "dustpan", "stimulus": "<p id=\"stim\">DUSTPAN</p>", "conditions": [24, 800, "v", 12000], "internal_node_id": "0.0-116.0", "trial": 4, "time_elapsed": 945783, "serialpos": 4, "key_press": -1, "wordID": 508, "type": "PRES_VIS", "trial_index": 161}, "uniqueid": "MTK3308:3MH9DQ757XJH7U8DL72R6UVSXWJUGW", "dateTime": 1520356133167}, {"current_trial": 162, "trialdata": {"rt": -1, "trial_type": "single-stim", "word": "church", "stimulus": "<p id=\"stim\">CHURCH</p>", "conditions": [24, 800, "v", 12000], "internal_node_id": "0.0-117.0", "trial": 4, "time_elapsed": 947399, "serialpos": 5, "key_press": -1, "wordID": 306, "type": "PRES_VIS", "trial_index": 162}, "uniqueid": "MTK3308:3MH9DQ757XJH7U8DL72R6UVSXWJUGW", "dateTime": 1520356134782}, {"current_trial": 163, "trialdata": {"rt": -1, "trial_type": "single-stim", "word": "brother", "stimulus": "<p id=\"stim\">BROTHER</p>", "conditions": [24, 800, "v", 12000], "internal_node_id": "0.0-118.0", "trial": 4, "time_elapsed": 949251, "serialpos": 6, "key_press": -1, "wordID": 178, "type": "PRES_VIS", "trial_index": 163}, "uniqueid": "MTK3308:3MH9DQ757XJH7U8DL72R6UVSXWJUGW", "dateTime": 1520356136636}, {"current_trial": 164, "trialdata": {"rt": -1, "trial_type": "single-stim", "word": "army", "stimulus": "<p id=\"stim\">ARMY</p>", "conditions": [24, 800, "v", 12000], "internal_node_id": "0.0-119.0", "trial": 4, "time_elapsed": 951231, "serialpos": 7, "key_press": -1, "wordID": 38, "type": "PRES_VIS", "trial_index": 164}, "uniqueid": "MTK3308:3MH9DQ757XJH7U8DL72R6UVSXWJUGW", "dateTime": 1520356138615}, {"current_trial": 165, "trialdata": {"rt": -1, "trial_type": "single-stim", "word": "waitress", "stimulus": "<p id=\"stim\">WAITRESS</p>", "conditions": [24, 800, "v", 12000], "internal_node_id": "0.0-120.0", "trial": 4, "time_elapsed": 953178, "serialpos": 8, "key_press": -1, "wordID": 1580, "type": "PRES_VIS", "trial_index": 165}, "uniqueid": "MTK3308:3MH9DQ757XJH7U8DL72R6UVSXWJUGW", "dateTime": 1520356140562}, {"current_trial": 166, "trialdata": {"rt": -1, "trial_type": "single-stim", "word": "crutch", "stimulus": "<p id=\"stim\">CRUTCH</p>", "conditions": [24, 800, "v", 12000], "internal_node_id": "0.0-121.0", "trial": 4, "time_elapsed": 954794, "serialpos": 9, "key_press": -1, "wordID": 416, "type": "PRES_VIS", "trial_index": 166}, "uniqueid": "MTK3308:3MH9DQ757XJH7U8DL72R6UVSXWJUGW", "dateTime": 1520356142178}, {"current_trial": 167, "trialdata": {"rt": -1, "trial_type": "single-stim", "word": "journal", "stimulus": "<p id=\"stim\">JOURNAL</p>", "conditions": [24, 800, "v", 12000], "internal_node_id": "0.0-122.0", "trial": 4, "time_elapsed": 956752, "serialpos": 10, "key_press": -1, "wordID": 759, "type": "PRES_VIS", "trial_index": 167}, "uniqueid": "MTK3308:3MH9DQ757XJH7U8DL72R6UVSXWJUGW", "dateTime": 1520356144136}, {"current_trial": 168, "trialdata": {"rt": -1, "trial_type": "single-stim", "word": "survey", "stimulus": "<p id=\"stim\">SURVEY</p>", "conditions": [24, 800, "v", 12000], "internal_node_id": "0.0-123.0", "trial": 4, "time_elapsed": 958357, "serialpos": 11, "key_press": -1, "wordID": 1413, "type": "PRES_VIS", "trial_index": 168}, "uniqueid": "MTK3308:3MH9DQ757XJH7U8DL72R6UVSXWJUGW", "dateTime": 1520356145741}, {"current_trial": 169, "trialdata": {"rt": -1, "trial_type": "single-stim", "word": "orchid", "stimulus": "<p id=\"stim\">ORCHID</p>", "conditions": [24, 800, "v", 12000], "internal_node_id": "0.0-124.0", "trial": 4, "time_elapsed": 960160, "serialpos": 12, "key_press": -1, "wordID": 981, "type": "PRES_VIS", "trial_index": 169}, "uniqueid": "MTK3308:3MH9DQ757XJH7U8DL72R6UVSXWJUGW", "dateTime": 1520356147543}, {"current_trial": 170, "trialdata": {"rt": -1, "trial_type": "single-stim", "word": "rod", "stimulus": "<p id=\"stim\">ROD</p>", "conditions": [24, 800, "v", 12000], "internal_node_id": "0.0-125.0", "trial": 4, "time_elapsed": 962134, "serialpos": 13, "key_press": -1, "wordID": 1202, "type": "PRES_VIS", "trial_index": 170}, "uniqueid": "MTK3308:3MH9DQ757XJH7U8DL72R6UVSXWJUGW", "dateTime": 1520356149517}, {"current_trial": 171, "trialdata": {"rt": -1, "trial_type": "single-stim", "word": "police", "stimulus": "<p id=\"stim\">POLICE</p>", "conditions": [24, 800, "v", 12000], "internal_node_id": "0.0-126.0", "trial": 4, "time_elapsed": 963736, "serialpos": 14, "key_press": -1, "wordID": 1097, "type": "PRES_VIS", "trial_index": 171}, "uniqueid": "MTK3308:3MH9DQ757XJH7U8DL72R6UVSXWJUGW", "dateTime": 1520356151119}, {"current_trial": 172, "trialdata": {"rt": -1, "trial_type": "single-stim", "word": "robber", "stimulus": "<p id=\"stim\">ROBBER</p>", "conditions": [24, 800, "v", 12000], "internal_node_id": "0.0-127.0", "trial": 4, "time_elapsed": 965501, "serialpos": 15, "key_press": -1, "wordID": 1196, "type": "PRES_VIS", "trial_index": 172}, "uniqueid": "MTK3308:3MH9DQ757XJH7U8DL72R6UVSXWJUGW", "dateTime": 1520356152885}, {"current_trial": 173, "trialdata": {"rt": -1, "trial_type": "single-stim", "word": "thief", "stimulus": "<p id=\"stim\">THIEF</p>", "conditions": [24, 800, "v", 12000], "internal_node_id": "0.0-128.0", "trial": 4, "time_elapsed": 967456, "serialpos": 16, "key_press": -1, "wordID": 1455, "type": "PRES_VIS", "trial_index": 173}, "uniqueid": "MTK3308:3MH9DQ757XJH7U8DL72R6UVSXWJUGW", "dateTime": 1520356154840}, {"current_trial": 174, "trialdata": {"rt": -1, "trial_type": "single-stim", "word": "soda", "stimulus": "<p id=\"stim\">SODA</p>", "conditions": [24, 800, "v", 12000], "internal_node_id": "0.0-129.0", "trial": 4, "time_elapsed": 969434, "serialpos": 17, "key_press": -1, "wordID": 1340, "type": "PRES_VIS", "trial_index": 174}, "uniqueid": "MTK3308:3MH9DQ757XJH7U8DL72R6UVSXWJUGW", "dateTime": 1520356156818}, {"current_trial": 175, "trialdata": {"rt": -1, "trial_type": "single-stim", "word": "coin", "stimulus": "<p id=\"stim\">COIN</p>", "conditions": [24, 800, "v", 12000], "internal_node_id": "0.0-130.0", "trial": 4, "time_elapsed": 971149, "serialpos": 18, "key_press": -1, "wordID": 342, "type": "PRES_VIS", "trial_index": 175}, "uniqueid": "MTK3308:3MH9DQ757XJH7U8DL72R6UVSXWJUGW", "dateTime": 1520356158533}, {"current_trial": 176, "trialdata": {"rt": -1, "trial_type": "single-stim", "word": "spool", "stimulus": "<p id=\"stim\">SPOOL</p>", "conditions": [24, 800, "v", 12000], "internal_node_id": "0.0-131.0", "trial": 4, "time_elapsed": 973087, "serialpos": 19, "key_press": -1, "wordID": 1355, "type": "PRES_VIS", "trial_index": 176}, "uniqueid": "MTK3308:3MH9DQ757XJH7U8DL72R6UVSXWJUGW", "dateTime": 1520356160471}, {"current_trial": 177, "trialdata": {"rt": -1, "trial_type": "single-stim", "word": "grill", "stimulus": "<p id=\"stim\">GRILL</p>", "conditions": [24, 800, "v", 12000], "internal_node_id": "0.0-132.0", "trial": 4, "time_elapsed": 975075, "serialpos": 20, "key_press": -1, "wordID": 660, "type": "PRES_VIS", "trial_index": 177}, "uniqueid": "MTK3308:3MH9DQ757XJH7U8DL72R6UVSXWJUGW", "dateTime": 1520356162459}, {"current_trial": 178, "trialdata": {"rt": -1, "trial_type": "single-stim", "word": "paddle", "stimulus": "<p id=\"stim\">PADDLE</p>", "conditions": [24, 800, "v", 12000], "internal_node_id": "0.0-133.0", "trial": 4, "time_elapsed": 977035, "serialpos": 21, "key_press": -1, "wordID": 999, "type": "PRES_VIS", "trial_index": 178}, "uniqueid": "MTK3308:3MH9DQ757XJH7U8DL72R6UVSXWJUGW", "dateTime": 1520356164419}, {"current_trial": 179, "trialdata": {"rt": -1, "trial_type": "single-stim", "word": "dust", "stimulus": "<p id=\"stim\">DUST</p>", "conditions": [24, 800, "v", 12000], "internal_node_id": "0.0-134.0", "trial": 4, "time_elapsed": 978981, "serialpos": 22, "key_press": -1, "wordID": 507, "type": "PRES_VIS", "trial_index": 179}, "uniqueid": "MTK3308:3MH9DQ757XJH7U8DL72R6UVSXWJUGW", "dateTime": 1520356166364}, {"current_trial": 180, "trialdata": {"rt": -1, "trial_type": "single-stim", "word": "rooster", "stimulus": "<p id=\"stim\">ROOSTER</p>", "conditions": [24, 800, "v", 12000], "internal_node_id": "0.0-135.0", "trial": 4, "time_elapsed": 980881, "serialpos": 23, "key_press": -1, "wordID": 1208, "type": "PRES_VIS", "trial_index": 180}, "uniqueid": "MTK3308:3MH9DQ757XJH7U8DL72R6UVSXWJUGW", "dateTime": 1520356168265}, {"current_trial": 181, "trialdata": {"rt": -1, "trial_type": "single-stim", "stimulus": "", "internal_node_id": "0.0-136.0-0.0", "time_elapsed": 983228, "key_press": -1, "type": "PRE_RECALL_DELAY", "trial_index": 181}, "uniqueid": "MTK3308:3MH9DQ757XJH7U8DL72R6UVSXWJUGW", "dateTime": 1520356170612}, {"current_trial": 182, "trialdata": {"rt": -1000, "trial_type": "single-audio", "stimulus": "/static/audio/400Hz.wav", "internal_node_id": "0.0-137.0", "time_elapsed": 983730, "key_press": -1, "type": "PRE_RECALL_ALERT", "trial_index": 182}, "uniqueid": "MTK3308:3MH9DQ757XJH7U8DL72R6UVSXWJUGW", "dateTime": 1520356171113}, {"current_trial": 183, "trialdata": {"rt": [2874, 7954, 10466, 13347, 15859, 23218, 26170, 30538, 33627], "recwords": ["rooster", "paddle", "police", "thief", "robber", "hostess", "mister", "church", "brother"], "key_times": [1029, 1251, 1394, 1547, 1746, 1891, 1971, 2874, 4274, 4410, 4682, 4834, 5283, 5286, 5442, 6242, 6403, 6571, 7546, 7682, 7954, 8730, 8930, 9114, 9339, 9690, 9810, 10466, 11283, 11338, 11786, 11986, 12138, 13347, 13933, 14139, 14515, 14659, 14779, 14908, 15859, 20546, 20754, 20923, 21106, 21389, 21746, 21922, 23218, 23610, 23834, 24002, 24138, 24330, 24418, 26170, 26594, 26898, 27218, 27395, 27762, 27914, 30538, 31211, 31484, 32099, 32275, 32412, 32635, 32779, 33627], "trial_type": "free-recall", "conditions": [24, 800, "v", 12000], "internal_node_id": "0.0-138.0-0.0", "key_presses": [82, 79, 79, 83, 84, 69, 82, 13, 80, 65, 68, 68, 75, 76, 69, 8, 8, 8, 76, 69, 13, 80, 79, 76, 73, 67, 69, 13, 84, 72, 73, 69, 70, 13, 82, 79, 66, 66, 69, 82, 13, 72, 79, 83, 84, 69, 83, 83, 13, 77, 73, 83, 84, 69, 82, 13, 67, 72, 85, 82, 67, 72, 13, 66, 82, 79, 84, 72, 69, 82, 13], "trial": 4, "time_elapsed": 1043733, "type": "FREE_RECALL", "trial_index": 183}, "uniqueid": "MTK3308:3MH9DQ757XJH7U8DL72R6UVSXWJUGW", "dateTime": 1520356231121}, {"current_trial": 184, "trialdata": {"rt": 35462, "trial_type": "text", "internal_node_id": "0.0-139.0", "time_elapsed": 1081200, "key_press": 32, "type": "INSTRUCTIONS", "trial_index": 184}, "uniqueid": "MTK3308:3MH9DQ757XJH7U8DL72R6UVSXWJUGW", "dateTime": 1520356268584}, {"current_trial": 185, "trialdata": {"rt": [2283, 5123, 7386, 11250], "trial_type": "math-distractor", "key_times": [1451, 1595, 2283, 4440, 4635, 5123, 6778, 6907, 7386, 10700, 10787, 11250], "responses": ["18", "23", "14", "23"], "num2": [6, 9, 6, 8, 7], "num3": [4, 8, 6, 8, 2], "conditions": [12, 800, "v", 12000], "internal_node_id": "0.0-140.0", "key_presses": [49, 56, 13, 50, 51, 13, 49, 52, 13, 50, 51, 13], "trial": 5, "time_elapsed": 1095204, "type": "DISTRACTOR", "trial_index": 185, "num1": [8, 6, 2, 7, 7]}, "uniqueid": "MTK3308:3MH9DQ757XJH7U8DL72R6UVSXWJUGW", "dateTime": 1520356282587}, {"current_trial": 186, "trialdata": {"rt": -1, "trial_type": "single-stim", "stimulus": "<p id=\"stim\">10</p>", "internal_node_id": "0.0-141.0-0.0", "time_elapsed": 1098205, "key_press": -1, "trial_index": 186}, "uniqueid": "MTK3308:3MH9DQ757XJH7U8DL72R6UVSXWJUGW", "dateTime": 1520356285588}, {"current_trial": 187, "trialdata": {"rt": -1, "trial_type": "single-stim", "stimulus": "<p id=\"stim\">9</p>", "internal_node_id": "0.0-141.0-1.0", "time_elapsed": 1099206, "key_press": -1, "trial_index": 187}, "uniqueid": "MTK3308:3MH9DQ757XJH7U8DL72R6UVSXWJUGW", "dateTime": 1520356286589}, {"current_trial": 188, "trialdata": {"rt": -1, "trial_type": "single-stim", "stimulus": "<p id=\"stim\">8</p>", "internal_node_id": "0.0-141.0-2.0", "time_elapsed": 1100207, "key_press": -1, "trial_index": 188}, "uniqueid": "MTK3308:3MH9DQ757XJH7U8DL72R6UVSXWJUGW", "dateTime": 1520356287590}, {"current_trial": 189, "trialdata": {"rt": -1, "trial_type": "single-stim", "stimulus": "<p id=\"stim\">7</p>", "internal_node_id": "0.0-141.0-3.0", "time_elapsed": 1101209, "key_press": -1, "trial_index": 189}, "uniqueid": "MTK3308:3MH9DQ757XJH7U8DL72R6UVSXWJUGW", "dateTime": 1520356288592}, {"current_trial": 190, "trialdata": {"rt": -1, "trial_type": "single-stim", "stimulus": "<p id=\"stim\">6</p>", "internal_node_id": "0.0-141.0-4.0", "time_elapsed": 1102209, "key_press": -1, "trial_index": 190}, "uniqueid": "MTK3308:3MH9DQ757XJH7U8DL72R6UVSXWJUGW", "dateTime": 1520356289592}, {"current_trial": 191, "trialdata": {"rt": -1, "trial_type": "single-stim", "stimulus": "<p id=\"stim\">5</p>", "internal_node_id": "0.0-141.0-5.0", "time_elapsed": 1103210, "key_press": -1, "trial_index": 191}, "uniqueid": "MTK3308:3MH9DQ757XJH7U8DL72R6UVSXWJUGW", "dateTime": 1520356290593}, {"current_trial": 192, "trialdata": {"rt": -1, "trial_type": "single-stim", "stimulus": "<p id=\"stim\">4</p>", "internal_node_id": "0.0-141.0-6.0", "time_elapsed": 1104211, "key_press": -1, "trial_index": 192}, "uniqueid": "MTK3308:3MH9DQ757XJH7U8DL72R6UVSXWJUGW", "dateTime": 1520356291594}, {"current_trial": 193, "trialdata": {"rt": -1, "trial_type": "single-stim", "stimulus": "<p id=\"stim\">3</p>", "internal_node_id": "0.0-141.0-7.0", "time_elapsed": 1105212, "key_press": -1, "trial_index": 193}, "uniqueid": "MTK3308:3MH9DQ757XJH7U8DL72R6UVSXWJUGW", "dateTime": 1520356292595}, {"current_trial": 194, "trialdata": {"rt": -1, "trial_type": "single-stim", "stimulus": "<p id=\"stim\">2</p>", "internal_node_id": "0.0-141.0-8.0", "time_elapsed": 1106212, "key_press": -1, "trial_index": 194}, "uniqueid": "MTK3308:3MH9DQ757XJH7U8DL72R6UVSXWJUGW", "dateTime": 1520356293596}, {"current_trial": 195, "trialdata": {"rt": -1, "trial_type": "single-stim", "stimulus": "<p id=\"stim\">1</p>", "internal_node_id": "0.0-141.0-9.0", "time_elapsed": 1107213, "key_press": -1, "trial_index": 195}, "uniqueid": "MTK3308:3MH9DQ757XJH7U8DL72R6UVSXWJUGW", "dateTime": 1520356294597}, {"current_trial": 196, "trialdata": {"rt": -1, "trial_type": "single-stim", "stimulus": "<p id=\"stim\">+</p>", "internal_node_id": "0.0-142.0-0.0", "time_elapsed": 1108714, "key_press": -1, "type": "FIXATION", "trial_index": 196}, "uniqueid": "MTK3308:3MH9DQ757XJH7U8DL72R6UVSXWJUGW", "dateTime": 1520356296099}, {"current_trial": 197, "trialdata": {"rt": -1, "trial_type": "single-stim", "word": "tractor", "stimulus": "<p id=\"stim\">TRACTOR</p>", "conditions": [12, 800, "v", 12000], "internal_node_id": "0.0-143.0", "trial": 5, "time_elapsed": 1109515, "serialpos": 0, "key_press": -1, "wordID": 1492, "type": "PRES_VIS", "trial_index": 197}, "uniqueid": "MTK3308:3MH9DQ757XJH7U8DL72R6UVSXWJUGW", "dateTime": 1520356296899}, {"current_trial": 198, "trialdata": {"rt": -1, "trial_type": "single-stim", "word": "author", "stimulus": "<p id=\"stim\">AUTHOR</p>", "conditions": [12, 800, "v", 12000], "internal_node_id": "0.0-144.0", "trial": 5, "time_elapsed": 1111348, "serialpos": 1, "key_press": -1, "wordID": 60, "type": "PRES_VIS", "trial_index": 198}, "uniqueid": "MTK3308:3MH9DQ757XJH7U8DL72R6UVSXWJUGW", "dateTime": 1520356298732}, {"current_trial": 199, "trialdata": {"rt": -1, "trial_type": "single-stim", "word": "headband", "stimulus": "<p id=\"stim\">HEADBAND</p>", "conditions": [12, 800, "v", 12000], "internal_node_id": "0.0-145.0", "trial": 5, "time_elapsed": 1113060, "serialpos": 2, "key_press": -1, "wordID": 695, "type": "PRES_VIS", "trial_index": 199}, "uniqueid": "MTK3308:3MH9DQ757XJH7U8DL72R6UVSXWJUGW", "dateTime": 1520356300444}, {"current_trial": 200, "trialdata": {"rt": -1, "trial_type": "single-stim", "word": "jungle", "stimulus": "<p id=\"stim\">JUNGLE</p>", "conditions": [12, 800, "v", 12000], "internal_node_id": "0.0-146.0", "trial": 5, "time_elapsed": 1115014, "serialpos": 3, "key_press": -1, "wordID": 763, "type": "PRES_VIS", "trial_index": 200}, "uniqueid": "MTK3308:3MH9DQ757XJH7U8DL72R6UVSXWJUGW", "dateTime": 1520356302398}, {"current_trial": 201, "trialdata": {"rt": -1, "trial_type": "single-stim", "word": "cattle", "stimulus": "<p id=\"stim\">CATTLE</p>", "conditions": [12, 800, "v", 12000], "internal_node_id": "0.0-147.0", "trial": 5, "time_elapsed": 1116637, "serialpos": 4, "key_press": -1, "wordID": 260, "type": "PRES_VIS", "trial_index": 201}, "uniqueid": "MTK3308:3MH9DQ757XJH7U8DL72R6UVSXWJUGW", "dateTime": 1520356304021}, {"current_trial": 202, "trialdata": {"rt": -1, "trial_type": "single-stim", "word": "bison", "stimulus": "<p id=\"stim\">BISON</p>", "conditions": [12, 800, "v", 12000], "internal_node_id": "0.0-148.0", "trial": 5, "time_elapsed": 1118602, "serialpos": 5, "key_press": -1, "wordID": 130, "type": "PRES_VIS", "trial_index": 202}, "uniqueid": "MTK3308:3MH9DQ757XJH7U8DL72R6UVSXWJUGW", "dateTime": 1520356305986}, {"current_trial": 203, "trialdata": {"rt": -1, "trial_type": "single-stim", "word": "finger", "stimulus": "<p id=\"stim\">FINGER</p>", "conditions": [12, 800, "v", 12000], "internal_node_id": "0.0-149.0", "trial": 5, "time_elapsed": 1120268, "serialpos": 6, "key_press": -1, "wordID": 566, "type": "PRES_VIS", "trial_index": 203}, "uniqueid": "MTK3308:3MH9DQ757XJH7U8DL72R6UVSXWJUGW", "dateTime": 1520356307651}, {"current_trial": 204, "trialdata": {"rt": -1, "trial_type": "single-stim", "word": "item", "stimulus": "<p id=\"stim\">ITEM</p>", "conditions": [12, 800, "v", 12000], "internal_node_id": "0.0-150.0", "trial": 5, "time_elapsed": 1122089, "serialpos": 7, "key_press": -1, "wordID": 745, "type": "PRES_VIS", "trial_index": 204}, "uniqueid": "MTK3308:3MH9DQ757XJH7U8DL72R6UVSXWJUGW", "dateTime": 1520356309472}, {"current_trial": 205, "trialdata": {"rt": -1, "trial_type": "single-stim", "word": "cupboard", "stimulus": "<p id=\"stim\">CUPBOARD</p>", "conditions": [12, 800, "v", 12000], "internal_node_id": "0.0-151.0", "trial": 5, "time_elapsed": 1123715, "serialpos": 8, "key_press": -1, "wordID": 424, "type": "PRES_VIS", "trial_index": 205}, "uniqueid": "MTK3308:3MH9DQ757XJH7U8DL72R6UVSXWJUGW", "dateTime": 1520356311098}, {"current_trial": 206, "trialdata": {"rt": -1, "trial_type": "single-stim", "word": "apron", "stimulus": "<p id=\"stim\">APRON</p>", "conditions": [12, 800, "v", 12000], "internal_node_id": "0.0-152.0", "trial": 5, "time_elapsed": 1125353, "serialpos": 9, "key_press": -1, "wordID": 34, "type": "PRES_VIS", "trial_index": 206}, "uniqueid": "MTK3308:3MH9DQ757XJH7U8DL72R6UVSXWJUGW", "dateTime": 1520356312737}, {"current_trial": 207, "trialdata": {"rt": -1, "trial_type": "single-stim", "word": "wagon", "stimulus": "<p id=\"stim\">WAGON</p>", "conditions": [12, 800, "v", 12000], "internal_node_id": "0.0-153.0", "trial": 5, "time_elapsed": 1126971, "serialpos": 10, "key_press": -1, "wordID": 1577, "type": "PRES_VIS", "trial_index": 207}, "uniqueid": "MTK3308:3MH9DQ757XJH7U8DL72R6UVSXWJUGW", "dateTime": 1520356314355}, {"current_trial": 208, "trialdata": {"rt": -1, "trial_type": "single-stim", "word": "breast", "stimulus": "<p id=\"stim\">BREAST</p>", "conditions": [12, 800, "v", 12000], "internal_node_id": "0.0-154.0", "trial": 5, "time_elapsed": 1128742, "serialpos": 11, "key_press": -1, "wordID": 170, "type": "PRES_VIS", "trial_index": 208}, "uniqueid": "MTK3308:3MH9DQ757XJH7U8DL72R6UVSXWJUGW", "dateTime": 1520356316125}, {"current_trial": 209, "trialdata": {"rt": -1, "trial_type": "single-stim", "stimulus": "", "internal_node_id": "0.0-155.0-0.0", "time_elapsed": 1131010, "key_press": -1, "type": "PRE_RECALL_DELAY", "trial_index": 209}, "uniqueid": "MTK3308:3MH9DQ757XJH7U8DL72R6UVSXWJUGW", "dateTime": 1520356318394}, {"current_trial": 210, "trialdata": {"rt": -1000, "trial_type": "single-audio", "stimulus": "/static/audio/400Hz.wav", "internal_node_id": "0.0-156.0", "time_elapsed": 1131510, "key_press": -1, "type": "PRE_RECALL_ALERT", "trial_index": 210}, "uniqueid": "MTK3308:3MH9DQ757XJH7U8DL72R6UVSXWJUGW", "dateTime": 1520356318894}, {"current_trial": 211, "trialdata": {"rt": [3166, 5599, 8286, 11702, 15405, 25238], "recwords": ["tractor", "wagon", "breast", "author", "forest", "cupboard"], "key_times": [1455, 1638, 1781, 1974, 2167, 2704, 2838, 3166, 4102, 4382, 4582, 4922, 5103, 5599, 6390, 6662, 6806, 7134, 7405, 7509, 8286, 9605, 9789, 10045, 10118, 10701, 10789, 11702, 12605, 12781, 13078, 13293, 13541, 13677, 15405, 22199, 22342, 22590, 22982, 23278, 23734, 23846, 23934, 25238], "trial_type": "free-recall", "conditions": [12, 800, "v", 12000], "internal_node_id": "0.0-157.0-0.0", "key_presses": [84, 82, 65, 67, 84, 79, 82, 13, 87, 65, 71, 79, 78, 13, 66, 82, 69, 65, 83, 84, 13, 65, 85, 84, 72, 79, 82, 13, 70, 79, 82, 69, 83, 84, 13, 67, 85, 80, 66, 79, 65, 82, 68, 13], "trial": 5, "time_elapsed": 1191514, "type": "FREE_RECALL", "trial_index": 211}, "uniqueid": "MTK3308:3MH9DQ757XJH7U8DL72R6UVSXWJUGW", "dateTime": 1520356378902}, {"current_trial": 212, "trialdata": {"rt": 4257, "trial_type": "text", "internal_node_id": "0.0-158.0", "time_elapsed": 1197777, "key_press": 32, "type": "INSTRUCTIONS", "trial_index": 212}, "uniqueid": "MTK3308:3MH9DQ757XJH7U8DL72R6UVSXWJUGW", "dateTime": 1520356385161}, {"current_trial": 213, "trialdata": {"rt": [2714, 4843, 7381, 11010, 13666, 16234, 18722, 21788], "trial_type": "math-distractor", "key_times": [2155, 2346, 2714, 4251, 4459, 4843, 6595, 6843, 7381, 10237, 10515, 11010, 12818, 13274, 13666, 15466, 15835, 16234, 17674, 17810, 18722, 20844, 21051, 21788, 23667, 23963], "responses": ["20", "18", "16", "25", "18", "17", "12", "24"], "num2": [9, 3, 9, 7, 6, 4, 9, 5, 6], "num3": [6, 7, 5, 9, 3, 8, 2, 6, 7], "conditions": [24, 1600, "v", 24000], "internal_node_id": "0.0-159.0", "key_presses": [50, 48, 13, 49, 56, 13, 49, 54, 13, 50, 53, 13, 49, 56, 13, 49, 55, 13, 49, 50, 13, 50, 52, 13, 49, 53], "trial": 6, "time_elapsed": 1223782, "type": "DISTRACTOR", "trial_index": 213, "num1": [5, 8, 2, 9, 9, 5, 1, 9, 2]}, "uniqueid": "MTK3308:3MH9DQ757XJH7U8DL72R6UVSXWJUGW", "dateTime": 1520356411165}, {"current_trial": 214, "trialdata": {"rt": -1, "trial_type": "single-stim", "stimulus": "<p id=\"stim\">10</p>", "internal_node_id": "0.0-160.0-0.0", "time_elapsed": 1226781, "key_press": -1, "trial_index": 214}, "uniqueid": "MTK3308:3MH9DQ757XJH7U8DL72R6UVSXWJUGW", "dateTime": 1520356414165}, {"current_trial": 215, "trialdata": {"rt": -1, "trial_type": "single-stim", "stimulus": "<p id=\"stim\">9</p>", "internal_node_id": "0.0-160.0-1.0", "time_elapsed": 1227783, "key_press": -1, "trial_index": 215}, "uniqueid": "MTK3308:3MH9DQ757XJH7U8DL72R6UVSXWJUGW", "dateTime": 1520356415166}, {"current_trial": 216, "trialdata": {"rt": -1, "trial_type": "single-stim", "stimulus": "<p id=\"stim\">8</p>", "internal_node_id": "0.0-160.0-2.0", "time_elapsed": 1228783, "key_press": -1, "trial_index": 216}, "uniqueid": "MTK3308:3MH9DQ757XJH7U8DL72R6UVSXWJUGW", "dateTime": 1520356416168}, {"current_trial": 217, "trialdata": {"rt": -1, "trial_type": "single-stim", "stimulus": "<p id=\"stim\">7</p>", "internal_node_id": "0.0-160.0-3.0", "time_elapsed": 1229786, "key_press": -1, "trial_index": 217}, "uniqueid": "MTK3308:3MH9DQ757XJH7U8DL72R6UVSXWJUGW", "dateTime": 1520356417169}, {"current_trial": 218, "trialdata": {"rt": -1, "trial_type": "single-stim", "stimulus": "<p id=\"stim\">6</p>", "internal_node_id": "0.0-160.0-4.0", "time_elapsed": 1230786, "key_press": -1, "trial_index": 218}, "uniqueid": "MTK3308:3MH9DQ757XJH7U8DL72R6UVSXWJUGW", "dateTime": 1520356418169}, {"current_trial": 219, "trialdata": {"rt": -1, "trial_type": "single-stim", "stimulus": "<p id=\"stim\">5</p>", "internal_node_id": "0.0-160.0-5.0", "time_elapsed": 1231787, "key_press": -1, "trial_index": 219}, "uniqueid": "MTK3308:3MH9DQ757XJH7U8DL72R6UVSXWJUGW", "dateTime": 1520356419170}, {"current_trial": 220, "trialdata": {"rt": -1, "trial_type": "single-stim", "stimulus": "<p id=\"stim\">4</p>", "internal_node_id": "0.0-160.0-6.0", "time_elapsed": 1232787, "key_press": -1, "trial_index": 220}, "uniqueid": "MTK3308:3MH9DQ757XJH7U8DL72R6UVSXWJUGW", "dateTime": 1520356420171}, {"current_trial": 221, "trialdata": {"rt": -1, "trial_type": "single-stim", "stimulus": "<p id=\"stim\">3</p>", "internal_node_id": "0.0-160.0-7.0", "time_elapsed": 1233790, "key_press": -1, "trial_index": 221}, "uniqueid": "MTK3308:3MH9DQ757XJH7U8DL72R6UVSXWJUGW", "dateTime": 1520356421173}, {"current_trial": 222, "trialdata": {"rt": -1, "trial_type": "single-stim", "stimulus": "<p id=\"stim\">2</p>", "internal_node_id": "0.0-160.0-8.0", "time_elapsed": 1234789, "key_press": -1, "trial_index": 222}, "uniqueid": "MTK3308:3MH9DQ757XJH7U8DL72R6UVSXWJUGW", "dateTime": 1520356422174}, {"current_trial": 223, "trialdata": {"rt": -1, "trial_type": "single-stim", "stimulus": "<p id=\"stim\">1</p>", "internal_node_id": "0.0-160.0-9.0", "time_elapsed": 1235790, "key_press": -1, "trial_index": 223}, "uniqueid": "MTK3308:3MH9DQ757XJH7U8DL72R6UVSXWJUGW", "dateTime": 1520356423174}, {"current_trial": 224, "trialdata": {"rt": -1, "trial_type": "single-stim", "stimulus": "<p id=\"stim\">+</p>", "internal_node_id": "0.0-161.0-0.0", "time_elapsed": 1237291, "key_press": -1, "type": "FIXATION", "trial_index": 224}, "uniqueid": "MTK3308:3MH9DQ757XJH7U8DL72R6UVSXWJUGW", "dateTime": 1520356424675}, {"current_trial": 225, "trialdata": {"rt": -1, "trial_type": "single-stim", "word": "flask", "stimulus": "<p id=\"stim\">FLASK</p>", "conditions": [24, 1600, "v", 24000], "internal_node_id": "0.0-162.0", "trial": 6, "time_elapsed": 1238892, "serialpos": 0, "key_press": -1, "wordID": 575, "type": "PRES_VIS", "trial_index": 225}, "uniqueid": "MTK3308:3MH9DQ757XJH7U8DL72R6UVSXWJUGW", "dateTime": 1520356426276}, {"current_trial": 226, "trialdata": {"rt": -1, "trial_type": "single-stim", "word": "beaker", "stimulus": "<p id=\"stim\">BEAKER</p>", "conditions": [24, 1600, "v", 24000], "internal_node_id": "0.0-163.0", "trial": 6, "time_elapsed": 1241572, "serialpos": 1, "key_press": -1, "wordID": 103, "type": "PRES_VIS", "trial_index": 226}, "uniqueid": "MTK3308:3MH9DQ757XJH7U8DL72R6UVSXWJUGW", "dateTime": 1520356428956}, {"current_trial": 227, "trialdata": {"rt": -1, "trial_type": "single-stim", "word": "cabbage", "stimulus": "<p id=\"stim\">CABBAGE</p>", "conditions": [24, 1600, "v", 24000], "internal_node_id": "0.0-164.0", "trial": 6, "time_elapsed": 1244362, "serialpos": 2, "key_press": -1, "wordID": 209, "type": "PRES_VIS", "trial_index": 227}, "uniqueid": "MTK3308:3MH9DQ757XJH7U8DL72R6UVSXWJUGW", "dateTime": 1520356431747}, {"current_trial": 228, "trialdata": {"rt": -1, "trial_type": "single-stim", "word": "hiker", "stimulus": "<p id=\"stim\">HIKER</p>", "conditions": [24, 1600, "v", 24000], "internal_node_id": "0.0-165.0", "trial": 6, "time_elapsed": 1246939, "serialpos": 3, "key_press": -1, "wordID": 707, "type": "PRES_VIS", "trial_index": 228}, "uniqueid": "MTK3308:3MH9DQ757XJH7U8DL72R6UVSXWJUGW", "dateTime": 1520356434323}, {"current_trial": 229, "trialdata": {"rt": -1, "trial_type": "single-stim", "word": "shelf", "stimulus": "<p id=\"stim\">SHELF</p>", "conditions": [24, 1600, "v", 24000], "internal_node_id": "0.0-166.0", "trial": 6, "time_elapsed": 1249569, "serialpos": 4, "key_press": -1, "wordID": 1279, "type": "PRES_VIS", "trial_index": 229}, "uniqueid": "MTK3308:3MH9DQ757XJH7U8DL72R6UVSXWJUGW", "dateTime": 1520356436952}, {"current_trial": 230, "trialdata": {"rt": -1, "trial_type": "single-stim", "word": "dresser", "stimulus": "<p id=\"stim\">DRESSER</p>", "conditions": [24, 1600, "v", 24000], "internal_node_id": "0.0-167.0", "trial": 6, "time_elapsed": 1252018, "serialpos": 5, "key_press": -1, "wordID": 495, "type": "PRES_VIS", "trial_index": 230}, "uniqueid": "MTK3308:3MH9DQ757XJH7U8DL72R6UVSXWJUGW", "dateTime": 1520356439401}, {"current_trial": 231, "trialdata": {"rt": -1, "trial_type": "single-stim", "word": "sculpture", "stimulus": "<p id=\"stim\">SCULPTURE</p>", "conditions": [24, 1600, "v", 24000], "internal_node_id": "0.0-168.0", "trial": 6, "time_elapsed": 1254699, "serialpos": 6, "key_press": -1, "wordID": 1257, "type": "PRES_VIS", "trial_index": 231}, "uniqueid": "MTK3308:3MH9DQ757XJH7U8DL72R6UVSXWJUGW", "dateTime": 1520356442083}, {"current_trial": 232, "trialdata": {"rt": -1, "trial_type": "single-stim", "word": "climber", "stimulus": "<p id=\"stim\">CLIMBER</p>", "conditions": [24, 1600, "v", 24000], "internal_node_id": "0.0-169.0", "trial": 6, "time_elapsed": 1257262, "serialpos": 7, "key_press": -1, "wordID": 322, "type": "PRES_VIS", "trial_index": 232}, "uniqueid": "MTK3308:3MH9DQ757XJH7U8DL72R6UVSXWJUGW", "dateTime": 1520356444645}, {"current_trial": 233, "trialdata": {"rt": -1, "trial_type": "single-stim", "word": "brick", "stimulus": "<p id=\"stim\">BRICK</p>", "conditions": [24, 1600, "v", 24000], "internal_node_id": "0.0-170.0", "trial": 6, "time_elapsed": 1260024, "serialpos": 8, "key_press": -1, "wordID": 171, "type": "PRES_VIS", "trial_index": 233}, "uniqueid": "MTK3308:3MH9DQ757XJH7U8DL72R6UVSXWJUGW", "dateTime": 1520356447407}, {"current_trial": 234, "trialdata": {"rt": -1, "trial_type": "single-stim", "word": "rug", "stimulus": "<p id=\"stim\">RUG</p>", "conditions": [24, 1600, "v", 24000], "internal_node_id": "0.0-171.0", "trial": 6, "time_elapsed": 1262763, "serialpos": 9, "key_press": -1, "wordID": 1214, "type": "PRES_VIS", "trial_index": 234}, "uniqueid": "MTK3308:3MH9DQ757XJH7U8DL72R6UVSXWJUGW", "dateTime": 1520356450147}, {"current_trial": 235, "trialdata": {"rt": -1, "trial_type": "single-stim", "word": "oyster", "stimulus": "<p id=\"stim\">OYSTER</p>", "conditions": [24, 1600, "v", 24000], "internal_node_id": "0.0-172.0", "trial": 6, "time_elapsed": 1265455, "serialpos": 10, "key_press": -1, "wordID": 994, "type": "PRES_VIS", "trial_index": 235}, "uniqueid": "MTK3308:3MH9DQ757XJH7U8DL72R6UVSXWJUGW", "dateTime": 1520356452838}, {"current_trial": 236, "trialdata": {"rt": -1, "trial_type": "single-stim", "word": "crater", "stimulus": "<p id=\"stim\">CRATER</p>", "conditions": [24, 1600, "v", 24000], "internal_node_id": "0.0-173.0", "trial": 6, "time_elapsed": 1268231, "serialpos": 11, "key_press": -1, "wordID": 399, "type": "PRES_VIS", "trial_index": 236}, "uniqueid": "MTK3308:3MH9DQ757XJH7U8DL72R6UVSXWJUGW", "dateTime": 1520356455614}, {"current_trial": 237, "trialdata": {"rt": -1, "trial_type": "single-stim", "word": "marsh", "stimulus": "<p id=\"stim\">MARSH</p>", "conditions": [24, 1600, "v", 24000], "internal_node_id": "0.0-174.0", "trial": 6, "time_elapsed": 1271020, "serialpos": 12, "key_press": -1, "wordID": 873, "type": "PRES_VIS", "trial_index": 237}, "uniqueid": "MTK3308:3MH9DQ757XJH7U8DL72R6UVSXWJUGW", "dateTime": 1520356458403}, {"current_trial": 238, "trialdata": {"rt": -1, "trial_type": "single-stim", "word": "sandwich", "stimulus": "<p id=\"stim\">SANDWICH</p>", "conditions": [24, 1600, "v", 24000], "internal_node_id": "0.0-175.0", "trial": 6, "time_elapsed": 1273658, "serialpos": 13, "key_press": -1, "wordID": 1231, "type": "PRES_VIS", "trial_index": 238}, "uniqueid": "MTK3308:3MH9DQ757XJH7U8DL72R6UVSXWJUGW", "dateTime": 1520356461041}, {"current_trial": 239, "trialdata": {"rt": -1, "trial_type": "single-stim", "word": "softball", "stimulus": "<p id=\"stim\">SOFTBALL</p>", "conditions": [24, 1600, "v", 24000], "internal_node_id": "0.0-176.0", "trial": 6, "time_elapsed": 1276228, "serialpos": 14, "key_press": -1, "wordID": 1342, "type": "PRES_VIS", "trial_index": 239}, "uniqueid": "MTK3308:3MH9DQ757XJH7U8DL72R6UVSXWJUGW", "dateTime": 1520356463612}, {"current_trial": 240, "trialdata": {"rt": -1, "trial_type": "single-stim", "word": "tuba", "stimulus": "<p id=\"stim\">TUBA</p>", "conditions": [24, 1600, "v", 24000], "internal_node_id": "0.0-177.0", "trial": 6, "time_elapsed": 1278699, "serialpos": 15, "key_press": -1, "wordID": 1514, "type": "PRES_VIS", "trial_index": 240}, "uniqueid": "MTK3308:3MH9DQ757XJH7U8DL72R6UVSXWJUGW", "dateTime": 1520356466082}, {"current_trial": 241, "trialdata": {"rt": -1, "trial_type": "single-stim", "word": "sunrise", "stimulus": "<p id=\"stim\">SUNRISE</p>", "conditions": [24, 1600, "v", 24000], "internal_node_id": "0.0-178.0", "trial": 6, "time_elapsed": 1281140, "serialpos": 16, "key_press": -1, "wordID": 1406, "type": "PRES_VIS", "trial_index": 241}, "uniqueid": "MTK3308:3MH9DQ757XJH7U8DL72R6UVSXWJUGW", "dateTime": 1520356468525}, {"current_trial": 242, "trialdata": {"rt": -1, "trial_type": "single-stim", "word": "sunset", "stimulus": "<p id=\"stim\">SUNSET</p>", "conditions": [24, 1600, "v", 24000], "internal_node_id": "0.0-179.0", "trial": 6, "time_elapsed": 1283822, "serialpos": 17, "key_press": -1, "wordID": 1407, "type": "PRES_VIS", "trial_index": 242}, "uniqueid": "MTK3308:3MH9DQ757XJH7U8DL72R6UVSXWJUGW", "dateTime": 1520356471205}, {"current_trial": 243, "trialdata": {"rt": -1, "trial_type": "single-stim", "word": "dress", "stimulus": "<p id=\"stim\">DRESS</p>", "conditions": [24, 1600, "v", 24000], "internal_node_id": "0.0-180.0", "trial": 6, "time_elapsed": 1286452, "serialpos": 18, "key_press": -1, "wordID": 494, "type": "PRES_VIS", "trial_index": 243}, "uniqueid": "MTK3308:3MH9DQ757XJH7U8DL72R6UVSXWJUGW", "dateTime": 1520356473835}, {"current_trial": 244, "trialdata": {"rt": -1, "trial_type": "single-stim", "word": "lagoon", "stimulus": "<p id=\"stim\">LAGOON</p>", "conditions": [24, 1600, "v", 24000], "internal_node_id": "0.0-181.0", "trial": 6, "time_elapsed": 1288854, "serialpos": 19, "key_press": -1, "wordID": 794, "type": "PRES_VIS", "trial_index": 244}, "uniqueid": "MTK3308:3MH9DQ757XJH7U8DL72R6UVSXWJUGW", "dateTime": 1520356476237}, {"current_trial": 245, "trialdata": {"rt": -1, "trial_type": "single-stim", "word": "pilot", "stimulus": "<p id=\"stim\">PILOT</p>", "conditions": [24, 1600, "v", 24000], "internal_node_id": "0.0-182.0", "trial": 6, "time_elapsed": 1291631, "serialpos": 20, "key_press": -1, "wordID": 1069, "type": "PRES_VIS", "trial_index": 245}, "uniqueid": "MTK3308:3MH9DQ757XJH7U8DL72R6UVSXWJUGW", "dateTime": 1520356479014}, {"current_trial": 246, "trialdata": {"rt": -1, "trial_type": "single-stim", "word": "country", "stimulus": "<p id=\"stim\">COUNTRY</p>", "conditions": [24, 1600, "v", 24000], "internal_node_id": "0.0-183.0", "trial": 6, "time_elapsed": 1294361, "serialpos": 21, "key_press": -1, "wordID": 387, "type": "PRES_VIS", "trial_index": 246}, "uniqueid": "MTK3308:3MH9DQ757XJH7U8DL72R6UVSXWJUGW", "dateTime": 1520356481745}, {"current_trial": 247, "trialdata": {"rt": -1, "trial_type": "single-stim", "word": "tombstone", "stimulus": "<p id=\"stim\">TOMBSTONE</p>", "conditions": [24, 1600, "v", 24000], "internal_node_id": "0.0-184.0", "trial": 6, "time_elapsed": 1296776, "serialpos": 22, "key_press": -1, "wordID": 1477, "type": "PRES_VIS", "trial_index": 247}, "uniqueid": "MTK3308:3MH9DQ757XJH7U8DL72R6UVSXWJUGW", "dateTime": 1520356484160}, {"current_trial": 248, "trialdata": {"rt": -1, "trial_type": "single-stim", "word": "stone", "stimulus": "<p id=\"stim\">STONE</p>", "conditions": [24, 1600, "v", 24000], "internal_node_id": "0.0-185.0", "trial": 6, "time_elapsed": 1299551, "serialpos": 23, "key_press": -1, "wordID": 1384, "type": "PRES_VIS", "trial_index": 248}, "uniqueid": "MTK3308:3MH9DQ757XJH7U8DL72R6UVSXWJUGW", "dateTime": 1520356486934}, {"current_trial": 249, "trialdata": {"rt": -1, "trial_type": "single-stim", "stimulus": "", "internal_node_id": "0.0-186.0-0.0", "time_elapsed": 1301943, "key_press": -1, "type": "PRE_RECALL_DELAY", "trial_index": 249}, "uniqueid": "MTK3308:3MH9DQ757XJH7U8DL72R6UVSXWJUGW", "dateTime": 1520356489326}, {"current_trial": 250, "trialdata": {"rt": -1000, "trial_type": "single-audio", "stimulus": "/static/audio/400Hz.wav", "internal_node_id": "0.0-187.0", "time_elapsed": 1302443, "key_press": -1, "type": "PRE_RECALL_ALERT", "trial_index": 250}, "uniqueid": "MTK3308:3MH9DQ757XJH7U8DL72R6UVSXWJUGW", "dateTime": 1520356489827}, {"current_trial": 251, "trialdata": {"rt": [2487, 5991, 8648, 12375, 25128, 27511, 31560], "recwords": ["stone", "tombstone", "hiker", "climber", "oyster", "crater", "lagoon"], "key_times": [1176, 1303, 1919, 1991, 2183, 2487, 3232, 3376, 3488, 3808, 4080, 4232, 4896, 4987, 5072, 5991, 7000, 7135, 7600, 7815, 7927, 8648, 9903, 10047, 10255, 10486, 10992, 11159, 11297, 12375, 23081, 23473, 24040, 24313, 24673, 24777, 25128, 25656, 25840, 25968, 26128, 26280, 26375, 27511, 27856, 28032, 28464, 28799, 28952, 29168, 31560], "trial_type": "free-recall", "conditions": [24, 1600, "v", 24000], "internal_node_id": "0.0-188.0-0.0", "key_presses": [83, 84, 79, 78, 69, 13, 84, 79, 77, 66, 83, 84, 79, 78, 69, 13, 72, 73, 75, 69, 82, 13, 67, 76, 73, 77, 66, 69, 82, 13, 79, 89, 83, 84, 69, 82, 13, 67, 82, 65, 84, 69, 82, 13, 76, 65, 71, 79, 79, 78, 13], "trial": 6, "time_elapsed": 1362450, "type": "FREE_RECALL", "trial_index": 251}, "uniqueid": "MTK3308:3MH9DQ757XJH7U8DL72R6UVSXWJUGW", "dateTime": 1520356549838}, {"current_trial": 252, "trialdata": {"rt": 16409, "trial_type": "text", "internal_node_id": "0.0-189.0", "time_elapsed": 1380865, "key_press": 32, "type": "INSTRUCTIONS", "trial_index": 252}, "uniqueid": "MTK3308:3MH9DQ757XJH7U8DL72R6UVSXWJUGW", "dateTime": 1520356568248}, {"current_trial": 253, "trialdata": {"rt": [2803, 6123, 8475, 10596, 13268, 16387, 18530, 21059, 23123], "trial_type": "math-distractor", "key_times": [2267, 2531, 2