{"assignmentId": "3DHE4R9OCXI8NIZB2NSL0B00DBF2GC", "workerId": "MTK3000", "questiondata": {"origin": "United States", "strat-rehearsal": "53", "marital": "Single", "education": "Bachelor's degree", "ethnicity": "Not Hispanic", "color_depth": 24, "distracted": "No", "wrote-notes": "No", "strat-other": "I only used the above", "screen_width": 1600, "avail_screen_width": 1537, "avail_screen_height": 900, "strat-image": "86", "language": "English", "gender": "Female", "age": "27", "gender_other": "", "race": ["White"], "strat-categorize": "81", "pixel_depth": 24, "strat-spatial": "5", "strat-story": "0", "race_other": "", "screen_height": 900}, "bonus": 0, "hitId": "3HO4MYYR12VDNHLDJSO35JMJHB7U6A", "counterbalance": 1774, "useragent": "Mozilla/5.0 (Windows NT 6.1; Win64; x64) AppleWebKit/537.36 (KHTML, like Gecko) Chrome/63.0.3239.132 Safari/537.36", "eventdata": [{"eventtype": "initialized", "interval": 0, "value": null, "timestamp": 1519663571430}, {"eventtype": "window_resize", "interval": 0, "value": [1537, 854], "timestamp": 1519663571430}, {"eventtype": "focus", "interval": 14264, "value": "on", "timestamp": 1519663585694}, {"eventtype": "window_resize", "interval": 2091, "value": [1537, 850], "timestamp": 1519663587785}, {"eventtype": "focus", "interval": 5068, "value": "off", "timestamp": 1519663592853}, {"eventtype": "focus", "interval": 2027, "value": "on", "timestamp": 1519663594880}, {"eventtype": "focus", "interval": 24687, "value": "off", "timestamp": 1519663619567}, {"eventtype": "focus", "interval": 2027, "value": "on", "timestamp": 1519663621594}, {"eventtype": "focus", "interval": 161489, "value": "off", "timestamp": 1519663783083}, {"eventtype": "focus", "interval": 8042, "value": "on", "timestamp": 1519663791125}, {"eventtype": "focus", "interval": 3974, "value": "off", "timestamp": 1519663795099}, {"eventtype": "focus", "interval": 12173, "value": "on", "timestamp": 1519663807272}, {"eventtype": "focus", "interval": 105489, "value": "off", "timestamp": 1519663912761}, {"eventtype": "focus", "interval": 58757, "value": "on", "timestamp": 1519663971518}, {"eventtype": "focus", "interval": 451122, "value": "off", "timestamp": 1519664422640}, {"eventtype": "focus", "interval": 7298, "value": "on", "timestamp": 1519664429938}, {"eventtype": "focus", "interval": 53176, "value": "off", "timestamp": 1519664483114}, {"eventtype": "focus", "interval": 1021, "value": "on", "timestamp": 1519664484135}, {"eventtype": "focus", "interval": 595, "value": "off", "timestamp": 1519664484730}, {"eventtype": "focus", "interval": 49164, "value": "on", "timestamp": 1519664533894}, {"eventtype": "focus", "interval": 18050, "value": "off", "timestamp": 1519664551944}, {"eventtype": "focus", "interval": 6939, "value": "on", "timestamp": 1519664558883}, {"eventtype": "focus", "interval": 102601, "value": "off", "timestamp": 1519664661484}, {"eventtype": "focus", "interval": 20912, "value": "on", "timestamp": 1519664682396}, {"eventtype": "focus", "interval": 951854, "value": "off", "timestamp": 1519665634250}, {"eventtype": "focus", "interval": 7623, "value": "on", "timestamp": 1519665641873}, {"eventtype": "focus", "interval": 288010, "value": "off", "timestamp": 1519665929883}, {"eventtype": "focus", "interval": 726, "value": "on", "timestamp": 1519665930609}, {"eventtype": "focus", "interval": 805, "value": "off", "timestamp": 1519665931414}, {"eventtype": "focus", "interval": 125293, "value": "on", "timestamp": 1519666056707}], "data": [{"current_trial": 0, "trialdata": {"rt": 15591, "trial_type": "text", "internal_node_id": "0.0-0.0", "time_elapsed": 15595, "key_press": 32, "type": "INSTRUCTIONS", "trial_index": 0}, "uniqueid": "MTK3000:3DHE4R9OCXI8NIZB2NSL0B00DBF2GC", "dateTime": 1519663588158}, {"current_trial": 1, "trialdata": {"rt": 13267, "trial_type": "text", "internal_node_id": "0.0-1.0", "time_elapsed": 28864, "key_press": 32, "type": "INSTRUCTIONS", "trial_index": 1}, "uniqueid": "MTK3000:3DHE4R9OCXI8NIZB2NSL0B00DBF2GC", "dateTime": 1519663601427}, {"current_trial": 2, "trialdata": {"rt": [6332], "trial_type": "audio-test", "responses": ["ocean"], "internal_node_id": "0.0-2.0", "time_elapsed": 35226, "type": "AUDIO_TEST", "trial_index": 2}, "uniqueid": "MTK3000:3DHE4R9OCXI8NIZB2NSL0B00DBF2GC", "dateTime": 1519663607788}, {"current_trial": 3, "trialdata": {"rt": [5898], "trial_type": "audio-test", "responses": ["crystal"], "internal_node_id": "0.0-3.0", "time_elapsed": 41129, "type": "AUDIO_TEST", "trial_index": 3}, "uniqueid": "MTK3000:3DHE4R9OCXI8NIZB2NSL0B00DBF2GC", "dateTime": 1519663613691}, {"current_trial": 4, "trialdata": {"rt": [4268], "trial_type": "audio-test", "responses": ["spice"], "internal_node_id": "0.0-4.0", "time_elapsed": 45402, "type": "AUDIO_TEST", "trial_index": 4}, "uniqueid": "MTK3000:3DHE4R9OCXI8NIZB2NSL0B00DBF2GC", "dateTime": 1519663617964}, {"current_trial": 5, "trialdata": {"rt": 21684, "trial_type": "survey-text", "responses": "{\"Q0\":\"11:30 pm\",\"Q1\":\"8 am\",\"Q2\":\"2\"}", "internal_node_id": "0.0-5.0", "time_elapsed": 67840, "type": "SLEEP_SURVEY", "trial_index": 5}, "uniqueid": "MTK3000:3DHE4R9OCXI8NIZB2NSL0B00DBF2GC", "dateTime": 1519663640402}, {"current_trial": 6, "trialdata": {"rt": 18631, "trial_type": "text", "internal_node_id": "0.0-6.0", "time_elapsed": 87473, "key_press": 32, "type": "INSTRUCTIONS", "trial_index": 6}, "uniqueid": "MTK3000:3DHE4R9OCXI8NIZB2NSL0B00DBF2GC", "dateTime": 1519663660035}, {"current_trial": 7, "trialdata": {"rt": 10460, "trial_type": "text", "internal_node_id": "0.0-7.0", "time_elapsed": 98433, "key_press": 32, "type": "INSTRUCTIONS", "trial_index": 7}, "uniqueid": "MTK3000:3DHE4R9OCXI8NIZB2NSL0B00DBF2GC", "dateTime": 1519663670995}, {"current_trial": 8, "trialdata": {"rt": 3354, "trial_type": "text", "internal_node_id": "0.0-8.0", "time_elapsed": 102290, "key_press": 32, "type": "INSTRUCTIONS", "trial_index": 8}, "uniqueid": "MTK3000:3DHE4R9OCXI8NIZB2NSL0B00DBF2GC", "dateTime": 1519663674852}, {"current_trial": 9, "trialdata": {"rt": [3417, 5747, 7434, 9682, 12410, 16162, 17875], "trial_type": "math-distractor", "key_times": [2914, 3417, 5330, 5537, 5747, 7050, 7250, 7434, 9370, 9538, 9682, 12082, 12258, 12410, 15826, 15969, 16162, 17673, 17875], "responses": ["9", "17", "13", "22", "15", "16", "8"], "num2": [4, 6, 7, 9, 2, 6, 1, 3], "num3": [4, 6, 3, 7, 6, 9, 3, 2], "conditions": [18, 1200, "v", 18000], "internal_node_id": "0.0-9.0", "key_presses": [105, 13, 97, 103, 13, 97, 99, 13, 98, 98, 13, 97, 101, 13, 97, 102, 13, 104, 13], "trial": 0, "time_elapsed": 121298, "type": "DISTRACTOR", "trial_index": 9, "num1": [1, 5, 3, 6, 7, 1, 4, 8]}, "uniqueid": "MTK3000:3DHE4R9OCXI8NIZB2NSL0B00DBF2GC", "dateTime": 1519663693860}, {"current_trial": 10, "trialdata": {"rt": -1, "trial_type": "single-stim", "stimulus": "<p id=\"stim\">10</p>", "internal_node_id": "0.0-10.0-0.0", "time_elapsed": 124303, "key_press": -1, "trial_index": 10}, "uniqueid": "MTK3000:3DHE4R9OCXI8NIZB2NSL0B00DBF2GC", "dateTime": 1519663696865}, {"current_trial": 11, "trialdata": {"rt": -1, "trial_type": "single-stim", "stimulus": "<p id=\"stim\">9</p>", "internal_node_id": "0.0-10.0-1.0", "time_elapsed": 125304, "key_press": -1, "trial_index": 11}, "uniqueid": "MTK3000:3DHE4R9OCXI8NIZB2NSL0B00DBF2GC", "dateTime": 1519663697866}, {"current_trial": 12, "trialdata": {"rt": -1, "trial_type": "single-stim", "stimulus": "<p id=\"stim\">8</p>", "internal_node_id": "0.0-10.0-2.0", "time_elapsed": 126307, "key_press": -1, "trial_index": 12}, "uniqueid": "MTK3000:3DHE4R9OCXI8NIZB2NSL0B00DBF2GC", "dateTime": 1519663698869}, {"current_trial": 13, "trialdata": {"rt": -1, "trial_type": "single-stim", "stimulus": "<p id=\"stim\">7</p>", "internal_node_id": "0.0-10.0-3.0", "time_elapsed": 127309, "key_press": -1, "trial_index": 13}, "uniqueid": "MTK3000:3DHE4R9OCXI8NIZB2NSL0B00DBF2GC", "dateTime": 1519663699871}, {"current_trial": 14, "trialdata": {"rt": -1, "trial_type": "single-stim", "stimulus": "<p id=\"stim\">6</p>", "internal_node_id": "0.0-10.0-4.0", "time_elapsed": 128311, "key_press": -1, "trial_index": 14}, "uniqueid": "MTK3000:3DHE4R9OCXI8NIZB2NSL0B00DBF2GC", "dateTime": 1519663700873}, {"current_trial": 15, "trialdata": {"rt": -1, "trial_type": "single-stim", "stimulus": "<p id=\"stim\">5</p>", "internal_node_id": "0.0-10.0-5.0", "time_elapsed": 129313, "key_press": -1, "trial_index": 15}, "uniqueid": "MTK3000:3DHE4R9OCXI8NIZB2NSL0B00DBF2GC", "dateTime": 1519663701875}, {"current_trial": 16, "trialdata": {"rt": -1, "trial_type": "single-stim", "stimulus": "<p id=\"stim\">4</p>", "internal_node_id": "0.0-10.0-6.0", "time_elapsed": 130315, "key_press": -1, "trial_index": 16}, "uniqueid": "MTK3000:3DHE4R9OCXI8NIZB2NSL0B00DBF2GC", "dateTime": 1519663702877}, {"current_trial": 17, "trialdata": {"rt": -1, "trial_type": "single-stim", "stimulus": "<p id=\"stim\">3</p>", "internal_node_id": "0.0-10.0-7.0", "time_elapsed": 131317, "key_press": -1, "trial_index": 17}, "uniqueid": "MTK3000:3DHE4R9OCXI8NIZB2NSL0B00DBF2GC", "dateTime": 1519663703879}, {"current_trial": 18, "trialdata": {"rt": -1, "trial_type": "single-stim", "stimulus": "<p id=\"stim\">2</p>", "internal_node_id": "0.0-10.0-8.0", "time_elapsed": 132319, "key_press": -1, "trial_index": 18}, "uniqueid": "MTK3000:3DHE4R9OCXI8NIZB2NSL0B00DBF2GC", "dateTime": 1519663704881}, {"current_trial": 19, "trialdata": {"rt": -1, "trial_type": "single-stim", "stimulus": "<p id=\"stim\">1</p>", "internal_node_id": "0.0-10.0-9.0", "time_elapsed": 133320, "key_press": -1, "trial_index": 19}, "uniqueid": "MTK3000:3DHE4R9OCXI8NIZB2NSL0B00DBF2GC", "dateTime": 1519663705883}, {"current_trial": 20, "trialdata": {"rt": -1, "trial_type": "single-stim", "stimulus": "<p id=\"stim\">+</p>", "internal_node_id": "0.0-11.0-0.0", "time_elapsed": 134822, "key_press": -1, "type": "FIXATION", "trial_index": 20}, "uniqueid": "MTK3000:3DHE4R9OCXI8NIZB2NSL0B00DBF2GC", "dateTime": 1519663707385}, {"current_trial": 21, "trialdata": {"rt": -1, "trial_type": "single-stim", "word": "wasp", "stimulus": "<p id=\"stim\">WASP</p>", "conditions": [18, 1200, "v", 18000], "internal_node_id": "0.0-12.0", "trial": 0, "time_elapsed": 136024, "serialpos": 0, "key_press": -1, "wordID": 1592, "type": "PRES_VIS", "trial_index": 21}, "uniqueid": "MTK3000:3DHE4R9OCXI8NIZB2NSL0B00DBF2GC", "dateTime": 1519663708587}, {"current_trial": 22, "trialdata": {"rt": -1, "trial_type": "single-stim", "word": "drill", "stimulus": "<p id=\"stim\">DRILL</p>", "conditions": [18, 1200, "v", 18000], "internal_node_id": "0.0-13.0", "trial": 0, "time_elapsed": 138092, "serialpos": 1, "key_press": -1, "wordID": 496, "type": "PRES_VIS", "trial_index": 22}, "uniqueid": "MTK3000:3DHE4R9OCXI8NIZB2NSL0B00DBF2GC", "dateTime": 1519663710654}, {"current_trial": 23, "trialdata": {"rt": -1, "trial_type": "single-stim", "word": "teacher", "stimulus": "<p id=\"stim\">TEACHER</p>", "conditions": [18, 1200, "v", 18000], "internal_node_id": "0.0-14.0", "trial": 0, "time_elapsed": 140297, "serialpos": 2, "key_press": -1, "wordID": 1439, "type": "PRES_VIS", "trial_index": 23}, "uniqueid": "MTK3000:3DHE4R9OCXI8NIZB2NSL0B00DBF2GC", "dateTime": 1519663712859}, {"current_trial": 24, "trialdata": {"rt": -1, "trial_type": "single-stim", "word": "pebble", "stimulus": "<p id=\"stim\">PEBBLE</p>", "conditions": [18, 1200, "v", 18000], "internal_node_id": "0.0-15.0", "trial": 0, "time_elapsed": 142483, "serialpos": 3, "key_press": -1, "wordID": 1034, "type": "PRES_VIS", "trial_index": 24}, "uniqueid": "MTK3000:3DHE4R9OCXI8NIZB2NSL0B00DBF2GC", "dateTime": 1519663715045}, {"current_trial": 25, "trialdata": {"rt": -1, "trial_type": "single-stim", "word": "candy", "stimulus": "<p id=\"stim\">CANDY</p>", "conditions": [18, 1200, "v", 18000], "internal_node_id": "0.0-16.0", "trial": 0, "time_elapsed": 144849, "serialpos": 4, "key_press": -1, "wordID": 229, "type": "PRES_VIS", "trial_index": 25}, "uniqueid": "MTK3000:3DHE4R9OCXI8NIZB2NSL0B00DBF2GC", "dateTime": 1519663717411}, {"current_trial": 26, "trialdata": {"rt": -1, "trial_type": "single-stim", "word": "quarter", "stimulus": "<p id=\"stim\">QUARTER</p>", "conditions": [18, 1200, "v", 18000], "internal_node_id": "0.0-17.0", "trial": 0, "time_elapsed": 147128, "serialpos": 5, "key_press": -1, "wordID": 1147, "type": "PRES_VIS", "trial_index": 26}, "uniqueid": "MTK3000:3DHE4R9OCXI8NIZB2NSL0B00DBF2GC", "dateTime": 1519663719690}, {"current_trial": 27, "trialdata": {"rt": -1, "trial_type": "single-stim", "word": "garbage", "stimulus": "<p id=\"stim\">GARBAGE</p>", "conditions": [18, 1200, "v", 18000], "internal_node_id": "0.0-18.0", "trial": 0, "time_elapsed": 149241, "serialpos": 6, "key_press": -1, "wordID": 621, "type": "PRES_VIS", "trial_index": 27}, "uniqueid": "MTK3000:3DHE4R9OCXI8NIZB2NSL0B00DBF2GC", "dateTime": 1519663721803}, {"current_trial": 28, "trialdata": {"rt": -1, "trial_type": "single-stim", "word": "passage", "stimulus": "<p id=\"stim\">PASSAGE</p>", "conditions": [18, 1200, "v", 18000], "internal_node_id": "0.0-19.0", "trial": 0, "time_elapsed": 151341, "serialpos": 7, "key_press": -1, "wordID": 1018, "type": "PRES_VIS", "trial_index": 28}, "uniqueid": "MTK3000:3DHE4R9OCXI8NIZB2NSL0B00DBF2GC", "dateTime": 1519663723903}, {"current_trial": 29, "trialdata": {"rt": -1, "trial_type": "single-stim", "word": "brick", "stimulus": "<p id=\"stim\">BRICK</p>", "conditions": [18, 1200, "v", 18000], "internal_node_id": "0.0-20.0", "trial": 0, "time_elapsed": 153462, "serialpos": 8, "key_press": -1, "wordID": 171, "type": "PRES_VIS", "trial_index": 29}, "uniqueid": "MTK3000:3DHE4R9OCXI8NIZB2NSL0B00DBF2GC", "dateTime": 1519663726024}, {"current_trial": 30, "trialdata": {"rt": -1, "trial_type": "single-stim", "word": "ghetto", "stimulus": "<p id=\"stim\">GHETTO</p>", "conditions": [18, 1200, "v", 18000], "internal_node_id": "0.0-21.0", "trial": 0, "time_elapsed": 155600, "serialpos": 9, "key_press": -1, "wordID": 632, "type": "PRES_VIS", "trial_index": 30}, "uniqueid": "MTK3000:3DHE4R9OCXI8NIZB2NSL0B00DBF2GC", "dateTime": 1519663728162}, {"current_trial": 31, "trialdata": {"rt": -1, "trial_type": "single-stim", "word": "county", "stimulus": "<p id=\"stim\">COUNTY</p>", "conditions": [18, 1200, "v", 18000], "internal_node_id": "0.0-22.0", "trial": 0, "time_elapsed": 157822, "serialpos": 10, "key_press": -1, "wordID": 388, "type": "PRES_VIS", "trial_index": 31}, "uniqueid": "MTK3000:3DHE4R9OCXI8NIZB2NSL0B00DBF2GC", "dateTime": 1519663730384}, {"current_trial": 32, "trialdata": {"rt": -1, "trial_type": "single-stim", "word": "crayon", "stimulus": "<p id=\"stim\">CRAYON</p>", "conditions": [18, 1200, "v", 18000], "internal_node_id": "0.0-23.0", "trial": 0, "time_elapsed": 160039, "serialpos": 11, "key_press": -1, "wordID": 400, "type": "PRES_VIS", "trial_index": 32}, "uniqueid": "MTK3000:3DHE4R9OCXI8NIZB2NSL0B00DBF2GC", "dateTime": 1519663732601}, {"current_trial": 33, "trialdata": {"rt": -1, "trial_type": "single-stim", "word": "child", "stimulus": "<p id=\"stim\">CHILD</p>", "conditions": [18, 1200, "v", 18000], "internal_node_id": "0.0-24.0", "trial": 0, "time_elapsed": 162145, "serialpos": 12, "key_press": -1, "wordID": 298, "type": "PRES_VIS", "trial_index": 33}, "uniqueid": "MTK3000:3DHE4R9OCXI8NIZB2NSL0B00DBF2GC", "dateTime": 1519663734707}, {"current_trial": 34, "trialdata": {"rt": -1, "trial_type": "single-stim", "word": "silk", "stimulus": "<p id=\"stim\">SILK</p>", "conditions": [18, 1200, "v", 18000], "internal_node_id": "0.0-25.0", "trial": 0, "time_elapsed": 164210, "serialpos": 13, "key_press": -1, "wordID": 1306, "type": "PRES_VIS", "trial_index": 34}, "uniqueid": "MTK3000:3DHE4R9OCXI8NIZB2NSL0B00DBF2GC", "dateTime": 1519663736773}, {"current_trial": 35, "trialdata": {"rt": -1, "trial_type": "single-stim", "word": "worker", "stimulus": "<p id=\"stim\">WORKER</p>", "conditions": [18, 1200, "v", 18000], "internal_node_id": "0.0-26.0", "trial": 0, "time_elapsed": 166549, "serialpos": 14, "key_press": -1, "wordID": 1620, "type": "PRES_VIS", "trial_index": 35}, "uniqueid": "MTK3000:3DHE4R9OCXI8NIZB2NSL0B00DBF2GC", "dateTime": 1519663739112}, {"current_trial": 36, "trialdata": {"rt": -1, "trial_type": "single-stim", "word": "rabbit", "stimulus": "<p id=\"stim\">RABBIT</p>", "conditions": [18, 1200, "v", 18000], "internal_node_id": "0.0-27.0", "trial": 0, "time_elapsed": 168729, "serialpos": 15, "key_press": -1, "wordID": 1151, "type": "PRES_VIS", "trial_index": 36}, "uniqueid": "MTK3000:3DHE4R9OCXI8NIZB2NSL0B00DBF2GC", "dateTime": 1519663741291}, {"current_trial": 37, "trialdata": {"rt": -1, "trial_type": "single-stim", "word": "mammal", "stimulus": "<p id=\"stim\">MAMMAL</p>", "conditions": [18, 1200, "v", 18000], "internal_node_id": "0.0-28.0", "trial": 0, "time_elapsed": 170881, "serialpos": 16, "key_press": -1, "wordID": 860, "type": "PRES_VIS", "trial_index": 37}, "uniqueid": "MTK3000:3DHE4R9OCXI8NIZB2NSL0B00DBF2GC", "dateTime": 1519663743443}, {"current_trial": 38, "trialdata": {"rt": -1, "trial_type": "single-stim", "word": "treat", "stimulus": "<p id=\"stim\">TREAT</p>", "conditions": [18, 1200, "v", 18000], "internal_node_id": "0.0-29.0", "trial": 0, "time_elapsed": 173156, "serialpos": 17, "key_press": -1, "wordID": 1500, "type": "PRES_VIS", "trial_index": 38}, "uniqueid": "MTK3000:3DHE4R9OCXI8NIZB2NSL0B00DBF2GC", "dateTime": 1519663745718}, {"current_trial": 39, "trialdata": {"rt": -1, "trial_type": "single-stim", "stimulus": "", "internal_node_id": "0.0-30.0-0.0", "time_elapsed": 175450, "key_press": -1, "type": "PRE_RECALL_DELAY", "trial_index": 39}, "uniqueid": "MTK3000:3DHE4R9OCXI8NIZB2NSL0B00DBF2GC", "dateTime": 1519663748012}, {"current_trial": 40, "trialdata": {"rt": -1000, "trial_type": "single-audio", "stimulus": "/static/audio/400Hz.wav", "internal_node_id": "0.0-31.0", "time_elapsed": 175953, "key_press": -1, "type": "PRE_RECALL_ALERT", "trial_index": 40}, "uniqueid": "MTK3000:3DHE4R9OCXI8NIZB2NSL0B00DBF2GC", "dateTime": 1519663748515}, {"current_trial": 41, "trialdata": {"rt": [2062, 3708, 5428, 6948, 8668, 17756, 20012, 43662], "recwords": ["wasp", "county", "teacher", "ghetto", "treat", "quarter", "child", ""], "key_times": [1286, 1388, 1540, 1700, 2062, 2724, 2892, 2972, 3164, 3340, 3452, 3708, 4340, 4516, 4612, 4804, 4916, 5052, 5115, 5428, 5956, 6092, 6268, 6477, 6612, 6732, 6948, 7588, 7788, 7876, 8077, 8260, 8668, 16604, 16732, 16852, 17020, 17187, 17331, 17420, 17756, 18644, 18748, 18852, 18892, 19139, 20012, 43662], "trial_type": "free-recall", "conditions": [18, 1200, "v", 18000], "internal_node_id": "0.0-32.0-0.0", "key_presses": [87, 65, 83, 80, 13, 67, 79, 85, 78, 84, 89, 13, 84, 69, 65, 67, 72, 69, 82, 13, 71, 72, 69, 84, 84, 79, 13, 84, 82, 69, 65, 84, 13, 81, 85, 65, 82, 84, 69, 82, 13, 67, 72, 73, 76, 68, 13, 13], "trial": 0, "time_elapsed": 235961, "type": "FREE_RECALL", "trial_index": 41}, "uniqueid": "MTK3000:3DHE4R9OCXI8NIZB2NSL0B00DBF2GC", "dateTime": 1519663808526}, {"current_trial": 42, "trialdata": {"rt": 1490, "trial_type": "text", "internal_node_id": "0.0-33.0", "time_elapsed": 239457, "key_press": 13, "type": "INSTRUCTIONS", "trial_index": 42}, "uniqueid": "MTK3000:3DHE4R9OCXI8NIZB2NSL0B00DBF2GC", "dateTime": 1519663812019}, {"current_trial": 43, "trialdata": {"rt": [2909, 5221, 7493, 9061, 10836, 13213, 15356], "trial_type": "math-distractor", "key_times": [2685, 2757, 2909, 4965, 5109, 5221, 7205, 7341, 7493, 8893, 9061, 10629, 10836, 12820, 13045, 13213, 15021, 15213, 15356, 17941], "responses": ["16", "11", "19", "6", "9", "17", "15"], "num2": [3, 3, 8, 3, 2, 7, 3, 9], "num3": [4, 5, 5, 1, 2, 5, 4, 9], "conditions": [18, 1200, "v", 18000], "internal_node_id": "0.0-34.0", "key_presses": [97, 102, 13, 97, 97, 13, 97, 105, 13, 102, 13, 105, 13, 97, 103, 13, 97, 101, 13, 98], "trial": 1, "time_elapsed": 259461, "type": "DISTRACTOR", "trial_index": 43, "num1": [9, 3, 6, 2, 5, 5, 8, 9]}, "uniqueid": "MTK3000:3DHE4R9OCXI8NIZB2NSL0B00DBF2GC", "dateTime": 1519663832023}, {"current_trial": 44, "trialdata": {"rt": -1, "trial_type": "single-stim", "stimulus": "<p id=\"stim\">10</p>", "internal_node_id": "0.0-35.0-0.0", "time_elapsed": 262463, "key_press": -1, "trial_index": 44}, "uniqueid": "MTK3000:3DHE4R9OCXI8NIZB2NSL0B00DBF2GC", "dateTime": 1519663835025}, {"current_trial": 45, "trialdata": {"rt": -1, "trial_type": "single-stim", "stimulus": "<p id=\"stim\">9</p>", "internal_node_id": "0.0-35.0-1.0", "time_elapsed": 263465, "key_press": -1, "trial_index": 45}, "uniqueid": "MTK3000:3DHE4R9OCXI8NIZB2NSL0B00DBF2GC", "dateTime": 1519663836027}, {"current_trial": 46, "trialdata": {"rt": -1, "trial_type": "single-stim", "stimulus": "<p id=\"stim\">8</p>", "internal_node_id": "0.0-35.0-2.0", "time_elapsed": 264467, "key_press": -1, "trial_index": 46}, "uniqueid": "MTK3000:3DHE4R9OCXI8NIZB2NSL0B00DBF2GC", "dateTime": 1519663837029}, {"current_trial": 47, "trialdata": {"rt": -1, "trial_type": "single-stim", "stimulus": "<p id=\"stim\">7</p>", "internal_node_id": "0.0-35.0-3.0", "time_elapsed": 265469, "key_press": -1, "trial_index": 47}, "uniqueid": "MTK3000:3DHE4R9OCXI8NIZB2NSL0B00DBF2GC", "dateTime": 1519663838031}, {"current_trial": 48, "trialdata": {"rt": -1, "trial_type": "single-stim", "stimulus": "<p id=\"stim\">6</p>", "internal_node_id": "0.0-35.0-4.0", "time_elapsed": 266471, "key_press": -1, "trial_index": 48}, "uniqueid": "MTK3000:3DHE4R9OCXI8NIZB2NSL0B00DBF2GC", "dateTime": 1519663839033}, {"current_trial": 49, "trialdata": {"rt": -1, "trial_type": "single-stim", "stimulus": "<p id=\"stim\">5</p>", "internal_node_id": "0.0-35.0-5.0", "time_elapsed": 267473, "key_press": -1, "trial_index": 49}, "uniqueid": "MTK3000:3DHE4R9OCXI8NIZB2NSL0B00DBF2GC", "dateTime": 1519663840035}, {"current_trial": 50, "trialdata": {"rt": -1, "trial_type": "single-stim", "stimulus": "<p id=\"stim\">4</p>", "internal_node_id": "0.0-35.0-6.0", "time_elapsed": 268475, "key_press": -1, "trial_index": 50}, "uniqueid": "MTK3000:3DHE4R9OCXI8NIZB2NSL0B00DBF2GC", "dateTime": 1519663841037}, {"current_trial": 51, "trialdata": {"rt": -1, "trial_type": "single-stim", "stimulus": "<p id=\"stim\">3</p>", "internal_node_id": "0.0-35.0-7.0", "time_elapsed": 269476, "key_press": -1, "trial_index": 51}, "uniqueid": "MTK3000:3DHE4R9OCXI8NIZB2NSL0B00DBF2GC", "dateTime": 1519663842038}, {"current_trial": 52, "trialdata": {"rt": -1, "trial_type": "single-stim", "stimulus": "<p id=\"stim\">2</p>", "internal_node_id": "0.0-35.0-8.0", "time_elapsed": 270478, "key_press": -1, "trial_index": 52}, "uniqueid": "MTK3000:3DHE4R9OCXI8NIZB2NSL0B00DBF2GC", "dateTime": 1519663843040}, {"current_trial": 53, "trialdata": {"rt": -1, "trial_type": "single-stim", "stimulus": "<p id=\"stim\">1</p>", "internal_node_id": "0.0-35.0-9.0", "time_elapsed": 271479, "key_press": -1, "trial_index": 53}, "uniqueid": "MTK3000:3DHE4R9OCXI8NIZB2NSL0B00DBF2GC", "dateTime": 1519663844042}, {"current_trial": 54, "trialdata": {"rt": -1, "trial_type": "single-stim", "stimulus": "<p id=\"stim\">+</p>", "internal_node_id": "0.0-36.0-0.0", "time_elapsed": 272983, "key_press": -1, "type": "FIXATION", "trial_index": 54}, "uniqueid": "MTK3000:3DHE4R9OCXI8NIZB2NSL0B00DBF2GC", "dateTime": 1519663845545}, {"current_trial": 55, "trialdata": {"rt": -1, "trial_type": "single-stim", "word": "marrow", "stimulus": "<p id=\"stim\">MARROW</p>", "conditions": [18, 1200, "v", 18000], "internal_node_id": "0.0-37.0", "trial": 1, "time_elapsed": 274184, "serialpos": 0, "key_press": -1, "wordID": 871, "type": "PRES_VIS", "trial_index": 55}, "uniqueid": "MTK3000:3DHE4R9OCXI8NIZB2NSL0B00DBF2GC", "dateTime": 1519663846746}, {"current_trial": 56, "trialdata": {"rt": -1, "trial_type": "single-stim", "word": "spouse", "stimulus": "<p id=\"stim\">SPOUSE</p>", "conditions": [18, 1200, "v", 18000], "internal_node_id": "0.0-38.0", "trial": 1, "time_elapsed": 276544, "serialpos": 1, "key_press": -1, "wordID": 1357, "type": "PRES_VIS", "trial_index": 56}, "uniqueid": "MTK3000:3DHE4R9OCXI8NIZB2NSL0B00DBF2GC", "dateTime": 1519663849106}, {"current_trial": 57, "trialdata": {"rt": -1, "trial_type": "single-stim", "word": "bubble", "stimulus": "<p id=\"stim\">BUBBLE</p>", "conditions": [18, 1200, "v", 18000], "internal_node_id": "0.0-39.0", "trial": 1, "time_elapsed": 278759, "serialpos": 2, "key_press": -1, "wordID": 182, "type": "PRES_VIS", "trial_index": 57}, "uniqueid": "MTK3000:3DHE4R9OCXI8NIZB2NSL0B00DBF2GC", "dateTime": 1519663851321}, {"current_trial": 58, "trialdata": {"rt": -1, "trial_type": "single-stim", "word": "atlas", "stimulus": "<p id=\"stim\">ATLAS</p>", "conditions": [18, 1200, "v", 18000], "internal_node_id": "0.0-40.0", "trial": 1, "time_elapsed": 281158, "serialpos": 3, "key_press": -1, "wordID": 52, "type": "PRES_VIS", "trial_index": 58}, "uniqueid": "MTK3000:3DHE4R9OCXI8NIZB2NSL0B00DBF2GC", "dateTime": 1519663853720}, {"current_trial": 59, "trialdata": {"rt": -1, "trial_type": "single-stim", "word": "tribe", "stimulus": "<p id=\"stim\">TRIBE</p>", "conditions": [18, 1200, "v", 18000], "internal_node_id": "0.0-41.0", "trial": 1, "time_elapsed": 283489, "serialpos": 4, "key_press": -1, "wordID": 1504, "type": "PRES_VIS", "trial_index": 59}, "uniqueid": "MTK3000:3DHE4R9OCXI8NIZB2NSL0B00DBF2GC", "dateTime": 1519663856051}, {"current_trial": 60, "trialdata": {"rt": -1, "trial_type": "single-stim", "word": "hornet", "stimulus": "<p id=\"stim\">HORNET</p>", "conditions": [18, 1200, "v", 18000], "internal_node_id": "0.0-42.0", "trial": 1, "time_elapsed": 285532, "serialpos": 5, "key_press": -1, "wordID": 717, "type": "PRES_VIS", "trial_index": 60}, "uniqueid": "MTK3000:3DHE4R9OCXI8NIZB2NSL0B00DBF2GC", "dateTime": 1519663858094}, {"current_trial": 61, "trialdata": {"rt": -1, "trial_type": "single-stim", "word": "cattle", "stimulus": "<p id=\"stim\">CATTLE</p>", "conditions": [18, 1200, "v", 18000], "internal_node_id": "0.0-43.0", "trial": 1, "time_elapsed": 287653, "serialpos": 6, "key_press": -1, "wordID": 260, "type": "PRES_VIS", "trial_index": 61}, "uniqueid": "MTK3000:3DHE4R9OCXI8NIZB2NSL0B00DBF2GC", "dateTime": 1519663860215}, {"current_trial": 62, "trialdata": {"rt": -1, "trial_type": "single-stim", "word": "seal", "stimulus": "<p id=\"stim\">SEAL</p>", "conditions": [18, 1200, "v", 18000], "internal_node_id": "0.0-44.0", "trial": 1, "time_elapsed": 290018, "serialpos": 7, "key_press": -1, "wordID": 1261, "type": "PRES_VIS", "trial_index": 62}, "uniqueid": "MTK3000:3DHE4R9OCXI8NIZB2NSL0B00DBF2GC", "dateTime": 1519663862580}, {"current_trial": 63, "trialdata": {"rt": -1, "trial_type": "single-stim", "word": "motel", "stimulus": "<p id=\"stim\">MOTEL</p>", "conditions": [18, 1200, "v", 18000], "internal_node_id": "0.0-45.0", "trial": 1, "time_elapsed": 292061, "serialpos": 8, "key_press": -1, "wordID": 918, "type": "PRES_VIS", "trial_index": 63}, "uniqueid": "MTK3000:3DHE4R9OCXI8NIZB2NSL0B00DBF2GC", "dateTime": 1519663864623}, {"current_trial": 64, "trialdata": {"rt": -1, "trial_type": "single-stim", "word": "jelly", "stimulus": "<p id=\"stim\">JELLY</p>", "conditions": [18, 1200, "v", 18000], "internal_node_id": "0.0-46.0", "trial": 1, "time_elapsed": 294366, "serialpos": 9, "key_press": -1, "wordID": 754, "type": "PRES_VIS", "trial_index": 64}, "uniqueid": "MTK3000:3DHE4R9OCXI8NIZB2NSL0B00DBF2GC", "dateTime": 1519663866930}, {"current_trial": 65, "trialdata": {"rt": -1, "trial_type": "single-stim", "word": "parrot", "stimulus": "<p id=\"stim\">PARROT</p>", "conditions": [18, 1200, "v", 18000], "internal_node_id": "0.0-47.0", "trial": 1, "time_elapsed": 296457, "serialpos": 10, "key_press": -1, "wordID": 1014, "type": "PRES_VIS", "trial_index": 65}, "uniqueid": "MTK3000:3DHE4R9OCXI8NIZB2NSL0B00DBF2GC", "dateTime": 1519663869019}, {"current_trial": 66, "trialdata": {"rt": -1, "trial_type": "single-stim", "word": "washer", "stimulus": "<p id=\"stim\">WASHER</p>", "conditions": [18, 1200, "v", 18000], "internal_node_id": "0.0-48.0", "trial": 1, "time_elapsed": 298622, "serialpos": 11, "key_press": -1, "wordID": 1591, "type": "PRES_VIS", "trial_index": 66}, "uniqueid": "MTK3000:3DHE4R9OCXI8NIZB2NSL0B00DBF2GC", "dateTime": 1519663871184}, {"current_trial": 67, "trialdata": {"rt": -1, "trial_type": "single-stim", "word": "rifle", "stimulus": "<p id=\"stim\">RIFLE</p>", "conditions": [18, 1200, "v", 18000], "internal_node_id": "0.0-49.0", "trial": 1, "time_elapsed": 300662, "serialpos": 12, "key_press": -1, "wordID": 1191, "type": "PRES_VIS", "trial_index": 67}, "uniqueid": "MTK3000:3DHE4R9OCXI8NIZB2NSL0B00DBF2GC", "dateTime": 1519663873225}, {"current_trial": 68, "trialdata": {"rt": -1, "trial_type": "single-stim", "word": "carrot", "stimulus": "<p id=\"stim\">CARROT</p>", "conditions": [18, 1200, "v", 18000], "internal_node_id": "0.0-50.0", "trial": 1, "time_elapsed": 302872, "serialpos": 13, "key_press": -1, "wordID": 248, "type": "PRES_VIS", "trial_index": 68}, "uniqueid": "MTK3000:3DHE4R9OCXI8NIZB2NSL0B00DBF2GC", "dateTime": 1519663875438}, {"current_trial": 69, "trialdata": {"rt": -1, "trial_type": "single-stim", "word": "stream", "stimulus": "<p id=\"stim\">STREAM</p>", "conditions": [18, 1200, "v", 18000], "internal_node_id": "0.0-51.0", "trial": 1, "time_elapsed": 304998, "serialpos": 14, "key_press": -1, "wordID": 1391, "type": "PRES_VIS", "trial_index": 69}, "uniqueid": "MTK3000:3DHE4R9OCXI8NIZB2NSL0B00DBF2GC", "dateTime": 1519663877560}, {"current_trial": 70, "trialdata": {"rt": -1, "trial_type": "single-stim", "word": "whiskers", "stimulus": "<p id=\"stim\">WHISKERS</p>", "conditions": [18, 1200, "v", 18000], "internal_node_id": "0.0-52.0", "trial": 1, "time_elapsed": 307016, "serialpos": 15, "key_press": -1, "wordID": 1604, "type": "PRES_VIS", "trial_index": 70}, "uniqueid": "MTK3000:3DHE4R9OCXI8NIZB2NSL0B00DBF2GC", "dateTime": 1519663879578}, {"current_trial": 71, "trialdata": {"rt": -1, "trial_type": "single-stim", "word": "snail", "stimulus": "<p id=\"stim\">SNAIL</p>", "conditions": [18, 1200, "v", 18000], "internal_node_id": "0.0-53.0", "trial": 1, "time_elapsed": 309378, "serialpos": 16, "key_press": -1, "wordID": 1331, "type": "PRES_VIS", "trial_index": 71}, "uniqueid": "MTK3000:3DHE4R9OCXI8NIZB2NSL0B00DBF2GC", "dateTime": 1519663881940}, {"current_trial": 72, "trialdata": {"rt": -1, "trial_type": "single-stim", "word": "france", "stimulus": "<p id=\"stim\">FRANCE</p>", "conditions": [18, 1200, "v", 18000], "internal_node_id": "0.0-54.0", "trial": 1, "time_elapsed": 311732, "serialpos": 17, "key_press": -1, "wordID": 600, "type": "PRES_VIS", "trial_index": 72}, "uniqueid": "MTK3000:3DHE4R9OCXI8NIZB2NSL0B00DBF2GC", "dateTime": 1519663884294}, {"current_trial": 73, "trialdata": {"rt": -1, "trial_type": "single-stim", "stimulus": "", "internal_node_id": "0.0-55.0-0.0", "time_elapsed": 314172, "key_press": -1, "type": "PRE_RECALL_DELAY", "trial_index": 73}, "uniqueid": "MTK3000:3DHE4R9OCXI8NIZB2NSL0B00DBF2GC", "dateTime": 1519663886734}, {"current_trial": 74, "trialdata": {"rt": -1000, "trial_type": "single-audio", "stimulus": "/static/audio/400Hz.wav", "internal_node_id": "0.0-56.0", "time_elapsed": 314674, "key_press": -1, "type": "PRE_RECALL_ALERT", "trial_index": 74}, "uniqueid": "MTK3000:3DHE4R9OCXI8NIZB2NSL0B00DBF2GC", "dateTime": 1519663887236}, {"current_trial": 75, "trialdata": {"rt": [2411, 4683, 5811, 7715, 10499, 14771], "recwords": ["france", "stream", "hornet", "jelly", "tribe", "bubble"], "key_times": [1069, 1307, 1419, 2107, 2179, 2235, 2411, 2843, 3034, 3291, 3331, 3579, 3979, 4171, 4259, 4683, 5019, 5139, 5267, 5403, 5499, 5587, 5811, 6723, 6907, 7235, 7387, 7491, 7715, 8579, 8659, 8843, 9115, 9331, 10499, 13547, 13682, 13826, 13987, 14115, 14443, 14771], "trial_type": "free-recall", "conditions": [18, 1200, "v", 18000], "internal_node_id": "0.0-57.0-0.0", "key_presses": [70, 82, 65, 78, 67, 69, 13, 83, 84, 82, 69, 77, 8, 65, 77, 13, 72, 79, 82, 78, 69, 84, 13, 74, 69, 76, 76, 89, 13, 84, 82, 73, 66, 69, 13, 66, 85, 66, 66, 76, 69, 13], "trial": 1, "time_elapsed": 374680, "type": "FREE_RECALL", "trial_index": 75}, "uniqueid": "MTK3000:3DHE4R9OCXI8NIZB2NSL0B00DBF2GC", "dateTime": 1519663947243}, {"current_trial": 76, "trialdata": {"rt": 22968, "trial_type": "text", "internal_node_id": "0.0-58.0", "time_elapsed": 399650, "key_press": 32, "type": "INSTRUCTIONS", "trial_index": 76}, "uniqueid": "MTK3000:3DHE4R9OCXI8NIZB2NSL0B00DBF2GC", "dateTime": 1519663972213}, {"current_trial": 77, "trialdata": {"rt": [3084, 4612, 6348, 8444, 10844, 15740, 18451, 19980, 22595], "trial_type": "math-distractor", "key_times": [2636, 2780, 3084, 4364, 4500, 4612, 5980, 6060, 6348, 8092, 8251, 8444, 10268, 10404, 10844, 15436, 15588, 15740, 18084, 18275, 18451, 19595, 19772, 19980, 22196, 22323, 22595], "responses": ["11", "11", "12", "19", "22", "14", "17", "18", "14"], "num2": [7, 2, 4, 5, 7, 1, 7, 7, 4, 4], "num3": [2, 2, 2, 8, 8, 7, 8, 8, 3, 2], "conditions": [12, 800, "v", 24000], "internal_node_id": "0.0-59.0", "key_presses": [97, 97, 13, 97, 97, 13, 97, 98, 13, 97, 105, 13, 98, 98, 13, 97, 100, 13, 97, 103, 13, 97, 104, 13, 97, 100, 13], "trial": 2, "time_elapsed": 424654, "type": "DISTRACTOR", "trial_index": 77, "num1": [3, 7, 6, 6, 7, 7, 2, 3, 7, 9]}, "uniqueid": "MTK3000:3DHE4R9OCXI8NIZB2NSL0B00DBF2GC", "dateTime": 1519663997216}, {"current_trial": 78, "trialdata": {"rt": -1, "trial_type": "single-stim", "stimulus": "<p id=\"stim\">10</p>", "internal_node_id": "0.0-60.0-0.0", "time_elapsed": 427656, "key_press": -1, "trial_index": 78}, "uniqueid": "MTK3000:3DHE4R9OCXI8NIZB2NSL0B00DBF2GC", "dateTime": 1519664000218}, {"current_trial": 79, "trialdata": {"rt": -1, "trial_type": "single-stim", "stimulus": "<p id=\"stim\">9</p>", "internal_node_id": "0.0-60.0-1.0", "time_elapsed": 428657, "key_press": -1, "trial_index": 79}, "uniqueid": "MTK3000:3DHE4R9OCXI8NIZB2NSL0B00DBF2GC", "dateTime": 1519664001219}, {"current_trial": 80, "trialdata": {"rt": -1, "trial_type": "single-stim", "stimulus": "<p id=\"stim\">8</p>", "internal_node_id": "0.0-60.0-2.0", "time_elapsed": 429658, "key_press": -1, "trial_index": 80}, "uniqueid": "MTK3000:3DHE4R9OCXI8NIZB2NSL0B00DBF2GC", "dateTime": 1519664002221}, {"current_trial": 81, "trialdata": {"rt": -1, "trial_type": "single-stim", "stimulus": "<p id=\"stim\">7</p>", "internal_node_id": "0.0-60.0-3.0", "time_elapsed": 430660, "key_press": -1, "trial_index": 81}, "uniqueid": "MTK3000:3DHE4R9OCXI8NIZB2NSL0B00DBF2GC", "dateTime": 1519664003222}, {"current_trial": 82, "trialdata": {"rt": -1, "trial_type": "single-stim", "stimulus": "<p id=\"stim\">6</p>", "internal_node_id": "0.0-60.0-4.0", "time_elapsed": 431661, "key_press": -1, "trial_index": 82}, "uniqueid": "MTK3000:3DHE4R9OCXI8NIZB2NSL0B00DBF2GC", "dateTime": 1519664004224}, {"current_trial": 83, "trialdata": {"rt": -1, "trial_type": "single-stim", "stimulus": "<p id=\"stim\">5</p>", "internal_node_id": "0.0-60.0-5.0", "time_elapsed": 432663, "key_press": -1, "trial_index": 83}, "uniqueid": "MTK3000:3DHE4R9OCXI8NIZB2NSL0B00DBF2GC", "dateTime": 1519664005226}, {"current_trial": 84, "trialdata": {"rt": -1, "trial_type": "single-stim", "stimulus": "<p id=\"stim\">4</p>", "internal_node_id": "0.0-60.0-6.0", "time_elapsed": 433666, "key_press": -1, "trial_index": 84}, "uniqueid": "MTK3000:3DHE4R9OCXI8NIZB2NSL0B00DBF2GC", "dateTime": 1519664006228}, {"current_trial": 85, "trialdata": {"rt": -1, "trial_type": "single-stim", "stimulus": "<p id=\"stim\">3</p>", "internal_node_id": "0.0-60.0-7.0", "time_elapsed": 434667, "key_press": -1, "trial_index": 85}, "uniqueid": "MTK3000:3DHE4R9OCXI8NIZB2NSL0B00DBF2GC", "dateTime": 1519664007229}, {"current_trial": 86, "trialdata": {"rt": -1, "trial_type": "single-stim", "stimulus": "<p id=\"stim\">2</p>", "internal_node_id": "0.0-60.0-8.0", "time_elapsed": 435669, "key_press": -1, "trial_index": 86}, "uniqueid": "MTK3000:3DHE4R9OCXI8NIZB2NSL0B00DBF2GC", "dateTime": 1519664008231}, {"current_trial": 87, "trialdata": {"rt": -1, "trial_type": "single-stim", "stimulus": "<p id=\"stim\">1</p>", "internal_node_id": "0.0-60.0-9.0", "time_elapsed": 436670, "key_press": -1, "trial_index": 87}, "uniqueid": "MTK3000:3DHE4R9OCXI8NIZB2NSL0B00DBF2GC", "dateTime": 1519664009232}, {"current_trial": 88, "trialdata": {"rt": -1, "trial_type": "single-stim", "stimulus": "<p id=\"stim\">+</p>", "internal_node_id": "0.0-61.0-0.0", "time_elapsed": 438171, "key_press": -1, "type": "FIXATION", "trial_index": 88}, "uniqueid": "MTK3000:3DHE4R9OCXI8NIZB2NSL0B00DBF2GC", "dateTime": 1519664010733}, {"current_trial": 89, "trialdata": {"rt": -1, "trial_type": "single-stim", "word": "gymnast", "stimulus": "<p id=\"stim\">GYMNAST</p>", "conditions": [12, 800, "v", 24000], "internal_node_id": "0.0-62.0", "trial": 2, "time_elapsed": 438972, "serialpos": 0, "key_press": -1, "wordID": 674, "type": "PRES_VIS", "trial_index": 89}, "uniqueid": "MTK3000:3DHE4R9OCXI8NIZB2NSL0B00DBF2GC", "dateTime": 1519664011534}, {"current_trial": 90, "trialdata": {"rt": -1, "trial_type": "single-stim", "word": "tortoise", "stimulus": "<p id=\"stim\">TORTOISE</p>", "conditions": [12, 800, "v", 24000], "internal_node_id": "0.0-63.0", "trial": 2, "time_elapsed": 440601, "serialpos": 1, "key_press": -1, "wordID": 1485, "type": "PRES_VIS", "trial_index": 90}, "uniqueid": "MTK3000:3DHE4R9OCXI8NIZB2NSL0B00DBF2GC", "dateTime": 1519664013163}, {"current_trial": 91, "trialdata": {"rt": -1, "trial_type": "single-stim", "word": "world", "stimulus": "<p id=\"stim\">WORLD</p>", "conditions": [12, 800, "v", 24000], "internal_node_id": "0.0-64.0", "trial": 2, "time_elapsed": 442297, "serialpos": 2, "key_press": -1, "wordID": 1621, "type": "PRES_VIS", "trial_index": 91}, "uniqueid": "MTK3000:3DHE4R9OCXI8NIZB2NSL0B00DBF2GC", "dateTime": 1519664014859}, {"current_trial": 92, "trialdata": {"rt": -1, "trial_type": "single-stim", "word": "swimmer", "stimulus": "<p id=\"stim\">SWIMMER</p>", "conditions": [12, 800, "v", 24000], "internal_node_id": "0.0-65.0", "trial": 2, "time_elapsed": 444235, "serialpos": 3, "key_press": -1, "wordID": 1419, "type": "PRES_VIS", "trial_index": 92}, "uniqueid": "MTK3000:3DHE4R9OCXI8NIZB2NSL0B00DBF2GC", "dateTime": 1519664016797}, {"current_trial": 93, "trialdata": {"rt": -1, "trial_type": "single-stim", "word": "fireplace", "stimulus": "<p id=\"stim\">FIREPLACE</p>", "conditions": [12, 800, "v", 24000], "internal_node_id": "0.0-66.0", "trial": 2, "time_elapsed": 446002, "serialpos": 4, "key_press": -1, "wordID": 569, "type": "PRES_VIS", "trial_index": 93}, "uniqueid": "MTK3000:3DHE4R9OCXI8NIZB2NSL0B00DBF2GC", "dateTime": 1519664018564}, {"current_trial": 94, "trialdata": {"rt": -1, "trial_type": "single-stim", "word": "stove", "stimulus": "<p id=\"stim\">STOVE</p>", "conditions": [12, 800, "v", 24000], "internal_node_id": "0.0-67.0", "trial": 2, "time_elapsed": 447919, "serialpos": 5, "key_press": -1, "wordID": 1387, "type": "PRES_VIS", "trial_index": 94}, "uniqueid": "MTK3000:3DHE4R9OCXI8NIZB2NSL0B00DBF2GC", "dateTime": 1519664020481}, {"current_trial": 95, "trialdata": {"rt": -1, "trial_type": "single-stim", "word": "lion", "stimulus": "<p id=\"stim\">LION</p>", "conditions": [12, 800, "v", 24000], "internal_node_id": "0.0-68.0", "trial": 2, "time_elapsed": 449804, "serialpos": 6, "key_press": -1, "wordID": 826, "type": "PRES_VIS", "trial_index": 95}, "uniqueid": "MTK3000:3DHE4R9OCXI8NIZB2NSL0B00DBF2GC", "dateTime": 1519664022366}, {"current_trial": 96, "trialdata": {"rt": -1, "trial_type": "single-stim", "word": "puddle", "stimulus": "<p id=\"stim\">PUDDLE</p>", "conditions": [12, 800, "v", 24000], "internal_node_id": "0.0-69.0", "trial": 2, "time_elapsed": 451597, "serialpos": 7, "key_press": -1, "wordID": 1139, "type": "PRES_VIS", "trial_index": 96}, "uniqueid": "MTK3000:3DHE4R9OCXI8NIZB2NSL0B00DBF2GC", "dateTime": 1519664024159}, {"current_trial": 97, "trialdata": {"rt": -1, "trial_type": "single-stim", "word": "umpire", "stimulus": "<p id=\"stim\">UMPIRE</p>", "conditions": [12, 800, "v", 24000], "internal_node_id": "0.0-70.0", "trial": 2, "time_elapsed": 453460, "serialpos": 8, "key_press": -1, "wordID": 1534, "type": "PRES_VIS", "trial_index": 97}, "uniqueid": "MTK3000:3DHE4R9OCXI8NIZB2NSL0B00DBF2GC", "dateTime": 1519664026022}, {"current_trial": 98, "trialdata": {"rt": -1, "trial_type": "single-stim", "word": "glove", "stimulus": "<p id=\"stim\">GLOVE</p>", "conditions": [12, 800, "v", 24000], "internal_node_id": "0.0-71.0", "trial": 2, "time_elapsed": 455154, "serialpos": 9, "key_press": -1, "wordID": 641, "type": "PRES_VIS", "trial_index": 98}, "uniqueid": "MTK3000:3DHE4R9OCXI8NIZB2NSL0B00DBF2GC", "dateTime": 1519664027716}, {"current_trial": 99, "trialdata": {"rt": -1, "trial_type": "single-stim", "word": "machine", "stimulus": "<p id=\"stim\">MACHINE</p>", "conditions": [12, 800, "v", 24000], "internal_node_id": "0.0-72.0", "trial": 2, "time_elapsed": 456944, "serialpos": 10, "key_press": -1, "wordID": 851, "type": "PRES_VIS", "trial_index": 99}, "uniqueid": "MTK3000:3DHE4R9OCXI8NIZB2NSL0B00DBF2GC", "dateTime": 1519664029506}, {"current_trial": 100, "trialdata": {"rt": -1, "trial_type": "single-stim", "word": "cigar", "stimulus": "<p id=\"stim\">CIGAR</p>", "conditions": [12, 800, "v", 24000], "internal_node_id": "0.0-73.0", "trial": 2, "time_elapsed": 458768, "serialpos": 11, "key_press": -1, "wordID": 307, "type": "PRES_VIS", "trial_index": 100}, "uniqueid": "MTK3000:3DHE4R9OCXI8NIZB2NSL0B00DBF2GC", "dateTime": 1519664031330}, {"current_trial": 101, "trialdata": {"rt": -1, "trial_type": "single-stim", "stimulus": "", "internal_node_id": "0.0-74.0-0.0", "time_elapsed": 460978, "key_press": -1, "type": "PRE_RECALL_DELAY", "trial_index": 101}, "uniqueid": "MTK3000:3DHE4R9OCXI8NIZB2NSL0B00DBF2GC", "dateTime": 1519664033540}, {"current_trial": 102, "trialdata": {"rt": -1000, "trial_type": "single-audio", "stimulus": "/static/audio/400Hz.wav", "internal_node_id": "0.0-75.0", "time_elapsed": 461480, "key_press": -1, "type": "PRE_RECALL_ALERT", "trial_index": 102}, "uniqueid": "MTK3000:3DHE4R9OCXI8NIZB2NSL0B00DBF2GC", "dateTime": 1519664034043}, {"current_trial": 103, "trialdata": {"rt": [1984, 3173, 5070, 54798], "recwords": ["cigar", "machine", "umpire", "gymnast"], "key_times": [1134, 1286, 1429, 1646, 1726, 1984, 2349, 2462, 2605, 2630, 2797, 2893, 3007, 3173, 3797, 3902, 4165, 4405, 4741, 4829, 5070, 53607, 53798, 54102, 54286, 54374, 54446, 54630, 54798], "trial_type": "free-recall", "conditions": [12, 800, "v", 24000], "internal_node_id": "0.0-76.0-0.0", "key_presses": [67, 73, 71, 65, 82, 13, 77, 65, 67, 72, 73, 78, 69, 13, 85, 77, 80, 73, 82, 69, 13, 71, 89, 77, 78, 65, 83, 84, 13], "trial": 2, "time_elapsed": 521487, "type": "FREE_RECALL", "trial_index": 103}, "uniqueid": "MTK3000:3DHE4R9OCXI8NIZB2NSL0B00DBF2GC", "dateTime": 1519664094053}, {"current_trial": 104, "trialdata": {"rt": 6501, "trial_type": "text", "internal_node_id": "0.0-77.0", "time_elapsed": 529994, "key_press": 13, "type": "INSTRUCTIONS", "trial_index": 104}, "uniqueid": "MTK3000:3DHE4R9OCXI8NIZB2NSL0B00DBF2GC", "dateTime": 1519664102556}, {"current_trial": 105, "trialdata": {"rt": [2828, 4572, 7468, 10124], "trial_type": "math-distractor", "key_times": [2516, 2828, 4124, 4292, 4572, 7172, 7292, 7468, 9909, 9956, 10124], "responses": ["9", "11", "19", "21"], "num2": [5, 7, 5, 6, 5], "num3": [3, 2, 8, 8, 4], "conditions": [24, 1600, "v", 12000], "internal_node_id": "0.0-78.0", "key_presses": [105, 13, 97, 97, 13, 97, 105, 13, 98, 97, 13], "trial": 3, "time_elapsed": 543998, "type": "DISTRACTOR", "trial_index": 105, "num1": [1, 2, 6, 7, 5]}, "uniqueid": "MTK3000:3DHE4R9OCXI8NIZB2NSL0B00DBF2GC", "dateTime": 1519664116560}, {"current_trial": 106, "trialdata": {"rt": -1, "trial_type": "single-stim", "stimulus": "<p id=\"stim\">10</p>", "internal_node_id": "0.0-79.0-0.0", "time_elapsed": 547000, "key_press": -1, "trial_index": 106}, "uniqueid": "MTK3000:3DHE4R9OCXI8NIZB2NSL0B00DBF2GC", "dateTime": 1519664119562}, {"current_trial": 107, "trialdata": {"rt": -1, "trial_type": "single-stim", "stimulus": "<p id=\"stim\">9</p>", "internal_node_id": "0.0-79.0-1.0", "time_elapsed": 548001, "key_press": -1, "trial_index": 107}, "uniqueid": "MTK3000:3DHE4R9OCXI8NIZB2NSL0B00DBF2GC", "dateTime": 1519664120563}, {"current_trial": 108, "trialdata": {"rt": -1, "trial_type": "single-stim", "stimulus": "<p id=\"stim\">8</p>", "internal_node_id": "0.0-79.0-2.0", "time_elapsed": 549002, "key_press": -1, "trial_index": 108}, "uniqueid": "MTK3000:3DHE4R9OCXI8NIZB2NSL0B00DBF2GC", "dateTime": 1519664121564}, {"current_trial": 109, "trialdata": {"rt": -1, "trial_type": "single-stim", "stimulus": "<p id=\"stim\">7</p>", "internal_node_id": "0.0-79.0-3.0", "time_elapsed": 550003, "key_press": -1, "trial_index": 109}, "uniqueid": "MTK3000:3DHE4R9OCXI8NIZB2NSL0B00DBF2GC", "dateTime": 1519664122565}, {"current_trial": 110, "trialdata": {"rt": -1, "trial_type": "single-stim", "stimulus": "<p id=\"stim\">6</p>", "internal_node_id": "0.0-79.0-4.0", "time_elapsed": 551004, "key_press": -1, "trial_index": 110}, "uniqueid": "MTK3000:3DHE4R9OCXI8NIZB2NSL0B00DBF2GC", "dateTime": 1519664123566}, {"current_trial": 111, "trialdata": {"rt": -1, "trial_type": "single-stim", "stimulus": "<p id=\"stim\">5</p>", "internal_node_id": "0.0-79.0-5.0", "time_elapsed": 552005, "key_press": -1, "trial_index": 111}, "uniqueid": "MTK3000:3DHE4R9OCXI8NIZB2NSL0B00DBF2GC", "dateTime": 1519664124567}, {"current_trial": 112, "trialdata": {"rt": -1, "trial_type": "single-stim", "stimulus": "<p id=\"stim\">4</p>", "internal_node_id": "0.0-79.0-6.0", "time_elapsed": 553006, "key_press": -1, "trial_index": 112}, "uniqueid": "MTK3000:3DHE4R9OCXI8NIZB2NSL0B00DBF2GC", "dateTime": 1519664125568}, {"current_trial": 113, "trialdata": {"rt": -1, "trial_type": "single-stim", "stimulus": "<p id=\"stim\">3</p>", "internal_node_id": "0.0-79.0-7.0", "time_elapsed": 554007, "key_press": -1, "trial_index": 113}, "uniqueid": "MTK3000:3DHE4R9OCXI8NIZB2NSL0B00DBF2GC", "dateTime": 1519664126569}, {"current_trial": 114, "trialdata": {"rt": -1, "trial_type": "single-stim", "stimulus": "<p id=\"stim\">2</p>", "internal_node_id": "0.0-79.0-8.0", "time_elapsed": 555009, "key_press": -1, "trial_index": 114}, "uniqueid": "MTK3000:3DHE4R9OCXI8NIZB2NSL0B00DBF2GC", "dateTime": 1519664127571}, {"current_trial": 115, "trialdata": {"rt": -1, "trial_type": "single-stim", "stimulus": "<p id=\"stim\">1</p>", "internal_node_id": "0.0-79.0-9.0", "time_elapsed": 556011, "key_press": -1, "trial_index": 115}, "uniqueid": "MTK3000:3DHE4R9OCXI8NIZB2NSL0B00DBF2GC", "dateTime": 1519664128573}, {"current_trial": 116, "trialdata": {"rt": -1, "trial_type": "single-stim", "stimulus": "<p id=\"stim\">+</p>", "internal_node_id": "0.0-80.0-0.0", "time_elapsed": 557513, "key_press": -1, "type": "FIXATION", "trial_index": 116}, "uniqueid": "MTK3000:3DHE4R9OCXI8NIZB2NSL0B00DBF2GC", "dateTime": 1519664130075}, {"current_trial": 117, "trialdata": {"rt": -1, "trial_type": "single-stim", "word": "peach", "stimulus": "<p id=\"stim\">PEACH</p>", "conditions": [24, 1600, "v", 12000], "internal_node_id": "0.0-81.0", "trial": 3, "time_elapsed": 559114, "serialpos": 0, "key_press": -1, "wordID": 1030, "type": "PRES_VIS", "trial_index": 117}, "uniqueid": "MTK3000:3DHE4R9OCXI8NIZB2NSL0B00DBF2GC", "dateTime": 1519664131676}, {"current_trial": 118, "trialdata": {"rt": -1, "trial_type": "single-stim", "word": "picture", "stimulus": "<p id=\"stim\">PICTURE</p>", "conditions": [24, 1600, "v", 12000], "internal_node_id": "0.0-82.0", "trial": 3, "time_elapsed": 561671, "serialpos": 1, "key_press": -1, "wordID": 1060, "type": "PRES_VIS", "trial_index": 118}, "uniqueid": "MTK3000:3DHE4R9OCXI8NIZB2NSL0B00DBF2GC", "dateTime": 1519664134233}, {"current_trial": 119, "trialdata": {"rt": -1, "trial_type": "single-stim", "word": "termite", "stimulus": "<p id=\"stim\">TERMITE</p>", "conditions": [24, 1600, "v", 12000], "internal_node_id": "0.0-83.0", "trial": 3, "time_elapsed": 564465, "serialpos": 2, "key_press": -1, "wordID": 1450, "type": "PRES_VIS", "trial_index": 119}, "uniqueid": "MTK3000:3DHE4R9OCXI8NIZB2NSL0B00DBF2GC", "dateTime": 1519664137027}, {"current_trial": 120, "trialdata": {"rt": -1, "trial_type": "single-stim", "word": "fox", "stimulus": "<p id=\"stim\">FOX</p>", "conditions": [24, 1600, "v", 12000], "internal_node_id": "0.0-84.0", "trial": 3, "time_elapsed": 567074, "serialpos": 3, "key_press": -1, "wordID": 597, "type": "PRES_VIS", "trial_index": 120}, "uniqueid": "MTK3000:3DHE4R9OCXI8NIZB2NSL0B00DBF2GC", "dateTime": 1519664139636}, {"current_trial": 121, "trialdata": {"rt": -1, "trial_type": "single-stim", "word": "knife", "stimulus": "<p id=\"stim\">KNIFE</p>", "conditions": [24, 1600, "v", 12000], "internal_node_id": "0.0-85.0", "trial": 3, "time_elapsed": 569639, "serialpos": 4, "key_press": -1, "wordID": 784, "type": "PRES_VIS", "trial_index": 121}, "uniqueid": "MTK3000:3DHE4R9OCXI8NIZB2NSL0B00DBF2GC", "dateTime": 1519664142202}, {"current_trial": 122, "trialdata": {"rt": -1, "trial_type": "single-stim", "word": "clamp", "stimulus": "<p id=\"stim\">CLAMP</p>", "conditions": [24, 1600, "v", 12000], "internal_node_id": "0.0-86.0", "trial": 3, "time_elapsed": 572383, "serialpos": 5, "key_press": -1, "wordID": 315, "type": "PRES_VIS", "trial_index": 122}, "uniqueid": "MTK3000:3DHE4R9OCXI8NIZB2NSL0B00DBF2GC", "dateTime": 1519664144945}, {"current_trial": 123, "trialdata": {"rt": -1, "trial_type": "single-stim", "word": "message", "stimulus": "<p id=\"stim\">MESSAGE</p>", "conditions": [24, 1600, "v", 12000], "internal_node_id": "0.0-87.0", "trial": 3, "time_elapsed": 574985, "serialpos": 6, "key_press": -1, "wordID": 887, "type": "PRES_VIS", "trial_index": 123}, "uniqueid": "MTK3000:3DHE4R9OCXI8NIZB2NSL0B00DBF2GC", "dateTime": 1519664147547}, {"current_trial": 124, "trialdata": {"rt": -1, "trial_type": "single-stim", "word": "canyon", "stimulus": "<p id=\"stim\">CANYON</p>", "conditions": [24, 1600, "v", 12000], "internal_node_id": "0.0-88.0", "trial": 3, "time_elapsed": 577637, "serialpos": 7, "key_press": -1, "wordID": 234, "type": "PRES_VIS", "trial_index": 124}, "uniqueid": "MTK3000:3DHE4R9OCXI8NIZB2NSL0B00DBF2GC", "dateTime": 1519664150199}, {"current_trial": 125, "trialdata": {"rt": -1, "trial_type": "single-stim", "word": "valley", "stimulus": "<p id=\"stim\">VALLEY</p>", "conditions": [24, 1600, "v", 12000], "internal_node_id": "0.0-89.0", "trial": 3, "time_elapsed": 580434, "serialpos": 8, "key_press": -1, "wordID": 1544, "type": "PRES_VIS", "trial_index": 125}, "uniqueid": "MTK3000:3DHE4R9OCXI8NIZB2NSL0B00DBF2GC", "dateTime": 1519664152996}, {"current_trial": 126, "trialdata": {"rt": -1, "trial_type": "single-stim", "word": "razor", "stimulus": "<p id=\"stim\">RAZOR</p>", "conditions": [24, 1600, "v", 12000], "internal_node_id": "0.0-90.0", "trial": 3, "time_elapsed": 583196, "serialpos": 9, "key_press": -1, "wordID": 1170, "type": "PRES_VIS", "trial_index": 126}, "uniqueid": "MTK3000:3DHE4R9OCXI8NIZB2NSL0B00DBF2GC", "dateTime": 1519664155758}, {"current_trial": 127, "trialdata": {"rt": -1, "trial_type": "single-stim", "word": "twig", "stimulus": "<p id=\"stim\">TWIG</p>", "conditions": [24, 1600, "v", 12000], "internal_node_id": "0.0-91.0", "trial": 3, "time_elapsed": 585609, "serialpos": 10, "key_press": -1, "wordID": 1526, "type": "PRES_VIS", "trial_index": 127}, "uniqueid": "MTK3000:3DHE4R9OCXI8NIZB2NSL0B00DBF2GC", "dateTime": 1519664158171}, {"current_trial": 128, "trialdata": {"rt": -1, "trial_type": "single-stim", "word": "pistol", "stimulus": "<p id=\"stim\">PISTOL</p>", "conditions": [24, 1600, "v", 12000], "internal_node_id": "0.0-92.0", "trial": 3, "time_elapsed": 588216, "serialpos": 11, "key_press": -1, "wordID": 1074, "type": "PRES_VIS", "trial_index": 128}, "uniqueid": "MTK3000:3DHE4R9OCXI8NIZB2NSL0B00DBF2GC", "dateTime": 1519664160778}, {"current_trial": 129, "trialdata": {"rt": -1, "trial_type": "single-stim", "word": "lagoon", "stimulus": "<p id=\"stim\">LAGOON</p>", "conditions": [24, 1600, "v", 12000], "internal_node_id": "0.0-93.0", "trial": 3, "time_elapsed": 590777, "serialpos": 12, "key_press": -1, "wordID": 794, "type": "PRES_VIS", "trial_index": 129}, "uniqueid": "MTK3000:3DHE4R9OCXI8NIZB2NSL0B00DBF2GC", "dateTime": 1519664163339}, {"current_trial": 130, "trialdata": {"rt": -1, "trial_type": "single-stim", "word": "missile", "stimulus": "<p id=\"stim\">MISSILE</p>", "conditions": [24, 1600, "v", 12000], "internal_node_id": "0.0-94.0", "trial": 3, "time_elapsed": 593233, "serialpos": 13, "key_press": -1, "wordID": 899, "type": "PRES_VIS", "trial_index": 130}, "uniqueid": "MTK3000:3DHE4R9OCXI8NIZB2NSL0B00DBF2GC", "dateTime": 1519664165795}, {"current_trial": 131, "trialdata": {"rt": -1, "trial_type": "single-stim", "word": "rocket", "stimulus": "<p id=\"stim\">ROCKET</p>", "conditions": [24, 1600, "v", 12000], "internal_node_id": "0.0-95.0", "trial": 3, "time_elapsed": 595879, "serialpos": 14, "key_press": -1, "wordID": 1201, "type": "PRES_VIS", "trial_index": 131}, "uniqueid": "MTK3000:3DHE4R9OCXI8NIZB2NSL0B00DBF2GC", "dateTime": 1519664168441}, {"current_trial": 132, "trialdata": {"rt": -1, "trial_type": "single-stim", "word": "flask", "stimulus": "<p id=\"stim\">FLASK</p>", "conditions": [24, 1600, "v", 12000], "internal_node_id": "0.0-96.0", "trial": 3, "time_elapsed": 598325, "serialpos": 15, "key_press": -1, "wordID": 575, "type": "PRES_VIS", "trial_index": 132}, "uniqueid": "MTK3000:3DHE4R9OCXI8NIZB2NSL0B00DBF2GC", "dateTime": 1519664170887}, {"current_trial": 133, "trialdata": {"rt": -1, "trial_type": "single-stim", "word": "marsh", "stimulus": "<p id=\"stim\">MARSH</p>", "conditions": [24, 1600, "v", 12000], "internal_node_id": "0.0-97.0", "trial": 3, "time_elapsed": 600748, "serialpos": 16, "key_press": -1, "wordID": 873, "type": "PRES_VIS", "trial_index": 133}, "uniqueid": "MTK3000:3DHE4R9OCXI8NIZB2NSL0B00DBF2GC", "dateTime": 1519664173310}, {"current_trial": 134, "trialdata": {"rt": -1, "trial_type": "single-stim", "word": "cellar", "stimulus": "<p id=\"stim\">CELLAR</p>", "conditions": [24, 1600, "v", 12000], "internal_node_id": "0.0-98.0", "trial": 3, "time_elapsed": 603241, "serialpos": 17, "key_press": -1, "wordID": 266, "type": "PRES_VIS", "trial_index": 134}, "uniqueid": "MTK3000:3DHE4R9OCXI8NIZB2NSL0B00DBF2GC", "dateTime": 1519664175803}, {"current_trial": 135, "trialdata": {"rt": -1, "trial_type": "single-stim", "word": "spoon", "stimulus": "<p id=\"stim\">SPOON</p>", "conditions": [24, 1600, "v", 12000], "internal_node_id": "0.0-99.0", "trial": 3, "time_elapsed": 605956, "serialpos": 18, "key_press": -1, "wordID": 1356, "type": "PRES_VIS", "trial_index": 135}, "uniqueid": "MTK3000:3DHE4R9OCXI8NIZB2NSL0B00DBF2GC", "dateTime": 1519664178518}, {"current_trial": 136, "trialdata": {"rt": -1, "trial_type": "single-stim", "word": "captive", "stimulus": "<p id=\"stim\">CAPTIVE</p>", "conditions": [24, 1600, "v", 12000], "internal_node_id": "0.0-100.0", "trial": 3, "time_elapsed": 608404, "serialpos": 19, "key_press": -1, "wordID": 239, "type": "PRES_VIS", "trial_index": 136}, "uniqueid": "MTK3000:3DHE4R9OCXI8NIZB2NSL0B00DBF2GC", "dateTime": 1519664180966}, {"current_trial": 137, "trialdata": {"rt": -1, "trial_type": "single-stim", "word": "blouse", "stimulus": "<p id=\"stim\">BLOUSE</p>", "conditions": [24, 1600, "v", 12000], "internal_node_id": "0.0-101.0", "trial": 3, "time_elapsed": 611078, "serialpos": 20, "key_press": -1, "wordID": 138, "type": "PRES_VIS", "trial_index": 137}, "uniqueid": "MTK3000:3DHE4R9OCXI8NIZB2NSL0B00DBF2GC", "dateTime": 1519664183641}, {"current_trial": 138, "trialdata": {"rt": -1, "trial_type": "single-stim", "word": "fleet", "stimulus": "<p id=\"stim\">FLEET</p>", "conditions": [24, 1600, "v", 12000], "internal_node_id": "0.0-102.0", "trial": 3, "time_elapsed": 613576, "serialpos": 21, "key_press": -1, "wordID": 577, "type": "PRES_VIS", "trial_index": 138}, "uniqueid": "MTK3000:3DHE4R9OCXI8NIZB2NSL0B00DBF2GC", "dateTime": 1519664186138}, {"current_trial": 139, "trialdata": {"rt": -1, "trial_type": "single-stim", "word": "crab", "stimulus": "<p id=\"stim\">CRAB</p>", "conditions": [24, 1600, "v", 12000], "internal_node_id": "0.0-103.0", "trial": 3, "time_elapsed": 615995, "serialpos": 22, "key_press": -1, "wordID": 396, "type": "PRES_VIS", "trial_index": 139}, "uniqueid": "MTK3000:3DHE4R9OCXI8NIZB2NSL0B00DBF2GC", "dateTime": 1519664188557}, {"current_trial": 140, "trialdata": {"rt": -1, "trial_type": "single-stim", "word": "permit", "stimulus": "<p id=\"stim\">PERMIT</p>", "conditions": [24, 1600, "v", 12000], "internal_node_id": "0.0-104.0", "trial": 3, "time_elapsed": 618649, "serialpos": 23, "key_press": -1, "wordID": 1050, "type": "PRES_VIS", "trial_index": 140}, "uniqueid": "MTK3000:3DHE4R9OCXI8NIZB2NSL0B00DBF2GC", "dateTime": 1519664191211}, {"current_trial": 141, "trialdata": {"rt": -1, "trial_type": "single-stim", "stimulus": "", "internal_node_id": "0.0-105.0-0.0", "time_elapsed": 621011, "key_press": -1, "type": "PRE_RECALL_DELAY", "trial_index": 141}, "uniqueid": "MTK3000:3DHE4R9OCXI8NIZB2NSL0B00DBF2GC", "dateTime": 1519664193573}, {"current_trial": 142, "trialdata": {"rt": -1000, "trial_type": "single-audio", "stimulus": "/static/audio/400Hz.wav", "internal_node_id": "0.0-106.0", "time_elapsed": 621513, "key_press": -1, "type": "PRE_RECALL_ALERT", "trial_index": 142}, "uniqueid": "MTK3000:3DHE4R9OCXI8NIZB2NSL0B00DBF2GC", "dateTime": 1519664194075}, {"current_trial": 143, "trialdata": {"rt": [1708, 2668, 4572, 5604, 6892, 8556, 10212, 13276, 15326, 31965, 44493], "recwords": ["permit", "crab", "blouse", "lagoon", "marsh", "missile", "pistol", "canyon", "fleet", "captive", "peach"], "key_times": [901, 1060, 1140, 1260, 1333, 1437, 1708, 2004, 2212, 2301, 2373, 2668, 3013, 3132, 3325, 3468, 4012, 4092, 4572, 4852, 4940, 5116, 5228, 5356, 5460, 5604, 6132, 6220, 6308, 6524, 6652, 6892, 7300, 7404, 7588, 7740, 8068, 8300, 8404, 8556, 9028, 9156, 9308, 9564, 9660, 9876, 10212, 12532, 12628, 12692, 12892, 12972, 13068, 13276, 14574, 14662, 14830, 14934, 15294, 15326, 31277, 31333, 31461, 31573, 31709, 31797, 31853, 31965, 43685, 43796, 43861, 44148, 44277, 44493], "trial_type": "free-recall", "conditions": [24, 1600, "v", 12000], "internal_node_id": "0.0-107.0-0.0", "key_presses": [80, 69, 82, 77, 73, 84, 13, 67, 82, 65, 66, 13, 66, 76, 79, 85, 83, 69, 13, 76, 65, 71, 79, 79, 78, 13, 77, 65, 82, 83, 72, 13, 77, 73, 83, 83, 73, 76, 69, 13, 80, 73, 83, 84, 79, 76, 13, 67, 65, 78, 89, 79, 78, 13, 70, 76, 69, 69, 84, 13, 67, 65, 80, 84, 73, 86, 69, 13, 80, 69, 65, 67, 72, 13], "trial": 3, "time_elapsed": 681519, "type": "FREE_RECALL", "trial_index": 143}, "uniqueid": "MTK3000:3DHE4R9OCXI8NIZB2NSL0B00DBF2GC", "dateTime": 1519664254086}, {"current_trial": 144, "trialdata": {"rt": 859, "trial_type": "text", "internal_node_id": "0.0-108.0", "time_elapsed": 684384, "key_press": 13, "type": "INSTRUCTIONS", "trial_index": 144}, "uniqueid": "MTK3000:3DHE4R9OCXI8NIZB2NSL0B00DBF2GC", "dateTime": 1519664256946}, {"current_trial": 145, "trialdata": {"rt": [3397, 5476, 7669, 11151, 13583, 16367, 18520, 20463, 22351], "trial_type": "math-distractor", "key_times": [3117, 3229, 3397, 5228, 5292, 5476, 7436, 7500, 7669, 10879, 10983, 11151, 13327, 13439, 13583, 16175, 16367, 18286, 18423, 18520, 20287, 20463, 22135, 22239, 22351], "responses": ["22", "12", "21", "12", "20", "8", "11", "8", "10"], "num2": [7, 7, 9, 4, 2, 1, 4, 4, 2, 3], "num3": [9, 4, 9, 5, 9, 5, 3, 2, 2, 3], "conditions": [12, 1600, "v", 24000], "internal_node_id": "0.0-109.0", "key_presses": [98, 98, 13, 97, 98, 13, 98, 97, 13, 97, 98, 13, 98, 96, 13, 104, 13, 97, 97, 13, 104, 13, 97, 96, 13], "trial": 4, "time_elapsed": 710390, "type": "DISTRACTOR", "trial_index": 145, "num1": [8, 1, 3, 3, 9, 2, 4, 2, 6, 1]}, "uniqueid": "MTK3000:3DHE4R9OCXI8NIZB2NSL0B00DBF2GC", "dateTime": 1519664282952}, {"current_trial": 146, "trialdata": {"rt": -1, "trial_type": "single-stim", "stimulus": "<p id=\"stim\">10</p>", "internal_node_id": "0.0-110.0-0.0", "time_elapsed": 713392, "key_press": -1, "trial_index": 146}, "uniqueid": "MTK3000:3DHE4R9OCXI8NIZB2NSL0B00DBF2GC", "dateTime": 1519664285956}, {"current_trial": 147, "trialdata": {"rt": -1, "trial_type": "single-stim", "stimulus": "<p id=\"stim\">9</p>", "internal_node_id": "0.0-110.0-1.0", "time_elapsed": 714395, "key_press": -1, "trial_index": 147}, "uniqueid": "MTK3000:3DHE4R9OCXI8NIZB2NSL0B00DBF2GC", "dateTime": 1519664286957}, {"current_trial": 148, "trialdata": {"rt": -1, "trial_type": "single-stim", "stimulus": "<p id=\"stim\">8</p>", "internal_node_id": "0.0-110.0-2.0", "time_elapsed": 715397, "key_press": -1, "trial_index": 148}, "uniqueid": "MTK3000:3DHE4R9OCXI8NIZB2NSL0B00DBF2GC", "dateTime": 1519664287959}, {"current_trial": 149, "trialdata": {"rt": -1, "trial_type": "single-stim", "stimulus": "<p id=\"stim\">7</p>", "internal_node_id": "0.0-110.0-3.0", "time_elapsed": 716399, "key_press": -1, "trial_index": 149}, "uniqueid": "MTK3000:3DHE4R9OCXI8NIZB2NSL0B00DBF2GC", "dateTime": 1519664288961}, {"current_trial": 150, "trialdata": {"rt": -1, "trial_type": "single-stim", "stimulus": "<p id=\"stim\">6</p>", "internal_node_id": "0.0-110.0-4.0", "time_elapsed": 717401, "key_press": -1, "trial_index": 150}, "uniqueid": "MTK3000:3DHE4R9OCXI8NIZB2NSL0B00DBF2GC", "dateTime": 1519664289963}, {"current_trial": 151, "trialdata": {"rt": -1, "trial_type": "single-stim", "stimulus": "<p id=\"stim\">5</p>", "internal_node_id": "0.0-110.0-5.0", "time_elapsed": 718403, "key_press": -1, "trial_index": 151}, "uniqueid": "MTK3000:3DHE4R9OCXI8NIZB2NSL0B00DBF2GC", "dateTime": 1519664290965}, {"current_trial": 152, "trialdata": {"rt": -1, "trial_type": "single-stim", "stimulus": "<p id=\"stim\">4</p>", "internal_node_id": "0.0-110.0-6.0", "time_elapsed": 719405, "key_press": -1, "trial_index": 152}, "uniqueid": "MTK3000:3DHE4R9OCXI8NIZB2NSL0B00DBF2GC", "dateTime": 1519664291967}, {"current_trial": 153, "trialdata": {"rt": -1, "trial_type": "single-stim", "stimulus": "<p id=\"stim\">3</p>", "internal_node_id": "0.0-110.0-7.0", "time_elapsed": 720407, "key_press": -1, "trial_index": 153}, "uniqueid": "MTK3000:3DHE4R9OCXI8NIZB2NSL0B00DBF2GC", "dateTime": 1519664292969}, {"current_trial": 154, "trialdata": {"rt": -1, "trial_type": "single-stim", "stimulus": "<p id=\"stim\">2</p>", "internal_node_id": "0.0-110.0-8.0", "time_elapsed": 721409, "key_press": -1, "trial_index": 154}, "uniqueid": "MTK3000:3DHE4R9OCXI8NIZB2NSL0B00DBF2GC", "dateTime": 1519664293971}, {"current_trial": 155, "trialdata": {"rt": -1, "trial_type": "single-stim", "stimulus": "<p id=\"stim\">1</p>", "internal_node_id": "0.0-110.0-9.0", "time_elapsed": 722411, "key_press": -1, "trial_index": 155}, "uniqueid": "MTK3000:3DHE4R9OCXI8NIZB2NSL0B00DBF2GC", "dateTime": 1519664294973}, {"current_trial": 156, "trialdata": {"rt": -1, "trial_type": "single-stim", "stimulus": "<p id=\"stim\">+</p>", "internal_node_id": "0.0-111.0-0.0", "time_elapsed": 723912, "key_press": -1, "type": "FIXATION", "trial_index": 156}, "uniqueid": "MTK3000:3DHE4R9OCXI8NIZB2NSL0B00DBF2GC", "dateTime": 1519664296474}, {"current_trial": 157, "trialdata": {"rt": -1, "trial_type": "single-stim", "word": "denim", "stimulus": "<p id=\"stim\">DENIM</p>", "conditions": [12, 1600, "v", 24000], "internal_node_id": "0.0-112.0", "trial": 4, "time_elapsed": 725513, "serialpos": 0, "key_press": -1, "wordID": 445, "type": "PRES_VIS", "trial_index": 157}, "uniqueid": "MTK3000:3DHE4R9OCXI8NIZB2NSL0B00DBF2GC", "dateTime": 1519664298075}, {"current_trial": 158, "trialdata": {"rt": -1, "trial_type": "single-stim", "word": "plaid", "stimulus": "<p id=\"stim\">PLAID</p>", "conditions": [12, 1600, "v", 24000], "internal_node_id": "0.0-113.0", "trial": 4, "time_elapsed": 728159, "serialpos": 1, "key_press": -1, "wordID": 1079, "type": "PRES_VIS", "trial_index": 158}, "uniqueid": "MTK3000:3DHE4R9OCXI8NIZB2NSL0B00DBF2GC", "dateTime": 1519664300721}, {"current_trial": 159, "trialdata": {"rt": -1, "trial_type": "single-stim", "word": "banquet", "stimulus": "<p id=\"stim\">BANQUET</p>", "conditions": [12, 1600, "v", 24000], "internal_node_id": "0.0-114.0", "trial": 4, "time_elapsed": 730872, "serialpos": 2, "key_press": -1, "wordID": 85, "type": "PRES_VIS", "trial_index": 159}, "uniqueid": "MTK3000:3DHE4R9OCXI8NIZB2NSL0B00DBF2GC", "dateTime": 1519664303435}, {"current_trial": 160, "trialdata": {"rt": -1, "trial_type": "single-stim", "word": "dorm", "stimulus": "<p id=\"stim\">DORM</p>", "conditions": [12, 1600, "v", 24000], "internal_node_id": "0.0-115.0", "trial": 4, "time_elapsed": 733278, "serialpos": 3, "key_press": -1, "wordID": 487, "type": "PRES_VIS", "trial_index": 160}, "uniqueid": "MTK3000:3DHE4R9OCXI8NIZB2NSL0B00DBF2GC", "dateTime": 1519664305840}, {"current_trial": 161, "trialdata": {"rt": -1, "trial_type": "single-stim", "word": "banker", "stimulus": "<p id=\"stim\">BANKER</p>", "conditions": [12, 1600, "v", 24000], "internal_node_id": "0.0-116.0", "trial": 4, "time_elapsed": 735751, "serialpos": 4, "key_press": -1, "wordID": 83, "type": "PRES_VIS", "trial_index": 161}, "uniqueid": "MTK3000:3DHE4R9OCXI8NIZB2NSL0B00DBF2GC", "dateTime": 1519664308313}, {"current_trial": 162, "trialdata": {"rt": -1, "trial_type": "single-stim", "word": "sparrow", "stimulus": "<p id=\"stim\">SPARROW</p>", "conditions": [12, 1600, "v", 24000], "internal_node_id": "0.0-117.0", "trial": 4, "time_elapsed": 738541, "serialpos": 5, "key_press": -1, "wordID": 1346, "type": "PRES_VIS", "trial_index": 162}, "uniqueid": "MTK3000:3DHE4R9OCXI8NIZB2NSL0B00DBF2GC", "dateTime": 1519664311103}, {"current_trial": 163, "trialdata": {"rt": -1, "trial_type": "single-stim", "word": "lamp", "stimulus": "<p id=\"stim\">LAMP</p>", "conditions": [12, 1600, "v", 24000], "internal_node_id": "0.0-118.0", "trial": 4, "time_elapsed": 741237, "serialpos": 6, "key_press": -1, "wordID": 797, "type": "PRES_VIS", "trial_index": 163}, "uniqueid": "MTK3000:3DHE4R9OCXI8NIZB2NSL0B00DBF2GC", "dateTime": 1519664313799}, {"current_trial": 164, "trialdata": {"rt": -1, "trial_type": "single-stim", "word": "bug", "stimulus": "<p id=\"stim\">BUG</p>", "conditions": [12, 1600, "v", 24000], "internal_node_id": "0.0-119.0", "trial": 4, "time_elapsed": 743779, "serialpos": 7, "key_press": -1, "wordID": 186, "type": "PRES_VIS", "trial_index": 164}, "uniqueid": "MTK3000:3DHE4R9OCXI8NIZB2NSL0B00DBF2GC", "dateTime": 1519664316341}, {"current_trial": 165, "trialdata": {"rt": -1, "trial_type": "single-stim", "word": "friend", "stimulus": "<p id=\"stim\">FRIEND</p>", "conditions": [12, 1600, "v", 24000], "internal_node_id": "0.0-120.0", "trial": 4, "time_elapsed": 746359, "serialpos": 8, "key_press": -1, "wordID": 605, "type": "PRES_VIS", "trial_index": 165}, "uniqueid": "MTK3000:3DHE4R9OCXI8NIZB2NSL0B00DBF2GC", "dateTime": 1519664318921}, {"current_trial": 166, "trialdata": {"rt": -1, "trial_type": "single-stim", "word": "dentist", "stimulus": "<p id=\"stim\">DENTIST</p>", "conditions": [12, 1600, "v", 24000], "internal_node_id": "0.0-121.0", "trial": 4, "time_elapsed": 748798, "serialpos": 9, "key_press": -1, "wordID": 446, "type": "PRES_VIS", "trial_index": 166}, "uniqueid": "MTK3000:3DHE4R9OCXI8NIZB2NSL0B00DBF2GC", "dateTime": 1519664321360}, {"current_trial": 167, "trialdata": {"rt": -1, "trial_type": "single-stim", "word": "supper", "stimulus": "<p id=\"stim\">SUPPER</p>", "conditions": [12, 1600, "v", 24000], "internal_node_id": "0.0-122.0", "trial": 4, "time_elapsed": 751401, "serialpos": 10, "key_press": -1, "wordID": 1410, "type": "PRES_VIS", "trial_index": 167}, "uniqueid": "MTK3000:3DHE4R9OCXI8NIZB2NSL0B00DBF2GC", "dateTime": 1519664323963}, {"current_trial": 168, "trialdata": {"rt": -1, "trial_type": "single-stim", "word": "raft", "stimulus": "<p id=\"stim\">RAFT</p>", "conditions": [12, 1600, "v", 24000], "internal_node_id": "0.0-123.0", "trial": 4, "time_elapsed": 753811, "serialpos": 11, "key_press": -1, "wordID": 1158, "type": "PRES_VIS", "trial_index": 168}, "uniqueid": "MTK3000:3DHE4R9OCXI8NIZB2NSL0B00DBF2GC", "dateTime": 1519664326374}, {"current_trial": 169, "trialdata": {"rt": -1, "trial_type": "single-stim", "stimulus": "", "internal_node_id": "0.0-124.0-0.0", "time_elapsed": 756214, "key_press": -1, "type": "PRE_RECALL_DELAY", "trial_index": 169}, "uniqueid": "MTK3000:3DHE4R9OCXI8NIZB2NSL0B00DBF2GC", "dateTime": 1519664328776}, {"current_trial": 170, "trialdata": {"rt": -1000, "trial_type": "single-audio", "stimulus": "/static/audio/400Hz.wav", "internal_node_id": "0.0-125.0", "time_elapsed": 756715, "key_press": -1, "type": "PRE_RECALL_ALERT", "trial_index": 170}, "uniqueid": "MTK3000:3DHE4R9OCXI8NIZB2NSL0B00DBF2GC", "dateTime": 1519664329277}, {"current_trial": 171, "trialdata": {"rt": [1540, 3076, 4428, 7140, 9692, 11620], "recwords": ["raft", "supper", "dentist", "denim", "plaid", "breakfast"], "key_times": [1045, 1124, 1268, 1428, 1540, 2053, 2212, 2572, 2700, 2852, 2940, 3076, 3580, 3660, 3820, 3924, 4044, 4124, 4308, 4428, 4852, 4908, 5172, 5268, 5404, 5884, 6028, 6116, 6684, 6756, 6932, 7140, 7972, 8036, 8291, 8420, 9012, 9692, 10331, 10444, 10524, 10612, 10716, 10803, 10852, 10939, 11117, 11620], "trial_type": "free-recall", "conditions": [12, 1600, "v", 24000], "internal_node_id": "0.0-126.0-0.0", "key_presses": [82, 65, 70, 84, 13, 83, 85, 80, 80, 69, 82, 13, 68, 69, 78, 84, 73, 83, 84, 13, 68, 69, 77, 73, 78, 8, 8, 8, 78, 73, 77, 13, 80, 76, 65, 73, 68, 13, 66, 82, 69, 65, 75, 70, 65, 83, 84, 13], "trial": 4, "time_elapsed": 816722, "type": "FREE_RECALL", "trial_index": 171}, "uniqueid": "MTK3000:3DHE4R9OCXI8NIZB2NSL0B00DBF2GC", "dateTime": 1519664389287}, {"current_trial": 172, "trialdata": {"rt": 668, "trial_type": "text", "internal_node_id": "0.0-127.0", "time_elapsed": 819395, "key_press": 13, "type": "INSTRUCTIONS", "trial_index": 172}, "uniqueid": "MTK3000:3DHE4R9OCXI8NIZB2NSL0B00DBF2GC", "dateTime": 1519664391957}, {"current_trial": 173, "trialdata": {"rt": [2100, 6043, 8540, 11012, 13612, 16283, 17716, 21619, 23755], "trial_type": "math-distractor", "key_times": [1820, 1892, 2100, 4756, 5572, 6043, 8220, 8348, 8540, 10780, 10908, 11012, 13323, 13468, 13612, 16036, 16092, 16283, 17420, 17555, 17716, 19412, 19523, 20324, 21348, 21619, 23419, 23595, 23755], "responses": ["16", "17", "13", "22", "22", "15", "11", "10", "14"], "num2": [8, 3, 5, 9, 4, 4, 8, 2, 7, 4], "num3": [4, 9, 3, 6, 9, 7, 1, 6, 5, 4], "conditions": [12, 800, "v", 24000], "internal_node_id": "0.0-128.0", "key_presses": [97, 102, 13, 97, 103, 13, 97, 99, 13, 98, 98, 13, 98, 98, 13, 97, 101, 13, 97, 97, 13, 97, 96, 96, 8, 13, 97, 100, 13], "trial": 5, "time_elapsed": 845398, "type": "DISTRACTOR", "trial_index": 173, "num1": [4, 5, 5, 7, 9, 4, 2, 2, 2, 8]}, "uniqueid": "MTK3000:3DHE4R9OCXI8NIZB2NSL0B00DBF2GC", "dateTime": 1519664417960}, {"current_trial": 174, "trialdata": {"rt": -1, "trial_type": "single-stim", "stimulus": "<p id=\"stim\">10</p>", "internal_node_id": "0.0-129.0-0.0", "time_elapsed": 848401, "key_press": -1, "trial_index": 174}, "uniqueid": "MTK3000:3DHE4R9OCXI8NIZB2NSL0B00DBF2GC", "dateTime": 1519664420963}, {"current_trial": 175, "trialdata": {"rt": -1, "trial_type": "single-stim", "stimulus": "<p id=\"stim\">9</p>", "internal_node_id": "0.0-129.0-1.0", "time_elapsed": 849403, "key_press": -1, "trial_index": 175}, "uniqueid": "MTK3000:3DHE4R9OCXI8NIZB2NSL0B00DBF2GC", "dateTime": 1519664421965}, {"current_trial": 176, "trialdata": {"rt": -1, "trial_type": "single-stim", "stimulus": "<p id=\"stim\">8</p>", "internal_node_id": "0.0-129.0-2.0", "time_elapsed": 850405, "key_press": -1, "trial_index": 176}, "uniqueid": "MTK3000:3DHE4R9OCXI8NIZB2NSL0B00DBF2GC", "dateTime": 1519664422967}, {"current_trial": 177, "trialdata": {"rt": -1, "trial_type": "single-stim", "stimulus": "<p id=\"stim\">7</p>", "internal_node_id": "0.0-129.0-3.0", "time_elapsed": 851407, "key_press": -1, "trial_index": 177}, "uniqueid": "MTK3000:3DHE4R9OCXI8NIZB2NSL0B00DBF2GC", "dateTime": 1519664423969}, {"current_trial": 178, "trialdata": {"rt": -1, "trial_type": "single-stim", "stimulus": "<p id=\"stim\">6</p>", "internal_node_id": "0.0-129.0-4.0", "time_elapsed": 852407, "key_press": -1, "trial_index": 178}, "uniqueid": "MTK3000:3DHE4R9OCXI8NIZB2NSL0B00DBF2GC", "dateTime": 1519664424970}, {"current_trial": 179, "trialdata": {"rt": -1, "trial_type": "single-stim", "stimulus": "<p id=\"stim\">5</p>", "internal_node_id": "0.0-129.0-5.0", "time_elapsed": 853409, "key_press": -1, "trial_index": 179}, "uniqueid": "MTK3000:3DHE4R9OCXI8NIZB2NSL0B00DBF2GC", "dateTime": 1519664425971}, {"current_trial": 180, "trialdata": {"rt": -1, "trial_type": "single-stim", "stimulus": "<p id=\"stim\">4</p>", "internal_node_id": "0.0-129.0-6.0", "time_elapsed": 854410, "key_press": -1, "trial_index": 180}, "uniqueid": "MTK3000:3DHE4R9OCXI8NIZB2NSL0B00DBF2GC", "dateTime": 1519664426973}, {"current_trial": 181, "trialdata": {"rt": -1, "trial_type": "single-stim", "stimulus": "<p id=\"stim\">3</p>", "internal_node_id": "0.0-129.0-7.0", "time_elapsed": 855412, "key_press": -1, "trial_index": 181}, "uniqueid": "MTK3000:3DHE4R9OCXI8NIZB2NSL0B00DBF2GC", "dateTime": 1519664427974}, {"current_trial": 182, "trialdata": {"rt": -1, "trial_type": "single-stim", "stimulus": "<p id=\"stim\">2</p>", "internal_node_id": "0.0-129.0-8.0", "time_elapsed": 856413, "key_press": -1, "trial_index": 182}, "uniqueid": "MTK3000:3DHE4R9OCXI8NIZB2NSL0B00DBF2GC", "dateTime": 1519664428977}, {"current_trial": 183, "trialdata": {"rt": -1, "trial_type": "single-stim", "stimulus": "<p id=\"stim\">1</p>", "internal_node_id": "0.0-129.0-9.0", "time_elapsed": 857416, "key_press": -1, "trial_index": 183}, "uniqueid": "MTK3000:3DHE4R9OCXI8NIZB2NSL0B00DBF2GC", "dateTime": 1519664429978}, {"current_trial": 184, "trialdata": {"rt": -1, "trial_type": "single-stim", "stimulus": "<p id=\"stim\">+</p>", "internal_node_id": "0.0-130.0-0.0", "time_elapsed": 858917, "key_press": -1, "type": "FIXATION", "trial_index": 184}, "uniqueid": "MTK3000:3DHE4R9OCXI8NIZB2NSL0B00DBF2GC", "dateTime": 1519664431480}, {"current_trial": 185, "trialdata": {"rt": -1, "trial_type": "single-stim", "word": "piston", "stimulus": "<p id=\"stim\">PISTON</p>", "conditions": [12, 800, "v", 24000], "internal_node_id": "0.0-131.0", "trial": 5, "time_elapsed": 859719, "serialpos": 0, "key_press": -1, "wordID": 1075, "type": "PRES_VIS", "trial_index": 185}, "uniqueid": "MTK3000:3DHE4R9OCXI8NIZB2NSL0B00DBF2GC", "dateTime": 1519664432281}, {"current_trial": 186, "trialdata": {"rt": -1, "trial_type": "single-stim", "word": "valve", "stimulus": "<p id=\"stim\">VALVE</p>", "conditions": [12, 800, "v", 24000], "internal_node_id": "0.0-132.0", "trial": 5, "time_elapsed": 861385, "serialpos": 1, "key_press": -1, "wordID": 1545, "type": "PRES_VIS", "trial_index": 186}, "uniqueid": "MTK3000:3DHE4R9OCXI8NIZB2NSL0B00DBF2GC", "dateTime": 1519664433947}, {"current_trial": 187, "trialdata": {"rt": -1, "trial_type": "single-stim", "word": "lace", "stimulus": "<p id=\"stim\">LACE</p>", "conditions": [12, 800, "v", 24000], "internal_node_id": "0.0-133.0", "trial": 5, "time_elapsed": 863003, "serialpos": 2, "key_press": -1, "wordID": 791, "type": "PRES_VIS", "trial_index": 187}, "uniqueid": "MTK3000:3DHE4R9OCXI8NIZB2NSL0B00DBF2GC", "dateTime": 1519664435565}, {"current_trial": 188, "trialdata": {"rt": -1, "trial_type": "single-stim", "word": "panther", "stimulus": "<p id=\"stim\">PANTHER</p>", "conditions": [12, 800, "v", 24000], "internal_node_id": "0.0-134.0", "trial": 5, "time_elapsed": 864961, "serialpos": 3, "key_press": -1, "wordID": 1008, "type": "PRES_VIS", "trial_index": 188}, "uniqueid": "MTK3000:3DHE4R9OCXI8NIZB2NSL0B00DBF2GC", "dateTime": 1519664437523}, {"current_trial": 189, "trialdata": {"rt": -1, "trial_type": "single-stim", "word": "donkey", "stimulus": "<p id=\"stim\">DONKEY</p>", "conditions": [12, 800, "v", 24000], "internal_node_id": "0.0-135.0", "trial": 5, "time_elapsed": 866666, "serialpos": 4, "key_press": -1, "wordID": 483, "type": "PRES_VIS", "trial_index": 189}, "uniqueid": "MTK3000:3DHE4R9OCXI8NIZB2NSL0B00DBF2GC", "dateTime": 1519664439228}, {"current_trial": 190, "trialdata": {"rt": -1, "trial_type": "single-stim", "word": "shorts", "stimulus": "<p id=\"stim\">SHORTS</p>", "conditions": [12, 800, "v", 24000], "internal_node_id": "0.0-136.0", "trial": 5, "time_elapsed": 868560, "serialpos": 5, "key_press": -1, "wordID": 1292, "type": "PRES_VIS", "trial_index": 190}, "uniqueid": "MTK3000:3DHE4R9OCXI8NIZB2NSL0B00DBF2GC", "dateTime": 1519664441122}, {"current_trial": 191, "trialdata": {"rt": -1, "trial_type": "single-stim", "word": "wagon", "stimulus": "<p id=\"stim\">WAGON</p>", "conditions": [12, 800, "v", 24000], "internal_node_id": "0.0-137.0", "trial": 5, "time_elapsed": 870479, "serialpos": 6, "key_press": -1, "wordID": 1577, "type": "PRES_VIS", "trial_index": 191}, "uniqueid": "MTK3000:3DHE4R9OCXI8NIZB2NSL0B00DBF2GC", "dateTime": 1519664443041}, {"current_trial": 192, "trialdata": {"rt": -1, "trial_type": "single-stim", "word": "velvet", "stimulus": "<p id=\"stim\">VELVET</p>", "conditions": [12, 800, "v", 24000], "internal_node_id": "0.0-138.0", "trial": 5, "time_elapsed": 872331, "serialpos": 7, "key_press": -1, "wordID": 1554, "type": "PRES_VIS", "trial_index": 192}, "uniqueid": "MTK3000:3DHE4R9OCXI8NIZB2NSL0B00DBF2GC", "dateTime": 1519664444893}, {"current_trial": 193, "trialdata": {"rt": -1, "trial_type": "single-stim", "word": "space", "stimulus": "<p id=\"stim\">SPACE</p>", "conditions": [12, 800, "v", 24000], "internal_node_id": "0.0-139.0", "trial": 5, "time_elapsed": 873952, "serialpos": 8, "key_press": -1, "wordID": 1344, "type": "PRES_VIS", "trial_index": 193}, "uniqueid": "MTK3000:3DHE4R9OCXI8NIZB2NSL0B00DBF2GC", "dateTime": 1519664446514}, {"current_trial": 194, "trialdata": {"rt": -1, "trial_type": "single-stim", "word": "stone", "stimulus": "<p id=\"stim\">STONE</p>", "conditions": [12, 800, "v", 24000], "internal_node_id": "0.0-140.0", "trial": 5, "time_elapsed": 875908, "serialpos": 9, "key_press": -1, "wordID": 1384, "type": "PRES_VIS", "trial_index": 194}, "uniqueid": "MTK3000:3DHE4R9OCXI8NIZB2NSL0B00DBF2GC", "dateTime": 1519664448470}, {"current_trial": 195, "trialdata": {"rt": -1, "trial_type": "single-stim", "word": "body", "stimulus": "<p id=\"stim\">BODY</p>", "conditions": [12, 800, "v", 24000], "internal_node_id": "0.0-141.0", "trial": 5, "time_elapsed": 877905, "serialpos": 10, "key_press": -1, "wordID": 144, "type": "PRES_VIS", "trial_index": 195}, "uniqueid": "MTK3000:3DHE4R9OCXI8NIZB2NSL0B00DBF2GC", "dateTime": 1519664450467}, {"current_trial": 196, "trialdata": {"rt": -1, "trial_type": "single-stim", "word": "dragon", "stimulus": "<p id=\"stim\">DRAGON</p>", "conditions": [12, 800, "v", 24000], "internal_node_id": "0.0-142.0", "trial": 5, "time_elapsed": 879716, "serialpos": 11, "key_press": -1, "wordID": 491, "type": "PRES_VIS", "trial_index": 196}, "uniqueid": "MTK3000:3DHE4R9OCXI8NIZB2NSL0B00DBF2GC", "dateTime": 1519664452278}, {"current_trial": 197, "trialdata": {"rt": -1, "trial_type": "single-stim", "stimulus": "", "internal_node_id": "0.0-143.0-0.0", "time_elapsed": 882240, "key_press": -1, "type": "PRE_RECALL_DELAY", "trial_index": 197}, "uniqueid": "MTK3000:3DHE4R9OCXI8NIZB2NSL0B00DBF2GC", "dateTime": 1519664454802}, {"current_trial": 198, "trialdata": {"rt": -1000, "trial_type": "single-audio", "stimulus": "/static/audio/400Hz.wav", "internal_node_id": "0.0-144.0", "time_elapsed": 882742, "key_press": -1, "type": "PRE_RECALL_ALERT", "trial_index": 198}, "uniqueid": "MTK3000:3DHE4R9OCXI8NIZB2NSL0B00DBF2GC", "dateTime": 1519664455304}, {"current_trial": 199, "trialdata": {"rt": [1346, 2682, 4074, 7266, 8514, 10834], "recwords": ["body", "dragon", "panther", "donkey", "lace", "shorts"], "key_times": [627, 754, 970, 1066, 1346, 1802, 1986, 2074, 2258, 2322, 2434, 2682, 3282, 3434, 3522, 3634, 3746, 3826, 3906, 4074, 5362, 5482, 5650, 5914, 6826, 6970, 7266, 7882, 8074, 8258, 8314, 8514, 9074, 9233, 9466, 9586, 9682, 10146, 10834], "trial_type": "free-recall", "conditions": [12, 800, "v", 24000], "internal_node_id": "0.0-145.0-0.0", "key_presses": [66, 79, 68, 89, 13, 68, 82, 65, 71, 79, 78, 13, 80, 65, 78, 84, 72, 69, 82, 13, 68, 79, 78, 75, 69, 89, 13, 76, 65, 67, 69, 13, 83, 72, 79, 82, 84, 83, 13], "trial": 5, "time_elapsed": 942746, "type": "FREE_RECALL", "trial_index": 199}, "uniqueid": "MTK3000:3DHE4R9OCXI8NIZB2NSL0B00DBF2GC", "dateTime": 1519664515314}, {"current_trial": 200, "trialdata": {"rt": 17199, "trial_type": "text", "internal_node_id": "0.0-146.0", "time_elapsed": 961952, "key_press": 13, "type": "INSTRUCTIONS", "trial_index": 200}, "uniqueid": "MTK3000:3DHE4R9OCXI8NIZB2NSL0B00DBF2GC", "dateTime": 1519664534515}, {"current_trial": 201, "trialdata": {"rt": [2309, 5892, 8380, 10276], "trial_type": "math-distractor", "key_times": [1997, 2060, 2309, 5556, 5637, 5892, 7916, 8060, 8380, 9900, 10092, 10276, 11860, 11948], "responses": ["15", "13", "15", "17"], "num2": [8, 6, 2, 6, 6], "num3": [1, 4, 9, 5, 1], "conditions": [24, 800, "v", 12000], "internal_node_id": "0.0-147.0", "key_presses": [97, 101, 13, 97, 99, 13, 97, 101, 13, 97, 103, 13, 97, 99], "trial": 6, "time_elapsed": 975957, "type": "DISTRACTOR", "trial_index": 201, "num1": [6, 1, 4, 6, 6]}, "uniqueid": "MTK3000:3DHE4R9OCXI8NIZB2NSL0B00DBF2GC", "dateTime": 1519664548519}, {"current_trial": 202, "trialdata": {"rt": -1, "trial_type": "single-stim", "stimulus": "<p id=\"stim\">10</p>", "internal_node_id": "0.0-148.0-0.0", "time_elapsed": 978959, "key_press": -1, "trial_index": 202}, "uniqueid": "MTK3000:3DHE4R9OCXI8NIZB2NSL0B00DBF2GC", "dateTime": 1519664551521}, {"current_trial": 203, "trialdata": {"rt": -1, "trial_type": "single-stim", "stimulus": "<p id=\"stim\">9</p>", "internal_node_id": "0.0-148.0-1.0", "time_elapsed": 979961, "key_press": -1, "trial_index": 203}, "uniqueid": "MTK3000:3DHE4R9OCXI8NIZB2NSL0B00DBF2GC", "dateTime": 1519664552523}, {"current_trial": 204, "trialdata": {"rt": -1, "trial_type": "single-stim", "stimulus": "<p id=\"stim\">8</p>", "internal_node_id": "0.0-148.0-2.0", "time_elapsed": 980961, "key_press": -1, "trial_index": 204}, "uniqueid": "MTK3000:3DHE4R9OCXI8NIZB2NSL0B00DBF2GC", "dateTime": 1519664553524}, {"current_trial": 205, "trialdata": {"rt": -1, "trial_type": "single-stim", "stimulus": "<p id=\"stim\">7</p>", "internal_node_id": "0.0-148.0-3.0", "time_elapsed": 981963, "key_press": -1, "trial_index": 205}, "uniqueid": "MTK3000:3DHE4R9OCXI8NIZB2NSL0B00DBF2GC", "dateTime": 1519664554525}, {"current_trial": 206, "trialdata": {"rt": -1, "trial_type": "single-stim", "stimulus": "<p id=\"stim\">6</p>", "internal_node_id": "0.0-148.0-4.0", "time_elapsed": 982964, "key_press": -1, "trial_index": 206}, "uniqueid": "MTK3000:3DHE4R9OCXI8NIZB2NSL0B00DBF2GC", "dateTime": 1519664555527}, {"current_trial": 207, "trialdata": {"rt": -1, "trial_type": "single-stim", "stimulus": "<p id=\"stim\">5</p>", "internal_node_id": "0.0-148.0-5.0", "time_elapsed": 983967, "key_press": -1, "trial_index": 207}, "uniqueid": "MTK3000:3DHE4R9OCXI8NIZB2NSL0B00DBF2GC", "dateTime": 1519664556529}, {"current_trial": 208, "trialdata": {"rt": -1, "trial_type": "single-stim", "stimulus": "<p id=\"stim\">4</p>", "internal_node_id": "0.0-148.0-6.0", "time_elapsed": 984968, "key_press": -1, "trial_index": 208}, "uniqueid": "MTK3000:3DHE4R9OCXI8NIZB2NSL0B00DBF2GC", "dateTime": 1519664557530}, {"current_trial": 209, "trialdata": {"rt": -1, "trial_type": "single-stim", "stimulus": "<p id=\"stim\">3</p>", "internal_node_id": "0.0-148.0-7.0", "time_elapsed": 985969, "key_press": -1, "trial_index": 209}, "uniqueid": "MTK3000:3DHE4R9OCXI8NIZB2NSL0B00DBF2GC", "dateTime": 1519664558532}, {"current_trial": 210, "trialdata": {"rt": -1, "trial_type": "single-stim", "stimulus": "<p id=\"stim\">2</p>", "internal_node_id": "0.0-148.0-8.0", "time_elapsed": 986971, "key_press": -1, "trial_index": 210}, "uniqueid": "MTK3000:3DHE4R9OCXI8NIZB2NSL0B00DBF2GC", "dateTime": 1519664559533}, {"current_trial": 211, "trialdata": {"rt": -1, "trial_type": "single-stim", "stimulus": "<p id=\"stim\">1</p>", "internal_node_id": "0.0-148.0-9.0", "time_elapsed": 987973, "key_press": -1, "trial_index": 211}, "uniqueid": "MTK3000:3DHE4R9OCXI8NIZB2NSL0B00DBF2GC", "dateTime": 1519664560535}, {"current_trial": 212, "trialdata": {"rt": -1, "trial_type": "single-stim", "stimulus": "<p id=\"stim\">+</p>", "internal_node_id": "0.0-149.0-0.0", "time_elapsed": 989474, "key_press": -1, "type": "FIXATION", "trial_index": 212}, "uniqueid": "MTK3000:3DHE4R9OCXI8NIZB2NSL0B00DBF2GC", "dateTime": 1519664562036}, {"current_trial": 213, "trialdata": {"rt": -1, "trial_type": "single-stim", "word": "dolphin", "stimulus": "<p id=\"stim\">DOLPHIN</p>", "conditions": [24, 800, "v", 12000], "internal_node_id": "0.0-150.0", "trial": 6, "time_elapsed": 990276, "serialpos": 0, "key_press": -1, "wordID": 482, "type": "PRES_VIS", "trial_index": 213}, "uniqueid": "MTK3000:3DHE4R9OCXI8NIZB2NSL0B00DBF2GC", "dateTime": 1519664562838}, {"current_trial": 214, "trialdata": {"rt": -1, "trial_type": "single-stim", "word": "plaza", "stimulus": "<p id=\"stim\">PLAZA</p>", "conditions": [24, 800, "v", 12000], "internal_node_id": "0.0-151.0", "trial": 6, "time_elapsed": 991882, "serialpos": 1, "key_press": -1, "wordID": 1087, "type": "PRES_VIS", "trial_index": 214}, "uniqueid": "MTK3000:3DHE4R9OCXI8NIZB2NSL0B00DBF2GC", "dateTime": 1519664564444}, {"current_trial": 215, "trialdata": {"rt": -1, "trial_type": "single-stim", "word": "match", "stimulus": "<p id=\"stim\">MATCH</p>", "conditions": [24, 800, "v", 12000], "internal_node_id": "0.0-152.0", "trial": 6, "time_elapsed": 993665, "serialpos": 2, "key_press": -1, "wordID": 877, "type": "PRES_VIS", "trial_index": 215}, "uniqueid": "MTK3000:3DHE4R9OCXI8NIZB2NSL0B00DBF2GC", "dateTime": 1519664566227}, {"current_trial": 216, "trialdata": {"rt": -1, "trial_type": "single-stim", "word": "table", "stimulus": "<p id=\"stim\">TABLE</p>", "conditions": [24, 800, "v", 12000], "internal_node_id": "0.0-153.0", "trial": 6, "time_elapsed": 995388, "serialpos": 3, "key_press": -1, "wordID": 1425, "type": "PRES_VIS", "trial_index": 216}, "uniqueid": "MTK3000:3DHE4R9OCXI8NIZB2NSL0B00DBF2GC", "dateTime": 1519664567950}, {"current_trial": 217, "trialdata": {"rt": -1, "trial_type": "single-stim", "word": "scalpel", "stimulus": "<p id=\"stim\">SCALPEL</p>", "conditions": [24, 800, "v", 12000], "internal_node_id": "0.0-154.0", "trial": 6, "time_elapsed": 997058, "serialpos": 4, "key_press": -1, "wordID": 1242, "type": "PRES_VIS", "trial_index": 217}, "uniqueid": "MTK3000:3DHE4R9OCXI8NIZB2NSL0B00DBF2GC", "dateTime": 1519664569620}, {"current_trial": 218, "trialdata": {"rt": -1, "trial_type": "single-stim", "word": "student", "stimulus": "<p id=\"stim\">STUDENT</p>", "conditions": [24, 800, "v", 12000], "internal_node_id": "0.0-155.0", "trial": 6, "time_elapsed": 998768, "serialpos": 5, "key_press": -1, "wordID": 1394, "type": "PRES_VIS", "trial_index": 218}, "uniqueid": "MTK3000:3DHE4R9OCXI8NIZB2NSL0B00DBF2GC", "dateTime": 1519664571330}, {"current_trial": 219, "trialdata": {"rt": -1, "trial_type": "single-stim", "word": "sunrise", "stimulus": "<p id=\"stim\">SUNRISE</p>", "conditions": [24, 800, "v", 12000], "internal_node_id": "0.0-156.0", "trial": 6, "time_elapsed": 1000707, "serialpos": 6, "key_press": -1, "wordID": 1406, "type": "PRES_VIS", "trial_index": 219}, "uniqueid": "MTK3000:3DHE4R9OCXI8NIZB2NSL0B00DBF2GC", "dateTime": 1519664573269}, {"current_trial": 220, "trialdata": {"rt": -1, "trial_type": "single-stim", "word": "sunset", "stimulus": "<p id=\"stim\">SUNSET</p>", "conditions": [24, 800, "v", 12000], "internal_node_id": "0.0-157.0", "trial": 6, "time_elapsed": 1002338, "serialpos": 7, "key_press": -1, "wordID": 1407, "type": "PRES_VIS", "trial_index": 220}, "uniqueid": "MTK3000:3DHE4R9OCXI8NIZB2NSL0B00DBF2GC", "dateTime": 1519664574900}, {"current_trial": 221, "trialdata": {"rt": -1, "trial_type": "single-stim", "word": "lapel", "stimulus": "<p id=\"stim\">LAPEL</p>", "conditions": [24, 800, "v", 12000], "internal_node_id": "0.0-158.0", "trial": 6, "time_elapsed": 1004170, "serialpos": 8, "key_press": -1, "wordID": 799, "type": "PRES_VIS", "trial_index": 221}, "uniqueid": "MTK3000:3DHE4R9OCXI8NIZB2NSL0B00DBF2GC", "dateTime": 1519664576732}, {"current_trial": 222, "trialdata": {"rt": -1, "trial_type": "single-stim", "word": "badge", "stimulus": "<p id=\"stim\">BADGE</p>", "conditions": [24, 800, "v", 12000], "internal_node_id": "0.0-159.0", "trial": 6, "time_elapsed": 1005906, "serialpos": 9, "key_press": -1, "wordID": 67, "type": "PRES_VIS", "trial_index": 222}, "uniqueid": "MTK3000:3DHE4R9OCXI8NIZB2NSL0B00DBF2GC", "dateTime": 1519664578469}, {"current_trial": 223, "trialdata": {"rt": -1, "trial_type": "single-stim", "word": "shirt", "stimulus": "<p id=\"stim\">SHIRT</p>", "conditions": [24, 800, "v", 12000], "internal_node_id": "0.0-160.0", "trial": 6, "time_elapsed": 1007843, "serialpos": 10, "key_press": -1, "wordID": 1286, "type": "PRES_VIS", "trial_index": 223}, "uniqueid": "MTK3000:3DHE4R9OCXI8NIZB2NSL0B00DBF2GC", "dateTime": 1519664580406}, {"current_trial": 224, "trialdata": {"rt": -1, "trial_type": "single-stim", "word": "sidewalk", "stimulus": "<p id=\"stim\">SIDEWALK</p>", "conditions": [24, 800, "v", 12000], "internal_node_id": "0.0-161.0", "trial": 6, "time_elapsed": 1009768, "serialpos": 11, "key_press": -1, "wordID": 1302, "type": "PRES_VIS", "trial_index": 224}, "uniqueid": "MTK3000:3DHE4R9OCXI8NIZB2NSL0B00DBF2GC", "dateTime": 1519664582330}, {"current_trial": 225, "trialdata": {"rt": -1, "trial_type": "single-stim", "word": "nomad", "stimulus": "<p id=\"stim\">NOMAD</p>", "conditions": [24, 800, "v", 12000], "internal_node_id": "0.0-162.0", "trial": 6, "time_elapsed": 1011603, "serialpos": 12, "key_press": -1, "wordID": 954, "type": "PRES_VIS", "trial_index": 225}, "uniqueid": "MTK3000:3DHE4R9OCXI8NIZB2NSL0B00DBF2GC", "dateTime": 1519664584165}, {"current_trial": 226, "trialdata": {"rt": -1, "trial_type": "single-stim", "word": "relish", "stimulus": "<p id=\"stim\">RELISH</p>", "conditions": [24, 800, "v", 12000], "internal_node_id": "0.0-163.0", "trial": 6, "time_elapsed": 1013403, "serialpos": 13, "key_press": -1, "wordID": 1182, "type": "PRES_VIS", "trial_index": 226}, "uniqueid": "MTK3000:3DHE4R9OCXI8NIZB2NSL0B00DBF2GC", "dateTime": 1519664585965}, {"current_trial": 227, "trialdata": {"rt": -1, "trial_type": "single-stim", "word": "arm", "stimulus": "<p id=\"stim\">ARM</p>", "conditions": [24, 800, "v", 12000], "internal_node_id": "0.0-164.0", "trial": 6, "time_elapsed": 1015250, "serialpos": 14, "key_press": -1, "wordID": 37, "type": "PRES_VIS", "trial_index": 227}, "uniqueid": "MTK3000:3DHE4R9OCXI8NIZB2NSL0B00DBF2GC", "dateTime": 1519664587812}, {"current_trial": 228, "trialdata": {"rt": -1, "trial_type": "single-stim", "word": "dashboard", "stimulus": "<p id=\"stim\">DASHBOARD</p>", "conditions": [24, 800, "v", 12000], "internal_node_id": "0.0-165.0", "trial": 6, "time_elapsed": 1016990, "serialpos": 15, "key_press": -1, "wordID": 440, "type": "PRES_VIS", "trial_index": 228}, "uniqueid": "MTK3000:3DHE4R9OCXI8NIZB2NSL0B00DBF2GC", "dateTime": 1519664589552}, {"current_trial": 229, "trialdata": {"rt": -1, "trial_type": "single-stim", "word": "hand", "stimulus": "<p id=\"stim\">HAND</p>", "conditions": [24, 800, "v", 12000], "internal_node_id": "0.0-166.0", "trial": 6, "time_elapsed": 1018689, "serialpos": 16, "key_press": -1, "wordID": 682, "type": "PRES_VIS", "trial_index": 229}, "uniqueid": "MTK3000:3DHE4R9OCXI8NIZB2NSL0B00DBF2GC", "dateTime": 1519664591251}, {"current_trial": 230, "trialdata": {"rt": -1, "trial_type": "single-stim", "word": "patrol", "stimulus": "<p id=\"stim\">PATROL</p>", "conditions": [24, 800, "v", 12000], "internal_node_id": "0.0-167.0", "trial": 6, "time_elapsed": 1020612, "serialpos": 17, "key_press": -1, "wordID": 1026, "type": "PRES_VIS", "trial_index": 230}, "uniqueid": "MTK3000:3DHE4R9OCXI8NIZB2NSL0B00DBF2GC", "dateTime": 1519664593174}, {"current_trial": 231, "trialdata": {"rt": -1, "trial_type": "single-stim", "word": "seafood", "stimulus": "<p id=\"stim\">SEAFOOD</p>", "conditions": [24, 800, "v", 12000], "internal_node_id": "0.0-168.0", "trial": 6, "time_elapsed": 1022529, "serialpos": 18, "key_press": -1, "wordID": 1259, "type": "PRES_VIS", "trial_index": 231}, "uniqueid": "MTK3000:3DHE4R9OCXI8NIZB2NSL0B00DBF2GC", "dateTime": 1519664595091}, {"current_trial": 232, "trialdata": {"rt": -1, "trial_type": "single-stim", "word": "farmer", "stimulus": "<p id=\"stim\">FARMER</p>", "conditions": [24, 800, "v", 12000], "internal_node_id": "0.0-169.0", "trial": 6, "time_elapsed": 1024450, "serialpos": 19, "key_press": -1, "wordID": 552, "type": "PRES_VIS", "trial_index": 232}, "uniqueid": "MTK3000:3DHE4R9OCXI8NIZB2NSL0B00DBF2GC", "dateTime": 1519664597012}, {"current_trial": 233, "trialdata": {"rt": -1, "trial_type": "single-stim", "word": "shoulder", "stimulus": "<p id=\"stim\">SHOULDER</p>", "conditions": [24, 800, "v", 12000], "internal_node_id": "0.0-170.0", "trial": 6, "time_elapsed": 1026178, "serialpos": 20, "key_press": -1, "wordID": 1293, "type": "PRES_VIS", "trial_index": 233}, "uniqueid": "MTK3000:3DHE4R9OCXI8NIZB2NSL0B00DBF2GC", "dateTime": 1519664598740}, {"current_trial": 234, "trialdata": {"rt": -1, "trial_type": "single-stim", "word": "skillet", "stimulus": "<p id=\"stim\">SKILLET</p>", "conditions": [24, 800, "v", 12000], "internal_node_id": "0.0-171.0", "trial": 6, "time_elapsed": 1028012, "serialpos": 21, "key_press": -1, "wordID": 1316, "type": "PRES_VIS", "trial_index": 234}, "uniqueid": "MTK3000:3DHE4R9OCXI8NIZB2NSL0B00DBF2GC", "dateTime": 1519664600574}, {"current_trial": 235, "trialdata": {"rt": -1, "trial_type": "single-stim", "word": "cabbage", "stimulus": "<p id=\"stim\">CABBAGE</p>", "conditions": [24, 800, "v", 12000], "internal_node_id": "0.0-172.0", "trial": 6, "time_elapsed": 1029989, "serialpos": 22, "key_press": -1, "wordID": 209, "type": "PRES_VIS", "trial_index": 235}, "uniqueid": "MTK3000:3DHE4R9OCXI8NIZB2NSL0B00DBF2GC", "dateTime": 1519664602551}, {"current_trial": 236, "trialdata": {"rt": -1, "trial_type": "single-stim", "word": "turnip", "stimulus": "<p id=\"stim\">TURNIP</p>", "conditions": [24, 800, "v", 12000], "internal_node_id": "0.0-173.0", "trial": 6, "time_elapsed": 1031781, "serialpos": 23, "key_press": -1, "wordID": 1520, "type": "PRES_VIS", "trial_index": 236}, "uniqueid": "MTK3000:3DHE4R9OCXI8NIZB2NSL0B00DBF2GC", "dateTime": 1519664604344}, {"current_trial": 237, "trialdata": {"rt": -1, "trial_type": "single-stim", "stimulus": "", "internal_node_id": "0.0-174.0-0.0", "time_elapsed": 1034342, "key_press": -1, "type": "PRE_RECALL_DELAY", "trial_index": 237}, "uniqueid": "MTK3000:3DHE4R9OCXI8NIZB2NSL0B00DBF2GC", "dateTime": 1519664606904}, {"current_trial": 238, "trialdata": {"rt": -1000, "trial_type": "single-audio", "stimulus": "/static/audio/400Hz.wav", "internal_node_id": "0.0-175.0", "time_elapsed": 1034848, "key_press": -1, "type": "PRE_RECALL_ALERT", "trial_index": 238}, "uniqueid": "MTK3000:3DHE4R9OCXI8NIZB2NSL0B00DBF2GC", "dateTime": 1519664607410}, {"current_trial": 239, "trialdata": {"rt": [1727, 3286, 5671, 7646, 9110, 10054, 11846, 14478, 16758, 20326, 29304, 31696, 33448, 35608], "recwords": ["turnip", "cabbage", "lapel", "badge", "arm", "hand", "shoulder", "plaza", "sidewalk", "skillet", "dolphin", "match", "student", "scalpel"], "key_times": [488, 614, 743, 894, 1102, 1343, 1727, 2086, 2190, 2526, 2654, 2807, 2991, 3079, 3286, 3751, 3927, 5263, 5351, 5486, 5671, 6512, 6654, 6798, 6966, 7230, 7646, 8622, 8790, 8910, 9110, 9566, 9662, 9790, 9878, 10054, 10503, 10638, 10838, 10902, 11094, 11222, 11446, 11518, 11846, 12382, 12462, 12806, 13110, 13422, 14478, 14942, 15142, 15342, 15422, 15694, 15782, 16150, 16278, 16758, 19038, 19222, 19422, 19654, 19782, 20030, 20142, 20326, 26553, 26712, 26920, 27144, 27480, 28768, 28896, 29056, 29136, 29304, 29912, 30144, 30352, 30584, 30712, 31696, 32384, 32552, 32680, 32848, 32952, 33144, 33264, 33448, 33952, 34152, 34288, 34745, 35056, 35159, 35297, 35608], "trial_type": "free-recall", "conditions": [24, 800, "v", 12000], "internal_node_id": "0.0-176.0-0.0", "key_presses": [84, 85, 82, 78, 73, 80, 13, 67, 65, 66, 66, 65, 71, 69, 13, 76, 65, 80, 69, 76, 13, 66, 65, 68, 71, 69, 13, 65, 82, 77, 13, 72, 65, 78, 68, 13, 83, 72, 79, 85, 76, 68, 69, 82, 13, 80, 76, 65, 90, 65, 13, 83, 73, 68, 69, 87, 65, 76, 75, 13, 83, 75, 73, 76, 76, 69, 84, 13, 68, 79, 76, 73, 8, 80, 72, 73, 78, 13, 77, 65, 84, 67, 72, 13, 83, 84, 85, 68, 69, 78, 84, 13, 83, 67, 65, 76, 80, 69, 76, 13], "trial": 6, "time_elapsed": 1094854, "type": "FREE_RECALL", "trial_index": 239}, "uniqueid": "MTK3000:3DHE4R9OCXI8NIZB2NSL0B00DBF2GC", "dateTime": 1519664667422}, {"current_trial": 240, "trialdata": {"rt": 13722, "trial_type": "text", "internal_node_id": "0.0-177.0", "time_elapsed": 1110584, "key_press": 13, "type": "INSTRUCTIONS", "trial_index": 240}, "uniqueid": "MTK3000:3DHE4R9OCXI8NIZB2NSL0B00DBF2GC", "dateTime": 1519664683146}, {"current_trial": 241, "trialdata": {"rt": [5125, 7470], "trial_type": "math-distractor", "key_times": [4764, 4909, 5125, 6894, 7038, 7470], "responses": ["25", "15"], "num2": [9, 9, 9], "num3": [8, 2, 7], "conditions": [24, 1600, "v", 12000], "internal_node_id": "0.0-178.0", "key_presses": [98, 101, 13, 97, 101, 13], "trial": 7, "time_elapsed": 1124591, "type": "DISTRACTOR", "trial_index": 241, "num1": [8, 4, 5]}, "uniqueid": "MTK3000:3DHE4R9OCXI8NIZB2NSL0B00DBF2GC", "dateTime": 1519664697153}, {"current_trial": 242, "trialdata": {"rt": -1, "trial_type": "single-stim", "stimulus": "<p id=\"stim\">10</p>", "internal_node_id": "0.0-179.0-0.0", "time_elapsed": 1127593, "key_press": -1, "trial_index": 242}, "uniqueid": "MTK3000:3DHE4R9OCXI8NIZB2NSL0B00DBF2GC", "dateTime": 1519664700156}, {"current_trial": 243, "trialdata": {"rt": -1, "trial_type": "single-stim", "stimulus": "<p id=\"stim\">9</p>", "internal_node_id": "0.0-179.0-1.0", "time_elapsed": 1128595, "key_press": -1, "trial_index": 243}, "uniqueid": "MTK3000:3DHE4R9OCXI8NIZB2NSL0B00DBF2GC", "dateTime": 1519664701158}, {"current_trial": 244, "trialdata": {"rt": -1, "trial_type": "single-stim", "stimulus": "<p id=\"stim\">8</p>", "internal_node_id": "0.0-179.0-2.0", "time_elapsed": 1129597, "key_press": -1, "trial_index": 244}, "uniqueid": "MTK3000:3DHE4R9OCXI8NIZB2NSL0B00DBF2GC", "dateTime": 1519664702160}, {"current_trial": 245, "trialdata": {"rt": -1, "trial_type": "single-stim", "stimulus": "<p id=\"stim\">7</p>", "internal_node_id": "0.0-179.0-3.0", "time_elapsed": 1130599, "key_press": -1, "trial_index": 245}, "uniqueid": "MTK3000:3DHE4R9OCXI8NIZB2NSL0B00DBF2GC", "dateTime": 1519664703161}, {"current_trial": 246, "trialdata": {"rt": -1, "trial_type": "single-stim", "stimulus": "<p id=\"stim\">6</p>", "internal_node_id": "0.0-179.0-4.0", "time_elapsed": 1131601, "key_press": -1, "trial_index": 246}, "uniqueid": "MTK3000:3DHE4R9OCXI8NIZB2NSL0B00DBF2GC", "dateTime": 1519664704163}, {"current_trial": 247, "trialdata": {"rt": -1, "trial_type": "single-stim", "stimulus": "<p id=\"stim\">5</p>", "internal_node_id": "0.0-179.0-5.0", "time_elapsed": 1132602, "key_press": -1, "trial_index": 247}, "uniqueid": "MTK3000:3DHE4R9OCXI8NIZB2NSL0B00DBF2GC", "dateTime": 1519664705164}, {"current_trial": 248, "trialdata": {"rt": -1, "trial_type": "single-stim", "stimulus": "<p id=\"stim\">4</p>", "internal_node_id": "0.0-179.0-6.0", "time_elapsed": 1133603, "key_press": -1, "trial_index": 248}, "uniqueid": "MTK3000:3DHE4R9OCXI8NIZB2NSL0B00DBF2GC", "dateTime": 1519664706165}, {"current_trial": 249, "trialdata": {"rt": -1, "trial_type": "single-stim", "stimulus": "<p id=\"stim\">3</p>", "internal_node_id": "0.0-179.0-7.0", "time_elapsed": 1134605, "key_press": -1, "trial_index": 249}, "uniqueid": "MTK3000:3DHE4R9OCXI8NIZB2NSL0B00DBF2GC", "dateTime": 1519664707167}, {"current_trial": 250, "trialdata": {"rt": -1, "trial_type": "single-stim", "stimulus": "<p id=\"stim\">2</p>", "internal_node_id": "0.0-179.0-8.0", "time_elapsed": 1135608, "key_press": -1, "trial_index": 250}, "uniqueid": "MTK3000:3DHE4R9