{"assignmentId": "3EO896NRAX2CYJJPT8XKYB166ELTJ8", "workerId": "MTK3342", "questiondata": {"origin": "United States", "strat-rehearsal": "5", "marital": "Single", "education": "Bachelor's degree", "ethnicity": "Not Hispanic", "color_depth": 24, "distracted": "No", "wrote-notes": "No", "strat-other": "associating terms", "screen_width": 1366, "avail_screen_width": 1366, "avail_screen_height": 728, "strat-image": "29", "language": "english", "gender": "Female", "age": "47", "gender_other": "", "race": ["White"], "strat-categorize": "92", "pixel_depth": 24, "strat-spatial": "55", "strat-story": "68", "race_other": "", "screen_height": 768}, "bonus": 0, "hitId": "3OYHVNTV5T5P9RM5PA6VGWZC1SLKOR", "counterbalance": 2958, "useragent": "Mozilla/5.0 (Windows NT 10.0; Win64; x64) AppleWebKit/537.36 (KHTML, like Gecko) Chrome/65.0.3325.146 Safari/537.36", "eventdata": [{"eventtype": "initialized", "interval": 0, "value": null, "timestamp": 1520444690317}, {"eventtype": "window_resize", "interval": 1, "value": [1366, 677], "timestamp": 1520444690318}, {"eventtype": "focus", "interval": 14585, "value": "on", "timestamp": 1520444704903}, {"eventtype": "focus", "interval": 2224601, "value": "off", "timestamp": 1520446929504}, {"eventtype": "focus", "interval": 11510, "value": "on", "timestamp": 1520446941014}], "data": [{"current_trial": 0, "trialdata": {"rt": 15918, "trial_type": "text", "internal_node_id": "0.0-0.0", "time_elapsed": 15925, "key_press": 32, "type": "INSTRUCTIONS", "trial_index": 0}, "uniqueid": "MTK3342:3EO896NRAX2CYJJPT8XKYB166ELTJ8", "dateTime": 1520444706802}, {"current_trial": 1, "trialdata": {"rt": 36424, "trial_type": "text", "internal_node_id": "0.0-1.0", "time_elapsed": 52352, "key_press": 32, "type": "INSTRUCTIONS", "trial_index": 1}, "uniqueid": "MTK3342:3EO896NRAX2CYJJPT8XKYB166ELTJ8", "dateTime": 1520444743229}, {"current_trial": 2, "trialdata": {"rt": [18191], "trial_type": "audio-test", "responses": ["ocean"], "internal_node_id": "0.0-2.0", "time_elapsed": 70561, "type": "AUDIO_TEST", "trial_index": 2}, "uniqueid": "MTK3342:3EO896NRAX2CYJJPT8XKYB166ELTJ8", "dateTime": 1520444761438}, {"current_trial": 3, "trialdata": {"rt": [18164], "trial_type": "audio-test", "responses": ["crystal"], "internal_node_id": "0.0-3.0", "time_elapsed": 88736, "type": "AUDIO_TEST", "trial_index": 3}, "uniqueid": "MTK3342:3EO896NRAX2CYJJPT8XKYB166ELTJ8", "dateTime": 1520444779613}, {"current_trial": 4, "trialdata": {"rt": [6697], "trial_type": "audio-test", "responses": ["spice"], "internal_node_id": "0.0-4.0", "time_elapsed": 95440, "type": "AUDIO_TEST", "trial_index": 4}, "uniqueid": "MTK3342:3EO896NRAX2CYJJPT8XKYB166ELTJ8", "dateTime": 1520444786317}, {"current_trial": 5, "trialdata": {"rt": 25745, "trial_type": "survey-text", "responses": "{\"Q0\":\"12 a.m.\",\"Q1\":\"6 a.m.\",\"Q2\":\"5\"}", "internal_node_id": "0.0-5.0", "time_elapsed": 121940, "type": "SLEEP_SURVEY", "trial_index": 5}, "uniqueid": "MTK3342:3EO896NRAX2CYJJPT8XKYB166ELTJ8", "dateTime": 1520444812817}, {"current_trial": 6, "trialdata": {"rt": 35249, "trial_type": "text", "internal_node_id": "0.0-6.0", "time_elapsed": 158190, "key_press": 32, "type": "INSTRUCTIONS", "trial_index": 6}, "uniqueid": "MTK3342:3EO896NRAX2CYJJPT8XKYB166ELTJ8", "dateTime": 1520444849067}, {"current_trial": 7, "trialdata": {"rt": 17116, "trial_type": "text", "internal_node_id": "0.0-7.0", "time_elapsed": 175807, "key_press": 32, "type": "INSTRUCTIONS", "trial_index": 7}, "uniqueid": "MTK3342:3EO896NRAX2CYJJPT8XKYB166ELTJ8", "dateTime": 1520444866684}, {"current_trial": 8, "trialdata": {"rt": 10634, "trial_type": "text", "internal_node_id": "0.0-8.0", "time_elapsed": 186943, "key_press": 32, "type": "INSTRUCTIONS", "trial_index": 8}, "uniqueid": "MTK3342:3EO896NRAX2CYJJPT8XKYB166ELTJ8", "dateTime": 1520444877820}, {"current_trial": 9, "trialdata": {"rt": [2242, 4035, 6226, 8274, 10113, 12690, 14689, 16786], "trial_type": "math-distractor", "key_times": [1491, 1843, 2242, 3763, 4035, 5827, 5923, 6226, 7826, 7985, 8274, 9665, 9841, 10113, 12274, 12451, 12690, 14210, 14385, 14689, 16322, 16547, 16786], "responses": ["17", "9", "15", "18", "19", "19", "17", "16"], "num2": [3, 1, 7, 4, 3, 9, 8, 7, 8], "num3": [7, 4, 3, 7, 8, 7, 4, 4, 9], "conditions": [18, 1200, "v", 18000], "internal_node_id": "0.0-9.0", "key_presses": [97, 103, 13, 105, 13, 97, 101, 13, 97, 104, 13, 97, 105, 13, 97, 105, 13, 97, 103, 13, 97, 102, 13], "trial": 0, "time_elapsed": 205948, "type": "DISTRACTOR", "trial_index": 9, "num1": [7, 4, 5, 7, 8, 3, 5, 5, 4]}, "uniqueid": "MTK3342:3EO896NRAX2CYJJPT8XKYB166ELTJ8", "dateTime": 1520444896825}, {"current_trial": 10, "trialdata": {"rt": -1, "trial_type": "single-stim", "stimulus": "<p id=\"stim\">10</p>", "internal_node_id": "0.0-10.0-0.0", "time_elapsed": 208952, "key_press": -1, "trial_index": 10}, "uniqueid": "MTK3342:3EO896NRAX2CYJJPT8XKYB166ELTJ8", "dateTime": 1520444899829}, {"current_trial": 11, "trialdata": {"rt": -1, "trial_type": "single-stim", "stimulus": "<p id=\"stim\">9</p>", "internal_node_id": "0.0-10.0-1.0", "time_elapsed": 209954, "key_press": -1, "trial_index": 11}, "uniqueid": "MTK3342:3EO896NRAX2CYJJPT8XKYB166ELTJ8", "dateTime": 1520444900831}, {"current_trial": 12, "trialdata": {"rt": -1, "trial_type": "single-stim", "stimulus": "<p id=\"stim\">8</p>", "internal_node_id": "0.0-10.0-2.0", "time_elapsed": 210957, "key_press": -1, "trial_index": 12}, "uniqueid": "MTK3342:3EO896NRAX2CYJJPT8XKYB166ELTJ8", "dateTime": 1520444901834}, {"current_trial": 13, "trialdata": {"rt": -1, "trial_type": "single-stim", "stimulus": "<p id=\"stim\">7</p>", "internal_node_id": "0.0-10.0-3.0", "time_elapsed": 211957, "key_press": -1, "trial_index": 13}, "uniqueid": "MTK3342:3EO896NRAX2CYJJPT8XKYB166ELTJ8", "dateTime": 1520444902834}, {"current_trial": 14, "trialdata": {"rt": -1, "trial_type": "single-stim", "stimulus": "<p id=\"stim\">6</p>", "internal_node_id": "0.0-10.0-4.0", "time_elapsed": 212959, "key_press": -1, "trial_index": 14}, "uniqueid": "MTK3342:3EO896NRAX2CYJJPT8XKYB166ELTJ8", "dateTime": 1520444903836}, {"current_trial": 15, "trialdata": {"rt": -1, "trial_type": "single-stim", "stimulus": "<p id=\"stim\">5</p>", "internal_node_id": "0.0-10.0-5.0", "time_elapsed": 213961, "key_press": -1, "trial_index": 15}, "uniqueid": "MTK3342:3EO896NRAX2CYJJPT8XKYB166ELTJ8", "dateTime": 1520444904838}, {"current_trial": 16, "trialdata": {"rt": -1, "trial_type": "single-stim", "stimulus": "<p id=\"stim\">4</p>", "internal_node_id": "0.0-10.0-6.0", "time_elapsed": 214961, "key_press": -1, "trial_index": 16}, "uniqueid": "MTK3342:3EO896NRAX2CYJJPT8XKYB166ELTJ8", "dateTime": 1520444905839}, {"current_trial": 17, "trialdata": {"rt": -1, "trial_type": "single-stim", "stimulus": "<p id=\"stim\">3</p>", "internal_node_id": "0.0-10.0-7.0", "time_elapsed": 215962, "key_press": -1, "trial_index": 17}, "uniqueid": "MTK3342:3EO896NRAX2CYJJPT8XKYB166ELTJ8", "dateTime": 1520444906841}, {"current_trial": 18, "trialdata": {"rt": -1, "trial_type": "single-stim", "stimulus": "<p id=\"stim\">2</p>", "internal_node_id": "0.0-10.0-8.0", "time_elapsed": 216966, "key_press": -1, "trial_index": 18}, "uniqueid": "MTK3342:3EO896NRAX2CYJJPT8XKYB166ELTJ8", "dateTime": 1520444907843}, {"current_trial": 19, "trialdata": {"rt": -1, "trial_type": "single-stim", "stimulus": "<p id=\"stim\">1</p>", "internal_node_id": "0.0-10.0-9.0", "time_elapsed": 217967, "key_press": -1, "trial_index": 19}, "uniqueid": "MTK3342:3EO896NRAX2CYJJPT8XKYB166ELTJ8", "dateTime": 1520444908844}, {"current_trial": 20, "trialdata": {"rt": -1, "trial_type": "single-stim", "stimulus": "<p id=\"stim\">+</p>", "internal_node_id": "0.0-11.0-0.0", "time_elapsed": 219469, "key_press": -1, "type": "FIXATION", "trial_index": 20}, "uniqueid": "MTK3342:3EO896NRAX2CYJJPT8XKYB166ELTJ8", "dateTime": 1520444910347}, {"current_trial": 21, "trialdata": {"rt": -1, "trial_type": "single-stim", "word": "paper", "stimulus": "<p id=\"stim\">PAPER</p>", "conditions": [18, 1200, "v", 18000], "internal_node_id": "0.0-12.0", "trial": 0, "time_elapsed": 220671, "serialpos": 0, "key_press": -1, "wordID": 1010, "type": "PRES_VIS", "trial_index": 21}, "uniqueid": "MTK3342:3EO896NRAX2CYJJPT8XKYB166ELTJ8", "dateTime": 1520444911548}, {"current_trial": 22, "trialdata": {"rt": -1, "trial_type": "single-stim", "word": "trout", "stimulus": "<p id=\"stim\">TROUT</p>", "conditions": [18, 1200, "v", 18000], "internal_node_id": "0.0-13.0", "trial": 0, "time_elapsed": 223021, "serialpos": 1, "key_press": -1, "wordID": 1510, "type": "PRES_VIS", "trial_index": 22}, "uniqueid": "MTK3342:3EO896NRAX2CYJJPT8XKYB166ELTJ8", "dateTime": 1520444913898}, {"current_trial": 23, "trialdata": {"rt": -1, "trial_type": "single-stim", "word": "blender", "stimulus": "<p id=\"stim\">BLENDER</p>", "conditions": [18, 1200, "v", 18000], "internal_node_id": "0.0-14.0", "trial": 0, "time_elapsed": 225346, "serialpos": 2, "key_press": -1, "wordID": 135, "type": "PRES_VIS", "trial_index": 23}, "uniqueid": "MTK3342:3EO896NRAX2CYJJPT8XKYB166ELTJ8", "dateTime": 1520444916224}, {"current_trial": 24, "trialdata": {"rt": -1, "trial_type": "single-stim", "word": "brook", "stimulus": "<p id=\"stim\">BROOK</p>", "conditions": [18, 1200, "v", 18000], "internal_node_id": "0.0-15.0", "trial": 0, "time_elapsed": 227652, "serialpos": 3, "key_press": -1, "wordID": 176, "type": "PRES_VIS", "trial_index": 24}, "uniqueid": "MTK3342:3EO896NRAX2CYJJPT8XKYB166ELTJ8", "dateTime": 1520444918529}, {"current_trial": 25, "trialdata": {"rt": -1, "trial_type": "single-stim", "word": "tunnel", "stimulus": "<p id=\"stim\">TUNNEL</p>", "conditions": [18, 1200, "v", 18000], "internal_node_id": "0.0-16.0", "trial": 0, "time_elapsed": 229782, "serialpos": 4, "key_press": -1, "wordID": 1518, "type": "PRES_VIS", "trial_index": 25}, "uniqueid": "MTK3342:3EO896NRAX2CYJJPT8XKYB166ELTJ8", "dateTime": 1520444920660}, {"current_trial": 26, "trialdata": {"rt": -1, "trial_type": "single-stim", "word": "shoulder", "stimulus": "<p id=\"stim\">SHOULDER</p>", "conditions": [18, 1200, "v", 18000], "internal_node_id": "0.0-17.0", "trial": 0, "time_elapsed": 232070, "serialpos": 5, "key_press": -1, "wordID": 1293, "type": "PRES_VIS", "trial_index": 26}, "uniqueid": "MTK3342:3EO896NRAX2CYJJPT8XKYB166ELTJ8", "dateTime": 1520444922947}, {"current_trial": 27, "trialdata": {"rt": -1, "trial_type": "single-stim", "word": "stone", "stimulus": "<p id=\"stim\">STONE</p>", "conditions": [18, 1200, "v", 18000], "internal_node_id": "0.0-18.0", "trial": 0, "time_elapsed": 234265, "serialpos": 6, "key_press": -1, "wordID": 1384, "type": "PRES_VIS", "trial_index": 27}, "uniqueid": "MTK3342:3EO896NRAX2CYJJPT8XKYB166ELTJ8", "dateTime": 1520444925142}, {"current_trial": 28, "trialdata": {"rt": -1, "trial_type": "single-stim", "word": "flute", "stimulus": "<p id=\"stim\">FLUTE</p>", "conditions": [18, 1200, "v", 18000], "internal_node_id": "0.0-19.0", "trial": 0, "time_elapsed": 236273, "serialpos": 7, "key_press": -1, "wordID": 584, "type": "PRES_VIS", "trial_index": 28}, "uniqueid": "MTK3342:3EO896NRAX2CYJJPT8XKYB166ELTJ8", "dateTime": 1520444927150}, {"current_trial": 29, "trialdata": {"rt": -1, "trial_type": "single-stim", "word": "lodge", "stimulus": "<p id=\"stim\">LODGE</p>", "conditions": [18, 1200, "v", 18000], "internal_node_id": "0.0-20.0", "trial": 0, "time_elapsed": 238459, "serialpos": 8, "key_press": -1, "wordID": 838, "type": "PRES_VIS", "trial_index": 29}, "uniqueid": "MTK3342:3EO896NRAX2CYJJPT8XKYB166ELTJ8", "dateTime": 1520444929337}, {"current_trial": 30, "trialdata": {"rt": -1, "trial_type": "single-stim", "word": "poison", "stimulus": "<p id=\"stim\">POISON</p>", "conditions": [18, 1200, "v", 18000], "internal_node_id": "0.0-21.0", "trial": 0, "time_elapsed": 240508, "serialpos": 9, "key_press": -1, "wordID": 1095, "type": "PRES_VIS", "trial_index": 30}, "uniqueid": "MTK3342:3EO896NRAX2CYJJPT8XKYB166ELTJ8", "dateTime": 1520444931385}, {"current_trial": 31, "trialdata": {"rt": -1, "trial_type": "single-stim", "word": "tuba", "stimulus": "<p id=\"stim\">TUBA</p>", "conditions": [18, 1200, "v", 18000], "internal_node_id": "0.0-22.0", "trial": 0, "time_elapsed": 242778, "serialpos": 10, "key_press": -1, "wordID": 1514, "type": "PRES_VIS", "trial_index": 31}, "uniqueid": "MTK3342:3EO896NRAX2CYJJPT8XKYB166ELTJ8", "dateTime": 1520444933657}, {"current_trial": 32, "trialdata": {"rt": -1, "trial_type": "single-stim", "word": "brother", "stimulus": "<p id=\"stim\">BROTHER</p>", "conditions": [18, 1200, "v", 18000], "internal_node_id": "0.0-23.0", "trial": 0, "time_elapsed": 245015, "serialpos": 11, "key_press": -1, "wordID": 178, "type": "PRES_VIS", "trial_index": 32}, "uniqueid": "MTK3342:3EO896NRAX2CYJJPT8XKYB166ELTJ8", "dateTime": 1520444935892}, {"current_trial": 33, "trialdata": {"rt": -1, "trial_type": "single-stim", "word": "eagle", "stimulus": "<p id=\"stim\">EAGLE</p>", "conditions": [18, 1200, "v", 18000], "internal_node_id": "0.0-24.0", "trial": 0, "time_elapsed": 247373, "serialpos": 12, "key_press": -1, "wordID": 511, "type": "PRES_VIS", "trial_index": 33}, "uniqueid": "MTK3342:3EO896NRAX2CYJJPT8XKYB166ELTJ8", "dateTime": 1520444938250}, {"current_trial": 34, "trialdata": {"rt": -1, "trial_type": "single-stim", "word": "scarecrow", "stimulus": "<p id=\"stim\">SCARECROW</p>", "conditions": [18, 1200, "v", 18000], "internal_node_id": "0.0-25.0", "trial": 0, "time_elapsed": 249482, "serialpos": 13, "key_press": -1, "wordID": 1244, "type": "PRES_VIS", "trial_index": 34}, "uniqueid": "MTK3342:3EO896NRAX2CYJJPT8XKYB166ELTJ8", "dateTime": 1520444940359}, {"current_trial": 35, "trialdata": {"rt": -1, "trial_type": "single-stim", "word": "whistle", "stimulus": "<p id=\"stim\">WHISTLE</p>", "conditions": [18, 1200, "v", 18000], "internal_node_id": "0.0-26.0", "trial": 0, "time_elapsed": 251764, "serialpos": 14, "key_press": -1, "wordID": 1605, "type": "PRES_VIS", "trial_index": 35}, "uniqueid": "MTK3342:3EO896NRAX2CYJJPT8XKYB166ELTJ8", "dateTime": 1520444942642}, {"current_trial": 36, "trialdata": {"rt": -1, "trial_type": "single-stim", "word": "sponge", "stimulus": "<p id=\"stim\">SPONGE</p>", "conditions": [18, 1200, "v", 18000], "internal_node_id": "0.0-27.0", "trial": 0, "time_elapsed": 254157, "serialpos": 15, "key_press": -1, "wordID": 1354, "type": "PRES_VIS", "trial_index": 36}, "uniqueid": "MTK3342:3EO896NRAX2CYJJPT8XKYB166ELTJ8", "dateTime": 1520444945035}, {"current_trial": 37, "trialdata": {"rt": -1, "trial_type": "single-stim", "word": "bouquet", "stimulus": "<p id=\"stim\">BOUQUET</p>", "conditions": [18, 1200, "v", 18000], "internal_node_id": "0.0-28.0", "trial": 0, "time_elapsed": 256312, "serialpos": 16, "key_press": -1, "wordID": 156, "type": "PRES_VIS", "trial_index": 37}, "uniqueid": "MTK3342:3EO896NRAX2CYJJPT8XKYB166ELTJ8", "dateTime": 1520444947190}, {"current_trial": 38, "trialdata": {"rt": -1, "trial_type": "single-stim", "word": "leopard", "stimulus": "<p id=\"stim\">LEOPARD</p>", "conditions": [18, 1200, "v", 18000], "internal_node_id": "0.0-29.0", "trial": 0, "time_elapsed": 258337, "serialpos": 17, "key_press": -1, "wordID": 811, "type": "PRES_VIS", "trial_index": 38}, "uniqueid": "MTK3342:3EO896NRAX2CYJJPT8XKYB166ELTJ8", "dateTime": 1520444949214}, {"current_trial": 39, "trialdata": {"rt": -1, "trial_type": "single-stim", "stimulus": "", "internal_node_id": "0.0-30.0-0.0", "time_elapsed": 260750, "key_press": -1, "type": "PRE_RECALL_DELAY", "trial_index": 39}, "uniqueid": "MTK3342:3EO896NRAX2CYJJPT8XKYB166ELTJ8", "dateTime": 1520444951627}, {"current_trial": 40, "trialdata": {"rt": -1000, "trial_type": "single-audio", "stimulus": "/static/audio/400Hz.wav", "internal_node_id": "0.0-31.0", "time_elapsed": 261252, "key_press": -1, "type": "PRE_RECALL_ALERT", "trial_index": 40}, "uniqueid": "MTK3342:3EO896NRAX2CYJJPT8XKYB166ELTJ8", "dateTime": 1520444952130}, {"current_trial": 41, "trialdata": {"rt": [5894, 8486, 10422, 14102], "recwords": ["leopard", "bouquet", "sponge", "scarecrow"], "key_times": [1622, 1625, 1781, 1910, 2086, 2390, 2533, 2693, 2885, 3045, 3654, 3750, 3846, 4005, 4822, 5045, 5157, 5894, 6326, 6519, 6710, 7429, 7606, 7798, 7910, 8486, 8821, 8981, 9206, 9477, 9749, 9925, 10422, 11830, 11941, 12037, 12133, 12277, 12821, 13140, 13269, 13461, 14102], "trial_type": "free-recall", "conditions": [18, 1200, "v", 18000], "internal_node_id": "0.0-32.0-0.0", "key_presses": [75, 76, 69, 79, 80, 8, 8, 8, 8, 8, 76, 69, 79, 80, 65, 82, 68, 13, 66, 79, 85, 81, 85, 69, 84, 13, 83, 80, 79, 78, 71, 69, 13, 83, 67, 65, 82, 69, 67, 82, 79, 87, 13], "trial": 0, "time_elapsed": 321258, "type": "FREE_RECALL", "trial_index": 41}, "uniqueid": "MTK3342:3EO896NRAX2CYJJPT8XKYB166ELTJ8", "dateTime": 1520445012138}, {"current_trial": 42, "trialdata": {"rt": 1873, "trial_type": "text", "internal_node_id": "0.0-33.0", "time_elapsed": 325134, "key_press": 32, "type": "INSTRUCTIONS", "trial_index": 42}, "uniqueid": "MTK3342:3EO896NRAX2CYJJPT8XKYB166ELTJ8", "dateTime": 1520445016011}, {"current_trial": 43, "trialdata": {"rt": [2491, 4235, 5946, 7547, 9498, 11290, 12985, 15003, 16874], "trial_type": "math-distractor", "key_times": [1834, 2106, 2491, 3737, 3914, 4235, 5498, 5674, 5946, 7081, 7306, 7547, 9097, 9242, 9498, 10874, 11018, 11290, 12570, 12730, 12985, 14409, 14730, 15003, 16441, 16634, 16874, 17945], "responses": ["17", "18", "13", "10", "16", "12", "11", "13", "16"], "num2": [6, 7, 1, 2, 4, 9, 3, 7, 7, 1], "num3": [3, 3, 4, 4, 9, 2, 6, 5, 5, 1], "conditions": [18, 1200, "v", 18000], "internal_node_id": "0.0-34.0", "key_presses": [97, 103, 13, 97, 104, 13, 97, 99, 13, 97, 96, 13, 97, 102, 13, 97, 98, 13, 97, 97, 13, 97, 99, 13, 97, 102, 13, 102], "trial": 1, "time_elapsed": 345141, "type": "DISTRACTOR", "trial_index": 43, "num1": [8, 8, 8, 4, 3, 1, 2, 1, 4, 4]}, "uniqueid": "MTK3342:3EO896NRAX2CYJJPT8XKYB166ELTJ8", "dateTime": 1520445036018}, {"current_trial": 44, "trialdata": {"rt": -1, "trial_type": "single-stim", "stimulus": "<p id=\"stim\">10</p>", "internal_node_id": "0.0-35.0-0.0", "time_elapsed": 348141, "key_press": -1, "trial_index": 44}, "uniqueid": "MTK3342:3EO896NRAX2CYJJPT8XKYB166ELTJ8", "dateTime": 1520445039019}, {"current_trial": 45, "trialdata": {"rt": -1, "trial_type": "single-stim", "stimulus": "<p id=\"stim\">9</p>", "internal_node_id": "0.0-35.0-1.0", "time_elapsed": 349143, "key_press": -1, "trial_index": 45}, "uniqueid": "MTK3342:3EO896NRAX2CYJJPT8XKYB166ELTJ8", "dateTime": 1520445040020}, {"current_trial": 46, "trialdata": {"rt": -1, "trial_type": "single-stim", "stimulus": "<p id=\"stim\">8</p>", "internal_node_id": "0.0-35.0-2.0", "time_elapsed": 350142, "key_press": -1, "trial_index": 46}, "uniqueid": "MTK3342:3EO896NRAX2CYJJPT8XKYB166ELTJ8", "dateTime": 1520445041021}, {"current_trial": 47, "trialdata": {"rt": -1, "trial_type": "single-stim", "stimulus": "<p id=\"stim\">7</p>", "internal_node_id": "0.0-35.0-3.0", "time_elapsed": 351146, "key_press": -1, "trial_index": 47}, "uniqueid": "MTK3342:3EO896NRAX2CYJJPT8XKYB166ELTJ8", "dateTime": 1520445042023}, {"current_trial": 48, "trialdata": {"rt": -1, "trial_type": "single-stim", "stimulus": "<p id=\"stim\">6</p>", "internal_node_id": "0.0-35.0-4.0", "time_elapsed": 352147, "key_press": -1, "trial_index": 48}, "uniqueid": "MTK3342:3EO896NRAX2CYJJPT8XKYB166ELTJ8", "dateTime": 1520445043024}, {"current_trial": 49, "trialdata": {"rt": -1, "trial_type": "single-stim", "stimulus": "<p id=\"stim\">5</p>", "internal_node_id": "0.0-35.0-5.0", "time_elapsed": 353146, "key_press": -1, "trial_index": 49}, "uniqueid": "MTK3342:3EO896NRAX2CYJJPT8XKYB166ELTJ8", "dateTime": 1520445044024}, {"current_trial": 50, "trialdata": {"rt": -1, "trial_type": "single-stim", "stimulus": "<p id=\"stim\">4</p>", "internal_node_id": "0.0-35.0-6.0", "time_elapsed": 354149, "key_press": -1, "trial_index": 50}, "uniqueid": "MTK3342:3EO896NRAX2CYJJPT8XKYB166ELTJ8", "dateTime": 1520445045026}, {"current_trial": 51, "trialdata": {"rt": -1, "trial_type": "single-stim", "stimulus": "<p id=\"stim\">3</p>", "internal_node_id": "0.0-35.0-7.0", "time_elapsed": 355150, "key_press": -1, "trial_index": 51}, "uniqueid": "MTK3342:3EO896NRAX2CYJJPT8XKYB166ELTJ8", "dateTime": 1520445046027}, {"current_trial": 52, "trialdata": {"rt": -1, "trial_type": "single-stim", "stimulus": "<p id=\"stim\">2</p>", "internal_node_id": "0.0-35.0-8.0", "time_elapsed": 356152, "key_press": -1, "trial_index": 52}, "uniqueid": "MTK3342:3EO896NRAX2CYJJPT8XKYB166ELTJ8", "dateTime": 1520445047029}, {"current_trial": 53, "trialdata": {"rt": -1, "trial_type": "single-stim", "stimulus": "<p id=\"stim\">1</p>", "internal_node_id": "0.0-35.0-9.0", "time_elapsed": 357152, "key_press": -1, "trial_index": 53}, "uniqueid": "MTK3342:3EO896NRAX2CYJJPT8XKYB166ELTJ8", "dateTime": 1520445048029}, {"current_trial": 54, "trialdata": {"rt": -1, "trial_type": "single-stim", "stimulus": "<p id=\"stim\">+</p>", "internal_node_id": "0.0-36.0-0.0", "time_elapsed": 358654, "key_press": -1, "type": "FIXATION", "trial_index": 54}, "uniqueid": "MTK3342:3EO896NRAX2CYJJPT8XKYB166ELTJ8", "dateTime": 1520445049531}, {"current_trial": 55, "trialdata": {"rt": -1, "trial_type": "single-stim", "word": "robot", "stimulus": "<p id=\"stim\">ROBOT</p>", "conditions": [18, 1200, "v", 18000], "internal_node_id": "0.0-37.0", "trial": 1, "time_elapsed": 359854, "serialpos": 0, "key_press": -1, "wordID": 1199, "type": "PRES_VIS", "trial_index": 55}, "uniqueid": "MTK3342:3EO896NRAX2CYJJPT8XKYB166ELTJ8", "dateTime": 1520445050731}, {"current_trial": 56, "trialdata": {"rt": -1, "trial_type": "single-stim", "word": "beaver", "stimulus": "<p id=\"stim\">BEAVER</p>", "conditions": [18, 1200, "v", 18000], "internal_node_id": "0.0-38.0", "trial": 1, "time_elapsed": 362157, "serialpos": 1, "key_press": -1, "wordID": 108, "type": "PRES_VIS", "trial_index": 56}, "uniqueid": "MTK3342:3EO896NRAX2CYJJPT8XKYB166ELTJ8", "dateTime": 1520445053034}, {"current_trial": 57, "trialdata": {"rt": -1, "trial_type": "single-stim", "word": "spool", "stimulus": "<p id=\"stim\">SPOOL</p>", "conditions": [18, 1200, "v", 18000], "internal_node_id": "0.0-39.0", "trial": 1, "time_elapsed": 364307, "serialpos": 2, "key_press": -1, "wordID": 1355, "type": "PRES_VIS", "trial_index": 57}, "uniqueid": "MTK3342:3EO896NRAX2CYJJPT8XKYB166ELTJ8", "dateTime": 1520445055186}, {"current_trial": 58, "trialdata": {"rt": -1, "trial_type": "single-stim", "word": "barley", "stimulus": "<p id=\"stim\">BARLEY</p>", "conditions": [18, 1200, "v", 18000], "internal_node_id": "0.0-40.0", "trial": 1, "time_elapsed": 366320, "serialpos": 3, "key_press": -1, "wordID": 87, "type": "PRES_VIS", "trial_index": 58}, "uniqueid": "MTK3342:3EO896NRAX2CYJJPT8XKYB166ELTJ8", "dateTime": 1520445057197}, {"current_trial": 59, "trialdata": {"rt": -1, "trial_type": "single-stim", "word": "lettuce", "stimulus": "<p id=\"stim\">LETTUCE</p>", "conditions": [18, 1200, "v", 18000], "internal_node_id": "0.0-41.0", "trial": 1, "time_elapsed": 368626, "serialpos": 4, "key_press": -1, "wordID": 813, "type": "PRES_VIS", "trial_index": 59}, "uniqueid": "MTK3342:3EO896NRAX2CYJJPT8XKYB166ELTJ8", "dateTime": 1520445059503}, {"current_trial": 60, "trialdata": {"rt": -1, "trial_type": "single-stim", "word": "box", "stimulus": "<p id=\"stim\">BOX</p>", "conditions": [18, 1200, "v", 18000], "internal_node_id": "0.0-42.0", "trial": 1, "time_elapsed": 370903, "serialpos": 5, "key_press": -1, "wordID": 158, "type": "PRES_VIS", "trial_index": 60}, "uniqueid": "MTK3342:3EO896NRAX2CYJJPT8XKYB166ELTJ8", "dateTime": 1520445061781}, {"current_trial": 61, "trialdata": {"rt": -1, "trial_type": "single-stim", "word": "briefcase", "stimulus": "<p id=\"stim\">BRIEFCASE</p>", "conditions": [18, 1200, "v", 18000], "internal_node_id": "0.0-43.0", "trial": 1, "time_elapsed": 373165, "serialpos": 6, "key_press": -1, "wordID": 174, "type": "PRES_VIS", "trial_index": 61}, "uniqueid": "MTK3342:3EO896NRAX2CYJJPT8XKYB166ELTJ8", "dateTime": 1520445064043}, {"current_trial": 62, "trialdata": {"rt": -1, "trial_type": "single-stim", "word": "space", "stimulus": "<p id=\"stim\">SPACE</p>", "conditions": [18, 1200, "v", 18000], "internal_node_id": "0.0-44.0", "trial": 1, "time_elapsed": 375497, "serialpos": 7, "key_press": -1, "wordID": 1344, "type": "PRES_VIS", "trial_index": 62}, "uniqueid": "MTK3342:3EO896NRAX2CYJJPT8XKYB166ELTJ8", "dateTime": 1520445066374}, {"current_trial": 63, "trialdata": {"rt": -1, "trial_type": "single-stim", "word": "witness", "stimulus": "<p id=\"stim\">WITNESS</p>", "conditions": [18, 1200, "v", 18000], "internal_node_id": "0.0-45.0", "trial": 1, "time_elapsed": 377888, "serialpos": 8, "key_press": -1, "wordID": 1617, "type": "PRES_VIS", "trial_index": 63}, "uniqueid": "MTK3342:3EO896NRAX2CYJJPT8XKYB166ELTJ8", "dateTime": 1520445068765}, {"current_trial": 64, "trialdata": {"rt": -1, "trial_type": "single-stim", "word": "report", "stimulus": "<p id=\"stim\">REPORT</p>", "conditions": [18, 1200, "v", 18000], "internal_node_id": "0.0-46.0", "trial": 1, "time_elapsed": 380249, "serialpos": 9, "key_press": -1, "wordID": 1183, "type": "PRES_VIS", "trial_index": 64}, "uniqueid": "MTK3342:3EO896NRAX2CYJJPT8XKYB166ELTJ8", "dateTime": 1520445071127}, {"current_trial": 65, "trialdata": {"rt": -1, "trial_type": "single-stim", "word": "grave", "stimulus": "<p id=\"stim\">GRAVE</p>", "conditions": [18, 1200, "v", 18000], "internal_node_id": "0.0-47.0", "trial": 1, "time_elapsed": 382545, "serialpos": 10, "key_press": -1, "wordID": 657, "type": "PRES_VIS", "trial_index": 65}, "uniqueid": "MTK3342:3EO896NRAX2CYJJPT8XKYB166ELTJ8", "dateTime": 1520445073424}, {"current_trial": 66, "trialdata": {"rt": -1, "trial_type": "single-stim", "word": "pizza", "stimulus": "<p id=\"stim\">PIZZA</p>", "conditions": [18, 1200, "v", 18000], "internal_node_id": "0.0-48.0", "trial": 1, "time_elapsed": 384662, "serialpos": 11, "key_press": -1, "wordID": 1078, "type": "PRES_VIS", "trial_index": 66}, "uniqueid": "MTK3342:3EO896NRAX2CYJJPT8XKYB166ELTJ8", "dateTime": 1520445075539}, {"current_trial": 67, "trialdata": {"rt": -1, "trial_type": "single-stim", "word": "hornet", "stimulus": "<p id=\"stim\">HORNET</p>", "conditions": [18, 1200, "v", 18000], "internal_node_id": "0.0-49.0", "trial": 1, "time_elapsed": 386853, "serialpos": 12, "key_press": -1, "wordID": 717, "type": "PRES_VIS", "trial_index": 67}, "uniqueid": "MTK3342:3EO896NRAX2CYJJPT8XKYB166ELTJ8", "dateTime": 1520445077731}, {"current_trial": 68, "trialdata": {"rt": -1, "trial_type": "single-stim", "word": "viking", "stimulus": "<p id=\"stim\">VIKING</p>", "conditions": [18, 1200, "v", 18000], "internal_node_id": "0.0-50.0", "trial": 1, "time_elapsed": 388930, "serialpos": 13, "key_press": -1, "wordID": 1564, "type": "PRES_VIS", "trial_index": 68}, "uniqueid": "MTK3342:3EO896NRAX2CYJJPT8XKYB166ELTJ8", "dateTime": 1520445079810}, {"current_trial": 69, "trialdata": {"rt": -1, "trial_type": "single-stim", "word": "twister", "stimulus": "<p id=\"stim\">TWISTER</p>", "conditions": [18, 1200, "v", 18000], "internal_node_id": "0.0-51.0", "trial": 1, "time_elapsed": 391203, "serialpos": 14, "key_press": -1, "wordID": 1529, "type": "PRES_VIS", "trial_index": 69}, "uniqueid": "MTK3342:3EO896NRAX2CYJJPT8XKYB166ELTJ8", "dateTime": 1520445082081}, {"current_trial": 70, "trialdata": {"rt": -1, "trial_type": "single-stim", "word": "palace", "stimulus": "<p id=\"stim\">PALACE</p>", "conditions": [18, 1200, "v", 18000], "internal_node_id": "0.0-52.0", "trial": 1, "time_elapsed": 393497, "serialpos": 15, "key_press": -1, "wordID": 1005, "type": "PRES_VIS", "trial_index": 70}, "uniqueid": "MTK3342:3EO896NRAX2CYJJPT8XKYB166ELTJ8", "dateTime": 1520445084374}, {"current_trial": 71, "trialdata": {"rt": -1, "trial_type": "single-stim", "word": "lagoon", "stimulus": "<p id=\"stim\">LAGOON</p>", "conditions": [18, 1200, "v", 18000], "internal_node_id": "0.0-53.0", "trial": 1, "time_elapsed": 395598, "serialpos": 16, "key_press": -1, "wordID": 794, "type": "PRES_VIS", "trial_index": 71}, "uniqueid": "MTK3342:3EO896NRAX2CYJJPT8XKYB166ELTJ8", "dateTime": 1520445086476}, {"current_trial": 72, "trialdata": {"rt": -1, "trial_type": "single-stim", "word": "salad", "stimulus": "<p id=\"stim\">SALAD</p>", "conditions": [18, 1200, "v", 18000], "internal_node_id": "0.0-54.0", "trial": 1, "time_elapsed": 397626, "serialpos": 17, "key_press": -1, "wordID": 1223, "type": "PRES_VIS", "trial_index": 72}, "uniqueid": "MTK3342:3EO896NRAX2CYJJPT8XKYB166ELTJ8", "dateTime": 1520445088503}, {"current_trial": 73, "trialdata": {"rt": -1, "trial_type": "single-stim", "stimulus": "", "internal_node_id": "0.0-55.0-0.0", "time_elapsed": 399806, "key_press": -1, "type": "PRE_RECALL_DELAY", "trial_index": 73}, "uniqueid": "MTK3342:3EO896NRAX2CYJJPT8XKYB166ELTJ8", "dateTime": 1520445090684}, {"current_trial": 74, "trialdata": {"rt": -1000, "trial_type": "single-audio", "stimulus": "/static/audio/400Hz.wav", "internal_node_id": "0.0-56.0", "time_elapsed": 400309, "key_press": -1, "type": "PRE_RECALL_ALERT", "trial_index": 74}, "uniqueid": "MTK3342:3EO896NRAX2CYJJPT8XKYB166ELTJ8", "dateTime": 1520445091186}, {"current_trial": 75, "trialdata": {"rt": [2773, 4629, 5893, 7540, 9573, 12773, 13988, 17510, 21621, 24660, 34805, 54214, 57638], "recwords": ["salad", "lettuce", "pizza", "robot", "beaver", "barley", "spool", "lagoon", "viking", "hornet", "box", "barley", "dexterity"], "key_times": [821, 996, 1109, 1365, 2084, 2308, 2580, 2773, 3348, 3412, 3668, 3796, 3909, 4101, 4261, 4629, 4900, 5140, 5332, 5476, 5668, 5893, 6356, 6548, 6820, 6932, 7077, 7540, 8725, 8773, 8980, 9077, 9269, 9396, 9573, 11158, 11252, 11508, 11654, 12244, 12292, 12773, 13060, 13172, 13412, 13556, 13701, 13988, 15909, 15972, 16277, 16485, 16628, 16788, 17510, 19844, 19972, 20148, 20324, 20484, 21461, 21621, 22324, 22565, 23365, 23845, 24116, 24372, 24660, 32836, 33669, 34181, 34805, 42565, 42886, 43958, 44245, 44981, 45573, 46073, 46107, 46139, 46172, 46205, 46238, 46271, 46304, 46337, 52581, 52693, 53157, 53237, 53429, 53541, 54214, 55221, 55381, 56085, 56213, 56437, 56549, 56821, 56949, 57077, 57638], "trial_type": "free-recall", "conditions": [18, 1200, "v", 18000], "internal_node_id": "0.0-57.0-0.0", "key_presses": [83, 65, 76, 68, 8, 65, 68, 13, 76, 69, 84, 84, 85, 67, 69, 13, 80, 73, 90, 90, 65, 13, 82, 79, 66, 79, 84, 13, 66, 69, 65, 86, 69, 82, 13, 66, 65, 82, 76, 69, 89, 13, 83, 80, 79, 79, 76, 13, 76, 65, 71, 79, 79, 78, 13, 86, 73, 75, 73, 78, 71, 13, 72, 79, 82, 78, 69, 84, 13, 66, 79, 88, 13, 69, 88, 69, 67, 85, 8, 8, 8, 8, 8, 8, 8, 8, 8, 8, 66, 65, 82, 76, 69, 89, 13, 68, 69, 88, 84, 69, 82, 73, 84, 89, 13], "trial": 1, "time_elapsed": 460314, "type": "FREE_RECALL", "trial_index": 75}, "uniqueid": "MTK3342:3EO896NRAX2CYJJPT8XKYB166ELTJ8", "dateTime": 1520445151194}, {"current_trial": 76, "trialdata": {"rt": 4847, "trial_type": "text", "internal_node_id": "0.0-58.0", "time_elapsed": 467166, "key_press": 32, "type": "INSTRUCTIONS", "trial_index": 76}, "uniqueid": "MTK3342:3EO896NRAX2CYJJPT8XKYB166ELTJ8", "dateTime": 1520445158043}, {"current_trial": 77, "trialdata": {"rt": [2196, 4484, 5940, 7956, 9444, 11012, 12468, 15316, 17301, 19254, 20741, 23045], "trial_type": "math-distractor", "key_times": [1716, 1875, 2196, 4083, 4229, 4484, 5524, 5715, 5940, 7492, 7684, 7956, 9044, 9204, 9444, 10564, 10707, 11012, 12116, 12196, 12468, 14148, 14820, 15316, 16916, 17060, 17301, 18788, 18980, 19254, 20308, 20741, 22644, 22804, 23045], "responses": ["16", "18", "16", "14", "16", "12", "15", "20", "11", "21", "1", "13"], "num2": [6, 9, 3, 4, 8, 1, 2, 4, 3, 7, 4, 1, 8], "num3": [7, 3, 6, 8, 6, 6, 5, 9, 7, 5, 8, 8, 7], "conditions": [12, 800, "v", 24000], "internal_node_id": "0.0-59.0", "key_presses": [97, 102, 13, 97, 104, 13, 97, 102, 13, 97, 100, 13, 97, 102, 13, 97, 98, 13, 97, 101, 13, 98, 96, 13, 97, 97, 13, 98, 97, 13, 97, 13, 97, 99, 13], "trial": 2, "time_elapsed": 492170, "type": "DISTRACTOR", "trial_index": 77, "num1": [3, 6, 7, 2, 2, 5, 8, 7, 1, 9, 6, 4, 8]}, "uniqueid": "MTK3342:3EO896NRAX2CYJJPT8XKYB166ELTJ8", "dateTime": 1520445183047}, {"current_trial": 78, "trialdata": {"rt": -1, "trial_type": "single-stim", "stimulus": "<p id=\"stim\">10</p>", "internal_node_id": "0.0-60.0-0.0", "time_elapsed": 495171, "key_press": -1, "trial_index": 78}, "uniqueid": "MTK3342:3EO896NRAX2CYJJPT8XKYB166ELTJ8", "dateTime": 1520445186048}, {"current_trial": 79, "trialdata": {"rt": -1, "trial_type": "single-stim", "stimulus": "<p id=\"stim\">9</p>", "internal_node_id": "0.0-60.0-1.0", "time_elapsed": 496173, "key_press": -1, "trial_index": 79}, "uniqueid": "MTK3342:3EO896NRAX2CYJJPT8XKYB166ELTJ8", "dateTime": 1520445187050}, {"current_trial": 80, "trialdata": {"rt": -1, "trial_type": "single-stim", "stimulus": "<p id=\"stim\">8</p>", "internal_node_id": "0.0-60.0-2.0", "time_elapsed": 497174, "key_press": -1, "trial_index": 80}, "uniqueid": "MTK3342:3EO896NRAX2CYJJPT8XKYB166ELTJ8", "dateTime": 1520445188053}, {"current_trial": 81, "trialdata": {"rt": -1, "trial_type": "single-stim", "stimulus": "<p id=\"stim\">7</p>", "internal_node_id": "0.0-60.0-3.0", "time_elapsed": 498177, "key_press": -1, "trial_index": 81}, "uniqueid": "MTK3342:3EO896NRAX2CYJJPT8XKYB166ELTJ8", "dateTime": 1520445189054}, {"current_trial": 82, "trialdata": {"rt": -1, "trial_type": "single-stim", "stimulus": "<p id=\"stim\">6</p>", "internal_node_id": "0.0-60.0-4.0", "time_elapsed": 499180, "key_press": -1, "trial_index": 82}, "uniqueid": "MTK3342:3EO896NRAX2CYJJPT8XKYB166ELTJ8", "dateTime": 1520445190057}, {"current_trial": 83, "trialdata": {"rt": -1, "trial_type": "single-stim", "stimulus": "<p id=\"stim\">5</p>", "internal_node_id": "0.0-60.0-5.0", "time_elapsed": 500181, "key_press": -1, "trial_index": 83}, "uniqueid": "MTK3342:3EO896NRAX2CYJJPT8XKYB166ELTJ8", "dateTime": 1520445191058}, {"current_trial": 84, "trialdata": {"rt": -1, "trial_type": "single-stim", "stimulus": "<p id=\"stim\">4</p>", "internal_node_id": "0.0-60.0-6.0", "time_elapsed": 501181, "key_press": -1, "trial_index": 84}, "uniqueid": "MTK3342:3EO896NRAX2CYJJPT8XKYB166ELTJ8", "dateTime": 1520445192059}, {"current_trial": 85, "trialdata": {"rt": -1, "trial_type": "single-stim", "stimulus": "<p id=\"stim\">3</p>", "internal_node_id": "0.0-60.0-7.0", "time_elapsed": 502185, "key_press": -1, "trial_index": 85}, "uniqueid": "MTK3342:3EO896NRAX2CYJJPT8XKYB166ELTJ8", "dateTime": 1520445193063}, {"current_trial": 86, "trialdata": {"rt": -1, "trial_type": "single-stim", "stimulus": "<p id=\"stim\">2</p>", "internal_node_id": "0.0-60.0-8.0", "time_elapsed": 503188, "key_press": -1, "trial_index": 86}, "uniqueid": "MTK3342:3EO896NRAX2CYJJPT8XKYB166ELTJ8", "dateTime": 1520445194065}, {"current_trial": 87, "trialdata": {"rt": -1, "trial_type": "single-stim", "stimulus": "<p id=\"stim\">1</p>", "internal_node_id": "0.0-60.0-9.0", "time_elapsed": 504190, "key_press": -1, "trial_index": 87}, "uniqueid": "MTK3342:3EO896NRAX2CYJJPT8XKYB166ELTJ8", "dateTime": 1520445195067}, {"current_trial": 88, "trialdata": {"rt": -1, "trial_type": "single-stim", "stimulus": "<p id=\"stim\">+</p>", "internal_node_id": "0.0-61.0-0.0", "time_elapsed": 505691, "key_press": -1, "type": "FIXATION", "trial_index": 88}, "uniqueid": "MTK3342:3EO896NRAX2CYJJPT8XKYB166ELTJ8", "dateTime": 1520445196568}, {"current_trial": 89, "trialdata": {"rt": -1, "trial_type": "single-stim", "word": "suitcase", "stimulus": "<p id=\"stim\">SUITCASE</p>", "conditions": [12, 800, "v", 24000], "internal_node_id": "0.0-62.0", "trial": 2, "time_elapsed": 506491, "serialpos": 0, "key_press": -1, "wordID": 1402, "type": "PRES_VIS", "trial_index": 89}, "uniqueid": "MTK3342:3EO896NRAX2CYJJPT8XKYB166ELTJ8", "dateTime": 1520445197368}, {"current_trial": 90, "trialdata": {"rt": -1, "trial_type": "single-stim", "word": "london", "stimulus": "<p id=\"stim\">LONDON</p>", "conditions": [12, 800, "v", 24000], "internal_node_id": "0.0-63.0", "trial": 2, "time_elapsed": 508283, "serialpos": 1, "key_press": -1, "wordID": 842, "type": "PRES_VIS", "trial_index": 90}, "uniqueid": "MTK3342:3EO896NRAX2CYJJPT8XKYB166ELTJ8", "dateTime": 1520445199160}, {"current_trial": 91, "trialdata": {"rt": -1, "trial_type": "single-stim", "word": "goblin", "stimulus": "<p id=\"stim\">GOBLIN</p>", "conditions": [12, 800, "v", 24000], "internal_node_id": "0.0-64.0", "trial": 2, "time_elapsed": 510111, "serialpos": 2, "key_press": -1, "wordID": 644, "type": "PRES_VIS", "trial_index": 91}, "uniqueid": "MTK3342:3EO896NRAX2CYJJPT8XKYB166ELTJ8", "dateTime": 1520445200988}, {"current_trial": 92, "trialdata": {"rt": -1, "trial_type": "single-stim", "word": "shovel", "stimulus": "<p id=\"stim\">SHOVEL</p>", "conditions": [12, 800, "v", 24000], "internal_node_id": "0.0-65.0", "trial": 2, "time_elapsed": 512030, "serialpos": 3, "key_press": -1, "wordID": 1294, "type": "PRES_VIS", "trial_index": 92}, "uniqueid": "MTK3342:3EO896NRAX2CYJJPT8XKYB166ELTJ8", "dateTime": 1520445202907}, {"current_trial": 93, "trialdata": {"rt": -1, "trial_type": "single-stim", "word": "clamp", "stimulus": "<p id=\"stim\">CLAMP</p>", "conditions": [12, 800, "v", 24000], "internal_node_id": "0.0-66.0", "trial": 2, "time_elapsed": 513923, "serialpos": 4, "key_press": -1, "wordID": 315, "type": "PRES_VIS", "trial_index": 93}, "uniqueid": "MTK3342:3EO896NRAX2CYJJPT8XKYB166ELTJ8", "dateTime": 1520445204800}, {"current_trial": 94, "trialdata": {"rt": -1, "trial_type": "single-stim", "word": "valve", "stimulus": "<p id=\"stim\">VALVE</p>", "conditions": [12, 800, "v", 24000], "internal_node_id": "0.0-67.0", "trial": 2, "time_elapsed": 515798, "serialpos": 5, "key_press": -1, "wordID": 1545, "type": "PRES_VIS", "trial_index": 94}, "uniqueid": "MTK3342:3EO896NRAX2CYJJPT8XKYB166ELTJ8", "dateTime": 1520445206675}, {"current_trial": 95, "trialdata": {"rt": -1, "trial_type": "single-stim", "word": "bucket", "stimulus": "<p id=\"stim\">BUCKET</p>", "conditions": [12, 800, "v", 24000], "internal_node_id": "0.0-68.0", "trial": 2, "time_elapsed": 517798, "serialpos": 6, "key_press": -1, "wordID": 183, "type": "PRES_VIS", "trial_index": 95}, "uniqueid": "MTK3342:3EO896NRAX2CYJJPT8XKYB166ELTJ8", "dateTime": 1520445208675}, {"current_trial": 96, "trialdata": {"rt": -1, "trial_type": "single-stim", "word": "europe", "stimulus": "<p id=\"stim\">EUROPE</p>", "conditions": [12, 800, "v", 24000], "internal_node_id": "0.0-69.0", "trial": 2, "time_elapsed": 519518, "serialpos": 7, "key_press": -1, "wordID": 540, "type": "PRES_VIS", "trial_index": 96}, "uniqueid": "MTK3342:3EO896NRAX2CYJJPT8XKYB166ELTJ8", "dateTime": 1520445210397}, {"current_trial": 97, "trialdata": {"rt": -1, "trial_type": "single-stim", "word": "asia", "stimulus": "<p id=\"stim\">ASIA</p>", "conditions": [12, 800, "v", 24000], "internal_node_id": "0.0-70.0", "trial": 2, "time_elapsed": 521282, "serialpos": 8, "key_press": -1, "wordID": 45, "type": "PRES_VIS", "trial_index": 97}, "uniqueid": "MTK3342:3EO896NRAX2CYJJPT8XKYB166ELTJ8", "dateTime": 1520445212159}, {"current_trial": 98, "trialdata": {"rt": -1, "trial_type": "single-stim", "word": "dragon", "stimulus": "<p id=\"stim\">DRAGON</p>", "conditions": [12, 800, "v", 24000], "internal_node_id": "0.0-71.0", "trial": 2, "time_elapsed": 522903, "serialpos": 9, "key_press": -1, "wordID": 491, "type": "PRES_VIS", "trial_index": 98}, "uniqueid": "MTK3342:3EO896NRAX2CYJJPT8XKYB166ELTJ8", "dateTime": 1520445213780}, {"current_trial": 99, "trialdata": {"rt": -1, "trial_type": "single-stim", "word": "uncle", "stimulus": "<p id=\"stim\">UNCLE</p>", "conditions": [12, 800, "v", 24000], "internal_node_id": "0.0-72.0", "trial": 2, "time_elapsed": 524535, "serialpos": 10, "key_press": -1, "wordID": 1535, "type": "PRES_VIS", "trial_index": 99}, "uniqueid": "MTK3342:3EO896NRAX2CYJJPT8XKYB166ELTJ8", "dateTime": 1520445215413}, {"current_trial": 100, "trialdata": {"rt": -1, "trial_type": "single-stim", "word": "garden", "stimulus": "<p id=\"stim\">GARDEN</p>", "conditions": [12, 800, "v", 24000], "internal_node_id": "0.0-73.0", "trial": 2, "time_elapsed": 526322, "serialpos": 11, "key_press": -1, "wordID": 622, "type": "PRES_VIS", "trial_index": 100}, "uniqueid": "MTK3342:3EO896NRAX2CYJJPT8XKYB166ELTJ8", "dateTime": 1520445217201}, {"current_trial": 101, "trialdata": {"rt": -1, "trial_type": "single-stim", "stimulus": "", "internal_node_id": "0.0-74.0-0.0", "time_elapsed": 528463, "key_press": -1, "type": "PRE_RECALL_DELAY", "trial_index": 101}, "uniqueid": "MTK3342:3EO896NRAX2CYJJPT8XKYB166ELTJ8", "dateTime": 1520445219342}, {"current_trial": 102, "trialdata": {"rt": -1000, "trial_type": "single-audio", "stimulus": "/static/audio/400Hz.wav", "internal_node_id": "0.0-75.0", "time_elapsed": 528966, "key_press": -1, "type": "PRE_RECALL_ALERT", "trial_index": 102}, "uniqueid": "MTK3342:3EO896NRAX2CYJJPT8XKYB166ELTJ8", "dateTime": 1520445219843}, {"current_trial": 103, "trialdata": {"rt": [2948, 5156, 6899, 8116, 11413, 13156, 15251, 20069, 30052], "recwords": ["garden", "london", "europe", "asia", "gnome", "bucket", "shovel", "suitcase", "goblin"], "key_times": [1059, 1171, 1507, 1827, 1940, 2131, 2948, 3315, 3539, 3684, 4371, 4483, 4659, 5156, 5475, 5668, 5939, 6164, 6340, 6451, 6899, 7091, 7283, 7412, 7587, 8116, 9475, 9875, 10436, 10676, 10883, 11413, 11764, 11939, 12276, 12388, 12595, 12867, 13156, 13459, 13667, 13971, 14147, 14371, 14996, 15251, 17331, 17396, 17541, 17779, 18084, 18756, 18867, 19076, 19252, 19491, 20069, 28692, 28835, 29235, 29347, 29524, 29779, 30052], "trial_type": "free-recall", "conditions": [12, 800, "v", 24000], "internal_node_id": "0.0-76.0-0.0", "key_presses": [71, 65, 82, 68, 69, 78, 13, 76, 79, 78, 68, 79, 78, 13, 69, 85, 82, 79, 80, 69, 13, 65, 83, 73, 65, 13, 71, 78, 79, 77, 69, 13, 66, 85, 67, 75, 69, 84, 13, 83, 72, 79, 86, 69, 76, 13, 83, 85, 73, 84, 65, 8, 67, 65, 83, 69, 13, 71, 79, 66, 76, 73, 78, 13], "trial": 2, "time_elapsed": 588970, "type": "FREE_RECALL", "trial_index": 103}, "uniqueid": "MTK3342:3EO896NRAX2CYJJPT8XKYB166ELTJ8", "dateTime": 1520445279849}, {"current_trial": 104, "trialdata": {"rt": 1425, "trial_type": "text", "internal_node_id": "0.0-77.0", "time_elapsed": 592397, "key_press": 32, "type": "INSTRUCTIONS", "trial_index": 104}, "uniqueid": "MTK3342:3EO896NRAX2CYJJPT8XKYB166ELTJ8", "dateTime": 1520445283274}, {"current_trial": 105, "trialdata": {"rt": [1903, 3390, 5086, 7214, 8686, 10367, 11774], "trial_type": "math-distractor", "key_times": [1519, 1677, 1903, 2942, 3118, 3390, 4591, 4782, 5086, 6767, 6990, 7214, 8270, 8479, 8686, 9982, 10158, 10367, 11406, 11519, 11774], "responses": ["22", "18", "17", "14", "10", "22", "15"], "num2": [8, 8, 7, 3, 6, 7, 7, 4], "num3": [6, 1, 6, 5, 1, 6, 5, 2], "conditions": [24, 1600, "v", 12000], "internal_node_id": "0.0-78.0", "key_presses": [98, 98, 13, 97, 104, 13, 97, 103, 13, 97, 100, 13, 97, 96, 13, 98, 98, 13, 97, 101, 13], "trial": 3, "time_elapsed": 606399, "type": "DISTRACTOR", "trial_index": 105, "num1": [8, 9, 4, 6, 3, 9, 3, 9]}, "uniqueid": "MTK3342:3EO896NRAX2CYJJPT8XKYB166ELTJ8", "dateTime": 1520445297276}, {"current_trial": 106, "trialdata": {"rt": -1, "trial_type": "single-stim", "stimulus": "<p id=\"stim\">10</p>", "internal_node_id": "0.0-79.0-0.0", "time_elapsed": 609400, "key_press": -1, "trial_index": 106}, "uniqueid": "MTK3342:3EO896NRAX2CYJJPT8XKYB166ELTJ8", "dateTime": 1520445300277}, {"current_trial": 107, "trialdata": {"rt": -1, "trial_type": "single-stim", "stimulus": "<p id=\"stim\">9</p>", "internal_node_id": "0.0-79.0-1.0", "time_elapsed": 610401, "key_press": -1, "trial_index": 107}, "uniqueid": "MTK3342:3EO896NRAX2CYJJPT8XKYB166ELTJ8", "dateTime": 1520445301280}, {"current_trial": 108, "trialdata": {"rt": -1, "trial_type": "single-stim", "stimulus": "<p id=\"stim\">8</p>", "internal_node_id": "0.0-79.0-2.0", "time_elapsed": 611404, "key_press": -1, "trial_index": 108}, "uniqueid": "MTK3342:3EO896NRAX2CYJJPT8XKYB166ELTJ8", "dateTime": 1520445302281}, {"current_trial": 109, "trialdata": {"rt": -1, "trial_type": "single-stim", "stimulus": "<p id=\"stim\">7</p>", "internal_node_id": "0.0-79.0-3.0", "time_elapsed": 612406, "key_press": -1, "trial_index": 109}, "uniqueid": "MTK3342:3EO896NRAX2CYJJPT8XKYB166ELTJ8", "dateTime": 1520445303283}, {"current_trial": 110, "trialdata": {"rt": -1, "trial_type": "single-stim", "stimulus": "<p id=\"stim\">6</p>", "internal_node_id": "0.0-79.0-4.0", "time_elapsed": 613408, "key_press": -1, "trial_index": 110}, "uniqueid": "MTK3342:3EO896NRAX2CYJJPT8XKYB166ELTJ8", "dateTime": 1520445304286}, {"current_trial": 111, "trialdata": {"rt": -1, "trial_type": "single-stim", "stimulus": "<p id=\"stim\">5</p>", "internal_node_id": "0.0-79.0-5.0", "time_elapsed": 614410, "key_press": -1, "trial_index": 111}, "uniqueid": "MTK3342:3EO896NRAX2CYJJPT8XKYB166ELTJ8", "dateTime": 1520445305288}, {"current_trial": 112, "trialdata": {"rt": -1, "trial_type": "single-stim", "stimulus": "<p id=\"stim\">4</p>", "internal_node_id": "0.0-79.0-6.0", "time_elapsed": 615412, "key_press": -1, "trial_index": 112}, "uniqueid": "MTK3342:3EO896NRAX2CYJJPT8XKYB166ELTJ8", "dateTime": 1520445306291}, {"current_trial": 113, "trialdata": {"rt": -1, "trial_type": "single-stim", "stimulus": "<p id=\"stim\">3</p>", "internal_node_id": "0.0-79.0-7.0", "time_elapsed": 616413, "key_press": -1, "trial_index": 113}, "uniqueid": "MTK3342:3EO896NRAX2CYJJPT8XKYB166ELTJ8", "dateTime": 1520445307292}, {"current_trial": 114, "trialdata": {"rt": -1, "trial_type": "single-stim", "stimulus": "<p id=\"stim\">2</p>", "internal_node_id": "0.0-79.0-8.0", "time_elapsed": 617414, "key_press": -1, "trial_index": 114}, "uniqueid": "MTK3342:3EO896NRAX2CYJJPT8XKYB166ELTJ8", "dateTime": 1520445308292}, {"current_trial": 115, "trialdata": {"rt": -1, "trial_type": "single-stim", "stimulus": "<p id=\"stim\">1</p>", "internal_node_id": "0.0-79.0-9.0", "time_elapsed": 618417, "key_press": -1, "trial_index": 115}, "uniqueid": "MTK3342:3EO896NRAX2CYJJPT8XKYB166ELTJ8", "dateTime": 1520445309294}, {"current_trial": 116, "trialdata": {"rt": -1, "trial_type": "single-stim", "stimulus": "<p id=\"stim\">+</p>", "internal_node_id": "0.0-80.0-0.0", "time_elapsed": 619919, "key_press": -1, "type": "FIXATION", "trial_index": 116}, "uniqueid": "MTK3342:3EO896NRAX2CYJJPT8XKYB166ELTJ8", "dateTime": 1520445310796}, {"current_trial": 117, "trialdata": {"rt": -1, "trial_type": "single-stim", "word": "sausage", "stimulus": "<p id=\"stim\">SAUSAGE</p>", "conditions": [24, 1600, "v", 12000], "internal_node_id": "0.0-81.0", "trial": 3, "time_elapsed": 621519, "serialpos": 0, "key_press": -1, "wordID": 1237, "type": "PRES_VIS", "trial_index": 117}, "uniqueid": "MTK3342:3EO896NRAX2CYJJPT8XKYB166ELTJ8", "dateTime": 1520445312398}, {"current_trial": 118, "trialdata": {"rt": -1, "trial_type": "single-stim", "word": "daisy", "stimulus": "<p id=\"stim\">DAISY</p>", "conditions": [24, 1600, "v", 12000], "internal_node_id": "0.0-82.0", "trial": 3, "time_elapsed": 624241, "serialpos": 1, "key_press": -1, "wordID": 434, "type": "PRES_VIS", "trial_index": 118}, "uniqueid": "MTK3342:3EO896NRAX2CYJJPT8XKYB166ELTJ8", "dateTime": 1520445315119}, {"current_trial": 119, "trialdata": {"rt": -1, "trial_type": "single-stim", "word": "lamp", "stimulus": "<p id=\"stim\">LAMP</p>", "conditions": [24, 1600, "v", 12000], "internal_node_id": "0.0-83.0", "trial": 3, "time_elapsed": 626652, "serialpos": 2, "key_press": -1, "wordID": 797, "type": "PRES_VIS", "trial_index": 119}, "uniqueid": "MTK3342:3EO896NRAX2CYJJPT8XKYB166ELTJ8", "dateTime": 1520445317529}, {"current_trial": 120, "trialdata": {"rt": -1, "trial_type": "single-stim", "word": "window", "stimulus": "<p id=\"stim\">WINDOW</p>", "conditions": [24, 1600, "v", 12000], "internal_node_id": "0.0-84.0", "trial": 3, "time_elapsed": 629450, "serialpos": 3, "key_press": -1, "wordID": 1610, "type": "PRES_VIS", "trial_index": 120}, "uniqueid": "MTK3342:3EO896NRAX2CYJJPT8XKYB166ELTJ8", "dateTime": 1520445320329}, {"current_trial": 121, "trialdata": {"rt": -1, "trial_type": "single-stim", "word": "nurse", "stimulus": "<p id=\"stim\">NURSE</p>", "conditions": [24, 1600, "v", 12000], "internal_node_id": "0.0-85.0", "trial": 3, "time_elapsed": 631876, "serialpos": 4, "key_press": -1, "wordID": 962, "type": "PRES_VIS", "trial_index": 121}, "uniqueid": "MTK3342:3EO896NRAX2CYJJPT8XKYB166ELTJ8", "dateTime": 1520445322753}, {"current_trial": 122, "trialdata": {"rt": -1, "trial_type": "single-stim", "word": "teacher", "stimulus": "<p id=\"stim\">TEACHER</p>", "conditions": [24, 1600, "v", 12000], "internal_node_id": "0.0-86.0", "trial": 3, "time_elapsed": 634622, "serialpos": 5, "key_press": -1, "wordID": 1439, "type": "PRES_VIS", "trial_index": 122}, "uniqueid": "MTK3342:3EO896NRAX2CYJJPT8XKYB166ELTJ8", "dateTime": 1520445325499}, {"current_trial": 123, "trialdata": {"rt": -1, "trial_type": "single-stim", "word": "pepper", "stimulus": "<p id=\"stim\">PEPPER</p>", "conditions": [24, 1600, "v", 12000], "internal_node_id": "0.0-87.0", "trial": 3, "time_elapsed": 637170, "serialpos": 6, "key_press": -1, "wordID": 1046, "type": "PRES_VIS", "trial_index": 123}, "uniqueid": "MTK3342:3EO896NRAX2CYJJPT8XKYB166ELTJ8", "dateTime": 1520445328048}, {"current_trial": 124, "trialdata": {"rt": -1, "trial_type": "single-stim", "word": "patient", "stimulus": "<p id=\"stim\">PATIENT</p>", "conditions": [24, 1600, "v", 12000], "internal_node_id": "0.0-88.0", "trial": 3, "time_elapsed": 639811, "serialpos": 7, "key_press": -1, "wordID": 1023, "type": "PRES_VIS", "trial_index": 124}, "uniqueid": "MTK3342:3EO896NRAX2CYJJPT8XKYB166ELTJ8", "dateTime": 1520445330688}, {"current_trial": 125, "trialdata": {"rt": -1, "trial_type": "single-stim", "word": "freckle", "stimulus": "<p id=\"stim\">FRECKLE</p>", "conditions": [24, 1600, "v", 12000], "internal_node_id": "0.0-89.0", "trial": 3, "time_elapsed": 642604, "serialpos": 8, "key_press": -1, "wordID": 601, "type": "PRES_VIS", "trial_index": 125}, "uniqueid": "MTK3342:3EO896NRAX2CYJJPT8XKYB166ELTJ8", "dateTime": 1520445333481}, {"current_trial": 126, "trialdata": {"rt": -1, "trial_type": "single-stim", "word": "valley", "stimulus": "<p id=\"stim\">VALLEY</p>", "conditions": [24, 1600, "v", 12000], "internal_node_id": "0.0-90.0", "trial": 3, "time_elapsed": 645047, "serialpos": 9, "key_press": -1, "wordID": 1544, "type": "PRES_VIS", "trial_index": 126}, "uniqueid": "MTK3342:3EO896NRAX2CYJJPT8XKYB166ELTJ8", "dateTime": 1520445335924}, {"current_trial": 127, "trialdata": {"rt": -1, "trial_type": "single-stim", "word": "velvet", "stimulus": "<p id=\"stim\">VELVET</p>", "conditions": [24, 1600, "v", 12000], "internal_node_id": "0.0-91.0", "trial": 3, "time_elapsed": 647513, "serialpos": 10, "key_press": -1, "wordID": 1554, "type": "PRES_VIS", "trial_index": 127}, "uniqueid": "MTK3342:3EO896NRAX2CYJJPT8XKYB166ELTJ8", "dateTime": 1520445338390}, {"current_trial": 128, "trialdata": {"rt": -1, "trial_type": "single-stim", "word": "lace", "stimulus": "<p id=\"stim\">LACE</p>", "conditions": [24, 1600, "v", 12000], "internal_node_id": "0.0-92.0", "trial": 3, "time_elapsed": 649948, "serialpos": 11, "key_press": -1, "wordID": 791, "type": "PRES_VIS", "trial_index": 128}, "uniqueid": "MTK3342:3EO896NRAX2CYJJPT8XKYB166ELTJ8", "dateTime": 1520445340827}, {"current_trial": 129, "trialdata": {"rt": -1, "trial_type": "single-stim", "word": "switch", "stimulus": "<p id=\"stim\">SWITCH</p>", "conditions": [24, 1600, "v", 12000], "internal_node_id": "0.0-93.0", "trial": 3, "time_elapsed": 652410, "serialpos": 12, "key_press": -1, "wordID": 1421, "type": "PRES_VIS", "trial_index": 129}, "uniqueid": "MTK3342:3EO896NRAX2CYJJPT8XKYB166ELTJ8", "dateTime": 1520445343288}, {"current_trial": 130, "trialdata": {"rt": -1, "trial_type": "single-stim", "word": "lover", "stimulus": "<p id=\"stim\">LOVER</p>", "conditions": [24, 1600, "v", 12000], "internal_node_id": "0.0-94.0", "trial": 3, "time_elapsed": 654910, "serialpos": 13, "key_press": -1, "wordID": 845, "type": "PRES_VIS", "trial_index": 130}, "uniqueid": "MTK3342:3EO896NRAX2CYJJPT8XKYB166ELTJ8", "dateTime": 1520445345787}, {"current_trial": 131, "trialdata": {"rt": -1, "trial_type": "single-stim", "word": "sibling", "stimulus": "<p id=\"stim\">SIBLING</p>", "conditions": [24, 1600, "v", 12000], "internal_node_id": "0.0-95.0", "trial": 3, "time_elapsed": 657340, "serialpos": 14, "key_press": -1, "wordID": 1300, "type": "PRES_VIS", "trial_index": 131}, "uniqueid": "MTK3342:3EO896NRAX2CYJJPT8XKYB166ELTJ8", "dateTime": 1520445348217}, {"current_trial": 132, "trialdata": {"rt": -1, "trial_type": "single-stim", "word": "toaster", "stimulus": "<p id=\"stim\">TOASTER</p>", "conditions": [24, 1600, "v", 12000], "internal_node_id": "0.0-96.0", "trial": 3, "time_elapsed": 659751, "serialpos": 15, "key_press": -1, "wordID": 1471, "type": "PRES_VIS", "trial_index": 132}, "uniqueid": "MTK3342:3EO896NRAX2CYJJPT8XKYB166ELTJ8", "dateTime": 1520445350629}, {"current_trial": 133, "trialdata": {"rt": -1, "trial_type": "single-stim", "word": "monster", "stimulus": "<p id=\"stim\">MONSTER</p>", "conditions": [24, 1600, "v", 12000], "internal_node_id": "0.0-97.0", "trial": 3, "time_elapsed": 662345, "serialpos": 16, "key_press": -1, "wordID": 911, "type": "PRES_VIS", "trial_index": 133}, "uniqueid": "MTK3342:3EO896NRAX2CYJJPT8XKYB166ELTJ8", "dateTime": 1520445353222}, {"current_trial": 134, "trialdata": {"rt": -1, "trial_type": "single-stim", "word": "beast", "stimulus": "<p id=\"stim\">BEAST</p>", "conditions": [24, 1600, "v", 12000], "internal_node_id": "0.0-98.0", "trial": 3, "time_elapsed": 664953, "serialpos": 17, "key_press": -1, "wordID": 107, "type": "PRES_VIS", "trial_index": 134}, "uniqueid": "MTK3342:3EO896NRAX2CYJJPT8XKYB166ELTJ8", "dateTime": 1520445355830}, {"current_trial": 135, "trialdata": {"rt": -1, "trial_type": "single-stim", "word": "canyon", "stimulus": "<p id=\"stim\">CANYON</p>", "conditions": [24, 1600, "v", 12000], "internal_node_id": "0.0-99.0", "trial": 3, "time_elapsed": 667731, "serialpos": 18, "key_press": -1, "wordID": 234, "type": "PRES_VIS", "trial_index": 135}, "uniqueid": "MTK3342:3EO896NRAX2CYJJPT8XKYB166ELTJ8", "dateTime": 1520445358608}, {"current_trial": 136, "trialdata": {"rt": -1, "trial_type": "single-stim", "word": "bug", "stimulus": "<p id=\"stim\">BUG</p>", "conditions": [24, 1600, "v", 12000], "internal_node_id": "0.0-100.0", "trial": 3, "time_elapsed": 670495, "serialpos": 19, "key_press": -1, "wordID": 186, "type": "PRES_VIS", "trial_index": 136}, "uniqueid": "MTK3342:3EO896NRAX2CYJJPT8XKYB166ELTJ8", "dateTime": 1520445361372}, {"current_trial": 137, "trialdata": {"rt": -1, "trial_type": "single-stim", "word": "contract", "stimulus": "<p id=\"stim\">CONTRACT</p>", "conditions": [24, 1600, "v", 12000], "internal_node_id": "0.0-101.0", "trial": 3, "time_elapsed": 673089, "serialpos": 20, "key_press": -1, "wordID": 367, "type": "PRES_VIS", "trial_index": 137}, "uniqueid": "MTK3342:3EO896NRAX2CYJJPT8XKYB166ELTJ8", "dateTime": 1520445363966}, {"current_trial": 138, "trialdata": {"rt": -1, "trial_type": "single-stim", "word": "stove", "stimulus": "<p id=\"stim\">STOVE</p>", "conditions": [24, 1600, "v", 12000], "internal_node_id": "0.0-102.0", "trial": 3, "time_elapsed": 675795, "serialpos": 21, "key_press": -1, "wordID": 1387, "type": "PRES_VIS", "trial_index": 138}, "uniqueid": "MTK3342:3EO896NRAX2CYJJPT8XKYB166ELTJ8", "dateTime": 1520445366672}, {"current_trial": 139, "trialdata": {"rt": -1, "trial_type": "single-stim", "word": "slide", "stimulus": "<p id=\"stim\">SLIDE</p>", "conditions": [24, 1600, "v", 12000], "internal_node_id": "0.0-103.0", "trial": 3, "time_elapsed": 678447, "serialpos": 22, "key_press": -1, "wordID": 1325, "type": "PRES_VIS", "trial_index": 139}, "uniqueid": "MTK3342:3EO896NRAX2CYJJPT8XKYB166ELTJ8", "dateTime": 1520445369325}, {"current_trial": 140, "trialdata": {"rt": -1, "trial_type": "single-stim", "word": "napkin", "stimulus": "<p id=\"stim\">NAPKIN</p>", "conditions": [24, 1600, "v", 12000], "internal_node_id": "0.0-104.0", "trial": 3, "time_elapsed": 680983, "serialpos": 23, "key_press": -1, "wordID": 936, "type": "PRES_VIS", "trial_index": 140}, "uniqueid": "MTK3342:3EO896NRAX2CYJJPT8XKYB166ELTJ8", "dateTime": 1520445371860}, {"current_trial": 141, "trialdata": {"rt": -1, "trial_type": "single-stim", "stimulus": "", "internal_node_id": "0.0-105.0-0.0", "time_elapsed": 683289, "key_press": -1, "type": "PRE_RECALL_DELAY", "trial_index": 141}, "uniqueid": "MTK3342:3EO896NRAX2CYJJPT8XKYB166ELTJ8", "dateTime": 1520445374167}, {"current_trial": 142, "trialdata": {"rt": -1000, "trial_type": "single-audio", "stimulus": "/static/audio/400Hz.wav", "internal_node_id": "0.0-106.0", "time_elapsed": 683791, "key_press": -1, "type": "PRE_RECALL_ALERT", "trial_index": 142}, "uniqueid": "MTK3342:3EO896NRAX2CYJJPT8XKYB166ELTJ8", "dateTime": 1520445374668}, {"current_trial": 143, "trialdata": {"rt": [2732, 4012, 5691, 7932, 9899, 11788, 13995, 25260, 27900, 31147, 32076, 35628, 43612, 50029, 51547], "recwords": ["napkin", "slide", "stove", "monster", "dragon", "sibling", "teacher", "valley", "canyon", "beast", "bug", "contact", "lover", "velvet", "lace"], "key_times": [924, 1067, 1467, 1787, 1995, 2171, 2732, 2955, 3067, 3291, 3531, 3611, 4012, 4236, 4539, 4731, 5003, 5179, 5691, 5979, 6155, 6331, 6459, 6587, 6747, 6923, 7932, 8475, 8667, 8875, 9148, 9259, 9404, 9899, 10091, 10267, 10651, 10827, 11019, 11228, 11356, 11788, 12155, 12204, 12667, 12939, 13100, 13244, 13355, 13995, 23771, 23851, 24108, 24235, 24395, 24539, 25260, 25499, 25916, 26139, 26699, 27259, 27547, 27900, 29739, 29931, 30123, 30379, 30459, 31147, 31355, 31595, 31899, 32076, 32987, 33066, 33258, 33547, 33707, 33710, 34299, 34651, 34859, 35068, 35355, 35628, 42218, 42474, 42971, 43098, 43274, 43612, 48395, 48587, 48938, 49099, 49291, 49803, 50029, 50682, 50796, 51100, 51259, 51547], "trial_type": "free-recall", "conditions": [24, 1600, "v", 12000], "internal_node_id": "0.0-107.0-0.0", "key_presses": [78, 65, 80, 75, 73, 78, 13, 83, 76, 73, 68, 69, 13, 83, 84, 79, 86, 69, 13, 77, 79, 78, 83, 84, 69, 82, 13, 68, 82, 65, 71, 79, 78, 13, 83, 73, 66, 76, 73, 78, 71, 13, 84, 69, 65, 67, 72, 69, 82, 13, 86, 65, 76, 76, 69, 89, 13, 67, 65, 78, 89, 79, 78, 13, 66, 69, 65, 83, 84, 13, 66, 85, 71, 13, 67, 79, 78, 84, 82, 84, 8, 8, 65, 67, 84, 13, 76, 79, 86, 69, 82, 13, 86, 69, 76, 86, 69, 84, 13, 76, 65, 67, 69, 13], "trial": 3, "time_elapsed": 743796, "type": "FREE_RECALL", "trial_index": 143}, "uniqueid": "MTK3342:3EO896NRAX2CYJJPT8XKYB166ELTJ8", "dateTime": 1520445434675}, {"current_trial": 144, "trialdata": {"rt": 1286, "trial_type": "text", "internal_node_id": "0.0-108.0", "time_elapsed": 747085, "key_press": 32, "type": "INSTRUCTIONS", "trial_index": 144}, "uniqueid": "MTK3342:3EO896NRAX2CYJJPT8XKYB166ELTJ8", "dateTime": 1520445437962}, {"current_trial": 145, "trialdata": {"rt": [3311, 5325, 7198, 8814, 10623, 12478, 14064, 15854, 17886, 19535, 21198, 23198], "trial_type": "math-distractor", "key_times": [2543, 3070, 3311, 4909, 5086, 5325, 6511, 6718, 7198, 8414, 8574, 8814, 10189, 10382, 10623, 11982, 12173, 12478, 13630, 13806, 14064, 15470, 15597, 15854, 17294, 17455, 17886, 19103, 19293, 19535, 20702, 20877, 21198, 22413, 22621, 23198], "responses": ["23", "21", "14", "16", "14", "18", "16", "16", "11", "19", "13", "19"], "num2": [5, 6, 8, 2, 7, 7, 9, 9, 6, 2, 7, 1, 1], "num3": [9, 9, 4, 9, 5, 6, 1, 3, 3, 8, 1, 9, 6], "conditions": [12, 1600, "v", 24000], "internal_node_id": "0.0-109.0", "key_presses": [98, 99, 13, 98, 97, 13, 97, 100, 13, 97, 102, 13, 97, 100, 13, 97, 104, 13, 97, 102, 13, 97, 102, 13, 97, 97, 13, 97, 105, 13, 97, 99, 13, 97, 105, 13], "trial": 4, "time_elapsed": 773088, "type": "DISTRACTOR", "trial_index": 145, "num1": [9, 6, 2, 5, 2, 5, 6, 3, 2, 9, 5, 9, 2]}, "uniqueid": "MTK3342:3EO896NRAX2CYJJPT8XKYB166ELTJ8", "dateTime": 1520445463965}, {"current_trial": 146, "trialdata": {"rt": -1, "trial_type": "single-stim", "stimulus": "<p id=\"stim\">10</p>", "internal_node_id": "0.0-110.0-0.0", "time_elapsed": 776089, "key_press": -1, "trial_index": 146}, "uniqueid": "MTK3342:3EO896NRAX2CYJJPT8XKYB166ELTJ8", "dateTime": 1520445466966}, {"current_trial": 147, "trialdata": {"rt": -1, "trial_type": "single-stim", "stimulus": "<p id=\"stim\">9</p>", "internal_node_id": "0.0-110.0-1.0", "time_elapsed": 777090, "key_press": -1, "trial_index": 147}, "uniqueid": "MTK3342:3EO896NRAX2CYJJPT8XKYB166ELTJ8", "dateTime": 1520445467967}, {"current_trial": 148, "trialdata": {"rt": -1, "trial_type": "single-stim", "stimulus": "<p id=\"stim\">8</p>", "internal_node_id": "0.0-110.0-2.0", "time_elapsed": 778092, "key_press": -1, "trial_index": 148}, "uniqueid": "MTK3342:3EO896NRAX2CYJJPT8XKYB166ELTJ8", "dateTime": 1520445468969}, {"current_trial": 149, "trialdata": {"rt": -1, "trial_type": "single-stim", "stimulus": "<p id=\"stim\">7</p>", "internal_node_id": "0.0-110.0-3.0", "time_elapsed": 779094, "key_press": -1, "trial_index": 149}, "uniqueid": "MTK3342:3EO896NRAX2CYJJPT8XKYB166ELTJ8", "dateTime": 1520445469971}, {"current_trial": 150, "trialdata": {"rt": -1, "trial_type": "single-stim", "stimulus": "<p id=\"stim\">6</p>", "internal_node_id": "0.0-110.0-4.0", "time_elapsed": 780097, "key_press": -1, "trial_index": 150}, "uniqueid": "MTK3342:3EO896NRAX2CYJJPT8XKYB166ELTJ8", "dateTime": 1520445470974}, {"current_trial": 151, "trialdata": {"rt": -1, "trial_type": "single-stim", "stimulus": "<p id=\"stim\">5</p>", "internal_node_id": "0.0-110.0-5.0", "time_elapsed": 781097, "key_press": -1, "trial_index": 151}, "uniqueid": "MTK3342:3EO896NRAX2CYJJPT8XKYB166ELTJ8", "dateTime": 1520445471974}, {"current_trial": 152, "trialdata": {"rt": -1, "trial_type": "single-stim", "stimulus": "<p id=\"stim\">4</p>", "internal_node_id": "0.0-110.0-6.0", "time_elapsed": 782098, "key_press": -1, "trial_index": 152}, "uniqueid": "MTK3342:3EO896NRAX2CYJJPT8XKYB166ELTJ8", "dateTime": 1520445472975}, {"current_trial": 153, "trialdata": {"rt": -1, "trial_type": "single-stim", "stimulus": "<p id=\"stim\">3</p>", "internal_node_id": "0.0-110.0-7.0", "time_elapsed": 783100, "key_press": -1, "trial_index": 153}, "uniqueid": "MTK3342:3EO896NRAX2CYJJPT8XKYB166ELTJ8", "dateTime": 1520445473977}, {"current_trial": 154, "trialdata": {"rt": -1, "trial_type": "single-stim", "stimulus": "<p id=\"stim\">2</p>", "internal_node_id": "0.0-110.0-8.0", "time_elapsed": 784101, "key_press": -1, "trial_index": 154}, "uniqueid": "MTK3342:3EO896NRAX2CYJJPT8XKYB166ELTJ8", "dateTime": 1520445474978}, {"current_trial": 155, "trialdata": {"rt": -1, "trial_type": "single-stim", "stimulus": "<p id=\"stim\">1</p>", "internal_node_id": "0.0-110.0-9.0", "time_elapsed": 785103, "key_press": -1, "trial_index": 155}, "uniqueid": "MTK3342:3EO896NRAX2CYJJPT8XKYB166ELTJ8", "dateTime": 1520445475980}, {"current_trial": 156, "trialdata": {"rt": -1, "trial_type": "single-stim", "stimulus": "<p id=\"stim\">+</p>", "internal_node_id": "0.0-111.0-0.0", "time_elapsed": 786604, "key_press": -1, "type": "FIXATION", "trial_index": 156}, "uniqueid": "MTK3342:3EO896NRAX2CYJJPT8XKYB166ELTJ8", "dateTime": 1520445477483}, {"current_trial": 157, "trialdata": {"rt": -1, "trial_type": "single-stim", "word": "cellar", "stimulus": "<p id=\"stim\">CELLAR</p>", "conditions": [12, 1600, "v", 24000], "internal_node_id": "0.0-112.0", "trial": 4, "time_elapsed": 788206, "serialpos": 0, "key_press": -1, "wordID": 266, "type": "PRES_VIS", "trial_index": 157}, "uniqueid": "MTK3342:3EO896NRAX2CYJJPT8XKYB166ELTJ8", "dateTime": 1520445479084}, {"current_trial": 158, "trialdata": {"rt": -1, "trial_type": "single-stim", "word": "hound", "stimulus": "<p id=\"stim\">HOUND</p>", "conditions": [12, 1600, "v", 24000], "internal_node_id": "0.0-113.0", "trial": 4, "time_elapsed": 790840, "serialpos": 1, "key_press": -1, "wordID": 723, "type": "PRES_VIS", "trial_index": 158}, "uniqueid": "MTK3342:3EO896NRAX2CYJJPT8XKYB166ELTJ8", "dateTime": 1520445481718}, {"current_trial": 159, "trialdata": {"rt": -1, "trial_type": "single-stim", "word": "soda", "stimulus": "<p id=\"stim\">SODA</p>", "conditions": [12, 1600, "v", 24000], "internal_node_id": "0.0-114.0", "trial": 4, "time_elapsed": 793630, "serialpos": 2, "key_press": -1, "wordID": 1340, "type": "PRES_VIS", "trial_index": 159}, "uniqueid": "MTK3342:3EO896NRAX2CYJJPT8XKYB166ELTJ8", "dateTime": 1520445484507}, {"current_trial": 160, "trialdata": {"rt": -1, "trial_type": "single-stim", "word": "pudding", "stimulus": "<p id=\"stim\">PUDDING</p>", "conditions": [12, 1600, "v", 24000], "internal_node_id": "0.0-115.0", "trial": 4, "time_elapsed": 796271, "serialpos": 3, "key_press": -1, "wordID": 1138, "type": "PRES_VIS", "trial_index": 160}, "uniqueid": "MTK3342:3EO896NRAX2CYJJPT8XKYB166ELTJ8", "dateTime": 1520445487149}, {"current_trial": 161, "trialdata": {"rt": -1, "trial_type": "single-stim", "word": "skirt", "stimulus": "<p id=\"stim\">SKIRT</p>", "conditions": [12, 1600, "v", 24000], "internal_node_id": "0.0-116.0", "trial": 4, "time_elapsed": 798751, "serialpos": 4, "key_press": -1, "wordID": 1318, "type": "PRES_VIS", "trial_index": 161}, "uniqueid": "MTK3342:3EO896NRAX2CYJJPT8XKYB166ELTJ8", "dateTime": 1520445489628}, {"current_trial": 162, "trialdata": {"rt": -1, "trial_type": "single-stim", "word": "dress", "stimulus": "<p id=\"stim\">DRESS</p>", "conditions": [12, 1600, "v", 24000], "internal_node_id": "0.0-117.0", "trial": 4, "time_elapsed": 801325, "serialpos": 5, "key_press": -1, "wordID": 494, "type": "PRES_VIS", "trial_index": 162}, "uniqueid": "MTK3342:3EO896NRAX2CYJJPT8XKYB166ELTJ8", "dateTime": 1520445492203}, {"current_trial": 163, "trialdata": {"rt": -1, "trial_type": "single-stim", "word": "candy", "stimulus": "<p id=\"stim\">CANDY</p>", "conditions": [12, 1600, "v", 24000], "internal_node_id": "0.0-118.0", "trial": 4, "time_elapsed": 803936, "serialpos": 6, "key_press": -1, "wordID": 229, "type": "PRES_VIS", "trial_index": 163}, "uniqueid": "MTK3342:3EO896NRAX2CYJJPT8XKYB166ELTJ8", "dateTime": 1520445494813}, {"current_trial": 164, "trialdata": {"rt": -1, "trial_type": "single-stim", "word": "shark", "stimulus": "<p id=\"stim\">SHARK</p>", "conditions": [12, 1600, "v", 24000], "internal_node_id": "0.0-119.0", "trial": 4, "time_elapsed": 806509, "serialpos": 7, "key_press": -1, "wordID": 1274, "type": "PRES_VIS", "trial_index": 164}, "uniqueid": "MTK3342:3EO896NRAX2CYJJPT8XKYB166ELTJ8", "dateTime": 1520445497386}, {"current_trial": 165, "trialdata": {"rt": -1, "trial_type": "single-stim", "word": "turkey", "stimulus": "<p id=\"stim\">TURKEY</p>", "conditions": [12, 1600, "v", 24000], "internal_node_id": "0.0-120.0", "trial": 4, "time_elapsed": 809087, "serialpos": 8, "key_press": -1, "wordID": 1519, "type": "PRES_VIS", "trial_index": 165}, "uniqueid": "MTK3342:3EO896NRAX2CYJJPT8XKYB166ELTJ8", "dateTime": 1520445499964}, {"current_trial": 166, "trialdata": {"rt": -1, "trial_type": "single-stim", "word": "lion", "stimulus": "<p id=\"stim\">LION</p>", "conditions": [12, 1600, "v", 24000], "internal_node_id": "0.0-121.0", "trial": 4, "time_elapsed": 811789, "serialpos": 9, "key_press": -1, "wordID": 826, "type": "PRES_VIS", "trial_index": 166}, "uniqueid": "MTK3342:3EO896NRAX2CYJJPT8XKYB166ELTJ8", "dateTime": 1520445502666}, {"current_trial": 167, "trialdata": {"rt": -1, "trial_type": "single-stim", "word": "custard", "stimulus": "<p id=\"stim\">CUSTARD</p>", "conditions": [12, 1600, "v", 24000], "internal_node_id": "0.0-122.0", "trial": 4, "time_elapsed": 814562, "serialpos": 10, "key_press": -1, "wordID": 428, "type": "PRES_VIS", "trial_index": 167}, "uniqueid": "MTK3342:3EO896NRAX2CYJJPT8XKYB166ELTJ8", "dateTime": 1520445505439}, {"current_trial": 168, "trialdata": {"rt": -1, "trial_type": "single-stim", "word": "gavel", "stimulus": "<p id=\"stim\">GAVEL</p>", "conditions": [12, 1600, "v", 24000], "internal_node_id": "0.0-123.0", "trial": 4, "time_elapsed": 817163, "serialpos": 11, "key_press": -1, "wordID": 626, "type": "PRES_VIS", "trial_index": 168}, "uniqueid": "MTK3342:3EO896NRAX2CYJJPT8XKYB166ELTJ8", "dateTime": 1520445508041}, {"current_trial": 169, "trialdata": {"rt": -1, "trial_type": "single-stim", "stimulus": "", "internal_node_id": "0.0-124.0-0.0", "time_elapsed": 819285, "key_press": -1, "type": "PRE_RECALL_DELAY", "trial_index": 169}, "uniqueid": "MTK3342:3EO896NRAX2CYJJPT8XKYB166ELTJ8", "dateTime": 1520445510162}, {"current_trial": 170, "trialdata": {"rt": -1000, "trial_type": "single-audio", "stimulus": "/static/audio/400Hz.wav", "internal_node_id": "0.0-125.0", "time_elapsed": 819786, "key_press": -1, "type": "PRE_RECALL_ALERT", "trial_index": 170}, "uniqueid": "MTK3342:3EO896NRAX2CYJJPT8XKYB166ELTJ8", "dateTime": 1520445510664}, {"current_trial": 171, "trialdata": {"rt": [2992, 4752, 10048, 15344, 16688, 18288, 19759, 21743, 23888, 39599], "recwords": ["gavel", "shark", "turkey", "hound", "soda", "skirt", "dress", "pudding", "custard", "lion"], "key_times": [1072, 1200, 1952, 2367, 2480, 2992, 3200, 3424, 3551, 3904, 4047, 4752, 8079, 8240, 8656, 9008, 9280, 9392, 10048, 13760, 13903, 14128, 14351, 14752, 15344, 15728, 15856, 15984, 16207, 16688, 17200, 17424, 17584, 17760, 17920, 18288, 18592, 18816, 18960, 19407, 19566, 19759, 20320, 20544, 20800, 20944, 21071, 21232, 21343, 21743, 21968, 22096, 22304, 22366, 22576, 22655, 22800, 23888, 38719, 38942, 39118, 39295, 39599], "trial_type": "free-recall", "conditions": [12, 1600, "v", 24000], "internal_node_id": "0.0-126.0-0.0", "key_presses": [71, 65, 86, 69, 76, 13, 83, 72, 65, 82, 75, 13, 84, 85, 82, 75, 69, 89, 13, 72, 79, 85, 78, 68, 13, 83, 79, 68, 65, 13, 83, 75, 73, 82, 84, 13, 68, 82, 69, 83, 83, 13, 80, 85, 68, 68, 73, 78, 71, 13, 67, 85, 83, 84, 65, 82, 68, 13, 76, 73, 79, 78, 13], "trial": 4, "time_elapsed": 879790, "type": "FREE_RECALL", "trial_index": 171}, "uniqueid": "MTK3342:3EO896NRAX2CYJJPT8XKYB166ELTJ8", "dateTime": 1520445570671}, {"current_trial": 172, "trialdata": {"rt": 2345, "trial_type": "text", "internal_node_id": "0.0-127.0", "time_elapsed": 884141, "key_press": 32, "type": "INSTRUCTIONS", "trial_index": 172}, "uniqueid": "MTK3342:3EO896NRAX2CYJJPT8XKYB166ELTJ8", "dateTime": 1520445575018}, {"current_trial": 173, "trialdata": {"rt": [2731, 4299, 5835, 7324, 9323, 10746, 12539, 14491, 16732, 18587, 20923, 23787], "trial_type": "math-distractor", "key_times": [2251, 2346, 2731, 3898, 4076, 4299, 5611, 5835, 6955, 7100, 7324, 8940, 9084, 9323, 10316, 10459, 10746, 12090, 12300, 12539, 13994, 14234, 14491, 16283, 16475, 16732, 18187, 18364, 18587, 19996, 20666, 20923, 22906, 23531, 23787], "responses": ["15", "13", "5", "11", "11", "15", "14", "18", "18", "11", "15", "18"], "num2": [3, 8, 2, 2, 2, 6, 5, 8, 4, 3, 2, 9, 3], "num3": [7, 4, 1, 5, 4, 5, 3, 5, 9, 2, 7, 2, 7], "conditions": [24, 1600, "v", 24000], "internal_node_id": "0.0-128.0", "key_presses": [97, 101, 13, 97, 99, 13, 101, 13, 97, 97, 13, 97, 97, 13, 97, 101, 13, 97, 100, 13, 97, 104, 13, 97, 104, 13, 97, 97, 13, 97, 101, 13, 97, 104, 13], "trial": 5, "time_elapsed": 910146, "type": "DISTRACTOR", "trial_index": 173, "num1": [5, 1, 2, 4, 5, 4, 6, 5, 5, 6, 6, 7, 4]}, "uniqueid": "MTK3342:3EO896NRAX2CYJJPT8XKYB166ELTJ8", "dateTime": 1520445601023}, {"current_trial": 174, "trialdata": {"rt": -1, "trial_type": "single-stim", "stimulus": "<p id=\"stim\">10</p>", "internal_node_id": "0.0-129.0-0.0", "time_elapsed": 913149, "key_press": -1, "trial_index": 174}, "uniqueid": "MTK3342:3EO896NRAX2CYJJPT8XKYB166ELTJ8", "dateTime": 1520445604026}, {"current_trial": 175, "trialdata": {"rt": -1, "trial_type": "single-stim", "stimulus": "<p id=\"stim\">9</p>", "internal_node_id": "0.0-129.0-1.0", "time_elapsed": 914150, "key_press": -1, "trial_index": 175}, "uniqueid": "MTK3342:3EO896NRAX2CYJJPT8XKYB166ELTJ8", "dateTime": 1520445605027}, {"current_trial": 176, "trialdata": {"rt": -1, "trial_type": "single-stim", "stimulus": "<p id=\"stim\">8</p>", "internal_node_id": "0.0-129.0-2.0", "time_elapsed": 915151, "key_press": -1, "trial_index": 176}, "uniqueid": "MTK3342:3EO896NRAX2CYJJPT8XKYB166ELTJ8", "dateTime": 1520445606028}, {"current_trial": 177, "trialdata": {"rt": -1, "trial_type": "single-stim", "stimulus": "<p id=\"stim\">7</p>", "internal_node_id": "0.0-129.0-3.0", "time_elapsed": 916154, "key_press": -1, "trial_index": 177}, "uniqueid": "MTK3342:3EO896NRAX2CYJJPT8XKYB166ELTJ8", "dateTime": 1520445607032}, {"current_trial": 178, "trialdata": {"rt": -1, "trial_type": "single-stim", "stimulus": "<p id=\"stim\">6</p>", "internal_node_id": "0.0-129.0-4.0", "time_elapsed": 917155, "key_press": -1, "trial_index": 178}, "uniqueid": "MTK3342:3EO896NRAX2CYJJPT8XKYB166ELTJ8", "dateTime": 1520445608033}, {"current_trial": 179, "trialdata": {"rt": -1, "trial_type": "single-stim", "stimulus": "<p id=\"stim\">5</p>", "internal_node_id": "0.0-129.0-5.0", "time_elapsed": 918156, "key_press": -1, "trial_index": 179}, "uniqueid": "MTK3342:3EO896NRAX2CYJJPT8XKYB166ELTJ8", "dateTime": 1520445609034}, {"current_trial": 180, "trialdata": {"rt": -1, "trial_type": "single-stim", "stimulus": "<p id=\"stim\">4</p>", "internal_node_id": "0.0-129.0-6.0", "time_elapsed": 919158, "key_press": -1, "trial_index": 180}, "uniqueid": "MTK3342:3EO896NRAX2CYJJPT8XKYB166ELTJ8", "dateTime": 1520445610036}, {"current_trial": 181, "trialdata": {"rt": -1, "trial_type": "single-stim", "stimulus": "<p id=\"stim\">3</p>", "internal_node_id": "0.0-129.0-7.0", "time_elapsed": 920160, "key_press": -1, "trial_index": 181}, "uniqueid": "MTK3342:3EO896NRAX2CYJJPT8XKYB166ELTJ8", "dateTime": 1520445611037}, {"current_trial": 182, "trialdata": {"rt": -1, "trial_type": "single-stim", "stimulus": "<p id=\"stim\">2</p>", "internal_node_id": "0.0-129.0-8.0", "time_elapsed": 921161, "key_press": -1, "trial_index": 182}, "uniqueid": "MTK3342:3EO896NRAX2CYJJPT8XKYB166ELTJ8", "dateTime": 1520445612039}, {"current_trial": 183, "trialdata": {"rt": -1, "trial_type": "single-stim", "stimulus": "<p id=\"stim\">1</p>", "internal_node_id": "0.0-129.0-9.0", "time_elapsed": 922164, "key_press": -1, "trial_index": 183}, "uniqueid": "MTK3342:3EO896NRAX2CYJJPT8XKYB166ELTJ8", "dateTime": 1520445613041}, {"current_trial": 184, "trialdata": {"rt": -1, "trial_type": "single-stim", "stimulus": "<p id=\"stim\">+</p>", "internal_node_id": "0.0-130.0-0.0", "time_elapsed": 923665, "key_press": -1, "type": "FIXATION", "trial_index": 184}, "uniqueid": "MTK3342:3EO896NRAX2CYJJPT8XKYB166ELTJ8", "dateTime": 1520445614542}, {"current_trial": 185, "trialdata": {"rt": -1, "trial_type": "single-stim", "word": "fox", "stimulus": "<p id=\"stim\">FOX</p>", "conditions": [24, 1600, "v", 24000], "internal_node_id": "0.0-131.0", "trial": 5, "time_elapsed": 925266, "serialpos": 0, "key_press": -1, "wordID": 597, "type": "PRES_VIS", "trial_index": 185}, "uniqueid": "MTK3342:3EO896NRAX2CYJJPT8XKYB166ELTJ8", "dateTime": 1520445616143}, {"current_trial": 186, "trialdata": {"rt": -1, "trial_type": "single-stim", "word": "woman", "stimulus": "<p id=\"stim\">WOMAN</p>", "conditions": [24, 1600, "v", 24000], "internal_node_id": "0.0-132.0", "trial": 5, "time_elapsed": 927926, "serialpos": 1, "key_press": -1, "wordID": 1619, "type": "PRES_VIS", "trial_index": 186}, "uniqueid": "MTK3342:3EO896NRAX2CYJJPT8XKYB166ELTJ8", "dateTime": 1520445618803}, {"current_trial": 187, "trialdata": {"rt": -1, "trial_type": "single-stim", "word": "lady", "stimulus": "<p id=\"stim\">LADY</p>", "conditions": [24, 1600, "v", 24000], "internal_node_id": "0.0-133.0", "trial": 5, "time_elapsed": 930722, "serialpos": 2, "key_press": -1, "wordID": 793, "type": "PRES_VIS", "trial_index": 187}, "uniqueid": "MTK3342:3EO896NRAX2CYJJPT8XKYB166ELTJ8", "dateTime": 1520445621600}, {"current_trial": 188, "trialdata": {"rt": -1, "trial_type": "single-stim", "word": "chest", "stimulus": "<p id=\"stim\">CHEST</p>", "conditions": [24, 1600, "v", 24000], "internal_node_id": "0.0-134.0", "trial": 5, "time_elapsed": 933479, "serialpos": 3, "key_press": -1, "wordID": 294, "type": "PRES_VIS", "trial_index": 188}, "uniqueid": "MTK3342:3EO896NRAX2CYJJPT8XKYB166ELTJ8", "dateTime": 1520445624356}, {"current_trial": 189, "trialdata": {"rt": -1, "trial_type": "single-stim", "word": "inmate", "stimulus": "<p id=\"stim\">INMATE</p>", "conditions": [24, 1600, "v", 24000], "internal_node_id": "0.0-135.0", "trial": 5, "time_elapsed": 936077, "serialpos": 4, "key_press": -1, "wordID": 737, "type": "PRES_VIS", "trial_index": 189}, "uniqueid": "MTK3342:3EO896NRAX2CYJJPT8XKYB166ELTJ8", "dateTime": 1520445626954}, {"current_trial": 190, "trialdata": {"rt": -1, "trial_type": "single-stim", "word": "worker", "stimulus": "<p id=\"stim\">WORKER</p>", "conditions": [24, 1600, "v", 24000], "internal_node_id": "0.0-136.0", "trial": 5, "time_elapsed": 938552, "serialpos": 5, "key_press": -1, "wordID": 1620, "type": "PRES_VIS", "trial_index": 190}, "uniqueid": "MTK3342:3EO896NRAX2CYJJPT8XKYB166ELTJ8", "dateTime": 1520445629429}, {"current_trial": 191, "trialdata": {"rt": -1, "trial_type": "single-stim", "word": "trombone", "stimulus": "<p id=\"stim\">TROMBONE</p>", "conditions": [24, 1600, "v", 24000], "internal_node_id": "0.0-137.0", "trial": 5, "time_elapsed": 940993, "serialpos": 6, "key_press": -1, "wordID": 1507, "type": "PRES_VIS", "trial_index": 191}, "uniqueid": "MTK3342:3EO896NRAX2CYJJPT8XKYB166ELTJ8", "dateTime": 1520445631870}, {"current_trial": 192, "trialdata": {"rt": -1, "trial_type": "single-stim", "word": "female", "stimulus": "<p id=\"stim\">FEMALE</p>", "conditions": [24, 1600, "v", 24000], "internal_node_id": "0.0-138.0", "trial": 5, "time_elapsed": 943571, "serialpos": 7, "key_press": -1, "wordID": 558, "type": "PRES_VIS", "trial_index": 192}, "uniqueid": "MTK3342:3EO896NRAX2CYJJPT8XKYB166ELTJ8", "dateTime": 1520445634448}, {"current_trial": 193, "trialdata": {"rt": -1, "trial_type": "single-stim", "word": "crown", "stimulus": "<p id=\"stim\">CROWN</p>", "conditions": [24, 1600, "v", 24000], "internal_node_id": "0.0-139.0", "trial": 5, "time_elapsed": 945997, "serialpos": 8, "key_press": -1, "wordID": 414, "type": "PRES_VIS", "trial_index": 193}, "uniqueid": "MTK3342:3EO896NRAX2CYJJPT8XKYB166ELTJ8", "dateTime": 1520445636875}, {"current_trial": 194, "trialdata": {"rt": -1, "trial_type": "single-stim", "word": "grill", "stimulus": "<p id=\"stim\">GRILL</p>", "conditions": [24, 1600, "v", 24000], "internal_node_id": "0.0-140.0", "trial": 5, "time_elapsed": 948773, "serialpos": 9, "key_press": -1, "wordID": 660, "type": "PRES_VIS", "trial_index": 194}, "uniqueid": "MTK3342:3EO896NRAX2CYJJPT8XKYB166ELTJ8", "dateTime": 1520445639651}, {"current_trial": 195, "trialdata": {"rt": -1, "trial_type": "single-stim", "word": "guitar", "stimulus": "<p id=\"stim\">GUITAR</p>", "conditions": [24, 1600, "v", 24000], "internal_node_id": "0.0-141.0", "trial": 5, "time_elapsed": 951206, "serialpos": 10, "key_press": -1, "wordID": 669, "type": "PRES_VIS", "trial_index": 195}, "uniqueid": "MTK3342:3EO896NRAX2CYJJPT8XKYB166ELTJ8", "dateTime": 1520445642084}, {"current_trial": 196, "trialdata": {"rt": -1, "trial_type": "single-stim", "word": "sidewalk", "stimulus": "<p id=\"stim\">SIDEWALK</p>", "conditions": [24, 1600, "v", 24000], "internal_node_id": "0.0-142.0", "trial": 5, "time_elapsed": 953772, "serialpos": 11, "key_press": -1, "wordID": 1302, "type": "PRES_VIS", "trial_index": 196}, "uniqueid": "MTK3342:3EO896NRAX2CYJJPT8XKYB166ELTJ8", "dateTime": 1520445644649}, {"current_trial": 197, "trialdata": {"rt": -1, "trial_type": "single-stim", "word": "smog", "stimulus": "<p id=\"stim\">SMOG</p>", "conditions": [24, 1600, "v", 24000], "internal_node_id": "0.0-143.0", "trial": 5, "time_elapsed": 956212, "serialpos": 12, "key_press": -1, "wordID": 1329, "type": "PRES_VIS", "trial_index": 197}, "uniqueid": "MTK3342:3EO896NRAX2CYJJPT8XKYB166ELTJ8", "dateTime": 1520445647089}, {"current_trial": 198, "trialdata": {"rt": -1, "trial_type": "single-stim", "word": "highway", "stimulus": "<p id=\"stim\">HIGHWAY</p>", "conditions": [24, 1600, "v", 24000], "internal_node_id": "0.0-144.0", "trial": 5, "time_elapsed": 958662, "serialpos": 13, "key_press": -1, "wordID": 706, "type": "PRES_VIS", "trial_index": 198}, "uniqueid": "MTK3342:3EO896NRAX2CYJJPT8XKYB166ELTJ8", "dateTime": 1520445649540}, {"current_trial": 199, "trialdata": {"rt": -1, "trial_type": "single-stim", "word": "cigar", "stimulus": "<p id=\"stim\">CIGAR</p>", "conditions": [24, 1600, "v", 24000], "internal_node_id": "0.0-145.0", "trial": 5, "time_elapsed": 961419, "serialpos": 14, "key_press": -1, "wordID": 307, "type": "PRES_VIS", "trial_index": 199}, "uniqueid": "MTK3342:3EO896NRAX2CYJJPT8XKYB166ELTJ8", "dateTime": 1520445652297}, {"current_trial": 200, "trialdata": {"rt": -1, "trial_type": "single-stim", "word": "nightgown", "stimulus": "<p id=\"stim\">NIGHTGOWN</p>", "conditions": [24, 1600, "v", 24000], "internal_node_id": "0.0-146.0", "trial": 5, "time_elapsed": 964003, "serialpos": 15, "key_press": -1, "wordID": 952, "type": "PRES_VIS", "trial_index": 200}, "uniqueid": "MTK3342:3EO896NRAX2CYJJPT8XKYB166ELTJ8", "dateTime": 1520445654881}, {"current_trial": 201, "trialdata": {"rt": -1, "trial_type": "single-stim", "word": "clothes", "stimulus": "<p id=\"stim\">CLOTHES</p>", "conditions": [24, 1600, "v", 24000], "internal_node_id": "0.0-147.0", "trial": 5, "time_elapsed": 966432, "serialpos": 16, "key_press": -1, "wordID": 326, "type": "PRES_VIS", "trial_index": 201}, "uniqueid": "MTK3342:3EO896NRAX2CYJJPT8XKYB166ELTJ8", "dateTime": 1520445657309}, {"current_trial": 202, "trialdata": {"rt": -1, "trial_type": "single-stim", "word": "ozone", "stimulus": "<p id=\"stim\">OZONE</p>", "conditions": [24, 1600, "v", 24000], "internal_node_id": "0.0-148.0", "trial": 5, "time_elapsed": 969115, "serialpos": 17, "key_press": -1, "wordID": 995, "type": "PRES_VIS", "trial_index": 202}, "uniqueid": "MTK3342:3EO896NRAX2CYJJPT8XKYB166ELTJ8", "dateTime": 1520445659992}, {"current_trial": 203, "trialdata": {"rt": -1, "trial_type": "single-stim", "word": "transplant", "stimulus": "<p id=\"stim\">TRANSPLANT</p>", "conditions": [24, 1600, "v", 24000], "internal_node_id": "0.0-149.0", "trial": 5, "time_elapsed": 971651, "serialpos": 18, "key_press": -1, "wordID": 1495, "type": "PRES_VIS", "trial_index": 203}, "uniqueid": "MTK3342:3EO896NRAX2CYJJPT8XKYB166ELTJ8", "dateTime": 1520445662528}, {"current_trial": 204, "trialdata": {"rt": -1, "trial_type": "single-stim", "word": "machine", "stimulus": "<p id=\"stim\">MACHINE</p>", "conditions": [24, 1600, "v", 24000], "internal_node_id": "0.0-150.0", "trial": 5, "time_elapsed": 974384, "serialpos": 19, "key_press": -1, "wordID": 851, "type": "PRES_VIS", "trial_index": 204}, "uniqueid": "MTK3342:3EO896NRAX2CYJJPT8XKYB166ELTJ8", "dateTime": 1520445665262}, {"current_trial": 205, "trialdata": {"rt": -1, "trial_type": "single-stim", "word": "cupboard", "stimulus": "<p id=\"stim\">CUPBOARD</p>", "conditions": [24, 1600, "v", 24000], "internal_node_id": "0.0-151.0", "trial": 5, "time_elapsed": 976856, "serialpos": 20, "key_press": -1, "wordID": 424, "type": "PRES_VIS", "trial_index": 205}, "uniqueid": "MTK3342:3EO896NRAX2CYJJPT8XKYB166ELTJ8", "dateTime": 1520445667733}, {"current_trial": 206, "trialdata": {"rt": -1, "trial_type": "single-stim", "word": "airplane", "stimulus": "<p id=\"stim\">AIRPLANE</p>", "conditions": [24, 1600, "v", 24000], "internal_node_id": "0.0-152.0", "trial": 5, "time_elapsed": 979435, "serialpos": 21, "key_press": -1, "wordID": 11, "type": "PRES_VIS", "trial_index": 206}, "uniqueid": "MTK3342:3EO896NRAX2CYJJPT8XKYB166ELTJ8", "dateTime": 1520445670313}, {"current_trial": 207, "trialdata": {"rt": -1, "trial_type": "single-stim", "word": "seal", "stimulus": "<p id=\"stim\">SEAL</p>", "conditions": [24, 1600, "v", 24000], "internal_node_id": "0.0-153.0", "trial": 5, "time_elapsed": 981963, "serialpos": 22, "key_press": -1, "wordID": 1261, "type": "PRES_VIS", "trial_index": 207}, "uniqueid": "MTK3342:3EO896NRAX2CYJJPT8XKYB166ELTJ8", "dateTime": 1520445672840}, {"current_trial": 208, "trialdata": {"rt": -1, "trial_type": "single-stim", "word": "braces", "stimulus": "<p id=\"stim\">BRACES</p>", "conditions": [24, 1600, "v", 24000], "internal_node_id": "0.0-154.0", "trial": 5, "time_elapsed": 984700, "serialpos": 23, "key_press": -1, "wordID": 163, "type": "PRES_VIS", "trial_index": 208}, "uniqueid": "MTK3342:3EO896NRAX2CYJJPT8XKYB166ELTJ8", "dateTime": 1520445675579}, {"current_trial": 209, "trialdata": {"rt": -1, "trial_type": "single-stim", "stimulus": "", "internal_node_id": "0.0-155.0-0.0", "time_elapsed": 986940, "key_press": -1, "type": "PRE_RECALL_DELAY", "trial_index": 209}, "uniqueid": "MTK3342:3EO896NRAX2CYJJPT8XKYB166ELTJ8", "dateTime": 1520445677817}, {"current_trial": 210, "trialdata": {"rt": -1000, "trial_type": "single-audio", "stimulus": "/static/audio/400Hz.wav", "internal_node_id": "0.0-156.0", "time_elapsed": 987439, "key_press": -1, "type": "PRE_RECALL_ALERT", "trial_index": 210}, "uniqueid": "MTK3342:3EO896NRAX2CYJJPT8XKYB166ELTJ8", "dateTime": 1520445678317}, {"current_trial": 211, "trialdata": {"rt": [2922, 4250, 5625, 7290, 10602, 16378, 18041, 19738, 26314, 30826, 53881], "recwords": ["braces", "seal", "woman", "chest", "inmate", "trombone", "female", "skirt", "airplane", "crown", "worker"], "key_times": [1501, 1785, 1899, 2298, 2394, 2617, 2922, 3193, 3433, 3704, 3801, 4250, 4457, 4617, 4809, 5001, 5081, 5625, 5850, 6025, 6186, 6424, 6538, 7290, 7768, 8074, 8076, 9097, 9274, 9529, 9736, 9849, 10024, 10137, 10602, 11226, 11771, 13050, 13417, 13657, 14361, 15162, 15609, 15817, 15929, 16378, 16808, 16938, 17129, 17305, 17450, 17546, 18041, 18648, 18778, 18937, 19096, 19290, 19738, 24442, 24504, 24745, 25193, 25369, 25498, 25705, 25881, 26314, 29865, 30074, 30250, 30424, 30521, 30826, 52921, 53049, 53385, 53496, 53608, 53753, 53881], "trial_type": "free-recall", "conditions": [24, 1600, "v", 24000], "internal_node_id": "0.0-157.0-0.0", "key_presses": [66, 82, 65, 67, 69, 83, 13, 83, 69, 65, 76, 13, 87, 79, 77, 65, 78, 13, 67, 72, 69, 83, 84, 13, 73, 77, 78, 8, 8, 78, 77, 65, 84, 69, 13, 84, 69, 8, 82, 79, 77, 66, 79, 78, 69, 13, 70, 69, 77, 65, 76, 69, 13, 83, 75, 73, 82, 84, 13, 65, 73, 82, 80, 76, 65, 78, 69, 13, 67, 82, 79, 87, 78, 13, 87, 79, 82, 75, 69, 82, 13], "trial": 5, "time_elapsed": 1047444, "type": "FREE_RECALL", "trial_index": 211}, "uniqueid": "MTK3342:3EO896NRAX2CYJJPT8XKYB166ELTJ8", "dateTime": 1520445738324}, {"current_trial": 212, "trialdata": {"rt": 1684, "trial_type": "text", "internal_node_id": "0.0-158.0", "time_elapsed": 1051132, "key_press": 32, "type": "INSTRUCTIONS", "trial_index": 212}, "uniqueid": "MTK3342:3EO896NRAX2CYJJPT8XKYB166ELTJ8", "dateTime": 1520445742010}, {"current_trial": 213, "trialdata": {"rt": [2043, 3500, 5148, 6667, 8126, 9980, 13531, 15356, 17243, 19115, 20524, 22619], "trial_type": "math-distractor", "key_times": [1515, 2043, 3244, 3500, 4668, 4876, 5148, 6221, 6412, 6667, 7691, 7867, 8126, 9483, 9691, 9980, 13165, 13356, 13531, 14972, 15051, 15356, 16827, 16955, 17243, 18700, 18859, 19115, 20140, 20251, 20524, 22219, 22411, 22619, 23724, 23819], "responses": ["6", "5", "17", "14", "18", "17", "20", "15", "15", "12", "12", "10"], "num2": [1, 2, 8, 7, 3, 9, 7, 5, 2, 5, 8, 2, 7], "num3": [1, 2, 5, 3, 8, 6, 5, 2, 6, 4, 2, 7, 2], "conditions": [24, 1600, "v", 24000], "internal_node_id": "0.0-159.0", "key_presses": [102, 13, 101, 13, 97, 103, 13, 97, 100, 13, 97, 104, 13, 97, 103, 13, 98, 96, 13, 97, 101, 13, 97, 101, 13, 97, 98, 13, 97, 98, 13, 97, 96, 13, 97, 101], "trial": 6, "time_elapsed": 1077137, "type": "DISTRACTOR", "trial_index": 213, "num1": [4, 1, 4, 4, 7, 1, 8, 8, 7, 3, 2, 1, 7]}, "uniqueid": "MTK3342:3EO896NRAX2CYJJPT8XKYB166ELTJ8", "dateTime": 1520445768014}, {"current_trial": 214, "trialdata": {"rt": -1, "trial_type": "single-stim", "stimulus": "<p id=\"stim\">10</p>", "internal_node_id": "0.0-160.0-0.0", "time_elapsed": 1080139, "key_press": -1, "trial_index": 214}, "uniqueid": "MTK3342:3EO896NRAX2CYJJPT8XKYB166ELTJ8", "dateTime": 1520445771016}, {"current_trial": 215, "trialdata": {"rt": -1, "trial_type": "single-stim", "stimulus": "<p id=\"stim\">9</p>", "internal_node_id": "0.0-160.0-1.0", "time_elapsed": 1081141, "key_press": -1, "trial_index": 215}, "uniqueid": "MTK3342:3EO896NRAX2CYJJPT8XKYB166ELTJ8", "dateTime": 1520445772018}, {"current_trial": 216, "trialdata": {"rt": -1, "trial_type": "single-stim", "stimulus": "<p id=\"stim\">8</p>", "internal_node_id": "0.0-160.0-2.0", "time_elapsed": 1082141, "key_press": -1, "trial_index": 216}, "uniqueid": "MTK3342:3EO896NRAX2CYJJPT8XKYB166ELTJ8", "dateTime": 1520445773018}, {"current_trial": 217, "trialdata": {"rt": -1, "trial_type": "single-stim", "stimulus": "<p id=\"stim\">7</p>", "internal_node_id": "0.0-160.0-3.0", "time_elapsed": 1083142, "key_press": -1, "trial_index": 217}, "uniqueid": "MTK3342:3EO896NRAX2CYJJPT8XKYB166ELTJ8", "dateTime": 1520445774019}, {"current_trial": 218, "trialdata": {"rt": -1, "trial_type": "single-stim", "stimulus": "<p id=\"stim\">6</p>", "internal_node_id": "0.0-160.0-4.0", "time_elapsed": 1084144, "key_press": -1, "trial_index": 218}, "uniqueid": "MTK3342:3EO896NRAX2CYJJPT8XKYB166ELTJ8", "dateTime": 1520445775021}, {"current_trial": 219, "trialdata": {"rt": -1, "trial_type": "single-stim", "stimulus": "<p id=\"stim\">5</p>", "internal_node_id": "0.0-160.0-5.0", "time_elapsed": 1085146, "key_press": -1, "trial_index": 219}, "uniqueid": "MTK3342:3EO896NRAX2CYJJPT8XKYB166ELTJ8", "dateTime": 1520445776023}, {"current_trial": 220, "trialdata": {"rt": -1, "trial_type": "single-stim", "stimulus": "<p id=\"stim\">4</p>", "internal_node_id": "0.0-160.0-6.0", "time_elapsed": 1086146, "key_press": -1, "trial_index": 220}, "uniqueid": "MTK3342:3EO896NRAX2CYJJPT8XKYB166ELTJ8", "dateTime": 1520445777024}, {"current_trial": 221, "trialdata": {"rt": -1, "trial_type": "single-stim", "stimulus": "<p id=\"stim\">3</p>", "internal_node_id": "0.0-160.0-7.0", "time_elapsed": 1087149, "key_press": -1, "trial_index": 221}, "uniqueid": "MTK3342:3EO896NRAX2CYJJPT8XKYB166ELTJ8", "dateTime": 1520445778026}, {"current_trial": 222, "trialdata": {"rt": -1, "trial_type": "single-stim", "stimulus": "<p id=\"stim\">2</p>", "internal_node_id": "0.0-160.0-8.0", "time_elapsed": 1088148, "key_press": -1, "trial_index": 222}, "uniqueid": "MTK3342:3EO896NRAX2CYJJPT8XKYB166ELTJ8", "dateTime": 1520445779026}, {"current_trial": 223, "trialdata": {"rt": -1, "trial_type": "single-stim", "stimulus": "<p id=\"stim\">1</p>", "internal_node_id": "0.0-160.0-9.0", "time_elapsed": 1089150, "key_press": -1, "trial_index": 223}, "uniqueid": "MTK3342:3EO896NRAX2CYJJPT8XKYB166ELTJ8", "dateTime": 1520445780028}, {"current_trial": 224, "trialdata": {"rt": -1, "trial_type": "single-stim", "stimulus": "<p id=\"stim\">+</p>", "internal_node_id": "0.0-161.0-0.0", "time_elapsed": 1090652, "key_press": -1, "type": "FIXATION", "trial_index": 224}, "uniqueid": "MTK3342:3EO896NRAX2CYJJPT8XKYB166ELTJ8", "dateTime": 1520445781529}, {"current_trial": 225, "trialdata": {"rt": -1, "trial_type": "single-stim", "word": "actress", "stimulus": "<p id=\"stim\">ACTRESS</p>", "conditions": [24, 1600, "v", 24000], "internal_node_id": "0.0-162.0", "trial": 6, "time_elapsed": 1092252, "serialpos": 0, "key_press": -1, "wordID": 5, "type": "PRES_VIS", "trial_index": 225}, "uniqueid": "MTK3342:3EO896NRAX2CYJJPT8XKYB166ELTJ8", "dateTime": 1520445783132}, {"current_trial": 226, "trialdata": {"rt": -1, "trial_type": "single-stim", "word": "spouse", "stimulus": "<p id=\"stim\">SPOUSE</p>", "conditions": [24, 1600, "v", 24000], "internal_node_id": "0.0-163.0", "trial": 6, "time_elapsed": 1094669, "serialpos": 1, "key_press": -1, "wordID": 1357, "type": "PRES_VIS", "trial_index": 226}, "uniqueid": "MTK3342:3EO896NRAX2CYJJPT8XKYB166ELTJ8", "dateTime": 1520445785547}, {"current_trial": 227, "trialdata": {"rt": -1, "trial_type": "single-stim", "word": "globe", "stimulus": "<p id=\"stim\">GLOBE</p>", "conditions": [24, 1600, "v", 24000], "internal_node_id": "0.0-164.0", "trial": 6, "time_elapsed": 1097314, "serialpos": 2, "key_press": -1, "wordID": 640, "type": "PRES_VIS", "trial_index": 227}, "uniqueid": "MTK3342:3EO896NRAX2CYJJPT8XKYB166ELTJ8", "dateTime": 1520445788192}, {"current_trial": 228, "trialdata": {"rt": -1, "trial_type": "single-stim", "word": "doughnut", "stimulus": "<p id=\"stim\">DOUGHNUT</p>", "conditions": [24, 1600, "v", 24000], "internal_node_id": "0.0-165.0", "trial": 6, "time_elapsed": 1099767, "serialpos": 3, "key_press": -1, "wordID": 489, "type": "PRES_VIS", "trial_index": 228}, "uniqueid": "MTK3342:3EO896NRAX2CYJJPT8XKYB166ELTJ8", "dateTime": 1520445790644}, {"current_trial": 229, "trialdata": {"rt": -1, "trial_type": "single-stim", "word": "hiker", "stimulus": "<p id=\"stim\">HIKER</p>", "conditions": [24, 1600, "v", 24000], "internal_node_id": "0.0-166.0", "trial": 6, "time_elapsed": 1102170, "serialpos": 4, "key_press": -1, "wordID": 707, "type": "PRES_VIS", "trial_index": 229}, "uniqueid": "MTK3342:3EO896NRAX2CYJJPT8XKYB166ELTJ8", "dateTime": 1520445793048}, {"current_trial": 230, "trialdata": {"rt": -1, "trial_type": "single-stim", "word": "climber", "stimulus": "<p id=\"stim\">CLIMBER</p>", "conditions": [24, 1600, "v", 24000], "internal_node_id": "0.0-167.0", "trial": 6, "time_elapsed": 1104714, "serialpos": 5, "key_press": -1, "wordID": 322, "type": "PRES_VIS", "trial_index": 230}, "uniqueid": "MTK3342:3EO896NRAX2CYJJPT8XKYB166ELTJ8", "dateTime": 1520445795591}, {"current_trial": 231, "trialdata": {"rt": -1, "trial_type": "single-stim", "word": "whiskers", "stimulus": "<p id=\"stim\">WHISKERS</p>", "conditions": [24, 1600, "v", 24000], "internal_node_id": "0.0-168.0", "trial": 6, "time_elapsed": 1107372, "serialpos": 6, "key_press": -1, "wordID": 1604, "type": "PRES_VIS", "trial_index": 231}, "uniqueid": "MTK3342:3EO896NRAX2CYJJPT8XKYB166ELTJ8", "dateTime": 1520445798250}, {"current_trial": 232, "trialdata": {"rt": -1, "trial_type": "single-stim", "word": "sandwich", "stimulus": "<p id=\"stim\">SANDWICH</p>", "conditions": [24, 1600, "v", 24000], "internal_node_id": "0.0-169.0", "trial": 6, "time_elapsed": 1110123, "serialpos": 7, "key_press": -1, "wordID": 1231, "type": "PRES_VIS", "trial_index": 232}, "uniqueid": "MTK3342:3EO896NRAX2CYJJPT8XKYB166ELTJ8", "dateTime": 1520445801000}, {"current_trial": 233, "trialdata": {"rt": -1, "trial_type": "single-stim", "word": "bureau", "stimulus": "<p id=\"stim\">BUREAU</p>", "conditions": [24, 1600, "v", 24000], "internal_node_id": "0.0-170.0", "trial": 6, "time_elapsed": 1112560, "serialpos": 8, "key_press": -1, "wordID": 198, "type": "PRES_VIS", "trial_index": 233}, "uniqueid": "MTK3342:3EO896NRAX2CYJJPT8XKYB166ELTJ8", "dateTime": 1520445803437}, {"current_trial": 234, "trialdata": {"rt": -1, "trial_type": "single-stim", "word": "fireman", "stimulus": "<p id=\"stim\">FIREMAN</p>", "conditions": [24, 1600, "v", 24000], "internal_node_id": "0.0-171.0", "trial": 6, "time_elapsed": 1115100, "serialpos": 9, "key_press": -1, "wordID": 568, "type": "PRES_VIS", "trial_index": 234}, "uniqueid": "MTK3342:3EO896NRAX2CYJJPT8XKYB166ELTJ8", "dateTime": 1520445805977}, {"current_trial": 235, "trialdata": {"rt": -1, "trial_type": "single-stim", "word": "empire", "stimulus": "<p id=\"stim\">EMPIRE</p>", "conditions": [24, 1600, "v", 24000], "internal_node_id": "0.0-172.0", "trial": 6, "time_elapsed": 1117707, "serialpos": 10, "key_press": -1, "wordID": 529, "type": "PRES_VIS", "trial_index": 235}, "uniqueid": "MTK3342:3EO896NRAX2CYJJPT8XKYB166ELTJ8", "dateTime": 1520445808584}, {"current_trial": 236, "trialdata": {"rt": -1, "trial_type": "single-stim", "word": "cousin", "stimulus": "<p id=\"stim\">COUSIN</p>", "conditions": [24, 1600, "v", 24000], "internal_node_id": "0.0-173.0", "trial": 6, "time_elapsed": 1120458, "serialpos": 11, "key_press": -1, "wordID": 391, "type": "PRES_VIS", "trial_index": 236}, "uniqueid": "MTK3342:3EO896NRAX2CYJJPT8XKYB166ELTJ8", "dateTime": 1520445811336}, {"current_trial": 237, "trialdata": {"rt": -1, "trial_type": "single-stim", "word": "badge", "stimulus": "<p id=\"stim\">BADGE</p>", "conditions": [24, 1600, "v", 24000], "internal_node_id": "0.0-174.0", "trial": 6, "time_elapsed": 1122957, "serialpos": 12, "key_press": -1, "wordID": 67, "type": "PRES_VIS", "trial_index": 237}, "uniqueid": "MTK3342:3EO896NRAX2CYJJPT8XKYB166ELTJ8", "dateTime": 1520445813834}, {"current_trial": 238, "trialdata": {"rt": -1, "trial_type": "single-stim", "word": "dime", "stimulus": "<p id=\"stim\">DIME</p>", "conditions": [24, 1600, "v", 24000], "internal_node_id": "0.0-175.0", "trial": 6, "time_elapsed": 1125675, "serialpos": 13, "key_press": -1, "wordID": 465, "type": "PRES_VIS", "trial_index": 238}, "uniqueid": "MTK3342:3EO896NRAX2CYJJPT8XKYB166ELTJ8", "dateTime": 1520445816552}, {"current_trial": 239, "trialdata": {"rt": -1, "trial_type": "single-stim", "word": "postage", "stimulus": "<p id=\"stim\">POSTAGE</p>", "conditions": [24, 1600, "v", 24000], "internal_node_id": "0.0-176.0", "trial": 6, "time_elapsed": 1128393, "serialpos": 14, "key_press": -1, "wordID": 1112, "type": "PRES_VIS", "trial_index": 239}, "uniqueid": "MTK3342:3EO896NRAX2CYJJPT8XKYB166ELTJ8", "dateTime": 1520445819271}, {"current_trial": 240, "trialdata": {"rt": -1, "trial_type": "single-stim", "word": "binder", "stimulus": "<p id=\"stim\">BINDER</p>", "conditions": [24, 1600, "v", 24000], "internal_node_id": "0.0-177.0", "trial": 6, "time_elapsed": 1130907, "serialpos": 15, "key_press": -1, "wordID": 126, "type": "PRES_VIS", "trial_index": 240}, "uniqueid": "MTK3342:3EO896NRAX2CYJJPT8XKYB166ELTJ8", "dateTime": 1520445821784}, {"current_trial": 241, "trialdata": {"rt": -1, "trial_type": "single-stim", "word": "brandy", "stimulus": "<p id=\"stim\">BRANDY</p>", "conditions": [24, 1600, "v", 24000], "internal_node_id": "0.0-178.0", "trial": 6, "time_elapsed": 1133519, "serialpos": 16, "key_press": -1, "wordID": 168, "type": "PRES_VIS", "trial_index": 241}, "uniqueid": "MTK3342:3EO896NRAX2CYJJPT8XKYB166ELTJ8", "dateTime": 1520445824397}, {"current_trial": 242, "trialdata": {"rt": -1, "trial_type": "single-stim", "word": "yarn", "stimulus": "<p id=\"stim\">YARN</p>", "conditions": [24, 1600, "v", 24000], "internal_node_id": "0.0-179.0", "trial": 6, "time_elapsed": 1136230, "serialpos": 17, "key_press": -1, "wordID": 1630, "type": "PRES_VIS", "trial_index": 242}, "uniqueid": "MTK3342:3EO896NRAX2CYJJPT8XKYB166ELTJ8", "dateTime": 1520445827108}, {"current_trial": 243, "trialdata": {"rt": -1, "trial_type": "single-stim", "word": "mailbox", "stimulus": "<p id=\"stim\">MAILBOX</p>", "conditions": [24, 1600, "v", 24000], "internal_node_id": "0.0-180.0", "trial": 6, "time_elapsed": 1138775, "serialpos": 18, "key_press": -1, "wordID": 856, "type": "PRES_VIS", "trial_index": 243}, "uniqueid": "MTK3342:3EO896NRAX2CYJJPT8XKYB166ELTJ8", "dateTime": 1520445829652}, {"current_trial": 244, "trialdata": {"rt": -1, "trial_type": "single-stim", "word": "flask", "stimulus": "<p id=\"stim\">FLASK</p>", "conditions": [24, 1600, "v", 24000], "internal_node_id": "0.0-181.0", "trial": 6, "time_elapsed": 1141267, "serialpos": 19, "key_press": -1, "wordID": 575, "type": "PRES_VIS", "trial_index": 244}, "uniqueid": "MTK3342:3EO896NRAX2CYJJPT8XKYB166ELTJ8", "dateTime": 1520445832145}, {"current_trial": 245, "trialdata": {"rt": -1, "trial_type": "single-stim", "word": "scotch", "stimulus": "<p id=\"stim\">SCOTCH</p>", "conditions": [24, 1600, "v", 24000], "internal_node_id": "0.0-182.0", "trial": 6, "time_elapsed": 1143770, "serialpos": 20, "key_press": -1, "wordID": 1250, "type": "PRES_VIS", "trial_index": 245}, "uniqueid": "MTK3342:3EO896NRAX2CYJJPT8XKYB166ELTJ8", "dateTime": 1520445834647}, {"current_trial": 246, "trialdata": {"rt": -1, "trial_type": "single-stim", "word": "partner", "stimulus": "<p id=\"stim\">PARTNER</p>", "conditions": [24, 1600, "v", 24000], "internal_node_id": "0.0-183.0", "trial": 6, "time_elapsed": 1146206, "serialpos": 21, "key_press": -1, "wordID": 1016, "type": "PRES_VIS", "trial_index": 246}, "uniqueid": "MTK3342:3EO896NRAX2CYJJPT8XKYB16