{"assignmentId": "3KIBXJ1WD61RWBKZFCBX5GVWM19OKX", "workerId": "MTK3447", "questiondata": {"origin": "United States", "strat-rehearsal": "38", "marital": "Married/Domestic Partnership", "education": "Some graduate education", "ethnicity": "Not Hispanic", "color_depth": 24, "distracted": "No", "wrote-notes": "No", "strat-other": "Related words to my experiences", "screen_width": 1024, "avail_screen_width": 1024, "avail_screen_height": 787, "strat-image": "35", "language": "English", "gender": "Male", "age": "70", "gender_other": "", "race": ["Black"], "strat-categorize": "20", "pixel_depth": 24, "strat-spatial": "20", "strat-story": "6", "race_other": "", "screen_height": 819}, "bonus": 0, "hitId": "302OLP89DZEIOPGGNEKFRI2Z74SACT", "counterbalance": 2214, "useragent": "Mozilla/5.0 (Windows NT 10.0; Win64; x64) AppleWebKit/537.36 (KHTML, like Gecko) Chrome/58.0.3029.110 Safari/537.36 Edge/16.16299", "eventdata": [{"eventtype": "initialized", "interval": 0, "value": null, "timestamp": 1520543943822}, {"eventtype": "window_resize", "interval": 0, "value": [854, 654], "timestamp": 1520543943822}, {"eventtype": "focus", "interval": 180, "value": "on", "timestamp": 1520543944002}, {"eventtype": "focus", "interval": 35010, "value": "off", "timestamp": 1520543979012}, {"eventtype": "focus", "interval": 6661, "value": "on", "timestamp": 1520543985673}, {"eventtype": "focus", "interval": 237980, "value": "off", "timestamp": 1520544223653}, {"eventtype": "window_resize", "interval": 465, "value": [1024, 726], "timestamp": 1520544224118}, {"eventtype": "focus", "interval": 257, "value": "on", "timestamp": 1520544224375}, {"eventtype": "focus", "interval": 3114532, "value": "off", "timestamp": 1520547338907}, {"eventtype": "focus", "interval": 737, "value": "on", "timestamp": 1520547339644}, {"eventtype": "focus", "interval": 180449, "value": "off", "timestamp": 1520547520093}, {"eventtype": "focus", "interval": 758, "value": "on", "timestamp": 1520547520851}], "data": [{"current_trial": 0, "trialdata": {"rt": 9216, "trial_type": "text", "internal_node_id": "0.0-0.0", "time_elapsed": 9220, "key_press": 32, "type": "INSTRUCTIONS", "trial_index": 0}, "uniqueid": "MTK3447:3KIBXJ1WD61RWBKZFCBX5GVWM19OKX", "dateTime": 1520543954046}, {"current_trial": 1, "trialdata": {"rt": 58811, "trial_type": "text", "internal_node_id": "0.0-1.0", "time_elapsed": 68033, "key_press": 32, "type": "INSTRUCTIONS", "trial_index": 1}, "uniqueid": "MTK3447:3KIBXJ1WD61RWBKZFCBX5GVWM19OKX", "dateTime": 1520544012859}, {"current_trial": 2, "trialdata": {"rt": [45726], "trial_type": "audio-test", "responses": ["ocean"], "internal_node_id": "0.0-2.0", "time_elapsed": 113771, "type": "AUDIO_TEST", "trial_index": 2}, "uniqueid": "MTK3447:3KIBXJ1WD61RWBKZFCBX5GVWM19OKX", "dateTime": 1520544058596}, {"current_trial": 3, "trialdata": {"rt": [32304], "trial_type": "audio-test", "responses": ["crystal"], "internal_node_id": "0.0-3.0", "time_elapsed": 146087, "type": "AUDIO_TEST", "trial_index": 3}, "uniqueid": "MTK3447:3KIBXJ1WD61RWBKZFCBX5GVWM19OKX", "dateTime": 1520544090912}, {"current_trial": 4, "trialdata": {"rt": [33964], "trial_type": "audio-test", "responses": ["spice"], "internal_node_id": "0.0-4.0", "time_elapsed": 180067, "type": "AUDIO_TEST", "trial_index": 4}, "uniqueid": "MTK3447:3KIBXJ1WD61RWBKZFCBX5GVWM19OKX", "dateTime": 1520544124892}, {"current_trial": 5, "trialdata": {"rt": 84650, "trial_type": "survey-text", "responses": "{\"Q0\":\"11:35PM\",\"Q1\":\"6:00AM\",\"Q2\":\"4\"}", "internal_node_id": "0.0-5.0", "time_elapsed": 265490, "type": "SLEEP_SURVEY", "trial_index": 5}, "uniqueid": "MTK3447:3KIBXJ1WD61RWBKZFCBX5GVWM19OKX", "dateTime": 1520544210316}, {"current_trial": 6, "trialdata": {"rt": 117952, "trial_type": "text", "internal_node_id": "0.0-6.0", "time_elapsed": 384449, "key_press": 32, "type": "INSTRUCTIONS", "trial_index": 6}, "uniqueid": "MTK3447:3KIBXJ1WD61RWBKZFCBX5GVWM19OKX", "dateTime": 1520544329275}, {"current_trial": 7, "trialdata": {"rt": 38071, "trial_type": "text", "internal_node_id": "0.0-7.0", "time_elapsed": 423033, "key_press": 32, "type": "INSTRUCTIONS", "trial_index": 7}, "uniqueid": "MTK3447:3KIBXJ1WD61RWBKZFCBX5GVWM19OKX", "dateTime": 1520544367858}, {"current_trial": 8, "trialdata": {"rt": 23301, "trial_type": "text", "internal_node_id": "0.0-8.0", "time_elapsed": 446857, "key_press": 32, "type": "INSTRUCTIONS", "trial_index": 8}, "uniqueid": "MTK3447:3KIBXJ1WD61RWBKZFCBX5GVWM19OKX", "dateTime": 1520544391682}, {"current_trial": 9, "trialdata": {"rt": [6378, 11818, 16594], "trial_type": "math-distractor", "key_times": [3874, 4186, 6378, 9706, 10626, 11818, 14706, 15498, 16594], "responses": ["12", "13", "18"], "num2": [5, 4, 5, 4], "num3": [4, 2, 5, 7], "conditions": [18, 1200, "v", 18000], "internal_node_id": "0.0-9.0", "key_presses": [97, 98, 13, 97, 99, 13, 97, 104, 13], "trial": 0, "time_elapsed": 465885, "type": "DISTRACTOR", "trial_index": 9, "num1": [3, 7, 8, 5]}, "uniqueid": "MTK3447:3KIBXJ1WD61RWBKZFCBX5GVWM19OKX", "dateTime": 1520544410710}, {"current_trial": 10, "trialdata": {"rt": 445, "trial_type": "single-stim", "stimulus": "<p id=\"stim\">10</p>", "internal_node_id": "0.0-10.0-0.0", "time_elapsed": 468916, "key_press": 13, "trial_index": 10}, "uniqueid": "MTK3447:3KIBXJ1WD61RWBKZFCBX5GVWM19OKX", "dateTime": 1520544413741}, {"current_trial": 11, "trialdata": {"rt": -1, "trial_type": "single-stim", "stimulus": "<p id=\"stim\">9</p>", "internal_node_id": "0.0-10.0-1.0", "time_elapsed": 469913, "key_press": -1, "trial_index": 11}, "uniqueid": "MTK3447:3KIBXJ1WD61RWBKZFCBX5GVWM19OKX", "dateTime": 1520544414738}, {"current_trial": 12, "trialdata": {"rt": -1, "trial_type": "single-stim", "stimulus": "<p id=\"stim\">8</p>", "internal_node_id": "0.0-10.0-2.0", "time_elapsed": 470913, "key_press": -1, "trial_index": 12}, "uniqueid": "MTK3447:3KIBXJ1WD61RWBKZFCBX5GVWM19OKX", "dateTime": 1520544415738}, {"current_trial": 13, "trialdata": {"rt": -1, "trial_type": "single-stim", "stimulus": "<p id=\"stim\">7</p>", "internal_node_id": "0.0-10.0-3.0", "time_elapsed": 471912, "key_press": -1, "trial_index": 13}, "uniqueid": "MTK3447:3KIBXJ1WD61RWBKZFCBX5GVWM19OKX", "dateTime": 1520544416737}, {"current_trial": 14, "trialdata": {"rt": -1, "trial_type": "single-stim", "stimulus": "<p id=\"stim\">6</p>", "internal_node_id": "0.0-10.0-4.0", "time_elapsed": 472916, "key_press": -1, "trial_index": 14}, "uniqueid": "MTK3447:3KIBXJ1WD61RWBKZFCBX5GVWM19OKX", "dateTime": 1520544417741}, {"current_trial": 15, "trialdata": {"rt": -1, "trial_type": "single-stim", "stimulus": "<p id=\"stim\">5</p>", "internal_node_id": "0.0-10.0-5.0", "time_elapsed": 473916, "key_press": -1, "trial_index": 15}, "uniqueid": "MTK3447:3KIBXJ1WD61RWBKZFCBX5GVWM19OKX", "dateTime": 1520544418741}, {"current_trial": 16, "trialdata": {"rt": -1, "trial_type": "single-stim", "stimulus": "<p id=\"stim\">4</p>", "internal_node_id": "0.0-10.0-6.0", "time_elapsed": 474911, "key_press": -1, "trial_index": 16}, "uniqueid": "MTK3447:3KIBXJ1WD61RWBKZFCBX5GVWM19OKX", "dateTime": 1520544419737}, {"current_trial": 17, "trialdata": {"rt": -1, "trial_type": "single-stim", "stimulus": "<p id=\"stim\">3</p>", "internal_node_id": "0.0-10.0-7.0", "time_elapsed": 475911, "key_press": -1, "trial_index": 17}, "uniqueid": "MTK3447:3KIBXJ1WD61RWBKZFCBX5GVWM19OKX", "dateTime": 1520544420736}, {"current_trial": 18, "trialdata": {"rt": -1, "trial_type": "single-stim", "stimulus": "<p id=\"stim\">2</p>", "internal_node_id": "0.0-10.0-8.0", "time_elapsed": 476916, "key_press": -1, "trial_index": 18}, "uniqueid": "MTK3447:3KIBXJ1WD61RWBKZFCBX5GVWM19OKX", "dateTime": 1520544421741}, {"current_trial": 19, "trialdata": {"rt": -1, "trial_type": "single-stim", "stimulus": "<p id=\"stim\">1</p>", "internal_node_id": "0.0-10.0-9.0", "time_elapsed": 477916, "key_press": -1, "trial_index": 19}, "uniqueid": "MTK3447:3KIBXJ1WD61RWBKZFCBX5GVWM19OKX", "dateTime": 1520544422741}, {"current_trial": 20, "trialdata": {"rt": -1, "trial_type": "single-stim", "stimulus": "<p id=\"stim\">+</p>", "internal_node_id": "0.0-11.0-0.0", "time_elapsed": 479431, "key_press": -1, "type": "FIXATION", "trial_index": 20}, "uniqueid": "MTK3447:3KIBXJ1WD61RWBKZFCBX5GVWM19OKX", "dateTime": 1520544424256}, {"current_trial": 21, "trialdata": {"rt": -1, "trial_type": "single-stim", "word": "playground", "stimulus": "<p id=\"stim\">PLAYGROUND</p>", "conditions": [18, 1200, "v", 18000], "internal_node_id": "0.0-12.0", "trial": 0, "time_elapsed": 480650, "serialpos": 0, "key_press": -1, "wordID": 1086, "type": "PRES_VIS", "trial_index": 21}, "uniqueid": "MTK3447:3KIBXJ1WD61RWBKZFCBX5GVWM19OKX", "dateTime": 1520544425475}, {"current_trial": 22, "trialdata": {"rt": -1, "trial_type": "single-stim", "word": "rattle", "stimulus": "<p id=\"stim\">RATTLE</p>", "conditions": [18, 1200, "v", 18000], "internal_node_id": "0.0-13.0", "trial": 0, "time_elapsed": 482884, "serialpos": 1, "key_press": -1, "wordID": 1169, "type": "PRES_VIS", "trial_index": 22}, "uniqueid": "MTK3447:3KIBXJ1WD61RWBKZFCBX5GVWM19OKX", "dateTime": 1520544427710}, {"current_trial": 23, "trialdata": {"rt": -1, "trial_type": "single-stim", "word": "plaza", "stimulus": "<p id=\"stim\">PLAZA</p>", "conditions": [18, 1200, "v", 18000], "internal_node_id": "0.0-14.0", "trial": 0, "time_elapsed": 484975, "serialpos": 2, "key_press": -1, "wordID": 1087, "type": "PRES_VIS", "trial_index": 23}, "uniqueid": "MTK3447:3KIBXJ1WD61RWBKZFCBX5GVWM19OKX", "dateTime": 1520544429800}, {"current_trial": 24, "trialdata": {"rt": -1, "trial_type": "single-stim", "word": "office", "stimulus": "<p id=\"stim\">OFFICE</p>", "conditions": [18, 1200, "v", 18000], "internal_node_id": "0.0-15.0", "trial": 0, "time_elapsed": 487119, "serialpos": 3, "key_press": -1, "wordID": 971, "type": "PRES_VIS", "trial_index": 24}, "uniqueid": "MTK3447:3KIBXJ1WD61RWBKZFCBX5GVWM19OKX", "dateTime": 1520544431944}, {"current_trial": 25, "trialdata": {"rt": -1, "trial_type": "single-stim", "word": "braces", "stimulus": "<p id=\"stim\">BRACES</p>", "conditions": [18, 1200, "v", 18000], "internal_node_id": "0.0-16.0", "trial": 0, "time_elapsed": 489369, "serialpos": 4, "key_press": -1, "wordID": 163, "type": "PRES_VIS", "trial_index": 25}, "uniqueid": "MTK3447:3KIBXJ1WD61RWBKZFCBX5GVWM19OKX", "dateTime": 1520544434194}, {"current_trial": 26, "trialdata": {"rt": -1, "trial_type": "single-stim", "word": "bubble", "stimulus": "<p id=\"stim\">BUBBLE</p>", "conditions": [18, 1200, "v", 18000], "internal_node_id": "0.0-17.0", "trial": 0, "time_elapsed": 491775, "serialpos": 5, "key_press": -1, "wordID": 182, "type": "PRES_VIS", "trial_index": 26}, "uniqueid": "MTK3447:3KIBXJ1WD61RWBKZFCBX5GVWM19OKX", "dateTime": 1520544436600}, {"current_trial": 27, "trialdata": {"rt": -1, "trial_type": "single-stim", "word": "jelly", "stimulus": "<p id=\"stim\">JELLY</p>", "conditions": [18, 1200, "v", 18000], "internal_node_id": "0.0-18.0", "trial": 0, "time_elapsed": 493869, "serialpos": 6, "key_press": -1, "wordID": 754, "type": "PRES_VIS", "trial_index": 27}, "uniqueid": "MTK3447:3KIBXJ1WD61RWBKZFCBX5GVWM19OKX", "dateTime": 1520544438694}, {"current_trial": 28, "trialdata": {"rt": -1, "trial_type": "single-stim", "word": "salt", "stimulus": "<p id=\"stim\">SALT</p>", "conditions": [18, 1200, "v", 18000], "internal_node_id": "0.0-19.0", "trial": 0, "time_elapsed": 495994, "serialpos": 7, "key_press": -1, "wordID": 1228, "type": "PRES_VIS", "trial_index": 28}, "uniqueid": "MTK3447:3KIBXJ1WD61RWBKZFCBX5GVWM19OKX", "dateTime": 1520544440819}, {"current_trial": 29, "trialdata": {"rt": -1, "trial_type": "single-stim", "word": "blueprint", "stimulus": "<p id=\"stim\">BLUEPRINT</p>", "conditions": [18, 1200, "v", 18000], "internal_node_id": "0.0-20.0", "trial": 0, "time_elapsed": 498103, "serialpos": 8, "key_press": -1, "wordID": 141, "type": "PRES_VIS", "trial_index": 29}, "uniqueid": "MTK3447:3KIBXJ1WD61RWBKZFCBX5GVWM19OKX", "dateTime": 1520544442928}, {"current_trial": 30, "trialdata": {"rt": -1, "trial_type": "single-stim", "word": "princess", "stimulus": "<p id=\"stim\">PRINCESS</p>", "conditions": [18, 1200, "v", 18000], "internal_node_id": "0.0-21.0", "trial": 0, "time_elapsed": 500181, "serialpos": 9, "key_press": -1, "wordID": 1124, "type": "PRES_VIS", "trial_index": 30}, "uniqueid": "MTK3447:3KIBXJ1WD61RWBKZFCBX5GVWM19OKX", "dateTime": 1520544445006}, {"current_trial": 31, "trialdata": {"rt": -1, "trial_type": "single-stim", "word": "yacht", "stimulus": "<p id=\"stim\">YACHT</p>", "conditions": [18, 1200, "v", 18000], "internal_node_id": "0.0-22.0", "trial": 0, "time_elapsed": 502353, "serialpos": 10, "key_press": -1, "wordID": 1628, "type": "PRES_VIS", "trial_index": 31}, "uniqueid": "MTK3447:3KIBXJ1WD61RWBKZFCBX5GVWM19OKX", "dateTime": 1520544447178}, {"current_trial": 32, "trialdata": {"rt": -1, "trial_type": "single-stim", "word": "goblin", "stimulus": "<p id=\"stim\">GOBLIN</p>", "conditions": [18, 1200, "v", 18000], "internal_node_id": "0.0-23.0", "trial": 0, "time_elapsed": 504509, "serialpos": 11, "key_press": -1, "wordID": 644, "type": "PRES_VIS", "trial_index": 32}, "uniqueid": "MTK3447:3KIBXJ1WD61RWBKZFCBX5GVWM19OKX", "dateTime": 1520544449335}, {"current_trial": 33, "trialdata": {"rt": -1, "trial_type": "single-stim", "word": "cod", "stimulus": "<p id=\"stim\">COD</p>", "conditions": [18, 1200, "v", 18000], "internal_node_id": "0.0-24.0", "trial": 0, "time_elapsed": 506572, "serialpos": 12, "key_press": -1, "wordID": 339, "type": "PRES_VIS", "trial_index": 33}, "uniqueid": "MTK3447:3KIBXJ1WD61RWBKZFCBX5GVWM19OKX", "dateTime": 1520544451397}, {"current_trial": 34, "trialdata": {"rt": -1, "trial_type": "single-stim", "word": "girl", "stimulus": "<p id=\"stim\">GIRL</p>", "conditions": [18, 1200, "v", 18000], "internal_node_id": "0.0-25.0", "trial": 0, "time_elapsed": 508838, "serialpos": 13, "key_press": -1, "wordID": 636, "type": "PRES_VIS", "trial_index": 34}, "uniqueid": "MTK3447:3KIBXJ1WD61RWBKZFCBX5GVWM19OKX", "dateTime": 1520544453663}, {"current_trial": 35, "trialdata": {"rt": -1, "trial_type": "single-stim", "word": "carriage", "stimulus": "<p id=\"stim\">CARRIAGE</p>", "conditions": [18, 1200, "v", 18000], "internal_node_id": "0.0-26.0", "trial": 0, "time_elapsed": 510994, "serialpos": 14, "key_press": -1, "wordID": 247, "type": "PRES_VIS", "trial_index": 35}, "uniqueid": "MTK3447:3KIBXJ1WD61RWBKZFCBX5GVWM19OKX", "dateTime": 1520544455819}, {"current_trial": 36, "trialdata": {"rt": -1, "trial_type": "single-stim", "word": "window", "stimulus": "<p id=\"stim\">WINDOW</p>", "conditions": [18, 1200, "v", 18000], "internal_node_id": "0.0-27.0", "trial": 0, "time_elapsed": 513332, "serialpos": 15, "key_press": -1, "wordID": 1610, "type": "PRES_VIS", "trial_index": 36}, "uniqueid": "MTK3447:3KIBXJ1WD61RWBKZFCBX5GVWM19OKX", "dateTime": 1520544458157}, {"current_trial": 37, "trialdata": {"rt": -1, "trial_type": "single-stim", "word": "turnip", "stimulus": "<p id=\"stim\">TURNIP</p>", "conditions": [18, 1200, "v", 18000], "internal_node_id": "0.0-28.0", "trial": 0, "time_elapsed": 515463, "serialpos": 16, "key_press": -1, "wordID": 1520, "type": "PRES_VIS", "trial_index": 37}, "uniqueid": "MTK3447:3KIBXJ1WD61RWBKZFCBX5GVWM19OKX", "dateTime": 1520544460288}, {"current_trial": 38, "trialdata": {"rt": -1, "trial_type": "single-stim", "word": "cousin", "stimulus": "<p id=\"stim\">COUSIN</p>", "conditions": [18, 1200, "v", 18000], "internal_node_id": "0.0-29.0", "trial": 0, "time_elapsed": 517514, "serialpos": 17, "key_press": -1, "wordID": 391, "type": "PRES_VIS", "trial_index": 38}, "uniqueid": "MTK3447:3KIBXJ1WD61RWBKZFCBX5GVWM19OKX", "dateTime": 1520544462339}, {"current_trial": 39, "trialdata": {"rt": -1, "trial_type": "single-stim", "stimulus": "", "internal_node_id": "0.0-30.0-0.0", "time_elapsed": 519822, "key_press": -1, "type": "PRE_RECALL_DELAY", "trial_index": 39}, "uniqueid": "MTK3447:3KIBXJ1WD61RWBKZFCBX5GVWM19OKX", "dateTime": 1520544464647}, {"current_trial": 40, "trialdata": {"rt": -1000, "trial_type": "single-audio", "stimulus": "/static/audio/400Hz.wav", "internal_node_id": "0.0-31.0", "time_elapsed": 520459, "key_press": -1, "type": "PRE_RECALL_ALERT", "trial_index": 40}, "uniqueid": "MTK3447:3KIBXJ1WD61RWBKZFCBX5GVWM19OKX", "dateTime": 1520544465284}, {"current_trial": 41, "trialdata": {"rt": [7939, 15531, 22187, 30811, 51051, 57171], "recwords": ["cousin", "carraige", "salt", "plaza", "playground", "office"], "key_times": [2731, 3467, 4771, 5291, 5787, 6299, 7939, 9419, 9803, 11275, 11531, 12083, 12563, 13275, 13811, 15531, 16763, 17123, 17675, 18371, 19491, 20203, 22187, 23755, 25931, 26731, 27035, 27523, 28323, 28731, 30811, 32523, 33051, 33667, 34587, 36499, 36907, 37763, 38531, 38539, 41243, 43251, 48027, 49379, 50267, 51051, 52467, 53387, 53595, 54443, 55155, 55723, 57171, 58187, 58883, 59587], "trial_type": "free-recall", "conditions": [18, 1200, "v", 18000], "internal_node_id": "0.0-32.0-0.0", "key_presses": [67, 79, 85, 83, 73, 78, 13, 67, 65, 82, 82, 65, 73, 71, 69, 13, 83, 65, 76, 89, 8, 84, 13, 219, 8, 80, 76, 65, 90, 65, 13, 80, 76, 65, 89, 71, 82, 79, 85, 73, 8, 68, 8, 78, 68, 13, 79, 70, 70, 73, 67, 69, 13, 67, 79, 68], "trial": 0, "time_elapsed": 580476, "type": "FREE_RECALL", "trial_index": 41}, "uniqueid": "MTK3447:3KIBXJ1WD61RWBKZFCBX5GVWM19OKX", "dateTime": 1520544525307}, {"current_trial": 42, "trialdata": {"rt": 839, "trial_type": "text", "internal_node_id": "0.0-33.0", "time_elapsed": 583345, "key_press": 82, "type": "INSTRUCTIONS", "trial_index": 42}, "uniqueid": "MTK3447:3KIBXJ1WD61RWBKZFCBX5GVWM19OKX", "dateTime": 1520544528170}, {"current_trial": 43, "trialdata": {"rt": [5068, 9508, 13204, 16356], "trial_type": "math-distractor", "key_times": [3892, 4436, 5068, 7548, 8396, 9508, 11684, 12228, 13204, 15100, 15644, 16356], "responses": ["18", "13", "14", "15"], "num2": [8, 1, 6, 5, 3], "num3": [4, 4, 4, 7, 3], "conditions": [18, 1200, "v", 18000], "internal_node_id": "0.0-34.0", "key_presses": [97, 104, 13, 97, 99, 13, 97, 100, 13, 97, 101, 13], "trial": 1, "time_elapsed": 603370, "type": "DISTRACTOR", "trial_index": 43, "num1": [6, 8, 4, 3, 5]}, "uniqueid": "MTK3447:3KIBXJ1WD61RWBKZFCBX5GVWM19OKX", "dateTime": 1520544548195}, {"current_trial": 44, "trialdata": {"rt": -1, "trial_type": "single-stim", "stimulus": "<p id=\"stim\">10</p>", "internal_node_id": "0.0-35.0-0.0", "time_elapsed": 606407, "key_press": -1, "trial_index": 44}, "uniqueid": "MTK3447:3KIBXJ1WD61RWBKZFCBX5GVWM19OKX", "dateTime": 1520544551232}, {"current_trial": 45, "trialdata": {"rt": -1, "trial_type": "single-stim", "stimulus": "<p id=\"stim\">9</p>", "internal_node_id": "0.0-35.0-1.0", "time_elapsed": 607399, "key_press": -1, "trial_index": 45}, "uniqueid": "MTK3447:3KIBXJ1WD61RWBKZFCBX5GVWM19OKX", "dateTime": 1520544552224}, {"current_trial": 46, "trialdata": {"rt": -1, "trial_type": "single-stim", "stimulus": "<p id=\"stim\">8</p>", "internal_node_id": "0.0-35.0-2.0", "time_elapsed": 608406, "key_press": -1, "trial_index": 46}, "uniqueid": "MTK3447:3KIBXJ1WD61RWBKZFCBX5GVWM19OKX", "dateTime": 1520544553232}, {"current_trial": 47, "trialdata": {"rt": -1, "trial_type": "single-stim", "stimulus": "<p id=\"stim\">7</p>", "internal_node_id": "0.0-35.0-3.0", "time_elapsed": 609399, "key_press": -1, "trial_index": 47}, "uniqueid": "MTK3447:3KIBXJ1WD61RWBKZFCBX5GVWM19OKX", "dateTime": 1520544554224}, {"current_trial": 48, "trialdata": {"rt": -1, "trial_type": "single-stim", "stimulus": "<p id=\"stim\">6</p>", "internal_node_id": "0.0-35.0-4.0", "time_elapsed": 610406, "key_press": -1, "trial_index": 48}, "uniqueid": "MTK3447:3KIBXJ1WD61RWBKZFCBX5GVWM19OKX", "dateTime": 1520544555231}, {"current_trial": 49, "trialdata": {"rt": -1, "trial_type": "single-stim", "stimulus": "<p id=\"stim\">5</p>", "internal_node_id": "0.0-35.0-5.0", "time_elapsed": 611414, "key_press": -1, "trial_index": 49}, "uniqueid": "MTK3447:3KIBXJ1WD61RWBKZFCBX5GVWM19OKX", "dateTime": 1520544556239}, {"current_trial": 50, "trialdata": {"rt": -1, "trial_type": "single-stim", "stimulus": "<p id=\"stim\">4</p>", "internal_node_id": "0.0-35.0-6.0", "time_elapsed": 612399, "key_press": -1, "trial_index": 50}, "uniqueid": "MTK3447:3KIBXJ1WD61RWBKZFCBX5GVWM19OKX", "dateTime": 1520544557225}, {"current_trial": 51, "trialdata": {"rt": -1, "trial_type": "single-stim", "stimulus": "<p id=\"stim\">3</p>", "internal_node_id": "0.0-35.0-7.0", "time_elapsed": 613398, "key_press": -1, "trial_index": 51}, "uniqueid": "MTK3447:3KIBXJ1WD61RWBKZFCBX5GVWM19OKX", "dateTime": 1520544558224}, {"current_trial": 52, "trialdata": {"rt": -1, "trial_type": "single-stim", "stimulus": "<p id=\"stim\">2</p>", "internal_node_id": "0.0-35.0-8.0", "time_elapsed": 614405, "key_press": -1, "trial_index": 52}, "uniqueid": "MTK3447:3KIBXJ1WD61RWBKZFCBX5GVWM19OKX", "dateTime": 1520544559230}, {"current_trial": 53, "trialdata": {"rt": -1, "trial_type": "single-stim", "stimulus": "<p id=\"stim\">1</p>", "internal_node_id": "0.0-35.0-9.0", "time_elapsed": 615397, "key_press": -1, "trial_index": 53}, "uniqueid": "MTK3447:3KIBXJ1WD61RWBKZFCBX5GVWM19OKX", "dateTime": 1520544560222}, {"current_trial": 54, "trialdata": {"rt": -1, "trial_type": "single-stim", "stimulus": "<p id=\"stim\">+</p>", "internal_node_id": "0.0-36.0-0.0", "time_elapsed": 616916, "key_press": -1, "type": "FIXATION", "trial_index": 54}, "uniqueid": "MTK3447:3KIBXJ1WD61RWBKZFCBX5GVWM19OKX", "dateTime": 1520544561741}, {"current_trial": 55, "trialdata": {"rt": -1, "trial_type": "single-stim", "word": "ground", "stimulus": "<p id=\"stim\">GROUND</p>", "conditions": [18, 1200, "v", 18000], "internal_node_id": "0.0-37.0", "trial": 1, "time_elapsed": 618141, "serialpos": 0, "key_press": -1, "wordID": 665, "type": "PRES_VIS", "trial_index": 55}, "uniqueid": "MTK3447:3KIBXJ1WD61RWBKZFCBX5GVWM19OKX", "dateTime": 1520544562966}, {"current_trial": 56, "trialdata": {"rt": -1, "trial_type": "single-stim", "word": "mars", "stimulus": "<p id=\"stim\">MARS</p>", "conditions": [18, 1200, "v", 18000], "internal_node_id": "0.0-38.0", "trial": 1, "time_elapsed": 620575, "serialpos": 1, "key_press": -1, "wordID": 872, "type": "PRES_VIS", "trial_index": 56}, "uniqueid": "MTK3447:3KIBXJ1WD61RWBKZFCBX5GVWM19OKX", "dateTime": 1520544565400}, {"current_trial": 57, "trialdata": {"rt": -1, "trial_type": "single-stim", "word": "cyclone", "stimulus": "<p id=\"stim\">CYCLONE</p>", "conditions": [18, 1200, "v", 18000], "internal_node_id": "0.0-39.0", "trial": 1, "time_elapsed": 622807, "serialpos": 2, "key_press": -1, "wordID": 430, "type": "PRES_VIS", "trial_index": 57}, "uniqueid": "MTK3447:3KIBXJ1WD61RWBKZFCBX5GVWM19OKX", "dateTime": 1520544567632}, {"current_trial": 58, "trialdata": {"rt": -1, "trial_type": "single-stim", "word": "ankle", "stimulus": "<p id=\"stim\">ANKLE</p>", "conditions": [18, 1200, "v", 18000], "internal_node_id": "0.0-40.0", "trial": 1, "time_elapsed": 624915, "serialpos": 3, "key_press": -1, "wordID": 23, "type": "PRES_VIS", "trial_index": 58}, "uniqueid": "MTK3447:3KIBXJ1WD61RWBKZFCBX5GVWM19OKX", "dateTime": 1520544569740}, {"current_trial": 59, "trialdata": {"rt": -1, "trial_type": "single-stim", "word": "permit", "stimulus": "<p id=\"stim\">PERMIT</p>", "conditions": [18, 1200, "v", 18000], "internal_node_id": "0.0-41.0", "trial": 1, "time_elapsed": 627302, "serialpos": 4, "key_press": -1, "wordID": 1050, "type": "PRES_VIS", "trial_index": 59}, "uniqueid": "MTK3447:3KIBXJ1WD61RWBKZFCBX5GVWM19OKX", "dateTime": 1520544572128}, {"current_trial": 60, "trialdata": {"rt": -1, "trial_type": "single-stim", "word": "monster", "stimulus": "<p id=\"stim\">MONSTER</p>", "conditions": [18, 1200, "v", 18000], "internal_node_id": "0.0-42.0", "trial": 1, "time_elapsed": 629504, "serialpos": 5, "key_press": -1, "wordID": 911, "type": "PRES_VIS", "trial_index": 60}, "uniqueid": "MTK3447:3KIBXJ1WD61RWBKZFCBX5GVWM19OKX", "dateTime": 1520544574329}, {"current_trial": 61, "trialdata": {"rt": -1, "trial_type": "single-stim", "word": "beaker", "stimulus": "<p id=\"stim\">BEAKER</p>", "conditions": [18, 1200, "v", 18000], "internal_node_id": "0.0-43.0", "trial": 1, "time_elapsed": 631593, "serialpos": 6, "key_press": -1, "wordID": 103, "type": "PRES_VIS", "trial_index": 61}, "uniqueid": "MTK3447:3KIBXJ1WD61RWBKZFCBX5GVWM19OKX", "dateTime": 1520544576419}, {"current_trial": 62, "trialdata": {"rt": -1, "trial_type": "single-stim", "word": "suitcase", "stimulus": "<p id=\"stim\">SUITCASE</p>", "conditions": [18, 1200, "v", 18000], "internal_node_id": "0.0-44.0", "trial": 1, "time_elapsed": 633733, "serialpos": 7, "key_press": -1, "wordID": 1402, "type": "PRES_VIS", "trial_index": 62}, "uniqueid": "MTK3447:3KIBXJ1WD61RWBKZFCBX5GVWM19OKX", "dateTime": 1520544578558}, {"current_trial": 63, "trialdata": {"rt": -1, "trial_type": "single-stim", "word": "beaver", "stimulus": "<p id=\"stim\">BEAVER</p>", "conditions": [18, 1200, "v", 18000], "internal_node_id": "0.0-45.0", "trial": 1, "time_elapsed": 635825, "serialpos": 8, "key_press": -1, "wordID": 108, "type": "PRES_VIS", "trial_index": 63}, "uniqueid": "MTK3447:3KIBXJ1WD61RWBKZFCBX5GVWM19OKX", "dateTime": 1520544580651}, {"current_trial": 64, "trialdata": {"rt": -1, "trial_type": "single-stim", "word": "necklace", "stimulus": "<p id=\"stim\">NECKLACE</p>", "conditions": [18, 1200, "v", 18000], "internal_node_id": "0.0-46.0", "trial": 1, "time_elapsed": 638197, "serialpos": 9, "key_press": -1, "wordID": 939, "type": "PRES_VIS", "trial_index": 64}, "uniqueid": "MTK3447:3KIBXJ1WD61RWBKZFCBX5GVWM19OKX", "dateTime": 1520544583022}, {"current_trial": 65, "trialdata": {"rt": -1, "trial_type": "single-stim", "word": "skillet", "stimulus": "<p id=\"stim\">SKILLET</p>", "conditions": [18, 1200, "v", 18000], "internal_node_id": "0.0-47.0", "trial": 1, "time_elapsed": 640585, "serialpos": 10, "key_press": -1, "wordID": 1316, "type": "PRES_VIS", "trial_index": 65}, "uniqueid": "MTK3447:3KIBXJ1WD61RWBKZFCBX5GVWM19OKX", "dateTime": 1520544585410}, {"current_trial": 66, "trialdata": {"rt": -1, "trial_type": "single-stim", "word": "island", "stimulus": "<p id=\"stim\">ISLAND</p>", "conditions": [18, 1200, "v", 18000], "internal_node_id": "0.0-48.0", "trial": 1, "time_elapsed": 642677, "serialpos": 11, "key_press": -1, "wordID": 744, "type": "PRES_VIS", "trial_index": 66}, "uniqueid": "MTK3447:3KIBXJ1WD61RWBKZFCBX5GVWM19OKX", "dateTime": 1520544587503}, {"current_trial": 67, "trialdata": {"rt": -1, "trial_type": "single-stim", "word": "igloo", "stimulus": "<p id=\"stim\">IGLOO</p>", "conditions": [18, 1200, "v", 18000], "internal_node_id": "0.0-49.0", "trial": 1, "time_elapsed": 644848, "serialpos": 12, "key_press": -1, "wordID": 733, "type": "PRES_VIS", "trial_index": 67}, "uniqueid": "MTK3447:3KIBXJ1WD61RWBKZFCBX5GVWM19OKX", "dateTime": 1520544589673}, {"current_trial": 68, "trialdata": {"rt": -1, "trial_type": "single-stim", "word": "item", "stimulus": "<p id=\"stim\">ITEM</p>", "conditions": [18, 1200, "v", 18000], "internal_node_id": "0.0-50.0", "trial": 1, "time_elapsed": 647160, "serialpos": 13, "key_press": -1, "wordID": 745, "type": "PRES_VIS", "trial_index": 68}, "uniqueid": "MTK3447:3KIBXJ1WD61RWBKZFCBX5GVWM19OKX", "dateTime": 1520544591985}, {"current_trial": 69, "trialdata": {"rt": -1, "trial_type": "single-stim", "word": "patrol", "stimulus": "<p id=\"stim\">PATROL</p>", "conditions": [18, 1200, "v", 18000], "internal_node_id": "0.0-51.0", "trial": 1, "time_elapsed": 649594, "serialpos": 14, "key_press": -1, "wordID": 1026, "type": "PRES_VIS", "trial_index": 69}, "uniqueid": "MTK3447:3KIBXJ1WD61RWBKZFCBX5GVWM19OKX", "dateTime": 1520544594419}, {"current_trial": 70, "trialdata": {"rt": -1, "trial_type": "single-stim", "word": "beef", "stimulus": "<p id=\"stim\">BEEF</p>", "conditions": [18, 1200, "v", 18000], "internal_node_id": "0.0-52.0", "trial": 1, "time_elapsed": 651764, "serialpos": 15, "key_press": -1, "wordID": 112, "type": "PRES_VIS", "trial_index": 70}, "uniqueid": "MTK3447:3KIBXJ1WD61RWBKZFCBX5GVWM19OKX", "dateTime": 1520544596589}, {"current_trial": 71, "trialdata": {"rt": -1, "trial_type": "single-stim", "word": "bullet", "stimulus": "<p id=\"stim\">BULLET</p>", "conditions": [18, 1200, "v", 18000], "internal_node_id": "0.0-53.0", "trial": 1, "time_elapsed": 653996, "serialpos": 16, "key_press": -1, "wordID": 193, "type": "PRES_VIS", "trial_index": 71}, "uniqueid": "MTK3447:3KIBXJ1WD61RWBKZFCBX5GVWM19OKX", "dateTime": 1520544598821}, {"current_trial": 72, "trialdata": {"rt": -1, "trial_type": "single-stim", "word": "bison", "stimulus": "<p id=\"stim\">BISON</p>", "conditions": [18, 1200, "v", 18000], "internal_node_id": "0.0-54.0", "trial": 1, "time_elapsed": 656260, "serialpos": 17, "key_press": -1, "wordID": 130, "type": "PRES_VIS", "trial_index": 72}, "uniqueid": "MTK3447:3KIBXJ1WD61RWBKZFCBX5GVWM19OKX", "dateTime": 1520544601085}, {"current_trial": 73, "trialdata": {"rt": -1, "trial_type": "single-stim", "stimulus": "", "internal_node_id": "0.0-55.0-0.0", "time_elapsed": 658833, "key_press": -1, "type": "PRE_RECALL_DELAY", "trial_index": 73}, "uniqueid": "MTK3447:3KIBXJ1WD61RWBKZFCBX5GVWM19OKX", "dateTime": 1520544603658}, {"current_trial": 74, "trialdata": {"rt": -1000, "trial_type": "single-audio", "stimulus": "/static/audio/400Hz.wav", "internal_node_id": "0.0-56.0", "time_elapsed": 659344, "key_press": -1, "type": "PRE_RECALL_ALERT", "trial_index": 74}, "uniqueid": "MTK3447:3KIBXJ1WD61RWBKZFCBX5GVWM19OKX", "dateTime": 1520544604170}, {"current_trial": 75, "trialdata": {"rt": [7614, 13510, 18710, 25462], "recwords": ["bison", "beef", "igloo", "ground"], "key_times": [2262, 3350, 4438, 5198, 5758, 7614, 9078, 9750, 10030, 12854, 13510, 14462, 15870, 16918, 17318, 17550, 18710, 20070, 20582, 21382, 21774, 22606, 23350, 25462], "trial_type": "free-recall", "conditions": [18, 1200, "v", 18000], "internal_node_id": "0.0-57.0-0.0", "key_presses": [66, 73, 83, 79, 78, 13, 66, 69, 69, 70, 13, 73, 71, 76, 79, 79, 13, 71, 82, 79, 85, 78, 68, 13], "trial": 1, "time_elapsed": 719365, "type": "FREE_RECALL", "trial_index": 75}, "uniqueid": "MTK3447:3KIBXJ1WD61RWBKZFCBX5GVWM19OKX", "dateTime": 1520544664193}, {"current_trial": 76, "trialdata": {"rt": 18892, "trial_type": "text", "internal_node_id": "0.0-58.0", "time_elapsed": 740265, "key_press": 13, "type": "INSTRUCTIONS", "trial_index": 76}, "uniqueid": "MTK3447:3KIBXJ1WD61RWBKZFCBX5GVWM19OKX", "dateTime": 1520544685090}, {"current_trial": 77, "trialdata": {"rt": [5723, 8939, 11611, 13587, 16882, 20226, 22882], "trial_type": "math-distractor", "key_times": [3427, 4795, 5723, 7763, 8251, 8939, 10715, 11019, 11611, 12987, 13211, 13587, 16139, 16435, 16882, 19187, 19851, 20226, 22315, 22882], "responses": ["23", "18", "21", "11", "12", "16", "4"], "num2": [7, 8, 9, 5, 5, 9, 1, 5], "num3": [7, 8, 3, 1, 3, 3, 1, 4], "conditions": [24, 800, "v", 24000], "internal_node_id": "0.0-59.0", "key_presses": [98, 99, 13, 97, 104, 13, 98, 97, 13, 97, 97, 13, 97, 98, 13, 97, 102, 13, 100, 13], "trial": 2, "time_elapsed": 765300, "type": "DISTRACTOR", "trial_index": 77, "num1": [9, 2, 9, 5, 4, 4, 2, 3]}, "uniqueid": "MTK3447:3KIBXJ1WD61RWBKZFCBX5GVWM19OKX", "dateTime": 1520544710125}, {"current_trial": 78, "trialdata": {"rt": -1, "trial_type": "single-stim", "stimulus": "<p id=\"stim\">10</p>", "internal_node_id": "0.0-60.0-0.0", "time_elapsed": 768343, "key_press": -1, "trial_index": 78}, "uniqueid": "MTK3447:3KIBXJ1WD61RWBKZFCBX5GVWM19OKX", "dateTime": 1520544713168}, {"current_trial": 79, "trialdata": {"rt": -1, "trial_type": "single-stim", "stimulus": "<p id=\"stim\">9</p>", "internal_node_id": "0.0-60.0-1.0", "time_elapsed": 769335, "key_press": -1, "trial_index": 79}, "uniqueid": "MTK3447:3KIBXJ1WD61RWBKZFCBX5GVWM19OKX", "dateTime": 1520544714161}, {"current_trial": 80, "trialdata": {"rt": -1, "trial_type": "single-stim", "stimulus": "<p id=\"stim\">8</p>", "internal_node_id": "0.0-60.0-2.0", "time_elapsed": 770343, "key_press": -1, "trial_index": 80}, "uniqueid": "MTK3447:3KIBXJ1WD61RWBKZFCBX5GVWM19OKX", "dateTime": 1520544715168}, {"current_trial": 81, "trialdata": {"rt": -1, "trial_type": "single-stim", "stimulus": "<p id=\"stim\">7</p>", "internal_node_id": "0.0-60.0-3.0", "time_elapsed": 771335, "key_press": -1, "trial_index": 81}, "uniqueid": "MTK3447:3KIBXJ1WD61RWBKZFCBX5GVWM19OKX", "dateTime": 1520544716160}, {"current_trial": 82, "trialdata": {"rt": -1, "trial_type": "single-stim", "stimulus": "<p id=\"stim\">6</p>", "internal_node_id": "0.0-60.0-4.0", "time_elapsed": 772343, "key_press": -1, "trial_index": 82}, "uniqueid": "MTK3447:3KIBXJ1WD61RWBKZFCBX5GVWM19OKX", "dateTime": 1520544717168}, {"current_trial": 83, "trialdata": {"rt": -1, "trial_type": "single-stim", "stimulus": "<p id=\"stim\">5</p>", "internal_node_id": "0.0-60.0-5.0", "time_elapsed": 773350, "key_press": -1, "trial_index": 83}, "uniqueid": "MTK3447:3KIBXJ1WD61RWBKZFCBX5GVWM19OKX", "dateTime": 1520544718176}, {"current_trial": 84, "trialdata": {"rt": -1, "trial_type": "single-stim", "stimulus": "<p id=\"stim\">4</p>", "internal_node_id": "0.0-60.0-6.0", "time_elapsed": 774329, "key_press": -1, "trial_index": 84}, "uniqueid": "MTK3447:3KIBXJ1WD61RWBKZFCBX5GVWM19OKX", "dateTime": 1520544719155}, {"current_trial": 85, "trialdata": {"rt": -1, "trial_type": "single-stim", "stimulus": "<p id=\"stim\">3</p>", "internal_node_id": "0.0-60.0-7.0", "time_elapsed": 775335, "key_press": -1, "trial_index": 85}, "uniqueid": "MTK3447:3KIBXJ1WD61RWBKZFCBX5GVWM19OKX", "dateTime": 1520544720160}, {"current_trial": 86, "trialdata": {"rt": -1, "trial_type": "single-stim", "stimulus": "<p id=\"stim\">2</p>", "internal_node_id": "0.0-60.0-8.0", "time_elapsed": 776342, "key_press": -1, "trial_index": 86}, "uniqueid": "MTK3447:3KIBXJ1WD61RWBKZFCBX5GVWM19OKX", "dateTime": 1520544721167}, {"current_trial": 87, "trialdata": {"rt": -1, "trial_type": "single-stim", "stimulus": "<p id=\"stim\">1</p>", "internal_node_id": "0.0-60.0-9.0", "time_elapsed": 777322, "key_press": -1, "trial_index": 87}, "uniqueid": "MTK3447:3KIBXJ1WD61RWBKZFCBX5GVWM19OKX", "dateTime": 1520544722147}, {"current_trial": 88, "trialdata": {"rt": -1, "trial_type": "single-stim", "stimulus": "<p id=\"stim\">+</p>", "internal_node_id": "0.0-61.0-0.0", "time_elapsed": 778839, "key_press": -1, "type": "FIXATION", "trial_index": 88}, "uniqueid": "MTK3447:3KIBXJ1WD61RWBKZFCBX5GVWM19OKX", "dateTime": 1520544723664}, {"current_trial": 89, "trialdata": {"rt": -1, "trial_type": "single-stim", "word": "sponge", "stimulus": "<p id=\"stim\">SPONGE</p>", "conditions": [24, 800, "v", 24000], "internal_node_id": "0.0-62.0", "trial": 2, "time_elapsed": 779662, "serialpos": 0, "key_press": -1, "wordID": 1354, "type": "PRES_VIS", "trial_index": 89}, "uniqueid": "MTK3447:3KIBXJ1WD61RWBKZFCBX5GVWM19OKX", "dateTime": 1520544724487}, {"current_trial": 90, "trialdata": {"rt": -1, "trial_type": "single-stim", "word": "hiker", "stimulus": "<p id=\"stim\">HIKER</p>", "conditions": [24, 800, "v", 24000], "internal_node_id": "0.0-63.0", "trial": 2, "time_elapsed": 781675, "serialpos": 1, "key_press": -1, "wordID": 707, "type": "PRES_VIS", "trial_index": 90}, "uniqueid": "MTK3447:3KIBXJ1WD61RWBKZFCBX5GVWM19OKX", "dateTime": 1520544726500}, {"current_trial": 91, "trialdata": {"rt": -1, "trial_type": "single-stim", "word": "victim", "stimulus": "<p id=\"stim\">VICTIM</p>", "conditions": [24, 800, "v", 24000], "internal_node_id": "0.0-64.0", "trial": 2, "time_elapsed": 783597, "serialpos": 2, "key_press": -1, "wordID": 1561, "type": "PRES_VIS", "trial_index": 91}, "uniqueid": "MTK3447:3KIBXJ1WD61RWBKZFCBX5GVWM19OKX", "dateTime": 1520544728422}, {"current_trial": 92, "trialdata": {"rt": -1, "trial_type": "single-stim", "word": "razor", "stimulus": "<p id=\"stim\">RAZOR</p>", "conditions": [24, 800, "v", 24000], "internal_node_id": "0.0-65.0", "trial": 2, "time_elapsed": 785287, "serialpos": 3, "key_press": -1, "wordID": 1170, "type": "PRES_VIS", "trial_index": 92}, "uniqueid": "MTK3447:3KIBXJ1WD61RWBKZFCBX5GVWM19OKX", "dateTime": 1520544730112}, {"current_trial": 93, "trialdata": {"rt": -1, "trial_type": "single-stim", "word": "climber", "stimulus": "<p id=\"stim\">CLIMBER</p>", "conditions": [24, 800, "v", 24000], "internal_node_id": "0.0-66.0", "trial": 2, "time_elapsed": 787287, "serialpos": 4, "key_press": -1, "wordID": 322, "type": "PRES_VIS", "trial_index": 93}, "uniqueid": "MTK3447:3KIBXJ1WD61RWBKZFCBX5GVWM19OKX", "dateTime": 1520544732112}, {"current_trial": 94, "trialdata": {"rt": -1, "trial_type": "single-stim", "word": "france", "stimulus": "<p id=\"stim\">FRANCE</p>", "conditions": [24, 800, "v", 24000], "internal_node_id": "0.0-67.0", "trial": 2, "time_elapsed": 789124, "serialpos": 5, "key_press": -1, "wordID": 600, "type": "PRES_VIS", "trial_index": 94}, "uniqueid": "MTK3447:3KIBXJ1WD61RWBKZFCBX5GVWM19OKX", "dateTime": 1520544733950}, {"current_trial": 95, "trialdata": {"rt": -1, "trial_type": "single-stim", "word": "casket", "stimulus": "<p id=\"stim\">CASKET</p>", "conditions": [24, 800, "v", 24000], "internal_node_id": "0.0-68.0", "trial": 2, "time_elapsed": 790956, "serialpos": 6, "key_press": -1, "wordID": 254, "type": "PRES_VIS", "trial_index": 95}, "uniqueid": "MTK3447:3KIBXJ1WD61RWBKZFCBX5GVWM19OKX", "dateTime": 1520544735781}, {"current_trial": 96, "trialdata": {"rt": -1, "trial_type": "single-stim", "word": "mister", "stimulus": "<p id=\"stim\">MISTER</p>", "conditions": [24, 800, "v", 24000], "internal_node_id": "0.0-69.0", "trial": 2, "time_elapsed": 792676, "serialpos": 7, "key_press": -1, "wordID": 900, "type": "PRES_VIS", "trial_index": 96}, "uniqueid": "MTK3447:3KIBXJ1WD61RWBKZFCBX5GVWM19OKX", "dateTime": 1520544737502}, {"current_trial": 97, "trialdata": {"rt": -1, "trial_type": "single-stim", "word": "fragrance", "stimulus": "<p id=\"stim\">FRAGRANCE</p>", "conditions": [24, 800, "v", 24000], "internal_node_id": "0.0-70.0", "trial": 2, "time_elapsed": 794598, "serialpos": 8, "key_press": -1, "wordID": 598, "type": "PRES_VIS", "trial_index": 97}, "uniqueid": "MTK3447:3KIBXJ1WD61RWBKZFCBX5GVWM19OKX", "dateTime": 1520544739424}, {"current_trial": 98, "trialdata": {"rt": -1, "trial_type": "single-stim", "word": "perfume", "stimulus": "<p id=\"stim\">PERFUME</p>", "conditions": [24, 800, "v", 24000], "internal_node_id": "0.0-71.0", "trial": 2, "time_elapsed": 796180, "serialpos": 9, "key_press": -1, "wordID": 1048, "type": "PRES_VIS", "trial_index": 98}, "uniqueid": "MTK3447:3KIBXJ1WD61RWBKZFCBX5GVWM19OKX", "dateTime": 1520544741005}, {"current_trial": 99, "trialdata": {"rt": -1, "trial_type": "single-stim", "word": "queen", "stimulus": "<p id=\"stim\">QUEEN</p>", "conditions": [24, 800, "v", 24000], "internal_node_id": "0.0-72.0", "trial": 2, "time_elapsed": 798117, "serialpos": 10, "key_press": -1, "wordID": 1148, "type": "PRES_VIS", "trial_index": 99}, "uniqueid": "MTK3447:3KIBXJ1WD61RWBKZFCBX5GVWM19OKX", "dateTime": 1520544742943}, {"current_trial": 100, "trialdata": {"rt": -1, "trial_type": "single-stim", "word": "nurse", "stimulus": "<p id=\"stim\">NURSE</p>", "conditions": [24, 800, "v", 24000], "internal_node_id": "0.0-73.0", "trial": 2, "time_elapsed": 800024, "serialpos": 11, "key_press": -1, "wordID": 962, "type": "PRES_VIS", "trial_index": 100}, "uniqueid": "MTK3447:3KIBXJ1WD61RWBKZFCBX5GVWM19OKX", "dateTime": 1520544744849}, {"current_trial": 101, "trialdata": {"rt": -1, "trial_type": "single-stim", "word": "champagne", "stimulus": "<p id=\"stim\">CHAMPAGNE</p>", "conditions": [24, 800, "v", 24000], "internal_node_id": "0.0-74.0", "trial": 2, "time_elapsed": 801870, "serialpos": 12, "key_press": -1, "wordID": 277, "type": "PRES_VIS", "trial_index": 101}, "uniqueid": "MTK3447:3KIBXJ1WD61RWBKZFCBX5GVWM19OKX", "dateTime": 1520544746695}, {"current_trial": 102, "trialdata": {"rt": -1, "trial_type": "single-stim", "word": "racket", "stimulus": "<p id=\"stim\">RACKET</p>", "conditions": [24, 800, "v", 24000], "internal_node_id": "0.0-75.0", "trial": 2, "time_elapsed": 803874, "serialpos": 13, "key_press": -1, "wordID": 1154, "type": "PRES_VIS", "trial_index": 102}, "uniqueid": "MTK3447:3KIBXJ1WD61RWBKZFCBX5GVWM19OKX", "dateTime": 1520544748699}, {"current_trial": 103, "trialdata": {"rt": -1, "trial_type": "single-stim", "word": "pizza", "stimulus": "<p id=\"stim\">PIZZA</p>", "conditions": [24, 800, "v", 24000], "internal_node_id": "0.0-76.0", "trial": 2, "time_elapsed": 805905, "serialpos": 14, "key_press": -1, "wordID": 1078, "type": "PRES_VIS", "trial_index": 103}, "uniqueid": "MTK3447:3KIBXJ1WD61RWBKZFCBX5GVWM19OKX", "dateTime": 1520544750730}, {"current_trial": 104, "trialdata": {"rt": -1, "trial_type": "single-stim", "word": "penguin", "stimulus": "<p id=\"stim\">PENGUIN</p>", "conditions": [24, 800, "v", 24000], "internal_node_id": "0.0-77.0", "trial": 2, "time_elapsed": 807889, "serialpos": 15, "key_press": -1, "wordID": 1043, "type": "PRES_VIS", "trial_index": 104}, "uniqueid": "MTK3447:3KIBXJ1WD61RWBKZFCBX5GVWM19OKX", "dateTime": 1520544752714}, {"current_trial": 105, "trialdata": {"rt": -1, "trial_type": "single-stim", "word": "scalpel", "stimulus": "<p id=\"stim\">SCALPEL</p>", "conditions": [24, 800, "v", 24000], "internal_node_id": "0.0-78.0", "trial": 2, "time_elapsed": 809672, "serialpos": 16, "key_press": -1, "wordID": 1242, "type": "PRES_VIS", "trial_index": 105}, "uniqueid": "MTK3447:3KIBXJ1WD61RWBKZFCBX5GVWM19OKX", "dateTime": 1520544754497}, {"current_trial": 106, "trialdata": {"rt": -1, "trial_type": "single-stim", "word": "scissors", "stimulus": "<p id=\"stim\">SCISSORS</p>", "conditions": [24, 800, "v", 24000], "internal_node_id": "0.0-79.0", "trial": 2, "time_elapsed": 811400, "serialpos": 17, "key_press": -1, "wordID": 1249, "type": "PRES_VIS", "trial_index": 106}, "uniqueid": "MTK3447:3KIBXJ1WD61RWBKZFCBX5GVWM19OKX", "dateTime": 1520544756226}, {"current_trial": 107, "trialdata": {"rt": -1, "trial_type": "single-stim", "word": "snack", "stimulus": "<p id=\"stim\">SNACK</p>", "conditions": [24, 800, "v", 24000], "internal_node_id": "0.0-80.0", "trial": 2, "time_elapsed": 813237, "serialpos": 18, "key_press": -1, "wordID": 1330, "type": "PRES_VIS", "trial_index": 107}, "uniqueid": "MTK3447:3KIBXJ1WD61RWBKZFCBX5GVWM19OKX", "dateTime": 1520544758063}, {"current_trial": 108, "trialdata": {"rt": -1, "trial_type": "single-stim", "word": "picture", "stimulus": "<p id=\"stim\">PICTURE</p>", "conditions": [24, 800, "v", 24000], "internal_node_id": "0.0-81.0", "trial": 2, "time_elapsed": 815237, "serialpos": 19, "key_press": -1, "wordID": 1060, "type": "PRES_VIS", "trial_index": 108}, "uniqueid": "MTK3447:3KIBXJ1WD61RWBKZFCBX5GVWM19OKX", "dateTime": 1520544760062}, {"current_trial": 109, "trialdata": {"rt": -1, "trial_type": "single-stim", "word": "cocoon", "stimulus": "<p id=\"stim\">COCOON</p>", "conditions": [24, 800, "v", 24000], "internal_node_id": "0.0-82.0", "trial": 2, "time_elapsed": 816927, "serialpos": 20, "key_press": -1, "wordID": 338, "type": "PRES_VIS", "trial_index": 109}, "uniqueid": "MTK3447:3KIBXJ1WD61RWBKZFCBX5GVWM19OKX", "dateTime": 1520544761752}, {"current_trial": 110, "trialdata": {"rt": -1, "trial_type": "single-stim", "word": "baby", "stimulus": "<p id=\"stim\">BABY</p>", "conditions": [24, 800, "v", 24000], "internal_node_id": "0.0-83.0", "trial": 2, "time_elapsed": 818648, "serialpos": 21, "key_press": -1, "wordID": 63, "type": "PRES_VIS", "trial_index": 110}, "uniqueid": "MTK3447:3KIBXJ1WD61RWBKZFCBX5GVWM19OKX", "dateTime": 1520544763473}, {"current_trial": 111, "trialdata": {"rt": -1, "trial_type": "single-stim", "word": "popcorn", "stimulus": "<p id=\"stim\">POPCORN</p>", "conditions": [24, 800, "v", 24000], "internal_node_id": "0.0-84.0", "trial": 2, "time_elapsed": 820523, "serialpos": 22, "key_press": -1, "wordID": 1103, "type": "PRES_VIS", "trial_index": 111}, "uniqueid": "MTK3447:3KIBXJ1WD61RWBKZFCBX5GVWM19OKX", "dateTime": 1520544765348}, {"current_trial": 112, "trialdata": {"rt": -1, "trial_type": "single-stim", "word": "banquet", "stimulus": "<p id=\"stim\">BANQUET</p>", "conditions": [24, 800, "v", 24000], "internal_node_id": "0.0-85.0", "trial": 2, "time_elapsed": 822430, "serialpos": 23, "key_press": -1, "wordID": 85, "type": "PRES_VIS", "trial_index": 112}, "uniqueid": "MTK3447:3KIBXJ1WD61RWBKZFCBX5GVWM19OKX", "dateTime": 1520544767256}, {"current_trial": 113, "trialdata": {"rt": -1, "trial_type": "single-stim", "stimulus": "", "internal_node_id": "0.0-86.0-0.0", "time_elapsed": 824663, "key_press": -1, "type": "PRE_RECALL_DELAY", "trial_index": 113}, "uniqueid": "MTK3447:3KIBXJ1WD61RWBKZFCBX5GVWM19OKX", "dateTime": 1520544769488}, {"current_trial": 114, "trialdata": {"rt": -1000, "trial_type": "single-audio", "stimulus": "/static/audio/400Hz.wav", "internal_node_id": "0.0-87.0", "time_elapsed": 825179, "key_press": -1, "type": "PRE_RECALL_ALERT", "trial_index": 114}, "uniqueid": "MTK3447:3KIBXJ1WD61RWBKZFCBX5GVWM19OKX", "dateTime": 1520544770004}, {"current_trial": 115, "trialdata": {"rt": [6770, 10019, 16178, 24234, 36674, 49842], "recwords": ["coccoon", "baby", "banquet", "picture", "fragrance", "perfume"], "key_times": [2235, 2915, 3643, 4523, 5171, 5387, 6243, 6770, 7451, 7875, 8339, 9203, 10019, 11099, 11587, 12819, 13563, 14051, 14683, 15483, 16178, 17099, 17539, 18179, 18811, 19787, 20363, 20730, 24234, 32419, 32722, 33115, 33739, 34099, 34547, 35043, 35547, 35979, 36674, 38836, 39859, 40114, 40874, 42770, 43451, 44195, 44843, 45851, 47587, 48643, 49842, 58035, 58483, 59811, 59986], "trial_type": "free-recall", "conditions": [24, 800, "v", 24000], "internal_node_id": "0.0-88.0-0.0", "key_presses": [67, 79, 67, 67, 79, 79, 78, 13, 66, 65, 66, 89, 13, 66, 65, 78, 81, 85, 69, 84, 13, 80, 73, 67, 84, 85, 82, 69, 13, 70, 82, 65, 71, 82, 65, 78, 67, 69, 13, 80, 69, 82, 71, 8, 70, 85, 78, 8, 77, 69, 13, 80, 73, 90, 90], "trial": 2, "time_elapsed": 885193, "type": "FREE_RECALL", "trial_index": 115}, "uniqueid": "MTK3447:3KIBXJ1WD61RWBKZFCBX5GVWM19OKX", "dateTime": 1520544830023}, {"current_trial": 116, "trialdata": {"rt": 3073, "trial_type": "text", "internal_node_id": "0.0-89.0", "time_elapsed": 890289, "key_press": 32, "type": "INSTRUCTIONS", "trial_index": 116}, "uniqueid": "MTK3447:3KIBXJ1WD61RWBKZFCBX5GVWM19OKX", "dateTime": 1520544835114}, {"current_trial": 117, "trialdata": {"rt": [4097, 10081], "trial_type": "math-distractor", "key_times": [2466, 2945, 4097, 7602, 8978, 10081], "responses": ["13", "13"], "num2": [2, 7, 5], "num3": [9, 3, 9], "conditions": [24, 800, "v", 12000], "internal_node_id": "0.0-90.0", "key_presses": [97, 99, 13, 97, 99, 13], "trial": 3, "time_elapsed": 904321, "type": "DISTRACTOR", "trial_index": 117, "num1": [2, 4, 8]}, "uniqueid": "MTK3447:3KIBXJ1WD61RWBKZFCBX5GVWM19OKX", "dateTime": 1520544849146}, {"current_trial": 118, "trialdata": {"rt": -1, "trial_type": "single-stim", "stimulus": "<p id=\"stim\">10</p>", "internal_node_id": "0.0-91.0-0.0", "time_elapsed": 907359, "key_press": -1, "trial_index": 118}, "uniqueid": "MTK3447:3KIBXJ1WD61RWBKZFCBX5GVWM19OKX", "dateTime": 1520544852184}, {"current_trial": 119, "trialdata": {"rt": -1, "trial_type": "single-stim", "stimulus": "<p id=\"stim\">9</p>", "internal_node_id": "0.0-91.0-1.0", "time_elapsed": 908367, "key_press": -1, "trial_index": 119}, "uniqueid": "MTK3447:3KIBXJ1WD61RWBKZFCBX5GVWM19OKX", "dateTime": 1520544853192}, {"current_trial": 120, "trialdata": {"rt": -1, "trial_type": "single-stim", "stimulus": "<p id=\"stim\">8</p>", "internal_node_id": "0.0-91.0-2.0", "time_elapsed": 909351, "key_press": -1, "trial_index": 120}, "uniqueid": "MTK3447:3KIBXJ1WD61RWBKZFCBX5GVWM19OKX", "dateTime": 1520544854177}, {"current_trial": 121, "trialdata": {"rt": -1, "trial_type": "single-stim", "stimulus": "<p id=\"stim\">7</p>", "internal_node_id": "0.0-91.0-3.0", "time_elapsed": 910351, "key_press": -1, "trial_index": 121}, "uniqueid": "MTK3447:3KIBXJ1WD61RWBKZFCBX5GVWM19OKX", "dateTime": 1520544855176}, {"current_trial": 122, "trialdata": {"rt": -1, "trial_type": "single-stim", "stimulus": "<p id=\"stim\">6</p>", "internal_node_id": "0.0-91.0-4.0", "time_elapsed": 911343, "key_press": -1, "trial_index": 122}, "uniqueid": "MTK3447:3KIBXJ1WD61RWBKZFCBX5GVWM19OKX", "dateTime": 1520544856168}, {"current_trial": 123, "trialdata": {"rt": -1, "trial_type": "single-stim", "stimulus": "<p id=\"stim\">5</p>", "internal_node_id": "0.0-91.0-5.0", "time_elapsed": 912351, "key_press": -1, "trial_index": 123}, "uniqueid": "MTK3447:3KIBXJ1WD61RWBKZFCBX5GVWM19OKX", "dateTime": 1520544857176}, {"current_trial": 124, "trialdata": {"rt": -1, "trial_type": "single-stim", "stimulus": "<p id=\"stim\">4</p>", "internal_node_id": "0.0-91.0-6.0", "time_elapsed": 913358, "key_press": -1, "trial_index": 124}, "uniqueid": "MTK3447:3KIBXJ1WD61RWBKZFCBX5GVWM19OKX", "dateTime": 1520544858183}, {"current_trial": 125, "trialdata": {"rt": -1, "trial_type": "single-stim", "stimulus": "<p id=\"stim\">3</p>", "internal_node_id": "0.0-91.0-7.0", "time_elapsed": 914350, "key_press": -1, "trial_index": 125}, "uniqueid": "MTK3447:3KIBXJ1WD61RWBKZFCBX5GVWM19OKX", "dateTime": 1520544859176}, {"current_trial": 126, "trialdata": {"rt": -1, "trial_type": "single-stim", "stimulus": "<p id=\"stim\">2</p>", "internal_node_id": "0.0-91.0-8.0", "time_elapsed": 915358, "key_press": -1, "trial_index": 126}, "uniqueid": "MTK3447:3KIBXJ1WD61RWBKZFCBX5GVWM19OKX", "dateTime": 1520544860183}, {"current_trial": 127, "trialdata": {"rt": -1, "trial_type": "single-stim", "stimulus": "<p id=\"stim\">1</p>", "internal_node_id": "0.0-91.0-9.0", "time_elapsed": 916355, "key_press": -1, "trial_index": 127}, "uniqueid": "MTK3447:3KIBXJ1WD61RWBKZFCBX5GVWM19OKX", "dateTime": 1520544861180}, {"current_trial": 128, "trialdata": {"rt": -1, "trial_type": "single-stim", "stimulus": "<p id=\"stim\">+</p>", "internal_node_id": "0.0-92.0-0.0", "time_elapsed": 917874, "key_press": -1, "type": "FIXATION", "trial_index": 128}, "uniqueid": "MTK3447:3KIBXJ1WD61RWBKZFCBX5GVWM19OKX", "dateTime": 1520544862699}, {"current_trial": 129, "trialdata": {"rt": -1, "trial_type": "single-stim", "word": "sandwich", "stimulus": "<p id=\"stim\">SANDWICH</p>", "conditions": [24, 800, "v", 12000], "internal_node_id": "0.0-93.0", "trial": 3, "time_elapsed": 918697, "serialpos": 0, "key_press": -1, "wordID": 1231, "type": "PRES_VIS", "trial_index": 129}, "uniqueid": "MTK3447:3KIBXJ1WD61RWBKZFCBX5GVWM19OKX", "dateTime": 1520544863522}, {"current_trial": 130, "trialdata": {"rt": -1, "trial_type": "single-stim", "word": "boyfriend", "stimulus": "<p id=\"stim\">BOYFRIEND</p>", "conditions": [24, 800, "v", 12000], "internal_node_id": "0.0-94.0", "trial": 3, "time_elapsed": 920514, "serialpos": 1, "key_press": -1, "wordID": 161, "type": "PRES_VIS", "trial_index": 130}, "uniqueid": "MTK3447:3KIBXJ1WD61RWBKZFCBX5GVWM19OKX", "dateTime": 1520544865340}, {"current_trial": 131, "trialdata": {"rt": -1, "trial_type": "single-stim", "word": "outfit", "stimulus": "<p id=\"stim\">OUTFIT</p>", "conditions": [24, 800, "v", 12000], "internal_node_id": "0.0-95.0", "trial": 3, "time_elapsed": 922469, "serialpos": 2, "key_press": -1, "wordID": 987, "type": "PRES_VIS", "trial_index": 131}, "uniqueid": "MTK3447:3KIBXJ1WD61RWBKZFCBX5GVWM19OKX", "dateTime": 1520544867294}, {"current_trial": 132, "trialdata": {"rt": -1, "trial_type": "single-stim", "word": "lace", "stimulus": "<p id=\"stim\">LACE</p>", "conditions": [24, 800, "v", 12000], "internal_node_id": "0.0-96.0", "trial": 3, "time_elapsed": 924112, "serialpos": 3, "key_press": -1, "wordID": 791, "type": "PRES_VIS", "trial_index": 132}, "uniqueid": "MTK3447:3KIBXJ1WD61RWBKZFCBX5GVWM19OKX", "dateTime": 1520544868937}, {"current_trial": 133, "trialdata": {"rt": -1, "trial_type": "single-stim", "word": "kidney", "stimulus": "<p id=\"stim\">KIDNEY</p>", "conditions": [24, 800, "v", 12000], "internal_node_id": "0.0-97.0", "trial": 3, "time_elapsed": 926084, "serialpos": 4, "key_press": -1, "wordID": 775, "type": "PRES_VIS", "trial_index": 133}, "uniqueid": "MTK3447:3KIBXJ1WD61RWBKZFCBX5GVWM19OKX", "dateTime": 1520544870909}, {"current_trial": 134, "trialdata": {"rt": -1, "trial_type": "single-stim", "word": "diner", "stimulus": "<p id=\"stim\">DINER</p>", "conditions": [24, 800, "v", 12000], "internal_node_id": "0.0-98.0", "trial": 3, "time_elapsed": 927749, "serialpos": 5, "key_press": -1, "wordID": 466, "type": "PRES_VIS", "trial_index": 134}, "uniqueid": "MTK3447:3KIBXJ1WD61RWBKZFCBX5GVWM19OKX", "dateTime": 1520544872574}, {"current_trial": 135, "trialdata": {"rt": -1, "trial_type": "single-stim", "word": "donor", "stimulus": "<p id=\"stim\">DONOR</p>", "conditions": [24, 800, "v", 12000], "internal_node_id": "0.0-99.0", "trial": 3, "time_elapsed": 929609, "serialpos": 6, "key_press": -1, "wordID": 484, "type": "PRES_VIS", "trial_index": 135}, "uniqueid": "MTK3447:3KIBXJ1WD61RWBKZFCBX5GVWM19OKX", "dateTime": 1520544874434}, {"current_trial": 136, "trialdata": {"rt": -1, "trial_type": "single-stim", "word": "harp", "stimulus": "<p id=\"stim\">HARP</p>", "conditions": [24, 800, "v", 12000], "internal_node_id": "0.0-100.0", "trial": 3, "time_elapsed": 931531, "serialpos": 7, "key_press": -1, "wordID": 688, "type": "PRES_VIS", "trial_index": 136}, "uniqueid": "MTK3447:3KIBXJ1WD61RWBKZFCBX5GVWM19OKX", "dateTime": 1520544876356}, {"current_trial": 137, "trialdata": {"rt": -1, "trial_type": "single-stim", "word": "trombone", "stimulus": "<p id=\"stim\">TROMBONE</p>", "conditions": [24, 800, "v", 12000], "internal_node_id": "0.0-101.0", "trial": 3, "time_elapsed": 933298, "serialpos": 8, "key_press": -1, "wordID": 1507, "type": "PRES_VIS", "trial_index": 137}, "uniqueid": "MTK3447:3KIBXJ1WD61RWBKZFCBX5GVWM19OKX", "dateTime": 1520544878124}, {"current_trial": 138, "trialdata": {"rt": -1, "trial_type": "single-stim", "word": "cafe", "stimulus": "<p id=\"stim\">CAFE</p>", "conditions": [24, 800, "v", 12000], "internal_node_id": "0.0-102.0", "trial": 3, "time_elapsed": 934988, "serialpos": 9, "key_press": -1, "wordID": 215, "type": "PRES_VIS", "trial_index": 138}, "uniqueid": "MTK3447:3KIBXJ1WD61RWBKZFCBX5GVWM19OKX", "dateTime": 1520544879813}, {"current_trial": 139, "trialdata": {"rt": -1, "trial_type": "single-stim", "word": "quarter", "stimulus": "<p id=\"stim\">QUARTER</p>", "conditions": [24, 800, "v", 12000], "internal_node_id": "0.0-103.0", "trial": 3, "time_elapsed": 936942, "serialpos": 10, "key_press": -1, "wordID": 1147, "type": "PRES_VIS", "trial_index": 139}, "uniqueid": "MTK3447:3KIBXJ1WD61RWBKZFCBX5GVWM19OKX", "dateTime": 1520544881768}, {"current_trial": 140, "trialdata": {"rt": -1, "trial_type": "single-stim", "word": "ozone", "stimulus": "<p id=\"stim\">OZONE</p>", "conditions": [24, 800, "v", 12000], "internal_node_id": "0.0-104.0", "trial": 3, "time_elapsed": 938817, "serialpos": 11, "key_press": -1, "wordID": 995, "type": "PRES_VIS", "trial_index": 140}, "uniqueid": "MTK3447:3KIBXJ1WD61RWBKZFCBX5GVWM19OKX", "dateTime": 1520544883642}, {"current_trial": 141, "trialdata": {"rt": -1, "trial_type": "single-stim", "word": "skirt", "stimulus": "<p id=\"stim\">SKIRT</p>", "conditions": [24, 800, "v", 12000], "internal_node_id": "0.0-105.0", "trial": 3, "time_elapsed": 940693, "serialpos": 12, "key_press": -1, "wordID": 1318, "type": "PRES_VIS", "trial_index": 141}, "uniqueid": "MTK3447:3KIBXJ1WD61RWBKZFCBX5GVWM19OKX", "dateTime": 1520544885518}, {"current_trial": 142, "trialdata": {"rt": -1, "trial_type": "single-stim", "word": "flag", "stimulus": "<p id=\"stim\">FLAG</p>", "conditions": [24, 800, "v", 12000], "internal_node_id": "0.0-106.0", "trial": 3, "time_elapsed": 942584, "serialpos": 13, "key_press": -1, "wordID": 572, "type": "PRES_VIS", "trial_index": 142}, "uniqueid": "MTK3447:3KIBXJ1WD61RWBKZFCBX5GVWM19OKX", "dateTime": 1520544887409}, {"current_trial": 143, "trialdata": {"rt": -1, "trial_type": "single-stim", "word": "shortcake", "stimulus": "<p id=\"stim\">SHORTCAKE</p>", "conditions": [24, 800, "v", 12000], "internal_node_id": "0.0-107.0", "trial": 3, "time_elapsed": 944323, "serialpos": 14, "key_press": -1, "wordID": 1291, "type": "PRES_VIS", "trial_index": 143}, "uniqueid": "MTK3447:3KIBXJ1WD61RWBKZFCBX5GVWM19OKX", "dateTime": 1520544889149}, {"current_trial": 144, "trialdata": {"rt": -1, "trial_type": "single-stim", "word": "cowboy", "stimulus": "<p id=\"stim\">COWBOY</p>", "conditions": [24, 800, "v", 12000], "internal_node_id": "0.0-108.0", "trial": 3, "time_elapsed": 946258, "serialpos": 15, "key_press": -1, "wordID": 394, "type": "PRES_VIS", "trial_index": 144}, "uniqueid": "MTK3447:3KIBXJ1WD61RWBKZFCBX5GVWM19OKX", "dateTime": 1520544891083}, {"current_trial": 145, "trialdata": {"rt": -1, "trial_type": "single-stim", "word": "scarecrow", "stimulus": "<p id=\"stim\">SCARECROW</p>", "conditions": [24, 800, "v", 12000], "internal_node_id": "0.0-109.0", "trial": 3, "time_elapsed": 947983, "serialpos": 16, "key_press": -1, "wordID": 1244, "type": "PRES_VIS", "trial_index": 145}, "uniqueid": "MTK3447:3KIBXJ1WD61RWBKZFCBX5GVWM19OKX", "dateTime": 1520544892808}, {"current_trial": 146, "trialdata": {"rt": -1, "trial_type": "single-stim", "word": "sunset", "stimulus": "<p id=\"stim\">SUNSET</p>", "conditions": [24, 800, "v", 12000], "internal_node_id": "0.0-110.0", "trial": 3, "time_elapsed": 949996, "serialpos": 17, "key_press": -1, "wordID": 1407, "type": "PRES_VIS", "trial_index": 146}, "uniqueid": "MTK3447:3KIBXJ1WD61RWBKZFCBX5GVWM19OKX", "dateTime": 1520544894821}, {"current_trial": 147, "trialdata": {"rt": -1, "trial_type": "single-stim", "word": "highway", "stimulus": "<p id=\"stim\">HIGHWAY</p>", "conditions": [24, 800, "v", 12000], "internal_node_id": "0.0-111.0", "trial": 3, "time_elapsed": 951949, "serialpos": 18, "key_press": -1, "wordID": 706, "type": "PRES_VIS", "trial_index": 147}, "uniqueid": "MTK3447:3KIBXJ1WD61RWBKZFCBX5GVWM19OKX", "dateTime": 1520544896774}, {"current_trial": 148, "trialdata": {"rt": -1, "trial_type": "single-stim", "word": "cabbage", "stimulus": "<p id=\"stim\">CABBAGE</p>", "conditions": [24, 800, "v", 12000], "internal_node_id": "0.0-112.0", "trial": 3, "time_elapsed": 953870, "serialpos": 19, "key_press": -1, "wordID": 209, "type": "PRES_VIS", "trial_index": 148}, "uniqueid": "MTK3447:3KIBXJ1WD61RWBKZFCBX5GVWM19OKX", "dateTime": 1520544898695}, {"current_trial": 149, "trialdata": {"rt": -1, "trial_type": "single-stim", "word": "custard", "stimulus": "<p id=\"stim\">CUSTARD</p>", "conditions": [24, 800, "v", 12000], "internal_node_id": "0.0-113.0", "trial": 3, "time_elapsed": 955669, "serialpos": 20, "key_press": -1, "wordID": 428, "type": "PRES_VIS", "trial_index": 149}, "uniqueid": "MTK3447:3KIBXJ1WD61RWBKZFCBX5GVWM19OKX", "dateTime": 1520544900495}, {"current_trial": 150, "trialdata": {"rt": -1, "trial_type": "single-stim", "word": "mailbox", "stimulus": "<p id=\"stim\">MAILBOX</p>", "conditions": [24, 800, "v", 12000], "internal_node_id": "0.0-114.0", "trial": 3, "time_elapsed": 957421, "serialpos": 21, "key_press": -1, "wordID": 856, "type": "PRES_VIS", "trial_index": 150}, "uniqueid": "MTK3447:3KIBXJ1WD61RWBKZFCBX5GVWM19OKX", "dateTime": 1520544902246}, {"current_trial": 151, "trialdata": {"rt": -1, "trial_type": "single-stim", "word": "parsley", "stimulus": "<p id=\"stim\">PARSLEY</p>", "conditions": [24, 800, "v", 12000], "internal_node_id": "0.0-115.0", "trial": 3, "time_elapsed": 959069, "serialpos": 22, "key_press": -1, "wordID": 1015, "type": "PRES_VIS", "trial_index": 151}, "uniqueid": "MTK3447:3KIBXJ1WD61RWBKZFCBX5GVWM19OKX", "dateTime": 1520544903894}, {"current_trial": 152, "trialdata": {"rt": -1, "trial_type": "single-stim", "word": "pepper", "stimulus": "<p id=\"stim\">PEPPER</p>", "conditions": [24, 800, "v", 12000], "internal_node_id": "0.0-116.0", "trial": 3, "time_elapsed": 960862, "serialpos": 23, "key_press": -1, "wordID": 1046, "type": "PRES_VIS", "trial_index": 152}, "uniqueid": "MTK3447:3KIBXJ1WD61RWBKZFCBX5GVWM19OKX", "dateTime": 1520544905688}, {"current_trial": 153, "trialdata": {"rt": -1, "trial_type": "single-stim", "stimulus": "", "internal_node_id": "0.0-117.0-0.0", "time_elapsed": 962924, "key_press": -1, "type": "PRE_RECALL_DELAY", "trial_index": 153}, "uniqueid": "MTK3447:3KIBXJ1WD61RWBKZFCBX5GVWM19OKX", "dateTime": 1520544907750}, {"current_trial": 154, "trialdata": {"rt": -1000, "trial_type": "single-audio", "stimulus": "/static/audio/400Hz.wav", "internal_node_id": "0.0-118.0", "time_elapsed": 963450, "key_press": -1, "type": "PRE_RECALL_ALERT", "trial_index": 154}, "uniqueid": "MTK3447:3KIBXJ1WD61RWBKZFCBX5GVWM19OKX", "dateTime": 1520544908275}, {"current_trial": 155, "trialdata": {"rt": [5715, 14547, 26163, 32835], "recwords": ["parsley", "pepper", "bqyfriend", "cowboy"], "key_times": [1012, 1555, 2348, 2836, 3403, 4131, 5107, 5715, 6739, 7491, 11571, 11787, 12507, 12963, 14547, 17323, 18612, 19427, 20387, 20763, 21587, 22427, 23227, 24371, 24931, 25467, 26163, 26979, 28027, 28523, 29219, 31019, 31891, 32835], "trial_type": "free-recall", "conditions": [24, 800, "v", 12000], "internal_node_id": "0.0-119.0-0.0", "key_presses": [80, 65, 82, 83, 76, 69, 89, 13, 80, 69, 80, 80, 69, 82, 13, 66, 81, 89, 70, 82, 73, 69, 77, 8, 78, 68, 13, 67, 79, 87, 66, 79, 89, 13], "trial": 3, "time_elapsed": 1023476, "type": "FREE_RECALL", "trial_index": 155}, "uniqueid": "MTK3447:3KIBXJ1WD61RWBKZFCBX5GVWM19OKX", "dateTime": 1520544968307}, {"current_trial": 156, "trialdata": {"rt": 3240, "trial_type": "text", "internal_node_id": "0.0-120.0", "time_elapsed": 1028737, "key_press": 32, "type": "INSTRUCTIONS", "trial_index": 156}, "uniqueid": "MTK3447:3KIBXJ1WD61RWBKZFCBX5GVWM19OKX", "dateTime": 1520544973562}, {"current_trial": 157, "trialdata": {"rt": [3854, 8286, 12230, 15118, 19486, 23558], "trial_type": "math-distractor", "key_times": [2822, 3294, 3854, 6399, 6918, 8286, 10734, 11438, 12230, 13854, 14366, 15118, 16966, 17846, 19486, 22590, 22838, 23558], "responses": ["17", "17", "14", "10", "18", "22"], "num2": [5, 1, 5, 1, 1, 8, 2], "num3": [8, 9, 3, 8, 8, 7, 5], "conditions": [12, 800, "v", 24000], "internal_node_id": "0.0-121.0", "key_presses": [97, 103, 13, 97, 103, 13, 97, 100, 13, 97, 96, 13, 97, 104, 13, 98, 98, 13], "trial": 4, "time_elapsed": 1054782, "type": "DISTRACTOR", "trial_index": 157, "num1": [4, 3, 6, 1, 9, 7, 8]}, "uniqueid": "MTK3447:3KIBXJ1WD61RWBKZFCBX5GVWM19OKX", "dateTime": 1520544999607}, {"current_trial": 158, "trialdata": {"rt": -1, "trial_type": "single-stim", "stimulus": "<p id=\"stim\">10</p>", "internal_node_id": "0.0-122.0-0.0", "time_elapsed": 1057820, "key_press": -1, "trial_index": 158}, "uniqueid": "MTK3447:3KIBXJ1WD61RWBKZFCBX5GVWM19OKX", "dateTime": 1520545002645}, {"current_trial": 159, "trialdata": {"rt": -1, "trial_type": "single-stim", "stimulus": "<p id=\"stim\">9</p>", "internal_node_id": "0.0-122.0-1.0", "time_elapsed": 1058811, "key_press": -1, "trial_index": 159}, "uniqueid": "MTK3447:3KIBXJ1WD61RWBKZFCBX5GVWM19OKX", "dateTime": 1520545003637}, {"current_trial": 160, "trialdata": {"rt": -1, "trial_type": "single-stim", "stimulus": "<p id=\"stim\">8</p>", "internal_node_id": "0.0-122.0-2.0", "time_elapsed": 1059804, "key_press": -1, "trial_index": 160}, "uniqueid": "MTK3447:3KIBXJ1WD61RWBKZFCBX5GVWM19OKX", "dateTime": 1520545004629}, {"current_trial": 161, "trialdata": {"rt": -1, "trial_type": "single-stim", "stimulus": "<p id=\"stim\">7</p>", "internal_node_id": "0.0-122.0-3.0", "time_elapsed": 1060827, "key_press": -1, "trial_index": 161}, "uniqueid": "MTK3447:3KIBXJ1WD61RWBKZFCBX5GVWM19OKX", "dateTime": 1520545005652}, {"current_trial": 162, "trialdata": {"rt": -1, "trial_type": "single-stim", "stimulus": "<p id=\"stim\">6</p>", "internal_node_id": "0.0-122.0-4.0", "time_elapsed": 1061818, "key_press": -1, "trial_index": 162}, "uniqueid": "MTK3447:3KIBXJ1WD61RWBKZFCBX5GVWM19OKX", "dateTime": 1520545006643}, {"current_trial": 163, "trialdata": {"rt": -1, "trial_type": "single-stim", "stimulus": "<p id=\"stim\">5</p>", "internal_node_id": "0.0-122.0-5.0", "time_elapsed": 1062811, "key_press": -1, "trial_index": 163}, "uniqueid": "MTK3447:3KIBXJ1WD61RWBKZFCBX5GVWM19OKX", "dateTime": 1520545007636}, {"current_trial": 164, "trialdata": {"rt": -1, "trial_type": "single-stim", "stimulus": "<p id=\"stim\">4</p>", "internal_node_id": "0.0-122.0-6.0", "time_elapsed": 1063819, "key_press": -1, "trial_index": 164}, "uniqueid": "MTK3447:3KIBXJ1WD61RWBKZFCBX5GVWM19OKX", "dateTime": 1520545008644}, {"current_trial": 165, "trialdata": {"rt": -1, "trial_type": "single-stim", "stimulus": "<p id=\"stim\">3</p>", "internal_node_id": "0.0-122.0-7.0", "time_elapsed": 1064811, "key_press": -1, "trial_index": 165}, "uniqueid": "MTK3447:3KIBXJ1WD61RWBKZFCBX5GVWM19OKX", "dateTime": 1520545009636}, {"current_trial": 166, "trialdata": {"rt": -1, "trial_type": "single-stim", "stimulus": "<p id=\"stim\">2</p>", "internal_node_id": "0.0-122.0-8.0", "time_elapsed": 1065818, "key_press": -1, "trial_index": 166}, "uniqueid": "MTK3447:3KIBXJ1WD61RWBKZFCBX5GVWM19OKX", "dateTime": 1520545010644}, {"current_trial": 167, "trialdata": {"rt": -1, "trial_type": "single-stim", "stimulus": "<p id=\"stim\">1</p>", "internal_node_id": "0.0-122.0-9.0", "time_elapsed": 1066810, "key_press": -1, "trial_index": 167}, "uniqueid": "MTK3447:3KIBXJ1WD61RWBKZFCBX5GVWM19OKX", "dateTime": 1520545011636}, {"current_trial": 168, "trialdata": {"rt": -1, "trial_type": "single-stim", "stimulus": "<p id=\"stim\">+</p>", "internal_node_id": "0.0-123.0-0.0", "time_elapsed": 1068336, "key_press": -1, "type": "FIXATION", "trial_index": 168}, "uniqueid": "MTK3447:3KIBXJ1WD61RWBKZFCBX5GVWM19OKX", "dateTime": 1520545013161}, {"current_trial": 169, "trialdata": {"rt": -1, "trial_type": "single-stim", "word": "blouse", "stimulus": "<p id=\"stim\">BLOUSE</p>", "conditions": [12, 800, "v", 24000], "internal_node_id": "0.0-124.0", "trial": 4, "time_elapsed": 1069158, "serialpos": 0, "key_press": -1, "wordID": 138, "type": "PRES_VIS", "trial_index": 169}, "uniqueid": "MTK3447:3KIBXJ1WD61RWBKZFCBX5GVWM19OKX", "dateTime": 1520545013983}, {"current_trial": 170, "trialdata": {"rt": -1, "trial_type": "single-stim", "word": "nomad", "stimulus": "<p id=\"stim\">NOMAD</p>", "conditions": [12, 800, "v", 24000], "internal_node_id": "0.0-125.0", "trial": 4, "time_elapsed": 1071189, "serialpos": 1, "key_press": -1, "wordID": 954, "type": "PRES_VIS", "trial_index": 170}, "uniqueid": "MTK3447:3KIBXJ1WD61RWBKZFCBX5GVWM19OKX", "dateTime": 1520545016014}, {"current_trial": 171, "trialdata": {"rt": -1, "trial_type": "single-stim", "word": "tortoise", "stimulus": "<p id=\"stim\">TORTOISE</p>", "conditions": [12, 800, "v", 24000], "internal_node_id": "0.0-126.0", "trial": 4, "time_elapsed": 1072832, "serialpos": 2, "key_press": -1, "wordID": 1485, "type": "PRES_VIS", "trial_index": 171}, "uniqueid": "MTK3447:3KIBXJ1WD61RWBKZFCBX5GVWM19OKX", "dateTime": 1520545017657}, {"current_trial": 172, "trialdata": {"rt": -1, "trial_type": "single-stim", "word": "wagon", "stimulus": "<p id=\"stim\">WAGON</p>", "conditions": [12, 800, "v", 24000], "internal_node_id": "0.0-127.0", "trial": 4, "time_elapsed": 1074754, "serialpos": 3, "key_press": -1, "wordID": 1577, "type": "PRES_VIS", "trial_index": 172}, "uniqueid": "MTK3447:3KIBXJ1WD61RWBKZFCBX5GVWM19OKX", "dateTime": 1520545019579}, {"current_trial": 173, "trialdata": {"rt": -1, "trial_type": "single-stim", "word": "dashboard", "stimulus": "<p id=\"stim\">DASHBOARD</p>", "conditions": [12, 800, "v", 24000], "internal_node_id": "0.0-128.0", "trial": 4, "time_elapsed": 1076521, "serialpos": 4, "key_press": -1, "wordID": 440, "type": "PRES_VIS", "trial_index": 173}, "uniqueid": "MTK3447:3KIBXJ1WD61RWBKZFCBX5GVWM19OKX", "dateTime": 1520545021346}, {"current_trial": 174, "trialdata": {"rt": -1, "trial_type": "single-stim", "word": "chauffeur", "stimulus": "<p id=\"stim\">CHAUFFEUR</p>", "conditions": [12, 800, "v", 24000], "internal_node_id": "0.0-129.0", "trial": 4, "time_elapsed": 1078412, "serialpos": 5, "key_press": -1, "wordID": 282, "type": "PRES_VIS", "trial_index": 174}, "uniqueid": "MTK3447:3KIBXJ1WD61RWBKZFCBX5GVWM19OKX", "dateTime": 1520545023238}, {"current_trial": 175, "trialdata": {"rt": -1, "trial_type": "single-stim", "word": "brook", "stimulus": "<p id=\"stim\">BROOK</p>", "conditions": [12, 800, "v", 24000], "internal_node_id": "0.0-130.0", "trial": 4, "time_elapsed": 1080304, "serialpos": 6, "key_press": -1, "wordID": 176, "type": "PRES_VIS", "trial_index": 175}, "uniqueid": "MTK3447:3KIBXJ1WD61RWBKZFCBX5GVWM19OKX", "dateTime": 1520545025129}, {"current_trial": 176, "trialdata": {"rt": -1, "trial_type": "single-stim", "word": "nightgown", "stimulus": "<p id=\"stim\">NIGHTGOWN</p>", "conditions": [12, 800, "v", 24000], "internal_node_id": "0.0-131.0", "trial": 4, "time_elapsed": 1081978, "serialpos": 7, "key_press": -1, "wordID": 952, "type": "PRES_VIS", "trial_index": 176}, "uniqueid": "MTK3447:3KIBXJ1WD61RWBKZFCBX5GVWM19OKX", "dateTime": 1520545026803}, {"current_trial": 177, "trialdata": {"rt": -1, "trial_type": "single-stim", "word": "denim", "stimulus": "<p id=\"stim\">DENIM</p>", "conditions": [12, 800, "v", 24000], "internal_node_id": "0.0-132.0", "trial": 4, "time_elapsed": 1083993, "serialpos": 8, "key_press": -1, "wordID": 445, "type": "PRES_VIS", "trial_index": 177}, "uniqueid": "MTK3447:3KIBXJ1WD61RWBKZFCBX5GVWM19OKX", "dateTime": 1520545028818}, {"current_trial": 178, "trialdata": {"rt": -1, "trial_type": "single-stim", "word": "europe", "stimulus": "<p id=\"stim\">EUROPE</p>", "conditions": [12, 800, "v", 24000], "internal_node_id": "0.0-133.0", "trial": 4, "time_elapsed": 1085946, "serialpos": 9, "key_press": -1, "wordID": 540, "type": "PRES_VIS", "trial_index": 178}, "uniqueid": "MTK3447:3KIBXJ1WD61RWBKZFCBX5GVWM19OKX", "dateTime": 1520545030772}, {"current_trial": 179, "trialdata": {"rt": -1, "trial_type": "single-stim", "word": "japan", "stimulus": "<p id=\"stim\">JAPAN</p>", "conditions": [12, 800, "v", 24000], "internal_node_id": "0.0-134.0", "trial": 4, "time_elapsed": 1087776, "serialpos": 10, "key_press": -1, "wordID": 748, "type": "PRES_VIS", "trial_index": 179}, "uniqueid": "MTK3447:3KIBXJ1WD61RWBKZFCBX5GVWM19OKX", "dateTime": 1520545032601}, {"current_trial": 180, "trialdata": {"rt": -1, "trial_type": "single-stim", "word": "outlaw", "stimulus": "<p id=\"stim\">OUTLAW</p>", "conditions": [12, 800, "v", 24000], "internal_node_id": "0.0-135.0", "trial": 4, "time_elapsed": 1089698, "serialpos": 11, "key_press": -1, "wordID": 988, "type": "PRES_VIS", "trial_index": 180}, "uniqueid": "MTK3447:3KIBXJ1WD61RWBKZFCBX5GVWM19OKX", "dateTime": 1520545034523}, {"current_trial": 181, "trialdata": {"rt": -1, "trial_type": "single-stim", "stimulus": "", "internal_node_id": "0.0-136.0-0.0", "time_elapsed": 1092008, "key_press": -1, "type": "PRE_RECALL_DELAY", "trial_index": 181}, "uniqueid": "MTK3447:3KIBXJ1WD61RWBKZFCBX5GVWM19OKX", "dateTime": 1520545036833}, {"current_trial": 182, "trialdata": {"rt": -1000, "trial_type": "single-audio", "stimulus": "/static/audio/400Hz.wav", "internal_node_id": "0.0-137.0", "time_elapsed": 1092524, "key_press": -1, "type": "PRE_RECALL_ALERT", "trial_index": 182}, "uniqueid": "MTK3447:3KIBXJ1WD61RWBKZFCBX5GVWM19OKX", "dateTime": 1520545037350}, {"current_trial": 183, "trialdata": {"rt": [8601, 12057, 17617, 23433, 33529], "recwords": ["europe", "japan", "outlaw", "blouse", "chauffer"], "key_times": [5258, 5913, 6425, 7073, 7337, 7937, 8601, 9433, 9841, 10337, 10673, 11033, 12057, 13865, 14481, 15129, 16017, 16442, 16985, 17617, 18377, 19137, 19441, 20209, 20858, 21233, 23433, 28161, 29113, 29785, 30697, 31281, 31505, 31985, 32273, 33529], "trial_type": "free-recall", "conditions": [12, 800, "v", 24000], "internal_node_id": "0.0-138.0-0.0", "key_presses": [69, 85, 82, 79, 80, 69, 13, 74, 65, 80, 65, 78, 13, 79, 85, 84, 76, 65, 87, 13, 66, 76, 79, 85, 83, 69, 13, 67, 72, 65, 85, 70, 70, 69, 82, 13], "trial": 4, "time_elapsed": 1152542, "type": "FREE_RECALL", "trial_index": 183}, "uniqueid": "MTK3447:3KIBXJ1WD61RWBKZFCBX5GVWM19OKX", "dateTime": 1520545097372}, {"current_trial": 184, "trialdata": {"rt": 9436, "trial_type": "text", "internal_node_id": "0.0-139.0", "time_elapsed": 1164009, "key_press": 32, "type": "INSTRUCTIONS", "trial_index": 184}, "uniqueid": "MTK3447:3KIBXJ1WD61RWBKZFCBX5GVWM19OKX", "dateTime": 1520545108834}, {"current_trial": 185, "trialdata": {"rt": [3726, 7790], "trial_type": "math-distractor", "key_times": [1854, 2334, 3726, 5766, 6750, 7790, 11094, 11614], "responses": ["15", "13"], "num2": [5, 7, 8], "num3": [4, 4, 5], "conditions": [12, 1600, "v", 12000], "internal_node_id": "0.0-140.0", "key_presses": [97, 101, 13, 97, 99, 13, 97, 102], "trial": 5, "time_elapsed": 1178054, "type": "DISTRACTOR", "trial_index": 185, "num1": [6, 2, 3]}, "uniqueid": "MTK3447:3KIBXJ1WD61RWBKZFCBX5GVWM19OKX", "dateTime": 1520545122880}, {"current_trial": 186, "trialdata": {"rt": -1, "trial_type": "single-stim", "stimulus": "<p id=\"stim\">10</p>", "internal_node_id": "0.0-141.0-0.0", "time_elapsed": 1181089, "key_press": -1, "trial_index": 186}, "uniqueid": "MTK3447:3KIBXJ1WD61RWBKZFCBX5GVWM19OKX", "dateTime": 1520545125914}, {"current_trial": 187, "trialdata": {"rt": -1, "trial_type": "single-stim", "stimulus": "<p id=\"stim\">9</p>", "internal_node_id": "0.0-141.0-1.0", "time_elapsed": 1182097, "key_press": -1, "trial_index": 187}, "uniqueid": "MTK3447:3KIBXJ1WD61RWBKZFCBX5GVWM19OKX", "dateTime": 1520545126922}, {"current_trial": 188, "trialdata": {"rt": -1, "trial_type": "single-stim", "stimulus": "<p id=\"stim\">8</p>", "internal_node_id": "0.0-141.0-2.0", "time_elapsed": 1183078, "key_press": -1, "trial_index": 188}, "uniqueid": "MTK3447:3KIBXJ1WD61RWBKZFCBX5GVWM19OKX", "dateTime": 1520545127903}, {"current_trial": 189, "trialdata": {"rt": -1, "trial_type": "single-stim", "stimulus": "<p id=\"stim\">7</p>", "internal_node_id": "0.0-141.0-3.0", "time_elapsed": 1184094, "key_press": -1, "trial_index": 189}, "uniqueid": "MTK3447:3KIBXJ1WD61RWBKZFCBX5GVWM19OKX", "dateTime": 1520545128920}, {"current_trial": 190, "trialdata": {"rt": -1, "trial_type": "single-stim", "stimulus": "<p id=\"stim\">6</p>", "internal_node_id": "0.0-141.0-4.0", "time_elapsed": 1185087, "key_press": -1, "trial_index": 190}, "uniqueid": "MTK3447:3KIBXJ1WD61RWBKZFCBX5GVWM19OKX", "dateTime": 1520545129912}, {"current_trial": 191, "trialdata": {"rt": -1, "trial_type": "single-stim", "stimulus": "<p id=\"stim\">5</p>", "internal_node_id": "0.0-141.0-5.0", "time_elapsed": 1186080, "key_press": -1, "trial_index": 191}, "uniqueid": "MTK3447:3KIBXJ1WD61RWBKZFCBX5GVWM19OKX", "dateTime": 1520545130905}, {"current_trial": 192, "trialdata": {"rt": -1, "trial_type": "single-stim", "stimulus": "<p id=\"stim\">4</p>", "internal_node_id": "0.0-141.0-6.0", "time_elapsed": 1187086, "key_press": -1, "trial_index": 192}, "uniqueid": "MTK3447:3KIBXJ1WD61RWBKZFCBX5GVWM19OKX", "dateTime": 1520545131912}, {"current_trial": 193, "trialdata": {"rt": -1, "trial_type": "single-stim", "stimulus": "<p id=\"stim\">3</p>", "internal_node_id": "0.0-141.0-7.0", "time_elapsed": 1188094, "key_press": -1, "trial_index": 193}, "uniqueid": "MTK3447:3KIBXJ1WD61RWBKZFCBX5GVWM19OKX", "dateTime": 1520545132919}, {"current_trial": 194, "trialdata": {"rt": -1, "trial_type": "single-stim", "stimulus": "<p id=\"stim\">2</p>", "internal_node_id": "0.0-141.0-8.0", "time_elapsed": 1189086, "key_press": -1, "trial_index": 194}, "uniqueid": "MTK3447:3KIBXJ1WD61RWBKZFCBX5GVWM19OKX", "dateTime": 1520545133911}, {"current_trial": 195, "trialdata": {"rt": -1, "trial_type": "single-stim", "stimulus": "<p id=\"stim\">1</p>", "internal_node_id": "0.0-141.0-9.0", "time_elapsed": 1190080, "key_press": -1, "trial_index": 195}, "uniqueid": "MTK3447:3KIBXJ1WD61RWBKZFCBX5GVWM19OKX", "dateTime": 1520545134906}, {"current_trial": 196, "trialdata": {"rt": -1, "trial_type": "single-stim", "stimulus": "<p id=\"stim\">+</p>", "internal_node_id": "0.0-142.0-0.0", "time_elapsed": 1191597, "key_press": -1, "type": "FIXATION", "trial_index": 196}, "uniqueid": "MTK3447:3KIBXJ1WD61RWBKZFCBX5GVWM19OKX", "dateTime": 1520545136423}, {"current_trial": 197, "trialdata": {"rt": -1, "trial_type": "single-stim", "word": "marsh", "stimulus": "<p id=\"stim\">MARSH</p>", "conditions": [12, 1600, "v", 12000], "internal_node_id": "0.0-143.0", "trial": 5, "time_elapsed": 1193225, "serialpos": 0, "key_press": -1, "wordID": 873, "type": "PRES_VIS", "trial_index": 197}, "uniqueid": "MTK3447:3KIBXJ1WD61RWBKZFCBX5GVWM19OKX", "dateTime": 1520545138050}, {"current_trial": 198, "trialdata": {"rt": -1, "trial_type": "single-stim", "word": "cashew", "stimulus": "<p id=\"stim\">CASHEW</p>", "conditions": [12, 1600, "v", 12000], "internal_node_id": "0.0-144.0", "trial": 5, "time_elapsed": 1196031, "serialpos": 1, "key_press": -1, "wordID": 252, "type": "PRES_VIS", "trial_index": 198}, "uniqueid": "MTK3447:3KIBXJ1WD61RWBKZFCBX5GVWM19OKX", "dateTime": 1520545140856}, {"current_trial": 199, "trialdata": {"rt": -1, "trial_type": "single-stim", "word": "bucket", "stimulus": "<p id=\"stim\">BUCKET</p>", "conditions": [12, 1600, "v", 12000], "internal_node_id": "0.0-145.0", "trial": 5, "time_elapsed": 1198744, "serialpos": 2, "key_press": -1, "wordID": 183, "type": "PRES_VIS", "trial_index": 199}, "uniqueid": "MTK3447:3KIBXJ1WD61RWBKZFCBX5GVWM19OKX", "dateTime": 1520545143569}, {"current_trial": 200, "trialdata": {"rt": -1, "trial_type": "single-stim", "word": "chemist", "stimulus": "<p id=\"stim\">CHEMIST</p>", "conditions": [12, 1600, "v", 12000], "internal_node_id": "0.0-146.0", "trial": 5, "time_elapsed": 1201555, "serialpos": 3, "key_press": -1, "wordID": 291, "type": "PRES_VIS", "trial_index": 200}, "uniqueid": "MTK3447:3KIBXJ1WD61RWBKZFCBX5GVWM19OKX", "dateTime": 1520545146380}, {"current_trial": 201, "trialdata": {"rt": -1, "trial_type": "single-stim", "word": "swimmer", "stimulus": "<p id=\"stim\">SWIMMER</p>", "conditions": [12, 1600, "v", 12000], "internal_node_id": "0.0-147.0", "trial": 5, "time_elapsed": 1204154, "serialpos": 4, "key_press": -1, "wordID": 1419, "type": "PRES_VIS", "trial_index": 201}, "uniqueid": "MTK3447:3KIBXJ1WD61RWBKZFCBX5GVWM19OKX", "dateTime": 1520545148980}, {"current_trial": 202, "trialdata": {"rt": -1, "trial_type": "single-stim", "word": "turtle", "stimulus": "<p id=\"stim\">TURTLE</p>", "conditions": [12, 1600, "v", 12000], "internal_node_id": "0.0-148.0", "trial": 5, "time_elapsed": 1206603, "serialpos": 5, "key_press": -1, "wordID": 1521, "type": "PRES_VIS", "trial_index": 202}, "uniqueid": "MTK3447:3KIBXJ1WD61RWBKZFCBX5GVWM19OKX", "dateTime": 1520545151429}, {"current_trial": 203, "trialdata": {"rt": -1, "trial_type": "single-stim", "word": "dolphin", "stimulus": "<p id=\"stim\">DOLPHIN</p>", "conditions": [12, 1600, "v", 12000], "internal_node_id": "0.0-149.0", "trial": 5, "time_elapsed": 1209192, "serialpos": 6, "key_press": -1, "wordID": 482, "type": "PRES_VIS", "trial_index": 203}, "uniqueid": "MTK3447:3KIBXJ1WD61RWBKZFCBX5GVWM19OKX", "dateTime": 1520545154017}, {"current_trial": 204, "trialdata": {"rt": -1, "trial_type": "single-stim", "word": "padding", "stimulus": "<p id=\"stim\">PADDING</p>", "conditions": [12, 1600, "v", 12000], "internal_node_id": "0.0-150.0", "trial": 5, "time_elapsed": 1211827, "serialpos": 7, "key_press": -1, "wordID": 998, "type": "PRES_VIS", "trial_index": 204}, "uniqueid": "MTK3447:3KIBXJ1WD61RWBKZFCBX5GVWM19OKX", "dateTime": 1520545156653}, {"current_trial": 205, "trialdata": {"rt": -1, "trial_type": "single-stim", "word": "gymnast", "stimulus": "<p id=\"stim\">GYMNAST</p>", "conditions": [12, 1600, "v", 12000], "internal_node_id": "0.0-151.0", "trial": 5, "time_elapsed": 1214494, "serialpos": 8, "key_press": -1, "wordID": 674, "type": "PRES_VIS", "trial_index": 205}, "uniqueid": "MTK3447:3KIBXJ1WD61RWBKZFCBX5GVWM19OKX", "dateTime": 1520545159319}, {"current_trial": 206, "trialdata": {"rt": -1, "trial_type": "single-stim", "word": "concert", "stimulus": "<p id=\"stim\">CONCERT</p>", "conditions": [12, 1600, "v", 12000], "internal_node_id": "0.0-152.0", "trial": 5, "time_elapsed": 1217160, "serialpos": 9, "key_press": -1, "wordID": 359, "type": "PRES_VIS", "trial_index": 206}, "uniqueid": "MTK3447:3KIBXJ1WD61RWBKZFCBX5GVWM19OKX", "dateTime": 1520545161985}, {"current_trial": 207, "trialdata": {"rt": -1, "trial_type": "single-stim", "word": "summit", "stimulus": "<p id=\"stim\">SUMMIT</p>", "conditions": [12, 1600, "v", 12000], "internal_node_id": "0.0-153.0", "trial": 5, "time_elapsed": 1219599, "serialpos": 10, "key_press": -1, "wordID": 1404, "type": "PRES_VIS", "trial_index": 207}, "uniqueid": "MTK3447:3KIBXJ1WD61RWBKZFCBX5GVWM19OKX", "dateTime": 1520545164424}, {"current_trial": 208, "trialdata": {"rt": -1, "trial_type": "single-stim", "word": "fungus", "stimulus": "<p id=\"stim\">FUNGUS</p>", "conditions": [12, 1600, "v", 12000], "internal_node_id": "0.0-154.0", "trial": 5, "time_elapsed": 1222215, "serialpos": 11, "key_press": -1, "wordID": 613, "type": "PRES_VIS", "trial_index": 208}, "uniqueid": "MTK3447:3KIBXJ1WD61RWBKZFCBX5GVWM19OKX", "dateTime": 1520545167040}, {"current_trial": 209, "trialdata": {"rt": -1, "trial_type": "single-stim", "stimulus": "", "internal_node_id": "0.0-155.0-0.0", "time_elapsed": 1224570, "key_press": -1, "type": "PRE_RECALL_DELAY", "trial_index": 209}, "uniqueid": "MTK3447:3KIBXJ1WD61RWBKZFCBX5GVWM19OKX", "dateTime": 1520545169395}, {"current_trial": 210, "trialdata": {"rt": -1000, "trial_type": "single-audio", "stimulus": "/static/audio/400Hz.wav", "internal_node_id": "0.0-156.0", "time_elapsed": 1225097, "key_press": -1, "type": "PRE_RECALL_ALERT", "trial_index": 210}, "uniqueid": "MTK3447:3KIBXJ1WD61RWBKZFCBX5GVWM19OKX", "dateTime": 1520545169923}, {"current_trial": 211, "trialdata": {"rt": [7644, 14700, 26188, 31276, 42452, 43932], "recwords": ["fungus", "gymnist", "dolphin", "turtle", "swimm", "er"], "key_times": [2516, 4252, 4836, 5428, 6492, 7109, 7644, 8796, 10276, 10996, 12092, 12572, 13196, 13644, 14700, 20428, 21084, 21460, 23276, 23828, 24572, 25012, 26188, 27068, 27868, 28420, 28764, 29724, 30220, 31276, 34396, 34940, 35484, 35988, 36212, 37636, 38004, 38332, 40124, 40420, 40660, 40868, 42436, 42452, 43076, 43340, 43932], "trial_type": "free-recall", "conditions": [12, 1600, "v", 12000], "internal_node_id": "0.0-157.0-0.0", "key_presses": [70, 85, 78, 71, 85, 83, 13, 71, 89, 77, 78, 73, 83, 84, 13, 68, 79, 76, 80, 72, 73, 78, 13, 84, 85, 82, 84, 76, 69, 13, 83, 87, 73, 77, 77, 77, 69, 82, 8, 8, 8, 8, 77, 188, 69, 82, 13], "trial": 5, "time_elapsed": 1285128, "type": "FREE_RECALL", "trial_index": 211}, "uniqueid": "MTK3447:3KIBXJ1WD61RWBKZFCBX5GVWM19OKX", "dateTime": 1520545229960}, {"current_trial": 212, "trialdata": {"rt": 3898, "trial_type": "text", "internal_node_id": "0.0-158.0", "time_elapsed": 1291041, "key_press": 32, "type": "INSTRUCTIONS", "trial_index": 212}, "uniqueid": "MTK3447:3KIBXJ1WD61RWBKZFCBX5GVWM19OKX", "dateTime": 1520545235866}, {"current_trial": 213, "trialdata": {"rt": [2950, 6102, 8830, 11854, 14534, 17494, 20998], "trial_type": "math-distractor", "key_times": [1558, 1886, 2950, 5070, 5414, 6102, 8134, 8830, 11086, 11854, 13502, 13854, 14534, 16206, 16782, 17494, 19470, 20382, 20998, 23406, 23790], "responses": ["14", "15", "7", "9", "12", "13", "15"], "num2": [1, 7, 1, 1, 4, 4, 5, 7], "num3": [9, 4, 5, 2, 2, 1, 4, 6], "conditions": [12, 1600, "v", 24000], "internal_node_id": "0.0-159.0", "key_presses": [97, 100, 13, 97, 101, 13, 103, 13, 105, 13, 97, 98, 13, 97, 99, 13, 97, 101, 13, 97, 101], "trial": 6, "time_elapsed": 1317093, "type": "DISTRACTOR", "trial_index": 213, "num1": [4, 4, 1, 7, 6, 8, 6, 2]}, "uniqueid": "MTK3447:3KIBXJ1WD61RWBKZFCBX5GVWM19OKX", "dateTime": 1520545261918}, {"current_trial": 214, "trialdata": {"rt": -1, "trial_type": "single-stim", "stimulus": "<p id=\"stim\">10</p>", "internal_node_id": "0.0-160.0-0.0", "time_elapsed": 1320133, "key_press": -1, "trial_index": 214}, "uniqueid": "MTK3447:3KIBXJ1WD61RWBKZFCBX5GVWM19OKX", "dateTime": 1520545264958}, {"current_trial": 215, "trialdata": {"rt": -1, "trial_type": "single-stim", "stimulus": "<p id=\"stim\">9</p>", "internal_node_id": "0.0-160.0-1.0", "time_elapsed": 1321123, "key_press": -1, "trial_index": 215}, "uniqueid": "MTK3447:3KIBXJ1WD61RWBKZFCBX5GVWM19OKX", "dateTime": 1520545265948}, {"current_trial": 216, "trialdata": {"rt": -1, "trial_type": "single-stim", "stimulus": "<p id=\"stim\">8</p>", "internal_node_id": "0.0-160.0-2.0", "time_elapsed": 1322130, "key_press": -1, "trial_index": 216}, "uniqueid": "MTK3447:3KIBXJ1WD61RWBKZFCBX5GVWM19OKX", "dateTime": 1520545266956}, {"current_trial": 217, "trialdata": {"rt": -1, "trial_type": "single-stim", "stimulus": "<p id=\"stim\">7</p>", "internal_node_id": "0.0-160.0-3.0", "time_elapsed": 1323122, "key_press": -1, "trial_index": 217}, "uniqueid": "MTK3447:3KIBXJ1WD61RWBKZFCBX5GVWM19OKX", "dateTime": 1520545267948}, {"current_trial": 218, "trialdata": {"rt": -1, "trial_type": "single-stim", "stimulus": "<p id=\"stim\">6</p>", "internal_node_id": "0.0-160.0-4.0", "time_elapsed": 1324130, "key_press": -1, "trial_index": 218}, "uniqueid": "MTK3447:3KIBXJ1WD61RWBKZFCBX5GVWM19OKX", "dateTime": 1520545268955}, {"current_trial": 219, "trialdata": {"rt": -1, "trial_type": "single-stim", "stimulus": "<p id=\"stim\">5</p>", "internal_node_id": "0.0-160.0-5.0", "time_elapsed": 1325122, "key_press": -1, "trial_index": 219}, "uniqueid": "MTK3447:3KIBXJ1WD61RWBKZFCBX5GVWM19OKX", "dateTime": 1520545269948}, {"current_trial": 220, "trialdata": {"rt": -1, "trial_type": "single-stim", "stimulus": "<p id=\"stim\">4</p>", "internal_node_id": "0.0-160.0-6.0", "time_elapsed": 1326130, "key_press": -1, "trial_index": 220}, "uniqueid": "MTK3447:3KIBXJ1WD61RWBKZFCBX5GVWM19OKX", "dateTime": 1520545270955}, {"current_trial": 221, "trialdata": {"rt": -1, "trial_type": "single-stim", "stimulus": "<p id=\"stim\">3</p>", "internal_node_id": "0.0-160.0-7.0", "time_elapsed": 1327124, "key_press": -1, "trial_index": 221}, "uniqueid": "MTK3447:3KIBXJ1WD61RWBKZFCBX5GVWM19OKX", "dateTime": 1520545271949}, {"current_trial": 222, "trialdata": {"rt": -1, "trial_type": "single-stim", "stimulus": "<p id=\"stim\">2</p>", "internal_node_id": "0.0-160.0-8.0", "time_elapsed": 1328130, "key_press": -1, "trial_index": 222}, "uniqueid": "MTK3447:3KIBXJ1WD61RWBKZFCBX5GVWM19OKX", "dateTime": 1520545272955}, {"current_trial": 223, "trialdata": {"rt": -1, "trial_type": "single-stim", "stimulus": "<p id=\"stim\">1</p>", "internal_node_id": "0.0-160.0-9.0", "time_elapsed": 1329113, "key_press": -1, "trial_index": 223}, "uniqueid": "MTK3447:3KIBXJ1WD61RWBKZFCBX5GVWM19OKX", "dateTime": 1520545273938}, {"current_trial": 224, "trialdata": {"rt": -1, "trial_type": "single-stim", "stimulus": "<p id=\"stim\">+</p>", "internal_node_id": "0.0-161.0-0.0", "time_elapsed": 1330625, "key_press": -1, "type": "FIXATION", "trial_index": 224}, "uniqueid": "MTK3447:3KIBXJ1WD61RWBKZFCBX5GVWM19OKX", "dateTime": 1520545275451}, {"current_trial": 225, "trialdata": {"rt": -1, "trial_type": "single-stim", "word": "donkey", "stimulus": "<p id=\"stim\">DONKEY</p>", "conditions": [12, 1600, "v", 24000], "internal_node_id": "0.0-162.0", "trial": 6, "time_elapsed": 1332253, "serialpos": 0, "key_press": -1, "wordID": 483, "type": "PRES_VIS", "trial_index": 225}, "uniqueid": "MTK3447:3KIBXJ1WD61RWBKZFCBX5GVWM19OKX", "dateTime": 1520545277079}, {"current_trial": 226, "trialdata": {"rt": -1, "trial_type": "single-stim", "word": "proton", "stimulus": "<p id=\"stim\">PROTON</p>", "conditions": [12, 1600, "v", 24000], "internal_node_id": "0.0-163.0", "trial": 6, "time_elapsed": 1335044, "serialpos": 1, "key_press": -1, "wordID": 1131, "type": "PRES_VIS", "trial_index": 226}, "uniqueid": "MTK3447:3KIBXJ1WD61RWBKZFCBX5GVWM19OKX", "dateTime": 1520545279870}, {"current_trial": 227, "trialdata": {"rt": -1, "trial_type": "single-stim", "word": "stone", "stimulus": "<p id=\"stim\">STONE</p>", "conditions": [12, 1600, "v", 24000], "internal_node_id": "0.0-164.0", "trial": 6, "time_elapsed": 1337880, "serialpos": 2, "key_press": -1, "wordID": 1384, "type": "PRES_VIS", "trial_index": 227}, "uniqueid": "MTK3447:3KIBXJ1WD61RWBKZFCBX5GVWM19OKX", "dateTime": 1520545282706}, {"current_trial": 228, "trialdata": {"rt": -1, "trial_type": "single-stim", "word": "camel", "stimulus": "<p id=\"stim\">CAMEL</p>", "conditions": [12, 1600, "v", 24000], "internal_node_id": "0.0-165.0", "trial": 6, "time_elapsed": 1340500, "serialpos": 3, "key_press": -1, "wordID": 222, "type": "PRES_VIS", "trial_index": 228}, "uniqueid": "MTK3447:3KIBXJ1WD61RWBKZFCBX5GVWM19OKX", "dateTime": 1520545285326}, {"current_trial": 229, "trialdata": {"rt": -1, "trial_type": "single-stim", "word": "dust", "stimulus": "<p id=\"stim\">DUST</p>", "conditions": [12, 1600, "v", 24000], "internal_node_id": "0.0-166.0", "trial": 6, "time_elapsed": 1343244, "serialpos": 4, "key_press": -1, "wordID": 507, "type": "PRES_VIS", "trial_index": 229}, "uniqueid": "MTK3447:3KIBXJ1WD61RWBKZFCBX5GVWM19OKX", "dateTime": 1520545288069}, {"current_trial": 230, "trialdata": {"rt": -1, "trial_type": "single-stim", "word": "stove", "stimulus": "<p id=\"stim\">STOVE</p>", "conditions": [12, 1600, "v", 24000], "internal_node_id": "0.0-167.0", "trial": 6, "time_elapsed": 1345957, "serialpos": 5, "key_press": -1, "wordID": 1387, "type": "PRES_VIS", "trial_index": 230}, "uniqueid": "MTK3447:3KIBXJ1WD61RWBKZFCBX5GVWM19OKX", "dateTime": 1520545290782}, {"current_trial": 231, "trialdata": {"rt": -1, "trial_type": "single-stim", "word": "flipper", "stimulus": "<p id=\"stim\">FLIPPER</p>", "conditions": [12, 1600, "v", 24000], "internal_node_id": "0.0-168.0", "trial": 6, "time_elapsed": 1348486, "serialpos": 6, "key_press": -1, "wordID": 579, "type": "PRES_VIS", "trial_index": 231}, "uniqueid": "MTK3447:3KIBXJ1WD61RWBKZFCBX5GVWM19OKX", "dateTime": 1520545293312}, {"current_trial": 232, "trialdata": {"rt": -1, "trial_type": "single-stim", "word": "dustpan", "stimulus": "<p id=\"stim\">DUSTPAN</p>", "conditions": [12, 1600, "v", 24000], "internal_node_id": "0.0-169.0", "trial": 6, "time_elapsed": 1351073, "serialpos": 7, "key_press": -1, "wordID": 508, "type": "PRES_VIS", "trial_index": 232}, "uniqueid": "MTK3447:3KIBXJ1WD61RWBKZFCBX5GVWM19OKX", "dateTime": 1520545295898}, {"current_trial": 233, "trialdata": {"rt": -1, "trial_type": "single-stim", "word": "rabbit", "stimulus": "<p id=\"stim\">RABBIT</p>", "conditions": [12, 1600, "v", 24000], "internal_node_id": "0.0-170.0", "trial": 6, "time_elapsed": 1353803, "serialpos": 8, "key_press": -1, "wordID": 1151, "type": "PRES_VIS", "trial_index": 233}, "uniqueid": "MTK3447:3KIBXJ1WD61RWBKZFCBX5GVWM19OKX", "dateTime": 1520545298628}, {"current_trial": 234, "trialdata": {"rt": -1, "trial_type": "single-stim", "word": "fox", "stimulus": "<p id=\"stim\">FOX</p>", "conditions": [12, 1600, "v", 24000], "internal_node_id": "0.0-171.0", "trial": 6, "time_elapsed": 1356613, "serialpos": 9, "key_press": -1, "wordID": 597, "type": "PRES_VIS", "trial_index": 234}, "uniqueid": "MTK3447:3KIBXJ1WD61RWBKZFCBX5GVWM19OKX", "dateTime": 1520545301438}, {"current_trial": 235, "trialdata": {"rt": -1, "trial_type": "single-stim", "word": "star", "stimulus": "<p id=\"stim\">STAR</p>", "conditions": [12, 1600, "v", 24000], "internal_node_id": "0.0-172.0", "trial": 6, "time_elapsed": 1359198, "serialpos": 10, "key_press": -1, "wordID": 1372, "type": "PRES_VIS", "trial_index": 235}, "uniqueid": "MTK3447:3KIBXJ1WD61RWBKZFCBX5GVWM19OKX", "dateTime": 1520545304023}, {"current_trial": 236, "trialdata": {"rt": -1, "trial_type": "single-stim", "word": "wasp", "stimulus": "<p id=\"stim\">WASP</p>", "conditions": [12, 1600, "v", 24000], "internal_node_id": "0.0-173.0", "trial": 6, "time_elapsed": 1361833, "serialpos": 11, "key_press": -1, "wordID": 1592, "type": "PRES_VIS", "trial_index": 236}, "uniqueid": "MTK3447:3KIBXJ1WD61RWBKZFCBX5GVWM19OKX", "dateTime": 1520545306658}, {"current_trial": 237, "trialdata": {"rt": -1, "trial_type": "single-stim", "stimulus": "", "internal_node_id": "0.0-174.0-0.0", "time_elapsed": 1363988, "key_press": -1, "type": "PRE_RECALL_DELAY", "trial_index": 237}, "uniqueid": "MTK3447:3KIBXJ1WD61RWBKZFCBX5GVWM19OKX", "dateTime": 1520545308813}, {"current_trial": 238, "trialdata": {"rt": -1000, "trial_type": "single-audio", "stimulus": "/static/audio/400Hz.wav", "internal_node_id": "0.0-175.0", "time_elapsed": 1364501, "key_press": -1, "type": "PRE_RECALL_ALERT", "trial_index": 238}, "uniqueid": "MTK3447:3KIBXJ1WD61RWBKZFCBX5GVWM19OKX", "dateTime": 1520545309327}, {"current_trial": 239, "trialdata": {"rt": [2856, 7384, 10896, 14768, 20232, 36984, 44544], "recwords": ["wasp", "rabbit", "fox", "dust", "dustpan", "fungus", "stove"], "key_times": [744, 1136, 1488, 2088, 2856, 4008, 4432, 5208, 5408, 6264, 6784, 7384, 8440, 9272, 10024, 10896, 12456, 13288, 13736, 14192, 14768, 15704, 16504, 16952, 17360, 18344, 18832, 19288, 20232, 33400, 34120, 34488, 34968, 35672, 36264, 36984, 41160, 41936, 42592, 43160, 43616, 44544], "trial_type": "free-recall", "conditions": [12, 1600, "v", 24000], "internal_node_id": "0.0-176.0-0.0", "key_presses": [87, 65, 83, 80, 13, 82, 65, 66, 66, 73, 84, 13, 70, 79, 88, 13, 68, 85, 83, 84, 13, 68, 85, 83, 84, 80, 65, 78, 13, 70, 85, 78, 71, 85, 83, 13, 83, 84, 79, 86, 69, 13], "trial": 6, "time_elapsed": 1424516, "type": "FREE_RECALL", "trial_index": 239}, "uniqueid": "MTK3447:3KIBXJ1WD61RWBKZFCBX5GVWM19OKX", "dateTime": 1520545369349}, {"current_trial": 240, "trialdata": {"rt": 5288, "trial_type": "text", "internal_node_id": "0.0-177.0", "time_elapsed": 1431824, "key_press": 32, "type": "INSTRUCTIONS", "trial_index": 240}, "uniqueid": "MTK3447:3KIBXJ1WD61RWBKZFCBX5GVWM19OKX", "dateTime": 1520545376650}, {"current_trial": 241, "trialdata": {"rt": [2586, 5698], "trial_type": "math-distractor", "key_times": [1730, 2034, 2586, 4170, 4986, 5698, 7586, 8994, 10754, 11434], "responses": ["14", "12"], "num2": [1, 4, 1], "num3": [5, 2, 9], "conditions": [24, 800, "v", 12000], "internal_node_id": "0.0-178.0", "key_presses": [97, 100, 13, 97, 98, 13, 97, 102, 8, 101], "trial": 7, "time_elapsed": 1445842, "type": "DISTRACTOR", "trial_index": 241, "num1": [8, 6, 5]}, "uniqueid": "MTK3447:3KIBXJ1WD61RWBKZFCBX5GVWM19OKX", "dateTime": 1520545390667}, {"current_trial": 242, "trialdata": {"rt": -1, "trial_type": "single-stim", "stimulus": "<p id=\"stim\">10</p>", "internal_node_id": "0.0-179.0-0.0", "time_elapsed": 1448886, "key_press": -1, "trial_index": 242}, "uniqueid": "MTK3447:3KIBXJ1WD61RWBKZFCBX5GVWM19OKX", "dateTime": 1520545393711}, {"current_trial": 243, "trialdata": {"rt": -1, "trial_type": "single-stim", "stimulus": "<p id=\"stim\">9</p>", "internal_node_id": "0.0-179.0-1.0", "time_elapsed": 1449878, "key_press": -1, "trial_index": 243}, "uniqueid": "MTK3447:3KIBXJ1WD61RWBKZFCBX5GVWM19OKX", "dateTime": 1520545394703}, {"current_trial": 244, "trialdata": {"rt": -1, "trial_type": "single-stim", "stimulus": "<p id=\"stim\">8</p>", "internal_node_id": "0.0-179.0-2.0", "time_elapsed": 1450886, "key_press": -1, "trial_index": 244}, "uniqueid": "MTK3447:3KIBXJ1WD61RWBKZFCBX5GVWM19OKX", "dateTime": 1520545395711}, {"current_trial": 245, "trialdata": {"rt": -1, "trial_type": "single-stim", "stimulus": "<p id=\"stim\">7</p>", "internal_node_id": "0.0-179.0-3.0", "time_elapsed": 1451878, "key_press": -1, "trial_index": 245}, "uniqueid": "MTK3447:3KIBXJ1WD61RWBKZFCBX5GVWM19OKX", "dateTime": 1520545396703}, {"current_trial": 246, "trialdata": {"rt": -1, "trial_type": "single-stim", "stimulus": "<p id=\"stim\">6</p>", "internal_node_id": "0.0-179.0-4.0", "time_elapsed": 1452885, "key_press": -1, "trial_index": 246}, "uniqueid": "MTK3447:3KIBXJ1WD61RWBKZFCBX5GVWM19OKX", "dateTime": 1520545397711}, {"current_trial": 247, "trialdata": {"rt": -1, "trial_type": "single-stim", "stimulus": "<p id=\"stim\">5</p>", "internal_node_id": "0.0-179.0-5.0", "time_elapsed": 1453893, "key_press": -1, "trial_index": 247}, "uniqueid": "MTK3447:3KIBXJ1WD61RWBKZFCBX5GVWM19OKX", "dateTime": 1520545398718}, {"current_trial": 248, "trialdata": {"rt": -1, "trial_type": "single-stim", "stimulus": "<p id=\"stim\">4</p>", "internal_node_id": "0.0-179.0-6.0", "time_elapsed": 1454871, "key_press": -1, "trial_index": 248}, "uniqueid": "MTK3447:3KIBXJ1WD61RWBKZFCBX5GVWM19OKX", "dateTime": 1520545399697}, {"current_trial": 249, "trialdata": {"rt": -1, "trial_type": "single-stim", "stimulus": "<p id=\"stim\">3</p>", "internal_node_id": "0.0-179.0-7.0", "time_elapsed": 1455878, "key_press": -1, "trial_index": 249}, "uniqueid": "MTK3447:3KIBXJ1WD61RWBKZFCBX5GVWM19OKX", "dateTime": 1520545400703}, {"current_trial": 250, "trialdata": {"rt": -1, "trial_type": "single-stim", "stimulus": "<p id=\"stim\">2</p>", "internal_node_id": "0.0-179.0-8.0", "time_elapsed": 1456885, "key_press": -1, "trial_index": 250}, "uniqueid": "MTK3447:3KIBXJ1WD61RWBKZFCBX5GVWM19OKX", "dateTime": 1520545401710}, {"current_trial": 251, "trialdata": {"rt": -1, "trial_type": "single-stim", "stimulus": "<p id=\"stim\">1</p>", "internal_node_id": "0.0-179.0-9.0", "time_elapsed": 1457877, "key_press": -1, "trial_index": 251}, "uniqueid": "MTK3447:3KIBXJ1WD61RWBKZFCBX5GVWM19OKX", "dateTime": 1520545402702}, {"current_trial": 252, "trialdata": {"rt": -1, "trial_type": "single-stim", "stimulus": "<p id=\"stim\">+</p>", "internal_node_id": "0.0-180.0-0.0", "time_elapsed": 1459396, "key_press": -1, "type": "FIXATION", "trial_index": 252}, "uniqueid": "MTK3447:3KIBXJ1WD61RWBKZFCBX5GVWM19OKX", "dateTime": 1520545404222}, {"current_trial": 253, "trialdata": {"rt": -1, "trial_type": "single-stim", "word": "virus", "stimulus": "<p id=\"stim\">VIRUS</p>", "conditions": [24, 800, "v", 12000], "internal_node_id": "0.0-181.0", "trial": 7, "time_elapsed": 1460220, "serialpos": 0, "key_press": -1, "wordID": 1571, "type": "PRES_VIS", "trial_index": 253}, "uniqueid": "MTK3447:3KIBXJ1WD61RWBKZFCBX5GVWM19OKX", "dateTime": 1520545405045}, {"current_trial": 254, "trialdata": {"rt": -1, "trial_type": "single-stim", "word": "lettuce", "stimulus": "<p id=\"stim\">LETTUCE</p>", "conditions": [24, 800, "v", 12000], "internal_node_id": "0.0-182.0", "trial": 7, "time_elapsed": 1462217, "serialpos": 1, "key_press": -1, "wordID": 813, "type": "PRES_VIS", "trial_index": 254}, "uniqueid": "MTK3447:3KIBXJ1WD61RWBKZFCBX5GVWM19OKX", "dateTime": 1520545407043}, {"current_trial": 255, "trialdata": {"rt": -1, "trial_type": "single-stim", "word": "onion", "stimulus": "<p id=\"stim\">ONION</p>", "conditions": [24, 800, "v", 12000], "internal_node_id": "0.0-183.0", "trial": 7, "time_elapsed": 1464047, "serialpos": 2, "key_press": -1, "wordID": 976, "type": "PRES_VIS", "trial_index": 255}, "uniqueid": "MTK3447:3KIBXJ1WD61RWBKZFCBX5GVWM19OKX", "dateTime": 1520545408872}, {"current_trial": 256, "trialdata": {"rt": -1, "trial_type": "single-stim", "word": "freckle", "stimulus": "<p id=\"stim\">FRECKLE</p>", "conditions": [24, 800, "v", 12000], "internal_node_id": "0.0-184.0", "trial": 7, "time_elapsed": 1465953, "serialpos": 3, "key_press": -1, "wordID": 601, "type": "PRES_VIS", "trial_index": 256}, "uniqueid": "MTK3447:3KIBXJ1WD61RWBKZFCBX5GVWM19OKX", "dateTime": 1520545410779}, {"current_trial": 257, "trialdata": {"rt": -1, "trial_type": "single-stim", "word": "waitress", "stimulus": "<p id=\"stim\">WAITRESS</p>", "conditions": [24, 800, "v", 12000], "internal_node_id": "0.0-185.0", "trial": 7, "time_elapsed": 1467855, "serialpos": 4, "key_press": -1, "wordID": 1580, "type": "PRES_VIS", "trial_index": 257}, "uniqueid": "MTK3447:3KIBXJ1WD61RWBKZFCBX5GVWM19OKX", "dateTime": 1520545412680}, {"current_trial": 258, "trialdata": {"rt": -1, "trial_type": "single-stim", "word": "sheriff", "stimulus": "<p id=\"stim\">SHERIFF</p>", "conditions": [24, 800, "v", 12000], "internal_node_id": "0.0-186.0", "trial": 7, "time_elapsed": 1469606, "serialpos": 5, "key_press": -1, "wordID": 1283, "type": "PRES_VIS", "trial_index": 258}, "uniqueid": "MTK3447:3KIBXJ1WD61RWBKZFCBX5GVWM19OKX", "dateTime": 1520545414432}, {"current_trial": 259, "trialdata": {"rt": -1, "trial_type": "single-stim", "word": "pliers", "stimulus": "<p 