{"assignmentId": "3KOPY89HM997Z2LVETRTGYX8CG1J3C", "workerId": "MTK3378", "questiondata": {"avail_screen_height": 1040, "color_depth": 24, "screen_width": 1920, "pixel_depth": 24, "avail_screen_width": 1920, "screen_height": 1080}, "bonus": 0, "hitId": "3IVKZBIBJ0GD5TDQQ6K7N9TL60KHSH", "counterbalance": 1493, "useragent": "Mozilla/5.0 (Windows NT 10.0; Win64; x64; rv:58.0) Gecko/20100101 Firefox/58.0", "eventdata": [{"eventtype": "initialized", "interval": 0, "value": null, "timestamp": 1520460438536}, {"eventtype": "window_resize", "interval": 1, "value": [1904, 964], "timestamp": 1520460438537}, {"eventtype": "window_resize", "interval": 2577, "value": [1920, 980], "timestamp": 1520460441114}, {"eventtype": "window_resize", "interval": 11508, "value": [1904, 964], "timestamp": 1520460452622}, {"eventtype": "window_resize", "interval": 32382, "value": [1920, 980], "timestamp": 1520460485004}, {"eventtype": "focus", "interval": 571465, "value": "off", "timestamp": 1520461056469}, {"eventtype": "focus", "interval": 21668, "value": "on", "timestamp": 1520461078137}, {"eventtype": "focus", "interval": 45686, "value": "off", "timestamp": 1520461123823}, {"eventtype": "focus", "interval": 2745, "value": "on", "timestamp": 1520461126568}, {"eventtype": "window_resize", "interval": 722512, "value": [1904, 964], "timestamp": 1520461849080}, {"eventtype": "focus", "interval": 1697, "value": "off", "timestamp": 1520461850777}, {"eventtype": "focus", "interval": 8680, "value": "on", "timestamp": 1520461859457}, {"eventtype": "window_resize", "interval": 2073, "value": [1920, 980], "timestamp": 1520461861530}, {"eventtype": "window_resize", "interval": 229554, "value": [1904, 964], "timestamp": 1520462091084}, {"eventtype": "focus", "interval": 14750, "value": "off", "timestamp": 1520462105834}, {"eventtype": "focus", "interval": 7654, "value": "on", "timestamp": 1520462113488}, {"eventtype": "focus", "interval": 2013, "value": "off", "timestamp": 1520462115501}, {"eventtype": "window_resize", "interval": 205, "value": [1920, 980], "timestamp": 1520462115706}, {"eventtype": "focus", "interval": 960, "value": "on", "timestamp": 1520462116666}, {"eventtype": "focus", "interval": 913002, "value": "off", "timestamp": 1520463029668}, {"eventtype": "focus", "interval": 35915, "value": "on", "timestamp": 1520463065583}, {"eventtype": "focus", "interval": 41736, "value": "off", "timestamp": 1520463107319}, {"eventtype": "focus", "interval": 0, "value": "on", "timestamp": 1520463107319}], "data": [{"current_trial": 0, "trialdata": {"rt": 3522, "trial_type": "text", "internal_node_id": "0.0-0.0", "time_elapsed": 3523, "key_press": 32, "type": "INSTRUCTIONS", "trial_index": 0}, "uniqueid": "MTK3378:3KOPY89HM997Z2LVETRTGYX8CG1J3C", "dateTime": 1520460481424}, {"current_trial": 1, "trialdata": {"rt": 5793, "trial_type": "text", "internal_node_id": "0.0-1.0", "time_elapsed": 9317, "key_press": 183, "type": "INSTRUCTIONS", "trial_index": 1}, "uniqueid": "MTK3378:3KOPY89HM997Z2LVETRTGYX8CG1J3C", "dateTime": 1520460487219}, {"current_trial": 2, "trialdata": {"rt": [11764], "trial_type": "audio-test", "responses": ["ocean"], "internal_node_id": "0.0-2.0", "time_elapsed": 21125, "type": "AUDIO_TEST", "trial_index": 2}, "uniqueid": "MTK3378:3KOPY89HM997Z2LVETRTGYX8CG1J3C", "dateTime": 1520460499026}, {"current_trial": 3, "trialdata": {"rt": [6245], "trial_type": "audio-test", "responses": ["crystal"], "internal_node_id": "0.0-3.0", "time_elapsed": 27380, "type": "AUDIO_TEST", "trial_index": 3}, "uniqueid": "MTK3378:3KOPY89HM997Z2LVETRTGYX8CG1J3C", "dateTime": 1520460505281}, {"current_trial": 4, "trialdata": {"rt": [5622], "trial_type": "audio-test", "responses": ["spice"], "internal_node_id": "0.0-4.0", "time_elapsed": 33013, "type": "AUDIO_TEST", "trial_index": 4}, "uniqueid": "MTK3378:3KOPY89HM997Z2LVETRTGYX8CG1J3C", "dateTime": 1520460510914}, {"current_trial": 5, "trialdata": {"rt": 24687, "trial_type": "survey-text", "responses": "{\"Q0\":\"11:30pm\",\"Q1\":\"6:40am\",\"Q2\":\"5\"}", "internal_node_id": "0.0-5.0", "time_elapsed": 58453, "type": "SLEEP_SURVEY", "trial_index": 5}, "uniqueid": "MTK3378:3KOPY89HM997Z2LVETRTGYX8CG1J3C", "dateTime": 1520460536355}, {"current_trial": 6, "trialdata": {"rt": 28139, "trial_type": "text", "internal_node_id": "0.0-6.0", "time_elapsed": 87595, "key_press": 32, "type": "INSTRUCTIONS", "trial_index": 6}, "uniqueid": "MTK3378:3KOPY89HM997Z2LVETRTGYX8CG1J3C", "dateTime": 1520460565496}, {"current_trial": 7, "trialdata": {"rt": 9032, "trial_type": "text", "internal_node_id": "0.0-7.0", "time_elapsed": 97129, "key_press": 32, "type": "INSTRUCTIONS", "trial_index": 7}, "uniqueid": "MTK3378:3KOPY89HM997Z2LVETRTGYX8CG1J3C", "dateTime": 1520460575030}, {"current_trial": 8, "trialdata": {"rt": 3981, "trial_type": "text", "internal_node_id": "0.0-8.0", "time_elapsed": 101612, "key_press": 32, "type": "INSTRUCTIONS", "trial_index": 8}, "uniqueid": "MTK3378:3KOPY89HM997Z2LVETRTGYX8CG1J3C", "dateTime": 1520460579513}, {"current_trial": 9, "trialdata": {"rt": [4110, 6787, 9140, 12097, 14527, 16985], "trial_type": "math-distractor", "key_times": [3564, 3710, 4110, 6524, 6605, 6787, 8672, 8796, 9140, 11791, 11879, 12097, 14159, 14273, 14527, 16725, 16789, 16985], "responses": ["14", "20", "16", "20", "18", "15"], "num2": [3, 5, 7, 6, 7, 6, 4], "num3": [9, 6, 2, 6, 3, 3, 9], "conditions": [18, 1200, "a", 18000], "internal_node_id": "0.0-9.0", "key_presses": [97, 100, 13, 98, 96, 13, 97, 102, 13, 98, 96, 13, 97, 104, 13, 97, 101, 13], "trial": 0, "time_elapsed": 120616, "type": "DISTRACTOR", "trial_index": 9, "num1": [2, 9, 7, 8, 8, 6, 4]}, "uniqueid": "MTK3378:3KOPY89HM997Z2LVETRTGYX8CG1J3C", "dateTime": 1520460598517}, {"current_trial": 10, "trialdata": {"rt": -1, "trial_type": "single-stim", "stimulus": "<p id=\"stim\">10</p>", "internal_node_id": "0.0-10.0-0.0", "time_elapsed": 123619, "key_press": -1, "trial_index": 10}, "uniqueid": "MTK3378:3KOPY89HM997Z2LVETRTGYX8CG1J3C", "dateTime": 1520460601520}, {"current_trial": 11, "trialdata": {"rt": -1, "trial_type": "single-stim", "stimulus": "<p id=\"stim\">9</p>", "internal_node_id": "0.0-10.0-1.0", "time_elapsed": 124620, "key_press": -1, "trial_index": 11}, "uniqueid": "MTK3378:3KOPY89HM997Z2LVETRTGYX8CG1J3C", "dateTime": 1520460602521}, {"current_trial": 12, "trialdata": {"rt": -1, "trial_type": "single-stim", "stimulus": "<p id=\"stim\">8</p>", "internal_node_id": "0.0-10.0-2.0", "time_elapsed": 125622, "key_press": -1, "trial_index": 12}, "uniqueid": "MTK3378:3KOPY89HM997Z2LVETRTGYX8CG1J3C", "dateTime": 1520460603524}, {"current_trial": 13, "trialdata": {"rt": -1, "trial_type": "single-stim", "stimulus": "<p id=\"stim\">7</p>", "internal_node_id": "0.0-10.0-3.0", "time_elapsed": 126624, "key_press": -1, "trial_index": 13}, "uniqueid": "MTK3378:3KOPY89HM997Z2LVETRTGYX8CG1J3C", "dateTime": 1520460604525}, {"current_trial": 14, "trialdata": {"rt": -1, "trial_type": "single-stim", "stimulus": "<p id=\"stim\">6</p>", "internal_node_id": "0.0-10.0-4.0", "time_elapsed": 127625, "key_press": -1, "trial_index": 14}, "uniqueid": "MTK3378:3KOPY89HM997Z2LVETRTGYX8CG1J3C", "dateTime": 1520460605526}, {"current_trial": 15, "trialdata": {"rt": -1, "trial_type": "single-stim", "stimulus": "<p id=\"stim\">5</p>", "internal_node_id": "0.0-10.0-5.0", "time_elapsed": 128625, "key_press": -1, "trial_index": 15}, "uniqueid": "MTK3378:3KOPY89HM997Z2LVETRTGYX8CG1J3C", "dateTime": 1520460606526}, {"current_trial": 16, "trialdata": {"rt": -1, "trial_type": "single-stim", "stimulus": "<p id=\"stim\">4</p>", "internal_node_id": "0.0-10.0-6.0", "time_elapsed": 129626, "key_press": -1, "trial_index": 16}, "uniqueid": "MTK3378:3KOPY89HM997Z2LVETRTGYX8CG1J3C", "dateTime": 1520460607527}, {"current_trial": 17, "trialdata": {"rt": -1, "trial_type": "single-stim", "stimulus": "<p id=\"stim\">3</p>", "internal_node_id": "0.0-10.0-7.0", "time_elapsed": 130628, "key_press": -1, "trial_index": 17}, "uniqueid": "MTK3378:3KOPY89HM997Z2LVETRTGYX8CG1J3C", "dateTime": 1520460608529}, {"current_trial": 18, "trialdata": {"rt": -1, "trial_type": "single-stim", "stimulus": "<p id=\"stim\">2</p>", "internal_node_id": "0.0-10.0-8.0", "time_elapsed": 131629, "key_press": -1, "trial_index": 18}, "uniqueid": "MTK3378:3KOPY89HM997Z2LVETRTGYX8CG1J3C", "dateTime": 1520460609530}, {"current_trial": 19, "trialdata": {"rt": -1, "trial_type": "single-stim", "stimulus": "<p id=\"stim\">1</p>", "internal_node_id": "0.0-10.0-9.0", "time_elapsed": 132631, "key_press": -1, "trial_index": 19}, "uniqueid": "MTK3378:3KOPY89HM997Z2LVETRTGYX8CG1J3C", "dateTime": 1520460610532}, {"current_trial": 20, "trialdata": {"rt": -1, "trial_type": "single-stim", "stimulus": "<p id=\"stim\">+</p>", "internal_node_id": "0.0-11.0-0.0", "time_elapsed": 134132, "key_press": -1, "type": "FIXATION", "trial_index": 20}, "uniqueid": "MTK3378:3KOPY89HM997Z2LVETRTGYX8CG1J3C", "dateTime": 1520460612033}, {"current_trial": 21, "trialdata": {"rt": -1000, "trial_type": "single-audio", "word": "plaza", "stimulus": "/static/audio/wordpool/PLAZA.wav", "conditions": [18, 1200, "a", 18000], "internal_node_id": "0.0-12.0", "trial": 0, "time_elapsed": 136345, "serialpos": 0, "key_press": -1, "wordID": 1087, "type": "PRES_AUD", "trial_index": 21}, "uniqueid": "MTK3378:3KOPY89HM997Z2LVETRTGYX8CG1J3C", "dateTime": 1520460614246}, {"current_trial": 22, "trialdata": {"rt": -1000, "trial_type": "single-audio", "word": "picnic", "stimulus": "/static/audio/wordpool/PICNIC.wav", "conditions": [18, 1200, "a", 18000], "internal_node_id": "0.0-13.0", "trial": 0, "time_elapsed": 138391, "serialpos": 1, "key_press": -1, "wordID": 1059, "type": "PRES_AUD", "trial_index": 22}, "uniqueid": "MTK3378:3KOPY89HM997Z2LVETRTGYX8CG1J3C", "dateTime": 1520460616293}, {"current_trial": 23, "trialdata": {"rt": -1000, "trial_type": "single-audio", "word": "piston", "stimulus": "/static/audio/wordpool/PISTON.wav", "conditions": [18, 1200, "a", 18000], "internal_node_id": "0.0-14.0", "trial": 0, "time_elapsed": 140626, "serialpos": 2, "key_press": -1, "wordID": 1075, "type": "PRES_AUD", "trial_index": 23}, "uniqueid": "MTK3378:3KOPY89HM997Z2LVETRTGYX8CG1J3C", "dateTime": 1520460618527}, {"current_trial": 24, "trialdata": {"rt": -1000, "trial_type": "single-audio", "word": "lettuce", "stimulus": "/static/audio/wordpool/LETTUCE.wav", "conditions": [18, 1200, "a", 18000], "internal_node_id": "0.0-15.0", "trial": 0, "time_elapsed": 142994, "serialpos": 3, "key_press": -1, "wordID": 813, "type": "PRES_AUD", "trial_index": 24}, "uniqueid": "MTK3378:3KOPY89HM997Z2LVETRTGYX8CG1J3C", "dateTime": 1520460620895}, {"current_trial": 25, "trialdata": {"rt": -1000, "trial_type": "single-audio", "word": "perfume", "stimulus": "/static/audio/wordpool/PERFUME.wav", "conditions": [18, 1200, "a", 18000], "internal_node_id": "0.0-16.0", "trial": 0, "time_elapsed": 145340, "serialpos": 4, "key_press": -1, "wordID": 1048, "type": "PRES_AUD", "trial_index": 25}, "uniqueid": "MTK3378:3KOPY89HM997Z2LVETRTGYX8CG1J3C", "dateTime": 1520460623242}, {"current_trial": 26, "trialdata": {"rt": -1000, "trial_type": "single-audio", "word": "world", "stimulus": "/static/audio/wordpool/WORLD.wav", "conditions": [18, 1200, "a", 18000], "internal_node_id": "0.0-17.0", "trial": 0, "time_elapsed": 147649, "serialpos": 5, "key_press": -1, "wordID": 1621, "type": "PRES_AUD", "trial_index": 26}, "uniqueid": "MTK3378:3KOPY89HM997Z2LVETRTGYX8CG1J3C", "dateTime": 1520460625550}, {"current_trial": 27, "trialdata": {"rt": -1000, "trial_type": "single-audio", "word": "powder", "stimulus": "/static/audio/wordpool/POWDER.wav", "conditions": [18, 1200, "a", 18000], "internal_node_id": "0.0-18.0", "trial": 0, "time_elapsed": 150020, "serialpos": 6, "key_press": -1, "wordID": 1116, "type": "PRES_AUD", "trial_index": 27}, "uniqueid": "MTK3378:3KOPY89HM997Z2LVETRTGYX8CG1J3C", "dateTime": 1520460627921}, {"current_trial": 28, "trialdata": {"rt": -1000, "trial_type": "single-audio", "word": "hood", "stimulus": "/static/audio/wordpool/HOOD.wav", "conditions": [18, 1200, "a", 18000], "internal_node_id": "0.0-19.0", "trial": 0, "time_elapsed": 152038, "serialpos": 7, "key_press": -1, "wordID": 713, "type": "PRES_AUD", "trial_index": 28}, "uniqueid": "MTK3378:3KOPY89HM997Z2LVETRTGYX8CG1J3C", "dateTime": 1520460629939}, {"current_trial": 29, "trialdata": {"rt": -1000, "trial_type": "single-audio", "word": "sibling", "stimulus": "/static/audio/wordpool/SIBLING.wav", "conditions": [18, 1200, "a", 18000], "internal_node_id": "0.0-20.0", "trial": 0, "time_elapsed": 154139, "serialpos": 8, "key_press": -1, "wordID": 1300, "type": "PRES_AUD", "trial_index": 29}, "uniqueid": "MTK3378:3KOPY89HM997Z2LVETRTGYX8CG1J3C", "dateTime": 1520460632040}, {"current_trial": 30, "trialdata": {"rt": -1000, "trial_type": "single-audio", "word": "robber", "stimulus": "/static/audio/wordpool/ROBBER.wav", "conditions": [18, 1200, "a", 18000], "internal_node_id": "0.0-21.0", "trial": 0, "time_elapsed": 156285, "serialpos": 9, "key_press": -1, "wordID": 1196, "type": "PRES_AUD", "trial_index": 30}, "uniqueid": "MTK3378:3KOPY89HM997Z2LVETRTGYX8CG1J3C", "dateTime": 1520460634187}, {"current_trial": 31, "trialdata": {"rt": -1000, "trial_type": "single-audio", "word": "mars", "stimulus": "/static/audio/wordpool/MARS.wav", "conditions": [18, 1200, "a", 18000], "internal_node_id": "0.0-22.0", "trial": 0, "time_elapsed": 158687, "serialpos": 10, "key_press": -1, "wordID": 872, "type": "PRES_AUD", "trial_index": 31}, "uniqueid": "MTK3378:3KOPY89HM997Z2LVETRTGYX8CG1J3C", "dateTime": 1520460636588}, {"current_trial": 32, "trialdata": {"rt": -1000, "trial_type": "single-audio", "word": "popcorn", "stimulus": "/static/audio/wordpool/POPCORN.wav", "conditions": [18, 1200, "a", 18000], "internal_node_id": "0.0-23.0", "trial": 0, "time_elapsed": 160767, "serialpos": 11, "key_press": -1, "wordID": 1103, "type": "PRES_AUD", "trial_index": 32}, "uniqueid": "MTK3378:3KOPY89HM997Z2LVETRTGYX8CG1J3C", "dateTime": 1520460638668}, {"current_trial": 33, "trialdata": {"rt": -1000, "trial_type": "single-audio", "word": "gallon", "stimulus": "/static/audio/wordpool/GALLON.wav", "conditions": [18, 1200, "a", 18000], "internal_node_id": "0.0-24.0", "trial": 0, "time_elapsed": 163024, "serialpos": 12, "key_press": -1, "wordID": 617, "type": "PRES_AUD", "trial_index": 33}, "uniqueid": "MTK3378:3KOPY89HM997Z2LVETRTGYX8CG1J3C", "dateTime": 1520460640925}, {"current_trial": 34, "trialdata": {"rt": -1000, "trial_type": "single-audio", "word": "queen", "stimulus": "/static/audio/wordpool/QUEEN.wav", "conditions": [18, 1200, "a", 18000], "internal_node_id": "0.0-25.0", "trial": 0, "time_elapsed": 165095, "serialpos": 13, "key_press": -1, "wordID": 1148, "type": "PRES_AUD", "trial_index": 34}, "uniqueid": "MTK3378:3KOPY89HM997Z2LVETRTGYX8CG1J3C", "dateTime": 1520460642996}, {"current_trial": 35, "trialdata": {"rt": -1000, "trial_type": "single-audio", "word": "gymnast", "stimulus": "/static/audio/wordpool/GYMNAST.wav", "conditions": [18, 1200, "a", 18000], "internal_node_id": "0.0-26.0", "trial": 0, "time_elapsed": 167129, "serialpos": 14, "key_press": -1, "wordID": 674, "type": "PRES_AUD", "trial_index": 35}, "uniqueid": "MTK3378:3KOPY89HM997Z2LVETRTGYX8CG1J3C", "dateTime": 1520460645031}, {"current_trial": 36, "trialdata": {"rt": -1000, "trial_type": "single-audio", "word": "plaster", "stimulus": "/static/audio/wordpool/PLASTER.wav", "conditions": [18, 1200, "a", 18000], "internal_node_id": "0.0-27.0", "trial": 0, "time_elapsed": 169510, "serialpos": 15, "key_press": -1, "wordID": 1084, "type": "PRES_AUD", "trial_index": 36}, "uniqueid": "MTK3378:3KOPY89HM997Z2LVETRTGYX8CG1J3C", "dateTime": 1520460647411}, {"current_trial": 37, "trialdata": {"rt": -1000, "trial_type": "single-audio", "word": "snail", "stimulus": "/static/audio/wordpool/SNAIL.wav", "conditions": [18, 1200, "a", 18000], "internal_node_id": "0.0-28.0", "trial": 0, "time_elapsed": 171811, "serialpos": 16, "key_press": -1, "wordID": 1331, "type": "PRES_AUD", "trial_index": 37}, "uniqueid": "MTK3378:3KOPY89HM997Z2LVETRTGYX8CG1J3C", "dateTime": 1520460649712}, {"current_trial": 38, "trialdata": {"rt": -1000, "trial_type": "single-audio", "word": "slime", "stimulus": "/static/audio/wordpool/SLIME.wav", "conditions": [18, 1200, "a", 18000], "internal_node_id": "0.0-29.0", "trial": 0, "time_elapsed": 173819, "serialpos": 17, "key_press": -1, "wordID": 1326, "type": "PRES_AUD", "trial_index": 38}, "uniqueid": "MTK3378:3KOPY89HM997Z2LVETRTGYX8CG1J3C", "dateTime": 1520460651721}, {"current_trial": 39, "trialdata": {"rt": -1, "trial_type": "single-stim", "stimulus": "", "internal_node_id": "0.0-30.0-0.0", "time_elapsed": 175110, "key_press": -1, "type": "PRE_RECALL_DELAY", "trial_index": 39}, "uniqueid": "MTK3378:3KOPY89HM997Z2LVETRTGYX8CG1J3C", "dateTime": 1520460653012}, {"current_trial": 40, "trialdata": {"rt": -1000, "trial_type": "single-audio", "stimulus": "/static/audio/400Hz.wav", "internal_node_id": "0.0-31.0", "time_elapsed": 175612, "key_press": -1, "type": "PRE_RECALL_ALERT", "trial_index": 40}, "uniqueid": "MTK3378:3KOPY89HM997Z2LVETRTGYX8CG1J3C", "dateTime": 1520460653514}, {"current_trial": 41, "trialdata": {"rt": [2967, 4673, 6167, 7119, 8504, 10164, 13557, 21082, 27353, 42070, 46072], "recwords": ["plaza", "piston", "snail", "slime", "robber", "powder", "picnic", "pistol", "lettuce", "", "world"], "key_times": [1215, 1414, 1548, 1998, 2313, 2967, 3731, 4006, 4105, 4222, 4296, 4413, 4673, 5538, 5662, 5788, 5861, 5946, 6167, 6397, 6499, 6698, 6813, 7001, 7119, 7646, 7780, 7933, 8116, 8306, 8391, 8504, 9009, 9219, 9496, 9728, 9934, 10026, 10164, 12760, 12935, 13065, 13176, 13273, 13413, 13557, 18014, 18223, 18383, 18598, 19130, 19307, 19474, 19635, 19779, 20131, 20285, 20384, 20506, 20644, 20861, 21082, 26376, 26553, 26657, 26811, 26947, 27085, 27207, 27353, 42070, 45530, 45603, 45748, 45853, 45957, 46072], "trial_type": "free-recall", "conditions": [18, 1200, "a", 18000], "internal_node_id": "0.0-32.0-0.0", "key_presses": [80, 76, 65, 90, 65, 32, 80, 73, 83, 84, 79, 78, 13, 83, 78, 65, 73, 76, 13, 83, 76, 73, 77, 69, 13, 82, 79, 66, 66, 69, 82, 13, 80, 79, 87, 68, 69, 82, 13, 80, 73, 67, 78, 73, 67, 13, 80, 76, 65, 90, 8, 8, 8, 8, 8, 80, 73, 83, 84, 79, 76, 13, 76, 69, 84, 84, 85, 67, 69, 13, 13, 87, 79, 82, 76, 68, 13], "trial": 0, "time_elapsed": 235615, "type": "FREE_RECALL", "trial_index": 41}, "uniqueid": "MTK3378:3KOPY89HM997Z2LVETRTGYX8CG1J3C", "dateTime": 1520460713522}, {"current_trial": 42, "trialdata": {"rt": 1695, "trial_type": "text", "internal_node_id": "0.0-33.0", "time_elapsed": 239316, "key_press": 32, "type": "INSTRUCTIONS", "trial_index": 42}, "uniqueid": "MTK3378:3KOPY89HM997Z2LVETRTGYX8CG1J3C", "dateTime": 1520460717217}, {"current_trial": 43, "trialdata": {"rt": [2147, 3683, 5661, 8844, 10990, 13035, 16532], "trial_type": "math-distractor", "key_times": [1806, 1887, 2147, 3475, 3683, 5286, 5420, 5661, 8445, 8612, 8844, 10780, 10990, 12725, 12865, 13035, 16198, 16302, 16532, 17854, 17908], "responses": ["13", "7", "19", "17", "8", "15", "19"], "num2": [2, 1, 9, 6, 4, 3, 7, 2], "num3": [3, 1, 5, 8, 3, 8, 6, 2], "conditions": [18, 1200, "a", 18000], "internal_node_id": "0.0-34.0", "key_presses": [97, 99, 13, 103, 13, 97, 105, 13, 97, 103, 13, 104, 13, 97, 101, 13, 97, 105, 13, 97, 98], "trial": 1, "time_elapsed": 259319, "type": "DISTRACTOR", "trial_index": 43, "num1": [8, 5, 5, 3, 2, 4, 6, 8]}, "uniqueid": "MTK3378:3KOPY89HM997Z2LVETRTGYX8CG1J3C", "dateTime": 1520460737220}, {"current_trial": 44, "trialdata": {"rt": -1, "trial_type": "single-stim", "stimulus": "<p id=\"stim\">10</p>", "internal_node_id": "0.0-35.0-0.0", "time_elapsed": 262321, "key_press": -1, "trial_index": 44}, "uniqueid": "MTK3378:3KOPY89HM997Z2LVETRTGYX8CG1J3C", "dateTime": 1520460740222}, {"current_trial": 45, "trialdata": {"rt": -1, "trial_type": "single-stim", "stimulus": "<p id=\"stim\">9</p>", "internal_node_id": "0.0-35.0-1.0", "time_elapsed": 263322, "key_press": -1, "trial_index": 45}, "uniqueid": "MTK3378:3KOPY89HM997Z2LVETRTGYX8CG1J3C", "dateTime": 1520460741223}, {"current_trial": 46, "trialdata": {"rt": -1, "trial_type": "single-stim", "stimulus": "<p id=\"stim\">8</p>", "internal_node_id": "0.0-35.0-2.0", "time_elapsed": 264323, "key_press": -1, "trial_index": 46}, "uniqueid": "MTK3378:3KOPY89HM997Z2LVETRTGYX8CG1J3C", "dateTime": 1520460742225}, {"current_trial": 47, "trialdata": {"rt": -1, "trial_type": "single-stim", "stimulus": "<p id=\"stim\">7</p>", "internal_node_id": "0.0-35.0-3.0", "time_elapsed": 265324, "key_press": -1, "trial_index": 47}, "uniqueid": "MTK3378:3KOPY89HM997Z2LVETRTGYX8CG1J3C", "dateTime": 1520460743225}, {"current_trial": 48, "trialdata": {"rt": -1, "trial_type": "single-stim", "stimulus": "<p id=\"stim\">6</p>", "internal_node_id": "0.0-35.0-4.0", "time_elapsed": 266325, "key_press": -1, "trial_index": 48}, "uniqueid": "MTK3378:3KOPY89HM997Z2LVETRTGYX8CG1J3C", "dateTime": 1520460744226}, {"current_trial": 49, "trialdata": {"rt": -1, "trial_type": "single-stim", "stimulus": "<p id=\"stim\">5</p>", "internal_node_id": "0.0-35.0-5.0", "time_elapsed": 267326, "key_press": -1, "trial_index": 49}, "uniqueid": "MTK3378:3KOPY89HM997Z2LVETRTGYX8CG1J3C", "dateTime": 1520460745227}, {"current_trial": 50, "trialdata": {"rt": -1, "trial_type": "single-stim", "stimulus": "<p id=\"stim\">4</p>", "internal_node_id": "0.0-35.0-6.0", "time_elapsed": 268327, "key_press": -1, "trial_index": 50}, "uniqueid": "MTK3378:3KOPY89HM997Z2LVETRTGYX8CG1J3C", "dateTime": 1520460746228}, {"current_trial": 51, "trialdata": {"rt": -1, "trial_type": "single-stim", "stimulus": "<p id=\"stim\">3</p>", "internal_node_id": "0.0-35.0-7.0", "time_elapsed": 269328, "key_press": -1, "trial_index": 51}, "uniqueid": "MTK3378:3KOPY89HM997Z2LVETRTGYX8CG1J3C", "dateTime": 1520460747229}, {"current_trial": 52, "trialdata": {"rt": -1, "trial_type": "single-stim", "stimulus": "<p id=\"stim\">2</p>", "internal_node_id": "0.0-35.0-8.0", "time_elapsed": 270329, "key_press": -1, "trial_index": 52}, "uniqueid": "MTK3378:3KOPY89HM997Z2LVETRTGYX8CG1J3C", "dateTime": 1520460748230}, {"current_trial": 53, "trialdata": {"rt": -1, "trial_type": "single-stim", "stimulus": "<p id=\"stim\">1</p>", "internal_node_id": "0.0-35.0-9.0", "time_elapsed": 271332, "key_press": -1, "trial_index": 53}, "uniqueid": "MTK3378:3KOPY89HM997Z2LVETRTGYX8CG1J3C", "dateTime": 1520460749233}, {"current_trial": 54, "trialdata": {"rt": -1, "trial_type": "single-stim", "stimulus": "<p id=\"stim\">+</p>", "internal_node_id": "0.0-36.0-0.0", "time_elapsed": 272833, "key_press": -1, "type": "FIXATION", "trial_index": 54}, "uniqueid": "MTK3378:3KOPY89HM997Z2LVETRTGYX8CG1J3C", "dateTime": 1520460750734}, {"current_trial": 55, "trialdata": {"rt": -1000, "trial_type": "single-audio", "word": "cafe", "stimulus": "/static/audio/wordpool/CAFE.wav", "conditions": [18, 1200, "a", 18000], "internal_node_id": "0.0-37.0", "trial": 1, "time_elapsed": 275013, "serialpos": 0, "key_press": -1, "wordID": 215, "type": "PRES_AUD", "trial_index": 55}, "uniqueid": "MTK3378:3KOPY89HM997Z2LVETRTGYX8CG1J3C", "dateTime": 1520460752914}, {"current_trial": 56, "trialdata": {"rt": -1000, "trial_type": "single-audio", "word": "robin", "stimulus": "/static/audio/wordpool/ROBIN.wav", "conditions": [18, 1200, "a", 18000], "internal_node_id": "0.0-38.0", "trial": 1, "time_elapsed": 277339, "serialpos": 1, "key_press": -1, "wordID": 1198, "type": "PRES_AUD", "trial_index": 56}, "uniqueid": "MTK3378:3KOPY89HM997Z2LVETRTGYX8CG1J3C", "dateTime": 1520460755240}, {"current_trial": 57, "trialdata": {"rt": -1000, "trial_type": "single-audio", "word": "fiddle", "stimulus": "/static/audio/wordpool/FIDDLE.wav", "conditions": [18, 1200, "a", 18000], "internal_node_id": "0.0-39.0", "trial": 1, "time_elapsed": 279387, "serialpos": 2, "key_press": -1, "wordID": 560, "type": "PRES_AUD", "trial_index": 57}, "uniqueid": "MTK3378:3KOPY89HM997Z2LVETRTGYX8CG1J3C", "dateTime": 1520460757288}, {"current_trial": 58, "trialdata": {"rt": -1000, "trial_type": "single-audio", "word": "handbag", "stimulus": "/static/audio/wordpool/HANDBAG.wav", "conditions": [18, 1200, "a", 18000], "internal_node_id": "0.0-40.0", "trial": 1, "time_elapsed": 281396, "serialpos": 3, "key_press": -1, "wordID": 683, "type": "PRES_AUD", "trial_index": 58}, "uniqueid": "MTK3378:3KOPY89HM997Z2LVETRTGYX8CG1J3C", "dateTime": 1520460759297}, {"current_trial": 59, "trialdata": {"rt": -1000, "trial_type": "single-audio", "word": "smog", "stimulus": "/static/audio/wordpool/SMOG.wav", "conditions": [18, 1200, "a", 18000], "internal_node_id": "0.0-41.0", "trial": 1, "time_elapsed": 283463, "serialpos": 4, "key_press": -1, "wordID": 1329, "type": "PRES_AUD", "trial_index": 59}, "uniqueid": "MTK3378:3KOPY89HM997Z2LVETRTGYX8CG1J3C", "dateTime": 1520460761364}, {"current_trial": 60, "trialdata": {"rt": -1000, "trial_type": "single-audio", "word": "camel", "stimulus": "/static/audio/wordpool/CAMEL.wav", "conditions": [18, 1200, "a", 18000], "internal_node_id": "0.0-42.0", "trial": 1, "time_elapsed": 285572, "serialpos": 5, "key_press": -1, "wordID": 222, "type": "PRES_AUD", "trial_index": 60}, "uniqueid": "MTK3378:3KOPY89HM997Z2LVETRTGYX8CG1J3C", "dateTime": 1520460763473}, {"current_trial": 61, "trialdata": {"rt": -1000, "trial_type": "single-audio", "word": "cocoon", "stimulus": "/static/audio/wordpool/COCOON.wav", "conditions": [18, 1200, "a", 18000], "internal_node_id": "0.0-43.0", "trial": 1, "time_elapsed": 287792, "serialpos": 6, "key_press": -1, "wordID": 338, "type": "PRES_AUD", "trial_index": 61}, "uniqueid": "MTK3378:3KOPY89HM997Z2LVETRTGYX8CG1J3C", "dateTime": 1520460765693}, {"current_trial": 62, "trialdata": {"rt": -1000, "trial_type": "single-audio", "word": "lodge", "stimulus": "/static/audio/wordpool/LODGE.wav", "conditions": [18, 1200, "a", 18000], "internal_node_id": "0.0-44.0", "trial": 1, "time_elapsed": 289913, "serialpos": 7, "key_press": -1, "wordID": 838, "type": "PRES_AUD", "trial_index": 62}, "uniqueid": "MTK3378:3KOPY89HM997Z2LVETRTGYX8CG1J3C", "dateTime": 1520460767814}, {"current_trial": 63, "trialdata": {"rt": -1000, "trial_type": "single-audio", "word": "patient", "stimulus": "/static/audio/wordpool/PATIENT.wav", "conditions": [18, 1200, "a", 18000], "internal_node_id": "0.0-45.0", "trial": 1, "time_elapsed": 291999, "serialpos": 8, "key_press": -1, "wordID": 1023, "type": "PRES_AUD", "trial_index": 63}, "uniqueid": "MTK3378:3KOPY89HM997Z2LVETRTGYX8CG1J3C", "dateTime": 1520460769900}, {"current_trial": 64, "trialdata": {"rt": -1000, "trial_type": "single-audio", "word": "gravel", "stimulus": "/static/audio/wordpool/GRAVEL.wav", "conditions": [18, 1200, "a", 18000], "internal_node_id": "0.0-46.0", "trial": 1, "time_elapsed": 294085, "serialpos": 9, "key_press": -1, "wordID": 658, "type": "PRES_AUD", "trial_index": 64}, "uniqueid": "MTK3378:3KOPY89HM997Z2LVETRTGYX8CG1J3C", "dateTime": 1520460771986}, {"current_trial": 65, "trialdata": {"rt": -1000, "trial_type": "single-audio", "word": "trombone", "stimulus": "/static/audio/wordpool/TROMBONE.wav", "conditions": [18, 1200, "a", 18000], "internal_node_id": "0.0-47.0", "trial": 1, "time_elapsed": 296111, "serialpos": 10, "key_press": -1, "wordID": 1507, "type": "PRES_AUD", "trial_index": 65}, "uniqueid": "MTK3378:3KOPY89HM997Z2LVETRTGYX8CG1J3C", "dateTime": 1520460774012}, {"current_trial": 66, "trialdata": {"rt": -1000, "trial_type": "single-audio", "word": "saddle", "stimulus": "/static/audio/wordpool/SADDLE.wav", "conditions": [18, 1200, "a", 18000], "internal_node_id": "0.0-48.0", "trial": 1, "time_elapsed": 298422, "serialpos": 11, "key_press": -1, "wordID": 1220, "type": "PRES_AUD", "trial_index": 66}, "uniqueid": "MTK3378:3KOPY89HM997Z2LVETRTGYX8CG1J3C", "dateTime": 1520460776323}, {"current_trial": 67, "trialdata": {"rt": -1000, "trial_type": "single-audio", "word": "helmet", "stimulus": "/static/audio/wordpool/HELMET.wav", "conditions": [18, 1200, "a", 18000], "internal_node_id": "0.0-49.0", "trial": 1, "time_elapsed": 300715, "serialpos": 12, "key_press": -1, "wordID": 701, "type": "PRES_AUD", "trial_index": 67}, "uniqueid": "MTK3378:3KOPY89HM997Z2LVETRTGYX8CG1J3C", "dateTime": 1520460778616}, {"current_trial": 68, "trialdata": {"rt": -1000, "trial_type": "single-audio", "word": "friend", "stimulus": "/static/audio/wordpool/FRIEND.wav", "conditions": [18, 1200, "a", 18000], "internal_node_id": "0.0-50.0", "trial": 1, "time_elapsed": 303015, "serialpos": 13, "key_press": -1, "wordID": 605, "type": "PRES_AUD", "trial_index": 68}, "uniqueid": "MTK3378:3KOPY89HM997Z2LVETRTGYX8CG1J3C", "dateTime": 1520460780916}, {"current_trial": 69, "trialdata": {"rt": -1000, "trial_type": "single-audio", "word": "banquet", "stimulus": "/static/audio/wordpool/BANQUET.wav", "conditions": [18, 1200, "a", 18000], "internal_node_id": "0.0-51.0", "trial": 1, "time_elapsed": 305247, "serialpos": 14, "key_press": -1, "wordID": 85, "type": "PRES_AUD", "trial_index": 69}, "uniqueid": "MTK3378:3KOPY89HM997Z2LVETRTGYX8CG1J3C", "dateTime": 1520460783148}, {"current_trial": 70, "trialdata": {"rt": -1000, "trial_type": "single-audio", "word": "flashlight", "stimulus": "/static/audio/wordpool/FLASHLIGHT.wav", "conditions": [18, 1200, "a", 18000], "internal_node_id": "0.0-52.0", "trial": 1, "time_elapsed": 307416, "serialpos": 15, "key_press": -1, "wordID": 574, "type": "PRES_AUD", "trial_index": 70}, "uniqueid": "MTK3378:3KOPY89HM997Z2LVETRTGYX8CG1J3C", "dateTime": 1520460785317}, {"current_trial": 71, "trialdata": {"rt": -1000, "trial_type": "single-audio", "word": "crab", "stimulus": "/static/audio/wordpool/CRAB.wav", "conditions": [18, 1200, "a", 18000], "internal_node_id": "0.0-53.0", "trial": 1, "time_elapsed": 309420, "serialpos": 16, "key_press": -1, "wordID": 396, "type": "PRES_AUD", "trial_index": 71}, "uniqueid": "MTK3378:3KOPY89HM997Z2LVETRTGYX8CG1J3C", "dateTime": 1520460787321}, {"current_trial": 72, "trialdata": {"rt": -1000, "trial_type": "single-audio", "word": "lipstick", "stimulus": "/static/audio/wordpool/LIPSTICK.wav", "conditions": [18, 1200, "a", 18000], "internal_node_id": "0.0-54.0", "trial": 1, "time_elapsed": 311725, "serialpos": 17, "key_press": -1, "wordID": 828, "type": "PRES_AUD", "trial_index": 72}, "uniqueid": "MTK3378:3KOPY89HM997Z2LVETRTGYX8CG1J3C", "dateTime": 1520460789626}, {"current_trial": 73, "trialdata": {"rt": -1, "trial_type": "single-stim", "stimulus": "", "internal_node_id": "0.0-55.0-0.0", "time_elapsed": 312968, "key_press": -1, "type": "PRE_RECALL_DELAY", "trial_index": 73}, "uniqueid": "MTK3378:3KOPY89HM997Z2LVETRTGYX8CG1J3C", "dateTime": 1520460790870}, {"current_trial": 74, "trialdata": {"rt": -1000, "trial_type": "single-audio", "stimulus": "/static/audio/400Hz.wav", "internal_node_id": "0.0-56.0", "time_elapsed": 313469, "key_press": -1, "type": "PRE_RECALL_ALERT", "trial_index": 74}, "uniqueid": "MTK3378:3KOPY89HM997Z2LVETRTGYX8CG1J3C", "dateTime": 1520460791371}, {"current_trial": 75, "trialdata": {"rt": [2407, 3363, 7607, 8624, 10712, 19955, 24636, 27835], "recwords": ["lipstic", "crab", "trombone", "cabin", "friend", "cafe", "handbag", "camel"], "key_times": [1373, 1483, 1667, 1792, 1979, 2094, 2272, 2407, 2626, 2815, 2931, 3150, 3363, 6591, 6776, 6886, 6969, 7095, 7178, 7311, 7440, 7607, 7868, 8012, 8193, 8255, 8397, 8624, 9702, 9861, 10138, 10282, 10430, 10557, 10712, 19208, 19353, 19583, 19753, 19955, 23335, 23428, 23574, 23660, 23835, 24004, 24381, 24636, 27209, 27319, 27436, 27570, 27637, 27835, 47056, 47228, 47831, 48111, 48780, 48958, 49149, 49320, 49473], "trial_type": "free-recall", "conditions": [18, 1200, "a", 18000], "internal_node_id": "0.0-57.0-0.0", "key_presses": [76, 73, 80, 83, 84, 73, 67, 13, 67, 82, 65, 66, 13, 84, 82, 79, 77, 66, 79, 78, 69, 13, 67, 65, 66, 73, 78, 13, 70, 82, 73, 69, 78, 68, 13, 67, 65, 70, 69, 13, 72, 65, 78, 68, 66, 65, 71, 13, 67, 65, 77, 69, 76, 13, 80, 73, 90, 90, 8, 8, 8, 8, 8], "trial": 1, "time_elapsed": 373472, "type": "FREE_RECALL", "trial_index": 75}, "uniqueid": "MTK3378:3KOPY89HM997Z2LVETRTGYX8CG1J3C", "dateTime": 1520460851375}, {"current_trial": 76, "trialdata": {"rt": 14625, "trial_type": "text", "internal_node_id": "0.0-58.0", "time_elapsed": 390101, "key_press": 32, "type": "INSTRUCTIONS", "trial_index": 76}, "uniqueid": "MTK3378:3KOPY89HM997Z2LVETRTGYX8CG1J3C", "dateTime": 1520460868002}, {"current_trial": 77, "trialdata": {"rt": [2037, 4434, 6505, 8865, 10848, 13469, 15391, 17518, 19945, 21605, 23118], "trial_type": "math-distractor", "key_times": [1695, 1792, 2037, 4139, 4434, 5971, 6151, 6505, 8359, 8580, 8865, 10540, 10615, 10848, 12591, 12788, 13469, 15041, 15180, 15391, 17170, 17286, 17518, 19588, 19666, 19945, 21365, 21605, 22838, 22923, 23118], "responses": ["19", "9", "18", "19", "16", "27", "14", "19", "16", "9", "16"], "num2": [9, 3, 1, 8, 1, 9, 4, 4, 4, 5, 3, 1], "num3": [8, 4, 9, 7, 9, 9, 9, 7, 9, 2, 6, 7], "conditions": [24, 800, "a", 24000], "internal_node_id": "0.0-59.0", "key_presses": [97, 105, 13, 105, 13, 97, 104, 13, 97, 105, 13, 97, 102, 13, 98, 103, 13, 97, 100, 13, 97, 105, 13, 97, 102, 13, 105, 13, 97, 102, 13], "trial": 2, "time_elapsed": 415106, "type": "DISTRACTOR", "trial_index": 77, "num1": [2, 2, 8, 4, 6, 9, 1, 8, 3, 2, 7, 5]}, "uniqueid": "MTK3378:3KOPY89HM997Z2LVETRTGYX8CG1J3C", "dateTime": 1520460893007}, {"current_trial": 78, "trialdata": {"rt": -1, "trial_type": "single-stim", "stimulus": "<p id=\"stim\">10</p>", "internal_node_id": "0.0-60.0-0.0", "time_elapsed": 418107, "key_press": -1, "trial_index": 78}, "uniqueid": "MTK3378:3KOPY89HM997Z2LVETRTGYX8CG1J3C", "dateTime": 1520460896009}, {"current_trial": 79, "trialdata": {"rt": -1, "trial_type": "single-stim", "stimulus": "<p id=\"stim\">9</p>", "internal_node_id": "0.0-60.0-1.0", "time_elapsed": 419109, "key_press": -1, "trial_index": 79}, "uniqueid": "MTK3378:3KOPY89HM997Z2LVETRTGYX8CG1J3C", "dateTime": 1520460897010}, {"current_trial": 80, "trialdata": {"rt": -1, "trial_type": "single-stim", "stimulus": "<p id=\"stim\">8</p>", "internal_node_id": "0.0-60.0-2.0", "time_elapsed": 420110, "key_press": -1, "trial_index": 80}, "uniqueid": "MTK3378:3KOPY89HM997Z2LVETRTGYX8CG1J3C", "dateTime": 1520460898011}, {"current_trial": 81, "trialdata": {"rt": -1, "trial_type": "single-stim", "stimulus": "<p id=\"stim\">7</p>", "internal_node_id": "0.0-60.0-3.0", "time_elapsed": 421111, "key_press": -1, "trial_index": 81}, "uniqueid": "MTK3378:3KOPY89HM997Z2LVETRTGYX8CG1J3C", "dateTime": 1520460899013}, {"current_trial": 82, "trialdata": {"rt": -1, "trial_type": "single-stim", "stimulus": "<p id=\"stim\">6</p>", "internal_node_id": "0.0-60.0-4.0", "time_elapsed": 422113, "key_press": -1, "trial_index": 82}, "uniqueid": "MTK3378:3KOPY89HM997Z2LVETRTGYX8CG1J3C", "dateTime": 1520460900014}, {"current_trial": 83, "trialdata": {"rt": -1, "trial_type": "single-stim", "stimulus": "<p id=\"stim\">5</p>", "internal_node_id": "0.0-60.0-5.0", "time_elapsed": 423113, "key_press": -1, "trial_index": 83}, "uniqueid": "MTK3378:3KOPY89HM997Z2LVETRTGYX8CG1J3C", "dateTime": 1520460901014}, {"current_trial": 84, "trialdata": {"rt": -1, "trial_type": "single-stim", "stimulus": "<p id=\"stim\">4</p>", "internal_node_id": "0.0-60.0-6.0", "time_elapsed": 424114, "key_press": -1, "trial_index": 84}, "uniqueid": "MTK3378:3KOPY89HM997Z2LVETRTGYX8CG1J3C", "dateTime": 1520460902015}, {"current_trial": 85, "trialdata": {"rt": -1, "trial_type": "single-stim", "stimulus": "<p id=\"stim\">3</p>", "internal_node_id": "0.0-60.0-7.0", "time_elapsed": 425116, "key_press": -1, "trial_index": 85}, "uniqueid": "MTK3378:3KOPY89HM997Z2LVETRTGYX8CG1J3C", "dateTime": 1520460903017}, {"current_trial": 86, "trialdata": {"rt": -1, "trial_type": "single-stim", "stimulus": "<p id=\"stim\">2</p>", "internal_node_id": "0.0-60.0-8.0", "time_elapsed": 426117, "key_press": -1, "trial_index": 86}, "uniqueid": "MTK3378:3KOPY89HM997Z2LVETRTGYX8CG1J3C", "dateTime": 1520460904018}, {"current_trial": 87, "trialdata": {"rt": -1, "trial_type": "single-stim", "stimulus": "<p id=\"stim\">1</p>", "internal_node_id": "0.0-60.0-9.0", "time_elapsed": 427118, "key_press": -1, "trial_index": 87}, "uniqueid": "MTK3378:3KOPY89HM997Z2LVETRTGYX8CG1J3C", "dateTime": 1520460905019}, {"current_trial": 88, "trialdata": {"rt": -1, "trial_type": "single-stim", "stimulus": "<p id=\"stim\">+</p>", "internal_node_id": "0.0-61.0-0.0", "time_elapsed": 428618, "key_press": -1, "type": "FIXATION", "trial_index": 88}, "uniqueid": "MTK3378:3KOPY89HM997Z2LVETRTGYX8CG1J3C", "dateTime": 1520460906519}, {"current_trial": 89, "trialdata": {"rt": -1000, "trial_type": "single-audio", "word": "padding", "stimulus": "/static/audio/wordpool/PADDING.wav", "conditions": [24, 800, "a", 24000], "internal_node_id": "0.0-62.0", "trial": 2, "time_elapsed": 430343, "serialpos": 0, "key_press": -1, "wordID": 998, "type": "PRES_AUD", "trial_index": 89}, "uniqueid": "MTK3378:3KOPY89HM997Z2LVETRTGYX8CG1J3C", "dateTime": 1520460908245}, {"current_trial": 90, "trialdata": {"rt": -1000, "trial_type": "single-audio", "word": "ointment", "stimulus": "/static/audio/wordpool/OINTMENT.wav", "conditions": [24, 800, "a", 24000], "internal_node_id": "0.0-63.0", "trial": 2, "time_elapsed": 432053, "serialpos": 1, "key_press": -1, "wordID": 973, "type": "PRES_AUD", "trial_index": 90}, "uniqueid": "MTK3378:3KOPY89HM997Z2LVETRTGYX8CG1J3C", "dateTime": 1520460909954}, {"current_trial": 91, "trialdata": {"rt": -1000, "trial_type": "single-audio", "word": "picture", "stimulus": "/static/audio/wordpool/PICTURE.wav", "conditions": [24, 800, "a", 24000], "internal_node_id": "0.0-64.0", "trial": 2, "time_elapsed": 434037, "serialpos": 2, "key_press": -1, "wordID": 1060, "type": "PRES_AUD", "trial_index": 91}, "uniqueid": "MTK3378:3KOPY89HM997Z2LVETRTGYX8CG1J3C", "dateTime": 1520460911938}, {"current_trial": 92, "trialdata": {"rt": -1000, "trial_type": "single-audio", "word": "maple", "stimulus": "/static/audio/wordpool/MAPLE.wav", "conditions": [24, 800, "a", 24000], "internal_node_id": "0.0-65.0", "trial": 2, "time_elapsed": 435849, "serialpos": 3, "key_press": -1, "wordID": 865, "type": "PRES_AUD", "trial_index": 92}, "uniqueid": "MTK3378:3KOPY89HM997Z2LVETRTGYX8CG1J3C", "dateTime": 1520460913750}, {"current_trial": 93, "trialdata": {"rt": -1000, "trial_type": "single-audio", "word": "football", "stimulus": "/static/audio/wordpool/FOOTBALL.wav", "conditions": [24, 800, "a", 24000], "internal_node_id": "0.0-66.0", "trial": 2, "time_elapsed": 437543, "serialpos": 4, "key_press": -1, "wordID": 590, "type": "PRES_AUD", "trial_index": 93}, "uniqueid": "MTK3378:3KOPY89HM997Z2LVETRTGYX8CG1J3C", "dateTime": 1520460915444}, {"current_trial": 94, "trialdata": {"rt": -1000, "trial_type": "single-audio", "word": "spoon", "stimulus": "/static/audio/wordpool/SPOON.wav", "conditions": [24, 800, "a", 24000], "internal_node_id": "0.0-67.0", "trial": 2, "time_elapsed": 439426, "serialpos": 5, "key_press": -1, "wordID": 1356, "type": "PRES_AUD", "trial_index": 94}, "uniqueid": "MTK3378:3KOPY89HM997Z2LVETRTGYX8CG1J3C", "dateTime": 1520460917327}, {"current_trial": 95, "trialdata": {"rt": -1000, "trial_type": "single-audio", "word": "radish", "stimulus": "/static/audio/wordpool/RADISH.wav", "conditions": [24, 800, "a", 24000], "internal_node_id": "0.0-68.0", "trial": 2, "time_elapsed": 441261, "serialpos": 6, "key_press": -1, "wordID": 1157, "type": "PRES_AUD", "trial_index": 95}, "uniqueid": "MTK3378:3KOPY89HM997Z2LVETRTGYX8CG1J3C", "dateTime": 1520460919162}, {"current_trial": 96, "trialdata": {"rt": -1000, "trial_type": "single-audio", "word": "hornet", "stimulus": "/static/audio/wordpool/HORNET.wav", "conditions": [24, 800, "a", 24000], "internal_node_id": "0.0-69.0", "trial": 2, "time_elapsed": 443130, "serialpos": 7, "key_press": -1, "wordID": 717, "type": "PRES_AUD", "trial_index": 96}, "uniqueid": "MTK3378:3KOPY89HM997Z2LVETRTGYX8CG1J3C", "dateTime": 1520460921031}, {"current_trial": 97, "trialdata": {"rt": -1000, "trial_type": "single-audio", "word": "termite", "stimulus": "/static/audio/wordpool/TERMITE.wav", "conditions": [24, 800, "a", 24000], "internal_node_id": "0.0-70.0", "trial": 2, "time_elapsed": 444911, "serialpos": 8, "key_press": -1, "wordID": 1450, "type": "PRES_AUD", "trial_index": 97}, "uniqueid": "MTK3378:3KOPY89HM997Z2LVETRTGYX8CG1J3C", "dateTime": 1520460922812}, {"current_trial": 98, "trialdata": {"rt": -1000, "trial_type": "single-audio", "word": "liver", "stimulus": "/static/audio/wordpool/LIVER.wav", "conditions": [24, 800, "a", 24000], "internal_node_id": "0.0-71.0", "trial": 2, "time_elapsed": 446707, "serialpos": 9, "key_press": -1, "wordID": 832, "type": "PRES_AUD", "trial_index": 98}, "uniqueid": "MTK3378:3KOPY89HM997Z2LVETRTGYX8CG1J3C", "dateTime": 1520460924608}, {"current_trial": 99, "trialdata": {"rt": -1000, "trial_type": "single-audio", "word": "kidney", "stimulus": "/static/audio/wordpool/KIDNEY.wav", "conditions": [24, 800, "a", 24000], "internal_node_id": "0.0-72.0", "trial": 2, "time_elapsed": 448613, "serialpos": 10, "key_press": -1, "wordID": 775, "type": "PRES_AUD", "trial_index": 99}, "uniqueid": "MTK3378:3KOPY89HM997Z2LVETRTGYX8CG1J3C", "dateTime": 1520460926514}, {"current_trial": 100, "trialdata": {"rt": -1000, "trial_type": "single-audio", "word": "portrait", "stimulus": "/static/audio/wordpool/PORTRAIT.wav", "conditions": [24, 800, "a", 24000], "internal_node_id": "0.0-73.0", "trial": 2, "time_elapsed": 450581, "serialpos": 11, "key_press": -1, "wordID": 1110, "type": "PRES_AUD", "trial_index": 100}, "uniqueid": "MTK3378:3KOPY89HM997Z2LVETRTGYX8CG1J3C", "dateTime": 1520460928482}, {"current_trial": 101, "trialdata": {"rt": -1000, "trial_type": "single-audio", "word": "skillet", "stimulus": "/static/audio/wordpool/SKILLET.wav", "conditions": [24, 800, "a", 24000], "internal_node_id": "0.0-74.0", "trial": 2, "time_elapsed": 452491, "serialpos": 12, "key_press": -1, "wordID": 1316, "type": "PRES_AUD", "trial_index": 101}, "uniqueid": "MTK3378:3KOPY89HM997Z2LVETRTGYX8CG1J3C", "dateTime": 1520460930392}, {"current_trial": 102, "trialdata": {"rt": -1000, "trial_type": "single-audio", "word": "county", "stimulus": "/static/audio/wordpool/COUNTY.wav", "conditions": [24, 800, "a", 24000], "internal_node_id": "0.0-75.0", "trial": 2, "time_elapsed": 454434, "serialpos": 13, "key_press": -1, "wordID": 388, "type": "PRES_AUD", "trial_index": 102}, "uniqueid": "MTK3378:3KOPY89HM997Z2LVETRTGYX8CG1J3C", "dateTime": 1520460932335}, {"current_trial": 103, "trialdata": {"rt": -1000, "trial_type": "single-audio", "word": "sheriff", "stimulus": "/static/audio/wordpool/SHERIFF.wav", "conditions": [24, 800, "a", 24000], "internal_node_id": "0.0-76.0", "trial": 2, "time_elapsed": 456288, "serialpos": 14, "key_press": -1, "wordID": 1283, "type": "PRES_AUD", "trial_index": 103}, "uniqueid": "MTK3378:3KOPY89HM997Z2LVETRTGYX8CG1J3C", "dateTime": 1520460934189}, {"current_trial": 104, "trialdata": {"rt": -1000, "trial_type": "single-audio", "word": "daisy", "stimulus": "/static/audio/wordpool/DAISY.wav", "conditions": [24, 800, "a", 24000], "internal_node_id": "0.0-77.0", "trial": 2, "time_elapsed": 458206, "serialpos": 15, "key_press": -1, "wordID": 434, "type": "PRES_AUD", "trial_index": 104}, "uniqueid": "MTK3378:3KOPY89HM997Z2LVETRTGYX8CG1J3C", "dateTime": 1520460936107}, {"current_trial": 105, "trialdata": {"rt": -1000, "trial_type": "single-audio", "word": "author", "stimulus": "/static/audio/wordpool/AUTHOR.wav", "conditions": [24, 800, "a", 24000], "internal_node_id": "0.0-78.0", "trial": 2, "time_elapsed": 460126, "serialpos": 16, "key_press": -1, "wordID": 60, "type": "PRES_AUD", "trial_index": 105}, "uniqueid": "MTK3378:3KOPY89HM997Z2LVETRTGYX8CG1J3C", "dateTime": 1520460938027}, {"current_trial": 106, "trialdata": {"rt": -1000, "trial_type": "single-audio", "word": "oyster", "stimulus": "/static/audio/wordpool/OYSTER.wav", "conditions": [24, 800, "a", 24000], "internal_node_id": "0.0-79.0", "trial": 2, "time_elapsed": 461894, "serialpos": 17, "key_press": -1, "wordID": 994, "type": "PRES_AUD", "trial_index": 106}, "uniqueid": "MTK3378:3KOPY89HM997Z2LVETRTGYX8CG1J3C", "dateTime": 1520460939795}, {"current_trial": 107, "trialdata": {"rt": -1000, "trial_type": "single-audio", "word": "laser", "stimulus": "/static/audio/wordpool/LASER.wav", "conditions": [24, 800, "a", 24000], "internal_node_id": "0.0-80.0", "trial": 2, "time_elapsed": 463691, "serialpos": 18, "key_press": -1, "wordID": 800, "type": "PRES_AUD", "trial_index": 107}, "uniqueid": "MTK3378:3KOPY89HM997Z2LVETRTGYX8CG1J3C", "dateTime": 1520460941592}, {"current_trial": 108, "trialdata": {"rt": -1000, "trial_type": "single-audio", "word": "stone", "stimulus": "/static/audio/wordpool/STONE.wav", "conditions": [24, 800, "a", 24000], "internal_node_id": "0.0-81.0", "trial": 2, "time_elapsed": 465667, "serialpos": 19, "key_press": -1, "wordID": 1384, "type": "PRES_AUD", "trial_index": 108}, "uniqueid": "MTK3378:3KOPY89HM997Z2LVETRTGYX8CG1J3C", "dateTime": 1520460943569}, {"current_trial": 109, "trialdata": {"rt": -1000, "trial_type": "single-audio", "word": "tortoise", "stimulus": "/static/audio/wordpool/TORTOISE.wav", "conditions": [24, 800, "a", 24000], "internal_node_id": "0.0-82.0", "trial": 2, "time_elapsed": 467332, "serialpos": 20, "key_press": -1, "wordID": 1485, "type": "PRES_AUD", "trial_index": 109}, "uniqueid": "MTK3378:3KOPY89HM997Z2LVETRTGYX8CG1J3C", "dateTime": 1520460945233}, {"current_trial": 110, "trialdata": {"rt": -1000, "trial_type": "single-audio", "word": "diner", "stimulus": "/static/audio/wordpool/DINER.wav", "conditions": [24, 800, "a", 24000], "internal_node_id": "0.0-83.0", "trial": 2, "time_elapsed": 469168, "serialpos": 21, "key_press": -1, "wordID": 466, "type": "PRES_AUD", "trial_index": 110}, "uniqueid": "MTK3378:3KOPY89HM997Z2LVETRTGYX8CG1J3C", "dateTime": 1520460947069}, {"current_trial": 111, "trialdata": {"rt": -1000, "trial_type": "single-audio", "word": "tourist", "stimulus": "/static/audio/wordpool/TOURIST.wav", "conditions": [24, 800, "a", 24000], "internal_node_id": "0.0-84.0", "trial": 2, "time_elapsed": 470852, "serialpos": 22, "key_press": -1, "wordID": 1487, "type": "PRES_AUD", "trial_index": 111}, "uniqueid": "MTK3378:3KOPY89HM997Z2LVETRTGYX8CG1J3C", "dateTime": 1520460948753}, {"current_trial": 112, "trialdata": {"rt": -1000, "trial_type": "single-audio", "word": "lily", "stimulus": "/static/audio/wordpool/LILY.wav", "conditions": [24, 800, "a", 24000], "internal_node_id": "0.0-85.0", "trial": 2, "time_elapsed": 472847, "serialpos": 23, "key_press": -1, "wordID": 820, "type": "PRES_AUD", "trial_index": 112}, "uniqueid": "MTK3378:3KOPY89HM997Z2LVETRTGYX8CG1J3C", "dateTime": 1520460950748}, {"current_trial": 113, "trialdata": {"rt": -1, "trial_type": "single-stim", "stimulus": "", "internal_node_id": "0.0-86.0-0.0", "time_elapsed": 474165, "key_press": -1, "type": "PRE_RECALL_DELAY", "trial_index": 113}, "uniqueid": "MTK3378:3KOPY89HM997Z2LVETRTGYX8CG1J3C", "dateTime": 1520460952066}, {"current_trial": 114, "trialdata": {"rt": -1000, "trial_type": "single-audio", "stimulus": "/static/audio/400Hz.wav", "internal_node_id": "0.0-87.0", "time_elapsed": 474666, "key_press": -1, "type": "PRE_RECALL_ALERT", "trial_index": 114}, "uniqueid": "MTK3378:3KOPY89HM997Z2LVETRTGYX8CG1J3C", "dateTime": 1520460952567}, {"current_trial": 115, "trialdata": {"rt": [1213, 1869, 6962, 9069, 14405, 18884, 22656, 27691, 52193], "recwords": ["tourist", "diner", "lilly", "skillet", "padding", "ointment", "painting", "hornet", "pigme"], "key_times": [539, 606, 688, 790, 886, 996, 1118, 1213, 1361, 1435, 1523, 1617, 1704, 1869, 5689, 5763, 6279, 6444, 6598, 6962, 8084, 8216, 8442, 8547, 8710, 8825, 8914, 9069, 13504, 13587, 13681, 13868, 13921, 14023, 14102, 14405, 17012, 17630, 17905, 18020, 18139, 18289, 18412, 18516, 18614, 18726, 18884, 21768, 21895, 22022, 22186, 22271, 22344, 22437, 22514, 22656, 26750, 26859, 27176, 27255, 27397, 27503, 27691, 36509, 37641, 39767, 40748, 50666, 50856, 51100, 51649, 51815, 51950, 52057, 52193], "trial_type": "free-recall", "conditions": [24, 800, "a", 24000], "internal_node_id": "0.0-88.0-0.0", "key_presses": [84, 79, 85, 82, 73, 83, 84, 32, 68, 73, 78, 69, 82, 32, 76, 73, 76, 76, 89, 13, 83, 75, 73, 76, 76, 69, 84, 13, 80, 65, 68, 68, 73, 78, 71, 13, 80, 8, 79, 73, 78, 84, 77, 69, 78, 84, 13, 80, 65, 73, 78, 84, 73, 78, 71, 13, 72, 79, 82, 78, 69, 84, 13, 87, 8, 87, 8, 80, 73, 77, 8, 71, 77, 69, 13], "trial": 2, "time_elapsed": 534671, "type": "FREE_RECALL", "trial_index": 115}, "uniqueid": "MTK3378:3KOPY89HM997Z2LVETRTGYX8CG1J3C", "dateTime": 1520461012574}, {"current_trial": 116, "trialdata": {"rt": 4306, "trial_type": "text", "internal_node_id": "0.0-89.0", "time_elapsed": 540982, "key_press": 32, "type": "INSTRUCTIONS", "trial_index": 116}, "uniqueid": "MTK3378:3KOPY89HM997Z2LVETRTGYX8CG1J3C", "dateTime": 1520461018884}, {"current_trial": 117, "trialdata": {"rt": [2513, 4835, 6391, 8693, 10553], "trial_type": "math-distractor", "key_times": [2175, 2343, 2513, 4450, 4625, 4835, 6147, 6391, 8049, 8198, 8693, 10178, 10351, 10553], "responses": ["15", "14", "9", "13", "14"], "num2": [4, 3, 1, 4, 5, 6], "num3": [6, 9, 1, 7, 4, 8], "conditions": [24, 800, "a", 12000], "internal_node_id": "0.0-90.0", "key_presses": [97, 101, 13, 97, 100, 13, 105, 13, 97, 99, 13, 97, 100, 13], "trial": 3, "time_elapsed": 554986, "type": "DISTRACTOR", "trial_index": 117, "num1": [5, 2, 7, 2, 4, 8]}, "uniqueid": "MTK3378:3KOPY89HM997Z2LVETRTGYX8CG1J3C", "dateTime": 1520461032887}, {"current_trial": 118, "trialdata": {"rt": -1, "trial_type": "single-stim", "stimulus": "<p id=\"stim\">10</p>", "internal_node_id": "0.0-91.0-0.0", "time_elapsed": 557987, "key_press": -1, "trial_index": 118}, "uniqueid": "MTK3378:3KOPY89HM997Z2LVETRTGYX8CG1J3C", "dateTime": 1520461035888}, {"current_trial": 119, "trialdata": {"rt": -1, "trial_type": "single-stim", "stimulus": "<p id=\"stim\">9</p>", "internal_node_id": "0.0-91.0-1.0", "time_elapsed": 558988, "key_press": -1, "trial_index": 119}, "uniqueid": "MTK3378:3KOPY89HM997Z2LVETRTGYX8CG1J3C", "dateTime": 1520461036889}, {"current_trial": 120, "trialdata": {"rt": -1, "trial_type": "single-stim", "stimulus": "<p id=\"stim\">8</p>", "internal_node_id": "0.0-91.0-2.0", "time_elapsed": 559988, "key_press": -1, "trial_index": 120}, "uniqueid": "MTK3378:3KOPY89HM997Z2LVETRTGYX8CG1J3C", "dateTime": 1520461037889}, {"current_trial": 121, "trialdata": {"rt": -1, "trial_type": "single-stim", "stimulus": "<p id=\"stim\">7</p>", "internal_node_id": "0.0-91.0-3.0", "time_elapsed": 560989, "key_press": -1, "trial_index": 121}, "uniqueid": "MTK3378:3KOPY89HM997Z2LVETRTGYX8CG1J3C", "dateTime": 1520461038890}, {"current_trial": 122, "trialdata": {"rt": -1, "trial_type": "single-stim", "stimulus": "<p id=\"stim\">6</p>", "internal_node_id": "0.0-91.0-4.0", "time_elapsed": 561991, "key_press": -1, "trial_index": 122}, "uniqueid": "MTK3378:3KOPY89HM997Z2LVETRTGYX8CG1J3C", "dateTime": 1520461039892}, {"current_trial": 123, "trialdata": {"rt": -1, "trial_type": "single-stim", "stimulus": "<p id=\"stim\">5</p>", "internal_node_id": "0.0-91.0-5.0", "time_elapsed": 562991, "key_press": -1, "trial_index": 123}, "uniqueid": "MTK3378:3KOPY89HM997Z2LVETRTGYX8CG1J3C", "dateTime": 1520461040893}, {"current_trial": 124, "trialdata": {"rt": -1, "trial_type": "single-stim", "stimulus": "<p id=\"stim\">4</p>", "internal_node_id": "0.0-91.0-6.0", "time_elapsed": 563992, "key_press": -1, "trial_index": 124}, "uniqueid": "MTK3378:3KOPY89HM997Z2LVETRTGYX8CG1J3C", "dateTime": 1520461041893}, {"current_trial": 125, "trialdata": {"rt": -1, "trial_type": "single-stim", "stimulus": "<p id=\"stim\">3</p>", "internal_node_id": "0.0-91.0-7.0", "time_elapsed": 564993, "key_press": -1, "trial_index": 125}, "uniqueid": "MTK3378:3KOPY89HM997Z2LVETRTGYX8CG1J3C", "dateTime": 1520461042894}, {"current_trial": 126, "trialdata": {"rt": -1, "trial_type": "single-stim", "stimulus": "<p id=\"stim\">2</p>", "internal_node_id": "0.0-91.0-8.0", "time_elapsed": 565994, "key_press": -1, "trial_index": 126}, "uniqueid": "MTK3378:3KOPY89HM997Z2LVETRTGYX8CG1J3C", "dateTime": 1520461043895}, {"current_trial": 127, "trialdata": {"rt": -1, "trial_type": "single-stim", "stimulus": "<p id=\"stim\">1</p>", "internal_node_id": "0.0-91.0-9.0", "time_elapsed": 566995, "key_press": -1, "trial_index": 127}, "uniqueid": "MTK3378:3KOPY89HM997Z2LVETRTGYX8CG1J3C", "dateTime": 1520461044896}, {"current_trial": 128, "trialdata": {"rt": -1, "trial_type": "single-stim", "stimulus": "<p id=\"stim\">+</p>", "internal_node_id": "0.0-92.0-0.0", "time_elapsed": 568496, "key_press": -1, "type": "FIXATION", "trial_index": 128}, "uniqueid": "MTK3378:3KOPY89HM997Z2LVETRTGYX8CG1J3C", "dateTime": 1520461046397}, {"current_trial": 129, "trialdata": {"rt": -1000, "trial_type": "single-audio", "word": "knife", "stimulus": "/static/audio/wordpool/KNIFE.wav", "conditions": [24, 800, "a", 12000], "internal_node_id": "0.0-93.0", "trial": 3, "time_elapsed": 570218, "serialpos": 0, "key_press": -1, "wordID": 784, "type": "PRES_AUD", "trial_index": 129}, "uniqueid": "MTK3378:3KOPY89HM997Z2LVETRTGYX8CG1J3C", "dateTime": 1520461048119}, {"current_trial": 130, "trialdata": {"rt": 1550.6666666666433, "trial_type": "single-audio", "word": "guitar", "stimulus": "/static/audio/wordpool/GUITAR.wav", "conditions": [24, 800, "a", 12000], "internal_node_id": "0.0-94.0", "trial": 3, "time_elapsed": 572060, "serialpos": 1, "key_press": 183, "wordID": 669, "type": "PRES_AUD", "trial_index": 130}, "uniqueid": "MTK3378:3KOPY89HM997Z2LVETRTGYX8CG1J3C", "dateTime": 1520461049962}, {"current_trial": 131, "trialdata": {"rt": 19.99999999998181, "trial_type": "single-audio", "word": "tuba", "stimulus": "/static/audio/wordpool/TUBA.wav", "conditions": [24, 800, "a", 12000], "internal_node_id": "0.0-95.0", "trial": 3, "time_elapsed": 574003, "serialpos": 2, "key_press": 183, "wordID": 1514, "type": "PRES_AUD", "trial_index": 131}, "uniqueid": "MTK3378:3KOPY89HM997Z2LVETRTGYX8CG1J3C", "dateTime": 1520461051904}, {"current_trial": 132, "trialdata": {"rt": -1000, "trial_type": "single-audio", "word": "penguin", "stimulus": "/static/audio/wordpool/PENGUIN.wav", "conditions": [24, 800, "a", 12000], "internal_node_id": "0.0-96.0", "trial": 3, "time_elapsed": 575862, "serialpos": 3, "key_press": -1, "wordID": 1043, "type": "PRES_AUD", "trial_index": 132}, "uniqueid": "MTK3378:3KOPY89HM997Z2LVETRTGYX8CG1J3C", "dateTime": 1520461053763}, {"current_trial": 133, "trialdata": {"rt": -1000, "trial_type": "single-audio", "word": "clamp", "stimulus": "/static/audio/wordpool/CLAMP.wav", "conditions": [24, 800, "a", 12000], "internal_node_id": "0.0-97.0", "trial": 3, "time_elapsed": 577637, "serialpos": 4, "key_press": -1, "wordID": 315, "type": "PRES_AUD", "trial_index": 133}, "uniqueid": "MTK3378:3KOPY89HM997Z2LVETRTGYX8CG1J3C", "dateTime": 1520461055538}, {"current_trial": 134, "trialdata": {"rt": -1000, "trial_type": "single-audio", "word": "razor", "stimulus": "/static/audio/wordpool/RAZOR.wav", "conditions": [24, 800, "a", 12000], "internal_node_id": "0.0-98.0", "trial": 3, "time_elapsed": 579301, "serialpos": 5, "key_press": -1, "wordID": 1170, "type": "PRES_AUD", "trial_index": 134}, "uniqueid": "MTK3378:3KOPY89HM997Z2LVETRTGYX8CG1J3C", "dateTime": 1520461057202}, {"current_trial": 135, "trialdata": {"rt": -1000, "trial_type": "single-audio", "word": "hero", "stimulus": "/static/audio/wordpool/HERO.wav", "conditions": [24, 800, "a", 12000], "internal_node_id": "0.0-99.0", "trial": 3, "time_elapsed": 581186, "serialpos": 6, "key_press": -1, "wordID": 705, "type": "PRES_AUD", "trial_index": 135}, "uniqueid": "MTK3378:3KOPY89HM997Z2LVETRTGYX8CG1J3C", "dateTime": 1520461059087}, {"current_trial": 136, "trialdata": {"rt": -1000, "trial_type": "single-audio", "word": "goblin", "stimulus": "/static/audio/wordpool/GOBLIN.wav", "conditions": [24, 800, "a", 12000], "internal_node_id": "0.0-100.0", "trial": 3, "time_elapsed": 583170, "serialpos": 7, "key_press": -1, "wordID": 644, "type": "PRES_AUD", "trial_index": 136}, "uniqueid": "MTK3378:3KOPY89HM997Z2LVETRTGYX8CG1J3C", "dateTime": 1520461061071}, {"current_trial": 137, "trialdata": {"rt": -1000, "trial_type": "single-audio", "word": "beaver", "stimulus": "/static/audio/wordpool/BEAVER.wav", "conditions": [24, 800, "a", 12000], "internal_node_id": "0.0-101.0", "trial": 3, "time_elapsed": 584964, "serialpos": 8, "key_press": -1, "wordID": 108, "type": "PRES_AUD", "trial_index": 137}, "uniqueid": "MTK3378:3KOPY89HM997Z2LVETRTGYX8CG1J3C", "dateTime": 1520461062865}, {"current_trial": 138, "trialdata": {"rt": -1000, "trial_type": "single-audio", "word": "london", "stimulus": "/static/audio/wordpool/LONDON.wav", "conditions": [24, 800, "a", 12000], "internal_node_id": "0.0-102.0", "trial": 3, "time_elapsed": 586700, "serialpos": 9, "key_press": -1, "wordID": 842, "type": "PRES_AUD", "trial_index": 138}, "uniqueid": "MTK3378:3KOPY89HM997Z2LVETRTGYX8CG1J3C", "dateTime": 1520461064602}, {"current_trial": 139, "trialdata": {"rt": -1000, "trial_type": "single-audio", "word": "heart", "stimulus": "/static/audio/wordpool/HEART.wav", "conditions": [24, 800, "a", 12000], "internal_node_id": "0.0-103.0", "trial": 3, "time_elapsed": 588590, "serialpos": 10, "key_press": -1, "wordID": 696, "type": "PRES_AUD", "trial_index": 139}, "uniqueid": "MTK3378:3KOPY89HM997Z2LVETRTGYX8CG1J3C", "dateTime": 1520461066491}, {"current_trial": 140, "trialdata": {"rt": -1000, "trial_type": "single-audio", "word": "scarecrow", "stimulus": "/static/audio/wordpool/SCARECROW.wav", "conditions": [24, 800, "a", 12000], "internal_node_id": "0.0-104.0", "trial": 3, "time_elapsed": 590581, "serialpos": 11, "key_press": -1, "wordID": 1244, "type": "PRES_AUD", "trial_index": 140}, "uniqueid": "MTK3378:3KOPY89HM997Z2LVETRTGYX8CG1J3C", "dateTime": 1520461068482}, {"current_trial": 141, "trialdata": {"rt": -1000, "trial_type": "single-audio", "word": "baby", "stimulus": "/static/audio/wordpool/BABY.wav", "conditions": [24, 800, "a", 12000], "internal_node_id": "0.0-105.0", "trial": 3, "time_elapsed": 592353, "serialpos": 12, "key_press": -1, "wordID": 63, "type": "PRES_AUD", "trial_index": 141}, "uniqueid": "MTK3378:3KOPY89HM997Z2LVETRTGYX8CG1J3C", "dateTime": 1520461070254}, {"current_trial": 142, "trialdata": {"rt": -1000, "trial_type": "single-audio", "word": "bullet", "stimulus": "/static/audio/wordpool/BULLET.wav", "conditions": [24, 800, "a", 12000], "internal_node_id": "0.0-106.0", "trial": 3, "time_elapsed": 594187, "serialpos": 13, "key_press": -1, "wordID": 193, "type": "PRES_AUD", "trial_index": 142}, "uniqueid": "MTK3378:3KOPY89HM997Z2LVETRTGYX8CG1J3C", "dateTime": 1520461072088}, {"current_trial": 143, "trialdata": {"rt": -1000, "trial_type": "single-audio", "word": "zebra", "stimulus": "/static/audio/wordpool/ZEBRA.wav", "conditions": [24, 800, "a", 12000], "internal_node_id": "0.0-107.0", "trial": 3, "time_elapsed": 596137, "serialpos": 14, "key_press": -1, "wordID": 1634, "type": "PRES_AUD", "trial_index": 143}, "uniqueid": "MTK3378:3KOPY89HM997Z2LVETRTGYX8CG1J3C", "dateTime": 1520461074039}, {"current_trial": 144, "trialdata": {"rt": -1000, "trial_type": "single-audio", "word": "pigment", "stimulus": "/static/audio/wordpool/PIGMENT.wav", "conditions": [24, 800, "a", 12000], "internal_node_id": "0.0-108.0", "trial": 3, "time_elapsed": 597835, "serialpos": 15, "key_press": -1, "wordID": 1065, "type": "PRES_AUD", "trial_index": 144}, "uniqueid": "MTK3378:3KOPY89HM997Z2LVETRTGYX8CG1J3C", "dateTime": 1520461075736}, {"current_trial": 145, "trialdata": {"rt": -1000, "trial_type": "single-audio", "word": "plaid", "stimulus": "/static/audio/wordpool/PLAID.wav", "conditions": [24, 800, "a", 12000], "internal_node_id": "0.0-109.0", "trial": 3, "time_elapsed": 599764, "serialpos": 16, "key_press": -1, "wordID": 1079, "type": "PRES_AUD", "trial_index": 145}, "uniqueid": "MTK3378:3KOPY89HM997Z2LVETRTGYX8CG1J3C", "dateTime": 1520461077665}, {"current_trial": 146, "trialdata": {"rt": -1000, "trial_type": "single-audio", "word": "panther", "stimulus": "/static/audio/wordpool/PANTHER.wav", "conditions": [24, 800, "a", 12000], "internal_node_id": "0.0-110.0", "trial": 3, "time_elapsed": 601400, "serialpos": 17, "key_press": -1, "wordID": 1008, "type": "PRES_AUD", "trial_index": 146}, "uniqueid": "MTK3378:3KOPY89HM997Z2LVETRTGYX8CG1J3C", "dateTime": 1520461079301}, {"current_trial": 147, "trialdata": {"rt": -1000, "trial_type": "single-audio", "word": "cod", "stimulus": "/static/audio/wordpool/COD.wav", "conditions": [24, 800, "a", 12000], "internal_node_id": "0.0-111.0", "trial": 3, "time_elapsed": 603087, "serialpos": 18, "key_press": -1, "wordID": 339, "type": "PRES_AUD", "trial_index": 147}, "uniqueid": "MTK3378:3KOPY89HM997Z2LVETRTGYX8CG1J3C", "dateTime": 1520461080988}, {"current_trial": 148, "trialdata": {"rt": -1000, "trial_type": "single-audio", "word": "europe", "stimulus": "/static/audio/wordpool/EUROPE.wav", "conditions": [24, 800, "a", 12000], "internal_node_id": "0.0-112.0", "trial": 3, "time_elapsed": 604713, "serialpos": 19, "key_press": -1, "wordID": 540, "type": "PRES_AUD", "trial_index": 148}, "uniqueid": "MTK3378:3KOPY89HM997Z2LVETRTGYX8CG1J3C", "dateTime": 1520461082614}, {"current_trial": 149, "trialdata": {"rt": -1000, "trial_type": "single-audio", "word": "lumber", "stimulus": "/static/audio/wordpool/LUMBER.wav", "conditions": [24, 800, "a", 12000], "internal_node_id": "0.0-113.0", "trial": 3, "time_elapsed": 606542, "serialpos": 20, "key_press": -1, "wordID": 847, "type": "PRES_AUD", "trial_index": 149}, "uniqueid": "MTK3378:3KOPY89HM997Z2LVETRTGYX8CG1J3C", "dateTime": 1520461084443}, {"current_trial": 150, "trialdata": {"rt": -1000, "trial_type": "single-audio", "word": "scissors", "stimulus": "/static/audio/wordpool/SCISSORS.wav", "conditions": [24, 800, "a", 12000], "internal_node_id": "0.0-114.0", "trial": 3, "time_elapsed": 608291, "serialpos": 21, "key_press": -1, "wordID": 1249, "type": "PRES_AUD", "trial_index": 150}, "uniqueid": "MTK3378:3KOPY89HM997Z2LVETRTGYX8CG1J3C", "dateTime": 1520461086192}, {"current_trial": 151, "trialdata": {"rt": -1000, "trial_type": "single-audio", "word": "actor", "stimulus": "/static/audio/wordpool/ACTOR.wav", "conditions": [24, 800, "a", 12000], "internal_node_id": "0.0-115.0", "trial": 3, "time_elapsed": 609937, "serialpos": 22, "key_press": -1, "wordID": 4, "type": "PRES_AUD", "trial_index": 151}, "uniqueid": "MTK3378:3KOPY89HM997Z2LVETRTGYX8CG1J3C", "dateTime": 1520461087838}, {"current_trial": 152, "trialdata": {"rt": -1000, "trial_type": "single-audio", "word": "film", "stimulus": "/static/audio/wordpool/FILM.wav", "conditions": [24, 800, "a", 12000], "internal_node_id": "0.0-116.0", "trial": 3, "time_elapsed": 611629, "serialpos": 23, "key_press": -1, "wordID": 564, "type": "PRES_AUD", "trial_index": 152}, "uniqueid": "MTK3378:3KOPY89HM997Z2LVETRTGYX8CG1J3C", "dateTime": 1520461089530}, {"current_trial": 153, "trialdata": {"rt": -1, "trial_type": "single-stim", "stimulus": "", "internal_node_id": "0.0-117.0-0.0", "time_elapsed": 612832, "key_press": -1, "type": "PRE_RECALL_DELAY", "trial_index": 153}, "uniqueid": "MTK3378:3KOPY89HM997Z2LVETRTGYX8CG1J3C", "dateTime": 1520461090733}, {"current_trial": 154, "trialdata": {"rt": -1000, "trial_type": "single-audio", "stimulus": "/static/audio/400Hz.wav", "internal_node_id": "0.0-118.0", "time_elapsed": 613332, "key_press": -1, "type": "PRE_RECALL_ALERT", "trial_index": 154}, "uniqueid": "MTK3378:3KOPY89HM997Z2LVETRTGYX8CG1J3C", "dateTime": 1520461091233}, {"current_trial": 155, "trialdata": {"rt": [3134, 5348, 9485, 15514, 17212, 20949, 23954, 38870, 39905, 42873], "recwords": ["film", "actor", "scissors", "knife", "guitar", "tuba", "penguin", "scarecrow", "baby", "hero"], "key_times": [2492, 2603, 2696, 2916, 3134, 4561, 4714, 4941, 5045, 5206, 5348, 7545, 7649, 8173, 8280, 8402, 8975, 9151, 9196, 9299, 9413, 9485, 14243, 14346, 14460, 14804, 15067, 15240, 15358, 15514, 16421, 16601, 16674, 16743, 16860, 17002, 17212, 20016, 20306, 20489, 20680, 20949, 22460, 22583, 22718, 22830, 22987, 23085, 23277, 23954, 37151, 37296, 37484, 37628, 37762, 37972, 38456, 38631, 38735, 38870, 39121, 39246, 39381, 39584, 39905, 42339, 42419, 42522, 42620, 42873], "trial_type": "free-recall", "conditions": [24, 800, "a", 12000], "internal_node_id": "0.0-119.0-0.0", "key_presses": [70, 73, 76, 77, 13, 65, 67, 84, 79, 82, 13, 83, 73, 8, 67, 73, 83, 83, 79, 82, 83, 13, 75, 78, 79, 8, 73, 70, 69, 13, 71, 85, 73, 84, 65, 82, 13, 84, 85, 66, 65, 13, 80, 69, 78, 71, 85, 73, 78, 13, 83, 67, 65, 82, 69, 67, 82, 79, 87, 32, 66, 65, 66, 89, 13, 72, 69, 82, 79, 13], "trial": 3, "time_elapsed": 673335, "type": "FREE_RECALL", "trial_index": 155}, "uniqueid": "MTK3378:3KOPY89HM997Z2LVETRTGYX8CG1J3C", "dateTime": 1520461151238}, {"current_trial": 156, "trialdata": {"rt": 1655, "trial_type": "text", "internal_node_id": "0.0-120.0", "time_elapsed": 676994, "key_press": 32, "type": "INSTRUCTIONS", "trial_index": 156}, "uniqueid": "MTK3378:3KOPY89HM997Z2LVETRTGYX8CG1J3C", "dateTime": 1520461154895}, {"current_trial": 157, "trialdata": {"rt": [2192, 4340, 7462, 9203], "trial_type": "math-distractor", "key_times": [1865, 1979, 2192, 3908, 4059, 4340, 7114, 7206, 7462, 8853, 8999, 9203, 11011, 11048, 11051, 11852], "responses": ["16", "13", "12", "14"], "num2": [7, 2, 8, 3, 8], "num3": [5, 4, 3, 3, 1], "conditions": [12, 800, "a", 12000], "internal_node_id": "0.0-121.0", "key_presses": [97, 102, 13, 97, 99, 13, 97, 98, 13, 97, 100, 13, 97, 101, 100, 8], "trial": 4, "time_elapsed": 690998, "type": "DISTRACTOR", "trial_index": 157, "num1": [4, 7, 1, 8, 6]}, "uniqueid": "MTK3378:3KOPY89HM997Z2LVETRTGYX8CG1J3C", "dateTime": 1520461168899}, {"current_trial": 158, "trialdata": {"rt": -1, "trial_type": "single-stim", "stimulus": "<p id=\"stim\">10</p>", "internal_node_id": "0.0-122.0-0.0", "time_elapsed": 694000, "key_press": -1, "trial_index": 158}, "uniqueid": "MTK3378:3KOPY89HM997Z2LVETRTGYX8CG1J3C", "dateTime": 1520461171901}, {"current_trial": 159, "trialdata": {"rt": -1, "trial_type": "single-stim", "stimulus": "<p id=\"stim\">9</p>", "internal_node_id": "0.0-122.0-1.0", "time_elapsed": 695001, "key_press": -1, "trial_index": 159}, "uniqueid": "MTK3378:3KOPY89HM997Z2LVETRTGYX8CG1J3C", "dateTime": 1520461172902}, {"current_trial": 160, "trialdata": {"rt": -1, "trial_type": "single-stim", "stimulus": "<p id=\"stim\">8</p>", "internal_node_id": "0.0-122.0-2.0", "time_elapsed": 696001, "key_press": -1, "trial_index": 160}, "uniqueid": "MTK3378:3KOPY89HM997Z2LVETRTGYX8CG1J3C", "dateTime": 1520461173903}, {"current_trial": 161, "trialdata": {"rt": -1, "trial_type": "single-stim", "stimulus": "<p id=\"stim\">7</p>", "internal_node_id": "0.0-122.0-3.0", "time_elapsed": 697003, "key_press": -1, "trial_index": 161}, "uniqueid": "MTK3378:3KOPY89HM997Z2LVETRTGYX8CG1J3C", "dateTime": 1520461174904}, {"current_trial": 162, "trialdata": {"rt": -1, "trial_type": "single-stim", "stimulus": "<p id=\"stim\">6</p>", "internal_node_id": "0.0-122.0-4.0", "time_elapsed": 698003, "key_press": -1, "trial_index": 162}, "uniqueid": "MTK3378:3KOPY89HM997Z2LVETRTGYX8CG1J3C", "dateTime": 1520461175905}, {"current_trial": 163, "trialdata": {"rt": -1, "trial_type": "single-stim", "stimulus": "<p id=\"stim\">5</p>", "internal_node_id": "0.0-122.0-5.0", "time_elapsed": 699005, "key_press": -1, "trial_index": 163}, "uniqueid": "MTK3378:3KOPY89HM997Z2LVETRTGYX8CG1J3C", "dateTime": 1520461176906}, {"current_trial": 164, "trialdata": {"rt": -1, "trial_type": "single-stim", "stimulus": "<p id=\"stim\">4</p>", "internal_node_id": "0.0-122.0-6.0", "time_elapsed": 700005, "key_press": -1, "trial_index": 164}, "uniqueid": "MTK3378:3KOPY89HM997Z2LVETRTGYX8CG1J3C", "dateTime": 1520461177906}, {"current_trial": 165, "trialdata": {"rt": -1, "trial_type": "single-stim", "stimulus": "<p id=\"stim\">3</p>", "internal_node_id": "0.0-122.0-7.0", "time_elapsed": 701006, "key_press": -1, "trial_index": 165}, "uniqueid": "MTK3378:3KOPY89HM997Z2LVETRTGYX8CG1J3C", "dateTime": 1520461178907}, {"current_trial": 166, "trialdata": {"rt": -1, "trial_type": "single-stim", "stimulus": "<p id=\"stim\">2</p>", "internal_node_id": "0.0-122.0-8.0", "time_elapsed": 702007, "key_press": -1, "trial_index": 166}, "uniqueid": "MTK3378:3KOPY89HM997Z2LVETRTGYX8CG1J3C", "dateTime": 1520461179908}, {"current_trial": 167, "trialdata": {"rt": -1, "trial_type": "single-stim", "stimulus": "<p id=\"stim\">1</p>", "internal_node_id": "0.0-122.0-9.0", "time_elapsed": 703008, "key_press": -1, "trial_index": 167}, "uniqueid": "MTK3378:3KOPY89HM997Z2LVETRTGYX8CG1J3C", "dateTime": 1520461180909}, {"current_trial": 168, "trialdata": {"rt": -1, "trial_type": "single-stim", "stimulus": "<p id=\"stim\">+</p>", "internal_node_id": "0.0-123.0-0.0", "time_elapsed": 704509, "key_press": -1, "type": "FIXATION", "trial_index": 168}, "uniqueid": "MTK3378:3KOPY89HM997Z2LVETRTGYX8CG1J3C", "dateTime": 1520461182411}, {"current_trial": 169, "trialdata": {"rt": -1000, "trial_type": "single-audio", "word": "coffee", "stimulus": "/static/audio/wordpool/COFFEE.wav", "conditions": [12, 800, "a", 12000], "internal_node_id": "0.0-124.0", "trial": 4, "time_elapsed": 706251, "serialpos": 0, "key_press": -1, "wordID": 340, "type": "PRES_AUD", "trial_index": 169}, "uniqueid": "MTK3378:3KOPY89HM997Z2LVETRTGYX8CG1J3C", "dateTime": 1520461184152}, {"current_trial": 170, "trialdata": {"rt": -1000, "trial_type": "single-audio", "word": "highway", "stimulus": "/static/audio/wordpool/HIGHWAY.wav", "conditions": [12, 800, "a", 12000], "internal_node_id": "0.0-125.0", "trial": 4, "time_elapsed": 708046, "serialpos": 1, "key_press": -1, "wordID": 706, "type": "PRES_AUD", "trial_index": 170}, "uniqueid": "MTK3378:3KOPY89HM997Z2LVETRTGYX8CG1J3C", "dateTime": 1520461185947}, {"current_trial": 171, "trialdata": {"rt": -1000, "trial_type": "single-audio", "word": "passage", "stimulus": "/static/audio/wordpool/PASSAGE.wav", "conditions": [12, 800, "a", 12000], "internal_node_id": "0.0-126.0", "trial": 4, "time_elapsed": 709813, "serialpos": 2, "key_press": -1, "wordID": 1018, "type": "PRES_AUD", "trial_index": 171}, "uniqueid": "MTK3378:3KOPY89HM997Z2LVETRTGYX8CG1J3C", "dateTime": 1520461187715}, {"current_trial": 172, "trialdata": {"rt": -1000, "trial_type": "single-audio", "word": "wrist", "stimulus": "/static/audio/wordpool/WRIST.wav", "conditions": [12, 800, "a", 12000], "internal_node_id": "0.0-127.0", "trial": 4, "time_elapsed": 711428, "serialpos": 3, "key_press": -1, "wordID": 1625, "type": "PRES_AUD", "trial_index": 172}, "uniqueid": "MTK3378:3KOPY89HM997Z2LVETRTGYX8CG1J3C", "dateTime": 1520461189329}, {"current_trial": 173, "trialdata": {"rt": -1000, "trial_type": "single-audio", "word": "shoulder", "stimulus": "/static/audio/wordpool/SHOULDER.wav", "conditions": [12, 800, "a", 12000], "internal_node_id": "0.0-128.0", "trial": 4, "time_elapsed": 713261, "serialpos": 4, "key_press": -1, "wordID": 1293, "type": "PRES_AUD", "trial_index": 173}, "uniqueid": "MTK3378:3KOPY89HM997Z2LVETRTGYX8CG1J3C", "dateTime": 1520461191162}, {"current_trial": 174, "trialdata": {"rt": -1000, "trial_type": "single-audio", "word": "pimple", "stimulus": "/static/audio/wordpool/PIMPLE.wav", "conditions": [12, 800, "a", 12000], "internal_node_id": "0.0-129.0", "trial": 4, "time_elapsed": 715033, "serialpos": 5, "key_press": -1, "wordID": 1070, "type": "PRES_AUD", "trial_index": 174}, "uniqueid": "MTK3378:3KOPY89HM997Z2LVETRTGYX8CG1J3C", "dateTime": 1520461192934}, {"current_trial": 175, "trialdata": {"rt": -1000, "trial_type": "single-audio", "word": "actress", "stimulus": "/static/audio/wordpool/ACTRESS.wav", "conditions": [12, 800, "a", 12000], "internal_node_id": "0.0-130.0", "trial": 4, "time_elapsed": 716735, "serialpos": 6, "key_press": -1, "wordID": 5, "type": "PRES_AUD", "trial_index": 175}, "uniqueid": "MTK3378:3KOPY89HM997Z2LVETRTGYX8CG1J3C", "dateTime": 1520461194636}, {"current_trial": 176, "trialdata": {"rt": -1000, "trial_type": "single-audio", "word": "lamp", "stimulus": "/static/audio/wordpool/LAMP.wav", "conditions": [12, 800, "a", 12000], "internal_node_id": "0.0-131.0", "trial": 4, "time_elapsed": 718380, "serialpos": 7, "key_press": -1, "wordID": 797, "type": "PRES_AUD", "trial_index": 176}, "uniqueid": "MTK3378:3KOPY89HM997Z2LVETRTGYX8CG1J3C", "dateTime": 1520461196281}, {"current_trial": 177, "trialdata": {"rt": -1000, "trial_type": "single-audio", "word": "palace", "stimulus": "/static/audio/wordpool/PALACE.wav", "conditions": [12, 800, "a", 12000], "internal_node_id": "0.0-132.0", "trial": 4, "time_elapsed": 720001, "serialpos": 8, "key_press": -1, "wordID": 1005, "type": "PRES_AUD", "trial_index": 177}, "uniqueid": "MTK3378:3KOPY89HM997Z2LVETRTGYX8CG1J3C", "dateTime": 1520461197902}, {"current_trial": 178, "trialdata": {"rt": -1000, "trial_type": "single-audio", "word": "onion", "stimulus": "/static/audio/wordpool/ONION.wav", "conditions": [12, 800, "a", 12000], "internal_node_id": "0.0-133.0", "trial": 4, "time_elapsed": 721680, "serialpos": 9, "key_press": -1, "wordID": 976, "type": "PRES_AUD", "trial_index": 178}, "uniqueid": "MTK3378:3KOPY89HM997Z2LVETRTGYX8CG1J3C", "dateTime": 1520461199581}, {"current_trial": 179, "trialdata": {"rt": -1000, "trial_type": "single-audio", "word": "freckle", "stimulus": "/static/audio/wordpool/FRECKLE.wav", "conditions": [12, 800, "a", 12000], "internal_node_id": "0.0-134.0", "trial": 4, "time_elapsed": 723661, "serialpos": 10, "key_press": -1, "wordID": 601, "type": "PRES_AUD", "trial_index": 179}, "uniqueid": "MTK3378:3KOPY89HM997Z2LVETRTGYX8CG1J3C", "dateTime": 1520461201562}, {"current_trial": 180, "trialdata": {"rt": -1000, "trial_type": "single-audio", "word": "arm", "stimulus": "/static/audio/wordpool/ARM.wav", "conditions": [12, 800, "a", 12000], "internal_node_id": "0.0-135.0", "trial": 4, "time_elapsed": 725419, "serialpos": 11, "key_press": -1, "wordID": 37, "type": "PRES_AUD", "trial_index": 180}, "uniqueid": "MTK3378:3KOPY89HM997Z2LVETRTGYX8CG1J3C", "dateTime": 1520461203320}, {"current_trial": 181, "trialdata": {"rt": -1, "trial_type": "single-stim", "stimulus": "", "internal_node_id": "0.0-136.0-0.0", "time_elapsed": 726794, "key_press": -1, "type": "PRE_RECALL_DELAY", "trial_index": 181}, "uniqueid": "MTK3378:3KOPY89HM997Z2LVETRTGYX8CG1J3C", "dateTime": 1520461204695}, {"current_trial": 182, "trialdata": {"rt": -1000, "trial_type": "single-audio", "stimulus": "/static/audio/400Hz.wav", "internal_node_id": "0.0-137.0", "time_elapsed": 727295, "key_press": -1, "type": "PRE_RECALL_ALERT", "trial_index": 182}, "uniqueid": "MTK3378:3KOPY89HM997Z2LVETRTGYX8CG1J3C", "dateTime": 1520461205196}, {"current_trial": 183, "trialdata": {"rt": [2734, 4037, 5034, 14143, 15436, 18615, 36204, 37609, 39488, 41542], "recwords": ["pimple", "actress", "arm", "highway", "passage", "coffee", "passage", "hand", "wrist", "shoulder"], "key_times": [1704, 1868, 1996, 2260, 2513, 2643, 2734, 2870, 2984, 3276, 3487, 3548, 3665, 3883, 4037, 4302, 4437, 4598, 5034, 12353, 12452, 12867, 13023, 13345, 13539, 13747, 14143, 14531, 14685, 14762, 14953, 15090, 15179, 15288, 15436, 16990, 17105, 17476, 17695, 18176, 18220, 18314, 18518, 18615, 35206, 35334, 35427, 35611, 35765, 35878, 35984, 36204, 37094, 37216, 37339, 37436, 37609, 38906, 39039, 39144, 39242, 39330, 39488, 40491, 40698, 40791, 40927, 41035, 41135, 41325, 41417, 41542], "trial_type": "free-recall", "conditions": [12, 800, "a", 12000], "internal_node_id": "0.0-138.0-0.0", "key_presses": [80, 73, 77, 80, 76, 69, 32, 65, 67, 84, 82, 69, 83, 83, 13, 65, 82, 77, 13, 72, 73, 71, 72, 87, 65, 89, 13, 80, 65, 83, 83, 65, 71, 69, 13, 67, 79, 70, 69, 8, 70, 69, 69, 13, 80, 65, 83, 83, 65, 71, 69, 13, 72, 65, 78, 68, 13, 87, 82, 73, 83, 84, 13, 83, 72, 79, 85, 76, 68, 69, 82, 13], "trial": 4, "time_elapsed": 787297, "type": "FREE_RECALL", "trial_index": 183}, "uniqueid": "MTK3378:3KOPY89HM997Z2LVETRTGYX8CG1J3C", "dateTime": 1520461265202}, {"current_trial": 184, "trialdata": {"rt": 2712, "trial_type": "text", "internal_node_id": "0.0-139.0", "time_elapsed": 792013, "key_press": 32, "type": "INSTRUCTIONS", "trial_index": 184}, "uniqueid": "MTK3378:3KOPY89HM997Z2LVETRTGYX8CG1J3C", "dateTime": 1520461269914}, {"current_trial": 185, "trialdata": {"rt": [2221, 4301, 6440, 8122, 10720, 12622, 14383, 16045, 17620, 20212, 22590], "trial_type": "math-distractor", "key_times": [1673, 1819, 2221, 4008, 4166, 4301, 6094, 6200, 6440, 7744, 7853, 8122, 10185, 10426, 10720, 12316, 12401, 12622, 13904, 14137, 14383, 15768, 15920, 16045, 17362, 17419, 17620, 19716, 19996, 20212, 22219, 22386, 22590], "responses": ["19", "10", "19", "18", "18", "16", "17", "10", "15", "23", "14"], "num2": [9, 4, 3, 8, 9, 1, 8, 2, 7, 8, 4, 1], "num3": [1, 3, 8, 7, 4, 7, 8, 5, 1, 6, 8, 8], "conditions": [12, 1600, "a", 24000], "internal_node_id": "0.0-140.0", "key_presses": [97, 105, 13, 97, 96, 13, 97, 105, 13, 97, 104, 13, 97, 104, 13, 97, 102, 13, 97, 103, 13, 97, 96, 13, 97, 101, 13, 98, 99, 13, 97, 100, 13], "trial": 5, "time_elapsed": 818016, "type": "DISTRACTOR", "trial_index": 185, "num1": [9, 3, 8, 3, 5, 8, 1, 3, 7, 7, 2, 3]}, "uniqueid": "MTK3378:3KOPY89HM997Z2LVETRTGYX8CG1J3C", "dateTime": 1520461295917}, {"current_trial": 186, "trialdata": {"rt": -1, "trial_type": "single-stim", "stimulus": "<p id=\"stim\">10</p>", "internal_node_id": "0.0-141.0-0.0", "time_elapsed": 821018, "key_press": -1, "trial_index": 186}, "uniqueid": "MTK3378:3KOPY89HM997Z2LVETRTGYX8CG1J3C", "dateTime": 1520461298919}, {"current_trial": 187, "trialdata": {"rt": -1, "trial_type": "single-stim", "stimulus": "<p id=\"stim\">9</p>", "internal_node_id": "0.0-141.0-1.0", "time_elapsed": 822019, "key_press": -1, "trial_index": 187}, "uniqueid": "MTK3378:3KOPY89HM997Z2LVETRTGYX8CG1J3C", "dateTime": 1520461299921}, {"current_trial": 188, "trialdata": {"rt": -1, "trial_type": "single-stim", "stimulus": "<p id=\"stim\">8</p>", "internal_node_id": "0.0-141.0-2.0", "time_elapsed": 823021, "key_press": -1, "trial_index": 188}, "uniqueid": "MTK3378:3KOPY89HM997Z2LVETRTGYX8CG1J3C", "dateTime": 1520461300922}, {"current_trial": 189, "trialdata": {"rt": -1, "trial_type": "single-stim", "stimulus": "<p id=\"stim\">7</p>", "internal_node_id": "0.0-141.0-3.0", "time_elapsed": 824021, "key_press": -1, "trial_index": 189}, "uniqueid": "MTK3378:3KOPY89HM997Z2LVETRTGYX8CG1J3C", "dateTime": 1520461301923}, {"current_trial": 190, "trialdata": {"rt": -1, "trial_type": "single-stim", "stimulus": "<p id=\"stim\">6</p>", "internal_node_id": "0.0-141.0-4.0", "time_elapsed": 825022, "key_press": -1, "trial_index": 190}, "uniqueid": "MTK3378:3KOPY89HM997Z2LVETRTGYX8CG1J3C", "dateTime": 1520461302924}, {"current_trial": 191, "trialdata": {"rt": -1, "trial_type": "single-stim", "stimulus": "<p id=\"stim\">5</p>", "internal_node_id": "0.0-141.0-5.0", "time_elapsed": 826023, "key_press": -1, "trial_index": 191}, "uniqueid": "MTK3378:3KOPY89HM997Z2LVETRTGYX8CG1J3C", "dateTime": 1520461303924}, {"current_trial": 192, "trialdata": {"rt": -1, "trial_type": "single-stim", "stimulus": "<p id=\"stim\">4</p>", "internal_node_id": "0.0-141.0-6.0", "time_elapsed": 827024, "key_press": -1, "trial_index": 192}, "uniqueid": "MTK3378:3KOPY89HM997Z2LVETRTGYX8CG1J3C", "dateTime": 1520461304925}, {"current_trial": 193, "trialdata": {"rt": -1, "trial_type": "single-stim", "stimulus": "<p id=\"stim\">3</p>", "internal_node_id": "0.0-141.0-7.0", "time_elapsed": 828025, "key_press": -1, "trial_index": 193}, "uniqueid": "MTK3378:3KOPY89HM997Z2LVETRTGYX8CG1J3C", "dateTime": 1520461305926}, {"current_trial": 194, "trialdata": {"rt": -1, "trial_type": "single-stim", "stimulus": "<p id=\"stim\">2</p>", "internal_node_id": "0.0-141.0-8.0", "time_elapsed": 829026, "key_press": -1, "trial_index": 194}, "uniqueid": "MTK3378:3KOPY89HM997Z2LVETRTGYX8CG1J3C", "dateTime": 1520461306927}, {"current_trial": 195, "trialdata": {"rt": -1, "trial_type": "single-stim", "stimulus": "<p id=\"stim\">1</p>", "internal_node_id": "0.0-141.0-9.0", "time_elapsed": 830027, "key_press": -1, "trial_index": 195}, "uniqueid": "MTK3378:3KOPY89HM997Z2LVETRTGYX8CG1J3C", "dateTime": 1520461307928}, {"current_trial": 196, "trialdata": {"rt": -1, "trial_type": "single-stim", "stimulus": "<p id=\"stim\">+</p>", "internal_node_id": "0.0-142.0-0.0", "time_elapsed": 831529, "key_press": -1, "type": "FIXATION", "trial_index": 196}, "uniqueid": "MTK3378:3KOPY89HM997Z2LVETRTGYX8CG1J3C", "dateTime": 1520461309430}, {"current_trial": 197, "trialdata": {"rt": -1000, "trial_type": "single-audio", "word": "soda", "stimulus": "/static/audio/wordpool/SODA.wav", "conditions": [12, 1600, "a", 24000], "internal_node_id": "0.0-143.0", "trial": 5, "time_elapsed": 834047, "serialpos": 0, "key_press": -1, "wordID": 1340, "type": "PRES_AUD", "trial_index": 197}, "uniqueid": "MTK3378:3KOPY89HM997Z2LVETRTGYX8CG1J3C", "dateTime": 1520461311948}, {"current_trial": 198, "trialdata": {"rt": -1000, "trial_type": "single-audio", "word": "frame", "stimulus": "/static/audio/wordpool/FRAME.wav", "conditions": [12, 1600, "a", 24000], "internal_node_id": "0.0-144.0", "trial": 5, "time_elapsed": 836564, "serialpos": 1, "key_press": -1, "wordID": 599, "type": "PRES_AUD", "trial_index": 198}, "uniqueid": "MTK3378:3KOPY89HM997Z2LVETRTGYX8CG1J3C", "dateTime": 1520461314465}, {"current_trial": 199, "trialdata": {"rt": -1000, "trial_type": "single-audio", "word": "banjo", "stimulus": "/static/audio/wordpool/BANJO.wav", "conditions": [12, 1600, "a", 24000], "internal_node_id": "0.0-145.0", "trial": 5, "time_elapsed": 839172, "serialpos": 2, "key_press": -1, "wordID": 81, "type": "PRES_AUD", "trial_index": 199}, "uniqueid": "MTK3378:3KOPY89HM997Z2LVETRTGYX8CG1J3C", "dateTime": 1520461317073}, {"current_trial": 200, "trialdata": {"rt": -1000, "trial_type": "single-audio", "word": "marrow", "stimulus": "/static/audio/wordpool/MARROW.wav", "conditions": [12, 1600, "a", 24000], "internal_node_id": "0.0-146.0", "trial": 5, "time_elapsed": 841784, "serialpos": 3, "key_press": -1, "wordID": 871, "type": "PRES_AUD", "trial_index": 200}, "uniqueid": "MTK3378:3KOPY89HM997Z2LVETRTGYX8CG1J3C", "dateTime": 1520461319686}, {"current_trial": 201, "trialdata": {"rt": -1000, "trial_type": "single-audio", "word": "lapel", "stimulus": "/static/audio/wordpool/LAPEL.wav", "conditions": [12, 1600, "a", 24000], "internal_node_id": "0.0-147.0", "trial": 5, "time_elapsed": 844453, "serialpos": 4, "key_press": -1, "wordID": 799, "type": "PRES_AUD", "trial_index": 201}, "uniqueid": "MTK3378:3KOPY89HM997Z2LVETRTGYX8CG1J3C", "dateTime": 1520461322355}, {"current_trial": 202, "trialdata": {"rt": -1000, "trial_type": "single-audio", "word": "garlic", "stimulus": "/static/audio/wordpool/GARLIC.wav", "conditions": [12, 1600, "a", 24000], "internal_node_id": "0.0-148.0", "trial": 5, "time_elapsed": 846916, "serialpos": 5, "key_press": -1, "wordID": 623, "type": "PRES_AUD", "trial_index": 202}, "uniqueid": "MTK3378:3KOPY89HM997Z2LVETRTGYX8CG1J3C", "dateTime": 1520461324817}, {"current_trial": 203, "trialdata": {"rt": -1000, "trial_type": "single-audio", "word": "bank", "stimulus": "/static/audio/wordpool/BANK.wav", "conditions": [12, 1600, "a", 24000], "internal_node_id": "0.0-149.0", "trial": 5, "time_elapsed": 849610, "serialpos": 6, "key_press": -1, "wordID": 82, "type": "PRES_AUD", "trial_index": 203}, "uniqueid": "MTK3378:3KOPY89HM997Z2LVETRTGYX8CG1J3C", "dateTime": 1520461327511}, {"current_trial": 204, "trialdata": {"rt": -1000, "trial_type": "single-audio", "word": "money", "stimulus": "/static/audio/wordpool/MONEY.wav", "conditions": [12, 1600, "a", 24000], "internal_node_id": "0.0-150.0", "trial": 5, "time_elapsed": 852035, "serialpos": 7, "key_press": -1, "wordID": 907, "type": "PRES_AUD", "trial_index": 204}, "uniqueid": "MTK3378:3KOPY89HM997Z2LVETRTGYX8CG1J3C", "dateTime": 1520461329936}, {"current_trial": 205, "trialdata": {"rt": -1000, "trial_type": "single-audio", "word": "drink", "stimulus": "/static/audio/wordpool/DRINK.wav", "conditions": [12, 1600, "a", 24000], "internal_node_id": "0.0-151.0", "trial": 5, "time_elapsed": 854585, "serialpos": 8, "key_press": -1, "wordID": 497, "type": "PRES_AUD", "trial_index": 205}, "uniqueid": "MTK3378:3KOPY89HM997Z2LVETRTGYX8CG1J3C", "dateTime": 1520461332486}, {"current_trial": 206, "trialdata": {"rt": -1000, "trial_type": "single-audio", "word": "pecan", "stimulus": "/static/audio/wordpool/PECAN.wav", "conditions": [12, 1600, "a", 24000], "internal_node_id": "0.0-152.0", "trial": 5, "time_elapsed": 857034, "serialpos": 9, "key_press": -1, "wordID": 1035, "type": "PRES_AUD", "trial_index": 206}, "uniqueid": "MTK3378:3KOPY89HM997Z2LVETRTGYX8CG1J3C", "dateTime": 1520461334935}, {"current_trial": 207, "trialdata": {"rt": -1000, "trial_type": "single-audio", "word": "church", "stimulus": "/static/audio/wordpool/CHURCH.wav", "conditions": [12, 1600, "a", 24000], "internal_node_id": "0.0-153.0", "trial": 5, "time_elapsed": 859760, "serialpos": 10, "key_press": -1, "wordID": 306, "type": "PRES_AUD", "trial_index": 207}, "uniqueid": "MTK3378:3KOPY89HM997Z2LVETRTGYX8CG1J3C", "dateTime": 1520461337661}, {"current_trial": 208, "trialdata": {"rt": -1000, "trial_type": "single-audio", "word": "chapel", "stimulus": "/static/audio/wordpool/CHAPEL.wav", "conditions": [12, 1600, "a", 24000], "internal_node_id": "0.0-154.0", "trial": 5, "time_elapsed": 862257, "serialpos": 11, "key_press": -1, "wordID": 279, "type": "PRES_AUD", "trial_index": 208}, "uniqueid": "MTK3378:3KOPY89HM997Z2LVETRTGYX8CG1J3C", "dateTime": 1520461340158}, {"current_trial": 209, "trialdata": {"rt": -1, "trial_type": "single-stim", "stimulus": "", "internal_node_id": "0.0-155.0-0.0", "time_elapsed": 863550, "key_press": -1, "type": "PRE_RECALL_DELAY", "trial_index": 209}, "uniqueid": "MTK3378:3KOPY89HM997Z2LVETRTGYX8CG1J3C", "dateTime": 1520461341451}, {"current_trial": 210, "trialdata": {"rt": -1000, "trial_type": "single-audio", "stimulus": "/static/audio/400Hz.wav", "internal_node_id": "0.0-156.0", "time_elapsed": 864051, "key_press": -1, "type": "PRE_RECALL_ALERT", "trial_index": 210}, "uniqueid": "MTK3378:3KOPY89HM997Z2LVETRTGYX8CG1J3C", "dateTime": 1520461341952}, {"current_trial": 211, "trialdata": {"rt": [2907, 4260, 5392, 7725, 13833, 14909, 16489, 19270, 22102, 29894, 32547], "recwords": ["chapel", "church", "marrow", "lapel", "soda", "drink", "pecan", "frame", "banjo", "bank", "money"], "key_times": [2273, 2358, 2474, 2556, 2695, 2796, 2907, 3044, 3164, 3360, 3480, 3680, 3749, 4260, 4635, 4759, 4877, 5038, 5133, 5257, 5392, 6951, 7095, 7203, 7339, 7462, 7725, 13333, 13451, 13601, 13718, 13833, 14207, 14411, 14474, 14591, 14711, 14909, 15777, 15859, 16024, 16132, 16257, 16489, 18158, 18373, 18613, 18881, 19049, 19270, 20942, 21036, 21223, 21611, 21755, 22102, 28719, 28887, 29038, 29129, 29894, 31672, 31757, 31961, 32141, 32262, 32547, 36493, 36610, 36722, 36879, 36992, 37201, 37255, 39474, 39976, 40006, 40038, 40068, 40103, 40134, 40165, 40201, 40232, 40265, 40296, 40326, 40359, 40392, 40423, 40457, 40488, 40519, 40555, 40586, 40617, 40651, 40682, 40713, 40744], "trial_type": "free-recall", "conditions": [12, 1600, "a", 24000], "internal_node_id": "0.0-157.0-0.0", "key_presses": [67, 72, 65, 80, 69, 76, 32, 67, 72, 85, 82, 67, 72, 13, 77, 65, 82, 82, 79, 87, 13, 76, 65, 80, 69, 76, 13, 83, 79, 68, 65, 13, 68, 82, 73, 78, 75, 13, 80, 69, 67, 65, 78, 13, 70, 82, 65, 77, 69, 13, 66, 65, 78, 74, 79, 13, 66, 65, 78, 75, 13, 77, 79, 78, 69, 89, 13, 71, 73, 82, 65, 70, 70, 69, 8, 8, 8, 8, 8, 8, 8, 8, 8, 8, 8, 8, 8, 8, 8, 8, 8, 8, 8, 8, 8, 8, 8, 8, 8, 8], "trial": 5, "time_elapsed": 924053, "type": "FREE_RECALL", "trial_index": 211}, "uniqueid": "MTK3378:3KOPY89HM997Z2LVETRTGYX8CG1J3C", "dateTime": 1520461401958}, {"current_trial": 212, "trialdata": {"rt": 1362, "trial_type": "text", "internal_node_id": "0.0-158.0", "time_elapsed": 927419, "key_press": 32, "type": "INSTRUCTIONS", "trial_index": 212}, "uniqueid": "MTK3378:3KOPY89HM997Z2LVETRTGYX8CG1J3C", "dateTime": 1520461405320}, {"current_trial": 213, "trialdata": {"rt": [2827, 5455, 7816, 9485, 11157, 14229, 16940, 19955, 22918], "trial_type": "math-distractor", "key_times": [2073, 2527, 2827, 5125, 5301, 5455, 7476, 7636, 7816, 9288, 9485, 10843, 10931, 11157, 13380, 13986, 14229, 16246, 16350, 16940, 19671, 19816, 19955, 21491, 22217, 22513, 22689, 22918], "responses": ["12", "20", "21", "5", "15", "25", "13", "20", "14"], "num2": [1, 7, 9, 3, 5, 8, 5, 8, 9, 9], "num3": [7, 8, 3, 1, 1, 7, 6, 7, 1, 6], "conditions": [12, 800, "a", 24000], "internal_node_id": "0.0-159.0", "key_presses": [97, 98, 13, 98, 96, 13, 98, 97, 13, 101, 13, 97, 101, 13, 98, 101, 13, 97, 99, 13, 98, 96, 13, 100, 8, 97, 100, 13], "trial": 6, "time_elapsed": 953424, "type": "DISTRACTOR", "trial_index": 213, "num1": [4, 5, 9, 1, 9, 8, 2, 5, 4, 8]}, "uniqueid": "MTK3378:3KOPY89HM997Z2LVETRTGYX8CG1J3C", "dateTime": 1520461431325}, {"current_trial": 214, "trialdata": {"rt": -1, "trial_type": "single-stim", "stimulus": "<p id=\"stim\">10</p>", "internal_node_id": "0.0-160.0-0.0", "time_elapsed": 956425, "key_press": -1, "trial_index": 214}, "uniqueid": "MTK3378:3KOPY89HM997Z2LVETRTGYX8CG1J3C", "dateTime": 1520461434326}, {"current_trial": 215, "trialdata": {"rt": -1, "trial_type": "single-stim", "stimulus": "<p id=\"stim\">9</p>", "internal_node_id": "0.0-160.0-1.0", "time_elapsed": 957426, "key_press": -1, "trial_index": 215}, "uniqueid": "MTK3378:3KOPY89HM997Z2LVETRTGYX8CG1J3C", "dateTime": 1520461435327}, {"current_trial": 216, "trialdata": {"rt": -1, "trial_type": "single-stim", "stimulus": "<p id=\"stim\">8</p>", "internal_node_id": "0.0-160.0-2.0", "time_elapsed": 958427, "key_press": -1, "trial_index": 216}, "uniqueid": "MTK3378:3KOPY89HM997Z2LVETRTGYX8CG1J3C", "dateTime": 1520461436328}, {"current_trial": 217, "trialdata": {"rt": -1, "trial_type": "single-stim", "stimulus": "<p id=\"stim\">7</p>", "internal_node_id": "0.0-160.0-3.0", "time_elapsed": 959431, "key_press": -1, "trial_index": 217}, "uniqueid": "MTK3378:3KOPY89HM997Z2LVETRTGYX8CG1J3C", "dateTime": 1520461437332}, {"current_trial": 218, "trialdata": {"rt": -1, "trial_type": "single-stim", "stimulus": "<p id=\"stim\">6</p>", "internal_node_id": "0.0-160.0-4.0", "time_elapsed": 960433, "key_press": -1, "trial_index": 218}, "uniqueid": "MTK3378:3KOPY89HM997Z2LVETRTGYX8CG1J3C", "dateTime": 1520461438334}, {"current_trial": 219, "trialdata": {"rt": -1, "trial_type": "single-stim", "stimulus": "<p id=\"stim\">5</p>", "internal_node_id": "0.0-160.0-5.0", "time_elapsed": 961434, "key_press": -1, "trial_index": 219}, "uniqueid": "MTK3378:3KOPY89HM997Z2LVETRTGYX8CG1J3C", "dateTime": 1520461439335}, {"current_trial": 220, "trialdata": {"rt": -1, "trial_type": "single-stim", "stimulus": "<p id=\"stim\">4</p>", "internal_node_id": "0.0-160.0-6.0", "time_elapsed": 962435, "key_press": -1, "trial_index": 220}, "uniqueid": "MTK3378:3KOPY89HM997Z2LVETRTGYX8CG1J3C", "dateTime": 1520461440336}, {"current_trial": 221, "trialdata": {"rt": -1, "trial_type": "single-stim", "stimulus": "<p id=\"stim\">3</p>", "internal_node_id": "0.0-160.0-7.0", "time_elapsed": 963436, "key_press": -1, "trial_index": 221}, "uniqueid": "MTK3378:3KOPY89HM997Z2LVETRTGYX8CG1J3C", "dateTime": 1520461441337}, {"current_trial": 222, "trialdata": {"rt": -1, "trial_type": "single-stim", "stimulus": "<p id=\"stim\">2</p>", "internal_node_id": "0.0-160.0-8.0", "time_elapsed": 964437, "key_press": -1, "trial_index": 222}, "uniqueid": "MTK3378:3KOPY89HM997Z2LVETRTGYX8CG1J3C", "dateTime": 1520461442339}, {"current_trial": 223, "trialdata": {"rt": -1, "trial_type": "single-stim", "stimulus": "<p id=\"stim\">1</p>", "internal_node_id": "0.0-160.0-9.0", "time_elapsed": 965439, "key_press": -1, "trial_index": 223}, "uniqueid": "MTK3378:3KOPY89HM997Z2LVETRTGYX8CG1J3C", "dateTime": 1520461443340}, {"current_trial": 224, "trialdata": {"rt": -1, "trial_type": "single-stim", "stimulus": "<p id=\"stim\">+</p>", "internal_node_id": "0.0-161.0-0.0", "time_elapsed": 966940, "key_press": -1, "type": "FIXATION", "trial_index": 224}, "uniqueid": "MTK3378:3KOPY89HM997Z2LVETRTGYX8CG1J3C", "dateTime": 1520461444841}, {"current_trial": 225, "trialdata": {"rt": -1000, "trial_type": "single-audio", "word": "statue", "stimulus": "/static/audio/wordpool/STATUE.wav", "conditions": [12, 800, "a", 24000], "internal_node_id": "0.0-162.0", "trial": 6, "time_elapsed": 968805, "serialpos": 0, "key_press": -1, "wordID": 1373, "type": "PRES_AUD", "trial_index": 225}, "uniqueid": "MTK3378:3KOPY89HM997Z2LVETRTGYX8CG1J3C", "dateTime": 1520461446706}, {"current_trial": 226, "trialdata": {"rt": -1000, "trial_type": "single-audio", "word": "orchid", "stimulus": "/static/audio/wordpool/ORCHID.wav", "conditions": [12, 800, "a", 24000], "internal_node_id": "0.0-163.0", "trial": 6, "time_elapsed": 970752, "serialpos": 1, "key_press": -1, "wordID": 981, "type": "PRES_AUD", "trial_index": 226}, "uniqueid": "MTK3378:3KOPY89HM997Z2LVETRTGYX8CG1J3C", "dateTime": 1520461448654}, {"current_trial": 227, "trialdata": {"rt": -1000, "trial_type": "single-audio", "word": "garden", "stimulus": "/static/audio/wordpool/GARDEN.wav", "conditions": [12, 800, "a", 24000], "internal_node_id": "0.0-164.0", "trial": 6, "time_elapsed": 972573, "serialpos": 2, "key_press": -1, "wordID": 622, "type": "PRES_AUD", "trial_index": 227}, "uniqueid": "MTK3378:3KOPY89HM997Z2LVETRTGYX8CG1J3C", "dateTime": 1520461450474}, {"current_trial": 228, "trialdata": {"rt": -1000, "trial_type": "single-audio", "word": "tombstone", "stimulus": "/static/audio/wordpool/TOMBSTONE.wav", "conditions": [12, 800, "a", 24000], "internal_node_id": "0.0-165.0", "trial": 6, "time_elapsed": 974204, "serialpos": 3, "key_press": -1, "wordID": 1477, "type": "PRES_AUD", "trial_index": 228}, "uniqueid": "MTK3378:3KOPY89HM997Z2LVETRTGYX8CG1J3C", "dateTime": 1520461452105}, {"current_trial": 229, "trialdata": {"rt": -1000, "trial_type": "single-audio", "word": "carriage", "stimulus": "/static/audio/wordpool/CARRIAGE.wav", "conditions": [12, 800, "a", 24000], "internal_node_id": "0.0-166.0", "trial": 6, "time_elapsed": 975920, "serialpos": 4, "key_press": -1, "wordID": 247, "type": "PRES_AUD", "trial_index": 229}, "uniqueid": "MTK3378:3KOPY89HM997Z2LVETRTGYX8CG1J3C", "dateTime": 1520461453822}, {"current_trial": 230, "trialdata": {"rt": -1000, "trial_type": "single-audio", "word": "fireman", "stimulus": "/static/audio/wordpool/FIREMAN.wav", "conditions": [12, 800, "a", 24000], "internal_node_id": "0.0-167.0", "trial": 6, "time_elapsed": 977624, "serialpos": 5, "key_press": -1, "wordID": 568, "type": "PRES_AUD", "trial_index": 230}, "uniqueid": "MTK3378:3KOPY89HM997Z2LVETRTGYX8CG1J3C", "dateTime": 1520461455525}, {"current_trial": 231, "trialdata": {"rt": -1000, "trial_type": "single-audio", "word": "grave", "stimulus": "/static/audio/wordpool/GRAVE.wav", "conditions": [12, 800, "a", 24000], "internal_node_id": "0.0-168.0", "trial": 6, "time_elapsed": 979602, "serialpos": 6, "key_press": -1, "wordID": 657, "type": "PRES_AUD", "trial_index": 231}, "uniqueid": "MTK3378:3KOPY89HM997Z2LVETRTGYX8CG1J3C", "dateTime": 1520461457503}, {"current_trial": 232, "trialdata": {"rt": -1000, "trial_type": "single-audio", "word": "catcher", "stimulus": "/static/audio/wordpool/CATCHER.wav", "conditions": [12, 800, "a", 24000], "internal_node_id": "0.0-169.0", "trial": 6, "time_elapsed": 981495, "serialpos": 7, "key_press": -1, "wordID": 257, "type": "PRES_AUD", "trial_index": 232}, "uniqueid": "MTK3378:3KOPY89HM997Z2LVETRTGYX8CG1J3C", "dateTime": 1520461459396}, {"current_trial": 233, "trialdata": {"rt": -1000, "trial_type": "single-audio", "word": "ground", "stimulus": "/static/audio/wordpool/GROUND.wav", "conditions": [12, 800, "a", 24000], "internal_node_id": "0.0-170.0", "trial": 6, "time_elapsed": 983292, "serialpos": 8, "key_press": -1, "wordID": 665, "type": "PRES_AUD", "trial_index": 233}, "uniqueid": "MTK3378:3KOPY89HM997Z2LVETRTGYX8CG1J3C", "dateTime": 1520461461193}, {"current_trial": 234, "trialdata": {"rt": -1000, "trial_type": "single-audio", "word": "nurse", "stimulus": "/static/audio/wordpool/NURSE.wav", "conditions": [12, 800, "a", 24000], "internal_node_id": "0.0-171.0", "trial": 6, "time_elapsed": 984949, "serialpos": 9, "key_press": -1, "wordID": 962, "type": "PRES_AUD", "trial_index": 234}, "uniqueid": "MTK3378:3KOPY89HM997Z2LVETRTGYX8CG1J3C", "dateTime": 1520461462850}, {"current_trial": 235, "trialdata": {"rt": -1000, "trial_type": "single-audio", "word": "shelf", "stimulus": "/static/audio/wordpool/SHELF.wav", "conditions": [12, 800, "a", 24000], "internal_node_id": "0.0-172.0", "trial": 6, "time_elapsed": 986740, "serialpos": 10, "key_press": -1, "wordID": 1279, "type": "PRES_AUD", "trial_index": 235}, "uniqueid": "MTK3378:3KOPY89HM997Z2LVETRTGYX8CG1J3C", "dateTime": 1520461464641}, {"current_trial": 236, "trialdata": {"rt": -1000, "trial_type": "single-audio", "word": "seal", "stimulus": "/static/audio/wordpool/SEAL.wav", "conditions": [12, 800, "a", 24000], "internal_node_id": "0.0-173.0", "trial": 6, "time_elapsed": 988578, "serialpos": 11, "key_press": -1, "wordID": 1261, "type": "PRES_AUD", "trial_index": 236}, "uniqueid": "MTK3378:3KOPY89HM997Z2LVETRTGYX8CG1J3C", "dateTime": 1520461466479}, {"current_trial": 237, "trialdata": {"rt": -1, "trial_type": "single-stim", "stimulus": "", "internal_node_id": "0.0-174.0-0.0", "time_elapsed": 989932, "key_press": -1, "type": "PRE_RECALL_DELAY", "trial_index": 237}, "uniqueid": "MTK3378:3KOPY89HM997Z2LVETRTGYX8CG1J3C", "dateTime": 1520461467833}, {"current_trial": 238, "trialdata": {"rt": -1000, "trial_type": "single-audio", "stimulus": "/static/audio/400Hz.wav", "internal_node_id": "0.0-175.0", "time_elapsed": 990433, "key_press": -1, "type": "PRE_RECALL_ALERT", "trial_index": 238}, "uniqueid": "MTK3378:3KOPY89HM997Z2LVETRTGYX8CG1J3C", "dateTime": 1520461468334}, {"current_trial": 239, "trialdata": {"rt": [1510, 3308, 5314, 6776, 7882, 11792, 13494, 15591], "recwords": ["seal", "grave", "catcher", "ground", "seal", "statue", "orchid", "garden"], "key_times": [925, 1066, 1246, 1399, 1510, 2540, 2712, 2812, 3012, 3138, 3308, 3481, 3619, 4502, 4840, 4972, 5085, 5179, 5314, 6099, 6289, 6342, 6412, 6593, 6687, 6776, 7172, 7290, 7433, 7622, 7882, 10978, 11106, 11261, 11356, 11473, 11644, 11792, 12700, 12792, 13012, 13084, 13156, 13356, 13494, 14727, 14873, 14961, 15114, 15304, 15394, 15591], "trial_type": "free-recall", "conditions": [12, 800, "a", 24000], "internal_node_id": "0.0-176.0-0.0", "key_presses": [83, 69, 65, 76, 32, 71, 82, 65, 86, 69, 13, 67, 65, 84, 67, 72, 69, 82, 13, 71, 82, 79, 85, 78, 68, 32, 83, 69, 65, 76, 13, 83, 84, 65, 84, 85, 69, 13, 79, 82, 67, 72, 73, 68, 13, 71, 65, 82, 68, 69, 78, 13], "trial": 6, "time_elapsed": 1050436, "type": "FREE_RECALL", "trial_index": 239}, "uniqueid": "MTK3378:3KOPY89HM997Z2LVETRTGYX8CG1J3C", "dateTime": 1520461528341}, {"current_trial": 240, "trialdata": {"rt": 1702, "trial_type": "text", "internal_node_id": "0.0-177.0", "time_elapsed": 1054145, "key_press": 32, "type": "INSTRUCTIONS", "trial_index": 240}, "uniqueid": "MTK3378:3KOPY89HM997Z2LVETRTGYX8CG1J3C", "dateTime": 1520461532046}, {"current_trial": 241, "trialdata": {"rt": [3595, 8787, 10544, 13411, 16829, 18439, 21484], "trial_type": "math-distractor", "key_times": [3219, 3324, 3595, 8418, 8583, 8787, 10219, 10407, 10544, 12698, 12781, 13411, 16156, 16315, 16829, 18069, 18146, 18439, 21169, 21240, 21484], "responses": ["19", "24", "10", "18", "20", "15", "13"], "num2": [6, 9, 5, 5, 9, 2, 5, 3], "num3": [4, 7, 1, 5, 4, 8, 4, 4], "conditions": [24, 1600, "a", 24000], "internal_node_id": "0.0-178.0", "key_presses": [97, 105, 13, 98, 100, 13, 97, 96, 13, 97, 104, 13, 98, 96, 13, 97, 101, 13, 97, 99, 13], "trial": 7, "time_elapsed": 1080148, "type": "DISTRACTOR", "trial_index": 241, "num1": [9, 8, 4, 8, 7, 5, 4, 5]}, "uniqueid": "MTK3378:3KOPY89HM997