{"assignmentId": "3LRKMWOKB6O8EZUGSFGALIG6PR5Z2B", "workerId": "MTK3218", "questiondata": {"origin": "United States", "strat-rehearsal": "14", "marital": "Married/Domestic Partnership", "education": "Some college", "ethnicity": "Not Hispanic", "color_depth": 24, "distracted": "No", "wrote-notes": "No", "strat-other": "just them over and over", "screen_width": 1366, "avail_screen_width": 1366, "avail_screen_height": 728, "strat-image": "39", "language": "English", "gender": "Female", "age": "63", "gender_other": "", "race": ["White"], "strat-categorize": "65", "pixel_depth": 24, "strat-spatial": "51", "strat-story": "57", "race_other": "", "screen_height": 768}, "bonus": 0, "hitId": "306W7JMRYY5LVWVVCG46K7QMZSG8BY", "counterbalance": 2651, "useragent": "Mozilla/5.0 (Windows NT 10.0; WOW64) AppleWebKit/537.36 (KHTML, like Gecko) Chrome/64.0.3282.186 Safari/537.36", "eventdata": [{"eventtype": "initialized", "interval": 0, "value": null, "timestamp": 1520266326664}, {"eventtype": "window_resize", "interval": 0, "value": [1366, 721], "timestamp": 1520266326664}], "data": [{"current_trial": 0, "trialdata": {"rt": 13270, "trial_type": "text", "internal_node_id": "0.0-0.0", "time_elapsed": 13276, "key_press": 76, "type": "INSTRUCTIONS", "trial_index": 0}, "uniqueid": "MTK3218:3LRKMWOKB6O8EZUGSFGALIG6PR5Z2B", "dateTime": 1520266340435}, {"current_trial": 1, "trialdata": {"rt": 3969, "trial_type": "text", "internal_node_id": "0.0-1.0", "time_elapsed": 17250, "key_press": 80, "type": "INSTRUCTIONS", "trial_index": 1}, "uniqueid": "MTK3218:3LRKMWOKB6O8EZUGSFGALIG6PR5Z2B", "dateTime": 1520266344407}, {"current_trial": 2, "trialdata": {"rt": [26615], "trial_type": "audio-test", "responses": ["ocean"], "internal_node_id": "0.0-2.0", "time_elapsed": 43878, "type": "AUDIO_TEST", "trial_index": 2}, "uniqueid": "MTK3218:3LRKMWOKB6O8EZUGSFGALIG6PR5Z2B", "dateTime": 1520266371035}, {"current_trial": 3, "trialdata": {"rt": [23536], "trial_type": "audio-test", "responses": ["crystal"], "internal_node_id": "0.0-3.0", "time_elapsed": 67420, "type": "AUDIO_TEST", "trial_index": 3}, "uniqueid": "MTK3218:3LRKMWOKB6O8EZUGSFGALIG6PR5Z2B", "dateTime": 1520266394577}, {"current_trial": 4, "trialdata": {"rt": [13636], "trial_type": "audio-test", "responses": ["spice"], "internal_node_id": "0.0-4.0", "time_elapsed": 81062, "type": "AUDIO_TEST", "trial_index": 4}, "uniqueid": "MTK3218:3LRKMWOKB6O8EZUGSFGALIG6PR5Z2B", "dateTime": 1520266408220}, {"current_trial": 5, "trialdata": {"rt": 47227, "trial_type": "survey-text", "responses": "{\"Q0\":\"10:00 pm\",\"Q1\":\"5:00 am5\",\"Q2\":\"5\"}", "internal_node_id": "0.0-5.0", "time_elapsed": 129047, "type": "SLEEP_SURVEY", "trial_index": 5}, "uniqueid": "MTK3218:3LRKMWOKB6O8EZUGSFGALIG6PR5Z2B", "dateTime": 1520266456204}, {"current_trial": 6, "trialdata": {"rt": 65116, "trial_type": "text", "internal_node_id": "0.0-6.0", "time_elapsed": 195162, "key_press": 75, "type": "INSTRUCTIONS", "trial_index": 6}, "uniqueid": "MTK3218:3LRKMWOKB6O8EZUGSFGALIG6PR5Z2B", "dateTime": 1520266522319}, {"current_trial": 7, "trialdata": {"rt": 21999, "trial_type": "text", "internal_node_id": "0.0-7.0", "time_elapsed": 217664, "key_press": 76, "type": "INSTRUCTIONS", "trial_index": 7}, "uniqueid": "MTK3218:3LRKMWOKB6O8EZUGSFGALIG6PR5Z2B", "dateTime": 1520266544821}, {"current_trial": 8, "trialdata": {"rt": 42770, "trial_type": "text", "internal_node_id": "0.0-8.0", "time_elapsed": 260934, "key_press": 76, "type": "INSTRUCTIONS", "trial_index": 8}, "uniqueid": "MTK3218:3LRKMWOKB6O8EZUGSFGALIG6PR5Z2B", "dateTime": 1520266588091}, {"current_trial": 9, "trialdata": {"rt": [10799], "trial_type": "math-distractor", "key_times": [7782, 8433, 10799, 15342, 16420], "responses": ["18"], "num2": [9, 1], "num3": [7, 5], "conditions": [18, 1200, "v", 18000], "internal_node_id": "0.0-9.0", "key_presses": [49, 56, 13, 49, 52], "trial": 0, "time_elapsed": 279979, "type": "DISTRACTOR", "trial_index": 9, "num1": [2, 8]}, "uniqueid": "MTK3218:3LRKMWOKB6O8EZUGSFGALIG6PR5Z2B", "dateTime": 1520266607136}, {"current_trial": 10, "trialdata": {"rt": -1, "trial_type": "single-stim", "stimulus": "<p id=\"stim\">10</p>", "internal_node_id": "0.0-10.0-0.0", "time_elapsed": 282981, "key_press": -1, "trial_index": 10}, "uniqueid": "MTK3218:3LRKMWOKB6O8EZUGSFGALIG6PR5Z2B", "dateTime": 1520266610138}, {"current_trial": 11, "trialdata": {"rt": -1, "trial_type": "single-stim", "stimulus": "<p id=\"stim\">9</p>", "internal_node_id": "0.0-10.0-1.0", "time_elapsed": 283983, "key_press": -1, "trial_index": 11}, "uniqueid": "MTK3218:3LRKMWOKB6O8EZUGSFGALIG6PR5Z2B", "dateTime": 1520266611140}, {"current_trial": 12, "trialdata": {"rt": -1, "trial_type": "single-stim", "stimulus": "<p id=\"stim\">8</p>", "internal_node_id": "0.0-10.0-2.0", "time_elapsed": 284984, "key_press": -1, "trial_index": 12}, "uniqueid": "MTK3218:3LRKMWOKB6O8EZUGSFGALIG6PR5Z2B", "dateTime": 1520266612142}, {"current_trial": 13, "trialdata": {"rt": -1, "trial_type": "single-stim", "stimulus": "<p id=\"stim\">7</p>", "internal_node_id": "0.0-10.0-3.0", "time_elapsed": 285985, "key_press": -1, "trial_index": 13}, "uniqueid": "MTK3218:3LRKMWOKB6O8EZUGSFGALIG6PR5Z2B", "dateTime": 1520266613142}, {"current_trial": 14, "trialdata": {"rt": -1, "trial_type": "single-stim", "stimulus": "<p id=\"stim\">6</p>", "internal_node_id": "0.0-10.0-4.0", "time_elapsed": 286988, "key_press": -1, "trial_index": 14}, "uniqueid": "MTK3218:3LRKMWOKB6O8EZUGSFGALIG6PR5Z2B", "dateTime": 1520266614145}, {"current_trial": 15, "trialdata": {"rt": -1, "trial_type": "single-stim", "stimulus": "<p id=\"stim\">5</p>", "internal_node_id": "0.0-10.0-5.0", "time_elapsed": 287988, "key_press": -1, "trial_index": 15}, "uniqueid": "MTK3218:3LRKMWOKB6O8EZUGSFGALIG6PR5Z2B", "dateTime": 1520266615145}, {"current_trial": 16, "trialdata": {"rt": -1, "trial_type": "single-stim", "stimulus": "<p id=\"stim\">4</p>", "internal_node_id": "0.0-10.0-6.0", "time_elapsed": 288990, "key_press": -1, "trial_index": 16}, "uniqueid": "MTK3218:3LRKMWOKB6O8EZUGSFGALIG6PR5Z2B", "dateTime": 1520266616147}, {"current_trial": 17, "trialdata": {"rt": -1, "trial_type": "single-stim", "stimulus": "<p id=\"stim\">3</p>", "internal_node_id": "0.0-10.0-7.0", "time_elapsed": 289992, "key_press": -1, "trial_index": 17}, "uniqueid": "MTK3218:3LRKMWOKB6O8EZUGSFGALIG6PR5Z2B", "dateTime": 1520266617149}, {"current_trial": 18, "trialdata": {"rt": -1, "trial_type": "single-stim", "stimulus": "<p id=\"stim\">2</p>", "internal_node_id": "0.0-10.0-8.0", "time_elapsed": 290993, "key_press": -1, "trial_index": 18}, "uniqueid": "MTK3218:3LRKMWOKB6O8EZUGSFGALIG6PR5Z2B", "dateTime": 1520266618151}, {"current_trial": 19, "trialdata": {"rt": -1, "trial_type": "single-stim", "stimulus": "<p id=\"stim\">1</p>", "internal_node_id": "0.0-10.0-9.0", "time_elapsed": 291995, "key_press": -1, "trial_index": 19}, "uniqueid": "MTK3218:3LRKMWOKB6O8EZUGSFGALIG6PR5Z2B", "dateTime": 1520266619152}, {"current_trial": 20, "trialdata": {"rt": -1, "trial_type": "single-stim", "stimulus": "<p id=\"stim\">+</p>", "internal_node_id": "0.0-11.0-0.0", "time_elapsed": 293498, "key_press": -1, "type": "FIXATION", "trial_index": 20}, "uniqueid": "MTK3218:3LRKMWOKB6O8EZUGSFGALIG6PR5Z2B", "dateTime": 1520266620655}, {"current_trial": 21, "trialdata": {"rt": -1, "trial_type": "single-stim", "word": "cashew", "stimulus": "<p id=\"stim\">CASHEW</p>", "conditions": [18, 1200, "v", 18000], "internal_node_id": "0.0-12.0", "trial": 0, "time_elapsed": 294700, "serialpos": 0, "key_press": -1, "wordID": 252, "type": "PRES_VIS", "trial_index": 21}, "uniqueid": "MTK3218:3LRKMWOKB6O8EZUGSFGALIG6PR5Z2B", "dateTime": 1520266621857}, {"current_trial": 22, "trialdata": {"rt": -1, "trial_type": "single-stim", "word": "parent", "stimulus": "<p id=\"stim\">PARENT</p>", "conditions": [18, 1200, "v", 18000], "internal_node_id": "0.0-13.0", "trial": 0, "time_elapsed": 296998, "serialpos": 1, "key_press": -1, "wordID": 1012, "type": "PRES_VIS", "trial_index": 22}, "uniqueid": "MTK3218:3LRKMWOKB6O8EZUGSFGALIG6PR5Z2B", "dateTime": 1520266624155}, {"current_trial": 23, "trialdata": {"rt": -1, "trial_type": "single-stim", "word": "scissors", "stimulus": "<p id=\"stim\">SCISSORS</p>", "conditions": [18, 1200, "v", 18000], "internal_node_id": "0.0-14.0", "trial": 0, "time_elapsed": 299009, "serialpos": 2, "key_press": -1, "wordID": 1249, "type": "PRES_VIS", "trial_index": 23}, "uniqueid": "MTK3218:3LRKMWOKB6O8EZUGSFGALIG6PR5Z2B", "dateTime": 1520266626166}, {"current_trial": 24, "trialdata": {"rt": -1, "trial_type": "single-stim", "word": "goblin", "stimulus": "<p id=\"stim\">GOBLIN</p>", "conditions": [18, 1200, "v", 18000], "internal_node_id": "0.0-15.0", "trial": 0, "time_elapsed": 301125, "serialpos": 3, "key_press": -1, "wordID": 644, "type": "PRES_VIS", "trial_index": 24}, "uniqueid": "MTK3218:3LRKMWOKB6O8EZUGSFGALIG6PR5Z2B", "dateTime": 1520266628282}, {"current_trial": 25, "trialdata": {"rt": -1, "trial_type": "single-stim", "word": "judge", "stimulus": "<p id=\"stim\">JUDGE</p>", "conditions": [18, 1200, "v", 18000], "internal_node_id": "0.0-16.0", "trial": 0, "time_elapsed": 303222, "serialpos": 4, "key_press": -1, "wordID": 760, "type": "PRES_VIS", "trial_index": 25}, "uniqueid": "MTK3218:3LRKMWOKB6O8EZUGSFGALIG6PR5Z2B", "dateTime": 1520266630379}, {"current_trial": 26, "trialdata": {"rt": -1, "trial_type": "single-stim", "word": "snack", "stimulus": "<p id=\"stim\">SNACK</p>", "conditions": [18, 1200, "v", 18000], "internal_node_id": "0.0-17.0", "trial": 0, "time_elapsed": 305599, "serialpos": 5, "key_press": -1, "wordID": 1330, "type": "PRES_VIS", "trial_index": 26}, "uniqueid": "MTK3218:3LRKMWOKB6O8EZUGSFGALIG6PR5Z2B", "dateTime": 1520266632756}, {"current_trial": 27, "trialdata": {"rt": -1, "trial_type": "single-stim", "word": "mummy", "stimulus": "<p id=\"stim\">MUMMY</p>", "conditions": [18, 1200, "v", 18000], "internal_node_id": "0.0-18.0", "trial": 0, "time_elapsed": 307660, "serialpos": 6, "key_press": -1, "wordID": 931, "type": "PRES_VIS", "trial_index": 27}, "uniqueid": "MTK3218:3LRKMWOKB6O8EZUGSFGALIG6PR5Z2B", "dateTime": 1520266634817}, {"current_trial": 28, "trialdata": {"rt": -1, "trial_type": "single-stim", "word": "county", "stimulus": "<p id=\"stim\">COUNTY</p>", "conditions": [18, 1200, "v", 18000], "internal_node_id": "0.0-19.0", "trial": 0, "time_elapsed": 309831, "serialpos": 7, "key_press": -1, "wordID": 388, "type": "PRES_VIS", "trial_index": 28}, "uniqueid": "MTK3218:3LRKMWOKB6O8EZUGSFGALIG6PR5Z2B", "dateTime": 1520266636988}, {"current_trial": 29, "trialdata": {"rt": -1, "trial_type": "single-stim", "word": "critic", "stimulus": "<p id=\"stim\">CRITIC</p>", "conditions": [18, 1200, "v", 18000], "internal_node_id": "0.0-20.0", "trial": 0, "time_elapsed": 311934, "serialpos": 8, "key_press": -1, "wordID": 409, "type": "PRES_VIS", "trial_index": 29}, "uniqueid": "MTK3218:3LRKMWOKB6O8EZUGSFGALIG6PR5Z2B", "dateTime": 1520266639091}, {"current_trial": 30, "trialdata": {"rt": -1, "trial_type": "single-stim", "word": "bucket", "stimulus": "<p id=\"stim\">BUCKET</p>", "conditions": [18, 1200, "v", 18000], "internal_node_id": "0.0-21.0", "trial": 0, "time_elapsed": 314229, "serialpos": 9, "key_press": -1, "wordID": 183, "type": "PRES_VIS", "trial_index": 30}, "uniqueid": "MTK3218:3LRKMWOKB6O8EZUGSFGALIG6PR5Z2B", "dateTime": 1520266641387}, {"current_trial": 31, "trialdata": {"rt": -1, "trial_type": "single-stim", "word": "xerox", "stimulus": "<p id=\"stim\">XEROX</p>", "conditions": [18, 1200, "v", 18000], "internal_node_id": "0.0-22.0", "trial": 0, "time_elapsed": 316439, "serialpos": 10, "key_press": -1, "wordID": 1627, "type": "PRES_VIS", "trial_index": 31}, "uniqueid": "MTK3218:3LRKMWOKB6O8EZUGSFGALIG6PR5Z2B", "dateTime": 1520266643596}, {"current_trial": 32, "trialdata": {"rt": -1, "trial_type": "single-stim", "word": "human", "stimulus": "<p id=\"stim\">HUMAN</p>", "conditions": [18, 1200, "v", 18000], "internal_node_id": "0.0-23.0", "trial": 0, "time_elapsed": 318750, "serialpos": 11, "key_press": -1, "wordID": 725, "type": "PRES_VIS", "trial_index": 32}, "uniqueid": "MTK3218:3LRKMWOKB6O8EZUGSFGALIG6PR5Z2B", "dateTime": 1520266645907}, {"current_trial": 33, "trialdata": {"rt": -1, "trial_type": "single-stim", "word": "country", "stimulus": "<p id=\"stim\">COUNTRY</p>", "conditions": [18, 1200, "v", 18000], "internal_node_id": "0.0-24.0", "trial": 0, "time_elapsed": 320833, "serialpos": 12, "key_press": -1, "wordID": 387, "type": "PRES_VIS", "trial_index": 33}, "uniqueid": "MTK3218:3LRKMWOKB6O8EZUGSFGALIG6PR5Z2B", "dateTime": 1520266647990}, {"current_trial": 34, "trialdata": {"rt": -1, "trial_type": "single-stim", "word": "ankle", "stimulus": "<p id=\"stim\">ANKLE</p>", "conditions": [18, 1200, "v", 18000], "internal_node_id": "0.0-25.0", "trial": 0, "time_elapsed": 323160, "serialpos": 13, "key_press": -1, "wordID": 23, "type": "PRES_VIS", "trial_index": 34}, "uniqueid": "MTK3218:3LRKMWOKB6O8EZUGSFGALIG6PR5Z2B", "dateTime": 1520266650317}, {"current_trial": 35, "trialdata": {"rt": -1, "trial_type": "single-stim", "word": "primate", "stimulus": "<p id=\"stim\">PRIMATE</p>", "conditions": [18, 1200, "v", 18000], "internal_node_id": "0.0-26.0", "trial": 0, "time_elapsed": 325180, "serialpos": 14, "key_press": -1, "wordID": 1122, "type": "PRES_VIS", "trial_index": 35}, "uniqueid": "MTK3218:3LRKMWOKB6O8EZUGSFGALIG6PR5Z2B", "dateTime": 1520266652339}, {"current_trial": 36, "trialdata": {"rt": -1, "trial_type": "single-stim", "word": "salmon", "stimulus": "<p id=\"stim\">SALMON</p>", "conditions": [18, 1200, "v", 18000], "internal_node_id": "0.0-27.0", "trial": 0, "time_elapsed": 327573, "serialpos": 15, "key_press": -1, "wordID": 1226, "type": "PRES_VIS", "trial_index": 36}, "uniqueid": "MTK3218:3LRKMWOKB6O8EZUGSFGALIG6PR5Z2B", "dateTime": 1520266654730}, {"current_trial": 37, "trialdata": {"rt": -1, "trial_type": "single-stim", "word": "fragrance", "stimulus": "<p id=\"stim\">FRAGRANCE</p>", "conditions": [18, 1200, "v", 18000], "internal_node_id": "0.0-28.0", "trial": 0, "time_elapsed": 329843, "serialpos": 16, "key_press": -1, "wordID": 598, "type": "PRES_VIS", "trial_index": 37}, "uniqueid": "MTK3218:3LRKMWOKB6O8EZUGSFGALIG6PR5Z2B", "dateTime": 1520266657001}, {"current_trial": 38, "trialdata": {"rt": -1, "trial_type": "single-stim", "word": "grill", "stimulus": "<p id=\"stim\">GRILL</p>", "conditions": [18, 1200, "v", 18000], "internal_node_id": "0.0-29.0", "trial": 0, "time_elapsed": 332195, "serialpos": 17, "key_press": -1, "wordID": 660, "type": "PRES_VIS", "trial_index": 38}, "uniqueid": "MTK3218:3LRKMWOKB6O8EZUGSFGALIG6PR5Z2B", "dateTime": 1520266659354}, {"current_trial": 39, "trialdata": {"rt": -1, "trial_type": "single-stim", "stimulus": "", "internal_node_id": "0.0-30.0-0.0", "time_elapsed": 334677, "key_press": -1, "type": "PRE_RECALL_DELAY", "trial_index": 39}, "uniqueid": "MTK3218:3LRKMWOKB6O8EZUGSFGALIG6PR5Z2B", "dateTime": 1520266661836}, {"current_trial": 40, "trialdata": {"rt": -1000, "trial_type": "single-audio", "stimulus": "/static/audio/400Hz.wav", "internal_node_id": "0.0-31.0", "time_elapsed": 335183, "key_press": -1, "type": "PRE_RECALL_ALERT", "trial_index": 40}, "uniqueid": "MTK3218:3LRKMWOKB6O8EZUGSFGALIG6PR5Z2B", "dateTime": 1520266662340}, {"current_trial": 41, "trialdata": {"rt": [12868, 14110, 21420, 29357, 34944, 43020, 51438, 59520], "recwords": ["cashue", "", "parent", "goblin", "mummy", "salmon", "grill", "human"], "key_times": [6421, 6776, 7096, 9725, 10969, 11455, 12868, 14110, 14866, 15401, 16097, 16414, 17065, 17552, 21420, 24132, 25323, 26463, 27227, 27753, 28228, 29357, 30778, 31709, 32503, 32757, 33513, 34944, 37234, 37705, 38076, 38536, 39102, 39657, 43020, 45909, 46525, 46959, 47526, 47848, 51438, 56333, 56884, 57597, 58198, 58698, 59520], "trial_type": "free-recall", "conditions": [18, 1200, "v", 18000], "internal_node_id": "0.0-32.0-0.0", "key_presses": [67, 65, 83, 72, 85, 69, 188, 32, 80, 65, 82, 69, 78, 84, 32, 71, 79, 66, 76, 73, 78, 13, 77, 85, 77, 77, 89, 13, 83, 65, 76, 77, 79, 78, 13, 71, 82, 73, 76, 76, 13, 72, 85, 77, 65, 78, 13], "trial": 0, "time_elapsed": 395186, "type": "FREE_RECALL", "trial_index": 41}, "uniqueid": "MTK3218:3LRKMWOKB6O8EZUGSFGALIG6PR5Z2B", "dateTime": 1520266722347}, {"current_trial": 42, "trialdata": {"rt": 5066, "trial_type": "text", "internal_node_id": "0.0-33.0", "time_elapsed": 402258, "key_press": 76, "type": "INSTRUCTIONS", "trial_index": 42}, "uniqueid": "MTK3218:3LRKMWOKB6O8EZUGSFGALIG6PR5Z2B", "dateTime": 1520266729415}, {"current_trial": 43, "trialdata": {"rt": [8452, 12635], "trial_type": "math-distractor", "key_times": [3613, 4117, 8452, 11088, 12635, 16460, 17245], "responses": ["12", "7"], "num2": [2, 5, 5], "num3": [7, 1, 9], "conditions": [18, 1200, "v", 18000], "internal_node_id": "0.0-34.0", "key_presses": [49, 50, 13, 55, 13, 49, 55], "trial": 1, "time_elapsed": 422262, "type": "DISTRACTOR", "trial_index": 43, "num1": [3, 1, 3]}, "uniqueid": "MTK3218:3LRKMWOKB6O8EZUGSFGALIG6PR5Z2B", "dateTime": 1520266749419}, {"current_trial": 44, "trialdata": {"rt": -1, "trial_type": "single-stim", "stimulus": "<p id=\"stim\">10</p>", "internal_node_id": "0.0-35.0-0.0", "time_elapsed": 425264, "key_press": -1, "trial_index": 44}, "uniqueid": "MTK3218:3LRKMWOKB6O8EZUGSFGALIG6PR5Z2B", "dateTime": 1520266752422}, {"current_trial": 45, "trialdata": {"rt": -1, "trial_type": "single-stim", "stimulus": "<p id=\"stim\">9</p>", "internal_node_id": "0.0-35.0-1.0", "time_elapsed": 426267, "key_press": -1, "trial_index": 45}, "uniqueid": "MTK3218:3LRKMWOKB6O8EZUGSFGALIG6PR5Z2B", "dateTime": 1520266753424}, {"current_trial": 46, "trialdata": {"rt": -1, "trial_type": "single-stim", "stimulus": "<p id=\"stim\">8</p>", "internal_node_id": "0.0-35.0-2.0", "time_elapsed": 427267, "key_press": -1, "trial_index": 46}, "uniqueid": "MTK3218:3LRKMWOKB6O8EZUGSFGALIG6PR5Z2B", "dateTime": 1520266754425}, {"current_trial": 47, "trialdata": {"rt": -1, "trial_type": "single-stim", "stimulus": "<p id=\"stim\">7</p>", "internal_node_id": "0.0-35.0-3.0", "time_elapsed": 428269, "key_press": -1, "trial_index": 47}, "uniqueid": "MTK3218:3LRKMWOKB6O8EZUGSFGALIG6PR5Z2B", "dateTime": 1520266755426}, {"current_trial": 48, "trialdata": {"rt": -1, "trial_type": "single-stim", "stimulus": "<p id=\"stim\">6</p>", "internal_node_id": "0.0-35.0-4.0", "time_elapsed": 429269, "key_press": -1, "trial_index": 48}, "uniqueid": "MTK3218:3LRKMWOKB6O8EZUGSFGALIG6PR5Z2B", "dateTime": 1520266756427}, {"current_trial": 49, "trialdata": {"rt": -1, "trial_type": "single-stim", "stimulus": "<p id=\"stim\">5</p>", "internal_node_id": "0.0-35.0-5.0", "time_elapsed": 430270, "key_press": -1, "trial_index": 49}, "uniqueid": "MTK3218:3LRKMWOKB6O8EZUGSFGALIG6PR5Z2B", "dateTime": 1520266757428}, {"current_trial": 50, "trialdata": {"rt": -1, "trial_type": "single-stim", "stimulus": "<p id=\"stim\">4</p>", "internal_node_id": "0.0-35.0-6.0", "time_elapsed": 431271, "key_press": -1, "trial_index": 50}, "uniqueid": "MTK3218:3LRKMWOKB6O8EZUGSFGALIG6PR5Z2B", "dateTime": 1520266758429}, {"current_trial": 51, "trialdata": {"rt": -1, "trial_type": "single-stim", "stimulus": "<p id=\"stim\">3</p>", "internal_node_id": "0.0-35.0-7.0", "time_elapsed": 432272, "key_press": -1, "trial_index": 51}, "uniqueid": "MTK3218:3LRKMWOKB6O8EZUGSFGALIG6PR5Z2B", "dateTime": 1520266759430}, {"current_trial": 52, "trialdata": {"rt": -1, "trial_type": "single-stim", "stimulus": "<p id=\"stim\">2</p>", "internal_node_id": "0.0-35.0-8.0", "time_elapsed": 433275, "key_press": -1, "trial_index": 52}, "uniqueid": "MTK3218:3LRKMWOKB6O8EZUGSFGALIG6PR5Z2B", "dateTime": 1520266760432}, {"current_trial": 53, "trialdata": {"rt": -1, "trial_type": "single-stim", "stimulus": "<p id=\"stim\">1</p>", "internal_node_id": "0.0-35.0-9.0", "time_elapsed": 434276, "key_press": -1, "trial_index": 53}, "uniqueid": "MTK3218:3LRKMWOKB6O8EZUGSFGALIG6PR5Z2B", "dateTime": 1520266761433}, {"current_trial": 54, "trialdata": {"rt": -1, "trial_type": "single-stim", "stimulus": "<p id=\"stim\">+</p>", "internal_node_id": "0.0-36.0-0.0", "time_elapsed": 435776, "key_press": -1, "type": "FIXATION", "trial_index": 54}, "uniqueid": "MTK3218:3LRKMWOKB6O8EZUGSFGALIG6PR5Z2B", "dateTime": 1520266762934}, {"current_trial": 55, "trialdata": {"rt": -1, "trial_type": "single-stim", "word": "viking", "stimulus": "<p id=\"stim\">VIKING</p>", "conditions": [18, 1200, "v", 18000], "internal_node_id": "0.0-37.0", "trial": 1, "time_elapsed": 436977, "serialpos": 0, "key_press": -1, "wordID": 1564, "type": "PRES_VIS", "trial_index": 55}, "uniqueid": "MTK3218:3LRKMWOKB6O8EZUGSFGALIG6PR5Z2B", "dateTime": 1520266764136}, {"current_trial": 56, "trialdata": {"rt": -1, "trial_type": "single-stim", "word": "parsley", "stimulus": "<p id=\"stim\">PARSLEY</p>", "conditions": [18, 1200, "v", 18000], "internal_node_id": "0.0-38.0", "trial": 1, "time_elapsed": 439076, "serialpos": 1, "key_press": -1, "wordID": 1015, "type": "PRES_VIS", "trial_index": 56}, "uniqueid": "MTK3218:3LRKMWOKB6O8EZUGSFGALIG6PR5Z2B", "dateTime": 1520266766233}, {"current_trial": 57, "trialdata": {"rt": -1, "trial_type": "single-stim", "word": "toaster", "stimulus": "<p id=\"stim\">TOASTER</p>", "conditions": [18, 1200, "v", 18000], "internal_node_id": "0.0-39.0", "trial": 1, "time_elapsed": 441410, "serialpos": 2, "key_press": -1, "wordID": 1471, "type": "PRES_VIS", "trial_index": 57}, "uniqueid": "MTK3218:3LRKMWOKB6O8EZUGSFGALIG6PR5Z2B", "dateTime": 1520266768567}, {"current_trial": 58, "trialdata": {"rt": -1, "trial_type": "single-stim", "word": "flesh", "stimulus": "<p id=\"stim\">FLESH</p>", "conditions": [18, 1200, "v", 18000], "internal_node_id": "0.0-40.0", "trial": 1, "time_elapsed": 443714, "serialpos": 3, "key_press": -1, "wordID": 578, "type": "PRES_VIS", "trial_index": 58}, "uniqueid": "MTK3218:3LRKMWOKB6O8EZUGSFGALIG6PR5Z2B", "dateTime": 1520266770872}, {"current_trial": 59, "trialdata": {"rt": -1, "trial_type": "single-stim", "word": "tombstone", "stimulus": "<p id=\"stim\">TOMBSTONE</p>", "conditions": [18, 1200, "v", 18000], "internal_node_id": "0.0-41.0", "trial": 1, "time_elapsed": 445908, "serialpos": 4, "key_press": -1, "wordID": 1477, "type": "PRES_VIS", "trial_index": 59}, "uniqueid": "MTK3218:3LRKMWOKB6O8EZUGSFGALIG6PR5Z2B", "dateTime": 1520266773066}, {"current_trial": 60, "trialdata": {"rt": -1, "trial_type": "single-stim", "word": "zebra", "stimulus": "<p id=\"stim\">ZEBRA</p>", "conditions": [18, 1200, "v", 18000], "internal_node_id": "0.0-42.0", "trial": 1, "time_elapsed": 447941, "serialpos": 5, "key_press": -1, "wordID": 1634, "type": "PRES_VIS", "trial_index": 60}, "uniqueid": "MTK3218:3LRKMWOKB6O8EZUGSFGALIG6PR5Z2B", "dateTime": 1520266775098}, {"current_trial": 61, "trialdata": {"rt": -1, "trial_type": "single-stim", "word": "shrub", "stimulus": "<p id=\"stim\">SHRUB</p>", "conditions": [18, 1200, "v", 18000], "internal_node_id": "0.0-43.0", "trial": 1, "time_elapsed": 450073, "serialpos": 6, "key_press": -1, "wordID": 1298, "type": "PRES_VIS", "trial_index": 61}, "uniqueid": "MTK3218:3LRKMWOKB6O8EZUGSFGALIG6PR5Z2B", "dateTime": 1520266777232}, {"current_trial": 62, "trialdata": {"rt": -1, "trial_type": "single-stim", "word": "vagrant", "stimulus": "<p id=\"stim\">VAGRANT</p>", "conditions": [18, 1200, "v", 18000], "internal_node_id": "0.0-44.0", "trial": 1, "time_elapsed": 452245, "serialpos": 7, "key_press": -1, "wordID": 1543, "type": "PRES_VIS", "trial_index": 62}, "uniqueid": "MTK3218:3LRKMWOKB6O8EZUGSFGALIG6PR5Z2B", "dateTime": 1520266779403}, {"current_trial": 63, "trialdata": {"rt": -1, "trial_type": "single-stim", "word": "badge", "stimulus": "<p id=\"stim\">BADGE</p>", "conditions": [18, 1200, "v", 18000], "internal_node_id": "0.0-45.0", "trial": 1, "time_elapsed": 454572, "serialpos": 8, "key_press": -1, "wordID": 67, "type": "PRES_VIS", "trial_index": 63}, "uniqueid": "MTK3218:3LRKMWOKB6O8EZUGSFGALIG6PR5Z2B", "dateTime": 1520266781729}, {"current_trial": 64, "trialdata": {"rt": -1, "trial_type": "single-stim", "word": "ground", "stimulus": "<p id=\"stim\">GROUND</p>", "conditions": [18, 1200, "v", 18000], "internal_node_id": "0.0-46.0", "trial": 1, "time_elapsed": 456742, "serialpos": 9, "key_press": -1, "wordID": 665, "type": "PRES_VIS", "trial_index": 64}, "uniqueid": "MTK3218:3LRKMWOKB6O8EZUGSFGALIG6PR5Z2B", "dateTime": 1520266783902}, {"current_trial": 65, "trialdata": {"rt": -1, "trial_type": "single-stim", "word": "blackboard", "stimulus": "<p id=\"stim\">BLACKBOARD</p>", "conditions": [18, 1200, "v", 18000], "internal_node_id": "0.0-47.0", "trial": 1, "time_elapsed": 459007, "serialpos": 10, "key_press": -1, "wordID": 132, "type": "PRES_VIS", "trial_index": 65}, "uniqueid": "MTK3218:3LRKMWOKB6O8EZUGSFGALIG6PR5Z2B", "dateTime": 1520266786164}, {"current_trial": 66, "trialdata": {"rt": -1, "trial_type": "single-stim", "word": "beaver", "stimulus": "<p id=\"stim\">BEAVER</p>", "conditions": [18, 1200, "v", 18000], "internal_node_id": "0.0-48.0", "trial": 1, "time_elapsed": 461378, "serialpos": 11, "key_press": -1, "wordID": 108, "type": "PRES_VIS", "trial_index": 66}, "uniqueid": "MTK3218:3LRKMWOKB6O8EZUGSFGALIG6PR5Z2B", "dateTime": 1520266788535}, {"current_trial": 67, "trialdata": {"rt": -1, "trial_type": "single-stim", "word": "subway", "stimulus": "<p id=\"stim\">SUBWAY</p>", "conditions": [18, 1200, "v", 18000], "internal_node_id": "0.0-49.0", "trial": 1, "time_elapsed": 463445, "serialpos": 12, "key_press": -1, "wordID": 1399, "type": "PRES_VIS", "trial_index": 67}, "uniqueid": "MTK3218:3LRKMWOKB6O8EZUGSFGALIG6PR5Z2B", "dateTime": 1520266790602}, {"current_trial": 68, "trialdata": {"rt": -1, "trial_type": "single-stim", "word": "snail", "stimulus": "<p id=\"stim\">SNAIL</p>", "conditions": [18, 1200, "v", 18000], "internal_node_id": "0.0-50.0", "trial": 1, "time_elapsed": 465699, "serialpos": 13, "key_press": -1, "wordID": 1331, "type": "PRES_VIS", "trial_index": 68}, "uniqueid": "MTK3218:3LRKMWOKB6O8EZUGSFGALIG6PR5Z2B", "dateTime": 1520266792859}, {"current_trial": 69, "trialdata": {"rt": -1, "trial_type": "single-stim", "word": "pluto", "stimulus": "<p id=\"stim\">PLUTO</p>", "conditions": [18, 1200, "v", 18000], "internal_node_id": "0.0-51.0", "trial": 1, "time_elapsed": 467740, "serialpos": 14, "key_press": -1, "wordID": 1091, "type": "PRES_VIS", "trial_index": 69}, "uniqueid": "MTK3218:3LRKMWOKB6O8EZUGSFGALIG6PR5Z2B", "dateTime": 1520266794897}, {"current_trial": 70, "trialdata": {"rt": -1, "trial_type": "single-stim", "word": "gavel", "stimulus": "<p id=\"stim\">GAVEL</p>", "conditions": [18, 1200, "v", 18000], "internal_node_id": "0.0-52.0", "trial": 1, "time_elapsed": 470064, "serialpos": 15, "key_press": -1, "wordID": 626, "type": "PRES_VIS", "trial_index": 70}, "uniqueid": "MTK3218:3LRKMWOKB6O8EZUGSFGALIG6PR5Z2B", "dateTime": 1520266797221}, {"current_trial": 71, "trialdata": {"rt": -1, "trial_type": "single-stim", "word": "crown", "stimulus": "<p id=\"stim\">CROWN</p>", "conditions": [18, 1200, "v", 18000], "internal_node_id": "0.0-53.0", "trial": 1, "time_elapsed": 472425, "serialpos": 16, "key_press": -1, "wordID": 414, "type": "PRES_VIS", "trial_index": 71}, "uniqueid": "MTK3218:3LRKMWOKB6O8EZUGSFGALIG6PR5Z2B", "dateTime": 1520266799582}, {"current_trial": 72, "trialdata": {"rt": -1, "trial_type": "single-stim", "word": "wardrobe", "stimulus": "<p id=\"stim\">WARDROBE</p>", "conditions": [18, 1200, "v", 18000], "internal_node_id": "0.0-54.0", "trial": 1, "time_elapsed": 474564, "serialpos": 17, "key_press": -1, "wordID": 1586, "type": "PRES_VIS", "trial_index": 72}, "uniqueid": "MTK3218:3LRKMWOKB6O8EZUGSFGALIG6PR5Z2B", "dateTime": 1520266801722}, {"current_trial": 73, "trialdata": {"rt": -1, "trial_type": "single-stim", "stimulus": "", "internal_node_id": "0.0-55.0-0.0", "time_elapsed": 477026, "key_press": -1, "type": "PRE_RECALL_DELAY", "trial_index": 73}, "uniqueid": "MTK3218:3LRKMWOKB6O8EZUGSFGALIG6PR5Z2B", "dateTime": 1520266804183}, {"current_trial": 74, "trialdata": {"rt": -1000, "trial_type": "single-audio", "stimulus": "/static/audio/400Hz.wav", "internal_node_id": "0.0-56.0", "time_elapsed": 477528, "key_press": -1, "type": "PRE_RECALL_ALERT", "trial_index": 74}, "uniqueid": "MTK3218:3LRKMWOKB6O8EZUGSFGALIG6PR5Z2B", "dateTime": 1520266804685}, {"current_trial": 75, "trialdata": {"rt": [9170, 19360, 26858, 36965, 43760, 50405, 57761], "recwords": ["toaster", "zebra", "viking", "shrub", "ground", "beaver", "snail"], "key_times": [3295, 4338, 4801, 5569, 5926, 6416, 7057, 9170, 14955, 15765, 17156, 18141, 18404, 19360, 20905, 21855, 23492, 24016, 24543, 25166, 26858, 30667, 32318, 33874, 34957, 35826, 36965, 38875, 39736, 40755, 41278, 41910, 42541, 43760, 45538, 46231, 47169, 47691, 48134, 48968, 50405, 52989, 53596, 54540, 55059, 55748, 57761, 59218], "trial_type": "free-recall", "conditions": [18, 1200, "v", 18000], "internal_node_id": "0.0-57.0-0.0", "key_presses": [84, 79, 65, 83, 84, 69, 82, 13, 90, 69, 66, 82, 65, 13, 86, 73, 75, 73, 78, 71, 13, 83, 72, 82, 85, 66, 13, 71, 82, 79, 85, 78, 68, 13, 66, 69, 65, 86, 69, 82, 13, 83, 78, 65, 73, 76, 13, 67], "trial": 1, "time_elapsed": 537534, "type": "FREE_RECALL", "trial_index": 75}, "uniqueid": "MTK3218:3LRKMWOKB6O8EZUGSFGALIG6PR5Z2B", "dateTime": 1520266864694}, {"current_trial": 76, "trialdata": {"rt": 175, "trial_type": "text", "internal_node_id": "0.0-58.0", "time_elapsed": 539712, "key_press": 87, "type": "INSTRUCTIONS", "trial_index": 76}, "uniqueid": "MTK3218:3LRKMWOKB6O8EZUGSFGALIG6PR5Z2B", "dateTime": 1520266866869}, {"current_trial": 77, "trialdata": {"rt": [8774], "trial_type": "math-distractor", "key_times": [7250, 7962, 8774, 11991], "responses": ["12"], "num2": [6, 5], "num3": [1, 2], "conditions": [12, 800, "v", 12000], "internal_node_id": "0.0-59.0", "key_presses": [49, 50, 13, 57], "trial": 2, "time_elapsed": 552717, "type": "DISTRACTOR", "trial_index": 77, "num1": [5, 2]}, "uniqueid": "MTK3218:3LRKMWOKB6O8EZUGSFGALIG6PR5Z2B", "dateTime": 1520266879874}, {"current_trial": 78, "trialdata": {"rt": -1, "trial_type": "single-stim", "stimulus": "<p id=\"stim\">10</p>", "internal_node_id": "0.0-60.0-0.0", "time_elapsed": 555717, "key_press": -1, "trial_index": 78}, "uniqueid": "MTK3218:3LRKMWOKB6O8EZUGSFGALIG6PR5Z2B", "dateTime": 1520266882874}, {"current_trial": 79, "trialdata": {"rt": -1, "trial_type": "single-stim", "stimulus": "<p id=\"stim\">9</p>", "internal_node_id": "0.0-60.0-1.0", "time_elapsed": 556719, "key_press": -1, "trial_index": 79}, "uniqueid": "MTK3218:3LRKMWOKB6O8EZUGSFGALIG6PR5Z2B", "dateTime": 1520266883876}, {"current_trial": 80, "trialdata": {"rt": -1, "trial_type": "single-stim", "stimulus": "<p id=\"stim\">8</p>", "internal_node_id": "0.0-60.0-2.0", "time_elapsed": 557719, "key_press": -1, "trial_index": 80}, "uniqueid": "MTK3218:3LRKMWOKB6O8EZUGSFGALIG6PR5Z2B", "dateTime": 1520266884877}, {"current_trial": 81, "trialdata": {"rt": -1, "trial_type": "single-stim", "stimulus": "<p id=\"stim\">7</p>", "internal_node_id": "0.0-60.0-3.0", "time_elapsed": 558720, "key_press": -1, "trial_index": 81}, "uniqueid": "MTK3218:3LRKMWOKB6O8EZUGSFGALIG6PR5Z2B", "dateTime": 1520266885878}, {"current_trial": 82, "trialdata": {"rt": -1, "trial_type": "single-stim", "stimulus": "<p id=\"stim\">6</p>", "internal_node_id": "0.0-60.0-4.0", "time_elapsed": 559723, "key_press": -1, "trial_index": 82}, "uniqueid": "MTK3218:3LRKMWOKB6O8EZUGSFGALIG6PR5Z2B", "dateTime": 1520266886880}, {"current_trial": 83, "trialdata": {"rt": -1, "trial_type": "single-stim", "stimulus": "<p id=\"stim\">5</p>", "internal_node_id": "0.0-60.0-5.0", "time_elapsed": 560723, "key_press": -1, "trial_index": 83}, "uniqueid": "MTK3218:3LRKMWOKB6O8EZUGSFGALIG6PR5Z2B", "dateTime": 1520266887881}, {"current_trial": 84, "trialdata": {"rt": -1, "trial_type": "single-stim", "stimulus": "<p id=\"stim\">4</p>", "internal_node_id": "0.0-60.0-6.0", "time_elapsed": 561724, "key_press": -1, "trial_index": 84}, "uniqueid": "MTK3218:3LRKMWOKB6O8EZUGSFGALIG6PR5Z2B", "dateTime": 1520266888881}, {"current_trial": 85, "trialdata": {"rt": -1, "trial_type": "single-stim", "stimulus": "<p id=\"stim\">3</p>", "internal_node_id": "0.0-60.0-7.0", "time_elapsed": 562727, "key_press": -1, "trial_index": 85}, "uniqueid": "MTK3218:3LRKMWOKB6O8EZUGSFGALIG6PR5Z2B", "dateTime": 1520266889884}, {"current_trial": 86, "trialdata": {"rt": -1, "trial_type": "single-stim", "stimulus": "<p id=\"stim\">2</p>", "internal_node_id": "0.0-60.0-8.0", "time_elapsed": 563728, "key_press": -1, "trial_index": 86}, "uniqueid": "MTK3218:3LRKMWOKB6O8EZUGSFGALIG6PR5Z2B", "dateTime": 1520266890886}, {"current_trial": 87, "trialdata": {"rt": -1, "trial_type": "single-stim", "stimulus": "<p id=\"stim\">1</p>", "internal_node_id": "0.0-60.0-9.0", "time_elapsed": 564730, "key_press": -1, "trial_index": 87}, "uniqueid": "MTK3218:3LRKMWOKB6O8EZUGSFGALIG6PR5Z2B", "dateTime": 1520266891887}, {"current_trial": 88, "trialdata": {"rt": -1, "trial_type": "single-stim", "stimulus": "<p id=\"stim\">+</p>", "internal_node_id": "0.0-61.0-0.0", "time_elapsed": 566232, "key_press": -1, "type": "FIXATION", "trial_index": 88}, "uniqueid": "MTK3218:3LRKMWOKB6O8EZUGSFGALIG6PR5Z2B", "dateTime": 1520266893390}, {"current_trial": 89, "trialdata": {"rt": -1, "trial_type": "single-stim", "word": "transplant", "stimulus": "<p id=\"stim\">TRANSPLANT</p>", "conditions": [12, 800, "v", 12000], "internal_node_id": "0.0-62.0", "trial": 2, "time_elapsed": 567034, "serialpos": 0, "key_press": -1, "wordID": 1495, "type": "PRES_VIS", "trial_index": 89}, "uniqueid": "MTK3218:3LRKMWOKB6O8EZUGSFGALIG6PR5Z2B", "dateTime": 1520266894192}, {"current_trial": 90, "trialdata": {"rt": -1, "trial_type": "single-stim", "word": "window", "stimulus": "<p id=\"stim\">WINDOW</p>", "conditions": [12, 800, "v", 12000], "internal_node_id": "0.0-63.0", "trial": 2, "time_elapsed": 568771, "serialpos": 1, "key_press": -1, "wordID": 1610, "type": "PRES_VIS", "trial_index": 90}, "uniqueid": "MTK3218:3LRKMWOKB6O8EZUGSFGALIG6PR5Z2B", "dateTime": 1520266895928}, {"current_trial": 91, "trialdata": {"rt": -1, "trial_type": "single-stim", "word": "student", "stimulus": "<p id=\"stim\">STUDENT</p>", "conditions": [12, 800, "v", 12000], "internal_node_id": "0.0-64.0", "trial": 2, "time_elapsed": 570463, "serialpos": 2, "key_press": -1, "wordID": 1394, "type": "PRES_VIS", "trial_index": 91}, "uniqueid": "MTK3218:3LRKMWOKB6O8EZUGSFGALIG6PR5Z2B", "dateTime": 1520266897620}, {"current_trial": 92, "trialdata": {"rt": -1, "trial_type": "single-stim", "word": "dorm", "stimulus": "<p id=\"stim\">DORM</p>", "conditions": [12, 800, "v", 12000], "internal_node_id": "0.0-65.0", "trial": 2, "time_elapsed": 572312, "serialpos": 3, "key_press": -1, "wordID": 487, "type": "PRES_VIS", "trial_index": 92}, "uniqueid": "MTK3218:3LRKMWOKB6O8EZUGSFGALIG6PR5Z2B", "dateTime": 1520266899470}, {"current_trial": 93, "trialdata": {"rt": -1, "trial_type": "single-stim", "word": "apple", "stimulus": "<p id=\"stim\">APPLE</p>", "conditions": [12, 800, "v", 12000], "internal_node_id": "0.0-66.0", "trial": 2, "time_elapsed": 573938, "serialpos": 4, "key_press": -1, "wordID": 32, "type": "PRES_VIS", "trial_index": 93}, "uniqueid": "MTK3218:3LRKMWOKB6O8EZUGSFGALIG6PR5Z2B", "dateTime": 1520266901096}, {"current_trial": 94, "trialdata": {"rt": -1, "trial_type": "single-stim", "word": "dustpan", "stimulus": "<p id=\"stim\">DUSTPAN</p>", "conditions": [12, 800, "v", 12000], "internal_node_id": "0.0-67.0", "trial": 2, "time_elapsed": 575698, "serialpos": 5, "key_press": -1, "wordID": 508, "type": "PRES_VIS", "trial_index": 94}, "uniqueid": "MTK3218:3LRKMWOKB6O8EZUGSFGALIG6PR5Z2B", "dateTime": 1520266902855}, {"current_trial": 95, "trialdata": {"rt": -1, "trial_type": "single-stim", "word": "child", "stimulus": "<p id=\"stim\">CHILD</p>", "conditions": [12, 800, "v", 12000], "internal_node_id": "0.0-68.0", "trial": 2, "time_elapsed": 577460, "serialpos": 6, "key_press": -1, "wordID": 298, "type": "PRES_VIS", "trial_index": 95}, "uniqueid": "MTK3218:3LRKMWOKB6O8EZUGSFGALIG6PR5Z2B", "dateTime": 1520266904617}, {"current_trial": 96, "trialdata": {"rt": -1, "trial_type": "single-stim", "word": "star", "stimulus": "<p id=\"stim\">STAR</p>", "conditions": [12, 800, "v", 12000], "internal_node_id": "0.0-69.0", "trial": 2, "time_elapsed": 579161, "serialpos": 7, "key_press": -1, "wordID": 1372, "type": "PRES_VIS", "trial_index": 96}, "uniqueid": "MTK3218:3LRKMWOKB6O8EZUGSFGALIG6PR5Z2B", "dateTime": 1520266906319}, {"current_trial": 97, "trialdata": {"rt": -1, "trial_type": "single-stim", "word": "football", "stimulus": "<p id=\"stim\">FOOTBALL</p>", "conditions": [12, 800, "v", 12000], "internal_node_id": "0.0-70.0", "trial": 2, "time_elapsed": 580985, "serialpos": 8, "key_press": -1, "wordID": 590, "type": "PRES_VIS", "trial_index": 97}, "uniqueid": "MTK3218:3LRKMWOKB6O8EZUGSFGALIG6PR5Z2B", "dateTime": 1520266908143}, {"current_trial": 98, "trialdata": {"rt": -1, "trial_type": "single-stim", "word": "kidney", "stimulus": "<p id=\"stim\">KIDNEY</p>", "conditions": [12, 800, "v", 12000], "internal_node_id": "0.0-71.0", "trial": 2, "time_elapsed": 582674, "serialpos": 9, "key_press": -1, "wordID": 775, "type": "PRES_VIS", "trial_index": 98}, "uniqueid": "MTK3218:3LRKMWOKB6O8EZUGSFGALIG6PR5Z2B", "dateTime": 1520266909831}, {"current_trial": 99, "trialdata": {"rt": -1, "trial_type": "single-stim", "word": "market", "stimulus": "<p id=\"stim\">MARKET</p>", "conditions": [12, 800, "v", 12000], "internal_node_id": "0.0-72.0", "trial": 2, "time_elapsed": 584431, "serialpos": 10, "key_press": -1, "wordID": 870, "type": "PRES_VIS", "trial_index": 99}, "uniqueid": "MTK3218:3LRKMWOKB6O8EZUGSFGALIG6PR5Z2B", "dateTime": 1520266911588}, {"current_trial": 100, "trialdata": {"rt": -1, "trial_type": "single-stim", "word": "stove", "stimulus": "<p id=\"stim\">STOVE</p>", "conditions": [12, 800, "v", 12000], "internal_node_id": "0.0-73.0", "trial": 2, "time_elapsed": 586285, "serialpos": 11, "key_press": -1, "wordID": 1387, "type": "PRES_VIS", "trial_index": 100}, "uniqueid": "MTK3218:3LRKMWOKB6O8EZUGSFGALIG6PR5Z2B", "dateTime": 1520266913443}, {"current_trial": 101, "trialdata": {"rt": -1, "trial_type": "single-stim", "stimulus": "", "internal_node_id": "0.0-74.0-0.0", "time_elapsed": 588597, "key_press": -1, "type": "PRE_RECALL_DELAY", "trial_index": 101}, "uniqueid": "MTK3218:3LRKMWOKB6O8EZUGSFGALIG6PR5Z2B", "dateTime": 1520266915754}, {"current_trial": 102, "trialdata": {"rt": -1000, "trial_type": "single-audio", "stimulus": "/static/audio/400Hz.wav", "internal_node_id": "0.0-75.0", "time_elapsed": 589098, "key_press": -1, "type": "PRE_RECALL_ALERT", "trial_index": 102}, "uniqueid": "MTK3218:3LRKMWOKB6O8EZUGSFGALIG6PR5Z2B", "dateTime": 1520266916255}, {"current_trial": 103, "trialdata": {"rt": [6327, 13867, 21952, 46249], "recwords": ["stove", "kidney", "child", "dorm"], "key_times": [2464, 3132, 3991, 4687, 5311, 6327, 8359, 8908, 9815, 10570, 11306, 11844, 13867, 14883, 15892, 16635, 17213, 18387, 21952, 23414, 24312, 25057, 26008, 46249, 47775, 48104, 48576, 49073, 49391, 49798], "trial_type": "free-recall", "conditions": [12, 800, "v", 12000], "internal_node_id": "0.0-76.0-0.0", "key_presses": [83, 84, 79, 86, 69, 13, 75, 73, 68, 78, 69, 89, 13, 67, 72, 73, 76, 68, 13, 68, 79, 82, 77, 13, 87, 73, 78, 68, 79, 87], "trial": 2, "time_elapsed": 649102, "type": "FREE_RECALL", "trial_index": 103}, "uniqueid": "MTK3218:3LRKMWOKB6O8EZUGSFGALIG6PR5Z2B", "dateTime": 1520266976264}, {"current_trial": 104, "trialdata": {"rt": 6930, "trial_type": "text", "internal_node_id": "0.0-77.0", "time_elapsed": 658040, "key_press": 76, "type": "INSTRUCTIONS", "trial_index": 104}, "uniqueid": "MTK3218:3LRKMWOKB6O8EZUGSFGALIG6PR5Z2B", "dateTime": 1520266985197}, {"current_trial": 105, "trialdata": {"rt": [3829, 6633, 11253], "trial_type": "math-distractor", "key_times": [2781, 3199, 3829, 5966, 6633, 9242, 10297, 11253], "responses": ["11", "5", "13"], "num2": [2, 3, 9, 2], "num3": [5, 1, 3, 3], "conditions": [12, 1600, "v", 12000], "internal_node_id": "0.0-78.0", "key_presses": [49, 49, 13, 53, 13, 49, 51, 13], "trial": 3, "time_elapsed": 672043, "type": "DISTRACTOR", "trial_index": 105, "num1": [4, 1, 1, 6]}, "uniqueid": "MTK3218:3LRKMWOKB6O8EZUGSFGALIG6PR5Z2B", "dateTime": 1520266999200}, {"current_trial": 106, "trialdata": {"rt": -1, "trial_type": "single-stim", "stimulus": "<p id=\"stim\">10</p>", "internal_node_id": "0.0-79.0-0.0", "time_elapsed": 675044, "key_press": -1, "trial_index": 106}, "uniqueid": "MTK3218:3LRKMWOKB6O8EZUGSFGALIG6PR5Z2B", "dateTime": 1520267002202}, {"current_trial": 107, "trialdata": {"rt": -1, "trial_type": "single-stim", "stimulus": "<p id=\"stim\">9</p>", "internal_node_id": "0.0-79.0-1.0", "time_elapsed": 676046, "key_press": -1, "trial_index": 107}, "uniqueid": "MTK3218:3LRKMWOKB6O8EZUGSFGALIG6PR5Z2B", "dateTime": 1520267003204}, {"current_trial": 108, "trialdata": {"rt": -1, "trial_type": "single-stim", "stimulus": "<p id=\"stim\">8</p>", "internal_node_id": "0.0-79.0-2.0", "time_elapsed": 677047, "key_press": -1, "trial_index": 108}, "uniqueid": "MTK3218:3LRKMWOKB6O8EZUGSFGALIG6PR5Z2B", "dateTime": 1520267004206}, {"current_trial": 109, "trialdata": {"rt": -1, "trial_type": "single-stim", "stimulus": "<p id=\"stim\">7</p>", "internal_node_id": "0.0-79.0-3.0", "time_elapsed": 678049, "key_press": -1, "trial_index": 109}, "uniqueid": "MTK3218:3LRKMWOKB6O8EZUGSFGALIG6PR5Z2B", "dateTime": 1520267005207}, {"current_trial": 110, "trialdata": {"rt": -1, "trial_type": "single-stim", "stimulus": "<p id=\"stim\">6</p>", "internal_node_id": "0.0-79.0-4.0", "time_elapsed": 679050, "key_press": -1, "trial_index": 110}, "uniqueid": "MTK3218:3LRKMWOKB6O8EZUGSFGALIG6PR5Z2B", "dateTime": 1520267006207}, {"current_trial": 111, "trialdata": {"rt": -1, "trial_type": "single-stim", "stimulus": "<p id=\"stim\">5</p>", "internal_node_id": "0.0-79.0-5.0", "time_elapsed": 680051, "key_press": -1, "trial_index": 111}, "uniqueid": "MTK3218:3LRKMWOKB6O8EZUGSFGALIG6PR5Z2B", "dateTime": 1520267007208}, {"current_trial": 112, "trialdata": {"rt": -1, "trial_type": "single-stim", "stimulus": "<p id=\"stim\">4</p>", "internal_node_id": "0.0-79.0-6.0", "time_elapsed": 681052, "key_press": -1, "trial_index": 112}, "uniqueid": "MTK3218:3LRKMWOKB6O8EZUGSFGALIG6PR5Z2B", "dateTime": 1520267008209}, {"current_trial": 113, "trialdata": {"rt": -1, "trial_type": "single-stim", "stimulus": "<p id=\"stim\">3</p>", "internal_node_id": "0.0-79.0-7.0", "time_elapsed": 682053, "key_press": -1, "trial_index": 113}, "uniqueid": "MTK3218:3LRKMWOKB6O8EZUGSFGALIG6PR5Z2B", "dateTime": 1520267009210}, {"current_trial": 114, "trialdata": {"rt": -1, "trial_type": "single-stim", "stimulus": "<p id=\"stim\">2</p>", "internal_node_id": "0.0-79.0-8.0", "time_elapsed": 683054, "key_press": -1, "trial_index": 114}, "uniqueid": "MTK3218:3LRKMWOKB6O8EZUGSFGALIG6PR5Z2B", "dateTime": 1520267010212}, {"current_trial": 115, "trialdata": {"rt": -1, "trial_type": "single-stim", "stimulus": "<p id=\"stim\">1</p>", "internal_node_id": "0.0-79.0-9.0", "time_elapsed": 684055, "key_press": -1, "trial_index": 115}, "uniqueid": "MTK3218:3LRKMWOKB6O8EZUGSFGALIG6PR5Z2B", "dateTime": 1520267011212}, {"current_trial": 116, "trialdata": {"rt": -1, "trial_type": "single-stim", "stimulus": "<p id=\"stim\">+</p>", "internal_node_id": "0.0-80.0-0.0", "time_elapsed": 685557, "key_press": -1, "type": "FIXATION", "trial_index": 116}, "uniqueid": "MTK3218:3LRKMWOKB6O8EZUGSFGALIG6PR5Z2B", "dateTime": 1520267012714}, {"current_trial": 117, "trialdata": {"rt": -1, "trial_type": "single-stim", "word": "foot", "stimulus": "<p id=\"stim\">FOOT</p>", "conditions": [12, 1600, "v", 12000], "internal_node_id": "0.0-81.0", "trial": 3, "time_elapsed": 687157, "serialpos": 0, "key_press": -1, "wordID": 589, "type": "PRES_VIS", "trial_index": 117}, "uniqueid": "MTK3218:3LRKMWOKB6O8EZUGSFGALIG6PR5Z2B", "dateTime": 1520267014316}, {"current_trial": 118, "trialdata": {"rt": -1, "trial_type": "single-stim", "word": "shelter", "stimulus": "<p id=\"stim\">SHELTER</p>", "conditions": [12, 1600, "v", 12000], "internal_node_id": "0.0-82.0", "trial": 3, "time_elapsed": 689879, "serialpos": 1, "key_press": -1, "wordID": 1281, "type": "PRES_VIS", "trial_index": 118}, "uniqueid": "MTK3218:3LRKMWOKB6O8EZUGSFGALIG6PR5Z2B", "dateTime": 1520267017036}, {"current_trial": 119, "trialdata": {"rt": -1, "trial_type": "single-stim", "word": "clamp", "stimulus": "<p id=\"stim\">CLAMP</p>", "conditions": [12, 1600, "v", 12000], "internal_node_id": "0.0-83.0", "trial": 3, "time_elapsed": 692661, "serialpos": 2, "key_press": -1, "wordID": 315, "type": "PRES_VIS", "trial_index": 119}, "uniqueid": "MTK3218:3LRKMWOKB6O8EZUGSFGALIG6PR5Z2B", "dateTime": 1520267019818}, {"current_trial": 120, "trialdata": {"rt": -1, "trial_type": "single-stim", "word": "lipstick", "stimulus": "<p id=\"stim\">LIPSTICK</p>", "conditions": [12, 1600, "v", 12000], "internal_node_id": "0.0-84.0", "trial": 3, "time_elapsed": 695240, "serialpos": 3, "key_press": -1, "wordID": 828, "type": "PRES_VIS", "trial_index": 120}, "uniqueid": "MTK3218:3LRKMWOKB6O8EZUGSFGALIG6PR5Z2B", "dateTime": 1520267022398}, {"current_trial": 121, "trialdata": {"rt": -1, "trial_type": "single-stim", "word": "tuba", "stimulus": "<p id=\"stim\">TUBA</p>", "conditions": [12, 1600, "v", 12000], "internal_node_id": "0.0-85.0", "trial": 3, "time_elapsed": 697730, "serialpos": 4, "key_press": -1, "wordID": 1514, "type": "PRES_VIS", "trial_index": 121}, "uniqueid": "MTK3218:3LRKMWOKB6O8EZUGSFGALIG6PR5Z2B", "dateTime": 1520267024887}, {"current_trial": 122, "trialdata": {"rt": -1, "trial_type": "single-stim", "word": "chapel", "stimulus": "<p id=\"stim\">CHAPEL</p>", "conditions": [12, 1600, "v", 12000], "internal_node_id": "0.0-86.0", "trial": 3, "time_elapsed": 700282, "serialpos": 5, "key_press": -1, "wordID": 279, "type": "PRES_VIS", "trial_index": 122}, "uniqueid": "MTK3218:3LRKMWOKB6O8EZUGSFGALIG6PR5Z2B", "dateTime": 1520267027440}, {"current_trial": 123, "trialdata": {"rt": -1, "trial_type": "single-stim", "word": "crab", "stimulus": "<p id=\"stim\">CRAB</p>", "conditions": [12, 1600, "v", 12000], "internal_node_id": "0.0-87.0", "trial": 3, "time_elapsed": 702870, "serialpos": 6, "key_press": -1, "wordID": 396, "type": "PRES_VIS", "trial_index": 123}, "uniqueid": "MTK3218:3LRKMWOKB6O8EZUGSFGALIG6PR5Z2B", "dateTime": 1520267030027}, {"current_trial": 124, "trialdata": {"rt": -1, "trial_type": "single-stim", "word": "cod", "stimulus": "<p id=\"stim\">COD</p>", "conditions": [12, 1600, "v", 12000], "internal_node_id": "0.0-88.0", "trial": 3, "time_elapsed": 705549, "serialpos": 7, "key_press": -1, "wordID": 339, "type": "PRES_VIS", "trial_index": 124}, "uniqueid": "MTK3218:3LRKMWOKB6O8EZUGSFGALIG6PR5Z2B", "dateTime": 1520267032706}, {"current_trial": 125, "trialdata": {"rt": -1, "trial_type": "single-stim", "word": "flute", "stimulus": "<p id=\"stim\">FLUTE</p>", "conditions": [12, 1600, "v", 12000], "internal_node_id": "0.0-89.0", "trial": 3, "time_elapsed": 708077, "serialpos": 8, "key_press": -1, "wordID": 584, "type": "PRES_VIS", "trial_index": 125}, "uniqueid": "MTK3218:3LRKMWOKB6O8EZUGSFGALIG6PR5Z2B", "dateTime": 1520267035235}, {"current_trial": 126, "trialdata": {"rt": -1, "trial_type": "single-stim", "word": "pilot", "stimulus": "<p id=\"stim\">PILOT</p>", "conditions": [12, 1600, "v", 12000], "internal_node_id": "0.0-90.0", "trial": 3, "time_elapsed": 710611, "serialpos": 9, "key_press": -1, "wordID": 1069, "type": "PRES_VIS", "trial_index": 126}, "uniqueid": "MTK3218:3LRKMWOKB6O8EZUGSFGALIG6PR5Z2B", "dateTime": 1520267037768}, {"current_trial": 127, "trialdata": {"rt": -1, "trial_type": "single-stim", "word": "kitchen", "stimulus": "<p id=\"stim\">KITCHEN</p>", "conditions": [12, 1600, "v", 12000], "internal_node_id": "0.0-91.0", "trial": 3, "time_elapsed": 713191, "serialpos": 10, "key_press": -1, "wordID": 777, "type": "PRES_VIS", "trial_index": 127}, "uniqueid": "MTK3218:3LRKMWOKB6O8EZUGSFGALIG6PR5Z2B", "dateTime": 1520267040349}, {"current_trial": 128, "trialdata": {"rt": -1, "trial_type": "single-stim", "word": "beaker", "stimulus": "<p id=\"stim\">BEAKER</p>", "conditions": [12, 1600, "v", 12000], "internal_node_id": "0.0-92.0", "trial": 3, "time_elapsed": 715951, "serialpos": 11, "key_press": -1, "wordID": 103, "type": "PRES_VIS", "trial_index": 128}, "uniqueid": "MTK3218:3LRKMWOKB6O8EZUGSFGALIG6PR5Z2B", "dateTime": 1520267043108}, {"current_trial": 129, "trialdata": {"rt": -1, "trial_type": "single-stim", "stimulus": "", "internal_node_id": "0.0-93.0-0.0", "time_elapsed": 718352, "key_press": -1, "type": "PRE_RECALL_DELAY", "trial_index": 129}, "uniqueid": "MTK3218:3LRKMWOKB6O8EZUGSFGALIG6PR5Z2B", "dateTime": 1520267045509}, {"current_trial": 130, "trialdata": {"rt": -1000, "trial_type": "single-audio", "stimulus": "/static/audio/400Hz.wav", "internal_node_id": "0.0-94.0", "time_elapsed": 718854, "key_press": -1, "type": "PRE_RECALL_ALERT", "trial_index": 130}, "uniqueid": "MTK3218:3LRKMWOKB6O8EZUGSFGALIG6PR5Z2B", "dateTime": 1520267046011}, {"current_trial": 131, "trialdata": {"rt": [7361, 14528, 22218, 30609, 36586, 40008, 46461], "recwords": ["beaker", "foot", "shelter", "lipstick", "chapel", "cod", "flute"], "key_times": [3159, 3638, 4372, 4946, 5453, 6095, 7361, 12910, 13291, 13549, 13909, 14528, 15342, 15987, 16438, 19109, 20099, 20258, 20922, 22218, 24395, 24890, 25510, 26122, 26724, 27662, 28255, 28793, 30609, 31769, 32469, 33412, 33976, 34555, 35437, 36586, 37442, 37875, 39085, 40008, 41758, 42837, 43606, 44334, 44808, 46461], "trial_type": "free-recall", "conditions": [12, 1600, "v", 12000], "internal_node_id": "0.0-95.0-0.0", "key_presses": [66, 69, 65, 75, 69, 82, 13, 70, 79, 79, 84, 32, 83, 72, 69, 76, 84, 69, 82, 32, 76, 73, 80, 83, 84, 73, 67, 75, 32, 67, 72, 65, 80, 69, 76, 32, 67, 79, 68, 32, 70, 76, 85, 84, 69, 13], "trial": 3, "time_elapsed": 778859, "type": "FREE_RECALL", "trial_index": 131}, "uniqueid": "MTK3218:3LRKMWOKB6O8EZUGSFGALIG6PR5Z2B", "dateTime": 1520267106023}, {"current_trial": 132, "trialdata": {"rt": 9365, "trial_type": "text", "internal_node_id": "0.0-96.0", "time_elapsed": 790231, "key_press": 76, "type": "INSTRUCTIONS", "trial_index": 132}, "uniqueid": "MTK3218:3LRKMWOKB6O8EZUGSFGALIG6PR5Z2B", "dateTime": 1520267117390}, {"current_trial": 133, "trialdata": {"rt": [4328, 9763, 14425, 19671, 23185], "trial_type": "math-distractor", "key_times": [2482, 3214, 4328, 8057, 8570, 9763, 13103, 13503, 14425, 17912, 18431, 19671, 22031, 23185], "responses": ["15", "13", "21", "13", "8"], "num2": [7, 8, 8, 2, 1, 7], "num3": [2, 2, 8, 2, 1, 1], "conditions": [24, 1600, "v", 24000], "internal_node_id": "0.0-97.0", "key_presses": [49, 53, 13, 49, 51, 13, 50, 49, 13, 49, 51, 13, 56, 13], "trial": 4, "time_elapsed": 816237, "type": "DISTRACTOR", "trial_index": 133, "num1": [6, 3, 5, 9, 6, 4]}, "uniqueid": "MTK3218:3LRKMWOKB6O8EZUGSFGALIG6PR5Z2B", "dateTime": 1520267143394}, {"current_trial": 134, "trialdata": {"rt": -1, "trial_type": "single-stim", "stimulus": "<p id=\"stim\">10</p>", "internal_node_id": "0.0-98.0-0.0", "time_elapsed": 819238, "key_press": -1, "trial_index": 134}, "uniqueid": "MTK3218:3LRKMWOKB6O8EZUGSFGALIG6PR5Z2B", "dateTime": 1520267146396}, {"current_trial": 135, "trialdata": {"rt": -1, "trial_type": "single-stim", "stimulus": "<p id=\"stim\">9</p>", "internal_node_id": "0.0-98.0-1.0", "time_elapsed": 820239, "key_press": -1, "trial_index": 135}, "uniqueid": "MTK3218:3LRKMWOKB6O8EZUGSFGALIG6PR5Z2B", "dateTime": 1520267147397}, {"current_trial": 136, "trialdata": {"rt": -1, "trial_type": "single-stim", "stimulus": "<p id=\"stim\">8</p>", "internal_node_id": "0.0-98.0-2.0", "time_elapsed": 821240, "key_press": -1, "trial_index": 136}, "uniqueid": "MTK3218:3LRKMWOKB6O8EZUGSFGALIG6PR5Z2B", "dateTime": 1520267148399}, {"current_trial": 137, "trialdata": {"rt": -1, "trial_type": "single-stim", "stimulus": "<p id=\"stim\">7</p>", "internal_node_id": "0.0-98.0-3.0", "time_elapsed": 822242, "key_press": -1, "trial_index": 137}, "uniqueid": "MTK3218:3LRKMWOKB6O8EZUGSFGALIG6PR5Z2B", "dateTime": 1520267149399}, {"current_trial": 138, "trialdata": {"rt": -1, "trial_type": "single-stim", "stimulus": "<p id=\"stim\">6</p>", "internal_node_id": "0.0-98.0-4.0", "time_elapsed": 823243, "key_press": -1, "trial_index": 138}, "uniqueid": "MTK3218:3LRKMWOKB6O8EZUGSFGALIG6PR5Z2B", "dateTime": 1520267150401}, {"current_trial": 139, "trialdata": {"rt": -1, "trial_type": "single-stim", "stimulus": "<p id=\"stim\">5</p>", "internal_node_id": "0.0-98.0-5.0", "time_elapsed": 824244, "key_press": -1, "trial_index": 139}, "uniqueid": "MTK3218:3LRKMWOKB6O8EZUGSFGALIG6PR5Z2B", "dateTime": 1520267151402}, {"current_trial": 140, "trialdata": {"rt": -1, "trial_type": "single-stim", "stimulus": "<p id=\"stim\">4</p>", "internal_node_id": "0.0-98.0-6.0", "time_elapsed": 825246, "key_press": -1, "trial_index": 140}, "uniqueid": "MTK3218:3LRKMWOKB6O8EZUGSFGALIG6PR5Z2B", "dateTime": 1520267152404}, {"current_trial": 141, "trialdata": {"rt": -1, "trial_type": "single-stim", "stimulus": "<p id=\"stim\">3</p>", "internal_node_id": "0.0-98.0-7.0", "time_elapsed": 826248, "key_press": -1, "trial_index": 141}, "uniqueid": "MTK3218:3LRKMWOKB6O8EZUGSFGALIG6PR5Z2B", "dateTime": 1520267153406}, {"current_trial": 142, "trialdata": {"rt": -1, "trial_type": "single-stim", "stimulus": "<p id=\"stim\">2</p>", "internal_node_id": "0.0-98.0-8.0", "time_elapsed": 827250, "key_press": -1, "trial_index": 142}, "uniqueid": "MTK3218:3LRKMWOKB6O8EZUGSFGALIG6PR5Z2B", "dateTime": 1520267154407}, {"current_trial": 143, "trialdata": {"rt": -1, "trial_type": "single-stim", "stimulus": "<p id=\"stim\">1</p>", "internal_node_id": "0.0-98.0-9.0", "time_elapsed": 828251, "key_press": -1, "trial_index": 143}, "uniqueid": "MTK3218:3LRKMWOKB6O8EZUGSFGALIG6PR5Z2B", "dateTime": 1520267155409}, {"current_trial": 144, "trialdata": {"rt": -1, "trial_type": "single-stim", "stimulus": "<p id=\"stim\">+</p>", "internal_node_id": "0.0-99.0-0.0", "time_elapsed": 829753, "key_press": -1, "type": "FIXATION", "trial_index": 144}, "uniqueid": "MTK3218:3LRKMWOKB6O8EZUGSFGALIG6PR5Z2B", "dateTime": 1520267156910}, {"current_trial": 145, "trialdata": {"rt": -1, "trial_type": "single-stim", "word": "lizard", "stimulus": "<p id=\"stim\">LIZARD</p>", "conditions": [24, 1600, "v", 24000], "internal_node_id": "0.0-100.0", "trial": 4, "time_elapsed": 831354, "serialpos": 0, "key_press": -1, "wordID": 833, "type": "PRES_VIS", "trial_index": 145}, "uniqueid": "MTK3218:3LRKMWOKB6O8EZUGSFGALIG6PR5Z2B", "dateTime": 1520267158511}, {"current_trial": 146, "trialdata": {"rt": -1, "trial_type": "single-stim", "word": "tweezers", "stimulus": "<p id=\"stim\">TWEEZERS</p>", "conditions": [24, 1600, "v", 24000], "internal_node_id": "0.0-101.0", "trial": 4, "time_elapsed": 834031, "serialpos": 1, "key_press": -1, "wordID": 1525, "type": "PRES_VIS", "trial_index": 146}, "uniqueid": "MTK3218:3LRKMWOKB6O8EZUGSFGALIG6PR5Z2B", "dateTime": 1520267161189}, {"current_trial": 147, "trialdata": {"rt": -1, "trial_type": "single-stim", "word": "harp", "stimulus": "<p id=\"stim\">HARP</p>", "conditions": [24, 1600, "v", 24000], "internal_node_id": "0.0-102.0", "trial": 4, "time_elapsed": 836625, "serialpos": 2, "key_press": -1, "wordID": 688, "type": "PRES_VIS", "trial_index": 147}, "uniqueid": "MTK3218:3LRKMWOKB6O8EZUGSFGALIG6PR5Z2B", "dateTime": 1520267163782}, {"current_trial": 148, "trialdata": {"rt": -1, "trial_type": "single-stim", "word": "piston", "stimulus": "<p id=\"stim\">PISTON</p>", "conditions": [24, 1600, "v", 24000], "internal_node_id": "0.0-103.0", "trial": 4, "time_elapsed": 839283, "serialpos": 3, "key_press": -1, "wordID": 1075, "type": "PRES_VIS", "trial_index": 148}, "uniqueid": "MTK3218:3LRKMWOKB6O8EZUGSFGALIG6PR5Z2B", "dateTime": 1520267166440}, {"current_trial": 149, "trialdata": {"rt": -1, "trial_type": "single-stim", "word": "tile", "stimulus": "<p id=\"stim\">TILE</p>", "conditions": [24, 1600, "v", 24000], "internal_node_id": "0.0-104.0", "trial": 4, "time_elapsed": 841813, "serialpos": 4, "key_press": -1, "wordID": 1467, "type": "PRES_VIS", "trial_index": 149}, "uniqueid": "MTK3218:3LRKMWOKB6O8EZUGSFGALIG6PR5Z2B", "dateTime": 1520267168970}, {"current_trial": 150, "trialdata": {"rt": -1, "trial_type": "single-stim", "word": "possum", "stimulus": "<p id=\"stim\">POSSUM</p>", "conditions": [24, 1600, "v", 24000], "internal_node_id": "0.0-105.0", "trial": 4, "time_elapsed": 844557, "serialpos": 5, "key_press": -1, "wordID": 1111, "type": "PRES_VIS", "trial_index": 150}, "uniqueid": "MTK3218:3LRKMWOKB6O8EZUGSFGALIG6PR5Z2B", "dateTime": 1520267171714}, {"current_trial": 151, "trialdata": {"rt": -1, "trial_type": "single-stim", "word": "beast", "stimulus": "<p id=\"stim\">BEAST</p>", "conditions": [24, 1600, "v", 24000], "internal_node_id": "0.0-106.0", "trial": 4, "time_elapsed": 847005, "serialpos": 6, "key_press": -1, "wordID": 107, "type": "PRES_VIS", "trial_index": 151}, "uniqueid": "MTK3218:3LRKMWOKB6O8EZUGSFGALIG6PR5Z2B", "dateTime": 1520267174162}, {"current_trial": 152, "trialdata": {"rt": -1, "trial_type": "single-stim", "word": "creature", "stimulus": "<p id=\"stim\">CREATURE</p>", "conditions": [24, 1600, "v", 24000], "internal_node_id": "0.0-107.0", "trial": 4, "time_elapsed": 849754, "serialpos": 7, "key_press": -1, "wordID": 402, "type": "PRES_VIS", "trial_index": 152}, "uniqueid": "MTK3218:3LRKMWOKB6O8EZUGSFGALIG6PR5Z2B", "dateTime": 1520267176911}, {"current_trial": 153, "trialdata": {"rt": -1, "trial_type": "single-stim", "word": "airport", "stimulus": "<p id=\"stim\">AIRPORT</p>", "conditions": [24, 1600, "v", 24000], "internal_node_id": "0.0-108.0", "trial": 4, "time_elapsed": 852193, "serialpos": 8, "key_press": -1, "wordID": 12, "type": "PRES_VIS", "trial_index": 153}, "uniqueid": "MTK3218:3LRKMWOKB6O8EZUGSFGALIG6PR5Z2B", "dateTime": 1520267179351}, {"current_trial": 154, "trialdata": {"rt": -1, "trial_type": "single-stim", "word": "cafe", "stimulus": "<p id=\"stim\">CAFE</p>", "conditions": [24, 1600, "v", 24000], "internal_node_id": "0.0-109.0", "trial": 4, "time_elapsed": 854849, "serialpos": 9, "key_press": -1, "wordID": 215, "type": "PRES_VIS", "trial_index": 154}, "uniqueid": "MTK3218:3LRKMWOKB6O8EZUGSFGALIG6PR5Z2B", "dateTime": 1520267182006}, {"current_trial": 155, "trialdata": {"rt": -1, "trial_type": "single-stim", "word": "hood", "stimulus": "<p id=\"stim\">HOOD</p>", "conditions": [24, 1600, "v", 24000], "internal_node_id": "0.0-110.0", "trial": 4, "time_elapsed": 857507, "serialpos": 10, "key_press": -1, "wordID": 713, "type": "PRES_VIS", "trial_index": 155}, "uniqueid": "MTK3218:3LRKMWOKB6O8EZUGSFGALIG6PR5Z2B", "dateTime": 1520267184664}, {"current_trial": 156, "trialdata": {"rt": -1, "trial_type": "single-stim", "word": "necklace", "stimulus": "<p id=\"stim\">NECKLACE</p>", "conditions": [24, 1600, "v", 24000], "internal_node_id": "0.0-111.0", "trial": 4, "time_elapsed": 860081, "serialpos": 11, "key_press": -1, "wordID": 939, "type": "PRES_VIS", "trial_index": 156}, "uniqueid": "MTK3218:3LRKMWOKB6O8EZUGSFGALIG6PR5Z2B", "dateTime": 1520267187238}, {"current_trial": 157, "trialdata": {"rt": -1, "trial_type": "single-stim", "word": "highway", "stimulus": "<p id=\"stim\">HIGHWAY</p>", "conditions": [24, 1600, "v", 24000], "internal_node_id": "0.0-112.0", "trial": 4, "time_elapsed": 862641, "serialpos": 12, "key_press": -1, "wordID": 706, "type": "PRES_VIS", "trial_index": 157}, "uniqueid": "MTK3218:3LRKMWOKB6O8EZUGSFGALIG6PR5Z2B", "dateTime": 1520267189798}, {"current_trial": 158, "trialdata": {"rt": -1, "trial_type": "single-stim", "word": "briefcase", "stimulus": "<p id=\"stim\">BRIEFCASE</p>", "conditions": [24, 1600, "v", 24000], "internal_node_id": "0.0-113.0", "trial": 4, "time_elapsed": 865396, "serialpos": 13, "key_press": -1, "wordID": 174, "type": "PRES_VIS", "trial_index": 158}, "uniqueid": "MTK3218:3LRKMWOKB6O8EZUGSFGALIG6PR5Z2B", "dateTime": 1520267192553}, {"current_trial": 159, "trialdata": {"rt": -1, "trial_type": "single-stim", "word": "dime", "stimulus": "<p id=\"stim\">DIME</p>", "conditions": [24, 1600, "v", 24000], "internal_node_id": "0.0-114.0", "trial": 4, "time_elapsed": 868183, "serialpos": 14, "key_press": -1, "wordID": 465, "type": "PRES_VIS", "trial_index": 159}, "uniqueid": "MTK3218:3LRKMWOKB6O8EZUGSFGALIG6PR5Z2B", "dateTime": 1520267195340}, {"current_trial": 160, "trialdata": {"rt": -1, "trial_type": "single-stim", "word": "temple", "stimulus": "<p id=\"stim\">TEMPLE</p>", "conditions": [24, 1600, "v", 24000], "internal_node_id": "0.0-115.0", "trial": 4, "time_elapsed": 870601, "serialpos": 15, "key_press": -1, "wordID": 1447, "type": "PRES_VIS", "trial_index": 160}, "uniqueid": "MTK3218:3LRKMWOKB6O8EZUGSFGALIG6PR5Z2B", "dateTime": 1520267197758}, {"current_trial": 161, "trialdata": {"rt": -1, "trial_type": "single-stim", "word": "bank", "stimulus": "<p id=\"stim\">BANK</p>", "conditions": [24, 1600, "v", 24000], "internal_node_id": "0.0-116.0", "trial": 4, "time_elapsed": 873041, "serialpos": 16, "key_press": -1, "wordID": 82, "type": "PRES_VIS", "trial_index": 161}, "uniqueid": "MTK3218:3LRKMWOKB6O8EZUGSFGALIG6PR5Z2B", "dateTime": 1520267200198}, {"current_trial": 162, "trialdata": {"rt": -1, "trial_type": "single-stim", "word": "branch", "stimulus": "<p id=\"stim\">BRANCH</p>", "conditions": [24, 1600, "v", 24000], "internal_node_id": "0.0-117.0", "trial": 4, "time_elapsed": 875654, "serialpos": 17, "key_press": -1, "wordID": 167, "type": "PRES_VIS", "trial_index": 162}, "uniqueid": "MTK3218:3LRKMWOKB6O8EZUGSFGALIG6PR5Z2B", "dateTime": 1520267202811}, {"current_trial": 163, "trialdata": {"rt": -1, "trial_type": "single-stim", "word": "wrench", "stimulus": "<p id=\"stim\">WRENCH</p>", "conditions": [24, 1600, "v", 24000], "internal_node_id": "0.0-118.0", "trial": 4, "time_elapsed": 878085, "serialpos": 18, "key_press": -1, "wordID": 1624, "type": "PRES_VIS", "trial_index": 163}, "uniqueid": "MTK3218:3LRKMWOKB6O8EZUGSFGALIG6PR5Z2B", "dateTime": 1520267205242}, {"current_trial": 164, "trialdata": {"rt": -1, "trial_type": "single-stim", "word": "patrol", "stimulus": "<p id=\"stim\">PATROL</p>", "conditions": [24, 1600, "v", 24000], "internal_node_id": "0.0-119.0", "trial": 4, "time_elapsed": 880814, "serialpos": 19, "key_press": -1, "wordID": 1026, "type": "PRES_VIS", "trial_index": 164}, "uniqueid": "MTK3218:3LRKMWOKB6O8EZUGSFGALIG6PR5Z2B", "dateTime": 1520267207971}, {"current_trial": 165, "trialdata": {"rt": -1, "trial_type": "single-stim", "word": "pocket", "stimulus": "<p id=\"stim\">POCKET</p>", "conditions": [24, 1600, "v", 24000], "internal_node_id": "0.0-120.0", "trial": 4, "time_elapsed": 883287, "serialpos": 20, "key_press": -1, "wordID": 1092, "type": "PRES_VIS", "trial_index": 165}, "uniqueid": "MTK3218:3LRKMWOKB6O8EZUGSFGALIG6PR5Z2B", "dateTime": 1520267210445}, {"current_trial": 166, "trialdata": {"rt": -1, "trial_type": "single-stim", "word": "silk", "stimulus": "<p id=\"stim\">SILK</p>", "conditions": [24, 1600, "v", 24000], "internal_node_id": "0.0-121.0", "trial": 4, "time_elapsed": 885771, "serialpos": 21, "key_press": -1, "wordID": 1306, "type": "PRES_VIS", "trial_index": 166}, "uniqueid": "MTK3218:3LRKMWOKB6O8EZUGSFGALIG6PR5Z2B", "dateTime": 1520267212928}, {"current_trial": 167, "trialdata": {"rt": -1, "trial_type": "single-stim", "word": "icing", "stimulus": "<p id=\"stim\">ICING</p>", "conditions": [24, 1600, "v", 24000], "internal_node_id": "0.0-122.0", "trial": 4, "time_elapsed": 888195, "serialpos": 22, "key_press": -1, "wordID": 731, "type": "PRES_VIS", "trial_index": 167}, "uniqueid": "MTK3218:3LRKMWOKB6O8EZUGSFGALIG6PR5Z2B", "dateTime": 1520267215354}, {"current_trial": 168, "trialdata": {"rt": -1, "trial_type": "single-stim", "word": "ointment", "stimulus": "<p id=\"stim\">OINTMENT</p>", "conditions": [24, 1600, "v", 24000], "internal_node_id": "0.0-123.0", "trial": 4, "time_elapsed": 890887, "serialpos": 23, "key_press": -1, "wordID": 973, "type": "PRES_VIS", "trial_index": 168}, "uniqueid": "MTK3218:3LRKMWOKB6O8EZUGSFGALIG6PR5Z2B", "dateTime": 1520267218044}, {"current_trial": 169, "trialdata": {"rt": -1, "trial_type": "single-stim", "stimulus": "", "internal_node_id": "0.0-124.0-0.0", "time_elapsed": 893314, "key_press": -1, "type": "PRE_RECALL_DELAY", "trial_index": 169}, "uniqueid": "MTK3218:3LRKMWOKB6O8EZUGSFGALIG6PR5Z2B", "dateTime": 1520267220471}, {"current_trial": 170, "trialdata": {"rt": -1000, "trial_type": "single-audio", "stimulus": "/static/audio/400Hz.wav", "internal_node_id": "0.0-125.0", "time_elapsed": 893817, "key_press": -1, "type": "PRE_RECALL_ALERT", "trial_index": 170}, "uniqueid": "MTK3218:3LRKMWOKB6O8EZUGSFGALIG6PR5Z2B", "dateTime": 1520267220974}, {"current_trial": 171, "trialdata": {"rt": [4603, 8714, 12696, 17013, 21001, 28394, 37413, 43445, 47541, 52132], "recwords": ["silk", "dime", "bank", "hood", "cafe", "airport", "lizard", "piston", "harp", "tile"], "key_times": [2707, 3242, 3748, 4151, 4603, 5769, 6787, 7253, 7967, 8714, 9778, 10006, 10662, 11603, 12696, 13923, 14636, 14884, 15696, 17013, 17970, 18773, 19540, 19849, 21001, 22396, 23014, 24212, 24679, 25061, 26914, 27338, 28394, 30793, 31325, 33376, 34346, 35364, 35875, 37413, 38543, 39170, 39907, 40661, 41511, 42145, 43445, 44722, 45345, 46320, 46827, 47541, 48602, 49113, 49817, 50535, 52132], "trial_type": "free-recall", "conditions": [24, 1600, "v", 24000], "internal_node_id": "0.0-126.0-0.0", "key_presses": [83, 73, 76, 75, 32, 68, 73, 77, 69, 32, 66, 65, 78, 75, 32, 72, 79, 79, 68, 32, 67, 65, 70, 69, 32, 65, 73, 82, 80, 79, 82, 84, 32, 76, 73, 90, 65, 82, 68, 32, 80, 73, 83, 84, 79, 78, 32, 72, 65, 82, 80, 32, 84, 73, 76, 69, 13], "trial": 4, "time_elapsed": 953821, "type": "FREE_RECALL", "trial_index": 171}, "uniqueid": "MTK3218:3LRKMWOKB6O8EZUGSFGALIG6PR5Z2B", "dateTime": 1520267280984}, {"current_trial": 172, "trialdata": {"rt": 2331, "trial_type": "text", "internal_node_id": "0.0-127.0", "time_elapsed": 958157, "key_press": 76, "type": "INSTRUCTIONS", "trial_index": 172}, "uniqueid": "MTK3218:3LRKMWOKB6O8EZUGSFGALIG6PR5Z2B", "dateTime": 1520267285315}, {"current_trial": 173, "trialdata": {"rt": [4274, 12081, 16331, 19622], "trial_type": "math-distractor", "key_times": [2916, 3304, 4274, 9444, 9861, 12081, 14290, 15098, 16331, 18808, 19622], "responses": ["12", "24", "18", "7"], "num2": [3, 7, 5, 4, 9], "num3": [7, 9, 9, 2, 7], "conditions": [12, 800, "v", 24000], "internal_node_id": "0.0-128.0", "key_presses": [49, 50, 13, 50, 52, 13, 49, 56, 13, 55, 13], "trial": 5, "time_elapsed": 984161, "type": "DISTRACTOR", "trial_index": 173, "num1": [2, 8, 4, 1, 9]}, "uniqueid": "MTK3218:3LRKMWOKB6O8EZUGSFGALIG6PR5Z2B", "dateTime": 1520267311318}, {"current_trial": 174, "trialdata": {"rt": -1, "trial_type": "single-stim", "stimulus": "<p id=\"stim\">10</p>", "internal_node_id": "0.0-129.0-0.0", "time_elapsed": 987160, "key_press": -1, "trial_index": 174}, "uniqueid": "MTK3218:3LRKMWOKB6O8EZUGSFGALIG6PR5Z2B", "dateTime": 1520267314319}, {"current_trial": 175, "trialdata": {"rt": -1, "trial_type": "single-stim", "stimulus": "<p id=\"stim\">9</p>", "internal_node_id": "0.0-129.0-1.0", "time_elapsed": 988163, "key_press": -1, "trial_index": 175}, "uniqueid": "MTK3218:3LRKMWOKB6O8EZUGSFGALIG6PR5Z2B", "dateTime": 1520267315321}, {"current_trial": 176, "trialdata": {"rt": -1, "trial_type": "single-stim", "stimulus": "<p id=\"stim\">8</p>", "internal_node_id": "0.0-129.0-2.0", "time_elapsed": 989164, "key_press": -1, "trial_index": 176}, "uniqueid": "MTK3218:3LRKMWOKB6O8EZUGSFGALIG6PR5Z2B", "dateTime": 1520267316322}, {"current_trial": 177, "trialdata": {"rt": -1, "trial_type": "single-stim", "stimulus": "<p id=\"stim\">7</p>", "internal_node_id": "0.0-129.0-3.0", "time_elapsed": 990164, "key_press": -1, "trial_index": 177}, "uniqueid": "MTK3218:3LRKMWOKB6O8EZUGSFGALIG6PR5Z2B", "dateTime": 1520267317323}, {"current_trial": 178, "trialdata": {"rt": -1, "trial_type": "single-stim", "stimulus": "<p id=\"stim\">6</p>", "internal_node_id": "0.0-129.0-4.0", "time_elapsed": 991166, "key_press": -1, "trial_index": 178}, "uniqueid": "MTK3218:3LRKMWOKB6O8EZUGSFGALIG6PR5Z2B", "dateTime": 1520267318324}, {"current_trial": 179, "trialdata": {"rt": -1, "trial_type": "single-stim", "stimulus": "<p id=\"stim\">5</p>", "internal_node_id": "0.0-129.0-5.0", "time_elapsed": 992167, "key_press": -1, "trial_index": 179}, "uniqueid": "MTK3218:3LRKMWOKB6O8EZUGSFGALIG6PR5Z2B", "dateTime": 1520267319325}, {"current_trial": 180, "trialdata": {"rt": -1, "trial_type": "single-stim", "stimulus": "<p id=\"stim\">4</p>", "internal_node_id": "0.0-129.0-6.0", "time_elapsed": 993168, "key_press": -1, "trial_index": 180}, "uniqueid": "MTK3218:3LRKMWOKB6O8EZUGSFGALIG6PR5Z2B", "dateTime": 1520267320326}, {"current_trial": 181, "trialdata": {"rt": -1, "trial_type": "single-stim", "stimulus": "<p id=\"stim\">3</p>", "internal_node_id": "0.0-129.0-7.0", "time_elapsed": 994169, "key_press": -1, "trial_index": 181}, "uniqueid": "MTK3218:3LRKMWOKB6O8EZUGSFGALIG6PR5Z2B", "dateTime": 1520267321327}, {"current_trial": 182, "trialdata": {"rt": -1, "trial_type": "single-stim", "stimulus": "<p id=\"stim\">2</p>", "internal_node_id": "0.0-129.0-8.0", "time_elapsed": 995170, "key_press": -1, "trial_index": 182}, "uniqueid": "MTK3218:3LRKMWOKB6O8EZUGSFGALIG6PR5Z2B", "dateTime": 1520267322328}, {"current_trial": 183, "trialdata": {"rt": -1, "trial_type": "single-stim", "stimulus": "<p id=\"stim\">1</p>", "internal_node_id": "0.0-129.0-9.0", "time_elapsed": 996171, "key_press": -1, "trial_index": 183}, "uniqueid": "MTK3218:3LRKMWOKB6O8EZUGSFGALIG6PR5Z2B", "dateTime": 1520267323329}, {"current_trial": 184, "trialdata": {"rt": -1, "trial_type": "single-stim", "stimulus": "<p id=\"stim\">+</p>", "internal_node_id": "0.0-130.0-0.0", "time_elapsed": 997673, "key_press": -1, "type": "FIXATION", "trial_index": 184}, "uniqueid": "MTK3218:3LRKMWOKB6O8EZUGSFGALIG6PR5Z2B", "dateTime": 1520267324830}, {"current_trial": 185, "trialdata": {"rt": -1, "trial_type": "single-stim", "word": "glass", "stimulus": "<p id=\"stim\">GLASS</p>", "conditions": [12, 800, "v", 24000], "internal_node_id": "0.0-131.0", "trial": 5, "time_elapsed": 998473, "serialpos": 0, "key_press": -1, "wordID": 638, "type": "PRES_VIS", "trial_index": 185}, "uniqueid": "MTK3218:3LRKMWOKB6O8EZUGSFGALIG6PR5Z2B", "dateTime": 1520267325631}, {"current_trial": 186, "trialdata": {"rt": -1, "trial_type": "single-stim", "word": "teacher", "stimulus": "<p id=\"stim\">TEACHER</p>", "conditions": [12, 800, "v", 24000], "internal_node_id": "0.0-132.0", "trial": 5, "time_elapsed": 1000295, "serialpos": 1, "key_press": -1, "wordID": 1439, "type": "PRES_VIS", "trial_index": 186}, "uniqueid": "MTK3218:3LRKMWOKB6O8EZUGSFGALIG6PR5Z2B", "dateTime": 1520267327453}, {"current_trial": 187, "trialdata": {"rt": -1, "trial_type": "single-stim", "word": "knapsack", "stimulus": "<p id=\"stim\">KNAPSACK</p>", "conditions": [12, 800, "v", 24000], "internal_node_id": "0.0-133.0", "trial": 5, "time_elapsed": 1002128, "serialpos": 2, "key_press": -1, "wordID": 782, "type": "PRES_VIS", "trial_index": 187}, "uniqueid": "MTK3218:3LRKMWOKB6O8EZUGSFGALIG6PR5Z2B", "dateTime": 1520267329286}, {"current_trial": 188, "trialdata": {"rt": -1, "trial_type": "single-stim", "word": "sidewalk", "stimulus": "<p id=\"stim\">SIDEWALK</p>", "conditions": [12, 800, "v", 24000], "internal_node_id": "0.0-134.0", "trial": 5, "time_elapsed": 1003998, "serialpos": 3, "key_press": -1, "wordID": 1302, "type": "PRES_VIS", "trial_index": 188}, "uniqueid": "MTK3218:3LRKMWOKB6O8EZUGSFGALIG6PR5Z2B", "dateTime": 1520267331155}, {"current_trial": 189, "trialdata": {"rt": -1, "trial_type": "single-stim", "word": "seafood", "stimulus": "<p id=\"stim\">SEAFOOD</p>", "conditions": [12, 800, "v", 24000], "internal_node_id": "0.0-135.0", "trial": 5, "time_elapsed": 1005652, "serialpos": 4, "key_press": -1, "wordID": 1259, "type": "PRES_VIS", "trial_index": 189}, "uniqueid": "MTK3218:3LRKMWOKB6O8EZUGSFGALIG6PR5Z2B", "dateTime": 1520267332809}, {"current_trial": 190, "trialdata": {"rt": -1, "trial_type": "single-stim", "word": "cookbook", "stimulus": "<p id=\"stim\">COOKBOOK</p>", "conditions": [12, 800, "v", 24000], "internal_node_id": "0.0-136.0", "trial": 5, "time_elapsed": 1007649, "serialpos": 5, "key_press": -1, "wordID": 372, "type": "PRES_VIS", "trial_index": 190}, "uniqueid": "MTK3218:3LRKMWOKB6O8EZUGSFGALIG6PR5Z2B", "dateTime": 1520267334806}, {"current_trial": 191, "trialdata": {"rt": -1, "trial_type": "single-stim", "word": "truck", "stimulus": "<p id=\"stim\">TRUCK</p>", "conditions": [12, 800, "v", 24000], "internal_node_id": "0.0-137.0", "trial": 5, "time_elapsed": 1009378, "serialpos": 6, "key_press": -1, "wordID": 1511, "type": "PRES_VIS", "trial_index": 191}, "uniqueid": "MTK3218:3LRKMWOKB6O8EZUGSFGALIG6PR5Z2B", "dateTime": 1520267336535}, {"current_trial": 192, "trialdata": {"rt": -1, "trial_type": "single-stim", "word": "brook", "stimulus": "<p id=\"stim\">BROOK</p>", "conditions": [12, 800, "v", 24000], "internal_node_id": "0.0-138.0", "trial": 5, "time_elapsed": 1011075, "serialpos": 7, "key_press": -1, "wordID": 176, "type": "PRES_VIS", "trial_index": 192}, "uniqueid": "MTK3218:3LRKMWOKB6O8EZUGSFGALIG6PR5Z2B", "dateTime": 1520267338233}, {"current_trial": 193, "trialdata": {"rt": -1, "trial_type": "single-stim", "word": "river", "stimulus": "<p id=\"stim\">RIVER</p>", "conditions": [12, 800, "v", 24000], "internal_node_id": "0.0-139.0", "trial": 5, "time_elapsed": 1012955, "serialpos": 8, "key_press": -1, "wordID": 1193, "type": "PRES_VIS", "trial_index": 193}, "uniqueid": "MTK3218:3LRKMWOKB6O8EZUGSFGALIG6PR5Z2B", "dateTime": 1520267340113}, {"current_trial": 194, "trialdata": {"rt": -1, "trial_type": "single-stim", "word": "oyster", "stimulus": "<p id=\"stim\">OYSTER</p>", "conditions": [12, 800, "v", 24000], "internal_node_id": "0.0-140.0", "trial": 5, "time_elapsed": 1014906, "serialpos": 9, "key_press": -1, "wordID": 994, "type": "PRES_VIS", "trial_index": 194}, "uniqueid": "MTK3218:3LRKMWOKB6O8EZUGSFGALIG6PR5Z2B", "dateTime": 1520267342063}, {"current_trial": 195, "trialdata": {"rt": -1, "trial_type": "single-stim", "word": "dresser", "stimulus": "<p id=\"stim\">DRESSER</p>", "conditions": [12, 800, "v", 24000], "internal_node_id": "0.0-141.0", "trial": 5, "time_elapsed": 1016721, "serialpos": 10, "key_press": -1, "wordID": 495, "type": "PRES_VIS", "trial_index": 195}, "uniqueid": "MTK3218:3LRKMWOKB6O8EZUGSFGALIG6PR5Z2B", "dateTime": 1520267343878}, {"current_trial": 196, "trialdata": {"rt": -1, "trial_type": "single-stim", "word": "keeper", "stimulus": "<p id=\"stim\">KEEPER</p>", "conditions": [12, 800, "v", 24000], "internal_node_id": "0.0-142.0", "trial": 5, "time_elapsed": 1018557, "serialpos": 11, "key_press": -1, "wordID": 768, "type": "PRES_VIS", "trial_index": 196}, "uniqueid": "MTK3218:3LRKMWOKB6O8EZUGSFGALIG6PR5Z2B", "dateTime": 1520267345714}, {"current_trial": 197, "trialdata": {"rt": -1, "trial_type": "single-stim", "stimulus": "", "internal_node_id": "0.0-143.0-0.0", "time_elapsed": 1020809, "key_press": -1, "type": "PRE_RECALL_DELAY", "trial_index": 197}, "uniqueid": "MTK3218:3LRKMWOKB6O8EZUGSFGALIG6PR5Z2B", "dateTime": 1520267347967}, {"current_trial": 198, "trialdata": {"rt": -1000, "trial_type": "single-audio", "stimulus": "/static/audio/400Hz.wav", "internal_node_id": "0.0-144.0", "time_elapsed": 1021313, "key_press": -1, "type": "PRE_RECALL_ALERT", "trial_index": 198}, "uniqueid": "MTK3218:3LRKMWOKB6O8EZUGSFGALIG6PR5Z2B", "dateTime": 1520267348470}, {"current_trial": 199, "trialdata": {"rt": [8027, 13579, 29337, 35360, 43178], "recwords": ["cookbook", "keeper", "teacher", "river", "glass"], "key_times": [2606, 3148, 3400, 3786, 4793, 5531, 5829, 6481, 8027, 9371, 10177, 10654, 11139, 11915, 12437, 13579, 15265, 15667, 16491, 17399, 19134, 19470, 20146, 22533, 22952, 23547, 23862, 24489, 25358, 25683, 25913, 26120, 26332, 26566, 28153, 29337, 30809, 31638, 32409, 32894, 33383, 35360, 37313, 38181, 38723, 39359, 39886, 43178], "trial_type": "free-recall", "conditions": [12, 800, "v", 24000], "internal_node_id": "0.0-145.0-0.0", "key_presses": [67, 79, 79, 75, 66, 79, 79, 75, 32, 75, 69, 69, 80, 69, 82, 32, 84, 69, 65, 67, 72, 69, 82, 82, 73, 86, 69, 82, 8, 8, 8, 8, 8, 8, 82, 13, 82, 73, 86, 69, 82, 32, 71, 76, 65, 83, 83, 13], "trial": 5, "time_elapsed": 1081316, "type": "FREE_RECALL", "trial_index": 199}, "uniqueid": "MTK3218:3LRKMWOKB6O8EZUGSFGALIG6PR5Z2B", "dateTime": 1520267408479}, {"current_trial": 200, "trialdata": {"rt": 9891, "trial_type": "text", "internal_node_id": "0.0-146.0", "time_elapsed": 1093215, "key_press": 71, "type": "INSTRUCTIONS", "trial_index": 200}, "uniqueid": "MTK3218:3LRKMWOKB6O8EZUGSFGALIG6PR5Z2B", "dateTime": 1520267420372}, {"current_trial": 201, "trialdata": {"rt": [3854, 10367], "trial_type": "math-distractor", "key_times": [2174, 2584, 3854, 8159, 9227, 10367], "responses": ["15", "12"], "num2": [5, 2, 8], "num3": [5, 4, 1], "conditions": [12, 1600, "v", 12000], "internal_node_id": "0.0-147.0", "key_presses": [49, 53, 13, 49, 50, 13], "trial": 6, "time_elapsed": 1107220, "type": "DISTRACTOR", "trial_index": 201, "num1": [5, 6, 9]}, "uniqueid": "MTK3218:3LRKMWOKB6O8EZUGSFGALIG6PR5Z2B", "dateTime": 1520267434377}, {"current_trial": 202, "trialdata": {"rt": -1, "trial_type": "single-stim", "stimulus": "<p id=\"stim\">10</p>", "internal_node_id": "0.0-148.0-0.0", "time_elapsed": 1110221, "key_press": -1, "trial_index": 202}, "uniqueid": "MTK3218:3LRKMWOKB6O8EZUGSFGALIG6PR5Z2B", "dateTime": 1520267437378}, {"current_trial": 203, "trialdata": {"rt": -1, "trial_type": "single-stim", "stimulus": "<p id=\"stim\">9</p>", "internal_node_id": "0.0-148.0-1.0", "time_elapsed": 1111223, "key_press": -1, "trial_index": 203}, "uniqueid": "MTK3218:3LRKMWOKB6O8EZUGSFGALIG6PR5Z2B", "dateTime": 1520267438380}, {"current_trial": 204, "trialdata": {"rt": -1, "trial_type": "single-stim", "stimulus": "<p id=\"stim\">8</p>", "internal_node_id": "0.0-148.0-2.0", "time_elapsed": 1112224, "key_press": -1, "trial_index": 204}, "uniqueid": "MTK3218:3LRKMWOKB6O8EZUGSFGALIG6PR5Z2B", "dateTime": 1520267439381}, {"current_trial": 205, "trialdata": {"rt": -1, "trial_type": "single-stim", "stimulus": "<p id=\"stim\">7</p>", "internal_node_id": "0.0-148.0-3.0", "time_elapsed": 1113224, "key_press": -1, "trial_index": 205}, "uniqueid": "MTK3218:3LRKMWOKB6O8EZUGSFGALIG6PR5Z2B", "dateTime": 1520267440382}, {"current_trial": 206, "trialdata": {"rt": -1, "trial_type": "single-stim", "stimulus": "<p id=\"stim\">6</p>", "internal_node_id": "0.0-148.0-4.0", "time_elapsed": 1114226, "key_press": -1, "trial_index": 206}, "uniqueid": "MTK3218:3LRKMWOKB6O8EZUGSFGALIG6PR5Z2B", "dateTime": 1520267441383}, {"current_trial": 207, "trialdata": {"rt": -1, "trial_type": "single-stim", "stimulus": "<p id=\"stim\">5</p>", "internal_node_id": "0.0-148.0-5.0", "time_elapsed": 1115227, "key_press": -1, "trial_index": 207}, "uniqueid": "MTK3218:3LRKMWOKB6O8EZUGSFGALIG6PR5Z2B", "dateTime": 1520267442384}, {"current_trial": 208, "trialdata": {"rt": -1, "trial_type": "single-stim", "stimulus": "<p id=\"stim\">4</p>", "internal_node_id": "0.0-148.0-6.0", "time_elapsed": 1116227, "key_press": -1, "trial_index": 208}, "uniqueid": "MTK3218:3LRKMWOKB6O8EZUGSFGALIG6PR5Z2B", "dateTime": 1520267443385}, {"current_trial": 209, "trialdata": {"rt": -1, "trial_type": "single-stim", "stimulus": "<p id=\"stim\">3</p>", "internal_node_id": "0.0-148.0-7.0", "time_elapsed": 1117229, "key_press": -1, "trial_index": 209}, "uniqueid": "MTK3218:3LRKMWOKB6O8EZUGSFGALIG6PR5Z2B", "dateTime": 1520267444386}, {"current_trial": 210, "trialdata": {"rt": -1, "trial_type": "single-stim", "stimulus": "<p id=\"stim\">2</p>", "internal_node_id": "0.0-148.0-8.0", "time_elapsed": 1118230, "key_press": -1, "trial_index": 210}, "uniqueid": "MTK3218:3LRKMWOKB6O8EZUGSFGALIG6PR5Z2B", "dateTime": 1520267445387}, {"current_trial": 211, "trialdata": {"rt": -1, "trial_type": "single-stim", "stimulus": "<p id=\"stim\">1</p>", "internal_node_id": "0.0-148.0-9.0", "time_elapsed": 1119231, "key_press": -1, "trial_index": 211}, "uniqueid": "MTK3218:3LRKMWOKB6O8EZUGSFGALIG6PR5Z2B", "dateTime": 1520267446388}, {"current_trial": 212, "trialdata": {"rt": -1, "trial_type": "single-stim", "stimulus": "<p id=\"stim\">+</p>", "internal_node_id": "0.0-149.0-0.0", "time_elapsed": 1120734, "key_press": -1, "type": "FIXATION", "trial_index": 212}, "uniqueid": "MTK3218:3LRKMWOKB6O8EZUGSFGALIG6PR5Z2B", "dateTime": 1520267447891}, {"current_trial": 213, "trialdata": {"rt": -1, "trial_type": "single-stim", "word": "daughter", "stimulus": "<p id=\"stim\">DAUGHTER</p>", "conditions": [12, 1600, "v", 12000], "internal_node_id": "0.0-150.0", "trial": 6, "time_elapsed": 1122335, "serialpos": 0, "key_press": -1, "wordID": 441, "type": "PRES_VIS", "trial_index": 213}, "uniqueid": "MTK3218:3LRKMWOKB6O8EZUGSFGALIG6PR5Z2B", "dateTime": 1520267449492}, {"current_trial": 214, "trialdata": {"rt": -1, "trial_type": "single-stim", "word": "survey", "stimulus": "<p id=\"stim\">SURVEY</p>", "conditions": [12, 1600, "v", 12000], "internal_node_id": "0.0-151.0", "trial": 6, "time_elapsed": 1124995, "serialpos": 1, "key_press": -1, "wordID": 1413, "type": "PRES_VIS", "trial_index": 214}, "uniqueid": "MTK3218:3LRKMWOKB6O8EZUGSFGALIG6PR5Z2B", "dateTime": 1520267452154}, {"current_trial": 215, "trialdata": {"rt": -1, "trial_type": "single-stim", "word": "termite", "stimulus": "<p id=\"stim\">TERMITE</p>", "conditions": [12, 1600, "v", 12000], "internal_node_id": "0.0-152.0", "trial": 6, "time_elapsed": 1127641, "serialpos": 2, "key_press": -1, "wordID": 1450, "type": "PRES_VIS", "trial_index": 215}, "uniqueid": "MTK3218:3LRKMWOKB6O8EZUGSFGALIG6PR5Z2B", "dateTime": 1520267454799}, {"current_trial": 216, "trialdata": {"rt": -1, "trial_type": "single-stim", "word": "fungus", "stimulus": "<p id=\"stim\">FUNGUS</p>", "conditions": [12, 1600, "v", 12000], "internal_node_id": "0.0-153.0", "trial": 6, "time_elapsed": 1130305, "serialpos": 3, "key_press": -1, "wordID": 613, "type": "PRES_VIS", "trial_index": 216}, "uniqueid": "MTK3218:3LRKMWOKB6O8EZUGSFGALIG6PR5Z2B", "dateTime": 1520267457463}, {"current_trial": 217, "trialdata": {"rt": -1, "trial_type": "single-stim", "word": "balloon", "stimulus": "<p id=\"stim\">BALLOON</p>", "conditions": [12, 1600, "v", 12000], "internal_node_id": "0.0-154.0", "trial": 6, "time_elapsed": 1133104, "serialpos": 4, "key_press": -1, "wordID": 74, "type": "PRES_VIS", "trial_index": 217}, "uniqueid": "MTK3218:3LRKMWOKB6O8EZUGSFGALIG6PR5Z2B", "dateTime": 1520267460261}, {"current_trial": 218, "trialdata": {"rt": -1, "trial_type": "single-stim", "word": "milk", "stimulus": "<p id=\"stim\">MILK</p>", "conditions": [12, 1600, "v", 12000], "internal_node_id": "0.0-155.0", "trial": 6, "time_elapsed": 1135629, "serialpos": 5, "key_press": -1, "wordID": 894, "type": "PRES_VIS", "trial_index": 218}, "uniqueid": "MTK3218:3LRKMWOKB6O8EZUGSFGALIG6PR5Z2B", "dateTime": 1520267462786}, {"current_trial": 219, "trialdata": {"rt": -1, "trial_type": "single-stim", "word": "umpire", "stimulus": "<p id=\"stim\">UMPIRE</p>", "conditions": [12, 1600, "v", 12000], "internal_node_id": "0.0-156.0", "trial": 6, "time_elapsed": 1138133, "serialpos": 6, "key_press": -1, "wordID": 1534, "type": "PRES_VIS", "trial_index": 219}, "uniqueid": "MTK3218:3LRKMWOKB6O8EZUGSFGALIG6PR5Z2B", "dateTime": 1520267465291}, {"current_trial": 220, "trialdata": {"rt": -1, "trial_type": "single-stim", "word": "bullet", "stimulus": "<p id=\"stim\">BULLET</p>", "conditions": [12, 1600, "v", 12000], "internal_node_id": "0.0-157.0", "trial": 6, "time_elapsed": 1140887, "serialpos": 7, "key_press": -1, "wordID": 193, "type": "PRES_VIS", "trial_index": 220}, "uniqueid": "MTK3218:3LRKMWOKB6O8EZUGSFGALIG6PR5Z2B", "dateTime": 1520267468046}, {"current_trial": 221, "trialdata": {"rt": -1, "trial_type": "single-stim", "word": "report", "stimulus": "<p id=\"stim\">REPORT</p>", "conditions": [12, 1600, "v", 12000], "internal_node_id": "0.0-158.0", "trial": 6, "time_elapsed": 1143550, "serialpos": 8, "key_press": -1, "wordID": 1183, "type": "PRES_VIS", "trial_index": 221}, "uniqueid": "MTK3218:3LRKMWOKB6O8EZUGSFGALIG6PR5Z2B", "dateTime": 1520267470707}, {"current_trial": 222, "trialdata": {"rt": -1, "trial_type": "single-stim", "word": "comet", "stimulus": "<p id=\"stim\">COMET</p>", "conditions": [12, 1600, "v", 12000], "internal_node_id": "0.0-159.0", "trial": 6, "time_elapsed": 1146256, "serialpos": 9, "key_press": -1, "wordID": 352, "type": "PRES_VIS", "trial_index": 222}, "uniqueid": "MTK3218:3LRKMWOKB6O8EZUGSFGALIG6PR5Z2B", "dateTime": 1520267473414}, {"current_trial": 223, "trialdata": {"rt": -1, "trial_type": "single-stim", "word": "orange", "stimulus": "<p id=\"stim\">ORANGE</p>", "conditions": [12, 1600, "v", 12000], "internal_node_id": "0.0-160.0", "trial": 6, "time_elapsed": 1148706, "serialpos": 10, "key_press": -1, "wordID": 979, "type": "PRES_VIS", "trial_index": 223}, "uniqueid": "MTK3218:3LRKMWOKB6O8EZUGSFGALIG6PR5Z2B", "dateTime": 1520267475864}, {"current_trial": 224, "trialdata": {"rt": -1, "trial_type": "single-stim", "word": "ketchup", "stimulus": "<p id=\"stim\">KETCHUP</p>", "conditions": [12, 1600, "v", 12000], "internal_node_id": "0.0-161.0", "trial": 6, "time_elapsed": 1151354, "serialpos": 11, "key_press": -1, "wordID": 770, "type": "PRES_VIS", "trial_index": 224}, "uniqueid": "MTK3218:3LRKMWOKB6O8EZUGSFGALIG6PR5Z2B", "dateTime": 1520267478511}, {"current_trial": 225, "trialdata": {"rt": -1, "trial_type": "single-stim", "stimulus": "", "internal_node_id": "0.0-162.0-0.0", "time_elapsed": 1153421, "key_press": -1, "type": "PRE_RECALL_DELAY", "trial_index": 225}, "uniqueid": "MTK3218:3LRKMWOKB6O8EZUGSFGALIG6PR5Z2B", "dateTime": 1520267480578}, {"current_trial": 226, "trialdata": {"rt": -1000, "trial_type": "single-audio", "stimulus": "/static/audio/400Hz.wav", "internal_node_id": "0.0-163.0", "time_elapsed": 1153927, "key_press": -1, "type": "PRE_RECALL_ALERT", "trial_index": 226}, "uniqueid": "MTK3218:3LRKMWOKB6O8EZUGSFGALIG6PR5Z2B", "dateTime": 1520267481084}, {"current_trial": 227, "trialdata": {"rt": [7069, 17048, 22725, 30419, 38760, 44360], "recwords": ["daughter", "survey", "milk", "fungus", "umpire", "report"], "key_times": [2255, 2557, 3129, 3764, 4205, 4648, 4978, 5282, 7069, 10242, 11145, 11490, 12148, 13657, 14408, 17048, 18601, 19077, 19553, 19991, 22725, 24417, 25074, 25632, 26538, 27183, 28067, 30419, 32708, 34212, 34852, 35431, 36340, 36655, 38760, 39774, 40357, 40850, 41391, 42249, 42844, 44360], "trial_type": "free-recall", "conditions": [12, 1600, "v", 12000], "internal_node_id": "0.0-164.0-0.0", "key_presses": [68, 65, 85, 71, 72, 84, 69, 82, 13, 83, 85, 82, 86, 69, 89, 13, 77, 73, 76, 75, 13, 70, 85, 78, 71, 85, 83, 13, 85, 77, 80, 73, 82, 69, 32, 82, 69, 80, 79, 82, 84, 13], "trial": 6, "time_elapsed": 1213930, "type": "FREE_RECALL", "trial_index": 227}, "uniqueid": "MTK3218:3LRKMWOKB6O8EZUGSFGALIG6PR5Z2B", "dateTime": 1520267541093}, {"current_trial": 228, "trialdata": {"rt": 1611, "trial_type": "text", "internal_node_id": "0.0-165.0", "time_elapsed": 1217547, "key_press": 76, "type": "INSTRUCTIONS", "trial_index": 228}, "uniqueid": "MTK3218:3LRKMWOKB6O8EZUGSFGALIG6PR5Z2B", "dateTime": 1520267544704}, {"current_trial": 229, "trialdata": {"rt": [4995, 7590, 11454, 15226, 19384, 23693], "trial_type": "math-distractor", "key_times": [2594, 3252, 4995, 6722, 7590, 10056, 10457, 11454, 13662, 14138, 15226, 17834, 18685, 19384, 22401, 22732, 23693], "responses": ["15", "5", "12", "13", "20", "12"], "num2": [4, 2, 6, 2, 3, 1, 4], "num3": [7, 1, 4, 3, 8, 3, 7], "conditions": [24, 800, "v", 24000], "internal_node_id": "0.0-166.0", "key_presses": [49, 53, 13, 53, 13, 49, 50, 13, 49, 51, 13, 50, 48, 13, 49, 50, 13], "trial": 7, "time_elapsed": 1243552, "type": "DISTRACTOR", "trial_index": 229, "num1": [4, 2, 2, 8, 6, 8, 2]}, "uniqueid": "MTK3218:3LRKMWOKB6O8EZUGSFGALIG6PR5Z2B", "dateTime": 1520267570709}, {"current_trial": 230, "trialdata": {"rt": -1, "trial_type": "single-stim", "stimulus": "<p id=\"stim\">10</p>", "internal_node_id": "0.0-167.0-0.0", "time_elapsed": 1246554, "key_press": -1, "trial_index": 230}, "uniqueid": "MTK3218:3LRKMWOKB6O8EZUGSFGALIG6PR5Z2B", "dateTime": 1520267573711}, {"current_trial": 231, "trialdata": {"rt": -1, "trial_type": "single-stim", "stimulus": "<p id=\"stim\">9</p>", "internal_node_id": "0.0-167.0-1.0", "time_elapsed": 1247555, "key_press": -1, "trial_index": 231}, "uniqueid": "MTK3218:3LRKMWOKB6O8EZUGSFGALIG6PR5Z2B", "dateTime": 1520267574712}, {"current_trial": 232, "trialdata": {"rt": -1, "trial_type": "single-stim", "stimulus": "<p id=\"stim\">8</p>", "internal_node_id": "0.0-167.0-2.0", "time_elapsed": 1248557, "key_press": -1, "trial_index": 232}, "uniqueid": "MTK3218:3LRKMWOKB6O8EZUGSFGALIG6PR5Z2B", "dateTime": 1520267575714}, {"current_trial": 233, "trialdata": {"rt": -1, "trial_type": "single-stim", "stimulus": "<p id=\"stim\">7</p>", "internal_node_id": "0.0-167.0-3.0", "time_elapsed": 1249558, "key_press": -1, "trial_index": 233}, "uniqueid": "MTK3218:3LRKMWOKB6O8EZUGSFGALIG6PR5Z2B", "dateTime": 1520267576715}, {"current_trial": 234, "trialdata": {"rt": -1, "trial_type": "single-stim", "stimulus": "<p id=\"stim\">6</p>", "internal_node_id": "0.0-167.0-4.0", "time_elapsed": 1250560, "key_press": -1, "trial_index": 234}, "uniqueid": "MTK3218:3LRKMWOKB6O8EZUGSFGALIG6PR5Z2B", "dateTime": 1520267577717}, {"current_trial": 235, "trialdata": {"rt": -1, "trial_type": "single-stim", "stimulus": "<p id=\"stim\">5</p>", "internal_node_id": "0.0-167.0-5.0", "time_elapsed": 1251561, "key_press": -1, "trial_index": 235}, "uniqueid": "MTK3218:3LRKMWOKB6O8EZUGSFGALIG6PR5Z2B", "dateTime": 1520267578718}, {"current_trial": 236, "trialdata": {"rt": -1, "trial_type": "single-stim", "stimulus": "<p id=\"stim\">4</p>", "internal_node_id": "0.0-167.0-6.0", "time_elapsed": 1252563, "key_press": -1, "trial_index": 236}, "uniqueid": "MTK3218:3LRKMWOKB6O8EZUGSFGALIG6PR5Z2B", "dateTime": 1520267579720}, {"current_trial": 237, "trialdata": {"rt": -1, "trial_type": "single-stim", "stimulus": "<p id=\"stim\">3</p>", "internal_node_id": "0.0-167.0-7.0", "time_elapsed": 1253563, "key_press": -1, "trial_index": 237}, "uniqueid": "MTK3218:3LRKMWOKB6O8EZUGSFGALIG6PR5Z2B", "dateTime": 1520267580721}, {"current_trial": 238, "trialdata": {"rt": -1, "trial_type": "single-stim", "stimulus": "<p id=\"stim\">2</p>", "internal_node_id": "0.0-167.0-8.0", "time_elapsed": 1254566, "key_press": -1, "trial_index": 238}, "uniqueid": "MTK3218:3LRKMWOKB6O8EZUGSFGALIG6PR5Z2B", "dateTime": 1520267581723}, {"current_trial": 239, "trialdata": {"rt": -1, "trial_type": "single-stim", "stimulus": "<p id=\"stim\">1</p>", "internal_node_id": "0.0-167.0-9.0", "time_elapsed": 1255568, "key_press": -1, "trial_index": 239}, "uniqueid": "MTK3218:3LRKMWOKB6O8EZUGSFGALIG6PR5Z2B", "dateTime": 1520267582725}, {"current_trial": 240, "trialdata": {"rt": -1, "trial_type": "single-stim", "stimulus": "<p id=\"stim\">+</p>", "internal_node_id": "0.0-168.0-0.0", "time_elapsed": 1257068, "key_press": -1, "type": "FIXATION", "trial_index": 240}, "uniqueid": "MTK3218:3LRKMWOKB6O8EZUGSFGALIG6PR5Z2B", "dateTime": 1520267584226}, {"current_trial": 241, "trialdata": {"rt": -1, "trial_type": "single-stim", "word": "popcorn", "stimulus": "<p id=\"stim\">POPCORN</p>", "conditions": [24, 800, "v", 24000], "internal_node_id": "0.0-169.0", "trial": 7, "time_elapsed": 1257870, "serialpos": 0, "key_press": -1, "wordID": 1103, "type": "PRES_VIS", "trial_index": 241}, "uniqueid": "MTK3218:3LRKMWOKB6O8EZUGSFGALIG6PR5Z2B", "dateTime": 1520267585028}, {"current_trial": 242, "trialdata": {"rt": -1, "trial_type": "single-stim", "word": "skillet", "stimulus": "<p id=\"stim\">SKILLET</p>", "conditions": [24, 800, "v", 24000], "internal_node_id": "0.0-170.0", "trial": 7, "time_elapsed": 1259540, "serialpos": 1, "key_press": -1, "wordID": 1316, "type": "PRES_VIS", "trial_index": 242}, "uniqueid": "MTK3218:3LRKMWOKB6O8EZUGSFGALIG6PR5Z2B", "dateTime": 1520267586697}, {"current_trial": 243, "trialdata": {"rt": -1, "trial_type": "single-stim", "word": "helmet", "stimulus": "<p id=\"stim\">HELMET</p>", "conditions": [24, 800, "v", 24000], "internal_node_id": "0.0-171.0", "trial": 7, "time_elapsed": 1261453, "serialpos": 2, "key_press": -1, "wordID": 701, "type": "PRES_VIS", "trial_index": 243}, "uniqueid": "MTK3218:3LRKMWOKB6O8EZUGSFGALIG6PR5Z2B", "dateTime": 1520267588610}, {"current_trial": 244, "trialdata": {"rt": -1, "trial_type": "single-stim", "word": "carriage", "stimulus": "<p id=\"stim\">CARRIAGE</p>", "conditions": [24, 800, "v", 24000], "internal_node_id": "0.0-172.0", "trial": 7, "time_elapsed": 1263406, "serialpos": 3, "key_press": -1, "wordID": 247, "type": "PRES_VIS", "trial_index": 244}, "uniqueid": "MTK3218:3LRKMWOKB6O8EZUGSFGALIG6PR5Z2B", "dateTime": 1520267590563}, {"current_trial": 245, "trialdata": {"rt": -1, "trial_type": "single-stim", "word": "picture", "stimulus": "<p id=\"stim\">PICTURE</p>", "conditions": [24, 800, "v", 24000], "internal_node_id": "0.0-173.0", "trial": 7, "time_elapsed": 1265217, "serialpos": 4, "key_press": -1, "wordID": 1060, "type": "PRES_VIS", "trial_index": 245}, "uniqueid": "MTK3218:3LRKMWOKB6O8EZUGSFGALIG6PR5Z2B", "dateTime": 1520267592376}, {"current_trial": 246, "trialdata": {"rt": -1, "trial_type": "single-stim", "word": "venus", "stimulus": "<p id=\"stim\">VENUS</p>", "conditions": [24, 800, "v", 24000], "internal_node_id": "0.0-174.0", "trial": 7, "time_elapsed": 1266901, "serialpos": 5, "key_press": -1, "wordID": 1556, "type": "PRES_VIS", "trial_index": 246}, "uniqueid": "MTK3218:3LRKMWOKB6O8EZUGSFGALIG6PR5Z2B", "dateTime": 1520267594058}, {"current_trial": 247, "trialdata": {"rt": -1, "trial_type": "single-stim", "word": "panther", "stimulus": "<p id=\"stim\">PANTHER</p>", "conditions": [24, 800, "v", 24000], "internal_node_id": "0.0-175.0", "trial": 7, "time_elapsed": 1268607, "serialpos": 6, "key_press": -1, "wordID": 1008, "type": "PRES_VIS", "trial_index": 247}, "uniqueid": "MTK3218:3LRKMWOKB6O8EZUGSFGALIG6PR5Z2B", "dateTime": 1520267595764}, {"current_trial": 248, "trialdata": {"rt": -1, "trial_type": "single-stim", "word": "leopard", "stimulus": "<p id=\"stim\">LEOPARD</p>", "conditions": [24, 800, "v", 24000], "internal_node_id": "0.0-176.0", "trial": 7, "time_elapsed": 1270421, "serialpos": 7, "key_press": -1, "wordID": 811, "type": "PRES_VIS", "trial_index": 248}, "uniqueid": "MTK3218:3LRKMWOKB6O8EZUGSFGALIG6PR5Z2B", "dateTime": 1520267597578}, {"current_trial": 249, "trialdata": {"rt": -1, "trial_type": "single-stim", "word": "peanut", "stimulus": "<p id=\"stim\">PEANUT</p>", "conditions": [24, 800, "v", 24000], "internal_node_id": "0.0-177.0", "trial": 7, "time_elapsed": 1272267, "serialpos": 8, "key_press": -1, "wordID": 1031, "type": "PRES_VIS", "trial_index": 249}, "uniqueid": "MTK3218:3LRKMWOKB6O8EZUGSFGALIG6PR5Z2B", "dateTime": 1520267599424}, {"current_trial": 250, "trialdata": {"rt": -1, "trial_type": "single-stim", "word": "trout", "stimulus": "<p id=\"stim\">TROUT</p>", "conditions": [24, 800, "v", 24000], "internal_node_id": "0.0-178.0", "trial": 7, "time_elapsed": 1274085, "serialpos": 9, "key_press": -1, "wordID": 1510, "type": "PRES_VIS", "trial_index": 250}, "uniqueid": "MTK3218:3LRKMWOKB6O8EZUGSFGALIG6PR5Z2B", "dateTime": 1520267601243}, {"current_trial": 251, "trialdata": {"rt": -1, "trial_type": "single-stim", "word": "candy", "stimulus": "<p id=\"stim\">CANDY</p>", "conditions": [24, 800, "v", 24000], "internal_node_id": "0.0-179.0", "trial": 7, "time_elapsed": 1275848, "serialpos": 10, "key_press": -1, "wordID": 229, "type": "PRES_VIS", "trial_index": 251}, "uniqueid": "MTK3218:3LRKMWOKB6O8EZUGSFGALIG6PR5Z2B", "dateTime": 1520267603006}, {"current_trial": 252, "trialdata": {"rt": -1, "trial_type": "single-stim", "word": "drawing", "stimulus": "<p id=\"stim\">DRAWING</p>", "conditions": [24, 800, "v", 24000], "internal_node_id": "0.0-180.0", "trial": 7, "time_elapsed": 1277492, "serialpos": 11, "key_press": -1, "wordID": 493, "type": "PRES_VIS", "trial_index": 252}, "uniqueid": "MTK3218:3LRKMWOKB6O8EZUGSFGALIG6PR5Z2B", "dateTime": 1520267604649}, {"current_trial": 253, "trialdata": {"rt": -1, "trial_type": "single-stim", "word": "spoon", "stimulus": "<p id=\"stim\">SPOON</p>", "conditions": [24, 800, "v", 24000], "internal_node_id": "0.0-181.0", "trial": 7, "time_elapsed": 1279201, "serialpos": 12, "key_press": -1, "wordID": 1356, "type": "PRES_VIS", "trial_index": 253}, "uniqueid": "MTK3218:3LRKMWOKB6O8EZUGSFGALIG6PR5Z2B", "dateTime": 1520267606359}, {"current_trial": 254, "trialdata": {"rt": -1, "trial_type": "single-stim", "word": "marrow", "stimulus": "<p id=\"stim\">MARROW</p>", "conditions": [24, 800, "v", 24000], "internal_node_id": "0.0-182.0", "trial": 7, "time_elapsed": 1280805, "serialpos": 13, "key_press": -1, "wordID": 871, "type": "PRES_VIS", "trial_index": 254}, "uniqueid": "MTK3218:3LRKMWOKB6O8EZUGSFGALIG6PR5Z2B", "dateTime": 1520267607963}, {"current_trial": 255, "trialdata": {"rt": -1, "trial_type": "single-stim", "word": "plaza", "stimulus": "<p id=\"stim\">PLAZA</p>", "conditions": [24, 800, "v", 24000], "internal_node_id": "0.0-183.0", "trial": 7, "time_elapsed": 1282410, "serialpos": 14, "key_press": -1, "wordID": 1087, "type": "PRES_VIS", "trial_index": 255}, "uniqueid": "MTK3218:3LRKMWOKB6O8EZUGSFGALIG6PR5Z2B", "dateTime": 1520267609568}, {"current_trial": 256, "trialdata": {"rt": -1, "trial_type": "single-stim", "word": "quarter", "stimulus": "<p id=\"stim\">QUARTER</p>", "conditions": [24, 800, "v", 24000], "internal_node_id": "0.0-184.0", "trial": 7, "time_elapsed": 1284231, "serialpos": 15, "key_press": -1, "wordID": 1147, "type": "PRES_VIS", "trial_index": 256}, "uniqueid": "MTK3218:3LRKMWOKB6O8EZUGSFGALIG6PR5Z2B", "dateTime": 1520267611389}, {"current_trial": 257, "trialdata": {"rt": -1, "trial_type": "single-stim", "word": "bunny", "stimulus": "<p id=\"stim\">BUNNY</p>", "conditions": [24, 800, "v", 24000], "internal_node_id": "0.0-185.0", "trial": 7, "time_elapsed": 1286032, "serialpos": 16, "key_press": -1, "wordID": 197, "type": "PRES_VIS", "trial_index": 257}, "uniqueid": "MTK3218:3LRKMWOKB6O8EZUGSFGALIG6PR5Z2B", "dateTime": 1520267613189}, {"current_trial": 258, "trialdata": {"rt": -1, "trial_type": "single-stim", "word": "monster", "stimulus": "<p id=\"stim\">MONSTER</p>", "conditions": [24, 800, "v", 24000], "internal_node_id": "0.0-186.0", "trial": 7, "time_elapsed": 1287886, "serialpos": 17, "key_press": -1, "wordID": 911, "type": "PRES_VIS", "trial_index": 258}, "uniqueid": "MTK3218:3LRKMWOKB6O8EZUGSFGALIG6PR5Z2B", "dateTime": 1520267615043}, {"current_trial": 259, "trialdata": {"rt": -1, "trial_type": "single-stim", "word": "fox", "stimulus": "<p id=\"stim\">FOX</p>", "conditions": [24, 800, "v", 24000], "internal_node_id": "0.0-187.0", "trial": 7, "time_elapsed": 1289813, "serialpos": 18, "key_press": -1, "wordID": 597, "type": "PRES_VIS", "trial_index": 259}, "uniqueid": "MTK3218:3LRKMWOKB6O8EZUGSFGALIG6PR5Z2B", "dateTime": 1520267616971}, {"current_trial": 260, "trialdata": {"rt": -1, "trial_type": "single-stim", "word": "palace", "stimulus": "<p id=\"stim\">PALACE</p>", "conditions": [24, 800, "v", 24000], "internal_node_id": "0.0-188.0", "trial": 7, "time_elapsed": 1291741, "serialpos": 19, "key_press": -1, "wordID": 1005, "type": "PRES_VIS", "trial_index": 260}, "uniqueid": "MTK3218:3LRKMWOKB6O8EZUGSFGALIG6PR5Z2B", "dateTime": 1520267618899}, {"current_trial": 261, "trialdata": {"rt": -1, "trial_type": "single-stim", "word": "liver", "stimulus": "<p id=\"stim\">LIVER</p>", "conditions": [24, 800, "v", 24000], "internal_node_id": "0.0-189.0", "trial": 7, "time_elapsed": 1293353, "serialpos": 20, "key_press": -1, "wordID": 832, "type": "PRES_VIS", "trial_index": 261}, "uniqueid": "MTK3218:3LRKMWOKB6O8EZUGSFGALIG6PR5Z2B",