{"assignmentId": "30IQTZXKALDCDURNCAOB597GKK50XV", "workerId": "MTK3721", "questiondata": {"origin": "United States", "strat-rehearsal": "58", "marital": "Married/Domestic Partnership", "education": "Bachelor's degree", "ethnicity": "Not Hispanic", "color_depth": 24, "distracted": "No", "wrote-notes": "No", "strat-other": "no", "screen_width": 1440, "avail_screen_width": 1440, "avail_screen_height": 821, "strat-image": "68", "language": "english", "gender": "Female", "age": "33", "gender_other": "", "race": ["White"], "strat-categorize": "73", "pixel_depth": 24, "strat-spatial": "0", "strat-story": "25", "race_other": "", "screen_height": 900}, "bonus": 0, "hitId": "35NNO802AV3GLBW5OSL6ORKUJJTINB", "counterbalance": 1770, "useragent": "Mozilla/5.0 (Macintosh; Intel Mac OS X 10_11_6) AppleWebKit/537.36 (KHTML, like Gecko) Chrome/64.0.3282.167 Safari/537.36", "eventdata": [{"eventtype": "initialized", "interval": 0, "value": null, "timestamp": 1520968525991}, {"eventtype": "window_resize", "interval": 0, "value": [1440, 770], "timestamp": 1520968525991}], "data": [{"current_trial": 0, "trialdata": {"rt": 1860, "trial_type": "text", "internal_node_id": "0.0-0.0", "time_elapsed": 1862, "key_press": 32, "type": "INSTRUCTIONS", "trial_index": 0}, "uniqueid": "MTK3721:30IQTZXKALDCDURNCAOB597GKK50XV", "dateTime": 1520968546576}, {"current_trial": 1, "trialdata": {"rt": 19414, "trial_type": "text", "internal_node_id": "0.0-1.0", "time_elapsed": 21279, "key_press": 13, "type": "INSTRUCTIONS", "trial_index": 1}, "uniqueid": "MTK3721:30IQTZXKALDCDURNCAOB597GKK50XV", "dateTime": 1520968565992}, {"current_trial": 2, "trialdata": {"rt": [23474], "trial_type": "audio-test", "responses": ["ocean"], "internal_node_id": "0.0-2.0", "time_elapsed": 44766, "type": "AUDIO_TEST", "trial_index": 2}, "uniqueid": "MTK3721:30IQTZXKALDCDURNCAOB597GKK50XV", "dateTime": 1520968589479}, {"current_trial": 3, "trialdata": {"rt": [7210], "trial_type": "audio-test", "responses": ["crystal"], "internal_node_id": "0.0-3.0", "time_elapsed": 51982, "type": "AUDIO_TEST", "trial_index": 3}, "uniqueid": "MTK3721:30IQTZXKALDCDURNCAOB597GKK50XV", "dateTime": 1520968596695}, {"current_trial": 4, "trialdata": {"rt": [6182], "trial_type": "audio-test", "responses": ["spice"], "internal_node_id": "0.0-4.0", "time_elapsed": 58169, "type": "AUDIO_TEST", "trial_index": 4}, "uniqueid": "MTK3721:30IQTZXKALDCDURNCAOB597GKK50XV", "dateTime": 1520968602883}, {"current_trial": 5, "trialdata": {"rt": 23493, "trial_type": "survey-text", "responses": "{\"Q0\":\"11:15\",\"Q1\":\"5:45\",\"Q2\":\"4\"}", "internal_node_id": "0.0-5.0", "time_elapsed": 82419, "type": "SLEEP_SURVEY", "trial_index": 5}, "uniqueid": "MTK3721:30IQTZXKALDCDURNCAOB597GKK50XV", "dateTime": 1520968627132}, {"current_trial": 6, "trialdata": {"rt": 24301, "trial_type": "text", "internal_node_id": "0.0-6.0", "time_elapsed": 107727, "key_press": 40, "type": "INSTRUCTIONS", "trial_index": 6}, "uniqueid": "MTK3721:30IQTZXKALDCDURNCAOB597GKK50XV", "dateTime": 1520968652440}, {"current_trial": 7, "trialdata": {"rt": 12525, "trial_type": "text", "internal_node_id": "0.0-7.0", "time_elapsed": 120754, "key_press": 13, "type": "INSTRUCTIONS", "trial_index": 7}, "uniqueid": "MTK3721:30IQTZXKALDCDURNCAOB597GKK50XV", "dateTime": 1520968665468}, {"current_trial": 8, "trialdata": {"rt": 4083, "trial_type": "text", "internal_node_id": "0.0-8.0", "time_elapsed": 125339, "key_press": 13, "type": "INSTRUCTIONS", "trial_index": 8}, "uniqueid": "MTK3721:30IQTZXKALDCDURNCAOB597GKK50XV", "dateTime": 1520968670052}, {"current_trial": 9, "trialdata": {"rt": [4602, 7844, 10539, 12765, 15637], "trial_type": "math-distractor", "key_times": [3776, 3916, 4602, 6812, 7296, 7844, 9897, 10007, 10539, 12433, 12765, 15314, 15637], "responses": ["22", "17", "11", "8", "9"], "num2": [7, 5, 4, 1, 1, 4], "num3": [7, 7, 2, 1, 2, 9], "conditions": [18, 1200, "a", 18000], "internal_node_id": "0.0-9.0", "key_presses": [50, 50, 13, 49, 55, 13, 49, 49, 13, 56, 13, 57, 13], "trial": 0, "time_elapsed": 144351, "type": "DISTRACTOR", "trial_index": 9, "num1": [8, 5, 5, 6, 6, 6]}, "uniqueid": "MTK3721:30IQTZXKALDCDURNCAOB597GKK50XV", "dateTime": 1520968689064}, {"current_trial": 10, "trialdata": {"rt": -1, "trial_type": "single-stim", "stimulus": "<p id=\"stim\">10</p>", "internal_node_id": "0.0-10.0-0.0", "time_elapsed": 147358, "key_press": -1, "trial_index": 10}, "uniqueid": "MTK3721:30IQTZXKALDCDURNCAOB597GKK50XV", "dateTime": 1520968692071}, {"current_trial": 11, "trialdata": {"rt": -1, "trial_type": "single-stim", "stimulus": "<p id=\"stim\">9</p>", "internal_node_id": "0.0-10.0-1.0", "time_elapsed": 148363, "key_press": -1, "trial_index": 11}, "uniqueid": "MTK3721:30IQTZXKALDCDURNCAOB597GKK50XV", "dateTime": 1520968693076}, {"current_trial": 12, "trialdata": {"rt": -1, "trial_type": "single-stim", "stimulus": "<p id=\"stim\">8</p>", "internal_node_id": "0.0-10.0-2.0", "time_elapsed": 149369, "key_press": -1, "trial_index": 12}, "uniqueid": "MTK3721:30IQTZXKALDCDURNCAOB597GKK50XV", "dateTime": 1520968694082}, {"current_trial": 13, "trialdata": {"rt": -1, "trial_type": "single-stim", "stimulus": "<p id=\"stim\">7</p>", "internal_node_id": "0.0-10.0-3.0", "time_elapsed": 150375, "key_press": -1, "trial_index": 13}, "uniqueid": "MTK3721:30IQTZXKALDCDURNCAOB597GKK50XV", "dateTime": 1520968695088}, {"current_trial": 14, "trialdata": {"rt": -1, "trial_type": "single-stim", "stimulus": "<p id=\"stim\">6</p>", "internal_node_id": "0.0-10.0-4.0", "time_elapsed": 151381, "key_press": -1, "trial_index": 14}, "uniqueid": "MTK3721:30IQTZXKALDCDURNCAOB597GKK50XV", "dateTime": 1520968696094}, {"current_trial": 15, "trialdata": {"rt": -1, "trial_type": "single-stim", "stimulus": "<p id=\"stim\">5</p>", "internal_node_id": "0.0-10.0-5.0", "time_elapsed": 152384, "key_press": -1, "trial_index": 15}, "uniqueid": "MTK3721:30IQTZXKALDCDURNCAOB597GKK50XV", "dateTime": 1520968697097}, {"current_trial": 16, "trialdata": {"rt": -1, "trial_type": "single-stim", "stimulus": "<p id=\"stim\">4</p>", "internal_node_id": "0.0-10.0-6.0", "time_elapsed": 153387, "key_press": -1, "trial_index": 16}, "uniqueid": "MTK3721:30IQTZXKALDCDURNCAOB597GKK50XV", "dateTime": 1520968698100}, {"current_trial": 17, "trialdata": {"rt": -1, "trial_type": "single-stim", "stimulus": "<p id=\"stim\">3</p>", "internal_node_id": "0.0-10.0-7.0", "time_elapsed": 154392, "key_press": -1, "trial_index": 17}, "uniqueid": "MTK3721:30IQTZXKALDCDURNCAOB597GKK50XV", "dateTime": 1520968699105}, {"current_trial": 18, "trialdata": {"rt": -1, "trial_type": "single-stim", "stimulus": "<p id=\"stim\">2</p>", "internal_node_id": "0.0-10.0-8.0", "time_elapsed": 155396, "key_press": -1, "trial_index": 18}, "uniqueid": "MTK3721:30IQTZXKALDCDURNCAOB597GKK50XV", "dateTime": 1520968700109}, {"current_trial": 19, "trialdata": {"rt": -1, "trial_type": "single-stim", "stimulus": "<p id=\"stim\">1</p>", "internal_node_id": "0.0-10.0-9.0", "time_elapsed": 156400, "key_press": -1, "trial_index": 19}, "uniqueid": "MTK3721:30IQTZXKALDCDURNCAOB597GKK50XV", "dateTime": 1520968701113}, {"current_trial": 20, "trialdata": {"rt": -1, "trial_type": "single-stim", "stimulus": "<p id=\"stim\">+</p>", "internal_node_id": "0.0-11.0-0.0", "time_elapsed": 157903, "key_press": -1, "type": "FIXATION", "trial_index": 20}, "uniqueid": "MTK3721:30IQTZXKALDCDURNCAOB597GKK50XV", "dateTime": 1520968702616}, {"current_trial": 21, "trialdata": {"rt": -1000, "trial_type": "single-audio", "word": "leader", "stimulus": "/static/audio/wordpool/LEADER.wav", "conditions": [18, 1200, "a", 18000], "internal_node_id": "0.0-12.0", "trial": 0, "time_elapsed": 160026, "serialpos": 0, "key_press": -1, "wordID": 806, "type": "PRES_AUD", "trial_index": 21}, "uniqueid": "MTK3721:30IQTZXKALDCDURNCAOB597GKK50XV", "dateTime": 1520968704739}, {"current_trial": 22, "trialdata": {"rt": -1000, "trial_type": "single-audio", "word": "grave", "stimulus": "/static/audio/wordpool/GRAVE.wav", "conditions": [18, 1200, "a", 18000], "internal_node_id": "0.0-13.0", "trial": 0, "time_elapsed": 162360, "serialpos": 1, "key_press": -1, "wordID": 657, "type": "PRES_AUD", "trial_index": 22}, "uniqueid": "MTK3721:30IQTZXKALDCDURNCAOB597GKK50XV", "dateTime": 1520968707073}, {"current_trial": 23, "trialdata": {"rt": -1000, "trial_type": "single-audio", "word": "slide", "stimulus": "/static/audio/wordpool/SLIDE.wav", "conditions": [18, 1200, "a", 18000], "internal_node_id": "0.0-14.0", "trial": 0, "time_elapsed": 164566, "serialpos": 2, "key_press": -1, "wordID": 1325, "type": "PRES_AUD", "trial_index": 23}, "uniqueid": "MTK3721:30IQTZXKALDCDURNCAOB597GKK50XV", "dateTime": 1520968709279}, {"current_trial": 24, "trialdata": {"rt": -1000, "trial_type": "single-audio", "word": "permit", "stimulus": "/static/audio/wordpool/PERMIT.wav", "conditions": [18, 1200, "a", 18000], "internal_node_id": "0.0-15.0", "trial": 0, "time_elapsed": 166813, "serialpos": 3, "key_press": -1, "wordID": 1050, "type": "PRES_AUD", "trial_index": 24}, "uniqueid": "MTK3721:30IQTZXKALDCDURNCAOB597GKK50XV", "dateTime": 1520968711526}, {"current_trial": 25, "trialdata": {"rt": -1000, "trial_type": "single-audio", "word": "slope", "stimulus": "/static/audio/wordpool/SLOPE.wav", "conditions": [18, 1200, "a", 18000], "internal_node_id": "0.0-16.0", "trial": 0, "time_elapsed": 169007, "serialpos": 4, "key_press": -1, "wordID": 1327, "type": "PRES_AUD", "trial_index": 25}, "uniqueid": "MTK3721:30IQTZXKALDCDURNCAOB597GKK50XV", "dateTime": 1520968713720}, {"current_trial": 26, "trialdata": {"rt": -1000, "trial_type": "single-audio", "word": "swamp", "stimulus": "/static/audio/wordpool/SWAMP.wav", "conditions": [18, 1200, "a", 18000], "internal_node_id": "0.0-17.0", "trial": 0, "time_elapsed": 171015, "serialpos": 5, "key_press": -1, "wordID": 1415, "type": "PRES_AUD", "trial_index": 26}, "uniqueid": "MTK3721:30IQTZXKALDCDURNCAOB597GKK50XV", "dateTime": 1520968715728}, {"current_trial": 27, "trialdata": {"rt": -1000, "trial_type": "single-audio", "word": "popcorn", "stimulus": "/static/audio/wordpool/POPCORN.wav", "conditions": [18, 1200, "a", 18000], "internal_node_id": "0.0-18.0", "trial": 0, "time_elapsed": 173065, "serialpos": 6, "key_press": -1, "wordID": 1103, "type": "PRES_AUD", "trial_index": 27}, "uniqueid": "MTK3721:30IQTZXKALDCDURNCAOB597GKK50XV", "dateTime": 1520968717778}, {"current_trial": 28, "trialdata": {"rt": -1000, "trial_type": "single-audio", "word": "beaver", "stimulus": "/static/audio/wordpool/BEAVER.wav", "conditions": [18, 1200, "a", 18000], "internal_node_id": "0.0-19.0", "trial": 0, "time_elapsed": 175334, "serialpos": 7, "key_press": -1, "wordID": 108, "type": "PRES_AUD", "trial_index": 28}, "uniqueid": "MTK3721:30IQTZXKALDCDURNCAOB597GKK50XV", "dateTime": 1520968720047}, {"current_trial": 29, "trialdata": {"rt": -1000, "trial_type": "single-audio", "word": "film", "stimulus": "/static/audio/wordpool/FILM.wav", "conditions": [18, 1200, "a", 18000], "internal_node_id": "0.0-20.0", "trial": 0, "time_elapsed": 177348, "serialpos": 8, "key_press": -1, "wordID": 564, "type": "PRES_AUD", "trial_index": 29}, "uniqueid": "MTK3721:30IQTZXKALDCDURNCAOB597GKK50XV", "dateTime": 1520968722061}, {"current_trial": 30, "trialdata": {"rt": -1000, "trial_type": "single-audio", "word": "citrus", "stimulus": "/static/audio/wordpool/CITRUS.wav", "conditions": [18, 1200, "a", 18000], "internal_node_id": "0.0-21.0", "trial": 0, "time_elapsed": 179370, "serialpos": 9, "key_press": -1, "wordID": 312, "type": "PRES_AUD", "trial_index": 30}, "uniqueid": "MTK3721:30IQTZXKALDCDURNCAOB597GKK50XV", "dateTime": 1520968724083}, {"current_trial": 31, "trialdata": {"rt": -1000, "trial_type": "single-audio", "word": "ketchup", "stimulus": "/static/audio/wordpool/KETCHUP.wav", "conditions": [18, 1200, "a", 18000], "internal_node_id": "0.0-22.0", "trial": 0, "time_elapsed": 181464, "serialpos": 10, "key_press": -1, "wordID": 770, "type": "PRES_AUD", "trial_index": 31}, "uniqueid": "MTK3721:30IQTZXKALDCDURNCAOB597GKK50XV", "dateTime": 1520968726177}, {"current_trial": 32, "trialdata": {"rt": -1000, "trial_type": "single-audio", "word": "scribble", "stimulus": "/static/audio/wordpool/SCRIBBLE.wav", "conditions": [18, 1200, "a", 18000], "internal_node_id": "0.0-23.0", "trial": 0, "time_elapsed": 183547, "serialpos": 11, "key_press": -1, "wordID": 1255, "type": "PRES_AUD", "trial_index": 32}, "uniqueid": "MTK3721:30IQTZXKALDCDURNCAOB597GKK50XV", "dateTime": 1520968728261}, {"current_trial": 33, "trialdata": {"rt": -1000, "trial_type": "single-audio", "word": "thread", "stimulus": "/static/audio/wordpool/THREAD.wav", "conditions": [18, 1200, "a", 18000], "internal_node_id": "0.0-24.0", "trial": 0, "time_elapsed": 185813, "serialpos": 12, "key_press": -1, "wordID": 1459, "type": "PRES_AUD", "trial_index": 33}, "uniqueid": "MTK3721:30IQTZXKALDCDURNCAOB597GKK50XV", "dateTime": 1520968730526}, {"current_trial": 34, "trialdata": {"rt": -1000, "trial_type": "single-audio", "word": "girl", "stimulus": "/static/audio/wordpool/GIRL.wav", "conditions": [18, 1200, "a", 18000], "internal_node_id": "0.0-25.0", "trial": 0, "time_elapsed": 188128, "serialpos": 13, "key_press": -1, "wordID": 636, "type": "PRES_AUD", "trial_index": 34}, "uniqueid": "MTK3721:30IQTZXKALDCDURNCAOB597GKK50XV", "dateTime": 1520968732841}, {"current_trial": 35, "trialdata": {"rt": -1000, "trial_type": "single-audio", "word": "portrait", "stimulus": "/static/audio/wordpool/PORTRAIT.wav", "conditions": [18, 1200, "a", 18000], "internal_node_id": "0.0-26.0", "trial": 0, "time_elapsed": 190292, "serialpos": 14, "key_press": -1, "wordID": 1110, "type": "PRES_AUD", "trial_index": 35}, "uniqueid": "MTK3721:30IQTZXKALDCDURNCAOB597GKK50XV", "dateTime": 1520968735005}, {"current_trial": 36, "trialdata": {"rt": -1000, "trial_type": "single-audio", "word": "atlas", "stimulus": "/static/audio/wordpool/ATLAS.wav", "conditions": [18, 1200, "a", 18000], "internal_node_id": "0.0-27.0", "trial": 0, "time_elapsed": 192488, "serialpos": 15, "key_press": -1, "wordID": 52, "type": "PRES_AUD", "trial_index": 36}, "uniqueid": "MTK3721:30IQTZXKALDCDURNCAOB597GKK50XV", "dateTime": 1520968737201}, {"current_trial": 37, "trialdata": {"rt": -1000, "trial_type": "single-audio", "word": "sausage", "stimulus": "/static/audio/wordpool/SAUSAGE.wav", "conditions": [18, 1200, "a", 18000], "internal_node_id": "0.0-28.0", "trial": 0, "time_elapsed": 194572, "serialpos": 16, "key_press": -1, "wordID": 1237, "type": "PRES_AUD", "trial_index": 37}, "uniqueid": "MTK3721:30IQTZXKALDCDURNCAOB597GKK50XV", "dateTime": 1520968739285}, {"current_trial": 38, "trialdata": {"rt": -1000, "trial_type": "single-audio", "word": "quail", "stimulus": "/static/audio/wordpool/QUAIL.wav", "conditions": [18, 1200, "a", 18000], "internal_node_id": "0.0-29.0", "trial": 0, "time_elapsed": 196900, "serialpos": 17, "key_press": -1, "wordID": 1146, "type": "PRES_AUD", "trial_index": 38}, "uniqueid": "MTK3721:30IQTZXKALDCDURNCAOB597GKK50XV", "dateTime": 1520968741613}, {"current_trial": 39, "trialdata": {"rt": -1, "trial_type": "single-stim", "stimulus": "", "internal_node_id": "0.0-30.0-0.0", "time_elapsed": 198119, "key_press": -1, "type": "PRE_RECALL_DELAY", "trial_index": 39}, "uniqueid": "MTK3721:30IQTZXKALDCDURNCAOB597GKK50XV", "dateTime": 1520968742832}, {"current_trial": 40, "trialdata": {"rt": -1000, "trial_type": "single-audio", "stimulus": "/static/audio/400Hz.wav", "internal_node_id": "0.0-31.0", "time_elapsed": 198621, "key_press": -1, "type": "PRE_RECALL_ALERT", "trial_index": 40}, "uniqueid": "MTK3721:30IQTZXKALDCDURNCAOB597GKK50XV", "dateTime": 1520968743335}, {"current_trial": 41, "trialdata": {"rt": [4987, 7321, 10055, 12941, 19147, 21005, 26424, 28024, 33090, 36341, 39057, 41205, 45642, 48370, 51217, 54120], "recwords": ["peter", "grape", "slide", "permit", "popcorn", "swamp", "beaver", "film", "ketchup", "citrus", "thred", "girl", "portrait", "sausage", "atlas", "quail"], "key_times": [3837, 4278, 4427, 4607, 4710, 4987, 6422, 6665, 6736, 6990, 7083, 7321, 8620, 8758, 9056, 9276, 9391, 10055, 10735, 10890, 10985, 11316, 11509, 11712, 12941, 15129, 15302, 15426, 16298, 16486, 16692, 16870, 19147, 20000, 20247, 20382, 20531, 20794, 21005, 23647, 23947, 24011, 24861, 25088, 25189, 26424, 26962, 27039, 27236, 27638, 28024, 29924, 30104, 30817, 31258, 31361, 31546, 31945, 33090, 33658, 33887, 34075, 34287, 34383, 34926, 36341, 36966, 37095, 37342, 37430, 37758, 39057, 39571, 39679, 39923, 40077, 41205, 42654, 43255, 43488, 43692, 43901, 43985, 44231, 44439, 45642, 46979, 47095, 47321, 47583, 47707, 47963, 48067, 48370, 49663, 50007, 50275, 50335, 50439, 51217, 52358, 52543, 53222, 53375, 53566, 54120], "trial_type": "free-recall", "conditions": [18, 1200, "a", 18000], "internal_node_id": "0.0-32.0-0.0", "key_presses": [80, 69, 84, 69, 82, 13, 71, 82, 65, 80, 69, 13, 83, 76, 73, 68, 69, 13, 80, 69, 82, 77, 73, 84, 13, 80, 79, 80, 67, 79, 82, 78, 13, 83, 87, 65, 77, 80, 13, 66, 69, 65, 86, 69, 82, 13, 70, 73, 76, 77, 13, 75, 69, 84, 67, 72, 85, 80, 13, 67, 73, 84, 82, 85, 83, 13, 84, 72, 82, 69, 68, 13, 71, 73, 82, 76, 13, 80, 79, 82, 84, 82, 65, 73, 84, 13, 83, 65, 85, 83, 65, 71, 69, 13, 65, 84, 76, 65, 83, 13, 81, 85, 65, 73, 76, 13], "trial": 0, "time_elapsed": 258627, "type": "FREE_RECALL", "trial_index": 41}, "uniqueid": "MTK3721:30IQTZXKALDCDURNCAOB597GKK50XV", "dateTime": 1520968803343}, {"current_trial": 42, "trialdata": {"rt": 3753, "trial_type": "text", "internal_node_id": "0.0-33.0", "time_elapsed": 264386, "key_press": 13, "type": "INSTRUCTIONS", "trial_index": 42}, "uniqueid": "MTK3721:30IQTZXKALDCDURNCAOB597GKK50XV", "dateTime": 1520968809099}, {"current_trial": 43, "trialdata": {"rt": [3761, 6862, 11823, 16821], "trial_type": "math-distractor", "key_times": [2591, 3317, 3602, 3761, 6098, 6349, 6862, 11112, 11335, 11823, 16267, 16670, 16821], "responses": ["7", "15", "15", "16"], "num2": [2, 9, 5, 6, 5], "num3": [4, 2, 1, 3, 9], "conditions": [18, 1200, "a", 18000], "internal_node_id": "0.0-34.0", "key_presses": [54, 8, 55, 13, 49, 53, 13, 49, 53, 13, 49, 54, 13], "trial": 1, "time_elapsed": 284392, "type": "DISTRACTOR", "trial_index": 43, "num1": [1, 4, 8, 7, 6]}, "uniqueid": "MTK3721:30IQTZXKALDCDURNCAOB597GKK50XV", "dateTime": 1520968829105}, {"current_trial": 44, "trialdata": {"rt": -1, "trial_type": "single-stim", "stimulus": "<p id=\"stim\">10</p>", "internal_node_id": "0.0-35.0-0.0", "time_elapsed": 287399, "key_press": -1, "trial_index": 44}, "uniqueid": "MTK3721:30IQTZXKALDCDURNCAOB597GKK50XV", "dateTime": 1520968832112}, {"current_trial": 45, "trialdata": {"rt": -1, "trial_type": "single-stim", "stimulus": "<p id=\"stim\">9</p>", "internal_node_id": "0.0-35.0-1.0", "time_elapsed": 288404, "key_press": -1, "trial_index": 45}, "uniqueid": "MTK3721:30IQTZXKALDCDURNCAOB597GKK50XV", "dateTime": 1520968833117}, {"current_trial": 46, "trialdata": {"rt": -1, "trial_type": "single-stim", "stimulus": "<p id=\"stim\">8</p>", "internal_node_id": "0.0-35.0-2.0", "time_elapsed": 289409, "key_press": -1, "trial_index": 46}, "uniqueid": "MTK3721:30IQTZXKALDCDURNCAOB597GKK50XV", "dateTime": 1520968834123}, {"current_trial": 47, "trialdata": {"rt": -1, "trial_type": "single-stim", "stimulus": "<p id=\"stim\">7</p>", "internal_node_id": "0.0-35.0-3.0", "time_elapsed": 290415, "key_press": -1, "trial_index": 47}, "uniqueid": "MTK3721:30IQTZXKALDCDURNCAOB597GKK50XV", "dateTime": 1520968835128}, {"current_trial": 48, "trialdata": {"rt": -1, "trial_type": "single-stim", "stimulus": "<p id=\"stim\">6</p>", "internal_node_id": "0.0-35.0-4.0", "time_elapsed": 291420, "key_press": -1, "trial_index": 48}, "uniqueid": "MTK3721:30IQTZXKALDCDURNCAOB597GKK50XV", "dateTime": 1520968836133}, {"current_trial": 49, "trialdata": {"rt": -1, "trial_type": "single-stim", "stimulus": "<p id=\"stim\">5</p>", "internal_node_id": "0.0-35.0-5.0", "time_elapsed": 292424, "key_press": -1, "trial_index": 49}, "uniqueid": "MTK3721:30IQTZXKALDCDURNCAOB597GKK50XV", "dateTime": 1520968837137}, {"current_trial": 50, "trialdata": {"rt": -1, "trial_type": "single-stim", "stimulus": "<p id=\"stim\">4</p>", "internal_node_id": "0.0-35.0-6.0", "time_elapsed": 293429, "key_press": -1, "trial_index": 50}, "uniqueid": "MTK3721:30IQTZXKALDCDURNCAOB597GKK50XV", "dateTime": 1520968838142}, {"current_trial": 51, "trialdata": {"rt": -1, "trial_type": "single-stim", "stimulus": "<p id=\"stim\">3</p>", "internal_node_id": "0.0-35.0-7.0", "time_elapsed": 294435, "key_press": -1, "trial_index": 51}, "uniqueid": "MTK3721:30IQTZXKALDCDURNCAOB597GKK50XV", "dateTime": 1520968839148}, {"current_trial": 52, "trialdata": {"rt": -1, "trial_type": "single-stim", "stimulus": "<p id=\"stim\">2</p>", "internal_node_id": "0.0-35.0-8.0", "time_elapsed": 295439, "key_press": -1, "trial_index": 52}, "uniqueid": "MTK3721:30IQTZXKALDCDURNCAOB597GKK50XV", "dateTime": 1520968840152}, {"current_trial": 53, "trialdata": {"rt": -1, "trial_type": "single-stim", "stimulus": "<p id=\"stim\">1</p>", "internal_node_id": "0.0-35.0-9.0", "time_elapsed": 296445, "key_press": -1, "trial_index": 53}, "uniqueid": "MTK3721:30IQTZXKALDCDURNCAOB597GKK50XV", "dateTime": 1520968841158}, {"current_trial": 54, "trialdata": {"rt": -1, "trial_type": "single-stim", "stimulus": "<p id=\"stim\">+</p>", "internal_node_id": "0.0-36.0-0.0", "time_elapsed": 297950, "key_press": -1, "type": "FIXATION", "trial_index": 54}, "uniqueid": "MTK3721:30IQTZXKALDCDURNCAOB597GKK50XV", "dateTime": 1520968842663}, {"current_trial": 55, "trialdata": {"rt": -1000, "trial_type": "single-audio", "word": "sister", "stimulus": "/static/audio/wordpool/SISTER.wav", "conditions": [18, 1200, "a", 18000], "internal_node_id": "0.0-37.0", "trial": 1, "time_elapsed": 300124, "serialpos": 0, "key_press": -1, "wordID": 1311, "type": "PRES_AUD", "trial_index": 55}, "uniqueid": "MTK3721:30IQTZXKALDCDURNCAOB597GKK50XV", "dateTime": 1520968844837}, {"current_trial": 56, "trialdata": {"rt": -1000, "trial_type": "single-audio", "word": "burglar", "stimulus": "/static/audio/wordpool/BURGLAR.wav", "conditions": [18, 1200, "a", 18000], "internal_node_id": "0.0-38.0", "trial": 1, "time_elapsed": 302156, "serialpos": 1, "key_press": -1, "wordID": 199, "type": "PRES_AUD", "trial_index": 56}, "uniqueid": "MTK3721:30IQTZXKALDCDURNCAOB597GKK50XV", "dateTime": 1520968846869}, {"current_trial": 57, "trialdata": {"rt": -1000, "trial_type": "single-audio", "word": "dentist", "stimulus": "/static/audio/wordpool/DENTIST.wav", "conditions": [18, 1200, "a", 18000], "internal_node_id": "0.0-39.0", "trial": 1, "time_elapsed": 304274, "serialpos": 2, "key_press": -1, "wordID": 446, "type": "PRES_AUD", "trial_index": 57}, "uniqueid": "MTK3721:30IQTZXKALDCDURNCAOB597GKK50XV", "dateTime": 1520968848987}, {"current_trial": 58, "trialdata": {"rt": -1000, "trial_type": "single-audio", "word": "mailman", "stimulus": "/static/audio/wordpool/MAILMAN.wav", "conditions": [18, 1200, "a", 18000], "internal_node_id": "0.0-40.0", "trial": 1, "time_elapsed": 306376, "serialpos": 3, "key_press": -1, "wordID": 857, "type": "PRES_AUD", "trial_index": 58}, "uniqueid": "MTK3721:30IQTZXKALDCDURNCAOB597GKK50XV", "dateTime": 1520968851089}, {"current_trial": 59, "trialdata": {"rt": -1000, "trial_type": "single-audio", "word": "piston", "stimulus": "/static/audio/wordpool/PISTON.wav", "conditions": [18, 1200, "a", 18000], "internal_node_id": "0.0-41.0", "trial": 1, "time_elapsed": 308663, "serialpos": 4, "key_press": -1, "wordID": 1075, "type": "PRES_AUD", "trial_index": 59}, "uniqueid": "MTK3721:30IQTZXKALDCDURNCAOB597GKK50XV", "dateTime": 1520968853376}, {"current_trial": 60, "trialdata": {"rt": -1000, "trial_type": "single-audio", "word": "servant", "stimulus": "/static/audio/wordpool/SERVANT.wav", "conditions": [18, 1200, "a", 18000], "internal_node_id": "0.0-42.0", "trial": 1, "time_elapsed": 310817, "serialpos": 5, "key_press": -1, "wordID": 1270, "type": "PRES_AUD", "trial_index": 60}, "uniqueid": "MTK3721:30IQTZXKALDCDURNCAOB597GKK50XV", "dateTime": 1520968855530}, {"current_trial": 61, "trialdata": {"rt": -1000, "trial_type": "single-audio", "word": "lagoon", "stimulus": "/static/audio/wordpool/LAGOON.wav", "conditions": [18, 1200, "a", 18000], "internal_node_id": "0.0-43.0", "trial": 1, "time_elapsed": 312997, "serialpos": 6, "key_press": -1, "wordID": 794, "type": "PRES_AUD", "trial_index": 61}, "uniqueid": "MTK3721:30IQTZXKALDCDURNCAOB597GKK50XV", "dateTime": 1520968857710}, {"current_trial": 62, "trialdata": {"rt": -1000, "trial_type": "single-audio", "word": "garbage", "stimulus": "/static/audio/wordpool/GARBAGE.wav", "conditions": [18, 1200, "a", 18000], "internal_node_id": "0.0-44.0", "trial": 1, "time_elapsed": 315206, "serialpos": 7, "key_press": -1, "wordID": 621, "type": "PRES_AUD", "trial_index": 62}, "uniqueid": "MTK3721:30IQTZXKALDCDURNCAOB597GKK50XV", "dateTime": 1520968859919}, {"current_trial": 63, "trialdata": {"rt": -1000, "trial_type": "single-audio", "word": "flipper", "stimulus": "/static/audio/wordpool/FLIPPER.wav", "conditions": [18, 1200, "a", 18000], "internal_node_id": "0.0-45.0", "trial": 1, "time_elapsed": 317307, "serialpos": 8, "key_press": -1, "wordID": 579, "type": "PRES_AUD", "trial_index": 63}, "uniqueid": "MTK3721:30IQTZXKALDCDURNCAOB597GKK50XV", "dateTime": 1520968862020}, {"current_trial": 64, "trialdata": {"rt": -1000, "trial_type": "single-audio", "word": "pasta", "stimulus": "/static/audio/wordpool/PASTA.wav", "conditions": [18, 1200, "a", 18000], "internal_node_id": "0.0-46.0", "trial": 1, "time_elapsed": 319507, "serialpos": 9, "key_press": -1, "wordID": 1020, "type": "PRES_AUD", "trial_index": 64}, "uniqueid": "MTK3721:30IQTZXKALDCDURNCAOB597GKK50XV", "dateTime": 1520968864220}, {"current_trial": 65, "trialdata": {"rt": -1000, "trial_type": "single-audio", "word": "infant", "stimulus": "/static/audio/wordpool/INFANT.wav", "conditions": [18, 1200, "a", 18000], "internal_node_id": "0.0-47.0", "trial": 1, "time_elapsed": 321626, "serialpos": 10, "key_press": -1, "wordID": 736, "type": "PRES_AUD", "trial_index": 65}, "uniqueid": "MTK3721:30IQTZXKALDCDURNCAOB597GKK50XV", "dateTime": 1520968866340}, {"current_trial": 66, "trialdata": {"rt": -1000, "trial_type": "single-audio", "word": "cashier", "stimulus": "/static/audio/wordpool/CASHIER.wav", "conditions": [18, 1200, "a", 18000], "internal_node_id": "0.0-48.0", "trial": 1, "time_elapsed": 323658, "serialpos": 11, "key_press": -1, "wordID": 253, "type": "PRES_AUD", "trial_index": 66}, "uniqueid": "MTK3721:30IQTZXKALDCDURNCAOB597GKK50XV", "dateTime": 1520968868371}, {"current_trial": 67, "trialdata": {"rt": -1000, "trial_type": "single-audio", "word": "grill", "stimulus": "/static/audio/wordpool/GRILL.wav", "conditions": [18, 1200, "a", 18000], "internal_node_id": "0.0-49.0", "trial": 1, "time_elapsed": 325963, "serialpos": 12, "key_press": -1, "wordID": 660, "type": "PRES_AUD", "trial_index": 67}, "uniqueid": "MTK3721:30IQTZXKALDCDURNCAOB597GKK50XV", "dateTime": 1520968870676}, {"current_trial": 68, "trialdata": {"rt": -1000, "trial_type": "single-audio", "word": "gift", "stimulus": "/static/audio/wordpool/GIFT.wav", "conditions": [18, 1200, "a", 18000], "internal_node_id": "0.0-50.0", "trial": 1, "time_elapsed": 328000, "serialpos": 13, "key_press": -1, "wordID": 634, "type": "PRES_AUD", "trial_index": 68}, "uniqueid": "MTK3721:30IQTZXKALDCDURNCAOB597GKK50XV", "dateTime": 1520968872715}, {"current_trial": 69, "trialdata": {"rt": -1000, "trial_type": "single-audio", "word": "queen", "stimulus": "/static/audio/wordpool/QUEEN.wav", "conditions": [18, 1200, "a", 18000], "internal_node_id": "0.0-51.0", "trial": 1, "time_elapsed": 330137, "serialpos": 14, "key_press": -1, "wordID": 1148, "type": "PRES_AUD", "trial_index": 69}, "uniqueid": "MTK3721:30IQTZXKALDCDURNCAOB597GKK50XV", "dateTime": 1520968874850}, {"current_trial": 70, "trialdata": {"rt": -1000, "trial_type": "single-audio", "word": "jungle", "stimulus": "/static/audio/wordpool/JUNGLE.wav", "conditions": [18, 1200, "a", 18000], "internal_node_id": "0.0-52.0", "trial": 1, "time_elapsed": 332528, "serialpos": 15, "key_press": -1, "wordID": 763, "type": "PRES_AUD", "trial_index": 70}, "uniqueid": "MTK3721:30IQTZXKALDCDURNCAOB597GKK50XV", "dateTime": 1520968877241}, {"current_trial": 71, "trialdata": {"rt": -1000, "trial_type": "single-audio", "word": "twig", "stimulus": "/static/audio/wordpool/TWIG.wav", "conditions": [18, 1200, "a", 18000], "internal_node_id": "0.0-53.0", "trial": 1, "time_elapsed": 334763, "serialpos": 16, "key_press": -1, "wordID": 1526, "type": "PRES_AUD", "trial_index": 71}, "uniqueid": "MTK3721:30IQTZXKALDCDURNCAOB597GKK50XV", "dateTime": 1520968879476}, {"current_trial": 72, "trialdata": {"rt": -1000, "trial_type": "single-audio", "word": "paddle", "stimulus": "/static/audio/wordpool/PADDLE.wav", "conditions": [18, 1200, "a", 18000], "internal_node_id": "0.0-54.0", "trial": 1, "time_elapsed": 337085, "serialpos": 17, "key_press": -1, "wordID": 999, "type": "PRES_AUD", "trial_index": 72}, "uniqueid": "MTK3721:30IQTZXKALDCDURNCAOB597GKK50XV", "dateTime": 1520968881798}, {"current_trial": 73, "trialdata": {"rt": -1, "trial_type": "single-stim", "stimulus": "", "internal_node_id": "0.0-55.0-0.0", "time_elapsed": 338461, "key_press": -1, "type": "PRE_RECALL_DELAY", "trial_index": 73}, "uniqueid": "MTK3721:30IQTZXKALDCDURNCAOB597GKK50XV", "dateTime": 1520968883174}, {"current_trial": 74, "trialdata": {"rt": -1000, "trial_type": "single-audio", "stimulus": "/static/audio/400Hz.wav", "internal_node_id": "0.0-56.0", "time_elapsed": 338963, "key_press": -1, "type": "PRE_RECALL_ALERT", "trial_index": 74}, "uniqueid": "MTK3721:30IQTZXKALDCDURNCAOB597GKK50XV", "dateTime": 1520968883676}, {"current_trial": 75, "trialdata": {"rt": [4531, 7726, 11346, 13708, 15775, 17748, 25910, 28929, 31507, 34684, 36698, 39443, 42169, 44073, 46007, 47269, 50428, 52548], "recwords": ["paddle", "sister", "burgler", "mailman", "dentist", "piston", "servent", "garbage", "flipper", "twig", "pasta", "infant", "gift", "grill", "jungle", "clean", "", ""], "key_times": [2452, 3497, 3729, 3875, 3987, 4095, 4531, 6171, 6295, 6371, 6626, 6825, 6876, 7726, 8200, 8428, 8615, 8810, 9685, 9913, 10048, 11346, 12105, 12258, 12354, 12540, 12924, 13036, 13389, 13708, 13908, 14016, 14128, 14327, 14521, 14633, 14896, 15775, 16275, 16469, 16587, 16811, 16912, 17138, 17748, 24019, 24227, 24396, 24652, 24765, 24877, 25208, 25910, 26713, 26813, 26949, 27165, 27249, 27626, 27698, 28929, 29339, 29444, 29626, 29965, 30084, 31121, 31213, 31507, 31698, 32066, 32197, 32607, 34684, 35251, 35348, 35472, 35768, 35910, 36698, 37231, 37462, 37761, 37837, 37949, 38203, 39443, 41181, 41381, 41647, 41906, 42169, 42301, 42519, 42721, 43195, 43407, 44073, 44759, 44927, 45189, 45525, 45629, 45806, 46007, 46282, 46395, 46608, 46708, 46873, 47269, 50428, 52548], "trial_type": "free-recall", "conditions": [18, 1200, "a", 18000], "internal_node_id": "0.0-57.0-0.0", "key_presses": [80, 65, 68, 68, 76, 69, 13, 83, 73, 83, 84, 69, 82, 13, 66, 85, 82, 71, 76, 69, 82, 13, 77, 65, 73, 76, 77, 65, 78, 13, 68, 69, 78, 84, 73, 83, 84, 13, 80, 73, 83, 84, 79, 78, 13, 83, 69, 82, 86, 69, 78, 84, 13, 71, 65, 82, 66, 65, 71, 69, 13, 70, 76, 73, 80, 80, 69, 82, 13, 84, 87, 73, 71, 13, 80, 65, 83, 84, 65, 13, 73, 78, 70, 65, 78, 84, 13, 71, 73, 70, 84, 13, 71, 82, 73, 76, 76, 13, 74, 85, 78, 71, 76, 69, 13, 67, 76, 69, 65, 78, 13, 13, 13], "trial": 1, "time_elapsed": 398970, "type": "FREE_RECALL", "trial_index": 75}, "uniqueid": "MTK3721:30IQTZXKALDCDURNCAOB597GKK50XV", "dateTime": 1520968943686}, {"current_trial": 76, "trialdata": {"rt": 5479, "trial_type": "text", "internal_node_id": "0.0-58.0", "time_elapsed": 406457, "key_press": 13, "type": "INSTRUCTIONS", "trial_index": 76}, "uniqueid": "MTK3721:30IQTZXKALDCDURNCAOB597GKK50XV", "dateTime": 1520968951170}, {"current_trial": 77, "trialdata": {"rt": [1911, 5684, 8156, 9872, 13146, 16362, 20214, 23767], "trial_type": "math-distractor", "key_times": [1721, 1911, 5041, 5503, 5684, 7813, 7992, 8156, 9768, 9872, 11954, 12226, 13146, 16086, 16210, 16362, 19915, 20038, 20214, 23407, 23615, 23767], "responses": ["8", "18", "13", "7", "19", "12", "12", "15"], "num2": [2, 8, 6, 3, 7, 4, 5, 5, 2], "num3": [4, 4, 3, 3, 5, 1, 4, 3, 5], "conditions": [24, 1600, "a", 24000], "internal_node_id": "0.0-59.0", "key_presses": [56, 13, 49, 56, 13, 49, 51, 13, 55, 13, 49, 57, 13, 49, 50, 13, 49, 50, 13, 49, 53, 13], "trial": 2, "time_elapsed": 431467, "type": "DISTRACTOR", "trial_index": 77, "num1": [2, 6, 4, 1, 7, 7, 3, 7, 8]}, "uniqueid": "MTK3721:30IQTZXKALDCDURNCAOB597GKK50XV", "dateTime": 1520968976180}, {"current_trial": 78, "trialdata": {"rt": -1, "trial_type": "single-stim", "stimulus": "<p id=\"stim\">10</p>", "internal_node_id": "0.0-60.0-0.0", "time_elapsed": 434475, "key_press": -1, "trial_index": 78}, "uniqueid": "MTK3721:30IQTZXKALDCDURNCAOB597GKK50XV", "dateTime": 1520968979188}, {"current_trial": 79, "trialdata": {"rt": -1, "trial_type": "single-stim", "stimulus": "<p id=\"stim\">9</p>", "internal_node_id": "0.0-60.0-1.0", "time_elapsed": 435480, "key_press": -1, "trial_index": 79}, "uniqueid": "MTK3721:30IQTZXKALDCDURNCAOB597GKK50XV", "dateTime": 1520968980193}, {"current_trial": 80, "trialdata": {"rt": -1, "trial_type": "single-stim", "stimulus": "<p id=\"stim\">8</p>", "internal_node_id": "0.0-60.0-2.0", "time_elapsed": 436485, "key_press": -1, "trial_index": 80}, "uniqueid": "MTK3721:30IQTZXKALDCDURNCAOB597GKK50XV", "dateTime": 1520968981199}, {"current_trial": 81, "trialdata": {"rt": -1, "trial_type": "single-stim", "stimulus": "<p id=\"stim\">7</p>", "internal_node_id": "0.0-60.0-3.0", "time_elapsed": 437491, "key_press": -1, "trial_index": 81}, "uniqueid": "MTK3721:30IQTZXKALDCDURNCAOB597GKK50XV", "dateTime": 1520968982204}, {"current_trial": 82, "trialdata": {"rt": -1, "trial_type": "single-stim", "stimulus": "<p id=\"stim\">6</p>", "internal_node_id": "0.0-60.0-4.0", "time_elapsed": 438495, "key_press": -1, "trial_index": 82}, "uniqueid": "MTK3721:30IQTZXKALDCDURNCAOB597GKK50XV", "dateTime": 1520968983208}, {"current_trial": 83, "trialdata": {"rt": -1, "trial_type": "single-stim", "stimulus": "<p id=\"stim\">5</p>", "internal_node_id": "0.0-60.0-5.0", "time_elapsed": 439501, "key_press": -1, "trial_index": 83}, "uniqueid": "MTK3721:30IQTZXKALDCDURNCAOB597GKK50XV", "dateTime": 1520968984214}, {"current_trial": 84, "trialdata": {"rt": -1, "trial_type": "single-stim", "stimulus": "<p id=\"stim\">4</p>", "internal_node_id": "0.0-60.0-6.0", "time_elapsed": 440506, "key_press": -1, "trial_index": 84}, "uniqueid": "MTK3721:30IQTZXKALDCDURNCAOB597GKK50XV", "dateTime": 1520968985219}, {"current_trial": 85, "trialdata": {"rt": -1, "trial_type": "single-stim", "stimulus": "<p id=\"stim\">3</p>", "internal_node_id": "0.0-60.0-7.0", "time_elapsed": 441511, "key_press": -1, "trial_index": 85}, "uniqueid": "MTK3721:30IQTZXKALDCDURNCAOB597GKK50XV", "dateTime": 1520968986225}, {"current_trial": 86, "trialdata": {"rt": -1, "trial_type": "single-stim", "stimulus": "<p id=\"stim\">2</p>", "internal_node_id": "0.0-60.0-8.0", "time_elapsed": 442517, "key_press": -1, "trial_index": 86}, "uniqueid": "MTK3721:30IQTZXKALDCDURNCAOB597GKK50XV", "dateTime": 1520968987230}, {"current_trial": 87, "trialdata": {"rt": -1, "trial_type": "single-stim", "stimulus": "<p id=\"stim\">1</p>", "internal_node_id": "0.0-60.0-9.0", "time_elapsed": 443523, "key_press": -1, "trial_index": 87}, "uniqueid": "MTK3721:30IQTZXKALDCDURNCAOB597GKK50XV", "dateTime": 1520968988236}, {"current_trial": 88, "trialdata": {"rt": -1, "trial_type": "single-stim", "stimulus": "<p id=\"stim\">+</p>", "internal_node_id": "0.0-61.0-0.0", "time_elapsed": 445025, "key_press": -1, "type": "FIXATION", "trial_index": 88}, "uniqueid": "MTK3721:30IQTZXKALDCDURNCAOB597GKK50XV", "dateTime": 1520968989738}, {"current_trial": 89, "trialdata": {"rt": -1000, "trial_type": "single-audio", "word": "tile", "stimulus": "/static/audio/wordpool/TILE.wav", "conditions": [24, 1600, "a", 24000], "internal_node_id": "0.0-62.0", "trial": 2, "time_elapsed": 447770, "serialpos": 0, "key_press": -1, "wordID": 1467, "type": "PRES_AUD", "trial_index": 89}, "uniqueid": "MTK3721:30IQTZXKALDCDURNCAOB597GKK50XV", "dateTime": 1520968992483}, {"current_trial": 90, "trialdata": {"rt": -1000, "trial_type": "single-audio", "word": "barrel", "stimulus": "/static/audio/wordpool/BARREL.wav", "conditions": [24, 1600, "a", 24000], "internal_node_id": "0.0-63.0", "trial": 2, "time_elapsed": 450510, "serialpos": 1, "key_press": -1, "wordID": 90, "type": "PRES_AUD", "trial_index": 90}, "uniqueid": "MTK3721:30IQTZXKALDCDURNCAOB597GKK50XV", "dateTime": 1520968995223}, {"current_trial": 91, "trialdata": {"rt": -1000, "trial_type": "single-audio", "word": "trench", "stimulus": "/static/audio/wordpool/TRENCH.wav", "conditions": [24, 1600, "a", 24000], "internal_node_id": "0.0-64.0", "trial": 2, "time_elapsed": 453294, "serialpos": 2, "key_press": -1, "wordID": 1502, "type": "PRES_AUD", "trial_index": 91}, "uniqueid": "MTK3721:30IQTZXKALDCDURNCAOB597GKK50XV", "dateTime": 1520968998007}, {"current_trial": 92, "trialdata": {"rt": -1000, "trial_type": "single-audio", "word": "salad", "stimulus": "/static/audio/wordpool/SALAD.wav", "conditions": [24, 1600, "a", 24000], "internal_node_id": "0.0-65.0", "trial": 2, "time_elapsed": 455932, "serialpos": 3, "key_press": -1, "wordID": 1223, "type": "PRES_AUD", "trial_index": 92}, "uniqueid": "MTK3721:30IQTZXKALDCDURNCAOB597GKK50XV", "dateTime": 1520969000645}, {"current_trial": 93, "trialdata": {"rt": -1000, "trial_type": "single-audio", "word": "island", "stimulus": "/static/audio/wordpool/ISLAND.wav", "conditions": [24, 1600, "a", 24000], "internal_node_id": "0.0-66.0", "trial": 2, "time_elapsed": 458430, "serialpos": 4, "key_press": -1, "wordID": 744, "type": "PRES_AUD", "trial_index": 93}, "uniqueid": "MTK3721:30IQTZXKALDCDURNCAOB597GKK50XV", "dateTime": 1520969003143}, {"current_trial": 94, "trialdata": {"rt": -1000, "trial_type": "single-audio", "word": "crab", "stimulus": "/static/audio/wordpool/CRAB.wav", "conditions": [24, 1600, "a", 24000], "internal_node_id": "0.0-67.0", "trial": 2, "time_elapsed": 461150, "serialpos": 5, "key_press": -1, "wordID": 396, "type": "PRES_AUD", "trial_index": 94}, "uniqueid": "MTK3721:30IQTZXKALDCDURNCAOB597GKK50XV", "dateTime": 1520969005863}, {"current_trial": 95, "trialdata": {"rt": -1000, "trial_type": "single-audio", "word": "stamp", "stimulus": "/static/audio/wordpool/STAMP.wav", "conditions": [24, 1600, "a", 24000], "internal_node_id": "0.0-68.0", "trial": 2, "time_elapsed": 463641, "serialpos": 6, "key_press": -1, "wordID": 1369, "type": "PRES_AUD", "trial_index": 95}, "uniqueid": "MTK3721:30IQTZXKALDCDURNCAOB597GKK50XV", "dateTime": 1520969008354}, {"current_trial": 96, "trialdata": {"rt": -1000, "trial_type": "single-audio", "word": "rust", "stimulus": "/static/audio/wordpool/RUST.wav", "conditions": [24, 1600, "a", 24000], "internal_node_id": "0.0-69.0", "trial": 2, "time_elapsed": 466144, "serialpos": 7, "key_press": -1, "wordID": 1218, "type": "PRES_AUD", "trial_index": 96}, "uniqueid": "MTK3721:30IQTZXKALDCDURNCAOB597GKK50XV", "dateTime": 1520969010857}, {"current_trial": 97, "trialdata": {"rt": -1000, "trial_type": "single-audio", "word": "garlic", "stimulus": "/static/audio/wordpool/GARLIC.wav", "conditions": [24, 1600, "a", 24000], "internal_node_id": "0.0-70.0", "trial": 2, "time_elapsed": 468558, "serialpos": 8, "key_press": -1, "wordID": 623, "type": "PRES_AUD", "trial_index": 97}, "uniqueid": "MTK3721:30IQTZXKALDCDURNCAOB597GKK50XV", "dateTime": 1520969013271}, {"current_trial": 98, "trialdata": {"rt": -1000, "trial_type": "single-audio", "word": "space", "stimulus": "/static/audio/wordpool/SPACE.wav", "conditions": [24, 1600, "a", 24000], "internal_node_id": "0.0-71.0", "trial": 2, "time_elapsed": 471206, "serialpos": 9, "key_press": -1, "wordID": 1344, "type": "PRES_AUD", "trial_index": 98}, "uniqueid": "MTK3721:30IQTZXKALDCDURNCAOB597GKK50XV", "dateTime": 1520969015919}, {"current_trial": 99, "trialdata": {"rt": -1000, "trial_type": "single-audio", "word": "europe", "stimulus": "/static/audio/wordpool/EUROPE.wav", "conditions": [24, 1600, "a", 24000], "internal_node_id": "0.0-72.0", "trial": 2, "time_elapsed": 473708, "serialpos": 10, "key_press": -1, "wordID": 540, "type": "PRES_AUD", "trial_index": 99}, "uniqueid": "MTK3721:30IQTZXKALDCDURNCAOB597GKK50XV", "dateTime": 1520969018421}, {"current_trial": 100, "trialdata": {"rt": -1000, "trial_type": "single-audio", "word": "london", "stimulus": "/static/audio/wordpool/LONDON.wav", "conditions": [24, 1600, "a", 24000], "internal_node_id": "0.0-73.0", "trial": 2, "time_elapsed": 476424, "serialpos": 11, "key_press": -1, "wordID": 842, "type": "PRES_AUD", "trial_index": 100}, "uniqueid": "MTK3721:30IQTZXKALDCDURNCAOB597GKK50XV", "dateTime": 1520969021137}, {"current_trial": 101, "trialdata": {"rt": -1000, "trial_type": "single-audio", "word": "blouse", "stimulus": "/static/audio/wordpool/BLOUSE.wav", "conditions": [24, 1600, "a", 24000], "internal_node_id": "0.0-74.0", "trial": 2, "time_elapsed": 478963, "serialpos": 12, "key_press": -1, "wordID": 138, "type": "PRES_AUD", "trial_index": 101}, "uniqueid": "MTK3721:30IQTZXKALDCDURNCAOB597GKK50XV", "dateTime": 1520969023676}, {"current_trial": 102, "trialdata": {"rt": -1000, "trial_type": "single-audio", "word": "stone", "stimulus": "/static/audio/wordpool/STONE.wav", "conditions": [24, 1600, "a", 24000], "internal_node_id": "0.0-75.0", "trial": 2, "time_elapsed": 481515, "serialpos": 13, "key_press": -1, "wordID": 1384, "type": "PRES_AUD", "trial_index": 102}, "uniqueid": "MTK3721:30IQTZXKALDCDURNCAOB597GKK50XV", "dateTime": 1520969026228}, {"current_trial": 103, "trialdata": {"rt": -1000, "trial_type": "single-audio", "word": "creature", "stimulus": "/static/audio/wordpool/CREATURE.wav", "conditions": [24, 1600, "a", 24000], "internal_node_id": "0.0-76.0", "trial": 2, "time_elapsed": 484203, "serialpos": 14, "key_press": -1, "wordID": 402, "type": "PRES_AUD", "trial_index": 103}, "uniqueid": "MTK3721:30IQTZXKALDCDURNCAOB597GKK50XV", "dateTime": 1520969028916}, {"current_trial": 104, "trialdata": {"rt": -1000, "trial_type": "single-audio", "word": "dragon", "stimulus": "/static/audio/wordpool/DRAGON.wav", "conditions": [24, 1600, "a", 24000], "internal_node_id": "0.0-77.0", "trial": 2, "time_elapsed": 486988, "serialpos": 15, "key_press": -1, "wordID": 491, "type": "PRES_AUD", "trial_index": 104}, "uniqueid": "MTK3721:30IQTZXKALDCDURNCAOB597GKK50XV", "dateTime": 1520969031701}, {"current_trial": 105, "trialdata": {"rt": -1000, "trial_type": "single-audio", "word": "climber", "stimulus": "/static/audio/wordpool/CLIMBER.wav", "conditions": [24, 1600, "a", 24000], "internal_node_id": "0.0-78.0", "trial": 2, "time_elapsed": 489741, "serialpos": 16, "key_press": -1, "wordID": 322, "type": "PRES_AUD", "trial_index": 105}, "uniqueid": "MTK3721:30IQTZXKALDCDURNCAOB597GKK50XV", "dateTime": 1520969034454}, {"current_trial": 106, "trialdata": {"rt": -1000, "trial_type": "single-audio", "word": "spoon", "stimulus": "/static/audio/wordpool/SPOON.wav", "conditions": [24, 1600, "a", 24000], "internal_node_id": "0.0-79.0", "trial": 2, "time_elapsed": 492495, "serialpos": 17, "key_press": -1, "wordID": 1356, "type": "PRES_AUD", "trial_index": 106}, "uniqueid": "MTK3721:30IQTZXKALDCDURNCAOB597GKK50XV", "dateTime": 1520969037208}, {"current_trial": 107, "trialdata": {"rt": -1000, "trial_type": "single-audio", "word": "actress", "stimulus": "/static/audio/wordpool/ACTRESS.wav", "conditions": [24, 1600, "a", 24000], "internal_node_id": "0.0-80.0", "trial": 2, "time_elapsed": 494954, "serialpos": 18, "key_press": -1, "wordID": 5, "type": "PRES_AUD", "trial_index": 107}, "uniqueid": "MTK3721:30IQTZXKALDCDURNCAOB597GKK50XV", "dateTime": 1520969039667}, {"current_trial": 108, "trialdata": {"rt": -1000, "trial_type": "single-audio", "word": "flashlight", "stimulus": "/static/audio/wordpool/FLASHLIGHT.wav", "conditions": [24, 1600, "a", 24000], "internal_node_id": "0.0-81.0", "trial": 2, "time_elapsed": 497627, "serialpos": 19, "key_press": -1, "wordID": 574, "type": "PRES_AUD", "trial_index": 108}, "uniqueid": "MTK3721:30IQTZXKALDCDURNCAOB597GKK50XV", "dateTime": 1520969042340}, {"current_trial": 109, "trialdata": {"rt": -1000, "trial_type": "single-audio", "word": "venus", "stimulus": "/static/audio/wordpool/VENUS.wav", "conditions": [24, 1600, "a", 24000], "internal_node_id": "0.0-82.0", "trial": 2, "time_elapsed": 500178, "serialpos": 20, "key_press": -1, "wordID": 1556, "type": "PRES_AUD", "trial_index": 109}, "uniqueid": "MTK3721:30IQTZXKALDCDURNCAOB597GKK50XV", "dateTime": 1520969044891}, {"current_trial": 110, "trialdata": {"rt": -1000, "trial_type": "single-audio", "word": "actor", "stimulus": "/static/audio/wordpool/ACTOR.wav", "conditions": [24, 1600, "a", 24000], "internal_node_id": "0.0-83.0", "trial": 2, "time_elapsed": 502773, "serialpos": 21, "key_press": -1, "wordID": 4, "type": "PRES_AUD", "trial_index": 110}, "uniqueid": "MTK3721:30IQTZXKALDCDURNCAOB597GKK50XV", "dateTime": 1520969047487}, {"current_trial": 111, "trialdata": {"rt": -1000, "trial_type": "single-audio", "word": "laser", "stimulus": "/static/audio/wordpool/LASER.wav", "conditions": [24, 1600, "a", 24000], "internal_node_id": "0.0-84.0", "trial": 2, "time_elapsed": 505235, "serialpos": 22, "key_press": -1, "wordID": 800, "type": "PRES_AUD", "trial_index": 111}, "uniqueid": "MTK3721:30IQTZXKALDCDURNCAOB597GKK50XV", "dateTime": 1520969049948}, {"current_trial": 112, "trialdata": {"rt": -1000, "trial_type": "single-audio", "word": "orange", "stimulus": "/static/audio/wordpool/ORANGE.wav", "conditions": [24, 1600, "a", 24000], "internal_node_id": "0.0-85.0", "trial": 2, "time_elapsed": 507911, "serialpos": 23, "key_press": -1, "wordID": 979, "type": "PRES_AUD", "trial_index": 112}, "uniqueid": "MTK3721:30IQTZXKALDCDURNCAOB597GKK50XV", "dateTime": 1520969052624}, {"current_trial": 113, "trialdata": {"rt": -1, "trial_type": "single-stim", "stimulus": "", "internal_node_id": "0.0-86.0-0.0", "time_elapsed": 509141, "key_press": -1, "type": "PRE_RECALL_DELAY", "trial_index": 113}, "uniqueid": "MTK3721:30IQTZXKALDCDURNCAOB597GKK50XV", "dateTime": 1520969053855}, {"current_trial": 114, "trialdata": {"rt": -1000, "trial_type": "single-audio", "stimulus": "/static/audio/400Hz.wav", "internal_node_id": "0.0-87.0", "time_elapsed": 509643, "key_press": -1, "type": "PRE_RECALL_ALERT", "trial_index": 114}, "uniqueid": "MTK3721:30IQTZXKALDCDURNCAOB597GKK50XV", "dateTime": 1520969054356}, {"current_trial": 115, "trialdata": {"rt": [4044, 5319, 7695, 10009, 12400, 16498, 21279, 23081, 25293, 27605, 29140, 31117, 33141, 36699, 40115, 43981, 44917, 52397, 54060, 58925], "recwords": ["orange", "tile", "barrol", "salad", "trench", "crab", "island", "stamp", "rust", "garlic", "space", "venus", "europe", "london", "dragon", "creature", "stone", "climber", "actor", "actress"], "key_times": [2272, 2591, 2684, 2819, 2992, 3089, 4044, 4585, 4678, 4892, 5041, 5319, 5930, 6181, 6505, 6648, 6754, 7324, 7695, 8737, 8837, 8994, 9229, 9771, 10009, 10226, 10436, 10695, 10847, 11105, 11217, 12400, 13051, 13406, 13506, 13671, 16498, 19086, 19270, 19533, 19600, 19770, 19925, 21279, 21499, 21855, 21967, 22086, 22327, 23081, 24457, 24638, 24707, 25001, 25293, 25617, 25721, 25909, 26259, 26452, 26599, 27605, 28031, 28166, 28266, 28549, 28731, 29140, 29370, 29538, 29719, 29961, 30171, 31117, 31797, 32044, 32391, 32519, 32683, 32892, 33141, 33452, 33639, 33854, 34047, 34575, 34906, 36699, 38771, 39027, 39119, 39377, 39553, 39782, 40115, 40754, 41039, 41147, 41227, 41484, 41601, 41777, 41857, 43981, 44150, 44388, 44531, 44729, 44830, 44917, 47881, 48083, 48286, 48516, 48738, 48911, 49002, 52397, 52858, 53053, 53329, 53494, 53655, 54060, 54335, 54594, 54844, 55031, 55143, 55417, 55562, 58925], "trial_type": "free-recall", "conditions": [24, 1600, "a", 24000], "internal_node_id": "0.0-88.0-0.0", "key_presses": [79, 82, 65, 78, 71, 69, 13, 84, 73, 76, 69, 13, 66, 65, 82, 82, 79, 76, 13, 83, 65, 76, 65, 68, 13, 84, 82, 69, 78, 67, 72, 13, 67, 82, 65, 66, 13, 73, 83, 76, 65, 78, 68, 13, 83, 84, 65, 77, 80, 13, 82, 85, 83, 84, 13, 71, 65, 82, 76, 73, 67, 13, 83, 80, 65, 67, 69, 13, 86, 69, 78, 85, 83, 13, 69, 85, 82, 79, 80, 69, 13, 76, 79, 78, 68, 79, 78, 13, 68, 82, 65, 71, 79, 78, 13, 67, 82, 69, 65, 84, 85, 82, 69, 13, 83, 84, 79, 78, 69, 13, 67, 76, 73, 77, 66, 69, 82, 13, 65, 67, 84, 79, 82, 13, 65, 67, 84, 82, 69, 83, 83, 13], "trial": 2, "time_elapsed": 569650, "type": "FREE_RECALL", "trial_index": 115}, "uniqueid": "MTK3721:30IQTZXKALDCDURNCAOB597GKK50XV", "dateTime": 1520969114366}, {"current_trial": 116, "trialdata": {"rt": 4229, "trial_type": "text", "internal_node_id": "0.0-89.0", "time_elapsed": 575887, "key_press": 13, "type": "INSTRUCTIONS", "trial_index": 116}, "uniqueid": "MTK3721:30IQTZXKALDCDURNCAOB597GKK50XV", "dateTime": 1520969120600}, {"current_trial": 117, "trialdata": {"rt": [2743, 5739, 7629, 10119], "trial_type": "math-distractor", "key_times": [2490, 2562, 2743, 5131, 5413, 5739, 7268, 7384, 7629, 9788, 9912, 10119], "responses": ["13", "19", "12", "24"], "num2": [8, 6, 9, 8, 7], "num3": [2, 7, 2, 8, 3], "conditions": [12, 800, "a", 12000], "internal_node_id": "0.0-90.0", "key_presses": [49, 51, 13, 49, 57, 13, 49, 50, 13, 50, 52, 13], "trial": 3, "time_elapsed": 589895, "type": "DISTRACTOR", "trial_index": 117, "num1": [3, 6, 1, 8, 4]}, "uniqueid": "MTK3721:30IQTZXKALDCDURNCAOB597GKK50XV", "dateTime": 1520969134608}, {"current_trial": 118, "trialdata": {"rt": -1, "trial_type": "single-stim", "stimulus": "<p id=\"stim\">10</p>", "internal_node_id": "0.0-91.0-0.0", "time_elapsed": 592901, "key_press": -1, "trial_index": 118}, "uniqueid": "MTK3721:30IQTZXKALDCDURNCAOB597GKK50XV", "dateTime": 1520969137614}, {"current_trial": 119, "trialdata": {"rt": -1, "trial_type": "single-stim", "stimulus": "<p id=\"stim\">9</p>", "internal_node_id": "0.0-91.0-1.0", "time_elapsed": 593906, "key_press": -1, "trial_index": 119}, "uniqueid": "MTK3721:30IQTZXKALDCDURNCAOB597GKK50XV", "dateTime": 1520969138619}, {"current_trial": 120, "trialdata": {"rt": -1, "trial_type": "single-stim", "stimulus": "<p id=\"stim\">8</p>", "internal_node_id": "0.0-91.0-2.0", "time_elapsed": 594912, "key_press": -1, "trial_index": 120}, "uniqueid": "MTK3721:30IQTZXKALDCDURNCAOB597GKK50XV", "dateTime": 1520969139625}, {"current_trial": 121, "trialdata": {"rt": -1, "trial_type": "single-stim", "stimulus": "<p id=\"stim\">7</p>", "internal_node_id": "0.0-91.0-3.0", "time_elapsed": 595918, "key_press": -1, "trial_index": 121}, "uniqueid": "MTK3721:30IQTZXKALDCDURNCAOB597GKK50XV", "dateTime": 1520969140631}, {"current_trial": 122, "trialdata": {"rt": -1, "trial_type": "single-stim", "stimulus": "<p id=\"stim\">6</p>", "internal_node_id": "0.0-91.0-4.0", "time_elapsed": 596923, "key_press": -1, "trial_index": 122}, "uniqueid": "MTK3721:30IQTZXKALDCDURNCAOB597GKK50XV", "dateTime": 1520969141637}, {"current_trial": 123, "trialdata": {"rt": -1, "trial_type": "single-stim", "stimulus": "<p id=\"stim\">5</p>", "internal_node_id": "0.0-91.0-5.0", "time_elapsed": 597929, "key_press": -1, "trial_index": 123}, "uniqueid": "MTK3721:30IQTZXKALDCDURNCAOB597GKK50XV", "dateTime": 1520969142642}, {"current_trial": 124, "trialdata": {"rt": -1, "trial_type": "single-stim", "stimulus": "<p id=\"stim\">4</p>", "internal_node_id": "0.0-91.0-6.0", "time_elapsed": 598934, "key_press": -1, "trial_index": 124}, "uniqueid": "MTK3721:30IQTZXKALDCDURNCAOB597GKK50XV", "dateTime": 1520969143647}, {"current_trial": 125, "trialdata": {"rt": -1, "trial_type": "single-stim", "stimulus": "<p id=\"stim\">3</p>", "internal_node_id": "0.0-91.0-7.0", "time_elapsed": 599939, "key_press": -1, "trial_index": 125}, "uniqueid": "MTK3721:30IQTZXKALDCDURNCAOB597GKK50XV", "dateTime": 1520969144652}, {"current_trial": 126, "trialdata": {"rt": -1, "trial_type": "single-stim", "stimulus": "<p id=\"stim\">2</p>", "internal_node_id": "0.0-91.0-8.0", "time_elapsed": 600945, "key_press": -1, "trial_index": 126}, "uniqueid": "MTK3721:30IQTZXKALDCDURNCAOB597GKK50XV", "dateTime": 1520969145658}, {"current_trial": 127, "trialdata": {"rt": -1, "trial_type": "single-stim", "stimulus": "<p id=\"stim\">1</p>", "internal_node_id": "0.0-91.0-9.0", "time_elapsed": 601951, "key_press": -1, "trial_index": 127}, "uniqueid": "MTK3721:30IQTZXKALDCDURNCAOB597GKK50XV", "dateTime": 1520969146664}, {"current_trial": 128, "trialdata": {"rt": -1, "trial_type": "single-stim", "stimulus": "<p id=\"stim\">+</p>", "internal_node_id": "0.0-92.0-0.0", "time_elapsed": 603453, "key_press": -1, "type": "FIXATION", "trial_index": 128}, "uniqueid": "MTK3721:30IQTZXKALDCDURNCAOB597GKK50XV", "dateTime": 1520969148166}, {"current_trial": 129, "trialdata": {"rt": -1000, "trial_type": "single-audio", "word": "jury", "stimulus": "/static/audio/wordpool/JURY.wav", "conditions": [12, 800, "a", 12000], "internal_node_id": "0.0-93.0", "trial": 3, "time_elapsed": 605323, "serialpos": 0, "key_press": -1, "wordID": 765, "type": "PRES_AUD", "trial_index": 129}, "uniqueid": "MTK3721:30IQTZXKALDCDURNCAOB597GKK50XV", "dateTime": 1520969150036}, {"current_trial": 130, "trialdata": {"rt": -1000, "trial_type": "single-audio", "word": "braces", "stimulus": "/static/audio/wordpool/BRACES.wav", "conditions": [12, 800, "a", 12000], "internal_node_id": "0.0-94.0", "trial": 3, "time_elapsed": 607244, "serialpos": 1, "key_press": -1, "wordID": 163, "type": "PRES_AUD", "trial_index": 130}, "uniqueid": "MTK3721:30IQTZXKALDCDURNCAOB597GKK50XV", "dateTime": 1520969151958}, {"current_trial": 131, "trialdata": {"rt": -1000, "trial_type": "single-audio", "word": "scissors", "stimulus": "/static/audio/wordpool/SCISSORS.wav", "conditions": [12, 800, "a", 12000], "internal_node_id": "0.0-95.0", "trial": 3, "time_elapsed": 608964, "serialpos": 2, "key_press": -1, "wordID": 1249, "type": "PRES_AUD", "trial_index": 131}, "uniqueid": "MTK3721:30IQTZXKALDCDURNCAOB597GKK50XV", "dateTime": 1520969153677}, {"current_trial": 132, "trialdata": {"rt": -1000, "trial_type": "single-audio", "word": "camel", "stimulus": "/static/audio/wordpool/CAMEL.wav", "conditions": [12, 800, "a", 12000], "internal_node_id": "0.0-96.0", "trial": 3, "time_elapsed": 610966, "serialpos": 3, "key_press": -1, "wordID": 222, "type": "PRES_AUD", "trial_index": 132}, "uniqueid": "MTK3721:30IQTZXKALDCDURNCAOB597GKK50XV", "dateTime": 1520969155679}, {"current_trial": 133, "trialdata": {"rt": -1000, "trial_type": "single-audio", "word": "briefcase", "stimulus": "/static/audio/wordpool/BRIEFCASE.wav", "conditions": [12, 800, "a", 12000], "internal_node_id": "0.0-97.0", "trial": 3, "time_elapsed": 612812, "serialpos": 4, "key_press": -1, "wordID": 174, "type": "PRES_AUD", "trial_index": 133}, "uniqueid": "MTK3721:30IQTZXKALDCDURNCAOB597GKK50XV", "dateTime": 1520969157525}, {"current_trial": 134, "trialdata": {"rt": -1000, "trial_type": "single-audio", "word": "cashew", "stimulus": "/static/audio/wordpool/CASHEW.wav", "conditions": [12, 800, "a", 12000], "internal_node_id": "0.0-98.0", "trial": 3, "time_elapsed": 614587, "serialpos": 5, "key_press": -1, "wordID": 252, "type": "PRES_AUD", "trial_index": 134}, "uniqueid": "MTK3721:30IQTZXKALDCDURNCAOB597GKK50XV", "dateTime": 1520969159301}, {"current_trial": 135, "trialdata": {"rt": -1000, "trial_type": "single-audio", "word": "sunrise", "stimulus": "/static/audio/wordpool/SUNRISE.wav", "conditions": [12, 800, "a", 12000], "internal_node_id": "0.0-99.0", "trial": 3, "time_elapsed": 616527, "serialpos": 6, "key_press": -1, "wordID": 1406, "type": "PRES_AUD", "trial_index": 135}, "uniqueid": "MTK3721:30IQTZXKALDCDURNCAOB597GKK50XV", "dateTime": 1520969161240}, {"current_trial": 136, "trialdata": {"rt": -1000, "trial_type": "single-audio", "word": "knapsack", "stimulus": "/static/audio/wordpool/KNAPSACK.wav", "conditions": [12, 800, "a", 12000], "internal_node_id": "0.0-100.0", "trial": 3, "time_elapsed": 618489, "serialpos": 7, "key_press": -1, "wordID": 782, "type": "PRES_AUD", "trial_index": 136}, "uniqueid": "MTK3721:30IQTZXKALDCDURNCAOB597GKK50XV", "dateTime": 1520969163202}, {"current_trial": 137, "trialdata": {"rt": -1000, "trial_type": "single-audio", "word": "hound", "stimulus": "/static/audio/wordpool/HOUND.wav", "conditions": [12, 800, "a", 12000], "internal_node_id": "0.0-101.0", "trial": 3, "time_elapsed": 620109, "serialpos": 8, "key_press": -1, "wordID": 723, "type": "PRES_AUD", "trial_index": 137}, "uniqueid": "MTK3721:30IQTZXKALDCDURNCAOB597GKK50XV", "dateTime": 1520969164822}, {"current_trial": 138, "trialdata": {"rt": -1000, "trial_type": "single-audio", "word": "widow", "stimulus": "/static/audio/wordpool/WIDOW.wav", "conditions": [12, 800, "a", 12000], "internal_node_id": "0.0-102.0", "trial": 3, "time_elapsed": 621729, "serialpos": 9, "key_press": -1, "wordID": 1607, "type": "PRES_AUD", "trial_index": 138}, "uniqueid": "MTK3721:30IQTZXKALDCDURNCAOB597GKK50XV", "dateTime": 1520969166442}, {"current_trial": 139, "trialdata": {"rt": -1000, "trial_type": "single-audio", "word": "uncle", "stimulus": "/static/audio/wordpool/UNCLE.wav", "conditions": [12, 800, "a", 12000], "internal_node_id": "0.0-103.0", "trial": 3, "time_elapsed": 623621, "serialpos": 10, "key_press": -1, "wordID": 1535, "type": "PRES_AUD", "trial_index": 139}, "uniqueid": "MTK3721:30IQTZXKALDCDURNCAOB597GKK50XV", "dateTime": 1520969168334}, {"current_trial": 140, "trialdata": {"rt": -1000, "trial_type": "single-audio", "word": "pork", "stimulus": "/static/audio/wordpool/PORK.wav", "conditions": [12, 800, "a", 12000], "internal_node_id": "0.0-104.0", "trial": 3, "time_elapsed": 625443, "serialpos": 11, "key_press": -1, "wordID": 1107, "type": "PRES_AUD", "trial_index": 140}, "uniqueid": "MTK3721:30IQTZXKALDCDURNCAOB597GKK50XV", "dateTime": 1520969170156}, {"current_trial": 141, "trialdata": {"rt": -1, "trial_type": "single-stim", "stimulus": "", "internal_node_id": "0.0-105.0-0.0", "time_elapsed": 626720, "key_press": -1, "type": "PRE_RECALL_DELAY", "trial_index": 141}, "uniqueid": "MTK3721:30IQTZXKALDCDURNCAOB597GKK50XV", "dateTime": 1520969171433}, {"current_trial": 142, "trialdata": {"rt": -1000, "trial_type": "single-audio", "stimulus": "/static/audio/400Hz.wav", "internal_node_id": "0.0-106.0", "time_elapsed": 627223, "key_press": -1, "type": "PRE_RECALL_ALERT", "trial_index": 142}, "uniqueid": "MTK3721:30IQTZXKALDCDURNCAOB597GKK50XV", "dateTime": 1520969171936}, {"current_trial": 143, "trialdata": {"rt": [3274, 5664, 7936, 10256, 12563, 15065, 16871, 20194, 22354, 25202, 27347, 28742, 29139, 38803, 55159, 56268, 56501], "recwords": ["widow", "uncle", "pork", "hound", "napsack", "sunrise", "cashew", "breafcase", "camel", "scissors", "braces", "jury", "", "", "", "", ""], "key_times": [1925, 2034, 2267, 2421, 3132, 3274, 4496, 4691, 4910, 5038, 5190, 5664, 6276, 6395, 6769, 7425, 7936, 8490, 8739, 8884, 9146, 9279, 10256, 10809, 10999, 11170, 11311, 11431, 11727, 12052, 12563, 13036, 13185, 13418, 13989, 14124, 14223, 14416, 15065, 15530, 15658, 15814, 16037, 16385, 16748, 16871, 18165, 18392, 18451, 18587, 18743, 18998, 19090, 19318, 19576, 20194, 20575, 20661, 21173, 21301, 21648, 22354, 23110, 23328, 23566, 23740, 23890, 23994, 24244, 24431, 25202, 25706, 25919, 25942, 26223, 26371, 26594, 27347, 27847, 28033, 28197, 28411, 28742, 29139, 38803, 55159, 56268, 56501], "trial_type": "free-recall", "conditions": [12, 800, "a", 12000], "internal_node_id": "0.0-107.0-0.0", "key_presses": [87, 73, 68, 79, 87, 32, 85, 78, 67, 76, 69, 13, 80, 79, 82, 75, 13, 72, 79, 85, 78, 68, 13, 78, 65, 80, 83, 65, 67, 75, 13, 83, 85, 78, 82, 73, 83, 69, 13, 67, 65, 83, 72, 69, 87, 13, 66, 82, 69, 65, 70, 67, 65, 83, 69, 13, 67, 65, 77, 69, 76, 13, 83, 67, 73, 83, 83, 79, 82, 83, 13, 66, 82, 65, 67, 69, 83, 13, 74, 85, 82, 89, 13, 13, 13, 13, 13, 13], "trial": 3, "time_elapsed": 687230, "type": "FREE_RECALL", "trial_index": 143}, "uniqueid": "MTK3721:30IQTZXKALDCDURNCAOB597GKK50XV", "dateTime": 1520969231946}, {"current_trial": 144, "trialdata": {"rt": 10645, "trial_type": "text", "internal_node_id": "0.0-108.0", "time_elapsed": 699879, "key_press": 13, "type": "INSTRUCTIONS", "trial_index": 144}, "uniqueid": "MTK3721:30IQTZXKALDCDURNCAOB597GKK50XV", "dateTime": 1520969244592}, {"current_trial": 145, "trialdata": {"rt": [2829, 6464, 11451, 13981, 18758, 21746], "trial_type": "math-distractor", "key_times": [2332, 2410, 2829, 5878, 6238, 6464, 10960, 11294, 11451, 13661, 13809, 13981, 18044, 18579, 18758, 21351, 21482, 21746], "responses": ["12", "15", "26", "12", "10", "12"], "num2": [6, 3, 8, 4, 5, 2, 4], "num3": [1, 8, 9, 3, 2, 4, 8], "conditions": [24, 800, "a", 24000], "internal_node_id": "0.0-109.0", "key_presses": [49, 50, 13, 49, 53, 13, 50, 54, 13, 49, 50, 13, 49, 48, 13, 49, 50, 13], "trial": 4, "time_elapsed": 725891, "type": "DISTRACTOR", "trial_index": 145, "num1": [5, 4, 9, 5, 3, 6, 3]}, "uniqueid": "MTK3721:30IQTZXKALDCDURNCAOB597GKK50XV", "dateTime": 1520969270604}, {"current_trial": 146, "trialdata": {"rt": -1, "trial_type": "single-stim", "stimulus": "<p id=\"stim\">10</p>", "internal_node_id": "0.0-110.0-0.0", "time_elapsed": 728896, "key_press": -1, "trial_index": 146}, "uniqueid": "MTK3721:30IQTZXKALDCDURNCAOB597GKK50XV", "dateTime": 1520969273609}, {"current_trial": 147, "trialdata": {"rt": -1, "trial_type": "single-stim", "stimulus": "<p id=\"stim\">9</p>", "internal_node_id": "0.0-110.0-1.0", "time_elapsed": 729898, "key_press": -1, "trial_index": 147}, "uniqueid": "MTK3721:30IQTZXKALDCDURNCAOB597GKK50XV", "dateTime": 1520969274611}, {"current_trial": 148, "trialdata": {"rt": -1, "trial_type": "single-stim", "stimulus": "<p id=\"stim\">8</p>", "internal_node_id": "0.0-110.0-2.0", "time_elapsed": 730899, "key_press": -1, "trial_index": 148}, "uniqueid": "MTK3721:30IQTZXKALDCDURNCAOB597GKK50XV", "dateTime": 1520969275612}, {"current_trial": 149, "trialdata": {"rt": -1, "trial_type": "single-stim", "stimulus": "<p id=\"stim\">7</p>", "internal_node_id": "0.0-110.0-3.0", "time_elapsed": 731903, "key_press": -1, "trial_index": 149}, "uniqueid": "MTK3721:30IQTZXKALDCDURNCAOB597GKK50XV", "dateTime": 1520969276616}, {"current_trial": 150, "trialdata": {"rt": -1, "trial_type": "single-stim", "stimulus": "<p id=\"stim\">6</p>", "internal_node_id": "0.0-110.0-4.0", "time_elapsed": 732907, "key_press": -1, "trial_index": 150}, "uniqueid": "MTK3721:30IQTZXKALDCDURNCAOB597GKK50XV", "dateTime": 1520969277621}, {"current_trial": 151, "trialdata": {"rt": -1, "trial_type": "single-stim", "stimulus": "<p id=\"stim\">5</p>", "internal_node_id": "0.0-110.0-5.0", "time_elapsed": 733911, "key_press": -1, "trial_index": 151}, "uniqueid": "MTK3721:30IQTZXKALDCDURNCAOB597GKK50XV", "dateTime": 1520969278624}, {"current_trial": 152, "trialdata": {"rt": -1, "trial_type": "single-stim", "stimulus": "<p id=\"stim\">4</p>", "internal_node_id": "0.0-110.0-6.0", "time_elapsed": 734915, "key_press": -1, "trial_index": 152}, "uniqueid": "MTK3721:30IQTZXKALDCDURNCAOB597GKK50XV", "dateTime": 1520969279628}, {"current_trial": 153, "trialdata": {"rt": -1, "trial_type": "single-stim", "stimulus": "<p id=\"stim\">3</p>", "internal_node_id": "0.0-110.0-7.0", "time_elapsed": 735919, "key_press": -1, "trial_index": 153}, "uniqueid": "MTK3721:30IQTZXKALDCDURNCAOB597GKK50XV", "dateTime": 1520969280632}, {"current_trial": 154, "trialdata": {"rt": -1, "trial_type": "single-stim", "stimulus": "<p id=\"stim\">2</p>", "internal_node_id": "0.0-110.0-8.0", "time_elapsed": 736923, "key_press": -1, "trial_index": 154}, "uniqueid": "MTK3721:30IQTZXKALDCDURNCAOB597GKK50XV", "dateTime": 1520969281637}, {"current_trial": 155, "trialdata": {"rt": -1, "trial_type": "single-stim", "stimulus": "<p id=\"stim\">1</p>", "internal_node_id": "0.0-110.0-9.0", "time_elapsed": 737928, "key_press": -1, "trial_index": 155}, "uniqueid": "MTK3721:30IQTZXKALDCDURNCAOB597GKK50XV", "dateTime": 1520969282642}, {"current_trial": 156, "trialdata": {"rt": -1, "trial_type": "single-stim", "stimulus": "<p id=\"stim\">+</p>", "internal_node_id": "0.0-111.0-0.0", "time_elapsed": 739431, "key_press": -1, "type": "FIXATION", "trial_index": 156}, "uniqueid": "MTK3721:30IQTZXKALDCDURNCAOB597GKK50XV", "dateTime": 1520969284144}, {"current_trial": 157, "trialdata": {"rt": -1000, "trial_type": "single-audio", "word": "suspect", "stimulus": "/static/audio/wordpool/SUSPECT.wav", "conditions": [24, 800, "a", 24000], "internal_node_id": "0.0-112.0", "trial": 4, "time_elapsed": 741306, "serialpos": 0, "key_press": -1, "wordID": 1414, "type": "PRES_AUD", "trial_index": 157}, "uniqueid": "MTK3721:30IQTZXKALDCDURNCAOB597GKK50XV", "dateTime": 1520969286019}, {"current_trial": 158, "trialdata": {"rt": -1000, "trial_type": "single-audio", "word": "robber", "stimulus": "/static/audio/wordpool/ROBBER.wav", "conditions": [24, 800, "a", 24000], "internal_node_id": "0.0-113.0", "trial": 4, "time_elapsed": 743059, "serialpos": 1, "key_press": -1, "wordID": 1196, "type": "PRES_AUD", "trial_index": 158}, "uniqueid": "MTK3721:30IQTZXKALDCDURNCAOB597GKK50XV", "dateTime": 1520969287773}, {"current_trial": 159, "trialdata": {"rt": -1000, "trial_type": "single-audio", "word": "parrot", "stimulus": "/static/audio/wordpool/PARROT.wav", "conditions": [24, 800, "a", 24000], "internal_node_id": "0.0-114.0", "trial": 4, "time_elapsed": 745010, "serialpos": 2, "key_press": -1, "wordID": 1014, "type": "PRES_AUD", "trial_index": 159}, "uniqueid": "MTK3721:30IQTZXKALDCDURNCAOB597GKK50XV", "dateTime": 1520969289723}, {"current_trial": 160, "trialdata": {"rt": -1000, "trial_type": "single-audio", "word": "dresser", "stimulus": "/static/audio/wordpool/DRESSER.wav", "conditions": [24, 800, "a", 24000], "internal_node_id": "0.0-115.0", "trial": 4, "time_elapsed": 746960, "serialpos": 3, "key_press": -1, "wordID": 495, "type": "PRES_AUD", "trial_index": 160}, "uniqueid": "MTK3721:30IQTZXKALDCDURNCAOB597GKK50XV", "dateTime": 1520969291674}, {"current_trial": 161, "trialdata": {"rt": -1000, "trial_type": "single-audio", "word": "perfume", "stimulus": "/static/audio/wordpool/PERFUME.wav", "conditions": [24, 800, "a", 24000], "internal_node_id": "0.0-116.0", "trial": 4, "time_elapsed": 748632, "serialpos": 4, "key_press": -1, "wordID": 1048, "type": "PRES_AUD", "trial_index": 161}, "uniqueid": "MTK3721:30IQTZXKALDCDURNCAOB597GKK50XV", "dateTime": 1520969293345}, {"current_trial": 162, "trialdata": {"rt": -1000, "trial_type": "single-audio", "word": "turtle", "stimulus": "/static/audio/wordpool/TURTLE.wav", "conditions": [24, 800, "a", 24000], "internal_node_id": "0.0-117.0", "trial": 4, "time_elapsed": 750298, "serialpos": 5, "key_press": -1, "wordID": 1521, "type": "PRES_AUD", "trial_index": 162}, "uniqueid": "MTK3721:30IQTZXKALDCDURNCAOB597GKK50XV", "dateTime": 1520969295011}, {"current_trial": 163, "trialdata": {"rt": -1000, "trial_type": "single-audio", "word": "helmet", "stimulus": "/static/audio/wordpool/HELMET.wav", "conditions": [24, 800, "a", 24000], "internal_node_id": "0.0-118.0", "trial": 4, "time_elapsed": 752005, "serialpos": 6, "key_press": -1, "wordID": 701, "type": "PRES_AUD", "trial_index": 163}, "uniqueid": "MTK3721:30IQTZXKALDCDURNCAOB597GKK50XV", "dateTime": 1520969296718}, {"current_trial": 164, "trialdata": {"rt": -1000, "trial_type": "single-audio", "word": "barley", "stimulus": "/static/audio/wordpool/BARLEY.wav", "conditions": [24, 800, "a", 24000], "internal_node_id": "0.0-119.0", "trial": 4, "time_elapsed": 753705, "serialpos": 7, "key_press": -1, "wordID": 87, "type": "PRES_AUD", "trial_index": 164}, "uniqueid": "MTK3721:30IQTZXKALDCDURNCAOB597GKK50XV", "dateTime": 1520969298418}, {"current_trial": 165, "trialdata": {"rt": -1000, "trial_type": "single-audio", "word": "army", "stimulus": "/static/audio/wordpool/ARMY.wav", "conditions": [24, 800, "a", 24000], "internal_node_id": "0.0-120.0", "trial": 4, "time_elapsed": 755633, "serialpos": 8, "key_press": -1, "wordID": 38, "type": "PRES_AUD", "trial_index": 165}, "uniqueid": "MTK3721:30IQTZXKALDCDURNCAOB597GKK50XV", "dateTime": 1520969300346}, {"current_trial": 166, "trialdata": {"rt": -1000, "trial_type": "single-audio", "word": "sticker", "stimulus": "/static/audio/wordpool/STICKER.wav", "conditions": [24, 800, "a", 24000], "internal_node_id": "0.0-121.0", "trial": 4, "time_elapsed": 757357, "serialpos": 9, "key_press": -1, "wordID": 1381, "type": "PRES_AUD", "trial_index": 166}, "uniqueid": "MTK3721:30IQTZXKALDCDURNCAOB597GKK50XV", "dateTime": 1520969302070}, {"current_trial": 167, "trialdata": {"rt": -1000, "trial_type": "single-audio", "word": "snake", "stimulus": "/static/audio/wordpool/SNAKE.wav", "conditions": [24, 800, "a", 24000], "internal_node_id": "0.0-122.0", "trial": 4, "time_elapsed": 759122, "serialpos": 10, "key_press": -1, "wordID": 1332, "type": "PRES_AUD", "trial_index": 167}, "uniqueid": "MTK3721:30IQTZXKALDCDURNCAOB597GKK50XV", "dateTime": 1520969303835}, {"current_trial": 168, "trialdata": {"rt": -1000, "trial_type": "single-audio", "word": "shovel", "stimulus": "/static/audio/wordpool/SHOVEL.wav", "conditions": [24, 800, "a", 24000], "internal_node_id": "0.0-123.0", "trial": 4, "time_elapsed": 760817, "serialpos": 11, "key_press": -1, "wordID": 1294, "type": "PRES_AUD", "trial_index": 168}, "uniqueid": "MTK3721:30IQTZXKALDCDURNCAOB597GKK50XV", "dateTime": 1520969305530}, {"current_trial": 169, "trialdata": {"rt": -1000, "trial_type": "single-audio", "word": "scarecrow", "stimulus": "/static/audio/wordpool/SCARECROW.wav", "conditions": [24, 800, "a", 24000], "internal_node_id": "0.0-124.0", "trial": 4, "time_elapsed": 762506, "serialpos": 12, "key_press": -1, "wordID": 1244, "type": "PRES_AUD", "trial_index": 169}, "uniqueid": "MTK3721:30IQTZXKALDCDURNCAOB597GKK50XV", "dateTime": 1520969307219}, {"current_trial": 170, "trialdata": {"rt": -1000, "trial_type": "single-audio", "word": "chapel", "stimulus": "/static/audio/wordpool/CHAPEL.wav", "conditions": [24, 800, "a", 24000], "internal_node_id": "0.0-125.0", "trial": 4, "time_elapsed": 764492, "serialpos": 13, "key_press": -1, "wordID": 279, "type": "PRES_AUD", "trial_index": 170}, "uniqueid": "MTK3721:30IQTZXKALDCDURNCAOB597GKK50XV", "dateTime": 1520969309206}, {"current_trial": 171, "trialdata": {"rt": -1000, "trial_type": "single-audio", "word": "mattress", "stimulus": "/static/audio/wordpool/MATTRESS.wav", "conditions": [24, 800, "a", 24000], "internal_node_id": "0.0-126.0", "trial": 4, "time_elapsed": 766450, "serialpos": 14, "key_press": -1, "wordID": 878, "type": "PRES_AUD", "trial_index": 171}, "uniqueid": "MTK3721:30IQTZXKALDCDURNCAOB597GKK50XV", "dateTime": 1520969311163}, {"current_trial": 172, "trialdata": {"rt": -1000, "trial_type": "single-audio", "word": "whiskers", "stimulus": "/static/audio/wordpool/WHISKERS.wav", "conditions": [24, 800, "a", 24000], "internal_node_id": "0.0-127.0", "trial": 4, "time_elapsed": 768404, "serialpos": 15, "key_press": -1, "wordID": 1604, "type": "PRES_AUD", "trial_index": 172}, "uniqueid": "MTK3721:30IQTZXKALDCDURNCAOB597GKK50XV", "dateTime": 1520969313117}, {"current_trial": 173, "trialdata": {"rt": -1000, "trial_type": "single-audio", "word": "pistol", "stimulus": "/static/audio/wordpool/PISTOL.wav", "conditions": [24, 800, "a", 24000], "internal_node_id": "0.0-128.0", "trial": 4, "time_elapsed": 770093, "serialpos": 16, "key_press": -1, "wordID": 1074, "type": "PRES_AUD", "trial_index": 173}, "uniqueid": "MTK3721:30IQTZXKALDCDURNCAOB597GKK50XV", "dateTime": 1520969314806}, {"current_trial": 174, "trialdata": {"rt": -1000, "trial_type": "single-audio", "word": "knife", "stimulus": "/static/audio/wordpool/KNIFE.wav", "conditions": [24, 800, "a", 24000], "internal_node_id": "0.0-129.0", "trial": 4, "time_elapsed": 772058, "serialpos": 17, "key_press": -1, "wordID": 784, "type": "PRES_AUD", "trial_index": 174}, "uniqueid": "MTK3721:30IQTZXKALDCDURNCAOB597GKK50XV", "dateTime": 1520969316771}, {"current_trial": 175, "trialdata": {"rt": -1000, "trial_type": "single-audio", "word": "victim", "stimulus": "/static/audio/wordpool/VICTIM.wav", "conditions": [24, 800, "a", 24000], "internal_node_id": "0.0-130.0", "trial": 4, "time_elapsed": 774023, "serialpos": 18, "key_press": -1, "wordID": 1561, "type": "PRES_AUD", "trial_index": 175}, "uniqueid": "MTK3721:30IQTZXKALDCDURNCAOB597GKK50XV", "dateTime": 1520969318737}, {"current_trial": 176, "trialdata": {"rt": -1000, "trial_type": "single-audio", "word": "ghetto", "stimulus": "/static/audio/wordpool/GHETTO.wav", "conditions": [24, 800, "a", 24000], "internal_node_id": "0.0-131.0", "trial": 4, "time_elapsed": 775857, "serialpos": 19, "key_press": -1, "wordID": 632, "type": "PRES_AUD", "trial_index": 176}, "uniqueid": "MTK3721:30IQTZXKALDCDURNCAOB597GKK50XV", "dateTime": 1520969320570}, {"current_trial": 177, "trialdata": {"rt": -1000, "trial_type": "single-audio", "word": "church", "stimulus": "/static/audio/wordpool/CHURCH.wav", "conditions": [24, 800, "a", 24000], "internal_node_id": "0.0-132.0", "trial": 4, "time_elapsed": 777576, "serialpos": 20, "key_press": -1, "wordID": 306, "type": "PRES_AUD", "trial_index": 177}, "uniqueid": "MTK3721:30IQTZXKALDCDURNCAOB597GKK50XV", "dateTime": 1520969322289}, {"current_trial": 178, "trialdata": {"rt": -1000, "trial_type": "single-audio", "word": "brother", "stimulus": "/static/audio/wordpool/BROTHER.wav", "conditions": [24, 800, "a", 24000], "internal_node_id": "0.0-133.0", "trial": 4, "time_elapsed": 779294, "serialpos": 21, "key_press": -1, "wordID": 178, "type": "PRES_AUD", "trial_index": 178}, "uniqueid": "MTK3721:30IQTZXKALDCDURNCAOB597GKK50XV", "dateTime": 1520969324008}, {"current_trial": 179, "trialdata": {"rt": -1000, "trial_type": "single-audio", "word": "denim", "stimulus": "/static/audio/wordpool/DENIM.wav", "conditions": [24, 800, "a", 24000], "internal_node_id": "0.0-134.0", "trial": 4, "time_elapsed": 780989, "serialpos": 22, "key_press": -1, "wordID": 445, "type": "PRES_AUD", "trial_index": 179}, "uniqueid": "MTK3721:30IQTZXKALDCDURNCAOB597GKK50XV", "dateTime": 1520969325702}, {"current_trial": 180, "trialdata": {"rt": -1000, "trial_type": "single-audio", "word": "costume", "stimulus": "/static/audio/wordpool/COSTUME.wav", "conditions": [24, 800, "a", 24000], "internal_node_id": "0.0-135.0", "trial": 4, "time_elapsed": 782693, "serialpos": 23, "key_press": -1, "wordID": 382, "type": "PRES_AUD", "trial_index": 180}, "uniqueid": "MTK3721:30IQTZXKALDCDURNCAOB597GKK50XV", "dateTime": 1520969327406}, {"current_trial": 181, "trialdata": {"rt": -1, "trial_type": "single-stim", "stimulus": "", "internal_node_id": "0.0-136.0-0.0", "time_elapsed": 784039, "key_press": -1, "type": "PRE_RECALL_DELAY", "trial_index": 181}, "uniqueid": "MTK3721:30IQTZXKALDCDURNCAOB597GKK50XV", "dateTime": 1520969328752}, {"current_trial": 182, "trialdata": {"rt": -1000, "trial_type": "single-audio", "stimulus": "/static/audio/400Hz.wav", "internal_node_id": "0.0-137.0", "time_elapsed": 784542, "key_press": -1, "type": "PRE_RECALL_ALERT", "trial_index": 182}, "uniqueid": "MTK3721:30IQTZXKALDCDURNCAOB597GKK50XV", "dateTime": 1520969329255}, {"current_trial": 183, "trialdata": {"rt": [6094, 8367, 11232, 12883, 15306, 17940, 21506, 23630, 26900, 28414, 31607, 33555, 35821, 38046, 40687, 42626, 44364, 46439, 49761, 53196], "recwords": ["costume", "brother", "church", "gehto", "victom", "knife", "pistol", "suspect", "robber", "parrot", "dressor", "perfume", "turtle", "helmet", "barley", "sticker", "snake", "shovel", "scarecrow", "matress"], "key_times": [3042, 3236, 3370, 3649, 3778, 4078, 4202, 6094, 6570, 6775, 6898, 7048, 7125, 7253, 7361, 8367, 8772, 8976, 9164, 9304, 9563, 9740, 11232, 11429, 11529, 11723, 11881, 12149, 12883, 13570, 13738, 13957, 14361, 14486, 14766, 15306, 16820, 16990, 17315, 17550, 17667, 17940, 18822, 19006, 19130, 19317, 19426, 19738, 21506, 21854, 21950, 22050, 22371, 22592, 22831, 23239, 23630, 24074, 24284, 24688, 25268, 25446, 25549, 26900, 27285, 27406, 27598, 27740, 27853, 28025, 28414, 29116, 29585, 29741, 29921, 30052, 30257, 30415, 30541, 30736, 31607, 32081, 32236, 32333, 32604, 32728, 32981, 33275, 33555, 34126, 34255, 34568, 34881, 35031, 35182, 35821, 36388, 36589, 36764, 36975, 37075, 37386, 38046, 38432, 38552, 38716, 38911, 39074, 39367, 40687, 40883, 41120, 41253, 41467, 41678, 41794, 41854, 42626, 42924, 43138, 43342, 43604, 43737, 44364, 44603, 44885, 45117, 45336, 45440, 45608, 46439, 46979, 47181, 47261, 47606, 47690, 48025, 48285, 48392, 48591, 49761, 50455, 50551, 50827, 51087, 51269, 51509, 51635, 53196], "trial_type": "free-recall", "conditions": [24, 800, "a", 24000], "internal_node_id": "0.0-138.0-0.0", "key_presses": [67, 79, 83, 84, 85, 77, 69, 13, 66, 82, 79, 84, 72, 69, 82, 13, 67, 72, 85, 82, 67, 72, 13, 71, 69, 72, 84, 79, 13, 86, 73, 67, 84, 79, 77, 13, 75, 78, 73, 70, 69, 13, 80, 73, 83, 84, 79, 76, 13, 83, 85, 83, 80, 69, 67, 84, 13, 82, 79, 66, 66, 69, 82, 13, 80, 65, 82, 82, 79, 84, 13, 70, 8, 68, 82, 69, 83, 83, 79, 82, 13, 80, 69, 82, 70, 85, 77, 69, 13, 84, 85, 82, 84, 76, 69, 13, 72, 69, 76, 77, 69, 84, 13, 66, 65, 82, 76, 69, 89, 13, 83, 84, 73, 67, 75, 69, 82, 13, 83, 78, 65, 75, 69, 13, 83, 72, 79, 86, 69, 76, 13, 83, 67, 65, 82, 69, 67, 82, 79, 87, 13, 77, 65, 84, 82, 69, 83, 83, 13], "trial": 4, "time_elapsed": 844546, "type": "FREE_RECALL", "trial_index": 183}, "uniqueid": "MTK3721:30IQTZXKALDCDURNCAOB597GKK50XV", "dateTime": 1520969389262}, {"current_trial": 184, "trialdata": {"rt": 2261, "trial_type": "text", "internal_node_id": "0.0-139.0", "time_elapsed": 848814, "key_press": 13, "type": "INSTRUCTIONS", "trial_index": 184}, "uniqueid": "MTK3721:30IQTZXKALDCDURNCAOB597GKK50XV", "dateTime": 1520969393528}, {"current_trial": 185, "trialdata": {"rt": [3205, 6238, 10208], "trial_type": "math-distractor", "key_times": [2502, 2703, 3205, 5880, 5932, 6238, 9532, 10071, 10208, 11817], "responses": ["19", "20", "17"], "num2": [8, 8, 2, 4], "num3": [2, 7, 9, 9], "conditions": [12, 1600, "a", 12000], "internal_node_id": "0.0-140.0", "key_presses": [49, 57, 13, 50, 48, 13, 49, 55, 13, 49], "trial": 5, "time_elapsed": 862823, "type": "DISTRACTOR", "trial_index": 185, "num1": [9, 5, 6, 6]}, "uniqueid": "MTK3721:30IQTZXKALDCDURNCAOB597GKK50XV", "dateTime": 1520969407536}, {"current_trial": 186, "trialdata": {"rt": -1, "trial_type": "single-stim", "stimulus": "<p id=\"stim\">10</p>", "internal_node_id": "0.0-141.0-0.0", "time_elapsed": 865829, "key_press": -1, "trial_index": 186}, "uniqueid": "MTK3721:30IQTZXKALDCDURNCAOB597GKK50XV", "dateTime": 1520969410542}, {"current_trial": 187, "trialdata": {"rt": -1, "trial_type": "single-stim", "stimulus": "<p id=\"stim\">9</p>", "internal_node_id": "0.0-141.0-1.0", "time_elapsed": 866833, "key_press": -1, "trial_index": 187}, "uniqueid": "MTK3721:30IQTZXKALDCDURNCAOB597GKK50XV", "dateTime": 1520969411546}, {"current_trial": 188, "trialdata": {"rt": -1, "trial_type": "single-stim", "stimulus": "<p id=\"stim\">8</p>", "internal_node_id": "0.0-141.0-2.0", "time_elapsed": 867838, "key_press": -1, "trial_index": 188}, "uniqueid": "MTK3721:30IQTZXKALDCDURNCAOB597GKK50XV", "dateTime": 1520969412551}, {"current_trial": 189, "trialdata": {"rt": -1, "trial_type": "single-stim", "stimulus": "<p id=\"stim\">7</p>", "internal_node_id": "0.0-141.0-3.0", "time_elapsed": 868842, "key_press": -1, "trial_index": 189}, "uniqueid": "MTK3721:30IQTZXKALDCDURNCAOB597GKK50XV", "dateTime": 1520969413555}, {"current_trial": 190, "trialdata": {"rt": -1, "trial_type": "single-stim", "stimulus": "<p id=\"stim\">6</p>", "internal_node_id": "0.0-141.0-4.0", "time_elapsed": 869843, "key_press": -1, "trial_index": 190}, "uniqueid": "MTK3721:30IQTZXKALDCDURNCAOB597GKK50XV", "dateTime": 1520969414557}, {"current_trial": 191, "trialdata": {"rt": -1, "trial_type": "single-stim", "stimulus": "<p id=\"stim\">5</p>", "internal_node_id": "0.0-141.0-5.0", "time_elapsed": 870845, "key_press": -1, "trial_index": 191}, "uniqueid": "MTK3721:30IQTZXKALDCDURNCAOB597GKK50XV", "dateTime": 1520969415558}, {"current_trial": 192, "trialdata": {"rt": -1, "trial_type": "single-stim", "stimulus": "<p id=\"stim\">4</p>", "internal_node_id": "0.0-141.0-6.0", "time_elapsed": 871846, "key_press": -1, "trial_index": 192}, "uniqueid": "MTK3721:30IQTZXKALDCDURNCAOB597GKK50XV", "dateTime": 1520969416559}, {"current_trial": 193, "trialdata": {"rt": -1, "trial_type": "single-stim", "stimulus": "<p id=\"stim\">3</p>", "internal_node_id": "0.0-141.0-7.0", "time_elapsed": 872850, "key_press": -1, "trial_index": 193}, "uniqueid": "MTK3721:30IQTZXKALDCDURNCAOB597GKK50XV", "dateTime": 1520969417563}, {"current_trial": 194, "trialdata": {"rt": -1, "trial_type": "single-stim", "stimulus": "<p id=\"stim\">2</p>", "internal_node_id": "0.0-141.0-8.0", "time_elapsed": 873851, "key_press": -1, "trial_index": 194}, "uniqueid": "MTK3721:30IQTZXKALDCDURNCAOB597GKK50XV", "dateTime": 1520969418564}, {"current_trial": 195, "trialdata": {"rt": -1, "trial_type": "single-stim", "stimulus": "<p id=\"stim\">1</p>", "internal_node_id": "0.0-141.0-9.0", "time_elapsed": 874855, "key_press": -1, "trial_index": 195}, "uniqueid": "MTK3721:30IQTZXKALDCDURNCAOB597GKK50XV", "dateTime": 1520969419568}, {"current_trial": 196, "trialdata": {"rt": -1, "trial_type": "single-stim", "stimulus": "<p id=\"stim\">+</p>", "internal_node_id": "0.0-142.0-0.0", "time_elapsed": 876358, "key_press": -1, "type": "FIXATION", "trial_index": 196}, "uniqueid": "MTK3721:30IQTZXKALDCDURNCAOB597GKK50XV", "dateTime": 1520969421071}, {"current_trial": 197, "trialdata": {"rt": -1000, "trial_type": "single-audio", "word": "inmate", "stimulus": "/static/audio/wordpool/INMATE.wav", "conditions": [12, 1600, "a", 12000], "internal_node_id": "0.0-143.0", "trial": 5, "time_elapsed": 879034, "serialpos": 0, "key_press": -1, "wordID": 737, "type": "PRES_AUD", "trial_index": 197}, "uniqueid": "MTK3721:30IQTZXKALDCDURNCAOB597GKK50XV", "dateTime": 1520969423747}, {"current_trial": 198, "trialdata": {"rt": -1000, "trial_type": "single-audio", "word": "friend", "stimulus": "/static/audio/wordpool/FRIEND.wav", "conditions": [12, 1600, "a", 12000], "internal_node_id": "0.0-144.0", "trial": 5, "time_elapsed": 881838, "serialpos": 1, "key_press": -1, "wordID": 605, "type": "PRES_AUD", "trial_index": 198}, "uniqueid": "MTK3721:30IQTZXKALDCDURNCAOB597GKK50XV", "dateTime": 1520969426551}, {"current_trial": 199, "trialdata": {"rt": -1000, "trial_type": "single-audio", "word": "cocoon", "stimulus": "/static/audio/wordpool/COCOON.wav", "conditions": [12, 1600, "a", 12000], "internal_node_id": "0.0-145.0", "trial": 5, "time_elapsed": 884334, "serialpos": 2, "key_press": -1, "wordID": 338, "type": "PRES_AUD", "trial_index": 199}, "uniqueid": "MTK3721:30IQTZXKALDCDURNCAOB597GKK50XV", "dateTime": 1520969429047}, {"current_trial": 200, "trialdata": {"rt": -1000, "trial_type": "single-audio", "word": "breast", "stimulus": "/static/audio/wordpool/BREAST.wav", "conditions": [12, 1600, "a", 12000], "internal_node_id": "0.0-146.0", "trial": 5, "time_elapsed": 887068, "serialpos": 3, "key_press": -1, "wordID": 170, "type": "PRES_AUD", "trial_index": 200}, "uniqueid": "MTK3721:30IQTZXKALDCDURNCAOB597GKK50XV", "dateTime": 1520969431781}, {"current_trial": 201, "trialdata": {"rt": -1000, "trial_type": "single-audio", "word": "ulcer", "stimulus": "/static/audio/wordpool/ULCER.wav", "conditions": [12, 1600, "a", 12000], "internal_node_id": "0.0-147.0", "trial": 5, "time_elapsed": 889691, "serialpos": 4, "key_press": -1, "wordID": 1532, "type": "PRES_AUD", "trial_index": 201}, "uniqueid": "MTK3721:30IQTZXKALDCDURNCAOB597GKK50XV", "dateTime": 1520969434404}, {"current_trial": 202, "trialdata": {"rt": -1000, "trial_type": "single-audio", "word": "lover", "stimulus": "/static/audio/wordpool/LOVER.wav", "conditions": [12, 1600, "a", 12000], "internal_node_id": "0.0-148.0", "trial": 5, "time_elapsed": 892236, "serialpos": 5, "key_press": -1, "wordID": 845, "type": "PRES_AUD", "trial_index": 202}, "uniqueid": "MTK3721:30IQTZXKALDCDURNCAOB597GKK50XV", "dateTime": 1520969436949}, {"current_trial": 203, "trialdata": {"rt": -1000, "trial_type": "single-audio", "word": "lizard", "stimulus": "/static/audio/wordpool/LIZARD.wav", "conditions": [12, 1600, "a", 12000], "internal_node_id": "0.0-149.0", "trial": 5, "time_elapsed": 894835, "serialpos": 6, "key_press": -1, "wordID": 833, "type": "PRES_AUD", "trial_index": 203}, "uniqueid": "MTK3721:30IQTZXKALDCDURNCAOB597GKK50XV", "dateTime": 1520969439548}, {"current_trial": 204, "trialdata": {"rt": -1000, "trial_type": "single-audio", "word": "snail", "stimulus": "/static/audio/wordpool/SNAIL.wav", "conditions": [12, 1600, "a", 12000], "internal_node_id": "0.0-150.0", "trial": 5, "time_elapsed": 897313, "serialpos": 7, "key_press": -1, "wordID": 1331, "type": "PRES_AUD", "trial_index": 204}, "uniqueid": "MTK3721:30IQTZXKALDCDURNCAOB597GKK50XV", "dateTime": 1520969442027}, {"current_trial": 205, "trialdata": {"rt": -1000, "trial_type": "single-audio", "word": "carriage", "stimulus": "/static/audio/wordpool/CARRIAGE.wav", "conditions": [12, 1600, "a", 12000], "internal_node_id": "0.0-151.0", "trial": 5, "time_elapsed": 900042, "serialpos": 8, "key_press": -1, "wordID": 247, "type": "PRES_AUD", "trial_index": 205}, "uniqueid": "MTK3721:30IQTZXKALDCDURNCAOB597GKK50XV", "dateTime": 1520969444756}, {"current_trial": 206, "trialdata": {"rt": -1000, "trial_type": "single-audio", "word": "dust", "stimulus": "/static/audio/wordpool/DUST.wav", "conditions": [12, 1600, "a", 12000], "internal_node_id": "0.0-152.0", "trial": 5, "time_elapsed": 902724, "serialpos": 9, "key_press": -1, "wordID": 507, "type": "PRES_AUD", "trial_index": 206}, "uniqueid": "MTK3721:30IQTZXKALDCDURNCAOB597GKK50XV", "dateTime": 1520969447438}, {"current_trial": 207, "trialdata": {"rt": -1000, "trial_type": "single-audio", "word": "worker", "stimulus": "/static/audio/wordpool/WORKER.wav", "conditions": [12, 1600, "a", 12000], "internal_node_id": "0.0-153.0", "trial": 5, "time_elapsed": 905359, "serialpos": 10, "key_press": -1, "wordID": 1620, "type": "PRES_AUD", "trial_index": 207}, "uniqueid": "MTK3721:30IQTZXKALDCDURNCAOB597GKK50XV", "dateTime": 1520969450072}, {"current_trial": 208, "trialdata": {"rt": -1000, "trial_type": "single-audio", "word": "flesh", "stimulus": "/static/audio/wordpool/FLESH.wav", "conditions": [12, 1600, "a", 12000], "internal_node_id": "0.0-154.0", "trial": 5, "time_elapsed": 908065, "serialpos": 11, "key_press": -1, "wordID": 578, "type": "PRES_AUD", "trial_index": 208}, "uniqueid": "MTK3721:30IQTZXKALDCDURNCAOB597GKK50XV", "dateTime": 1520969452778}, {"current_trial": 209, "trialdata": {"rt": -1, "trial_type": "single-stim", "stimulus": "", "internal_node_id": "0.0-155.0-0.0", "time_elapsed": 909372, "key_press": -1, "type": "PRE_RECALL_DELAY", "trial_index": 209}, "uniqueid": "MTK3721:30IQTZXKALDCDURNCAOB597GKK50XV", "dateTime": 1520969454085}, {"current_trial": 210, "trialdata": {"rt": -1000, "trial_type": "single-audio", "stimulus": "/static/audio/400Hz.wav", "internal_node_id": "0.0-156.0", "time_elapsed": 909873, "key_press": -1, "type": "PRE_RECALL_ALERT", "trial_index": 210}, "uniqueid": "MTK3721:30IQTZXKALDCDURNCAOB597GKK50XV", "dateTime": 1520969454586}, {"current_trial": 211, "trialdata": {"rt": [4841, 7363, 9318, 11861, 13228, 17186, 20363, 24288, 25700, 28537, 30267, 31865, 33238, 48573], "recwords": ["inmate", "friend", "cacoon", "breast", "flash", "alsor", "lover", "lizard", "snail", "carraige", "dust", "worker", "", ""], "key_times": [3046, 3259, 3531, 3683, 3920, 4043, 4841, 5161, 5360, 5493, 5664, 5990, 6301, 7363, 7759, 7848, 8074, 8291, 8423, 8607, 9318, 9812, 9980, 10091, 10172, 10619, 10863, 11861, 12356, 12498, 12602, 12734, 12990, 13228, 16361, 16595, 16721, 16832, 17010, 17186, 18638, 18804, 18899, 19138, 19238, 20363, 21042, 21232, 21487, 21717, 21972, 22184, 24288, 24518, 24696, 24789, 24923, 25190, 25700, 26242, 26334, 26636, 26775, 26884, 27092, 27395, 27498, 28537, 28979, 29190, 29282, 29559, 30267, 30725, 30904, 31097, 31250, 31406, 31542, 31865, 33238, 48573], "trial_type": "free-recall", "conditions": [12, 1600, "a", 12000], "internal_node_id": "0.0-157.0-0.0", "key_presses": [73, 78, 77, 65, 84, 69, 13, 70, 82, 73, 69, 78, 68, 13, 67, 65, 67, 79, 79, 78, 13, 66, 82, 69, 65, 83, 84, 13, 70, 76, 65, 83, 72, 13, 65, 76, 83, 79, 82, 13, 76, 79, 86, 69, 82, 13, 76, 73, 90, 65, 82, 68, 13, 83, 78, 65, 73, 76, 13, 67, 65, 82, 82, 65, 73, 71, 69, 13, 68, 85, 83, 84, 13, 87, 79, 82, 75, 69, 82, 13, 13, 13], "trial": 5, "time_elapsed": 969880, "type": "FREE_RECALL", "trial_index": 211}, "uniqueid": "MTK3721:30IQTZXKALDCDURNCAOB597GKK50XV", "dateTime": 1520969514599}, {"current_trial": 212, "trialdata": {"rt": 2092, "trial_type": "text", "internal_node_id": "0.0-158.0", "time_elapsed": 973979, "key_press": 13, "type": "INSTRUCTIONS", "trial_index": 212}, "uniqueid": "MTK3721:30IQTZXKALDCDURNCAOB597GKK50XV", "dateTime": 1520969518692}, {"current_trial": 213, "trialdata": {"rt": [3004, 5671, 8088, 11833], "trial_type": "math-distractor", "key_times": [2604, 2752, 3004, 5064, 5536, 5671, 7946, 8088, 9692, 9876, 10810, 11107, 11475, 11833], "responses": ["22", "18", "7", "9"], "num2": [4, 7, 2, 3, 4], "num3": [9, 2, 4, 5, 4], "conditions": [12, 1600, "a", 12000], "internal_node_id": "0.0-159.0", "key_presses": [50, 50, 13, 49, 56, 13, 55, 13, 49, 48, 8, 8, 57, 13], "trial": 6, "time_elapsed": 987988, "type": "DISTRACTOR", "trial_index": 213, "num1": [9, 9, 1, 1, 6]}, "uniqueid": "MTK3721:30IQTZXKALDCDURNCAOB597GKK50XV", "dateTime": 1520969532701}, {"current_trial": 214, "trialdata": {"rt": -1, "trial_type": "single-stim", "stimulus": "<p id=\"stim\">10</p>", "internal_node_id": "0.0-160.0-0.0", "time_elapsed": 990995, "key_press": -1, "trial_index": 214}, "uniqueid": "MTK3721:30IQTZXKALDCDURNCAOB597GKK50XV", "dateTime": 1520969535708}, {"current_trial": 215, "trialdata": {"rt": -1, "trial_type": "single-stim", "stimulus": "<p id=\"stim\">9</p>", "internal_node_id": "0.0-160.0-1.0", "time_elapsed": 991999, "key_press": -1, "trial_index": 215}, "uniqueid": "MTK3721:30IQTZXKALDCDURNCAOB597GKK50XV", "dateTime": 1520969536712}, {"current_trial": 216, "trialdata": {"rt": -1, "trial_type": "single-stim", "stimulus": "<p id=\"stim\">8</p>", "internal_node_id": "0.0-160.0-2.0", "time_elapsed": 993003, "key_press": -1, "trial_index": 216}, "uniqueid": "MTK3721:30IQTZXKALDCDURNCAOB597GKK50XV", "dateTime": 1520969537716}, {"current_trial": 217, "trialdata": {"rt": -1, "trial_type": "single-stim", "stimulus": "<p id=\"stim\">7</p>", "internal_node_id": "0.0-160.0-3.0", "time_elapsed": 994007, "key_press": -1, "trial_index": 217}, "uniqueid": "MTK3721:30IQTZXKALDCDURNCAOB597GKK50XV", "dateTime": 1520969538721}, {"current_trial": 218, "trialdata": {"rt": -1, "trial_type": "single-stim", "stimulus": "<p id=\"stim\">6</p>", "internal_node_id": "0.0-160.0-4.0", "time_elapsed": 995012, "key_press": -1, "trial_index": 218}, "uniqueid": "MTK3721:30IQTZXKALDCDURNCAOB597GKK50XV", "dateTime": 1520969539725}, {"current_trial": 219, "trialdata": {"rt": -1, "trial_type": "single-stim", "stimulus": "<p id=\"stim\">5</p>", "internal_node_id": "0.0-160.0-5.0", "time_elapsed": 996015, "key_press": -1, "trial_index": 219}, "uniqueid": "MTK3721:30IQTZXKALDCDURNCAOB597GKK50XV", "dateTime": 1520969540728}, {"current_trial": 220, "trialdata": {"rt": -1, "trial_type": "single-stim", "stimulus": "<p id=\"stim\">4</p>", "internal_node_id": "0.0-160.0-6.0", "time_elapsed": 997020, "key_press": -1, "trial_index": 220}, "uniqueid": "MTK3721:30IQTZXKALDCDURNCAOB597GKK50XV", "dateTime": 1520969541733}, {"current_trial": 221, "trialdata": {"rt": -1, "trial_type": "single-stim", "stimulus": "<p id=\"stim\">3</p>", "internal_node_id": "0.0-160.0-7.0", "time_elapsed": 998024, "key_press": -1, "trial_index": 221}, "uniqueid": "MTK3721:30IQTZXKALDCDURNCAOB597GKK50XV", "dateTime": 1520969542737}, {"current_trial": 222, "trialdata": {"rt": -1, "trial_type": "single-stim", "stimulus": "<p id=\"stim\">2</p>", "internal_node_id": "0.0-160.0-8.0", "time_elapsed": 999028, "key_press": -1, "trial_index": 222}, "uniqueid": "MTK3721:30IQTZXKALDCDURNCAOB597GKK50XV", "dateTime": 1520969543741}, {"current_trial": 223, "trialdata": {"rt": -1, "trial_type": "single-stim", "stimulus": "<p id=\"stim\">1</p>", "internal_node_id": "0.0-160.0-9.0", "time_elapsed": 1000032, "key_press": -1, "trial_index": 223}, "uniqueid": "MTK3721:30IQTZXKALDCDURNCAOB597GKK50XV", "dateTime": 1520969544745}, {"current_trial": 224, "trialdata": {"rt": -1, "trial_type": "single-stim", "stimulus": "<p id=\"stim\">+</p>", "internal_node_id": "0.0-161.0-0.0", "time_elapsed": 1001534, "key_press": -1, "type": "FIXATION", "trial_index": 224}, "uniqueid": "MTK3721:30IQTZXKALDCDURNCAOB597GKK50XV", "dateTime": 1520969546248}, {"current_trial": 225, "trialdata": {"rt": -1000, "trial_type": "single-audio", "word": "fireplace", "stimulus": "/static/audio/wordpool/FIREPLACE.wav", "conditions": [12, 1600, "a", 12000], "internal_node_id": "0.0-162.0", "trial": 6, "time_elapsed": 1004106, "serialpos": 0, "key_press": -1, "wordID": 569, "type": "PRES_AUD", "trial_index": 225}, "uniqueid": "MTK3721:30IQTZXKALDCDURNCAOB597GKK50XV", "dateTime": 1520969548819}, {"current_trial": 226, "trialdata": {"rt": -1000, "trial_type": "single-audio", "word": "piano", "stimulus": "/static/audio/wordpool/PIANO.wav", "conditions": [12, 1600, "a", 12000], "internal_node_id": "0.0-163.0", "trial": 6, "time_elapsed": 1006765, "serialpos": 1, "key_press": -1, "wordID": 1056, "type": "PRES_AUD", "trial_index": 226}, "uniqueid": "MTK3721:30IQTZXKALDCDURNCAOB597GKK50XV", "dateTime": 1520969551478}, {"current_trial": 227, "trialdata": {"rt": -1000, "trial_type": "single-audio", "word": "poison", "stimulus": "/static/audio/wordpool/POISON.wav", "conditions": [12, 1600, "a", 12000], "internal_node_id": "0.0-164.0", "trial": 6, "time_elapsed": 1009224, "serialpos": 2, "key_press": -1, "wordID": 1095, "type": "PRES_AUD", "trial_index": 227}, "uniqueid": "MTK3721:30IQTZXKALDCDURNCAOB597GKK50XV", "dateTime": 1520969553937}, {"current_trial": 228, "trialdata": {"rt": -1000, "trial_type": "single-audio", "word": "kitchen", "stimulus": "/static/audio/wordpool/KITCHEN.wav", "conditions": [12, 1600, "a", 12000], "internal_node_id": "0.0-165.0", "trial": 6, "time_elapsed": 1011717, "serialpos": 3, "key_press": -1, "wordID": 777, "type": "PRES_AUD", "trial_index": 228}, "uniqueid": "MTK3721:30IQTZXKALDCDURNCAOB597GKK50XV", "dateTime": 1520969556430}, {"current_trial": 229, "trialdata": {"rt": -1000, "trial_type": "single-audio", "word": "peanut", "stimulus": "/static/audio/wordpool/PEANUT.wav", "conditions": [12, 1600, "a", 12000], "internal_node_id": "0.0-166.0", "trial": 6, "time_elapsed": 1014486, "serialpos": 4, "key_press": -1, "wordID": 1031, "type": "PRES_AUD", "trial_index": 229}, "uniqueid": "MTK3721:30IQTZXKALDCDURNCAOB597GKK50XV", "dateTime": 1520969559199}, {"current_trial": 230, "trialdata": {"rt": -1000, "trial_type": "single-audio", "word": "mildew", "stimulus": "/static/audio/wordpool/MILDEW.wav", "conditions": [12, 1600, "a", 12000], "internal_node_id": "0.0-167.0", "trial": 6, "time_elapsed": 1017087, "serialpos": 5, "key_press": -1, "wordID": 892, "type": "PRES_AUD", "trial_index": 230}, "uniqueid": "MTK3721:30IQTZXKALDCDURNCAOB597GKK50XV", "dateTime": 1520969561800}, {"current_trial": 231, "trialdata": {"rt": -1000, "trial_type": "single-audio", "word": "pecan", "stimulus": "/static/audio/wordpool/PECAN.wav", "conditions": [12, 1600, "a", 12000], "internal_node_id": "0.0-168.0", "trial": 6, "time_elapsed": 1019490, "serialpos": 6, "key_press": -1, "wordID": 1035, "type": "PRES_AUD", "trial_index": 231}, "uniqueid": "MTK3721:30IQTZXKALDCDURNCAOB597GKK50XV", "dateTime": 1520969564203}, {"current_trial": 232, "trialdata": {"rt": -1000, "trial_type": "single-audio", "word": "balloon", "stimulus": "/static/audio/wordpool/BALLOON.wav", "conditions": [12, 1600, "a", 12000], "internal_node_id": "0.0-169.0", "trial": 6, "time_elapsed": 1022206, "serialpos": 7, "key_press": -1, "wordID": 74, "type": "PRES_AUD", "trial_index": 232}, "uniqueid": "MTK3721:30IQTZXKALDCDURNCAOB597GKK50XV", "dateTime": 1520969566920}, {"current_trial": 233, "trialdata": {"rt": -1000, "trial_type": "single-audio", "word": "message", "stimulus": "/static/audio/wordpool/MESSAGE.wav", "conditions": [12, 1600, "a", 12000], "internal_node_id": "0.0-170.0", "trial": 6, "time_elapsed": 1024778, "serialpos": 8, "key_press": -1, "wordID": 887, "type": "PRES_AUD", "trial_index": 233}, "uniqueid": "MTK3721:30IQTZXKALDCDURNCAOB597GKK50XV", "dateTime": 1520969569493}, {"current_trial": 234, "trialdata": {"rt": -1000, "trial_type": "single-audio", "word": "canal", "stimulus": "/static/audio/wordpool/CANAL.wav", "conditions": [12, 1600, "a", 12000], "internal_node_id": "0.0-171.0", "trial": 6, "time_elapsed": 1027576, "serialpos": 9, "key_press": -1, "wordID": 225, "type": "PRES_AUD", "trial_index": 234}, "uniqueid": "MTK3721:30IQTZXKALDCDURNCAOB597GKK50XV", "dateTime": 1520969572289}, {"current_trial": 235, "trialdata": {"rt": -1000, "trial_type": "single-audio", "word": "river", "stimulus": "/static/audio/wordpool/RIVER.wav", "conditions": [12, 1600, "a", 12000], "internal_node_id": "0.0-172.0", "trial": 6, "time_elapsed": 1030282, "serialpos": 10, "key_press": -1, "wordID": 1193, "type": "PRES_AUD", "trial_index": 235}, "uniqueid": "MTK3721:30IQTZXKALDCDURNCAOB597GKK50XV", "dateTime": 1520969574995}, {"current_trial": 236, "trialdata": {"rt": -1000, "trial_type": "single-audio", "word": "package", "stimulus": "/static/audio/wordpool/PACKAGE.wav", "conditions": [12, 1600, "a", 12000], "internal_node_id": "0.0-173.0", "trial": 6, "time_elapsed": 1032696, "serialpos": 11, "key_press": -1, "wordID": 996, "type": "PRES_AUD", "trial_index": 236}, "uniqueid": "MTK3721:30IQTZXKALDCDURNCAOB597GKK50XV", "dateTime": 1520969577409}, {"current_trial": 237, "trialdata": {"rt": -1, "trial_type": "single-stim", "stimulus": "", "internal_node_id": "0.0-174.0-0.0", "time_elapsed": 1034038, "key_press": -1, "type": "PRE_RECALL_DELAY", "trial_index": 237}, "uniqueid": "MTK3721:30IQTZXKALDCDURNCAOB597GKK50XV", "dateTime": 1520969578751}, {"current_trial": 238, "trialdata": {"rt": -1000, "trial_type": "single-audio", "stimulus": "/static/audio/400Hz.wav", "internal_node_id": "0.0-175.0", "time_elapsed": 1034539, "key_press": -1, "type": "PRE_RECALL_ALERT", "trial_index": 238}, "uniqueid": "MTK3721:30IQTZXKALDCDURNCAOB597GKK50XV", "dateTime": 1520969579252}, {"current_trial": 239, "trialdata": {"rt": [3820, 5313, 7627, 11085, 12596, 17342, 20974, 22749, 26272, 29657, 32627, 36579, 46397], "recwords": ["river", "cannal", "package", "fireplace", "piano", "poison", "kitchen", "peanut", "peacon", "mildew", "balloon", "message", ""], "key_times": [3010, 3131, 3331, 3491, 3628, 3820, 4002, 4119, 4485, 4608, 4741, 5012, 5313, 5829, 5934, 6163, 6369, 6472, 6767, 6851, 7627, 8437, 8565, 8764, 8844, 9296, 9742, 9999, 10264, 10391, 11085, 11584, 11798, 11951, 12102, 12343, 12596, 16172, 16403, 16596, 16829, 16889, 17115, 17342, 17958, 18121, 18291, 19591, 19789, 20046, 20620, 20974, 21534, 21755, 21844, 22061, 22265, 22535, 22749, 23262, 23404, 23504, 23772, 23916, 24718, 26272, 26998, 27192, 27424, 28188, 28303, 28561, 29657, 30060, 30170, 30394, 30534, 30741, 30969, 31713, 32627, 33351, 33505, 33820, 33957, 34093, 34342, 34418, 36579, 46397], "trial_type": "free-recall", "conditions": [12, 1600, "a", 12000], "internal_node_id": "0.0-176.0-0.0", "key_presses": [82, 73, 86, 69, 82, 13, 67, 65, 78, 78, 65, 76, 13, 80, 65, 67, 75, 65, 71, 69, 13, 70, 73, 82, 69, 80, 76, 65, 67, 69, 13, 80, 73, 65, 78, 79, 13, 80, 79, 73, 83, 79, 78, 13, 75, 73, 84, 67, 72, 69, 78, 32, 80, 69, 65, 78, 85, 84, 13, 80, 69, 65, 67, 79, 78, 13, 77, 73, 76, 68, 69, 87, 13, 66, 65, 76, 76, 79, 