{"assignmentId": "3ERMJ6L4DZZF1TS3J27B9715KDE7M6", "workerId": "MTK3011", "questiondata": {"origin": "United States", "strat-rehearsal": "4", "marital": "Divorced", "education": "High school diploma", "ethnicity": "Not Hispanic", "color_depth": 24, "distracted": "No", "wrote-notes": "No", "strat-other": "Repeated them in my mind.", "screen_width": 1536, "avail_screen_width": 1536, "avail_screen_height": 826, "strat-image": "4", "language": "english", "gender": "Female", "age": "35", "gender_other": "", "race": ["White"], "strat-categorize": "70", "pixel_depth": 24, "strat-spatial": "21", "strat-story": "57", "race_other": "", "screen_height": 864}, "bonus": 0, "hitId": "3KI0JD2ZU1PBP69H6KVSVR8Z90B67L", "counterbalance": 1597, "useragent": "Mozilla/5.0 (Windows NT 6.3; Win64; x64) AppleWebKit/537.36 (KHTML, like Gecko) Chrome/64.0.3282.167 Safari/537.36", "eventdata": [{"eventtype": "initialized", "interval": 0, "value": null, "timestamp": 1519664820188}, {"eventtype": "window_resize", "interval": 0, "value": [1526, 802], "timestamp": 1519664820188}, {"eventtype": "focus", "interval": 91292, "value": "off", "timestamp": 1519664911480}, {"eventtype": "focus", "interval": 2806, "value": "on", "timestamp": 1519664914286}, {"eventtype": "focus", "interval": 66188, "value": "off", "timestamp": 1519664980474}, {"eventtype": "focus", "interval": 13316, "value": "on", "timestamp": 1519664993790}, {"eventtype": "focus", "interval": 38422, "value": "off", "timestamp": 1519665032212}, {"eventtype": "focus", "interval": 9195, "value": "on", "timestamp": 1519665041407}, {"eventtype": "focus", "interval": 44234, "value": "off", "timestamp": 1519665085641}, {"eventtype": "focus", "interval": 5776, "value": "on", "timestamp": 1519665091417}, {"eventtype": "focus", "interval": 627926, "value": "off", "timestamp": 1519665719343}, {"eventtype": "focus", "interval": 1978, "value": "on", "timestamp": 1519665721321}, {"eventtype": "focus", "interval": 83096, "value": "off", "timestamp": 1519665804417}, {"eventtype": "focus", "interval": 6309, "value": "on", "timestamp": 1519665810726}, {"eventtype": "focus", "interval": 863646, "value": "off", "timestamp": 1519666674372}, {"eventtype": "focus", "interval": 18340, "value": "on", "timestamp": 1519666692712}, {"eventtype": "focus", "interval": 168268, "value": "off", "timestamp": 1519666860980}, {"eventtype": "focus", "interval": 1860, "value": "on", "timestamp": 1519666862840}, {"eventtype": "focus", "interval": 243570, "value": "off", "timestamp": 1519667106410}, {"eventtype": "focus", "interval": 20096, "value": "on", "timestamp": 1519667126506}, {"eventtype": "focus", "interval": 119816, "value": "off", "timestamp": 1519667246322}, {"eventtype": "focus", "interval": 13839, "value": "on", "timestamp": 1519667260161}], "data": [{"current_trial": 0, "trialdata": {"rt": 2849, "trial_type": "text", "internal_node_id": "0.0-0.0", "time_elapsed": 2860, "key_press": 76, "type": "INSTRUCTIONS", "trial_index": 0}, "uniqueid": "MTK3011:3ERMJ6L4DZZF1TS3J27B9715KDE7M6", "dateTime": 1519664847286}, {"current_trial": 1, "trialdata": {"rt": 55304, "trial_type": "text", "internal_node_id": "0.0-1.0", "time_elapsed": 58169, "key_press": 72, "type": "INSTRUCTIONS", "trial_index": 1}, "uniqueid": "MTK3011:3ERMJ6L4DZZF1TS3J27B9715KDE7M6", "dateTime": 1519664902593}, {"current_trial": 2, "trialdata": {"rt": [20117], "trial_type": "audio-test", "responses": ["ocean"], "internal_node_id": "0.0-2.0", "time_elapsed": 78311, "type": "AUDIO_TEST", "trial_index": 2}, "uniqueid": "MTK3011:3ERMJ6L4DZZF1TS3J27B9715KDE7M6", "dateTime": 1519664922735}, {"current_trial": 3, "trialdata": {"rt": [5573], "trial_type": "audio-test", "responses": ["crystal"], "internal_node_id": "0.0-3.0", "time_elapsed": 83894, "type": "AUDIO_TEST", "trial_index": 3}, "uniqueid": "MTK3011:3ERMJ6L4DZZF1TS3J27B9715KDE7M6", "dateTime": 1519664928318}, {"current_trial": 4, "trialdata": {"rt": [5644], "trial_type": "audio-test", "responses": ["spice"], "internal_node_id": "0.0-4.0", "time_elapsed": 89548, "type": "AUDIO_TEST", "trial_index": 4}, "uniqueid": "MTK3011:3ERMJ6L4DZZF1TS3J27B9715KDE7M6", "dateTime": 1519664933972}, {"current_trial": 5, "trialdata": {"rt": 35877, "trial_type": "survey-text", "responses": "{\"Q0\":\"12:30a\",\"Q1\":\"7:50a\",\"Q2\":\"4\"}", "internal_node_id": "0.0-5.0", "time_elapsed": 126182, "type": "SLEEP_SURVEY", "trial_index": 5}, "uniqueid": "MTK3011:3ERMJ6L4DZZF1TS3J27B9715KDE7M6", "dateTime": 1519664970606}, {"current_trial": 6, "trialdata": {"rt": 85751, "trial_type": "text", "internal_node_id": "0.0-6.0", "time_elapsed": 212935, "key_press": 71, "type": "INSTRUCTIONS", "trial_index": 6}, "uniqueid": "MTK3011:3ERMJ6L4DZZF1TS3J27B9715KDE7M6", "dateTime": 1519665057360}, {"current_trial": 7, "trialdata": {"rt": 18654, "trial_type": "text", "internal_node_id": "0.0-7.0", "time_elapsed": 232094, "key_press": 71, "type": "INSTRUCTIONS", "trial_index": 7}, "uniqueid": "MTK3011:3ERMJ6L4DZZF1TS3J27B9715KDE7M6", "dateTime": 1519665076519}, {"current_trial": 8, "trialdata": {"rt": 20418, "trial_type": "text", "internal_node_id": "0.0-8.0", "time_elapsed": 253015, "key_press": 71, "type": "INSTRUCTIONS", "trial_index": 8}, "uniqueid": "MTK3011:3ERMJ6L4DZZF1TS3J27B9715KDE7M6", "dateTime": 1519665097440}, {"current_trial": 9, "trialdata": {"rt": [5088, 11166, 13517, 15752], "trial_type": "math-distractor", "key_times": [4395, 4491, 5088, 10944, 11029, 11166, 13241, 13325, 13517, 15352, 15647, 15752], "responses": ["12", "24", "13", "17"], "num2": [3, 7, 1, 7, 5], "num3": [5, 8, 9, 1, 7], "conditions": [18, 1200, "a", 18000], "internal_node_id": "0.0-9.0", "key_presses": [49, 50, 13, 50, 52, 13, 49, 51, 13, 49, 55, 13], "trial": 0, "time_elapsed": 272032, "type": "DISTRACTOR", "trial_index": 9, "num1": [4, 9, 3, 9, 9]}, "uniqueid": "MTK3011:3ERMJ6L4DZZF1TS3J27B9715KDE7M6", "dateTime": 1519665116456}, {"current_trial": 10, "trialdata": {"rt": -1, "trial_type": "single-stim", "stimulus": "<p id=\"stim\">10</p>", "internal_node_id": "0.0-10.0-0.0", "time_elapsed": 275040, "key_press": -1, "trial_index": 10}, "uniqueid": "MTK3011:3ERMJ6L4DZZF1TS3J27B9715KDE7M6", "dateTime": 1519665119464}, {"current_trial": 11, "trialdata": {"rt": -1, "trial_type": "single-stim", "stimulus": "<p id=\"stim\">9</p>", "internal_node_id": "0.0-10.0-1.0", "time_elapsed": 276042, "key_press": -1, "trial_index": 11}, "uniqueid": "MTK3011:3ERMJ6L4DZZF1TS3J27B9715KDE7M6", "dateTime": 1519665120466}, {"current_trial": 12, "trialdata": {"rt": -1, "trial_type": "single-stim", "stimulus": "<p id=\"stim\">8</p>", "internal_node_id": "0.0-10.0-2.0", "time_elapsed": 277046, "key_press": -1, "trial_index": 12}, "uniqueid": "MTK3011:3ERMJ6L4DZZF1TS3J27B9715KDE7M6", "dateTime": 1519665121470}, {"current_trial": 13, "trialdata": {"rt": -1, "trial_type": "single-stim", "stimulus": "<p id=\"stim\">7</p>", "internal_node_id": "0.0-10.0-3.0", "time_elapsed": 278048, "key_press": -1, "trial_index": 13}, "uniqueid": "MTK3011:3ERMJ6L4DZZF1TS3J27B9715KDE7M6", "dateTime": 1519665122472}, {"current_trial": 14, "trialdata": {"rt": -1, "trial_type": "single-stim", "stimulus": "<p id=\"stim\">6</p>", "internal_node_id": "0.0-10.0-4.0", "time_elapsed": 279051, "key_press": -1, "trial_index": 14}, "uniqueid": "MTK3011:3ERMJ6L4DZZF1TS3J27B9715KDE7M6", "dateTime": 1519665123475}, {"current_trial": 15, "trialdata": {"rt": -1, "trial_type": "single-stim", "stimulus": "<p id=\"stim\">5</p>", "internal_node_id": "0.0-10.0-5.0", "time_elapsed": 280052, "key_press": -1, "trial_index": 15}, "uniqueid": "MTK3011:3ERMJ6L4DZZF1TS3J27B9715KDE7M6", "dateTime": 1519665124477}, {"current_trial": 16, "trialdata": {"rt": -1, "trial_type": "single-stim", "stimulus": "<p id=\"stim\">4</p>", "internal_node_id": "0.0-10.0-6.0", "time_elapsed": 281054, "key_press": -1, "trial_index": 16}, "uniqueid": "MTK3011:3ERMJ6L4DZZF1TS3J27B9715KDE7M6", "dateTime": 1519665125478}, {"current_trial": 17, "trialdata": {"rt": -1, "trial_type": "single-stim", "stimulus": "<p id=\"stim\">3</p>", "internal_node_id": "0.0-10.0-7.0", "time_elapsed": 282058, "key_press": -1, "trial_index": 17}, "uniqueid": "MTK3011:3ERMJ6L4DZZF1TS3J27B9715KDE7M6", "dateTime": 1519665126482}, {"current_trial": 18, "trialdata": {"rt": -1, "trial_type": "single-stim", "stimulus": "<p id=\"stim\">2</p>", "internal_node_id": "0.0-10.0-8.0", "time_elapsed": 283061, "key_press": -1, "trial_index": 18}, "uniqueid": "MTK3011:3ERMJ6L4DZZF1TS3J27B9715KDE7M6", "dateTime": 1519665127486}, {"current_trial": 19, "trialdata": {"rt": -1, "trial_type": "single-stim", "stimulus": "<p id=\"stim\">1</p>", "internal_node_id": "0.0-10.0-9.0", "time_elapsed": 284064, "key_press": -1, "trial_index": 19}, "uniqueid": "MTK3011:3ERMJ6L4DZZF1TS3J27B9715KDE7M6", "dateTime": 1519665128488}, {"current_trial": 20, "trialdata": {"rt": -1, "trial_type": "single-stim", "stimulus": "<p id=\"stim\">+</p>", "internal_node_id": "0.0-11.0-0.0", "time_elapsed": 285566, "key_press": -1, "type": "FIXATION", "trial_index": 20}, "uniqueid": "MTK3011:3ERMJ6L4DZZF1TS3J27B9715KDE7M6", "dateTime": 1519665129990}, {"current_trial": 21, "trialdata": {"rt": -1000, "trial_type": "single-audio", "word": "swimmer", "stimulus": "/static/audio/wordpool/SWIMMER.wav", "conditions": [18, 1200, "a", 18000], "internal_node_id": "0.0-12.0", "trial": 0, "time_elapsed": 287788, "serialpos": 0, "key_press": -1, "wordID": 1419, "type": "PRES_AUD", "trial_index": 21}, "uniqueid": "MTK3011:3ERMJ6L4DZZF1TS3J27B9715KDE7M6", "dateTime": 1519665132212}, {"current_trial": 22, "trialdata": {"rt": -1000, "trial_type": "single-audio", "word": "cocktail", "stimulus": "/static/audio/wordpool/COCKTAIL.wav", "conditions": [18, 1200, "a", 18000], "internal_node_id": "0.0-13.0", "trial": 0, "time_elapsed": 289992, "serialpos": 1, "key_press": -1, "wordID": 337, "type": "PRES_AUD", "trial_index": 22}, "uniqueid": "MTK3011:3ERMJ6L4DZZF1TS3J27B9715KDE7M6", "dateTime": 1519665134416}, {"current_trial": 23, "trialdata": {"rt": -1000, "trial_type": "single-audio", "word": "finger", "stimulus": "/static/audio/wordpool/FINGER.wav", "conditions": [18, 1200, "a", 18000], "internal_node_id": "0.0-14.0", "trial": 0, "time_elapsed": 292125, "serialpos": 2, "key_press": -1, "wordID": 566, "type": "PRES_AUD", "trial_index": 23}, "uniqueid": "MTK3011:3ERMJ6L4DZZF1TS3J27B9715KDE7M6", "dateTime": 1519665136549}, {"current_trial": 24, "trialdata": {"rt": -1000, "trial_type": "single-audio", "word": "frame", "stimulus": "/static/audio/wordpool/FRAME.wav", "conditions": [18, 1200, "a", 18000], "internal_node_id": "0.0-15.0", "trial": 0, "time_elapsed": 294360, "serialpos": 3, "key_press": -1, "wordID": 599, "type": "PRES_AUD", "trial_index": 24}, "uniqueid": "MTK3011:3ERMJ6L4DZZF1TS3J27B9715KDE7M6", "dateTime": 1519665138784}, {"current_trial": 25, "trialdata": {"rt": -1000, "trial_type": "single-audio", "word": "waitress", "stimulus": "/static/audio/wordpool/WAITRESS.wav", "conditions": [18, 1200, "a", 18000], "internal_node_id": "0.0-16.0", "trial": 0, "time_elapsed": 296569, "serialpos": 4, "key_press": -1, "wordID": 1580, "type": "PRES_AUD", "trial_index": 25}, "uniqueid": "MTK3011:3ERMJ6L4DZZF1TS3J27B9715KDE7M6", "dateTime": 1519665140993}, {"current_trial": 26, "trialdata": {"rt": -1000, "trial_type": "single-audio", "word": "market", "stimulus": "/static/audio/wordpool/MARKET.wav", "conditions": [18, 1200, "a", 18000], "internal_node_id": "0.0-17.0", "trial": 0, "time_elapsed": 298902, "serialpos": 5, "key_press": -1, "wordID": 870, "type": "PRES_AUD", "trial_index": 26}, "uniqueid": "MTK3011:3ERMJ6L4DZZF1TS3J27B9715KDE7M6", "dateTime": 1519665143326}, {"current_trial": 27, "trialdata": {"rt": -1000, "trial_type": "single-audio", "word": "blade", "stimulus": "/static/audio/wordpool/BLADE.wav", "conditions": [18, 1200, "a", 18000], "internal_node_id": "0.0-18.0", "trial": 0, "time_elapsed": 300904, "serialpos": 6, "key_press": -1, "wordID": 133, "type": "PRES_AUD", "trial_index": 27}, "uniqueid": "MTK3011:3ERMJ6L4DZZF1TS3J27B9715KDE7M6", "dateTime": 1519665145328}, {"current_trial": 28, "trialdata": {"rt": -1000, "trial_type": "single-audio", "word": "knapsack", "stimulus": "/static/audio/wordpool/KNAPSACK.wav", "conditions": [18, 1200, "a", 18000], "internal_node_id": "0.0-19.0", "trial": 0, "time_elapsed": 303078, "serialpos": 7, "key_press": -1, "wordID": 782, "type": "PRES_AUD", "trial_index": 28}, "uniqueid": "MTK3011:3ERMJ6L4DZZF1TS3J27B9715KDE7M6", "dateTime": 1519665147502}, {"current_trial": 29, "trialdata": {"rt": -1000, "trial_type": "single-audio", "word": "female", "stimulus": "/static/audio/wordpool/FEMALE.wav", "conditions": [18, 1200, "a", 18000], "internal_node_id": "0.0-20.0", "trial": 0, "time_elapsed": 305273, "serialpos": 8, "key_press": -1, "wordID": 558, "type": "PRES_AUD", "trial_index": 29}, "uniqueid": "MTK3011:3ERMJ6L4DZZF1TS3J27B9715KDE7M6", "dateTime": 1519665149697}, {"current_trial": 30, "trialdata": {"rt": -1000, "trial_type": "single-audio", "word": "queen", "stimulus": "/static/audio/wordpool/QUEEN.wav", "conditions": [18, 1200, "a", 18000], "internal_node_id": "0.0-21.0", "trial": 0, "time_elapsed": 307664, "serialpos": 9, "key_press": -1, "wordID": 1148, "type": "PRES_AUD", "trial_index": 30}, "uniqueid": "MTK3011:3ERMJ6L4DZZF1TS3J27B9715KDE7M6", "dateTime": 1519665152088}, {"current_trial": 31, "trialdata": {"rt": -1000, "trial_type": "single-audio", "word": "eyelash", "stimulus": "/static/audio/wordpool/EYELASH.wav", "conditions": [18, 1200, "a", 18000], "internal_node_id": "0.0-22.0", "trial": 0, "time_elapsed": 309892, "serialpos": 10, "key_press": -1, "wordID": 545, "type": "PRES_AUD", "trial_index": 31}, "uniqueid": "MTK3011:3ERMJ6L4DZZF1TS3J27B9715KDE7M6", "dateTime": 1519665154316}, {"current_trial": 32, "trialdata": {"rt": -1000, "trial_type": "single-audio", "word": "clock", "stimulus": "/static/audio/wordpool/CLOCK.wav", "conditions": [18, 1200, "a", 18000], "internal_node_id": "0.0-23.0", "trial": 0, "time_elapsed": 311893, "serialpos": 11, "key_press": -1, "wordID": 324, "type": "PRES_AUD", "trial_index": 32}, "uniqueid": "MTK3011:3ERMJ6L4DZZF1TS3J27B9715KDE7M6", "dateTime": 1519665156318}, {"current_trial": 33, "trialdata": {"rt": -1000, "trial_type": "single-audio", "word": "hood", "stimulus": "/static/audio/wordpool/HOOD.wav", "conditions": [18, 1200, "a", 18000], "internal_node_id": "0.0-24.0", "trial": 0, "time_elapsed": 314262, "serialpos": 12, "key_press": -1, "wordID": 713, "type": "PRES_AUD", "trial_index": 33}, "uniqueid": "MTK3011:3ERMJ6L4DZZF1TS3J27B9715KDE7M6", "dateTime": 1519665158686}, {"current_trial": 34, "trialdata": {"rt": -1000, "trial_type": "single-audio", "word": "bubble", "stimulus": "/static/audio/wordpool/BUBBLE.wav", "conditions": [18, 1200, "a", 18000], "internal_node_id": "0.0-25.0", "trial": 0, "time_elapsed": 316479, "serialpos": 13, "key_press": -1, "wordID": 182, "type": "PRES_AUD", "trial_index": 34}, "uniqueid": "MTK3011:3ERMJ6L4DZZF1TS3J27B9715KDE7M6", "dateTime": 1519665160903}, {"current_trial": 35, "trialdata": {"rt": -1000, "trial_type": "single-audio", "word": "donkey", "stimulus": "/static/audio/wordpool/DONKEY.wav", "conditions": [18, 1200, "a", 18000], "internal_node_id": "0.0-26.0", "trial": 0, "time_elapsed": 318682, "serialpos": 14, "key_press": -1, "wordID": 483, "type": "PRES_AUD", "trial_index": 35}, "uniqueid": "MTK3011:3ERMJ6L4DZZF1TS3J27B9715KDE7M6", "dateTime": 1519665163106}, {"current_trial": 36, "trialdata": {"rt": -1000, "trial_type": "single-audio", "word": "barley", "stimulus": "/static/audio/wordpool/BARLEY.wav", "conditions": [18, 1200, "a", 18000], "internal_node_id": "0.0-27.0", "trial": 0, "time_elapsed": 320696, "serialpos": 15, "key_press": -1, "wordID": 87, "type": "PRES_AUD", "trial_index": 36}, "uniqueid": "MTK3011:3ERMJ6L4DZZF1TS3J27B9715KDE7M6", "dateTime": 1519665165120}, {"current_trial": 37, "trialdata": {"rt": -1000, "trial_type": "single-audio", "word": "champagne", "stimulus": "/static/audio/wordpool/CHAMPAGNE.wav", "conditions": [18, 1200, "a", 18000], "internal_node_id": "0.0-28.0", "trial": 0, "time_elapsed": 322983, "serialpos": 16, "key_press": -1, "wordID": 277, "type": "PRES_AUD", "trial_index": 37}, "uniqueid": "MTK3011:3ERMJ6L4DZZF1TS3J27B9715KDE7M6", "dateTime": 1519665167407}, {"current_trial": 38, "trialdata": {"rt": -1000, "trial_type": "single-audio", "word": "fireman", "stimulus": "/static/audio/wordpool/FIREMAN.wav", "conditions": [18, 1200, "a", 18000], "internal_node_id": "0.0-29.0", "trial": 0, "time_elapsed": 325262, "serialpos": 17, "key_press": -1, "wordID": 568, "type": "PRES_AUD", "trial_index": 38}, "uniqueid": "MTK3011:3ERMJ6L4DZZF1TS3J27B9715KDE7M6", "dateTime": 1519665169686}, {"current_trial": 39, "trialdata": {"rt": -1, "trial_type": "single-stim", "stimulus": "", "internal_node_id": "0.0-30.0-0.0", "time_elapsed": 326580, "key_press": -1, "type": "PRE_RECALL_DELAY", "trial_index": 39}, "uniqueid": "MTK3011:3ERMJ6L4DZZF1TS3J27B9715KDE7M6", "dateTime": 1519665171004}, {"current_trial": 40, "trialdata": {"rt": -1000, "trial_type": "single-audio", "stimulus": "/static/audio/400Hz.wav", "internal_node_id": "0.0-31.0", "time_elapsed": 327082, "key_press": -1, "type": "PRE_RECALL_ALERT", "trial_index": 40}, "uniqueid": "MTK3011:3ERMJ6L4DZZF1TS3J27B9715KDE7M6", "dateTime": 1519665171507}, {"current_trial": 41, "trialdata": {"rt": [4212, 6385, 8899, 11763, 15030, 21336, 21454], "recwords": ["champagne", "fireman", "queen", "eyelash", "finger", "donkey", ""], "key_times": [2315, 2403, 2477, 2588, 2736, 2825, 3038, 3221, 3310, 4212, 5083, 5227, 5281, 5365, 5498, 5891, 5975, 6385, 8154, 8305, 8374, 8542, 8601, 8899, 10585, 10807, 10965, 11101, 11207, 11318, 11440, 11763, 14456, 14535, 14615, 14658, 14854, 14928, 15030, 19465, 19577, 19640, 19936, 20561, 20805, 20907, 21105, 21336, 21454], "trial_type": "free-recall", "conditions": [18, 1200, "a", 18000], "internal_node_id": "0.0-32.0-0.0", "key_presses": [67, 72, 65, 77, 80, 65, 71, 78, 69, 13, 70, 73, 82, 69, 77, 65, 78, 13, 81, 85, 69, 69, 78, 13, 69, 89, 69, 76, 65, 83, 72, 13, 70, 73, 78, 71, 69, 82, 13, 68, 79, 78, 69, 8, 75, 69, 89, 13, 13], "trial": 0, "time_elapsed": 387090, "type": "FREE_RECALL", "trial_index": 41}, "uniqueid": "MTK3011:3ERMJ6L4DZZF1TS3J27B9715KDE7M6", "dateTime": 1519665231519}, {"current_trial": 42, "trialdata": {"rt": 2720, "trial_type": "text", "internal_node_id": "0.0-33.0", "time_elapsed": 391817, "key_press": 74, "type": "INSTRUCTIONS", "trial_index": 42}, "uniqueid": "MTK3011:3ERMJ6L4DZZF1TS3J27B9715KDE7M6", "dateTime": 1519665236241}, {"current_trial": 43, "trialdata": {"rt": [2473, 4954, 7792, 10646, 13300], "trial_type": "math-distractor", "key_times": [2101, 2288, 2473, 4520, 4831, 4954, 7306, 7655, 7792, 10230, 10502, 10646, 12762, 13151, 13300, 17401], "responses": ["11", "18", "16", "15", "10"], "num2": [9, 5, 9, 6, 2, 7], "num3": [1, 9, 2, 8, 7, 7], "conditions": [18, 1200, "a", 18000], "internal_node_id": "0.0-34.0", "key_presses": [49, 49, 13, 49, 56, 13, 49, 54, 13, 49, 53, 13, 49, 48, 13, 49], "trial": 1, "time_elapsed": 411823, "type": "DISTRACTOR", "trial_index": 43, "num1": [1, 4, 5, 1, 1, 6]}, "uniqueid": "MTK3011:3ERMJ6L4DZZF1TS3J27B9715KDE7M6", "dateTime": 1519665256247}, {"current_trial": 44, "trialdata": {"rt": -1, "trial_type": "single-stim", "stimulus": "<p id=\"stim\">10</p>", "internal_node_id": "0.0-35.0-0.0", "time_elapsed": 414828, "key_press": -1, "trial_index": 44}, "uniqueid": "MTK3011:3ERMJ6L4DZZF1TS3J27B9715KDE7M6", "dateTime": 1519665259252}, {"current_trial": 45, "trialdata": {"rt": -1, "trial_type": "single-stim", "stimulus": "<p id=\"stim\">9</p>", "internal_node_id": "0.0-35.0-1.0", "time_elapsed": 415832, "key_press": -1, "trial_index": 45}, "uniqueid": "MTK3011:3ERMJ6L4DZZF1TS3J27B9715KDE7M6", "dateTime": 1519665260256}, {"current_trial": 46, "trialdata": {"rt": -1, "trial_type": "single-stim", "stimulus": "<p id=\"stim\">8</p>", "internal_node_id": "0.0-35.0-2.0", "time_elapsed": 416834, "key_press": -1, "trial_index": 46}, "uniqueid": "MTK3011:3ERMJ6L4DZZF1TS3J27B9715KDE7M6", "dateTime": 1519665261258}, {"current_trial": 47, "trialdata": {"rt": -1, "trial_type": "single-stim", "stimulus": "<p id=\"stim\">7</p>", "internal_node_id": "0.0-35.0-3.0", "time_elapsed": 417836, "key_press": -1, "trial_index": 47}, "uniqueid": "MTK3011:3ERMJ6L4DZZF1TS3J27B9715KDE7M6", "dateTime": 1519665262260}, {"current_trial": 48, "trialdata": {"rt": -1, "trial_type": "single-stim", "stimulus": "<p id=\"stim\">6</p>", "internal_node_id": "0.0-35.0-4.0", "time_elapsed": 418839, "key_press": -1, "trial_index": 48}, "uniqueid": "MTK3011:3ERMJ6L4DZZF1TS3J27B9715KDE7M6", "dateTime": 1519665263263}, {"current_trial": 49, "trialdata": {"rt": -1, "trial_type": "single-stim", "stimulus": "<p id=\"stim\">5</p>", "internal_node_id": "0.0-35.0-5.0", "time_elapsed": 419843, "key_press": -1, "trial_index": 49}, "uniqueid": "MTK3011:3ERMJ6L4DZZF1TS3J27B9715KDE7M6", "dateTime": 1519665264267}, {"current_trial": 50, "trialdata": {"rt": -1, "trial_type": "single-stim", "stimulus": "<p id=\"stim\">4</p>", "internal_node_id": "0.0-35.0-6.0", "time_elapsed": 420844, "key_press": -1, "trial_index": 50}, "uniqueid": "MTK3011:3ERMJ6L4DZZF1TS3J27B9715KDE7M6", "dateTime": 1519665265268}, {"current_trial": 51, "trialdata": {"rt": -1, "trial_type": "single-stim", "stimulus": "<p id=\"stim\">3</p>", "internal_node_id": "0.0-35.0-7.0", "time_elapsed": 421847, "key_press": -1, "trial_index": 51}, "uniqueid": "MTK3011:3ERMJ6L4DZZF1TS3J27B9715KDE7M6", "dateTime": 1519665266271}, {"current_trial": 52, "trialdata": {"rt": -1, "trial_type": "single-stim", "stimulus": "<p id=\"stim\">2</p>", "internal_node_id": "0.0-35.0-8.0", "time_elapsed": 422849, "key_press": -1, "trial_index": 52}, "uniqueid": "MTK3011:3ERMJ6L4DZZF1TS3J27B9715KDE7M6", "dateTime": 1519665267274}, {"current_trial": 53, "trialdata": {"rt": -1, "trial_type": "single-stim", "stimulus": "<p id=\"stim\">1</p>", "internal_node_id": "0.0-35.0-9.0", "time_elapsed": 423852, "key_press": -1, "trial_index": 53}, "uniqueid": "MTK3011:3ERMJ6L4DZZF1TS3J27B9715KDE7M6", "dateTime": 1519665268276}, {"current_trial": 54, "trialdata": {"rt": -1, "trial_type": "single-stim", "stimulus": "<p id=\"stim\">+</p>", "internal_node_id": "0.0-36.0-0.0", "time_elapsed": 425356, "key_press": -1, "type": "FIXATION", "trial_index": 54}, "uniqueid": "MTK3011:3ERMJ6L4DZZF1TS3J27B9715KDE7M6", "dateTime": 1519665269780}, {"current_trial": 55, "trialdata": {"rt": -1000, "trial_type": "single-audio", "word": "valley", "stimulus": "/static/audio/wordpool/VALLEY.wav", "conditions": [18, 1200, "a", 18000], "internal_node_id": "0.0-37.0", "trial": 1, "time_elapsed": 427401, "serialpos": 0, "key_press": -1, "wordID": 1544, "type": "PRES_AUD", "trial_index": 55}, "uniqueid": "MTK3011:3ERMJ6L4DZZF1TS3J27B9715KDE7M6", "dateTime": 1519665271825}, {"current_trial": 56, "trialdata": {"rt": -1000, "trial_type": "single-audio", "word": "pistol", "stimulus": "/static/audio/wordpool/PISTOL.wav", "conditions": [18, 1200, "a", 18000], "internal_node_id": "0.0-38.0", "trial": 1, "time_elapsed": 429447, "serialpos": 1, "key_press": -1, "wordID": 1074, "type": "PRES_AUD", "trial_index": 56}, "uniqueid": "MTK3011:3ERMJ6L4DZZF1TS3J27B9715KDE7M6", "dateTime": 1519665273871}, {"current_trial": 57, "trialdata": {"rt": -1000, "trial_type": "single-audio", "word": "sheriff", "stimulus": "/static/audio/wordpool/SHERIFF.wav", "conditions": [18, 1200, "a", 18000], "internal_node_id": "0.0-39.0", "trial": 1, "time_elapsed": 431743, "serialpos": 2, "key_press": -1, "wordID": 1283, "type": "PRES_AUD", "trial_index": 57}, "uniqueid": "MTK3011:3ERMJ6L4DZZF1TS3J27B9715KDE7M6", "dateTime": 1519665276167}, {"current_trial": 58, "trialdata": {"rt": -1000, "trial_type": "single-audio", "word": "crown", "stimulus": "/static/audio/wordpool/CROWN.wav", "conditions": [18, 1200, "a", 18000], "internal_node_id": "0.0-40.0", "trial": 1, "time_elapsed": 433855, "serialpos": 3, "key_press": -1, "wordID": 414, "type": "PRES_AUD", "trial_index": 58}, "uniqueid": "MTK3011:3ERMJ6L4DZZF1TS3J27B9715KDE7M6", "dateTime": 1519665278279}, {"current_trial": 59, "trialdata": {"rt": -1000, "trial_type": "single-audio", "word": "message", "stimulus": "/static/audio/wordpool/MESSAGE.wav", "conditions": [18, 1200, "a", 18000], "internal_node_id": "0.0-41.0", "trial": 1, "time_elapsed": 435912, "serialpos": 4, "key_press": -1, "wordID": 887, "type": "PRES_AUD", "trial_index": 59}, "uniqueid": "MTK3011:3ERMJ6L4DZZF1TS3J27B9715KDE7M6", "dateTime": 1519665280337}, {"current_trial": 60, "trialdata": {"rt": -1000, "trial_type": "single-audio", "word": "salt", "stimulus": "/static/audio/wordpool/SALT.wav", "conditions": [18, 1200, "a", 18000], "internal_node_id": "0.0-42.0", "trial": 1, "time_elapsed": 438214, "serialpos": 5, "key_press": -1, "wordID": 1228, "type": "PRES_AUD", "trial_index": 60}, "uniqueid": "MTK3011:3ERMJ6L4DZZF1TS3J27B9715KDE7M6", "dateTime": 1519665282638}, {"current_trial": 61, "trialdata": {"rt": -1000, "trial_type": "single-audio", "word": "guard", "stimulus": "/static/audio/wordpool/GUARD.wav", "conditions": [18, 1200, "a", 18000], "internal_node_id": "0.0-43.0", "trial": 1, "time_elapsed": 440467, "serialpos": 6, "key_press": -1, "wordID": 666, "type": "PRES_AUD", "trial_index": 61}, "uniqueid": "MTK3011:3ERMJ6L4DZZF1TS3J27B9715KDE7M6", "dateTime": 1519665284891}, {"current_trial": 62, "trialdata": {"rt": -1000, "trial_type": "single-audio", "word": "beef", "stimulus": "/static/audio/wordpool/BEEF.wav", "conditions": [18, 1200, "a", 18000], "internal_node_id": "0.0-44.0", "trial": 1, "time_elapsed": 442593, "serialpos": 7, "key_press": -1, "wordID": 112, "type": "PRES_AUD", "trial_index": 62}, "uniqueid": "MTK3011:3ERMJ6L4DZZF1TS3J27B9715KDE7M6", "dateTime": 1519665287017}, {"current_trial": 63, "trialdata": {"rt": -1000, "trial_type": "single-audio", "word": "basement", "stimulus": "/static/audio/wordpool/BASEMENT.wav", "conditions": [18, 1200, "a", 18000], "internal_node_id": "0.0-45.0", "trial": 1, "time_elapsed": 444924, "serialpos": 8, "key_press": -1, "wordID": 93, "type": "PRES_AUD", "trial_index": 63}, "uniqueid": "MTK3011:3ERMJ6L4DZZF1TS3J27B9715KDE7M6", "dateTime": 1519665289348}, {"current_trial": 64, "trialdata": {"rt": -1000, "trial_type": "single-audio", "word": "toaster", "stimulus": "/static/audio/wordpool/TOASTER.wav", "conditions": [18, 1200, "a", 18000], "internal_node_id": "0.0-46.0", "trial": 1, "time_elapsed": 447089, "serialpos": 9, "key_press": -1, "wordID": 1471, "type": "PRES_AUD", "trial_index": 64}, "uniqueid": "MTK3011:3ERMJ6L4DZZF1TS3J27B9715KDE7M6", "dateTime": 1519665291513}, {"current_trial": 65, "trialdata": {"rt": -1000, "trial_type": "single-audio", "word": "plaid", "stimulus": "/static/audio/wordpool/PLAID.wav", "conditions": [18, 1200, "a", 18000], "internal_node_id": "0.0-47.0", "trial": 1, "time_elapsed": 449314, "serialpos": 10, "key_press": -1, "wordID": 1079, "type": "PRES_AUD", "trial_index": 65}, "uniqueid": "MTK3011:3ERMJ6L4DZZF1TS3J27B9715KDE7M6", "dateTime": 1519665293739}, {"current_trial": 66, "trialdata": {"rt": -1000, "trial_type": "single-audio", "word": "trout", "stimulus": "/static/audio/wordpool/TROUT.wav", "conditions": [18, 1200, "a", 18000], "internal_node_id": "0.0-48.0", "trial": 1, "time_elapsed": 451604, "serialpos": 11, "key_press": -1, "wordID": 1510, "type": "PRES_AUD", "trial_index": 66}, "uniqueid": "MTK3011:3ERMJ6L4DZZF1TS3J27B9715KDE7M6", "dateTime": 1519665296028}, {"current_trial": 67, "trialdata": {"rt": -1000, "trial_type": "single-audio", "word": "pepper", "stimulus": "/static/audio/wordpool/PEPPER.wav", "conditions": [18, 1200, "a", 18000], "internal_node_id": "0.0-49.0", "trial": 1, "time_elapsed": 453864, "serialpos": 12, "key_press": -1, "wordID": 1046, "type": "PRES_AUD", "trial_index": 67}, "uniqueid": "MTK3011:3ERMJ6L4DZZF1TS3J27B9715KDE7M6", "dateTime": 1519665298288}, {"current_trial": 68, "trialdata": {"rt": -1000, "trial_type": "single-audio", "word": "daisy", "stimulus": "/static/audio/wordpool/DAISY.wav", "conditions": [18, 1200, "a", 18000], "internal_node_id": "0.0-50.0", "trial": 1, "time_elapsed": 456229, "serialpos": 13, "key_press": -1, "wordID": 434, "type": "PRES_AUD", "trial_index": 68}, "uniqueid": "MTK3011:3ERMJ6L4DZZF1TS3J27B9715KDE7M6", "dateTime": 1519665300658}, {"current_trial": 69, "trialdata": {"rt": -1000, "trial_type": "single-audio", "word": "mildew", "stimulus": "/static/audio/wordpool/MILDEW.wav", "conditions": [18, 1200, "a", 18000], "internal_node_id": "0.0-51.0", "trial": 1, "time_elapsed": 458410, "serialpos": 14, "key_press": -1, "wordID": 892, "type": "PRES_AUD", "trial_index": 69}, "uniqueid": "MTK3011:3ERMJ6L4DZZF1TS3J27B9715KDE7M6", "dateTime": 1519665302834}, {"current_trial": 70, "trialdata": {"rt": -1000, "trial_type": "single-audio", "word": "machine", "stimulus": "/static/audio/wordpool/MACHINE.wav", "conditions": [18, 1200, "a", 18000], "internal_node_id": "0.0-52.0", "trial": 1, "time_elapsed": 460740, "serialpos": 15, "key_press": -1, "wordID": 851, "type": "PRES_AUD", "trial_index": 70}, "uniqueid": "MTK3011:3ERMJ6L4DZZF1TS3J27B9715KDE7M6", "dateTime": 1519665305164}, {"current_trial": 71, "trialdata": {"rt": -1000, "trial_type": "single-audio", "word": "rebel", "stimulus": "/static/audio/wordpool/REBEL.wav", "conditions": [18, 1200, "a", 18000], "internal_node_id": "0.0-53.0", "trial": 1, "time_elapsed": 463043, "serialpos": 16, "key_press": -1, "wordID": 1171, "type": "PRES_AUD", "trial_index": 71}, "uniqueid": "MTK3011:3ERMJ6L4DZZF1TS3J27B9715KDE7M6", "dateTime": 1519665307467}, {"current_trial": 72, "trialdata": {"rt": -1000, "trial_type": "single-audio", "word": "primate", "stimulus": "/static/audio/wordpool/PRIMATE.wav", "conditions": [18, 1200, "a", 18000], "internal_node_id": "0.0-54.0", "trial": 1, "time_elapsed": 465367, "serialpos": 17, "key_press": -1, "wordID": 1122, "type": "PRES_AUD", "trial_index": 72}, "uniqueid": "MTK3011:3ERMJ6L4DZZF1TS3J27B9715KDE7M6", "dateTime": 1519665309792}, {"current_trial": 73, "trialdata": {"rt": -1, "trial_type": "single-stim", "stimulus": "", "internal_node_id": "0.0-55.0-0.0", "time_elapsed": 466669, "key_press": -1, "type": "PRE_RECALL_DELAY", "trial_index": 73}, "uniqueid": "MTK3011:3ERMJ6L4DZZF1TS3J27B9715KDE7M6", "dateTime": 1519665311093}, {"current_trial": 74, "trialdata": {"rt": -1000, "trial_type": "single-audio", "stimulus": "/static/audio/400Hz.wav", "internal_node_id": "0.0-56.0", "time_elapsed": 467170, "key_press": -1, "type": "PRE_RECALL_ALERT", "trial_index": 74}, "uniqueid": "MTK3011:3ERMJ6L4DZZF1TS3J27B9715KDE7M6", "dateTime": 1519665311594}, {"current_trial": 75, "trialdata": {"rt": [2016, 4288, 5755, 7386, 8552, 13174, 14605, 16864, 18983], "recwords": ["rebel", "primate", "machine", "salt", "pepper", "sheriff", "pistol", "basement", "mildew"], "key_times": [742, 832, 1047, 1231, 1357, 2016, 2482, 2741, 2901, 3094, 3187, 3376, 3471, 4288, 4814, 4986, 5142, 5204, 5288, 5413, 5555, 5755, 6315, 6394, 6547, 6766, 7386, 7661, 7746, 7889, 8027, 8249, 8345, 8552, 9442, 9579, 9776, 9910, 10157, 11267, 11786, 11921, 12414, 12515, 12681, 13174, 13545, 13727, 13823, 14054, 14155, 14332, 14605, 15579, 15730, 15847, 16006, 16289, 16379, 16501, 16631, 16864, 17500, 17675, 17784, 17987, 18342, 18475, 18983], "trial_type": "free-recall", "conditions": [18, 1200, "a", 18000], "internal_node_id": "0.0-57.0-0.0", "key_presses": [82, 69, 66, 69, 76, 13, 80, 82, 73, 77, 65, 84, 69, 13, 77, 65, 67, 72, 73, 78, 69, 13, 83, 65, 76, 84, 13, 80, 69, 80, 80, 69, 82, 13, 83, 72, 69, 82, 82, 73, 8, 8, 73, 70, 70, 13, 80, 73, 83, 84, 79, 76, 13, 66, 65, 83, 69, 77, 69, 78, 84, 13, 77, 73, 76, 68, 69, 87, 13], "trial": 1, "time_elapsed": 527174, "type": "FREE_RECALL", "trial_index": 75}, "uniqueid": "MTK3011:3ERMJ6L4DZZF1TS3J27B9715KDE7M6", "dateTime": 1519665371601}, {"current_trial": 76, "trialdata": {"rt": 1894, "trial_type": "text", "internal_node_id": "0.0-58.0", "time_elapsed": 531076, "key_press": 74, "type": "INSTRUCTIONS", "trial_index": 76}, "uniqueid": "MTK3011:3ERMJ6L4DZZF1TS3J27B9715KDE7M6", "dateTime": 1519665375500}, {"current_trial": 77, "trialdata": {"rt": [3181, 5073, 7226, 11363, 13105, 14940, 19427], "trial_type": "math-distractor", "key_times": [3030, 3181, 4966, 5073, 6791, 7103, 7226, 11178, 11225, 11363, 12648, 12979, 13105, 14444, 14792, 14940, 19181, 19260, 19427], "responses": ["9", "9", "18", "21", "10", "18", "23"], "num2": [6, 1, 9, 9, 1, 8, 7, 5], "num3": [2, 2, 1, 7, 1, 1, 9, 7], "conditions": [24, 1600, "a", 24000], "internal_node_id": "0.0-59.0", "key_presses": [57, 13, 57, 13, 49, 56, 13, 50, 49, 13, 49, 48, 13, 49, 56, 13, 50, 51, 13], "trial": 2, "time_elapsed": 556080, "type": "DISTRACTOR", "trial_index": 77, "num1": [1, 6, 8, 5, 8, 9, 7, 8]}, "uniqueid": "MTK3011:3ERMJ6L4DZZF1TS3J27B9715KDE7M6", "dateTime": 1519665400504}, {"current_trial": 78, "trialdata": {"rt": -1, "trial_type": "single-stim", "stimulus": "<p id=\"stim\">10</p>", "internal_node_id": "0.0-60.0-0.0", "time_elapsed": 559084, "key_press": -1, "trial_index": 78}, "uniqueid": "MTK3011:3ERMJ6L4DZZF1TS3J27B9715KDE7M6", "dateTime": 1519665403508}, {"current_trial": 79, "trialdata": {"rt": -1, "trial_type": "single-stim", "stimulus": "<p id=\"stim\">9</p>", "internal_node_id": "0.0-60.0-1.0", "time_elapsed": 560086, "key_press": -1, "trial_index": 79}, "uniqueid": "MTK3011:3ERMJ6L4DZZF1TS3J27B9715KDE7M6", "dateTime": 1519665404510}, {"current_trial": 80, "trialdata": {"rt": -1, "trial_type": "single-stim", "stimulus": "<p id=\"stim\">8</p>", "internal_node_id": "0.0-60.0-2.0", "time_elapsed": 561088, "key_press": -1, "trial_index": 80}, "uniqueid": "MTK3011:3ERMJ6L4DZZF1TS3J27B9715KDE7M6", "dateTime": 1519665405512}, {"current_trial": 81, "trialdata": {"rt": -1, "trial_type": "single-stim", "stimulus": "<p id=\"stim\">7</p>", "internal_node_id": "0.0-60.0-3.0", "time_elapsed": 562091, "key_press": -1, "trial_index": 81}, "uniqueid": "MTK3011:3ERMJ6L4DZZF1TS3J27B9715KDE7M6", "dateTime": 1519665406515}, {"current_trial": 82, "trialdata": {"rt": -1, "trial_type": "single-stim", "stimulus": "<p id=\"stim\">6</p>", "internal_node_id": "0.0-60.0-4.0", "time_elapsed": 563094, "key_press": -1, "trial_index": 82}, "uniqueid": "MTK3011:3ERMJ6L4DZZF1TS3J27B9715KDE7M6", "dateTime": 1519665407518}, {"current_trial": 83, "trialdata": {"rt": -1, "trial_type": "single-stim", "stimulus": "<p id=\"stim\">5</p>", "internal_node_id": "0.0-60.0-5.0", "time_elapsed": 564095, "key_press": -1, "trial_index": 83}, "uniqueid": "MTK3011:3ERMJ6L4DZZF1TS3J27B9715KDE7M6", "dateTime": 1519665408519}, {"current_trial": 84, "trialdata": {"rt": -1, "trial_type": "single-stim", "stimulus": "<p id=\"stim\">4</p>", "internal_node_id": "0.0-60.0-6.0", "time_elapsed": 565097, "key_press": -1, "trial_index": 84}, "uniqueid": "MTK3011:3ERMJ6L4DZZF1TS3J27B9715KDE7M6", "dateTime": 1519665409521}, {"current_trial": 85, "trialdata": {"rt": -1, "trial_type": "single-stim", "stimulus": "<p id=\"stim\">3</p>", "internal_node_id": "0.0-60.0-7.0", "time_elapsed": 566100, "key_press": -1, "trial_index": 85}, "uniqueid": "MTK3011:3ERMJ6L4DZZF1TS3J27B9715KDE7M6", "dateTime": 1519665410524}, {"current_trial": 86, "trialdata": {"rt": -1, "trial_type": "single-stim", "stimulus": "<p id=\"stim\">2</p>", "internal_node_id": "0.0-60.0-8.0", "time_elapsed": 567101, "key_press": -1, "trial_index": 86}, "uniqueid": "MTK3011:3ERMJ6L4DZZF1TS3J27B9715KDE7M6", "dateTime": 1519665411527}, {"current_trial": 87, "trialdata": {"rt": -1, "trial_type": "single-stim", "stimulus": "<p id=\"stim\">1</p>", "internal_node_id": "0.0-60.0-9.0", "time_elapsed": 568105, "key_press": -1, "trial_index": 87}, "uniqueid": "MTK3011:3ERMJ6L4DZZF1TS3J27B9715KDE7M6", "dateTime": 1519665412529}, {"current_trial": 88, "trialdata": {"rt": -1, "trial_type": "single-stim", "stimulus": "<p id=\"stim\">+</p>", "internal_node_id": "0.0-61.0-0.0", "time_elapsed": 569607, "key_press": -1, "type": "FIXATION", "trial_index": 88}, "uniqueid": "MTK3011:3ERMJ6L4DZZF1TS3J27B9715KDE7M6", "dateTime": 1519665414031}, {"current_trial": 89, "trialdata": {"rt": -1000, "trial_type": "single-audio", "word": "slime", "stimulus": "/static/audio/wordpool/SLIME.wav", "conditions": [24, 1600, "a", 24000], "internal_node_id": "0.0-62.0", "trial": 2, "time_elapsed": 572174, "serialpos": 0, "key_press": -1, "wordID": 1326, "type": "PRES_AUD", "trial_index": 89}, "uniqueid": "MTK3011:3ERMJ6L4DZZF1TS3J27B9715KDE7M6", "dateTime": 1519665416598}, {"current_trial": 90, "trialdata": {"rt": -1000, "trial_type": "single-audio", "word": "pigeon", "stimulus": "/static/audio/wordpool/PIGEON.wav", "conditions": [24, 1600, "a", 24000], "internal_node_id": "0.0-63.0", "trial": 2, "time_elapsed": 574602, "serialpos": 1, "key_press": -1, "wordID": 1064, "type": "PRES_AUD", "trial_index": 90}, "uniqueid": "MTK3011:3ERMJ6L4DZZF1TS3J27B9715KDE7M6", "dateTime": 1519665419027}, {"current_trial": 91, "trialdata": {"rt": -1000, "trial_type": "single-audio", "word": "pizza", "stimulus": "/static/audio/wordpool/PIZZA.wav", "conditions": [24, 1600, "a", 24000], "internal_node_id": "0.0-64.0", "trial": 2, "time_elapsed": 577047, "serialpos": 2, "key_press": -1, "wordID": 1078, "type": "PRES_AUD", "trial_index": 91}, "uniqueid": "MTK3011:3ERMJ6L4DZZF1TS3J27B9715KDE7M6", "dateTime": 1519665421471}, {"current_trial": 92, "trialdata": {"rt": -1000, "trial_type": "single-audio", "word": "salmon", "stimulus": "/static/audio/wordpool/SALMON.wav", "conditions": [24, 1600, "a", 24000], "internal_node_id": "0.0-65.0", "trial": 2, "time_elapsed": 579733, "serialpos": 3, "key_press": -1, "wordID": 1226, "type": "PRES_AUD", "trial_index": 92}, "uniqueid": "MTK3011:3ERMJ6L4DZZF1TS3J27B9715KDE7M6", "dateTime": 1519665424158}, {"current_trial": 93, "trialdata": {"rt": -1000, "trial_type": "single-audio", "word": "apron", "stimulus": "/static/audio/wordpool/APRON.wav", "conditions": [24, 1600, "a", 24000], "internal_node_id": "0.0-66.0", "trial": 2, "time_elapsed": 582163, "serialpos": 4, "key_press": -1, "wordID": 34, "type": "PRES_AUD", "trial_index": 93}, "uniqueid": "MTK3011:3ERMJ6L4DZZF1TS3J27B9715KDE7M6", "dateTime": 1519665426587}, {"current_trial": 94, "trialdata": {"rt": -1000, "trial_type": "single-audio", "word": "shelf", "stimulus": "/static/audio/wordpool/SHELF.wav", "conditions": [24, 1600, "a", 24000], "internal_node_id": "0.0-67.0", "trial": 2, "time_elapsed": 584761, "serialpos": 5, "key_press": -1, "wordID": 1279, "type": "PRES_AUD", "trial_index": 94}, "uniqueid": "MTK3011:3ERMJ6L4DZZF1TS3J27B9715KDE7M6", "dateTime": 1519665429185}, {"current_trial": 95, "trialdata": {"rt": -1000, "trial_type": "single-audio", "word": "sticker", "stimulus": "/static/audio/wordpool/STICKER.wav", "conditions": [24, 1600, "a", 24000], "internal_node_id": "0.0-68.0", "trial": 2, "time_elapsed": 587189, "serialpos": 6, "key_press": -1, "wordID": 1381, "type": "PRES_AUD", "trial_index": 95}, "uniqueid": "MTK3011:3ERMJ6L4DZZF1TS3J27B9715KDE7M6", "dateTime": 1519665431614}, {"current_trial": 96, "trialdata": {"rt": -1000, "trial_type": "single-audio", "word": "pilot", "stimulus": "/static/audio/wordpool/PILOT.wav", "conditions": [24, 1600, "a", 24000], "internal_node_id": "0.0-69.0", "trial": 2, "time_elapsed": 589780, "serialpos": 7, "key_press": -1, "wordID": 1069, "type": "PRES_AUD", "trial_index": 96}, "uniqueid": "MTK3011:3ERMJ6L4DZZF1TS3J27B9715KDE7M6", "dateTime": 1519665434207}, {"current_trial": 97, "trialdata": {"rt": -1000, "trial_type": "single-audio", "word": "snack", "stimulus": "/static/audio/wordpool/SNACK.wav", "conditions": [24, 1600, "a", 24000], "internal_node_id": "0.0-70.0", "trial": 2, "time_elapsed": 592571, "serialpos": 8, "key_press": -1, "wordID": 1330, "type": "PRES_AUD", "trial_index": 97}, "uniqueid": "MTK3011:3ERMJ6L4DZZF1TS3J27B9715KDE7M6", "dateTime": 1519665436995}, {"current_trial": 98, "trialdata": {"rt": -1000, "trial_type": "single-audio", "word": "lunch", "stimulus": "/static/audio/wordpool/LUNCH.wav", "conditions": [24, 1600, "a", 24000], "internal_node_id": "0.0-71.0", "trial": 2, "time_elapsed": 594971, "serialpos": 9, "key_press": -1, "wordID": 848, "type": "PRES_AUD", "trial_index": 98}, "uniqueid": "MTK3011:3ERMJ6L4DZZF1TS3J27B9715KDE7M6", "dateTime": 1519665439396}, {"current_trial": 99, "trialdata": {"rt": -1000, "trial_type": "single-audio", "word": "hook", "stimulus": "/static/audio/wordpool/HOOK.wav", "conditions": [24, 1600, "a", 24000], "internal_node_id": "0.0-72.0", "trial": 2, "time_elapsed": 597379, "serialpos": 10, "key_press": -1, "wordID": 714, "type": "PRES_AUD", "trial_index": 99}, "uniqueid": "MTK3011:3ERMJ6L4DZZF1TS3J27B9715KDE7M6", "dateTime": 1519665441804}, {"current_trial": 100, "trialdata": {"rt": -1000, "trial_type": "single-audio", "word": "fox", "stimulus": "/static/audio/wordpool/FOX.wav", "conditions": [24, 1600, "a", 24000], "internal_node_id": "0.0-73.0", "trial": 2, "time_elapsed": 600112, "serialpos": 11, "key_press": -1, "wordID": 597, "type": "PRES_AUD", "trial_index": 100}, "uniqueid": "MTK3011:3ERMJ6L4DZZF1TS3J27B9715KDE7M6", "dateTime": 1519665444537}, {"current_trial": 101, "trialdata": {"rt": -1000, "trial_type": "single-audio", "word": "shrub", "stimulus": "/static/audio/wordpool/SHRUB.wav", "conditions": [24, 1600, "a", 24000], "internal_node_id": "0.0-74.0", "trial": 2, "time_elapsed": 602608, "serialpos": 12, "key_press": -1, "wordID": 1298, "type": "PRES_AUD", "trial_index": 101}, "uniqueid": "MTK3011:3ERMJ6L4DZZF1TS3J27B9715KDE7M6", "dateTime": 1519665447032}, {"current_trial": 102, "trialdata": {"rt": -1000, "trial_type": "single-audio", "word": "termite", "stimulus": "/static/audio/wordpool/TERMITE.wav", "conditions": [24, 1600, "a", 24000], "internal_node_id": "0.0-75.0", "trial": 2, "time_elapsed": 605100, "serialpos": 13, "key_press": -1, "wordID": 1450, "type": "PRES_AUD", "trial_index": 102}, "uniqueid": "MTK3011:3ERMJ6L4DZZF1TS3J27B9715KDE7M6", "dateTime": 1519665449525}, {"current_trial": 103, "trialdata": {"rt": -1000, "trial_type": "single-audio", "word": "dress", "stimulus": "/static/audio/wordpool/DRESS.wav", "conditions": [24, 1600, "a", 24000], "internal_node_id": "0.0-76.0", "trial": 2, "time_elapsed": 607723, "serialpos": 14, "key_press": -1, "wordID": 494, "type": "PRES_AUD", "trial_index": 103}, "uniqueid": "MTK3011:3ERMJ6L4DZZF1TS3J27B9715KDE7M6", "dateTime": 1519665452147}, {"current_trial": 104, "trialdata": {"rt": -1000, "trial_type": "single-audio", "word": "skirt", "stimulus": "/static/audio/wordpool/SKIRT.wav", "conditions": [24, 1600, "a", 24000], "internal_node_id": "0.0-77.0", "trial": 2, "time_elapsed": 610182, "serialpos": 15, "key_press": -1, "wordID": 1318, "type": "PRES_AUD", "trial_index": 104}, "uniqueid": "MTK3011:3ERMJ6L4DZZF1TS3J27B9715KDE7M6", "dateTime": 1519665454606}, {"current_trial": 105, "trialdata": {"rt": -1000, "trial_type": "single-audio", "word": "glove", "stimulus": "/static/audio/wordpool/GLOVE.wav", "conditions": [24, 1600, "a", 24000], "internal_node_id": "0.0-78.0", "trial": 2, "time_elapsed": 612731, "serialpos": 16, "key_press": -1, "wordID": 641, "type": "PRES_AUD", "trial_index": 105}, "uniqueid": "MTK3011:3ERMJ6L4DZZF1TS3J27B9715KDE7M6", "dateTime": 1519665457155}, {"current_trial": 106, "trialdata": {"rt": -1000, "trial_type": "single-audio", "word": "swamp", "stimulus": "/static/audio/wordpool/SWAMP.wav", "conditions": [24, 1600, "a", 24000], "internal_node_id": "0.0-79.0", "trial": 2, "time_elapsed": 615425, "serialpos": 17, "key_press": -1, "wordID": 1415, "type": "PRES_AUD", "trial_index": 106}, "uniqueid": "MTK3011:3ERMJ6L4DZZF1TS3J27B9715KDE7M6", "dateTime": 1519665459849}, {"current_trial": 107, "trialdata": {"rt": -1000, "trial_type": "single-audio", "word": "couch", "stimulus": "/static/audio/wordpool/COUCH.wav", "conditions": [24, 1600, "a", 24000], "internal_node_id": "0.0-80.0", "trial": 2, "time_elapsed": 618216, "serialpos": 18, "key_press": -1, "wordID": 385, "type": "PRES_AUD", "trial_index": 107}, "uniqueid": "MTK3011:3ERMJ6L4DZZF1TS3J27B9715KDE7M6", "dateTime": 1519665462640}, {"current_trial": 108, "trialdata": {"rt": -1000, "trial_type": "single-audio", "word": "patrol", "stimulus": "/static/audio/wordpool/PATROL.wav", "conditions": [24, 1600, "a", 24000], "internal_node_id": "0.0-81.0", "trial": 2, "time_elapsed": 620662, "serialpos": 19, "key_press": -1, "wordID": 1026, "type": "PRES_AUD", "trial_index": 108}, "uniqueid": "MTK3011:3ERMJ6L4DZZF1TS3J27B9715KDE7M6", "dateTime": 1519665465086}, {"current_trial": 109, "trialdata": {"rt": -1000, "trial_type": "single-audio", "word": "flower", "stimulus": "/static/audio/wordpool/FLOWER.wav", "conditions": [24, 1600, "a", 24000], "internal_node_id": "0.0-82.0", "trial": 2, "time_elapsed": 623238, "serialpos": 20, "key_press": -1, "wordID": 583, "type": "PRES_AUD", "trial_index": 109}, "uniqueid": "MTK3011:3ERMJ6L4DZZF1TS3J27B9715KDE7M6", "dateTime": 1519665467662}, {"current_trial": 110, "trialdata": {"rt": -1000, "trial_type": "single-audio", "word": "cocoon", "stimulus": "/static/audio/wordpool/COCOON.wav", "conditions": [24, 1600, "a", 24000], "internal_node_id": "0.0-83.0", "trial": 2, "time_elapsed": 625755, "serialpos": 21, "key_press": -1, "wordID": 338, "type": "PRES_AUD", "trial_index": 110}, "uniqueid": "MTK3011:3ERMJ6L4DZZF1TS3J27B9715KDE7M6", "dateTime": 1519665470179}, {"current_trial": 111, "trialdata": {"rt": -1000, "trial_type": "single-audio", "word": "hornet", "stimulus": "/static/audio/wordpool/HORNET.wav", "conditions": [24, 1600, "a", 24000], "internal_node_id": "0.0-84.0", "trial": 2, "time_elapsed": 628490, "serialpos": 22, "key_press": -1, "wordID": 717, "type": "PRES_AUD", "trial_index": 111}, "uniqueid": "MTK3011:3ERMJ6L4DZZF1TS3J27B9715KDE7M6", "dateTime": 1519665472914}, {"current_trial": 112, "trialdata": {"rt": -1000, "trial_type": "single-audio", "word": "orchid", "stimulus": "/static/audio/wordpool/ORCHID.wav", "conditions": [24, 1600, "a", 24000], "internal_node_id": "0.0-85.0", "trial": 2, "time_elapsed": 630938, "serialpos": 23, "key_press": -1, "wordID": 981, "type": "PRES_AUD", "trial_index": 112}, "uniqueid": "MTK3011:3ERMJ6L4DZZF1TS3J27B9715KDE7M6", "dateTime": 1519665475363}, {"current_trial": 113, "trialdata": {"rt": -1, "trial_type": "single-stim", "stimulus": "", "internal_node_id": "0.0-86.0-0.0", "time_elapsed": 632276, "key_press": -1, "type": "PRE_RECALL_DELAY", "trial_index": 113}, "uniqueid": "MTK3011:3ERMJ6L4DZZF1TS3J27B9715KDE7M6", "dateTime": 1519665476700}, {"current_trial": 114, "trialdata": {"rt": -1000, "trial_type": "single-audio", "stimulus": "/static/audio/400Hz.wav", "internal_node_id": "0.0-87.0", "time_elapsed": 632779, "key_press": -1, "type": "PRE_RECALL_ALERT", "trial_index": 114}, "uniqueid": "MTK3011:3ERMJ6L4DZZF1TS3J27B9715KDE7M6", "dateTime": 1519665477203}, {"current_trial": 115, "trialdata": {"rt": [2152, 4418, 6993, 14208, 17002, 23494, 24428, 25397], "recwords": ["orchid", "hornet", "cocoon", "slime", "pigeon", "dress", "skirt", "glove"], "key_times": [1131, 1278, 1508, 1591, 1710, 1818, 2152, 2659, 2819, 3587, 3790, 3891, 4045, 4125, 4225, 4418, 5019, 5925, 6137, 6247, 6388, 6586, 6993, 13518, 13623, 13707, 13869, 14013, 14208, 15554, 16065, 16176, 16379, 16586, 16665, 17002, 22637, 22846, 22942, 23174, 23322, 23494, 23822, 23944, 24147, 24226, 24306, 24428, 24847, 24938, 25116, 25158, 25280, 25397], "trial_type": "free-recall", "conditions": [24, 1600, "a", 24000], "internal_node_id": "0.0-88.0-0.0", "key_presses": [79, 82, 67, 72, 73, 68, 13, 72, 73, 8, 79, 82, 78, 69, 84, 13, 67, 79, 67, 79, 79, 78, 13, 83, 76, 73, 77, 69, 13, 80, 73, 71, 69, 79, 78, 13, 68, 82, 69, 83, 83, 13, 83, 75, 73, 82, 84, 13, 71, 76, 79, 86, 69, 13], "trial": 2, "time_elapsed": 692782, "type": "FREE_RECALL", "trial_index": 115}, "uniqueid": "MTK3011:3ERMJ6L4DZZF1TS3J27B9715KDE7M6", "dateTime": 1519665537210}, {"current_trial": 116, "trialdata": {"rt": 2736, "trial_type": "text", "internal_node_id": "0.0-89.0", "time_elapsed": 697524, "key_press": 75, "type": "INSTRUCTIONS", "trial_index": 116}, "uniqueid": "MTK3011:3ERMJ6L4DZZF1TS3J27B9715KDE7M6", "dateTime": 1519665541948}, {"current_trial": 117, "trialdata": {"rt": [8740], "trial_type": "math-distractor", "key_times": [7788, 8526, 8740, 11153, 11628], "responses": ["26"], "num2": [9, 6], "num3": [8, 5], "conditions": [12, 800, "a", 12000], "internal_node_id": "0.0-90.0", "key_presses": [50, 54, 13, 49, 53], "trial": 3, "time_elapsed": 711531, "type": "DISTRACTOR", "trial_index": 117, "num1": [9, 4]}, "uniqueid": "MTK3011:3ERMJ6L4DZZF1TS3J27B9715KDE7M6", "dateTime": 1519665555955}, {"current_trial": 118, "trialdata": {"rt": -1, "trial_type": "single-stim", "stimulus": "<p id=\"stim\">10</p>", "internal_node_id": "0.0-91.0-0.0", "time_elapsed": 714535, "key_press": -1, "trial_index": 118}, "uniqueid": "MTK3011:3ERMJ6L4DZZF1TS3J27B9715KDE7M6", "dateTime": 1519665558959}, {"current_trial": 119, "trialdata": {"rt": -1, "trial_type": "single-stim", "stimulus": "<p id=\"stim\">9</p>", "internal_node_id": "0.0-91.0-1.0", "time_elapsed": 715537, "key_press": -1, "trial_index": 119}, "uniqueid": "MTK3011:3ERMJ6L4DZZF1TS3J27B9715KDE7M6", "dateTime": 1519665559961}, {"current_trial": 120, "trialdata": {"rt": -1, "trial_type": "single-stim", "stimulus": "<p id=\"stim\">8</p>", "internal_node_id": "0.0-91.0-2.0", "time_elapsed": 716540, "key_press": -1, "trial_index": 120}, "uniqueid": "MTK3011:3ERMJ6L4DZZF1TS3J27B9715KDE7M6", "dateTime": 1519665560964}, {"current_trial": 121, "trialdata": {"rt": -1, "trial_type": "single-stim", "stimulus": "<p id=\"stim\">7</p>", "internal_node_id": "0.0-91.0-3.0", "time_elapsed": 717543, "key_press": -1, "trial_index": 121}, "uniqueid": "MTK3011:3ERMJ6L4DZZF1TS3J27B9715KDE7M6", "dateTime": 1519665561967}, {"current_trial": 122, "trialdata": {"rt": -1, "trial_type": "single-stim", "stimulus": "<p id=\"stim\">6</p>", "internal_node_id": "0.0-91.0-4.0", "time_elapsed": 718544, "key_press": -1, "trial_index": 122}, "uniqueid": "MTK3011:3ERMJ6L4DZZF1TS3J27B9715KDE7M6", "dateTime": 1519665562968}, {"current_trial": 123, "trialdata": {"rt": -1, "trial_type": "single-stim", "stimulus": "<p id=\"stim\">5</p>", "internal_node_id": "0.0-91.0-5.0", "time_elapsed": 719548, "key_press": -1, "trial_index": 123}, "uniqueid": "MTK3011:3ERMJ6L4DZZF1TS3J27B9715KDE7M6", "dateTime": 1519665563972}, {"current_trial": 124, "trialdata": {"rt": -1, "trial_type": "single-stim", "stimulus": "<p id=\"stim\">4</p>", "internal_node_id": "0.0-91.0-6.0", "time_elapsed": 720551, "key_press": -1, "trial_index": 124}, "uniqueid": "MTK3011:3ERMJ6L4DZZF1TS3J27B9715KDE7M6", "dateTime": 1519665564975}, {"current_trial": 125, "trialdata": {"rt": -1, "trial_type": "single-stim", "stimulus": "<p id=\"stim\">3</p>", "internal_node_id": "0.0-91.0-7.0", "time_elapsed": 721552, "key_press": -1, "trial_index": 125}, "uniqueid": "MTK3011:3ERMJ6L4DZZF1TS3J27B9715KDE7M6", "dateTime": 1519665565976}, {"current_trial": 126, "trialdata": {"rt": -1, "trial_type": "single-stim", "stimulus": "<p id=\"stim\">2</p>", "internal_node_id": "0.0-91.0-8.0", "time_elapsed": 722556, "key_press": -1, "trial_index": 126}, "uniqueid": "MTK3011:3ERMJ6L4DZZF1TS3J27B9715KDE7M6", "dateTime": 1519665566980}, {"current_trial": 127, "trialdata": {"rt": -1, "trial_type": "single-stim", "stimulus": "<p id=\"stim\">1</p>", "internal_node_id": "0.0-91.0-9.0", "time_elapsed": 723558, "key_press": -1, "trial_index": 127}, "uniqueid": "MTK3011:3ERMJ6L4DZZF1TS3J27B9715KDE7M6", "dateTime": 1519665567982}, {"current_trial": 128, "trialdata": {"rt": -1, "trial_type": "single-stim", "stimulus": "<p id=\"stim\">+</p>", "internal_node_id": "0.0-92.0-0.0", "time_elapsed": 725059, "key_press": -1, "type": "FIXATION", "trial_index": 128}, "uniqueid": "MTK3011:3ERMJ6L4DZZF1TS3J27B9715KDE7M6", "dateTime": 1519665569484}, {"current_trial": 129, "trialdata": {"rt": -1000, "trial_type": "single-audio", "word": "cook", "stimulus": "/static/audio/wordpool/COOK.wav", "conditions": [12, 800, "a", 12000], "internal_node_id": "0.0-93.0", "trial": 3, "time_elapsed": 726783, "serialpos": 0, "key_press": -1, "wordID": 371, "type": "PRES_AUD", "trial_index": 129}, "uniqueid": "MTK3011:3ERMJ6L4DZZF1TS3J27B9715KDE7M6", "dateTime": 1519665571207}, {"current_trial": 130, "trialdata": {"rt": -1000, "trial_type": "single-audio", "word": "knife", "stimulus": "/static/audio/wordpool/KNIFE.wav", "conditions": [12, 800, "a", 12000], "internal_node_id": "0.0-94.0", "trial": 3, "time_elapsed": 728691, "serialpos": 1, "key_press": -1, "wordID": 784, "type": "PRES_AUD", "trial_index": 130}, "uniqueid": "MTK3011:3ERMJ6L4DZZF1TS3J27B9715KDE7M6", "dateTime": 1519665573115}, {"current_trial": 131, "trialdata": {"rt": -1000, "trial_type": "single-audio", "word": "canal", "stimulus": "/static/audio/wordpool/CANAL.wav", "conditions": [12, 800, "a", 12000], "internal_node_id": "0.0-95.0", "trial": 3, "time_elapsed": 730643, "serialpos": 2, "key_press": -1, "wordID": 225, "type": "PRES_AUD", "trial_index": 131}, "uniqueid": "MTK3011:3ERMJ6L4DZZF1TS3J27B9715KDE7M6", "dateTime": 1519665575067}, {"current_trial": 132, "trialdata": {"rt": -1000, "trial_type": "single-audio", "word": "airport", "stimulus": "/static/audio/wordpool/AIRPORT.wav", "conditions": [12, 800, "a", 12000], "internal_node_id": "0.0-96.0", "trial": 3, "time_elapsed": 732594, "serialpos": 3, "key_press": -1, "wordID": 12, "type": "PRES_AUD", "trial_index": 132}, "uniqueid": "MTK3011:3ERMJ6L4DZZF1TS3J27B9715KDE7M6", "dateTime": 1519665577018}, {"current_trial": 133, "trialdata": {"rt": -1000, "trial_type": "single-audio", "word": "sparrow", "stimulus": "/static/audio/wordpool/SPARROW.wav", "conditions": [12, 800, "a", 12000], "internal_node_id": "0.0-97.0", "trial": 3, "time_elapsed": 734454, "serialpos": 4, "key_press": -1, "wordID": 1346, "type": "PRES_AUD", "trial_index": 133}, "uniqueid": "MTK3011:3ERMJ6L4DZZF1TS3J27B9715KDE7M6", "dateTime": 1519665578878}, {"current_trial": 134, "trialdata": {"rt": -1000, "trial_type": "single-audio", "word": "washer", "stimulus": "/static/audio/wordpool/WASHER.wav", "conditions": [12, 800, "a", 12000], "internal_node_id": "0.0-98.0", "trial": 3, "time_elapsed": 736322, "serialpos": 5, "key_press": -1, "wordID": 1591, "type": "PRES_AUD", "trial_index": 134}, "uniqueid": "MTK3011:3ERMJ6L4DZZF1TS3J27B9715KDE7M6", "dateTime": 1519665580746}, {"current_trial": 135, "trialdata": {"rt": -1000, "trial_type": "single-audio", "word": "bike", "stimulus": "/static/audio/wordpool/BIKE.wav", "conditions": [12, 800, "a", 12000], "internal_node_id": "0.0-99.0", "trial": 3, "time_elapsed": 738101, "serialpos": 6, "key_press": -1, "wordID": 124, "type": "PRES_AUD", "trial_index": 135}, "uniqueid": "MTK3011:3ERMJ6L4DZZF1TS3J27B9715KDE7M6", "dateTime": 1519665582526}, {"current_trial": 136, "trialdata": {"rt": -1000, "trial_type": "single-audio", "word": "shorts", "stimulus": "/static/audio/wordpool/SHORTS.wav", "conditions": [12, 800, "a", 12000], "internal_node_id": "0.0-100.0", "trial": 3, "time_elapsed": 739788, "serialpos": 7, "key_press": -1, "wordID": 1292, "type": "PRES_AUD", "trial_index": 136}, "uniqueid": "MTK3011:3ERMJ6L4DZZF1TS3J27B9715KDE7M6", "dateTime": 1519665584213}, {"current_trial": 137, "trialdata": {"rt": -1000, "trial_type": "single-audio", "word": "uncle", "stimulus": "/static/audio/wordpool/UNCLE.wav", "conditions": [12, 800, "a", 12000], "internal_node_id": "0.0-101.0", "trial": 3, "time_elapsed": 741716, "serialpos": 8, "key_press": -1, "wordID": 1535, "type": "PRES_AUD", "trial_index": 137}, "uniqueid": "MTK3011:3ERMJ6L4DZZF1TS3J27B9715KDE7M6", "dateTime": 1519665586140}, {"current_trial": 138, "trialdata": {"rt": -1000, "trial_type": "single-audio", "word": "silk", "stimulus": "/static/audio/wordpool/SILK.wav", "conditions": [12, 800, "a", 12000], "internal_node_id": "0.0-102.0", "trial": 3, "time_elapsed": 743659, "serialpos": 9, "key_press": -1, "wordID": 1306, "type": "PRES_AUD", "trial_index": 138}, "uniqueid": "MTK3011:3ERMJ6L4DZZF1TS3J27B9715KDE7M6", "dateTime": 1519665588084}, {"current_trial": 139, "trialdata": {"rt": -1000, "trial_type": "single-audio", "word": "lace", "stimulus": "/static/audio/wordpool/LACE.wav", "conditions": [12, 800, "a", 12000], "internal_node_id": "0.0-103.0", "trial": 3, "time_elapsed": 745647, "serialpos": 10, "key_press": -1, "wordID": 791, "type": "PRES_AUD", "trial_index": 139}, "uniqueid": "MTK3011:3ERMJ6L4DZZF1TS3J27B9715KDE7M6", "dateTime": 1519665590071}, {"current_trial": 140, "trialdata": {"rt": -1000, "trial_type": "single-audio", "word": "robin", "stimulus": "/static/audio/wordpool/ROBIN.wav", "conditions": [12, 800, "a", 12000], "internal_node_id": "0.0-104.0", "trial": 3, "time_elapsed": 747472, "serialpos": 11, "key_press": -1, "wordID": 1198, "type": "PRES_AUD", "trial_index": 140}, "uniqueid": "MTK3011:3ERMJ6L4DZZF1TS3J27B9715KDE7M6", "dateTime": 1519665591896}, {"current_trial": 141, "trialdata": {"rt": -1, "trial_type": "single-stim", "stimulus": "", "internal_node_id": "0.0-105.0-0.0", "time_elapsed": 748789, "key_press": -1, "type": "PRE_RECALL_DELAY", "trial_index": 141}, "uniqueid": "MTK3011:3ERMJ6L4DZZF1TS3J27B9715KDE7M6", "dateTime": 1519665593215}, {"current_trial": 142, "trialdata": {"rt": -1000, "trial_type": "single-audio", "stimulus": "/static/audio/400Hz.wav", "internal_node_id": "0.0-106.0", "time_elapsed": 749292, "key_press": -1, "type": "PRE_RECALL_ALERT", "trial_index": 142}, "uniqueid": "MTK3011:3ERMJ6L4DZZF1TS3J27B9715KDE7M6", "dateTime": 1519665593717}, {"current_trial": 143, "trialdata": {"rt": [2012, 3385, 5305, 7614, 9453, 19645, 20899, 22652], "recwords": ["silk", "lace", "robin", "airport", "canal", "silk", "satin", "lace"], "key_times": [931, 1254, 1482, 1717, 2012, 2081, 2223, 2901, 3043, 3385, 4110, 4513, 4678, 4841, 4927, 5305, 6450, 6628, 6728, 6897, 6950, 7157, 7253, 7614, 8215, 8369, 8512, 8699, 8841, 9453, 18925, 19083, 19178, 19395, 19645, 20071, 20171, 20369, 20506, 20554, 20899, 22175, 22227, 22434, 22556, 22652], "trial_type": "free-recall", "conditions": [12, 800, "a", 12000], "internal_node_id": "0.0-107.0-0.0", "key_presses": [83, 73, 76, 75, 32, 76, 65, 67, 69, 13, 82, 79, 66, 73, 78, 13, 65, 73, 82, 80, 79, 82, 84, 13, 67, 65, 78, 65, 76, 13, 83, 73, 76, 75, 13, 83, 65, 84, 73, 78, 13, 76, 65, 67, 69, 13], "trial": 3, "time_elapsed": 809299, "type": "FREE_RECALL", "trial_index": 143}, "uniqueid": "MTK3011:3ERMJ6L4DZZF1TS3J27B9715KDE7M6", "dateTime": 1519665653728}, {"current_trial": 144, "trialdata": {"rt": 41769, "trial_type": "text", "internal_node_id": "0.0-108.0", "time_elapsed": 853075, "key_press": 74, "type": "INSTRUCTIONS", "trial_index": 144}, "uniqueid": "MTK3011:3ERMJ6L4DZZF1TS3J27B9715KDE7M6", "dateTime": 1519665697499}, {"current_trial": 145, "trialdata": {"rt": [4282, 6991, 8603, 10425], "trial_type": "math-distractor", "key_times": [3702, 4112, 4282, 6368, 6792, 6991, 8387, 8459, 8603, 9975, 10297, 10425, 11752], "responses": ["17", "10", "12", "18"], "num2": [6, 3, 6, 7, 6], "num3": [5, 5, 4, 3, 3], "conditions": [24, 800, "a", 12000], "internal_node_id": "0.0-109.0", "key_presses": [49, 55, 13, 49, 48, 13, 49, 50, 13, 49, 56, 13, 49], "trial": 4, "time_elapsed": 867081, "type": "DISTRACTOR", "trial_index": 145, "num1": [6, 2, 2, 8, 4]}, "uniqueid": "MTK3011:3ERMJ6L4DZZF1TS3J27B9715KDE7M6", "dateTime": 1519665711505}, {"current_trial": 146, "trialdata": {"rt": -1, "trial_type": "single-stim", "stimulus": "<p id=\"stim\">10</p>", "internal_node_id": "0.0-110.0-0.0", "time_elapsed": 870084, "key_press": -1, "trial_index": 146}, "uniqueid": "MTK3011:3ERMJ6L4DZZF1TS3J27B9715KDE7M6", "dateTime": 1519665714510}, {"current_trial": 147, "trialdata": {"rt": -1, "trial_type": "single-stim", "stimulus": "<p id=\"stim\">9</p>", "internal_node_id": "0.0-110.0-1.0", "time_elapsed": 871088, "key_press": -1, "trial_index": 147}, "uniqueid": "MTK3011:3ERMJ6L4DZZF1TS3J27B9715KDE7M6", "dateTime": 1519665715512}, {"current_trial": 148, "trialdata": {"rt": -1, "trial_type": "single-stim", "stimulus": "<p id=\"stim\">8</p>", "internal_node_id": "0.0-110.0-2.0", "time_elapsed": 872090, "key_press": -1, "trial_index": 148}, "uniqueid": "MTK3011:3ERMJ6L4DZZF1TS3J27B9715KDE7M6", "dateTime": 1519665716514}, {"current_trial": 149, "trialdata": {"rt": -1, "trial_type": "single-stim", "stimulus": "<p id=\"stim\">7</p>", "internal_node_id": "0.0-110.0-3.0", "time_elapsed": 873092, "key_press": -1, "trial_index": 149}, "uniqueid": "MTK3011:3ERMJ6L4DZZF1TS3J27B9715KDE7M6", "dateTime": 1519665717516}, {"current_trial": 150, "trialdata": {"rt": -1, "trial_type": "single-stim", "stimulus": "<p id=\"stim\">6</p>", "internal_node_id": "0.0-110.0-4.0", "time_elapsed": 874095, "key_press": -1, "trial_index": 150}, "uniqueid": "MTK3011:3ERMJ6L4DZZF1TS3J27B9715KDE7M6", "dateTime": 1519665718519}, {"current_trial": 151, "trialdata": {"rt": -1, "trial_type": "single-stim", "stimulus": "<p id=\"stim\">5</p>", "internal_node_id": "0.0-110.0-5.0", "time_elapsed": 875098, "key_press": -1, "trial_index": 151}, "uniqueid": "MTK3011:3ERMJ6L4DZZF1TS3J27B9715KDE7M6", "dateTime": 1519665719522}, {"current_trial": 152, "trialdata": {"rt": -1, "trial_type": "single-stim", "stimulus": "<p id=\"stim\">4</p>", "internal_node_id": "0.0-110.0-6.0", "time_elapsed": 876101, "key_press": -1, "trial_index": 152}, "uniqueid": "MTK3011:3ERMJ6L4DZZF1TS3J27B9715KDE7M6", "dateTime": 1519665720525}, {"current_trial": 153, "trialdata": {"rt": -1, "trial_type": "single-stim", "stimulus": "<p id=\"stim\">3</p>", "internal_node_id": "0.0-110.0-7.0", "time_elapsed": 877103, "key_press": -1, "trial_index": 153}, "uniqueid": "MTK3011:3ERMJ6L4DZZF1TS3J27B9715KDE7M6", "dateTime": 1519665721527}, {"current_trial": 154, "trialdata": {"rt": -1, "trial_type": "single-stim", "stimulus": "<p id=\"stim\">2</p>", "internal_node_id": "0.0-110.0-8.0", "time_elapsed": 878104, "key_press": -1, "trial_index": 154}, "uniqueid": "MTK3011:3ERMJ6L4DZZF1TS3J27B9715KDE7M6", "dateTime": 1519665722529}, {"current_trial": 155, "trialdata": {"rt": -1, "trial_type": "single-stim", "stimulus": "<p id=\"stim\">1</p>", "internal_node_id": "0.0-110.0-9.0", "time_elapsed": 879106, "key_press": -1, "trial_index": 155}, "uniqueid": "MTK3011:3ERMJ6L4DZZF1TS3J27B9715KDE7M6", "dateTime": 1519665723531}, {"current_trial": 156, "trialdata": {"rt": -1, "trial_type": "single-stim", "stimulus": "<p id=\"stim\">+</p>", "internal_node_id": "0.0-111.0-0.0", "time_elapsed": 880609, "key_press": -1, "type": "FIXATION", "trial_index": 156}, "uniqueid": "MTK3011:3ERMJ6L4DZZF1TS3J27B9715KDE7M6", "dateTime": 1519665725033}, {"current_trial": 157, "trialdata": {"rt": -1000, "trial_type": "single-audio", "word": "marsh", "stimulus": "/static/audio/wordpool/MARSH.wav", "conditions": [24, 800, "a", 12000], "internal_node_id": "0.0-112.0", "trial": 4, "time_elapsed": 882544, "serialpos": 0, "key_press": -1, "wordID": 873, "type": "PRES_AUD", "trial_index": 157}, "uniqueid": "MTK3011:3ERMJ6L4DZZF1TS3J27B9715KDE7M6", "dateTime": 1519665726968}, {"current_trial": 158, "trialdata": {"rt": -1000, "trial_type": "single-audio", "word": "princess", "stimulus": "/static/audio/wordpool/PRINCESS.wav", "conditions": [24, 800, "a", 12000], "internal_node_id": "0.0-113.0", "trial": 4, "time_elapsed": 884452, "serialpos": 1, "key_press": -1, "wordID": 1124, "type": "PRES_AUD", "trial_index": 158}, "uniqueid": "MTK3011:3ERMJ6L4DZZF1TS3J27B9715KDE7M6", "dateTime": 1519665728876}, {"current_trial": 159, "trialdata": {"rt": -1000, "trial_type": "single-audio", "word": "match", "stimulus": "/static/audio/wordpool/MATCH.wav", "conditions": [24, 800, "a", 12000], "internal_node_id": "0.0-114.0", "trial": 4, "time_elapsed": 886073, "serialpos": 2, "key_press": -1, "wordID": 877, "type": "PRES_AUD", "trial_index": 159}, "uniqueid": "MTK3011:3ERMJ6L4DZZF1TS3J27B9715KDE7M6", "dateTime": 1519665730497}, {"current_trial": 160, "trialdata": {"rt": -1000, "trial_type": "single-audio", "word": "leg", "stimulus": "/static/audio/wordpool/LEG.wav", "conditions": [24, 800, "a", 12000], "internal_node_id": "0.0-115.0", "trial": 4, "time_elapsed": 887908, "serialpos": 3, "key_press": -1, "wordID": 808, "type": "PRES_AUD", "trial_index": 160}, "uniqueid": "MTK3011:3ERMJ6L4DZZF1TS3J27B9715KDE7M6", "dateTime": 1519665732332}, {"current_trial": 161, "trialdata": {"rt": -1000, "trial_type": "single-audio", "word": "girl", "stimulus": "/static/audio/wordpool/GIRL.wav", "conditions": [24, 800, "a", 12000], "internal_node_id": "0.0-116.0", "trial": 4, "time_elapsed": 889607, "serialpos": 4, "key_press": -1, "wordID": 636, "type": "PRES_AUD", "trial_index": 161}, "uniqueid": "MTK3011:3ERMJ6L4DZZF1TS3J27B9715KDE7M6", "dateTime": 1519665734031}, {"current_trial": 162, "trialdata": {"rt": -1000, "trial_type": "single-audio", "word": "forehead", "stimulus": "/static/audio/wordpool/FOREHEAD.wav", "conditions": [24, 800, "a", 12000], "internal_node_id": "0.0-117.0", "trial": 4, "time_elapsed": 891214, "serialpos": 5, "key_press": -1, "wordID": 591, "type": "PRES_AUD", "trial_index": 162}, "uniqueid": "MTK3011:3ERMJ6L4DZZF1TS3J27B9715KDE7M6", "dateTime": 1519665735639}, {"current_trial": 163, "trialdata": {"rt": -1000, "trial_type": "single-audio", "word": "umpire", "stimulus": "/static/audio/wordpool/UMPIRE.wav", "conditions": [24, 800, "a", 12000], "internal_node_id": "0.0-118.0", "trial": 4, "time_elapsed": 893192, "serialpos": 6, "key_press": -1, "wordID": 1534, "type": "PRES_AUD", "trial_index": 163}, "uniqueid": "MTK3011:3ERMJ6L4DZZF1TS3J27B9715KDE7M6", "dateTime": 1519665737617}, {"current_trial": 164, "trialdata": {"rt": -1000, "trial_type": "single-audio", "word": "airplane", "stimulus": "/static/audio/wordpool/AIRPLANE.wav", "conditions": [24, 800, "a", 12000], "internal_node_id": "0.0-119.0", "trial": 4, "time_elapsed": 894814, "serialpos": 7, "key_press": -1, "wordID": 11, "type": "PRES_AUD", "trial_index": 164}, "uniqueid": "MTK3011:3ERMJ6L4DZZF1TS3J27B9715KDE7M6", "dateTime": 1519665739238}, {"current_trial": 165, "trialdata": {"rt": -1000, "trial_type": "single-audio", "word": "grape", "stimulus": "/static/audio/wordpool/GRAPE.wav", "conditions": [24, 800, "a", 12000], "internal_node_id": "0.0-120.0", "trial": 4, "time_elapsed": 896698, "serialpos": 8, "key_press": -1, "wordID": 653, "type": "PRES_AUD", "trial_index": 165}, "uniqueid": "MTK3011:3ERMJ6L4DZZF1TS3J27B9715KDE7M6", "dateTime": 1519665741122}, {"current_trial": 166, "trialdata": {"rt": -1000, "trial_type": "single-audio", "word": "freckle", "stimulus": "/static/audio/wordpool/FRECKLE.wav", "conditions": [24, 800, "a", 12000], "internal_node_id": "0.0-121.0", "trial": 4, "time_elapsed": 898464, "serialpos": 9, "key_press": -1, "wordID": 601, "type": "PRES_AUD", "trial_index": 166}, "uniqueid": "MTK3011:3ERMJ6L4DZZF1TS3J27B9715KDE7M6", "dateTime": 1519665742888}, {"current_trial": 167, "trialdata": {"rt": -1000, "trial_type": "single-audio", "word": "pimple", "stimulus": "/static/audio/wordpool/PIMPLE.wav", "conditions": [24, 800, "a", 12000], "internal_node_id": "0.0-122.0", "trial": 4, "time_elapsed": 900410, "serialpos": 10, "key_press": -1, "wordID": 1070, "type": "PRES_AUD", "trial_index": 167}, "uniqueid": "MTK3011:3ERMJ6L4DZZF1TS3J27B9715KDE7M6", "dateTime": 1519665744835}, {"current_trial": 168, "trialdata": {"rt": -1000, "trial_type": "single-audio", "word": "shortcake", "stimulus": "/static/audio/wordpool/SHORTCAKE.wav", "conditions": [24, 800, "a", 12000], "internal_node_id": "0.0-123.0", "trial": 4, "time_elapsed": 902284, "serialpos": 11, "key_press": -1, "wordID": 1291, "type": "PRES_AUD", "trial_index": 168}, "uniqueid": "MTK3011:3ERMJ6L4DZZF1TS3J27B9715KDE7M6", "dateTime": 1519665746708}, {"current_trial": 169, "trialdata": {"rt": -1000, "trial_type": "single-audio", "word": "marrow", "stimulus": "/static/audio/wordpool/MARROW.wav", "conditions": [24, 800, "a", 12000], "internal_node_id": "0.0-124.0", "trial": 4, "time_elapsed": 904166, "serialpos": 12, "key_press": -1, "wordID": 871, "type": "PRES_AUD", "trial_index": 169}, "uniqueid": "MTK3011:3ERMJ6L4DZZF1TS3J27B9715KDE7M6", "dateTime": 1519665748590}, {"current_trial": 170, "trialdata": {"rt": -1000, "trial_type": "single-audio", "word": "liver", "stimulus": "/static/audio/wordpool/LIVER.wav", "conditions": [24, 800, "a", 12000], "internal_node_id": "0.0-125.0", "trial": 4, "time_elapsed": 906116, "serialpos": 13, "key_press": -1, "wordID": 832, "type": "PRES_AUD", "trial_index": 170}, "uniqueid": "MTK3011:3ERMJ6L4DZZF1TS3J27B9715KDE7M6", "dateTime": 1519665750540}, {"current_trial": 171, "trialdata": {"rt": -1000, "trial_type": "single-audio", "word": "zebra", "stimulus": "/static/audio/wordpool/ZEBRA.wav", "conditions": [24, 800, "a", 12000], "internal_node_id": "0.0-126.0", "trial": 4, "time_elapsed": 908072, "serialpos": 14, "key_press": -1, "wordID": 1634, "type": "PRES_AUD", "trial_index": 171}, "uniqueid": "MTK3011:3ERMJ6L4DZZF1TS3J27B9715KDE7M6", "dateTime": 1519665752497}, {"current_trial": 172, "trialdata": {"rt": -1000, "trial_type": "single-audio", "word": "lightning", "stimulus": "/static/audio/wordpool/LIGHTNING.wav", "conditions": [24, 800, "a", 12000], "internal_node_id": "0.0-127.0", "trial": 4, "time_elapsed": 909697, "serialpos": 15, "key_press": -1, "wordID": 819, "type": "PRES_AUD", "trial_index": 172}, "uniqueid": "MTK3011:3ERMJ6L4DZZF1TS3J27B9715KDE7M6", "dateTime": 1519665754122}, {"current_trial": 173, "trialdata": {"rt": -1000, "trial_type": "single-audio", "word": "neutron", "stimulus": "/static/audio/wordpool/NEUTRON.wav", "conditions": [24, 800, "a", 12000], "internal_node_id": "0.0-128.0", "trial": 4, "time_elapsed": 911316, "serialpos": 16, "key_press": -1, "wordID": 946, "type": "PRES_AUD", "trial_index": 173}, "uniqueid": "MTK3011:3ERMJ6L4DZZF1TS3J27B9715KDE7M6", "dateTime": 1519665755740}, {"current_trial": 174, "trialdata": {"rt": -1000, "trial_type": "single-audio", "word": "tribe", "stimulus": "/static/audio/wordpool/TRIBE.wav", "conditions": [24, 800, "a", 12000], "internal_node_id": "0.0-129.0", "trial": 4, "time_elapsed": 913135, "serialpos": 17, "key_press": -1, "wordID": 1504, "type": "PRES_AUD", "trial_index": 174}, "uniqueid": "MTK3011:3ERMJ6L4DZZF1TS3J27B9715KDE7M6", "dateTime": 1519665757559}, {"current_trial": 175, "trialdata": {"rt": -1000, "trial_type": "single-audio", "word": "bureau", "stimulus": "/static/audio/wordpool/BUREAU.wav", "conditions": [24, 800, "a", 12000], "internal_node_id": "0.0-130.0", "trial": 4, "time_elapsed": 914740, "serialpos": 18, "key_press": -1, "wordID": 198, "type": "PRES_AUD", "trial_index": 175}, "uniqueid": "MTK3011:3ERMJ6L4DZZF1TS3J27B9715KDE7M6", "dateTime": 1519665759164}, {"current_trial": 176, "trialdata": {"rt": -1000, "trial_type": "single-audio", "word": "bison", "stimulus": "/static/audio/wordpool/BISON.wav", "conditions": [24, 800, "a", 12000], "internal_node_id": "0.0-131.0", "trial": 4, "time_elapsed": 916497, "serialpos": 19, "key_press": -1, "wordID": 130, "type": "PRES_AUD", "trial_index": 176}, "uniqueid": "MTK3011:3ERMJ6L4DZZF1TS3J27B9715KDE7M6", "dateTime": 1519665760921}, {"current_trial": 177, "trialdata": {"rt": -1000, "trial_type": "single-audio", "word": "oyster", "stimulus": "/static/audio/wordpool/OYSTER.wav", "conditions": [24, 800, "a", 12000], "internal_node_id": "0.0-132.0", "trial": 4, "time_elapsed": 918348, "serialpos": 20, "key_press": -1, "wordID": 994, "type": "PRES_AUD", "trial_index": 177}, "uniqueid": "MTK3011:3ERMJ6L4DZZF1TS3J27B9715KDE7M6", "dateTime": 1519665762772}, {"current_trial": 178, "trialdata": {"rt": -1000, "trial_type": "single-audio", "word": "drill", "stimulus": "/static/audio/wordpool/DRILL.wav", "conditions": [24, 800, "a", 12000], "internal_node_id": "0.0-133.0", "trial": 4, "time_elapsed": 920048, "serialpos": 21, "key_press": -1, "wordID": 496, "type": "PRES_AUD", "trial_index": 178}, "uniqueid": "MTK3011:3ERMJ6L4DZZF1TS3J27B9715KDE7M6", "dateTime": 1519665764473}, {"current_trial": 179, "trialdata": {"rt": -1000, "trial_type": "single-audio", "word": "leopard", "stimulus": "/static/audio/wordpool/LEOPARD.wav", "conditions": [24, 800, "a", 12000], "internal_node_id": "0.0-134.0", "trial": 4, "time_elapsed": 921688, "serialpos": 22, "key_press": -1, "wordID": 811, "type": "PRES_AUD", "trial_index": 179}, "uniqueid": "MTK3011:3ERMJ6L4DZZF1TS3J27B9715KDE7M6", "dateTime": 1519665766113}, {"current_trial": 180, "trialdata": {"rt": -1000, "trial_type": "single-audio", "word": "bullet", "stimulus": "/static/audio/wordpool/BULLET.wav", "conditions": [24, 800, "a", 12000], "internal_node_id": "0.0-135.0", "trial": 4, "time_elapsed": 923363, "serialpos": 23, "key_press": -1, "wordID": 193, "type": "PRES_AUD", "trial_index": 180}, "uniqueid": "MTK3011:3ERMJ6L4DZZF1TS3J27B9715KDE7M6", "dateTime": 1519665767787}, {"current_trial": 181, "trialdata": {"rt": -1, "trial_type": "single-stim", "stimulus": "", "internal_node_id": "0.0-136.0-0.0", "time_elapsed": 924739, "key_press": -1, "type": "PRE_RECALL_DELAY", "trial_index": 181}, "uniqueid": "MTK3011:3ERMJ6L4DZZF1TS3J27B9715KDE7M6", "dateTime": 1519665769164}, {"current_trial": 182, "trialdata": {"rt": -1000, "trial_type": "single-audio", "stimulus": "/static/audio/400Hz.wav", "internal_node_id": "0.0-137.0", "time_elapsed": 925241, "key_press": -1, "type": "PRE_RECALL_ALERT", "trial_index": 182}, "uniqueid": "MTK3011:3ERMJ6L4DZZF1TS3J27B9715KDE7M6", "dateTime": 1519665769665}, {"current_trial": 183, "trialdata": {"rt": [2151, 3924, 5091, 6341, 9706, 11233, 15151], "recwords": ["bison", "leopard", "drill", "bullet", "forehead", "liver", "airport"], "key_times": [1010, 1230, 1426, 1495, 1564, 2151, 2523, 2832, 3041, 3132, 3344, 3554, 3688, 3924, 4224, 4407, 4514, 4717, 4853, 5091, 5428, 5549, 5727, 5872, 6001, 6118, 6341, 7494, 8099, 8282, 8396, 8460, 8534, 8777, 8904, 8963, 9215, 9706, 10569, 10649, 10786, 11000, 11053, 11233, 14266, 14429, 14540, 14667, 14736, 14884, 14964, 15151], "trial_type": "free-recall", "conditions": [24, 800, "a", 12000], "internal_node_id": "0.0-138.0-0.0", "key_presses": [66, 73, 83, 79, 78, 13, 76, 69, 79, 80, 65, 82, 68, 13, 68, 82, 73, 76, 76, 13, 66, 85, 76, 76, 69, 84, 13, 71, 8, 70, 79, 82, 69, 72, 69, 65, 68, 13, 76, 73, 86, 69, 82, 13, 65, 73, 82, 80, 79, 82, 84, 13], "trial": 4, "time_elapsed": 985247, "type": "FREE_RECALL", "trial_index": 183}, "uniqueid": "MTK3011:3ERMJ6L4DZZF1TS3J27B9715KDE7M6", "dateTime": 1519665829676}, {"current_trial": 184, "trialdata": {"rt": 1818, "trial_type": "text", "internal_node_id": "0.0-139.0", "time_elapsed": 989074, "key_press": 78, "type": "INSTRUCTIONS", "trial_index": 184}, "uniqueid": "MTK3011:3ERMJ6L4DZZF1TS3J27B9715KDE7M6", "dateTime": 1519665833498}, {"current_trial": 185, "trialdata": {"rt": [1925, 3941, 6033, 8699, 14514, 16505, 18514, 22019], "trial_type": "math-distractor", "key_times": [1341, 1753, 1925, 3454, 3796, 3941, 5608, 5922, 6033, 8248, 8582, 8699, 14005, 14392, 14514, 15966, 16362, 16505, 18419, 18514, 21571, 21886, 22019], "responses": ["19", "17", "15", "14", "18", "18", "9", "15"], "num2": [5, 3, 5, 3, 4, 8, 4, 8, 5], "num3": [5, 7, 7, 3, 5, 9, 4, 6, 3], "conditions": [24, 800, "a", 24000], "internal_node_id": "0.0-140.0", "key_presses": [49, 57, 13, 49, 55, 13, 49, 53, 13, 49, 52, 13, 49, 56, 13, 49, 56, 13, 57, 13, 49, 53, 13], "trial": 5, "time_elapsed": 1015081, "type": "DISTRACTOR", "trial_index": 185, "num1": [9, 7, 3, 8, 9, 1, 1, 1, 3]}, "uniqueid": "MTK3011:3ERMJ6L4DZZF1TS3J27B9715KDE7M6", "dateTime": 1519665859505}, {"current_trial": 186, "trialdata": {"rt": -1, "trial_type": "single-stim", "stimulus": "<p id=\"stim\">10</p>", "internal_node_id": "0.0-141.0-0.0", "time_elapsed": 1018084, "key_press": -1, "trial_index": 186}, "uniqueid": "MTK3011:3ERMJ6L4DZZF1TS3J27B9715KDE7M6", "dateTime": 1519665862508}, {"current_trial": 187, "trialdata": {"rt": -1, "trial_type": "single-stim", "stimulus": "<p id=\"stim\">9</p>", "internal_node_id": "0.0-141.0-1.0", "time_elapsed": 1019086, "key_press": -1, "trial_index": 187}, "uniqueid": "MTK3011:3ERMJ6L4DZZF1TS3J27B9715KDE7M6", "dateTime": 1519665863510}, {"current_trial": 188, "trialdata": {"rt": -1, "trial_type": "single-stim", "stimulus": "<p id=\"stim\">8</p>", "internal_node_id": "0.0-141.0-2.0", "time_elapsed": 1020087, "key_press": -1, "trial_index": 188}, "uniqueid": "MTK3011:3ERMJ6L4DZZF1TS3J27B9715KDE7M6", "dateTime": 1519665864511}, {"current_trial": 189, "trialdata": {"rt": -1, "trial_type": "single-stim", "stimulus": "<p id=\"stim\">7</p>", "internal_node_id": "0.0-141.0-3.0", "time_elapsed": 1021090, "key_press": -1, "trial_index": 189}, "uniqueid": "MTK3011:3ERMJ6L4DZZF1TS3J27B9715KDE7M6", "dateTime": 1519665865515}, {"current_trial": 190, "trialdata": {"rt": -1, "trial_type": "single-stim", "stimulus": "<p id=\"stim\">6</p>", "internal_node_id": "0.0-141.0-4.0", "time_elapsed": 1022092, "key_press": -1, "trial_index": 190}, "uniqueid": "MTK3011:3ERMJ6L4DZZF1TS3J27B9715KDE7M6", "dateTime": 1519665866516}, {"current_trial": 191, "trialdata": {"rt": -1, "trial_type": "single-stim", "stimulus": "<p id=\"stim\">5</p>", "internal_node_id": "0.0-141.0-5.0", "time_elapsed": 1023094, "key_press": -1, "trial_index": 191}, "uniqueid": "MTK3011:3ERMJ6L4DZZF1TS3J27B9715KDE7M6", "dateTime": 1519665867518}, {"current_trial": 192, "trialdata": {"rt": -1, "trial_type": "single-stim", "stimulus": "<p id=\"stim\">4</p>", "internal_node_id": "0.0-141.0-6.0", "time_elapsed": 1024096, "key_press": -1, "trial_index": 192}, "uniqueid": "MTK3011:3ERMJ6L4DZZF1TS3J27B9715KDE7M6", "dateTime": 1519665868520}, {"current_trial": 193, "trialdata": {"rt": -1, "trial_type": "single-stim", "stimulus": "<p id=\"stim\">3</p>", "internal_node_id": "0.0-141.0-7.0", "time_elapsed": 1025098, "key_press": -1, "trial_index": 193}, "uniqueid": "MTK3011:3ERMJ6L4DZZF1TS3J27B9715KDE7M6", "dateTime": 1519665869522}, {"current_trial": 194, "trialdata": {"rt": -1, "trial_type": "single-stim", "stimulus": "<p id=\"stim\">2</p>", "internal_node_id": "0.0-141.0-8.0", "time_elapsed": 1026101, "key_press": -1, "trial_index": 194}, "uniqueid": "MTK3011:3ERMJ6L4DZZF1TS3J27B9715KDE7M6", "dateTime": 1519665870525}, {"current_trial": 195, "trialdata": {"rt": -1, "trial_type": "single-stim", "stimulus": "<p id=\"stim\">1</p>", "internal_node_id": "0.0-141.0-9.0", "time_elapsed": 1027104, "key_press": -1, "trial_index": 195}, "uniqueid": "MTK3011:3ERMJ6L4DZZF1TS3J27B9715KDE7M6", "dateTime": 1519665871529}, {"current_trial": 196, "trialdata": {"rt": -1, "trial_type": "single-stim", "stimulus": "<p id=\"stim\">+</p>", "internal_node_id": "0.0-142.0-0.0", "time_elapsed": 1028606, "key_press": -1, "type": "FIXATION", "trial_index": 196}, "uniqueid": "MTK3011:3ERMJ6L4DZZF1TS3J27B9715KDE7M6", "dateTime": 1519665873031}, {"current_trial": 197, "trialdata": {"rt": -1000, "trial_type": "single-audio", "word": "laser", "stimulus": "/static/audio/wordpool/LASER.wav", "conditions": [24, 800, "a", 24000], "internal_node_id": "0.0-143.0", "trial": 5, "time_elapsed": 1030387, "serialpos": 0, "key_press": -1, "wordID": 800, "type": "PRES_AUD", "trial_index": 197}, "uniqueid": "MTK3011:3ERMJ6L4DZZF1TS3J27B9715KDE7M6", "dateTime": 1519665874812}, {"current_trial": 198, "trialdata": {"rt": -1000, "trial_type": "single-audio", "word": "briefcase", "stimulus": "/static/audio/wordpool/BRIEFCASE.wav", "conditions": [24, 800, "a", 24000], "internal_node_id": "0.0-144.0", "trial": 5, "time_elapsed": 1032062, "serialpos": 1, "key_press": -1, "wordID": 174, "type": "PRES_AUD", "trial_index": 198}, "uniqueid": "MTK3011:3ERMJ6L4DZZF1TS3J27B9715KDE7M6", "dateTime": 1519665876486}, {"current_trial": 199, "trialdata": {"rt": -1000, "trial_type": "single-audio", "word": "lipstick", "stimulus": "/static/audio/wordpool/LIPSTICK.wav", "conditions": [24, 800, "a", 24000], "internal_node_id": "0.0-145.0", "trial": 5, "time_elapsed": 1033813, "serialpos": 2, "key_press": -1, "wordID": 828, "type": "PRES_AUD", "trial_index": 199}, "uniqueid": "MTK3011:3ERMJ6L4DZZF1TS3J27B9715KDE7M6", "dateTime": 1519665878238}, {"current_trial": 200, "trialdata": {"rt": -1000, "trial_type": "single-audio", "word": "beaker", "stimulus": "/static/audio/wordpool/BEAKER.wav", "conditions": [24, 800, "a", 24000], "internal_node_id": "0.0-146.0", "trial": 5, "time_elapsed": 1035610, "serialpos": 3, "key_press": -1, "wordID": 103, "type": "PRES_AUD", "trial_index": 200}, "uniqueid": "MTK3011:3ERMJ6L4DZZF1TS3J27B9715KDE7M6", "dateTime": 1519665880034}, {"current_trial": 201, "trialdata": {"rt": -1000, "trial_type": "single-audio", "word": "velvet", "stimulus": "/static/audio/wordpool/VELVET.wav", "conditions": [24, 800, "a", 24000], "internal_node_id": "0.0-147.0", "trial": 5, "time_elapsed": 1037565, "serialpos": 4, "key_press": -1, "wordID": 1554, "type": "PRES_AUD", "trial_index": 201}, "uniqueid": "MTK3011:3ERMJ6L4DZZF1TS3J27B9715KDE7M6", "dateTime": 1519665881989}, {"current_trial": 202, "trialdata": {"rt": -1000, "trial_type": "single-audio", "word": "dashboard", "stimulus": "/static/audio/wordpool/DASHBOARD.wav", "conditions": [24, 800, "a", 24000], "internal_node_id": "0.0-148.0", "trial": 5, "time_elapsed": 1039528, "serialpos": 5, "key_press": -1, "wordID": 440, "type": "PRES_AUD", "trial_index": 202}, "uniqueid": "MTK3011:3ERMJ6L4DZZF1TS3J27B9715KDE7M6", "dateTime": 1519665883952}, {"current_trial": 203, "trialdata": {"rt": -1000, "trial_type": "single-audio", "word": "wife", "stimulus": "/static/audio/wordpool/WIFE.wav", "conditions": [24, 800, "a", 24000], "internal_node_id": "0.0-149.0", "trial": 5, "time_elapsed": 1041200, "serialpos": 6, "key_press": -1, "wordID": 1608, "type": "PRES_AUD", "trial_index": 203}, "uniqueid": "MTK3011:3ERMJ6L4DZZF1TS3J27B9715KDE7M6", "dateTime": 1519665885624}, {"current_trial": 204, "trialdata": {"rt": -1000, "trial_type": "single-audio", "word": "widow", "stimulus": "/static/audio/wordpool/WIDOW.wav", "conditions": [24, 800, "a", 24000], "internal_node_id": "0.0-150.0", "trial": 5, "time_elapsed": 1042987, "serialpos": 7, "key_press": -1, "wordID": 1607, "type": "PRES_AUD", "trial_index": 204}, "uniqueid": "MTK3011:3ERMJ6L4DZZF1TS3J27B9715KDE7M6", "dateTime": 1519665887411}, {"current_trial": 205, "trialdata": {"rt": -1000, "trial_type": "single-audio", "word": "pliers", "stimulus": "/static/audio/wordpool/PLIERS.wav", "conditions": [24, 800, "a", 24000], "internal_node_id": "0.0-151.0", "trial": 5, "time_elapsed": 1044607, "serialpos": 8, "key_press": -1, "wordID": 1088, "type": "PRES_AUD", "trial_index": 205}, "uniqueid": "MTK3011:3ERMJ6L4DZZF1TS3J27B9715KDE7M6", "dateTime": 1519665889034}, {"current_trial": 206, "trialdata": {"rt": -1000, "trial_type": "single-audio", "word": "antler", "stimulus": "/static/audio/wordpool/ANTLER.wav", "conditions": [24, 800, "a", 24000], "internal_node_id": "0.0-152.0", "trial": 5, "time_elapsed": 1046410, "serialpos": 9, "key_press": -1, "wordID": 28, "type": "PRES_AUD", "trial_index": 206}, "uniqueid": "MTK3011:3ERMJ6L4DZZF1TS3J27B9715KDE7M6", "dateTime": 1519665890834}, {"current_trial": 207, "trialdata": {"rt": -1000, "trial_type": "single-audio", "word": "mister", "stimulus": "/static/audio/wordpool/MISTER.wav", "conditions": [24, 800, "a", 24000], "internal_node_id": "0.0-153.0", "trial": 5, "time_elapsed": 1048139, "serialpos": 10, "key_press": -1, "wordID": 900, "type": "PRES_AUD", "trial_index": 207}, "uniqueid": "MTK3011:3ERMJ6L4DZZF1TS3J27B9715KDE7M6", "dateTime": 1519665892563}, {"current_trial": 208, "trialdata": {"rt": -1000, "trial_type": "single-audio", "word": "scissors", "stimulus": "/static/audio/wordpool/SCISSORS.wav", "conditions": [24, 800, "a", 24000], "internal_node_id": "0.0-154.0", "trial": 5, "time_elapsed": 1049789, "serialpos": 11, "key_press": -1, "wordID": 1249, "type": "PRES_AUD", "trial_index": 208}, "uniqueid": "MTK3011:3ERMJ6L4DZZF1TS3J27B9715KDE7M6", "dateTime": 1519665894213}, {"current_trial": 209, "trialdata": {"rt": -1000, "trial_type": "single-audio", "word": "student", "stimulus": "/static/audio/wordpool/STUDENT.wav", "conditions": [24, 800, "a", 24000], "internal_node_id": "0.0-155.0", "trial": 5, "time_elapsed": 1051770, "serialpos": 12, "key_press": -1, "wordID": 1394, "type": "PRES_AUD", "trial_index": 209}, "uniqueid": "MTK3011:3ERMJ6L4DZZF1TS3J27B9715KDE7M6", "dateTime": 1519665896194}, {"current_trial": 210, "trialdata": {"rt": -1000, "trial_type": "single-audio", "word": "sword", "stimulus": "/static/audio/wordpool/SWORD.wav", "conditions": [24, 800, "a", 24000], "internal_node_id": "0.0-156.0", "trial": 5, "time_elapsed": 1053732, "serialpos": 13, "key_press": -1, "wordID": 1422, "type": "PRES_AUD", "trial_index": 210}, "uniqueid": "MTK3011:3ERMJ6L4DZZF1TS3J27B9715KDE7M6", "dateTime": 1519665898156}, {"current_trial": 211, "trialdata": {"rt": -1000, "trial_type": "single-audio", "word": "hiker", "stimulus": "/static/audio/wordpool/HIKER.wav", "conditions": [24, 800, "a", 24000], "internal_node_id": "0.0-157.0", "trial": 5, "time_elapsed": 1055475, "serialpos": 14, "key_press": -1, "wordID": 707, "type": "PRES_AUD", "trial_index": 211}, "uniqueid": "MTK3011:3ERMJ6L4DZZF1TS3J27B9715KDE7M6", "dateTime": 1519665899899}, {"current_trial": 212, "trialdata": {"rt": -1000, "trial_type": "single-audio", "word": "diner", "stimulus": "/static/audio/wordpool/DINER.wav", "conditions": [24, 800, "a", 24000], "internal_node_id": "0.0-158.0", "trial": 5, "time_elapsed": 1057275, "serialpos": 15, "key_press": -1, "wordID": 466, "type": "PRES_AUD", "trial_index": 212}, "uniqueid": "MTK3011:3ERMJ6L4DZZF1TS3J27B9715KDE7M6", "dateTime": 1519665901699}, {"current_trial": 213, "trialdata": {"rt": -1000, "trial_type": "single-audio", "word": "sandwich", "stimulus": "/static/audio/wordpool/SANDWICH.wav", "conditions": [24, 800, "a", 24000], "internal_node_id": "0.0-159.0", "trial": 5, "time_elapsed": 1058968, "serialpos": 16, "key_press": -1, "wordID": 1231, "type": "PRES_AUD", "trial_index": 213}, "uniqueid": "MTK3011:3ERMJ6L4DZZF1TS3J27B9715KDE7M6", "dateTime": 1519665903392}, {"current_trial": 214, "trialdata": {"rt": -1000, "trial_type": "single-audio", "word": "quarter", "stimulus": "/static/audio/wordpool/QUARTER.wav", "conditions": [24, 800, "a", 24000], "internal_node_id": "0.0-160.0", "trial": 5, "time_elapsed": 1060907, "serialpos": 17, "key_press": -1, "wordID": 1147, "type": "PRES_AUD", "trial_index": 214}, "uniqueid": "MTK3011:3ERMJ6L4DZZF1TS3J27B9715KDE7M6", "dateTime": 1519665905332}, {"current_trial": 215, "trialdata": {"rt": -1000, "trial_type": "single-audio", "word": "scribble", "stimulus": "/static/audio/wordpool/SCRIBBLE.wav", "conditions": [24, 800, "a", 24000], "internal_node_id": "0.0-161.0", "trial": 5, "time_elapsed": 1062634, "serialpos": 18, "key_press": -1, "wordID": 1255, "type": "PRES_AUD", "trial_index": 215}, "uniqueid": "MTK3011:3ERMJ6L4DZZF1TS3J27B9715KDE7M6", "dateTime": 1519665907058}, {"current_trial": 216, "trialdata": {"rt": -1000, "trial_type": "single-audio", "word": "popcorn", "stimulus": "/static/audio/wordpool/POPCORN.wav", "conditions": [24, 800, "a", 24000], "internal_node_id": "0.0-162.0", "trial": 5, "time_elapsed": 1064321, "serialpos": 19, "key_press": -1, "wordID": 1103, "type": "PRES_AUD", "trial_index": 216}, "uniqueid": "MTK3011:3ERMJ6L4DZZF1TS3J27B9715KDE7M6", "dateTime": 1519665908746}, {"current_trial": 217, "trialdata": {"rt": -1000, "trial_type": "single-audio", "word": "college", "stimulus": "/static/audio/wordpool/COLLEGE.wav", "conditions": [24, 800, "a", 24000], "internal_node_id": "0.0-163.0", "trial": 5, "time_elapsed": 1066161, "serialpos": 20, "key_press": -1, "wordID": 345, "type": "PRES_AUD", "trial_index": 217}, "uniqueid": "MTK3011:3ERMJ6L4DZZF1TS3J27B9715KDE7M6", "dateTime": 1519665910585}, {"current_trial": 218, "trialdata": {"rt": -1000, "trial_type": "single-audio", "word": "truck", "stimulus": "/static/audio/wordpool/TRUCK.wav", "conditions": [24, 800, "a", 24000], "internal_node_id": "0.0-164.0", "trial": 5, "time_elapsed": 1068148, "serialpos": 21, "key_press": -1, "wordID": 1511, "type": "PRES_AUD", "trial_index": 218}, "uniqueid": "MTK3011:3ERMJ6L4DZZF1TS3J27B9715KDE7M6", "dateTime": 1519665912572}, {"current_trial": 219, "trialdata": {"rt": -1000, "trial_type": "single-audio", "word": "clothes", "stimulus": "/static/audio/wordpool/CLOTHES.wav", "conditions": [24, 800, "a", 24000], "internal_node_id": "0.0-165.0", "trial": 5, "time_elapsed": 1070038, "serialpos": 22, "key_press": -1, "wordID": 326, "type": "PRES_AUD", "trial_index": 219}, "uniqueid": "MTK3011:3ERMJ6L4DZZF1TS3J27B9715KDE7M6", "dateTime": 1519665914462}, {"current_trial": 220, "trialdata": {"rt": -1000, "trial_type": "single-audio", "word": "razor", "stimulus": "/static/audio/wordpool/RAZOR.wav", "conditions": [24, 800, "a", 24000], "internal_node_id": "0.0-166.0", "trial": 5, "time_elapsed": 1071893, "serialpos": 23, "key_press": -1, "wordID": 1170, "type": "PRES_AUD", "trial_index": 220}, "uniqueid": "MTK3011:3ERMJ6L4DZZF1TS3J27B9715KDE7M6", "dateTime": 1519665916317}, {"current_trial": 221, "trialdata": {"rt": -1, "trial_type": "single-stim", "stimulus": "", "internal_node_id": "0.0-167.0-0.0", "time_elapsed": 1073168, "key_press": -1, "type": "PRE_RECALL_DELAY", "trial_index": 221}, "uniqueid": "MTK3011:3ERMJ6L4DZZF1TS3J27B9715KDE7M6", "dateTime": 1519665917592}, {"current_trial": 222, "trialdata": {"rt": -1000, "trial_type": "single-audio", "stimulus": "/static/audio/400Hz.wav", "internal_node_id": "0.0-168.0", "time_elapsed": 1073671, "key_press": -1, "type": "PRE_RECALL_ALERT", "trial_index": 222}, "uniqueid": "MTK3011:3ERMJ6L4DZZF1TS3J27B9715KDE7M6", "dateTime": 1519665918096}, {"current_trial": 223, "trialdata": {"rt": [2004, 3372, 4732, 6723, 8722, 9058, 14848], "recwords": ["clothes", "razor", "college", "student", "scissors", "", "antlers"], "key_times": [1012, 1206, 1360, 1476, 1580, 1697, 1786, 2004, 2396, 2486, 2826, 3028, 3135, 3372, 3735, 3842, 4021, 4162, 4242, 4434, 4559, 4732, 4889, 5053, 5191, 5384, 5400, 5554, 5739, 6723, 7077, 7273, 7733, 7953, 8104, 8237, 8376, 8477, 8722, 9058, 10021, 10173, 10337, 10427, 10570, 12027, 12212, 12386, 12541, 12692, 13162, 13269, 13439, 13648, 13749, 13824, 14022, 14848], "trial_type": "free-recall", "conditions": [24, 800, "a", 24000], "internal_node_id": "0.0-169.0-0.0", "key_presses": [67, 76, 79, 84, 72, 69, 83, 13, 82, 65, 90, 79, 82, 13, 67, 79, 76, 76, 69, 71, 69, 13, 83, 84, 85, 68, 69, 78, 84, 13, 83, 67, 73, 83, 83, 79, 82, 83, 13, 188, 77, 79, 79, 83, 69, 8, 8, 8, 8, 8, 65, 78, 84, 76, 69, 82, 83, 13], "trial": 5, "time_elapsed": 1133677, "type": "FREE_RECALL", "trial_index": 223}, "uniqueid": "MTK3011:3ERMJ6L4DZZF1TS3J27B9715KDE7M6", "dateTime": 1519665978110}, {"current_trial": 224, "trialdata": {"rt": 1368, "trial_type": "text", "internal_node_id": "0.0-170.0", "time_elapsed": 1137056, "key_press": 74, "type": "INSTRUCTIONS", "trial_index": 224}, "uniqueid": "MTK3011:3ERMJ6L4DZZF1TS3J27B9715KDE7M6", "dateTime": 1519665981481}, {"current_trial": 225, "trialdata": {"rt": [4190, 6633, 8244], "trial_type": "math-distractor", "key_times": [2832, 2910, 4190, 6513, 6633, 7773, 8101, 8244, 11890], "responses": ["12", "8", "16"], "num2": [4, 5, 5, 9], "num3": [1, 1, 6, 4], "conditions": [12, 800, "a", 12000], "internal_node_id": "0.0-171.0", "key_presses": [49, 50, 13, 56, 13, 49, 54, 13, 49], "trial": 6, "time_elapsed": 1151063, "type": "DISTRACTOR", "trial_index": 225, "num1": [7, 2, 5, 3]}, "uniqueid": "MTK3011:3ERMJ6L4DZZF1TS3J27B9715KDE7M6", "dateTime": 1519665995487}, {"current_trial": 226, "trialdata": {"rt": -1, "trial_type": "single-stim", "stimulus": "<p id=\"stim\">10</p>", "internal_node_id": "0.0-172.0-0.0", "time_elapsed": 1154065, "key_press": -1, "trial_index": 226}, "uniqueid": "MTK3011:3ERMJ6L4DZZF1TS3J27B9715KDE7M6", "dateTime": 1519665998489}, {"current_trial": 227, "trialdata": {"rt": -1, "trial_type": "single-stim", "stimulus": "<p id=\"stim\">9</p>", "internal_node_id": "0.0-172.0-1.0", "time_elapsed": 1155068, "key_press": -1, "trial_index": 227}, "uniqueid": "MTK3011:3ERMJ6L4DZZF1TS3J27B9715KDE7M6", "dateTime": 1519665999492}, {"current_trial": 228, "trialdata": {"rt": -1, "trial_type": "single-stim", "stimulus": "<p id=\"stim\">8</p>", "internal_node_id": "0.0-172.0-2.0", "time_elapsed": 1156070, "key_press": -1, "trial_index": 228}, "uniqueid": "MTK3011:3ERMJ6L4DZZF1TS3J27B9715KDE7M6", "dateTime": 1519666000494}, {"current_trial": 229, "trialdata": {"rt": -1, "trial_type": "single-stim", "stimulus": "<p id=\"stim\">7</p>", "internal_node_id": "0.0-172.0-3.0", "time_elapsed": 1157073, "key_press": -1, "trial_index": 229}, "uniqueid": "MTK3011:3ERMJ6L4DZZF1TS3J27B9715KDE7M6", "dateTime": 1519666001498}, {"current_trial": 230, "trialdata": {"rt": -1, "trial_type": "single-stim", "stimulus": "<p id=\"stim\">6</p>", "internal_node_id": "0.0-172.0-4.0", "time_elapsed": 1158076, "key_press": -1, "trial_index": 230}, "uniqueid": "MTK3011:3ERMJ6L4DZZF1TS3J27B9715KDE7M6", "dateTime": 1519666002500}, {"current_trial": 231, "trialdata": {"rt": -1, "trial_type": "single-stim", "stimulus": "<p id=\"stim\">5</p>", "internal_node_id": "0.0-172.0-5.0", "time_elapsed": 1159079, "key_press": -1, "trial_index": 231}, "uniqueid": "MTK3011:3ERMJ6L4DZZF1TS3J27B9715KDE7M6", "dateTime": 1519666003503}, {"current_trial": 232, "trialdata": {"rt": -1, "trial_type": "single-stim", "stimulus": "<p id=\"stim\">4</p>", "internal_node_id": "0.0-172.0-6.0", "time_elapsed": 1160081, "key_press": -1, "trial_index": 232}, "uniqueid": "MTK3011:3ERMJ6L4DZZF1TS3J27B9715KDE7M6", "dateTime": 1519666004505}, {"current_trial": 233, "trialdata": {"rt": -1, "trial_type": "single-stim", "stimulus": "<p id=\"stim\">3</p>", "internal_node_id": "0.0-172.0-7.0", "time_elapsed": 1161083, "key_press": -1, "trial_index": 233}, "uniqueid": "MTK3011:3ERMJ6L4DZZF1TS3J27B9715KDE7M6", "dateTime": 1519666005507}, {"current_trial": 234, "trialdata": {"rt": -1, "trial_type": "single-stim", "stimulus": "<p id=\"stim\">2</p>", "internal_node_id": "0.0-172.0-8.0", "time_elapsed": 1162085, "key_press": -1, "trial_index": 234}, "uniqueid": "MTK3011:3ERMJ6L4DZZF1TS3J27B9715KDE7M6", "dateTime": 1519666006509}, {"current_trial": 235, "trialdata": {"rt": -1, "trial_type": "single-stim", "stimulus": "<p id=\"stim\">1</p>", "internal_node_id": "0.0-172.0-9.0", "time_elapsed": 1163087, "key_press": -1, "trial_index": 235}, "uniqueid": "MTK3011:3ERMJ6L4DZZF1TS3J27B9715KDE7M6", "dateTime": 1519666007512}, {"current_trial": 236, "trialdata": {"rt": -1, "trial_type": "single-stim", "stimulus": "<p id=\"stim\">+</p>", "internal_node_id": "0.0-173.0-0.0", "time_elapsed": 1164591, "key_press": -1, "type": "FIXATION", "trial_index": 236}, "uniqueid": "MTK3011:3ERMJ6L4DZZF1TS3J27B9715KDE7M6", "dateTime": 1519666009015}, {"current_trial": 237, "trialdata": {"rt": -1000, "trial_type": "single-audio", "word": "actor", "stimulus": "/static/audio/wordpool/ACTOR.wav", "conditions": [12, 800, "a", 12000], "internal_node_id": "0.0-174.0", "trial": 6, "time_elapsed": 1166343, "serialpos": 0, "key_press": -1, "wordID": 4, "type": "PRES_AUD", "trial_index": 237}, "uniqueid": "MTK3011:3ERMJ6L4DZZF1TS3J27B9715KDE7M6", "dateTime": 1519666010767}, {"current_trial": 238, "trialdata": {"rt": -1000, "trial_type": "single-audio", "word": "doughnut", "stimulus": "/static/audio/wordpool/DOUGHNUT.wav", "conditions": [12, 800, "a", 12000], "internal_node_id": "0.0-175.0", "trial": 6, "time_elapsed": 1168195, "serialpos": 1, "key_press": -1, "wordID": 489, "type": "PRES_AUD", "trial_index": 238}, "uniqueid": "MTK3011:3ERMJ6L4DZZF1TS3J27B9715KDE7M6", "dateTime": 1519666012619}, {"current_trial": 239, "trialdata": {"rt": -1000, "trial_type": "single-audio", "word": "pudding", "stimulus": "/static/audio/wordpool/PUDDING.wav", "conditions": [12, 800, "a", 12000], "internal_node_id": "0.0-176.0", "trial": 6, "time_elapsed": 1169911, "serialpos": 2, "key_press": -1, "wordID": 1138, "type": "PRES_AUD", "trial_index": 239}, "uniqueid": "MTK3011:3ERMJ6L4DZZF1TS3J27B9715KDE7M6", "dateTime": 1519666014335}, {"current_trial": 240, "trialdata": {"rt": -1000, "trial_type": "single-audio", "word": "perfume", "stimulus": "/static/audio/wordpool/PERFUME.wav", "conditions": [12, 800, "a", 12000], "internal_node_id": "0.0-177.0", "trial": 6, "time_elapsed": 1171735, "serialpos": 3, "key_press": -1, "wordID": 1048, "type": "PRES_AUD", "trial_index": 240}, "uniqueid": "MTK3011:3ERMJ6L4DZZF1TS3J27B9715KDE7M6", "dateTime": 1519666016159}, {"current_trial": 241, "trialdata": {"rt": -1000, "trial_type": "single-audio", "word": "tractor", "stimulus": "/static/audio/wordpool/TRACTOR.wav", "conditions": [12, 800, "a", 12000], "internal_node_id": "0.0-178.0", "trial": 6, "time_elapsed": 1173407, "serialpos": 4, "key_press": -1, "wordID": 1492, "type": "PRES_AUD", "trial_index": 241}, "uniqueid": "MTK3011:3ERMJ6L4DZZF1TS3J27B9715KDE7M6", "dateTime": 1519666017832}, {"current_trial": 242, "trialdata": {"rt": -1000, "trial_type": "single-audio", "word": "pebble", "stimulus": "/static/audio/wordpool/PEBBLE.wav", "conditions": [12, 800, "a", 12000], "internal_node_id": "0.0-179.0", "trial": 6, "time_elapsed": 1175174, "serialpos": 5, "key_press": -1, "wordID": 1034, "type": "PRES_AUD", "trial_index": 242}, "uniqueid": "MTK3011:3ERMJ6L4DZZF1TS3J27B9715KDE7M6", "dateTime": 1519666019598}, {"current_trial": 243, "trialdata": {"rt": -1000, "trial_type": "single-audio", "word": "fiddle", "stimulus": "/static/audio/wordpool/FIDDLE.wav", "conditions": [12, 800, "a", 12000], "internal_node_id": "0.0-180.0", "trial": 6, "time_elapsed": 1176785, "serialpos": 6, "key_press": -1, "wordID": 560, "type": "PRES_AUD", "trial_index": 243}, "uniqueid": "MTK3011:3ERMJ6L4DZZF1TS3J27B9715KDE7M6", "dateTime": 1519666021209}, {"current_trial": 244, "trialdata": {"rt": -1000, "trial_type": "single-audio", "word": "badge", "stimulus": "/static/audio/wordpool/BADGE.wav", "conditions": [12, 800, "a", 12000], "internal_node_id": "0.0-181.0", "trial": 6, "time_elapsed": 1178726, "serialpos": 7, "key_press": -1, "wordID": 67, "type": "PRES_AUD", "trial_index": 244}, "uniqueid": "MTK3011:3ERMJ6L4DZZF1TS3J27B9715KDE7M6", "dateTime": 1519666023150}, {"current_trial": 245, "trialdata": {"rt": -1000, "trial_type": "single-audio", "word": "goblin", "stimulus": "/static/audio/wordpool/GOBLIN.wav", "conditions": [12, 800, "a", 12000], "internal_node_id": "0.0-182.0", "trial": 6, "time_elapsed": 1180329, "serialpos": 8, "key_press": -1, "wordID": 644, "type": "PRES_AUD", "trial_index": 245}, "uniqueid": "MTK3011:3ERMJ6L4DZZF1TS3J27B9715KDE7M6", "dateTime": 1519666024753}, {"current_trial": 246, "trialdata": {"rt": -1000, "trial_type": "single-audio", "word": "dragon", "stimulus": "/static/audio/wordpool/DRAGON.wav", "conditions": [12, 800, "a", 12000], "internal_node_id": "0.0-183.0", "trial": 6, "time_elapsed": 1182107, "serialpos": 9, "key_press": -1, "wordID": 491, "type": "PRES_AUD", "trial_index": 246}, "uniqueid": "MTK3011:3ERMJ6L4DZZF1TS3J27B9715KDE7M6", "dateTime": 1519666026531}, {"current_trial": 247, "trialdata": {"rt": -1000, "trial_type": "single-audio", "word": "crayon", "stimulus": "/static/audio/wordpool/CRAYON.wav", "conditions": [12, 800, "a", 12000], "internal_node_id": "0.0-184.0", "trial": 6, "time_elapsed": 1183732, "serialpos": 10, "key_press": -1, "wordID": 400, "type": "PRES_AUD", "trial_index": 247}, "uniqueid": "MTK3011:3ERMJ6L4DZZF1TS3J27B9715KDE7M6", "dateTime": 1519666028156}, {"current_trial": 248, "trialdata": {"rt": -1000, "trial_type": "single-audio", "word": "wagon", "stimulus": "/static/audio/wordpool/WAGON.wav", "conditions": [12, 800, "a", 12000], "internal_node_id": "0.0-185.0", "trial": 6, "time_elapsed": 1185544, "serialpos": 11, "key_press": -1, "wordID": 1577, "type": "PRES_AUD", "trial_index": 248}, "uniqueid": "MTK3011:3ERMJ6L4DZZF1TS3J27B9715KDE7M6", "dateTime": 1519666029