{"assignmentId": "35K3O9HUACKU4YFWKNH4KR9DA3MEFH", "workerId": "MTK3445", "questiondata": {"origin": "United States", "strat-rehearsal": "100", "marital": "Single", "education": "Bachelor's degree", "ethnicity": "Not Hispanic", "color_depth": 24, "distracted": "No", "wrote-notes": "No", "strat-other": "I made songs and sentences. At times, I stored some words in my head and repeated them while ignoring others. The best and most successful strategy was to find word associations, e.g. that start with the same letter (like icing and igloo) or that are related (army and police, or drug and patient).", "screen_width": 1920, "avail_screen_width": 1920, "avail_screen_height": 977, "strat-image": "20", "language": "ENGLISH", "gender": "Female", "age": "33", "gender_other": "", "race": ["Black"], "strat-categorize": "100", "pixel_depth": 24, "strat-spatial": "68", "strat-story": "100", "race_other": "", "screen_height": 1080}, "bonus": 0, "hitId": "3WRBLBQ2GRFZ4OY3XYJ5S3B1WA80G2", "counterbalance": 1753, "useragent": "Mozilla/5.0 (Macintosh; Intel Mac OS X 10_12_6) AppleWebKit/537.36 (KHTML, like Gecko) Chrome/64.0.3282.186 Safari/537.36", "eventdata": [{"eventtype": "initialized", "interval": 0, "value": null, "timestamp": 1520543874448}, {"eventtype": "window_resize", "interval": 0, "value": [1920, 1006], "timestamp": 1520543874448}, {"eventtype": "focus", "interval": 11799, "value": "off", "timestamp": 1520543886247}, {"eventtype": "focus", "interval": 3279, "value": "on", "timestamp": 1520543889526}], "data": [{"current_trial": 0, "trialdata": {"rt": 4637, "trial_type": "text", "internal_node_id": "0.0-0.0", "time_elapsed": 4640, "key_press": 32, "type": "INSTRUCTIONS", "trial_index": 0}, "uniqueid": "MTK3445:35K3O9HUACKU4YFWKNH4KR9DA3MEFH", "dateTime": 1520543879565}, {"current_trial": 1, "trialdata": {"rt": 28789, "trial_type": "text", "internal_node_id": "0.0-1.0", "time_elapsed": 33431, "key_press": 32, "type": "INSTRUCTIONS", "trial_index": 1}, "uniqueid": "MTK3445:35K3O9HUACKU4YFWKNH4KR9DA3MEFH", "dateTime": 1520543908356}, {"current_trial": 2, "trialdata": {"rt": [10915], "trial_type": "audio-test", "responses": ["ocean"], "internal_node_id": "0.0-2.0", "time_elapsed": 44359, "type": "AUDIO_TEST", "trial_index": 2}, "uniqueid": "MTK3445:35K3O9HUACKU4YFWKNH4KR9DA3MEFH", "dateTime": 1520543919284}, {"current_trial": 3, "trialdata": {"rt": [13705], "trial_type": "audio-test", "responses": ["crystal"], "internal_node_id": "0.0-3.0", "time_elapsed": 58069, "type": "AUDIO_TEST", "trial_index": 3}, "uniqueid": "MTK3445:35K3O9HUACKU4YFWKNH4KR9DA3MEFH", "dateTime": 1520543932995}, {"current_trial": 4, "trialdata": {"rt": [10450], "trial_type": "audio-test", "responses": ["spice"], "internal_node_id": "0.0-4.0", "time_elapsed": 68525, "type": "AUDIO_TEST", "trial_index": 4}, "uniqueid": "MTK3445:35K3O9HUACKU4YFWKNH4KR9DA3MEFH", "dateTime": 1520543943451}, {"current_trial": 5, "trialdata": {"rt": 105760, "trial_type": "survey-text", "responses": "{\"Q0\":\"1 am\",\"Q1\":\"9 am\",\"Q2\":\"5\"}", "internal_node_id": "0.0-5.0", "time_elapsed": 175041, "type": "SLEEP_SURVEY", "trial_index": 5}, "uniqueid": "MTK3445:35K3O9HUACKU4YFWKNH4KR9DA3MEFH", "dateTime": 1520544049966}, {"current_trial": 6, "trialdata": {"rt": 27813, "trial_type": "text", "internal_node_id": "0.0-6.0", "time_elapsed": 203856, "key_press": 13, "type": "INSTRUCTIONS", "trial_index": 6}, "uniqueid": "MTK3445:35K3O9HUACKU4YFWKNH4KR9DA3MEFH", "dateTime": 1520544078781}, {"current_trial": 7, "trialdata": {"rt": 10966, "trial_type": "text", "internal_node_id": "0.0-7.0", "time_elapsed": 215327, "key_press": 13, "type": "INSTRUCTIONS", "trial_index": 7}, "uniqueid": "MTK3445:35K3O9HUACKU4YFWKNH4KR9DA3MEFH", "dateTime": 1520544090253}, {"current_trial": 8, "trialdata": {"rt": 8710, "trial_type": "text", "internal_node_id": "0.0-8.0", "time_elapsed": 224542, "key_press": 13, "type": "INSTRUCTIONS", "trial_index": 8}, "uniqueid": "MTK3445:35K3O9HUACKU4YFWKNH4KR9DA3MEFH", "dateTime": 1520544099468}, {"current_trial": 9, "trialdata": {"rt": [6866, 9954, 12298, 15210], "trial_type": "math-distractor", "key_times": [4787, 4890, 6866, 8881, 9113, 9954, 11386, 11497, 12298, 14010, 14218, 15210, 17506, 17657], "responses": ["14", "17", "18", "17"], "num2": [5, 4, 8, 6, 9], "num3": [3, 9, 6, 5, 2], "conditions": [18, 1200, "v", 18000], "internal_node_id": "0.0-9.0", "key_presses": [49, 52, 13, 49, 55, 13, 49, 56, 13, 49, 55, 13, 49, 54], "trial": 0, "time_elapsed": 243555, "type": "DISTRACTOR", "trial_index": 9, "num1": [6, 4, 4, 6, 5]}, "uniqueid": "MTK3445:35K3O9HUACKU4YFWKNH4KR9DA3MEFH", "dateTime": 1520544118481}, {"current_trial": 10, "trialdata": {"rt": -1, "trial_type": "single-stim", "stimulus": "<p id=\"stim\">10</p>", "internal_node_id": "0.0-10.0-0.0", "time_elapsed": 246562, "key_press": -1, "trial_index": 10}, "uniqueid": "MTK3445:35K3O9HUACKU4YFWKNH4KR9DA3MEFH", "dateTime": 1520544121487}, {"current_trial": 11, "trialdata": {"rt": -1, "trial_type": "single-stim", "stimulus": "<p id=\"stim\">9</p>", "internal_node_id": "0.0-10.0-1.0", "time_elapsed": 247565, "key_press": -1, "trial_index": 11}, "uniqueid": "MTK3445:35K3O9HUACKU4YFWKNH4KR9DA3MEFH", "dateTime": 1520544122490}, {"current_trial": 12, "trialdata": {"rt": -1, "trial_type": "single-stim", "stimulus": "<p id=\"stim\">8</p>", "internal_node_id": "0.0-10.0-2.0", "time_elapsed": 248569, "key_press": -1, "trial_index": 12}, "uniqueid": "MTK3445:35K3O9HUACKU4YFWKNH4KR9DA3MEFH", "dateTime": 1520544123494}, {"current_trial": 13, "trialdata": {"rt": -1, "trial_type": "single-stim", "stimulus": "<p id=\"stim\">7</p>", "internal_node_id": "0.0-10.0-3.0", "time_elapsed": 249573, "key_press": -1, "trial_index": 13}, "uniqueid": "MTK3445:35K3O9HUACKU4YFWKNH4KR9DA3MEFH", "dateTime": 1520544124499}, {"current_trial": 14, "trialdata": {"rt": -1, "trial_type": "single-stim", "stimulus": "<p id=\"stim\">6</p>", "internal_node_id": "0.0-10.0-4.0", "time_elapsed": 250578, "key_press": -1, "trial_index": 14}, "uniqueid": "MTK3445:35K3O9HUACKU4YFWKNH4KR9DA3MEFH", "dateTime": 1520544125503}, {"current_trial": 15, "trialdata": {"rt": -1, "trial_type": "single-stim", "stimulus": "<p id=\"stim\">5</p>", "internal_node_id": "0.0-10.0-5.0", "time_elapsed": 251584, "key_press": -1, "trial_index": 15}, "uniqueid": "MTK3445:35K3O9HUACKU4YFWKNH4KR9DA3MEFH", "dateTime": 1520544126509}, {"current_trial": 16, "trialdata": {"rt": -1, "trial_type": "single-stim", "stimulus": "<p id=\"stim\">4</p>", "internal_node_id": "0.0-10.0-6.0", "time_elapsed": 252587, "key_press": -1, "trial_index": 16}, "uniqueid": "MTK3445:35K3O9HUACKU4YFWKNH4KR9DA3MEFH", "dateTime": 1520544127512}, {"current_trial": 17, "trialdata": {"rt": -1, "trial_type": "single-stim", "stimulus": "<p id=\"stim\">3</p>", "internal_node_id": "0.0-10.0-7.0", "time_elapsed": 253591, "key_press": -1, "trial_index": 17}, "uniqueid": "MTK3445:35K3O9HUACKU4YFWKNH4KR9DA3MEFH", "dateTime": 1520544128516}, {"current_trial": 18, "trialdata": {"rt": -1, "trial_type": "single-stim", "stimulus": "<p id=\"stim\">2</p>", "internal_node_id": "0.0-10.0-8.0", "time_elapsed": 254595, "key_press": -1, "trial_index": 18}, "uniqueid": "MTK3445:35K3O9HUACKU4YFWKNH4KR9DA3MEFH", "dateTime": 1520544129520}, {"current_trial": 19, "trialdata": {"rt": -1, "trial_type": "single-stim", "stimulus": "<p id=\"stim\">1</p>", "internal_node_id": "0.0-10.0-9.0", "time_elapsed": 255599, "key_press": -1, "trial_index": 19}, "uniqueid": "MTK3445:35K3O9HUACKU4YFWKNH4KR9DA3MEFH", "dateTime": 1520544130524}, {"current_trial": 20, "trialdata": {"rt": -1, "trial_type": "single-stim", "stimulus": "<p id=\"stim\">+</p>", "internal_node_id": "0.0-11.0-0.0", "time_elapsed": 257101, "key_press": -1, "type": "FIXATION", "trial_index": 20}, "uniqueid": "MTK3445:35K3O9HUACKU4YFWKNH4KR9DA3MEFH", "dateTime": 1520544132026}, {"current_trial": 21, "trialdata": {"rt": -1, "trial_type": "single-stim", "word": "garden", "stimulus": "<p id=\"stim\">GARDEN</p>", "conditions": [18, 1200, "v", 18000], "internal_node_id": "0.0-12.0", "trial": 0, "time_elapsed": 258303, "serialpos": 0, "key_press": -1, "wordID": 622, "type": "PRES_VIS", "trial_index": 21}, "uniqueid": "MTK3445:35K3O9HUACKU4YFWKNH4KR9DA3MEFH", "dateTime": 1520544133228}, {"current_trial": 22, "trialdata": {"rt": -1, "trial_type": "single-stim", "word": "salad", "stimulus": "<p id=\"stim\">SALAD</p>", "conditions": [18, 1200, "v", 18000], "internal_node_id": "0.0-13.0", "trial": 0, "time_elapsed": 260658, "serialpos": 1, "key_press": -1, "wordID": 1223, "type": "PRES_VIS", "trial_index": 22}, "uniqueid": "MTK3445:35K3O9HUACKU4YFWKNH4KR9DA3MEFH", "dateTime": 1520544135584}, {"current_trial": 23, "trialdata": {"rt": -1, "trial_type": "single-stim", "word": "grave", "stimulus": "<p id=\"stim\">GRAVE</p>", "conditions": [18, 1200, "v", 18000], "internal_node_id": "0.0-14.0", "trial": 0, "time_elapsed": 262673, "serialpos": 2, "key_press": -1, "wordID": 657, "type": "PRES_VIS", "trial_index": 23}, "uniqueid": "MTK3445:35K3O9HUACKU4YFWKNH4KR9DA3MEFH", "dateTime": 1520544137598}, {"current_trial": 24, "trialdata": {"rt": -1, "trial_type": "single-stim", "word": "farmer", "stimulus": "<p id=\"stim\">FARMER</p>", "conditions": [18, 1200, "v", 18000], "internal_node_id": "0.0-15.0", "trial": 0, "time_elapsed": 264792, "serialpos": 3, "key_press": -1, "wordID": 552, "type": "PRES_VIS", "trial_index": 24}, "uniqueid": "MTK3445:35K3O9HUACKU4YFWKNH4KR9DA3MEFH", "dateTime": 1520544139718}, {"current_trial": 25, "trialdata": {"rt": -1, "trial_type": "single-stim", "word": "finger", "stimulus": "<p id=\"stim\">FINGER</p>", "conditions": [18, 1200, "v", 18000], "internal_node_id": "0.0-16.0", "trial": 0, "time_elapsed": 266903, "serialpos": 4, "key_press": -1, "wordID": 566, "type": "PRES_VIS", "trial_index": 25}, "uniqueid": "MTK3445:35K3O9HUACKU4YFWKNH4KR9DA3MEFH", "dateTime": 1520544141828}, {"current_trial": 26, "trialdata": {"rt": -1, "trial_type": "single-stim", "word": "buggy", "stimulus": "<p id=\"stim\">BUGGY</p>", "conditions": [18, 1200, "v", 18000], "internal_node_id": "0.0-17.0", "trial": 0, "time_elapsed": 269283, "serialpos": 5, "key_press": -1, "wordID": 187, "type": "PRES_VIS", "trial_index": 26}, "uniqueid": "MTK3445:35K3O9HUACKU4YFWKNH4KR9DA3MEFH", "dateTime": 1520544144208}, {"current_trial": 27, "trialdata": {"rt": -1, "trial_type": "single-stim", "word": "jungle", "stimulus": "<p id=\"stim\">JUNGLE</p>", "conditions": [18, 1200, "v", 18000], "internal_node_id": "0.0-18.0", "trial": 0, "time_elapsed": 271686, "serialpos": 6, "key_press": -1, "wordID": 763, "type": "PRES_VIS", "trial_index": 27}, "uniqueid": "MTK3445:35K3O9HUACKU4YFWKNH4KR9DA3MEFH", "dateTime": 1520544146611}, {"current_trial": 28, "trialdata": {"rt": -1, "trial_type": "single-stim", "word": "dandruff", "stimulus": "<p id=\"stim\">DANDRUFF</p>", "conditions": [18, 1200, "v", 18000], "internal_node_id": "0.0-19.0", "trial": 0, "time_elapsed": 274036, "serialpos": 7, "key_press": -1, "wordID": 438, "type": "PRES_VIS", "trial_index": 28}, "uniqueid": "MTK3445:35K3O9HUACKU4YFWKNH4KR9DA3MEFH", "dateTime": 1520544148961}, {"current_trial": 29, "trialdata": {"rt": -1, "trial_type": "single-stim", "word": "shelter", "stimulus": "<p id=\"stim\">SHELTER</p>", "conditions": [18, 1200, "v", 18000], "internal_node_id": "0.0-20.0", "trial": 0, "time_elapsed": 276202, "serialpos": 8, "key_press": -1, "wordID": 1281, "type": "PRES_VIS", "trial_index": 29}, "uniqueid": "MTK3445:35K3O9HUACKU4YFWKNH4KR9DA3MEFH", "dateTime": 1520544151127}, {"current_trial": 30, "trialdata": {"rt": -1, "trial_type": "single-stim", "word": "freezer", "stimulus": "<p id=\"stim\">FREEZER</p>", "conditions": [18, 1200, "v", 18000], "internal_node_id": "0.0-21.0", "trial": 0, "time_elapsed": 278482, "serialpos": 9, "key_press": -1, "wordID": 603, "type": "PRES_VIS", "trial_index": 30}, "uniqueid": "MTK3445:35K3O9HUACKU4YFWKNH4KR9DA3MEFH", "dateTime": 1520544153407}, {"current_trial": 31, "trialdata": {"rt": -1, "trial_type": "single-stim", "word": "japan", "stimulus": "<p id=\"stim\">JAPAN</p>", "conditions": [18, 1200, "v", 18000], "internal_node_id": "0.0-22.0", "trial": 0, "time_elapsed": 280729, "serialpos": 10, "key_press": -1, "wordID": 748, "type": "PRES_VIS", "trial_index": 31}, "uniqueid": "MTK3445:35K3O9HUACKU4YFWKNH4KR9DA3MEFH", "dateTime": 1520544155654}, {"current_trial": 32, "trialdata": {"rt": -1, "trial_type": "single-stim", "word": "tourist", "stimulus": "<p id=\"stim\">TOURIST</p>", "conditions": [18, 1200, "v", 18000], "internal_node_id": "0.0-23.0", "trial": 0, "time_elapsed": 282808, "serialpos": 11, "key_press": -1, "wordID": 1487, "type": "PRES_VIS", "trial_index": 32}, "uniqueid": "MTK3445:35K3O9HUACKU4YFWKNH4KR9DA3MEFH", "dateTime": 1520544157733}, {"current_trial": 33, "trialdata": {"rt": -1, "trial_type": "single-stim", "word": "snail", "stimulus": "<p id=\"stim\">SNAIL</p>", "conditions": [18, 1200, "v", 18000], "internal_node_id": "0.0-24.0", "trial": 0, "time_elapsed": 284918, "serialpos": 12, "key_press": -1, "wordID": 1331, "type": "PRES_VIS", "trial_index": 33}, "uniqueid": "MTK3445:35K3O9HUACKU4YFWKNH4KR9DA3MEFH", "dateTime": 1520544159843}, {"current_trial": 34, "trialdata": {"rt": -1, "trial_type": "single-stim", "word": "servant", "stimulus": "<p id=\"stim\">SERVANT</p>", "conditions": [18, 1200, "v", 18000], "internal_node_id": "0.0-25.0", "trial": 0, "time_elapsed": 287293, "serialpos": 13, "key_press": -1, "wordID": 1270, "type": "PRES_VIS", "trial_index": 34}, "uniqueid": "MTK3445:35K3O9HUACKU4YFWKNH4KR9DA3MEFH", "dateTime": 1520544162218}, {"current_trial": 35, "trialdata": {"rt": -1, "trial_type": "single-stim", "word": "scalpel", "stimulus": "<p id=\"stim\">SCALPEL</p>", "conditions": [18, 1200, "v", 18000], "internal_node_id": "0.0-26.0", "trial": 0, "time_elapsed": 289452, "serialpos": 14, "key_press": -1, "wordID": 1242, "type": "PRES_VIS", "trial_index": 35}, "uniqueid": "MTK3445:35K3O9HUACKU4YFWKNH4KR9DA3MEFH", "dateTime": 1520544164377}, {"current_trial": 36, "trialdata": {"rt": -1, "trial_type": "single-stim", "word": "baby", "stimulus": "<p id=\"stim\">BABY</p>", "conditions": [18, 1200, "v", 18000], "internal_node_id": "0.0-27.0", "trial": 0, "time_elapsed": 291498, "serialpos": 15, "key_press": -1, "wordID": 63, "type": "PRES_VIS", "trial_index": 36}, "uniqueid": "MTK3445:35K3O9HUACKU4YFWKNH4KR9DA3MEFH", "dateTime": 1520544166423}, {"current_trial": 37, "trialdata": {"rt": -1, "trial_type": "single-stim", "word": "jury", "stimulus": "<p id=\"stim\">JURY</p>", "conditions": [18, 1200, "v", 18000], "internal_node_id": "0.0-28.0", "trial": 0, "time_elapsed": 293869, "serialpos": 16, "key_press": -1, "wordID": 765, "type": "PRES_VIS", "trial_index": 37}, "uniqueid": "MTK3445:35K3O9HUACKU4YFWKNH4KR9DA3MEFH", "dateTime": 1520544168794}, {"current_trial": 38, "trialdata": {"rt": -1, "trial_type": "single-stim", "word": "sponge", "stimulus": "<p id=\"stim\">SPONGE</p>", "conditions": [18, 1200, "v", 18000], "internal_node_id": "0.0-29.0", "trial": 0, "time_elapsed": 295888, "serialpos": 17, "key_press": -1, "wordID": 1354, "type": "PRES_VIS", "trial_index": 38}, "uniqueid": "MTK3445:35K3O9HUACKU4YFWKNH4KR9DA3MEFH", "dateTime": 1520544170813}, {"current_trial": 39, "trialdata": {"rt": -1, "trial_type": "single-stim", "stimulus": "", "internal_node_id": "0.0-30.0-0.0", "time_elapsed": 298116, "key_press": -1, "type": "PRE_RECALL_DELAY", "trial_index": 39}, "uniqueid": "MTK3445:35K3O9HUACKU4YFWKNH4KR9DA3MEFH", "dateTime": 1520544173042}, {"current_trial": 40, "trialdata": {"rt": -1000, "trial_type": "single-audio", "stimulus": "/static/audio/400Hz.wav", "internal_node_id": "0.0-31.0", "time_elapsed": 298619, "key_press": -1, "type": "PRE_RECALL_ALERT", "trial_index": 40}, "uniqueid": "MTK3445:35K3O9HUACKU4YFWKNH4KR9DA3MEFH", "dateTime": 1520544173544}, {"current_trial": 41, "trialdata": {"rt": [6544, 9479, 12751, 15080, 18055, 24351, 42326, 44806], "recwords": ["dandruff", "fever", "jungle", "buggy", "garden", "anger", "finger", "river"], "key_times": [2584, 2792, 3024, 3936, 4584, 4911, 5200, 5528, 5712, 6544, 7609, 8591, 8816, 8999, 9087, 9288, 9479, 10703, 10888, 11063, 11200, 11375, 11535, 12751, 13431, 13591, 13815, 13968, 14159, 15080, 15800, 15983, 16183, 16423, 16599, 17448, 18055, 21695, 21863, 22151, 22303, 22495, 24351, 40798, 40959, 41302, 41607, 41807, 42007, 42326, 43758, 43966, 44110, 44398, 44606, 44806], "trial_type": "free-recall", "conditions": [18, 1200, "v", 18000], "internal_node_id": "0.0-32.0-0.0", "key_presses": [16, 68, 65, 78, 68, 82, 85, 70, 70, 13, 20, 70, 69, 86, 69, 82, 13, 74, 85, 78, 71, 76, 69, 13, 66, 85, 71, 71, 89, 13, 71, 65, 82, 68, 69, 78, 13, 65, 78, 71, 69, 82, 13, 70, 73, 78, 71, 69, 82, 13, 82, 73, 86, 69, 82, 13], "trial": 0, "time_elapsed": 358625, "type": "FREE_RECALL", "trial_index": 41}, "uniqueid": "MTK3445:35K3O9HUACKU4YFWKNH4KR9DA3MEFH", "dateTime": 1520544233553}, {"current_trial": 42, "trialdata": {"rt": 2025, "trial_type": "text", "internal_node_id": "0.0-33.0", "time_elapsed": 362658, "key_press": 13, "type": "INSTRUCTIONS", "trial_index": 42}, "uniqueid": "MTK3445:35K3O9HUACKU4YFWKNH4KR9DA3MEFH", "dateTime": 1520544237584}, {"current_trial": 43, "trialdata": {"rt": [2932, 5365, 8204, 15164, 17828], "trial_type": "math-distractor", "key_times": [2164, 2396, 2932, 4756, 4884, 5365, 7588, 7765, 8204, 12613, 13516, 14084, 14188, 15164, 17084, 17828], "responses": ["18", "13", "11", "12", "9"], "num2": [5, 8, 6, 4, 1, 3], "num3": [5, 1, 3, 6, 1, 7], "conditions": [18, 1200, "v", 18000], "internal_node_id": "0.0-34.0", "key_presses": [49, 56, 13, 49, 51, 13, 49, 49, 13, 50, 8, 49, 50, 13, 57, 13], "trial": 1, "time_elapsed": 382664, "type": "DISTRACTOR", "trial_index": 43, "num1": [8, 4, 2, 2, 7, 3]}, "uniqueid": "MTK3445:35K3O9HUACKU4YFWKNH4KR9DA3MEFH", "dateTime": 1520544257590}, {"current_trial": 44, "trialdata": {"rt": -1, "trial_type": "single-stim", "stimulus": "<p id=\"stim\">10</p>", "internal_node_id": "0.0-35.0-0.0", "time_elapsed": 385671, "key_press": -1, "trial_index": 44}, "uniqueid": "MTK3445:35K3O9HUACKU4YFWKNH4KR9DA3MEFH", "dateTime": 1520544260596}, {"current_trial": 45, "trialdata": {"rt": -1, "trial_type": "single-stim", "stimulus": "<p id=\"stim\">9</p>", "internal_node_id": "0.0-35.0-1.0", "time_elapsed": 386674, "key_press": -1, "trial_index": 45}, "uniqueid": "MTK3445:35K3O9HUACKU4YFWKNH4KR9DA3MEFH", "dateTime": 1520544261600}, {"current_trial": 46, "trialdata": {"rt": -1, "trial_type": "single-stim", "stimulus": "<p id=\"stim\">8</p>", "internal_node_id": "0.0-35.0-2.0", "time_elapsed": 387679, "key_press": -1, "trial_index": 46}, "uniqueid": "MTK3445:35K3O9HUACKU4YFWKNH4KR9DA3MEFH", "dateTime": 1520544262604}, {"current_trial": 47, "trialdata": {"rt": -1, "trial_type": "single-stim", "stimulus": "<p id=\"stim\">7</p>", "internal_node_id": "0.0-35.0-3.0", "time_elapsed": 388685, "key_press": -1, "trial_index": 47}, "uniqueid": "MTK3445:35K3O9HUACKU4YFWKNH4KR9DA3MEFH", "dateTime": 1520544263610}, {"current_trial": 48, "trialdata": {"rt": -1, "trial_type": "single-stim", "stimulus": "<p id=\"stim\">6</p>", "internal_node_id": "0.0-35.0-4.0", "time_elapsed": 389689, "key_press": -1, "trial_index": 48}, "uniqueid": "MTK3445:35K3O9HUACKU4YFWKNH4KR9DA3MEFH", "dateTime": 1520544264614}, {"current_trial": 49, "trialdata": {"rt": -1, "trial_type": "single-stim", "stimulus": "<p id=\"stim\">5</p>", "internal_node_id": "0.0-35.0-5.0", "time_elapsed": 390693, "key_press": -1, "trial_index": 49}, "uniqueid": "MTK3445:35K3O9HUACKU4YFWKNH4KR9DA3MEFH", "dateTime": 1520544265618}, {"current_trial": 50, "trialdata": {"rt": -1, "trial_type": "single-stim", "stimulus": "<p id=\"stim\">4</p>", "internal_node_id": "0.0-35.0-6.0", "time_elapsed": 391697, "key_press": -1, "trial_index": 50}, "uniqueid": "MTK3445:35K3O9HUACKU4YFWKNH4KR9DA3MEFH", "dateTime": 1520544266622}, {"current_trial": 51, "trialdata": {"rt": -1, "trial_type": "single-stim", "stimulus": "<p id=\"stim\">3</p>", "internal_node_id": "0.0-35.0-7.0", "time_elapsed": 392700, "key_press": -1, "trial_index": 51}, "uniqueid": "MTK3445:35K3O9HUACKU4YFWKNH4KR9DA3MEFH", "dateTime": 1520544267625}, {"current_trial": 52, "trialdata": {"rt": -1, "trial_type": "single-stim", "stimulus": "<p id=\"stim\">2</p>", "internal_node_id": "0.0-35.0-8.0", "time_elapsed": 393705, "key_press": -1, "trial_index": 52}, "uniqueid": "MTK3445:35K3O9HUACKU4YFWKNH4KR9DA3MEFH", "dateTime": 1520544268630}, {"current_trial": 53, "trialdata": {"rt": -1, "trial_type": "single-stim", "stimulus": "<p id=\"stim\">1</p>", "internal_node_id": "0.0-35.0-9.0", "time_elapsed": 394709, "key_press": -1, "trial_index": 53}, "uniqueid": "MTK3445:35K3O9HUACKU4YFWKNH4KR9DA3MEFH", "dateTime": 1520544269634}, {"current_trial": 54, "trialdata": {"rt": -1, "trial_type": "single-stim", "stimulus": "<p id=\"stim\">+</p>", "internal_node_id": "0.0-36.0-0.0", "time_elapsed": 396211, "key_press": -1, "type": "FIXATION", "trial_index": 54}, "uniqueid": "MTK3445:35K3O9HUACKU4YFWKNH4KR9DA3MEFH", "dateTime": 1520544271136}, {"current_trial": 55, "trialdata": {"rt": -1, "trial_type": "single-stim", "word": "tweezers", "stimulus": "<p id=\"stim\">TWEEZERS</p>", "conditions": [18, 1200, "v", 18000], "internal_node_id": "0.0-37.0", "trial": 1, "time_elapsed": 397412, "serialpos": 0, "key_press": -1, "wordID": 1525, "type": "PRES_VIS", "trial_index": 55}, "uniqueid": "MTK3445:35K3O9HUACKU4YFWKNH4KR9DA3MEFH", "dateTime": 1520544272337}, {"current_trial": 56, "trialdata": {"rt": -1, "trial_type": "single-stim", "word": "daughter", "stimulus": "<p id=\"stim\">DAUGHTER</p>", "conditions": [18, 1200, "v", 18000], "internal_node_id": "0.0-38.0", "trial": 1, "time_elapsed": 399507, "serialpos": 1, "key_press": -1, "wordID": 441, "type": "PRES_VIS", "trial_index": 56}, "uniqueid": "MTK3445:35K3O9HUACKU4YFWKNH4KR9DA3MEFH", "dateTime": 1520544274432}, {"current_trial": 57, "trialdata": {"rt": -1, "trial_type": "single-stim", "word": "pastry", "stimulus": "<p id=\"stim\">PASTRY</p>", "conditions": [18, 1200, "v", 18000], "internal_node_id": "0.0-39.0", "trial": 1, "time_elapsed": 401892, "serialpos": 2, "key_press": -1, "wordID": 1021, "type": "PRES_VIS", "trial_index": 57}, "uniqueid": "MTK3445:35K3O9HUACKU4YFWKNH4KR9DA3MEFH", "dateTime": 1520544276817}, {"current_trial": 58, "trialdata": {"rt": -1, "trial_type": "single-stim", "word": "star", "stimulus": "<p id=\"stim\">STAR</p>", "conditions": [18, 1200, "v", 18000], "internal_node_id": "0.0-40.0", "trial": 1, "time_elapsed": 404138, "serialpos": 3, "key_press": -1, "wordID": 1372, "type": "PRES_VIS", "trial_index": 58}, "uniqueid": "MTK3445:35K3O9HUACKU4YFWKNH4KR9DA3MEFH", "dateTime": 1520544279064}, {"current_trial": 59, "trialdata": {"rt": -1, "trial_type": "single-stim", "word": "garbage", "stimulus": "<p id=\"stim\">GARBAGE</p>", "conditions": [18, 1200, "v", 18000], "internal_node_id": "0.0-41.0", "trial": 1, "time_elapsed": 406262, "serialpos": 4, "key_press": -1, "wordID": 621, "type": "PRES_VIS", "trial_index": 59}, "uniqueid": "MTK3445:35K3O9HUACKU4YFWKNH4KR9DA3MEFH", "dateTime": 1520544281188}, {"current_trial": 60, "trialdata": {"rt": -1, "trial_type": "single-stim", "word": "europe", "stimulus": "<p id=\"stim\">EUROPE</p>", "conditions": [18, 1200, "v", 18000], "internal_node_id": "0.0-42.0", "trial": 1, "time_elapsed": 408300, "serialpos": 5, "key_press": -1, "wordID": 540, "type": "PRES_VIS", "trial_index": 60}, "uniqueid": "MTK3445:35K3O9HUACKU4YFWKNH4KR9DA3MEFH", "dateTime": 1520544283225}, {"current_trial": 61, "trialdata": {"rt": -1, "trial_type": "single-stim", "word": "crevice", "stimulus": "<p id=\"stim\">CREVICE</p>", "conditions": [18, 1200, "v", 18000], "internal_node_id": "0.0-43.0", "trial": 1, "time_elapsed": 410371, "serialpos": 6, "key_press": -1, "wordID": 404, "type": "PRES_VIS", "trial_index": 61}, "uniqueid": "MTK3445:35K3O9HUACKU4YFWKNH4KR9DA3MEFH", "dateTime": 1520544285297}, {"current_trial": 62, "trialdata": {"rt": -1, "trial_type": "single-stim", "word": "glass", "stimulus": "<p id=\"stim\">GLASS</p>", "conditions": [18, 1200, "v", 18000], "internal_node_id": "0.0-44.0", "trial": 1, "time_elapsed": 412566, "serialpos": 7, "key_press": -1, "wordID": 638, "type": "PRES_VIS", "trial_index": 62}, "uniqueid": "MTK3445:35K3O9HUACKU4YFWKNH4KR9DA3MEFH", "dateTime": 1520544287491}, {"current_trial": 63, "trialdata": {"rt": -1, "trial_type": "single-stim", "word": "mop", "stimulus": "<p id=\"stim\">MOP</p>", "conditions": [18, 1200, "v", 18000], "internal_node_id": "0.0-45.0", "trial": 1, "time_elapsed": 414655, "serialpos": 8, "key_press": -1, "wordID": 915, "type": "PRES_VIS", "trial_index": 63}, "uniqueid": "MTK3445:35K3O9HUACKU4YFWKNH4KR9DA3MEFH", "dateTime": 1520544289580}, {"current_trial": 64, "trialdata": {"rt": -1, "trial_type": "single-stim", "word": "clam", "stimulus": "<p id=\"stim\">CLAM</p>", "conditions": [18, 1200, "v", 18000], "internal_node_id": "0.0-46.0", "trial": 1, "time_elapsed": 416970, "serialpos": 9, "key_press": -1, "wordID": 314, "type": "PRES_VIS", "trial_index": 64}, "uniqueid": "MTK3445:35K3O9HUACKU4YFWKNH4KR9DA3MEFH", "dateTime": 1520544291895}, {"current_trial": 65, "trialdata": {"rt": -1, "trial_type": "single-stim", "word": "pimple", "stimulus": "<p id=\"stim\">PIMPLE</p>", "conditions": [18, 1200, "v", 18000], "internal_node_id": "0.0-47.0", "trial": 1, "time_elapsed": 419321, "serialpos": 10, "key_press": -1, "wordID": 1070, "type": "PRES_VIS", "trial_index": 65}, "uniqueid": "MTK3445:35K3O9HUACKU4YFWKNH4KR9DA3MEFH", "dateTime": 1520544294246}, {"current_trial": 66, "trialdata": {"rt": -1, "trial_type": "single-stim", "word": "scallop", "stimulus": "<p id=\"stim\">SCALLOP</p>", "conditions": [18, 1200, "v", 18000], "internal_node_id": "0.0-48.0", "trial": 1, "time_elapsed": 421700, "serialpos": 11, "key_press": -1, "wordID": 1241, "type": "PRES_VIS", "trial_index": 66}, "uniqueid": "MTK3445:35K3O9HUACKU4YFWKNH4KR9DA3MEFH", "dateTime": 1520544296625}, {"current_trial": 67, "trialdata": {"rt": -1, "trial_type": "single-stim", "word": "stamp", "stimulus": "<p id=\"stim\">STAMP</p>", "conditions": [18, 1200, "v", 18000], "internal_node_id": "0.0-49.0", "trial": 1, "time_elapsed": 423947, "serialpos": 12, "key_press": -1, "wordID": 1369, "type": "PRES_VIS", "trial_index": 67}, "uniqueid": "MTK3445:35K3O9HUACKU4YFWKNH4KR9DA3MEFH", "dateTime": 1520544298872}, {"current_trial": 68, "trialdata": {"rt": -1, "trial_type": "single-stim", "word": "barley", "stimulus": "<p id=\"stim\">BARLEY</p>", "conditions": [18, 1200, "v", 18000], "internal_node_id": "0.0-50.0", "trial": 1, "time_elapsed": 426251, "serialpos": 13, "key_press": -1, "wordID": 87, "type": "PRES_VIS", "trial_index": 68}, "uniqueid": "MTK3445:35K3O9HUACKU4YFWKNH4KR9DA3MEFH", "dateTime": 1520544301178}, {"current_trial": 69, "trialdata": {"rt": -1, "trial_type": "single-stim", "word": "scotch", "stimulus": "<p id=\"stim\">SCOTCH</p>", "conditions": [18, 1200, "v", 18000], "internal_node_id": "0.0-51.0", "trial": 1, "time_elapsed": 428381, "serialpos": 14, "key_press": -1, "wordID": 1250, "type": "PRES_VIS", "trial_index": 69}, "uniqueid": "MTK3445:35K3O9HUACKU4YFWKNH4KR9DA3MEFH", "dateTime": 1520544303306}, {"current_trial": 70, "trialdata": {"rt": -1, "trial_type": "single-stim", "word": "helmet", "stimulus": "<p id=\"stim\">HELMET</p>", "conditions": [18, 1200, "v", 18000], "internal_node_id": "0.0-52.0", "trial": 1, "time_elapsed": 430668, "serialpos": 15, "key_press": -1, "wordID": 701, "type": "PRES_VIS", "trial_index": 70}, "uniqueid": "MTK3445:35K3O9HUACKU4YFWKNH4KR9DA3MEFH", "dateTime": 1520544305593}, {"current_trial": 71, "trialdata": {"rt": -1, "trial_type": "single-stim", "word": "chipmunk", "stimulus": "<p id=\"stim\">CHIPMUNK</p>", "conditions": [18, 1200, "v", 18000], "internal_node_id": "0.0-53.0", "trial": 1, "time_elapsed": 432978, "serialpos": 16, "key_press": -1, "wordID": 303, "type": "PRES_VIS", "trial_index": 71}, "uniqueid": "MTK3445:35K3O9HUACKU4YFWKNH4KR9DA3MEFH", "dateTime": 1520544307903}, {"current_trial": 72, "trialdata": {"rt": -1, "trial_type": "single-stim", "word": "highway", "stimulus": "<p id=\"stim\">HIGHWAY</p>", "conditions": [18, 1200, "v", 18000], "internal_node_id": "0.0-54.0", "trial": 1, "time_elapsed": 435217, "serialpos": 17, "key_press": -1, "wordID": 706, "type": "PRES_VIS", "trial_index": 72}, "uniqueid": "MTK3445:35K3O9HUACKU4YFWKNH4KR9DA3MEFH", "dateTime": 1520544310142}, {"current_trial": 73, "trialdata": {"rt": -1, "trial_type": "single-stim", "stimulus": "", "internal_node_id": "0.0-55.0-0.0", "time_elapsed": 437678, "key_press": -1, "type": "PRE_RECALL_DELAY", "trial_index": 73}, "uniqueid": "MTK3445:35K3O9HUACKU4YFWKNH4KR9DA3MEFH", "dateTime": 1520544312603}, {"current_trial": 74, "trialdata": {"rt": -1000, "trial_type": "single-audio", "stimulus": "/static/audio/400Hz.wav", "internal_node_id": "0.0-56.0", "time_elapsed": 438180, "key_press": -1, "type": "PRE_RECALL_ALERT", "trial_index": 74}, "uniqueid": "MTK3445:35K3O9HUACKU4YFWKNH4KR9DA3MEFH", "dateTime": 1520544313105}, {"current_trial": 75, "trialdata": {"rt": [4338, 6675, 9570, 11529, 14866, 17266, 19002, 28953], "recwords": ["helmet", "chipmunk", "highway", "freeze", "tweezers", "pimple", "stamp", "garbage"], "key_times": [2578, 2738, 2970, 3634, 3795, 3930, 4338, 5058, 5210, 5443, 5643, 5842, 6050, 6234, 6346, 6675, 7378, 7626, 8162, 8298, 8922, 9130, 9234, 9570, 9873, 10106, 10297, 10610, 10882, 11154, 11529, 12714, 13034, 13281, 13426, 13746, 13977, 14186, 14433, 14866, 15714, 15970, 16162, 16354, 16842, 17121, 17266, 17914, 18057, 18202, 18538, 18697, 19002, 27402, 27697, 27962, 28161, 28313, 28473, 28601, 28953], "trial_type": "free-recall", "conditions": [18, 1200, "v", 18000], "internal_node_id": "0.0-57.0-0.0", "key_presses": [72, 69, 76, 77, 69, 84, 13, 67, 72, 73, 80, 77, 85, 78, 75, 13, 72, 73, 71, 72, 87, 65, 89, 13, 70, 82, 69, 69, 90, 69, 13, 84, 87, 69, 69, 90, 69, 82, 83, 13, 80, 73, 77, 80, 76, 69, 13, 83, 84, 65, 77, 80, 13, 71, 65, 82, 66, 65, 71, 69, 13], "trial": 1, "time_elapsed": 498184, "type": "FREE_RECALL", "trial_index": 75}, "uniqueid": "MTK3445:35K3O9HUACKU4YFWKNH4KR9DA3MEFH", "dateTime": 1520544373112}, {"current_trial": 76, "trialdata": {"rt": 3797, "trial_type": "text", "internal_node_id": "0.0-58.0", "time_elapsed": 503990, "key_press": 13, "type": "INSTRUCTIONS", "trial_index": 76}, "uniqueid": "MTK3445:35K3O9HUACKU4YFWKNH4KR9DA3MEFH", "dateTime": 1520544378916}, {"current_trial": 77, "trialdata": {"rt": [2940, 5389, 8021, 11173, 14132, 16780, 20420, 23700], "trial_type": "math-distractor", "key_times": [2125, 2182, 2940, 4789, 4885, 5389, 6444, 6669, 8021, 9589, 9725, 11173, 13373, 13916, 14132, 16389, 16573, 16780, 20061, 20236, 20420, 23380, 23548, 23700], "responses": ["16", "17", "11", "19", "14", "11", "22", "22"], "num2": [7, 3, 1, 9, 5, 7, 8, 8, 6], "num3": [8, 7, 1, 8, 6, 3, 6, 7, 4], "conditions": [12, 800, "v", 24000], "internal_node_id": "0.0-59.0", "key_presses": [49, 54, 13, 49, 55, 13, 49, 49, 13, 49, 57, 13, 49, 52, 13, 49, 49, 13, 50, 50, 13, 50, 50, 13], "trial": 2, "time_elapsed": 528997, "type": "DISTRACTOR", "trial_index": 77, "num1": [1, 7, 9, 2, 3, 1, 8, 7, 6]}, "uniqueid": "MTK3445:35K3O9HUACKU4YFWKNH4KR9DA3MEFH", "dateTime": 1520544403922}, {"current_trial": 78, "trialdata": {"rt": -1, "trial_type": "single-stim", "stimulus": "<p id=\"stim\">10</p>", "internal_node_id": "0.0-60.0-0.0", "time_elapsed": 532004, "key_press": -1, "trial_index": 78}, "uniqueid": "MTK3445:35K3O9HUACKU4YFWKNH4KR9DA3MEFH", "dateTime": 1520544406929}, {"current_trial": 79, "trialdata": {"rt": -1, "trial_type": "single-stim", "stimulus": "<p id=\"stim\">9</p>", "internal_node_id": "0.0-60.0-1.0", "time_elapsed": 533007, "key_press": -1, "trial_index": 79}, "uniqueid": "MTK3445:35K3O9HUACKU4YFWKNH4KR9DA3MEFH", "dateTime": 1520544407932}, {"current_trial": 80, "trialdata": {"rt": -1, "trial_type": "single-stim", "stimulus": "<p id=\"stim\">8</p>", "internal_node_id": "0.0-60.0-2.0", "time_elapsed": 534012, "key_press": -1, "trial_index": 80}, "uniqueid": "MTK3445:35K3O9HUACKU4YFWKNH4KR9DA3MEFH", "dateTime": 1520544408937}, {"current_trial": 81, "trialdata": {"rt": -1, "trial_type": "single-stim", "stimulus": "<p id=\"stim\">7</p>", "internal_node_id": "0.0-60.0-3.0", "time_elapsed": 535016, "key_press": -1, "trial_index": 81}, "uniqueid": "MTK3445:35K3O9HUACKU4YFWKNH4KR9DA3MEFH", "dateTime": 1520544409941}, {"current_trial": 82, "trialdata": {"rt": -1, "trial_type": "single-stim", "stimulus": "<p id=\"stim\">6</p>", "internal_node_id": "0.0-60.0-4.0", "time_elapsed": 536020, "key_press": -1, "trial_index": 82}, "uniqueid": "MTK3445:35K3O9HUACKU4YFWKNH4KR9DA3MEFH", "dateTime": 1520544410945}, {"current_trial": 83, "trialdata": {"rt": -1, "trial_type": "single-stim", "stimulus": "<p id=\"stim\">5</p>", "internal_node_id": "0.0-60.0-5.0", "time_elapsed": 537024, "key_press": -1, "trial_index": 83}, "uniqueid": "MTK3445:35K3O9HUACKU4YFWKNH4KR9DA3MEFH", "dateTime": 1520544411949}, {"current_trial": 84, "trialdata": {"rt": -1, "trial_type": "single-stim", "stimulus": "<p id=\"stim\">4</p>", "internal_node_id": "0.0-60.0-6.0", "time_elapsed": 538030, "key_press": -1, "trial_index": 84}, "uniqueid": "MTK3445:35K3O9HUACKU4YFWKNH4KR9DA3MEFH", "dateTime": 1520544412955}, {"current_trial": 85, "trialdata": {"rt": -1, "trial_type": "single-stim", "stimulus": "<p id=\"stim\">3</p>", "internal_node_id": "0.0-60.0-7.0", "time_elapsed": 539033, "key_press": -1, "trial_index": 85}, "uniqueid": "MTK3445:35K3O9HUACKU4YFWKNH4KR9DA3MEFH", "dateTime": 1520544413959}, {"current_trial": 86, "trialdata": {"rt": -1, "trial_type": "single-stim", "stimulus": "<p id=\"stim\">2</p>", "internal_node_id": "0.0-60.0-8.0", "time_elapsed": 540038, "key_press": -1, "trial_index": 86}, "uniqueid": "MTK3445:35K3O9HUACKU4YFWKNH4KR9DA3MEFH", "dateTime": 1520544414963}, {"current_trial": 87, "trialdata": {"rt": -1, "trial_type": "single-stim", "stimulus": "<p id=\"stim\">1</p>", "internal_node_id": "0.0-60.0-9.0", "time_elapsed": 541042, "key_press": -1, "trial_index": 87}, "uniqueid": "MTK3445:35K3O9HUACKU4YFWKNH4KR9DA3MEFH", "dateTime": 1520544415967}, {"current_trial": 88, "trialdata": {"rt": -1, "trial_type": "single-stim", "stimulus": "<p id=\"stim\">+</p>", "internal_node_id": "0.0-61.0-0.0", "time_elapsed": 542543, "key_press": -1, "type": "FIXATION", "trial_index": 88}, "uniqueid": "MTK3445:35K3O9HUACKU4YFWKNH4KR9DA3MEFH", "dateTime": 1520544417468}, {"current_trial": 89, "trialdata": {"rt": -1, "trial_type": "single-stim", "word": "cattle", "stimulus": "<p id=\"stim\">CATTLE</p>", "conditions": [12, 800, "v", 24000], "internal_node_id": "0.0-62.0", "trial": 2, "time_elapsed": 543349, "serialpos": 0, "key_press": -1, "wordID": 260, "type": "PRES_VIS", "trial_index": 89}, "uniqueid": "MTK3445:35K3O9HUACKU4YFWKNH4KR9DA3MEFH", "dateTime": 1520544418274}, {"current_trial": 90, "trialdata": {"rt": -1, "trial_type": "single-stim", "word": "county", "stimulus": "<p id=\"stim\">COUNTY</p>", "conditions": [12, 800, "v", 24000], "internal_node_id": "0.0-63.0", "trial": 2, "time_elapsed": 545214, "serialpos": 1, "key_press": -1, "wordID": 388, "type": "PRES_VIS", "trial_index": 90}, "uniqueid": "MTK3445:35K3O9HUACKU4YFWKNH4KR9DA3MEFH", "dateTime": 1520544420139}, {"current_trial": 91, "trialdata": {"rt": -1, "trial_type": "single-stim", "word": "valley", "stimulus": "<p id=\"stim\">VALLEY</p>", "conditions": [12, 800, "v", 24000], "internal_node_id": "0.0-64.0", "trial": 2, "time_elapsed": 546867, "serialpos": 2, "key_press": -1, "wordID": 1544, "type": "PRES_VIS", "trial_index": 91}, "uniqueid": "MTK3445:35K3O9HUACKU4YFWKNH4KR9DA3MEFH", "dateTime": 1520544421792}, {"current_trial": 92, "trialdata": {"rt": -1, "trial_type": "single-stim", "word": "rod", "stimulus": "<p id=\"stim\">ROD</p>", "conditions": [12, 800, "v", 24000], "internal_node_id": "0.0-65.0", "trial": 2, "time_elapsed": 548649, "serialpos": 3, "key_press": -1, "wordID": 1202, "type": "PRES_VIS", "trial_index": 92}, "uniqueid": "MTK3445:35K3O9HUACKU4YFWKNH4KR9DA3MEFH", "dateTime": 1520544423574}, {"current_trial": 93, "trialdata": {"rt": -1, "trial_type": "single-stim", "word": "spool", "stimulus": "<p id=\"stim\">SPOOL</p>", "conditions": [12, 800, "v", 24000], "internal_node_id": "0.0-66.0", "trial": 2, "time_elapsed": 550652, "serialpos": 4, "key_press": -1, "wordID": 1355, "type": "PRES_VIS", "trial_index": 93}, "uniqueid": "MTK3445:35K3O9HUACKU4YFWKNH4KR9DA3MEFH", "dateTime": 1520544425577}, {"current_trial": 94, "trialdata": {"rt": -1, "trial_type": "single-stim", "word": "trombone", "stimulus": "<p id=\"stim\">TROMBONE</p>", "conditions": [12, 800, "v", 24000], "internal_node_id": "0.0-67.0", "trial": 2, "time_elapsed": 552277, "serialpos": 5, "key_press": -1, "wordID": 1507, "type": "PRES_VIS", "trial_index": 94}, "uniqueid": "MTK3445:35K3O9HUACKU4YFWKNH4KR9DA3MEFH", "dateTime": 1520544427202}, {"current_trial": 95, "trialdata": {"rt": -1, "trial_type": "single-stim", "word": "toaster", "stimulus": "<p id=\"stim\">TOASTER</p>", "conditions": [12, 800, "v", 24000], "internal_node_id": "0.0-68.0", "trial": 2, "time_elapsed": 554081, "serialpos": 6, "key_press": -1, "wordID": 1471, "type": "PRES_VIS", "trial_index": 95}, "uniqueid": "MTK3445:35K3O9HUACKU4YFWKNH4KR9DA3MEFH", "dateTime": 1520544429006}, {"current_trial": 96, "trialdata": {"rt": -1, "trial_type": "single-stim", "word": "london", "stimulus": "<p id=\"stim\">LONDON</p>", "conditions": [12, 800, "v", 24000], "internal_node_id": "0.0-69.0", "trial": 2, "time_elapsed": 556037, "serialpos": 7, "key_press": -1, "wordID": 842, "type": "PRES_VIS", "trial_index": 96}, "uniqueid": "MTK3445:35K3O9HUACKU4YFWKNH4KR9DA3MEFH", "dateTime": 1520544430963}, {"current_trial": 97, "trialdata": {"rt": -1, "trial_type": "single-stim", "word": "asia", "stimulus": "<p id=\"stim\">ASIA</p>", "conditions": [12, 800, "v", 24000], "internal_node_id": "0.0-70.0", "trial": 2, "time_elapsed": 557890, "serialpos": 8, "key_press": -1, "wordID": 45, "type": "PRES_VIS", "trial_index": 97}, "uniqueid": "MTK3445:35K3O9HUACKU4YFWKNH4KR9DA3MEFH", "dateTime": 1520544432815}, {"current_trial": 98, "trialdata": {"rt": -1, "trial_type": "single-stim", "word": "antler", "stimulus": "<p id=\"stim\">ANTLER</p>", "conditions": [12, 800, "v", 24000], "internal_node_id": "0.0-71.0", "trial": 2, "time_elapsed": 559700, "serialpos": 9, "key_press": -1, "wordID": 28, "type": "PRES_VIS", "trial_index": 98}, "uniqueid": "MTK3445:35K3O9HUACKU4YFWKNH4KR9DA3MEFH", "dateTime": 1520544434625}, {"current_trial": 99, "trialdata": {"rt": -1, "trial_type": "single-stim", "word": "france", "stimulus": "<p id=\"stim\">FRANCE</p>", "conditions": [12, 800, "v", 24000], "internal_node_id": "0.0-72.0", "trial": 2, "time_elapsed": 561377, "serialpos": 10, "key_press": -1, "wordID": 600, "type": "PRES_VIS", "trial_index": 99}, "uniqueid": "MTK3445:35K3O9HUACKU4YFWKNH4KR9DA3MEFH", "dateTime": 1520544436302}, {"current_trial": 100, "trialdata": {"rt": -1, "trial_type": "single-stim", "word": "spouse", "stimulus": "<p id=\"stim\">SPOUSE</p>", "conditions": [12, 800, "v", 24000], "internal_node_id": "0.0-73.0", "trial": 2, "time_elapsed": 563304, "serialpos": 11, "key_press": -1, "wordID": 1357, "type": "PRES_VIS", "trial_index": 100}, "uniqueid": "MTK3445:35K3O9HUACKU4YFWKNH4KR9DA3MEFH", "dateTime": 1520544438229}, {"current_trial": 101, "trialdata": {"rt": -1, "trial_type": "single-stim", "stimulus": "", "internal_node_id": "0.0-74.0-0.0", "time_elapsed": 565803, "key_press": -1, "type": "PRE_RECALL_DELAY", "trial_index": 101}, "uniqueid": "MTK3445:35K3O9HUACKU4YFWKNH4KR9DA3MEFH", "dateTime": 1520544440729}, {"current_trial": 102, "trialdata": {"rt": -1000, "trial_type": "single-audio", "stimulus": "/static/audio/400Hz.wav", "internal_node_id": "0.0-75.0", "time_elapsed": 566306, "key_press": -1, "type": "PRE_RECALL_ALERT", "trial_index": 102}, "uniqueid": "MTK3445:35K3O9HUACKU4YFWKNH4KR9DA3MEFH", "dateTime": 1520544441231}, {"current_trial": 103, "trialdata": {"rt": [3353, 4841, 8705, 10944, 12808, 16368, 17969, 29488], "recwords": ["asia", "london", "france", "county", "cattle", "valley", "spool", "rod"], "key_times": [1890, 2137, 2569, 3001, 3353, 3721, 3905, 4137, 4281, 4345, 4489, 4841, 5529, 5689, 5937, 6129, 6224, 6441, 6625, 7073, 8185, 8345, 8705, 9418, 9584, 9848, 10025, 10145, 10281, 10944, 11201, 11474, 11681, 11825, 12169, 12337, 12808, 13352, 14369, 14649, 15297, 15553, 15697, 15816, 15985, 16368, 16737, 17024, 17304, 17465, 17697, 17969, 28425, 28576, 28712, 29488], "trial_type": "free-recall", "conditions": [12, 800, "v", 24000], "internal_node_id": "0.0-76.0-0.0", "key_presses": [65, 83, 73, 65, 13, 76, 79, 78, 68, 79, 78, 13, 70, 82, 65, 78, 67, 69, 222, 67, 8, 8, 13, 67, 79, 85, 78, 84, 89, 13, 67, 65, 84, 84, 76, 69, 13, 66, 8, 86, 65, 76, 76, 69, 89, 13, 83, 80, 79, 79, 76, 13, 82, 79, 68, 13], "trial": 2, "time_elapsed": 626307, "type": "FREE_RECALL", "trial_index": 103}, "uniqueid": "MTK3445:35K3O9HUACKU4YFWKNH4KR9DA3MEFH", "dateTime": 1520544501235}, {"current_trial": 104, "trialdata": {"rt": 3127, "trial_type": "text", "internal_node_id": "0.0-77.0", "time_elapsed": 631442, "key_press": 13, "type": "INSTRUCTIONS", "trial_index": 104}, "uniqueid": "MTK3445:35K3O9HUACKU4YFWKNH4KR9DA3MEFH", "dateTime": 1520544506367}, {"current_trial": 105, "trialdata": {"rt": [3965, 7013, 10101], "trial_type": "math-distractor", "key_times": [3429, 3765, 3965, 6229, 6316, 7013, 9109, 9549, 10101, 11876], "responses": ["14", "18", "10"], "num2": [5, 6, 1, 9], "num3": [7, 9, 7, 9], "conditions": [12, 1600, "v", 12000], "internal_node_id": "0.0-78.0", "key_presses": [49, 52, 13, 49, 56, 13, 49, 48, 13, 50], "trial": 3, "time_elapsed": 645449, "type": "DISTRACTOR", "trial_index": 105, "num1": [2, 3, 2, 9]}, "uniqueid": "MTK3445:35K3O9HUACKU4YFWKNH4KR9DA3MEFH", "dateTime": 1520544520374}, {"current_trial": 106, "trialdata": {"rt": -1, "trial_type": "single-stim", "stimulus": "<p id=\"stim\">10</p>", "internal_node_id": "0.0-79.0-0.0", "time_elapsed": 648454, "key_press": -1, "trial_index": 106}, "uniqueid": "MTK3445:35K3O9HUACKU4YFWKNH4KR9DA3MEFH", "dateTime": 1520544523379}, {"current_trial": 107, "trialdata": {"rt": -1, "trial_type": "single-stim", "stimulus": "<p id=\"stim\">9</p>", "internal_node_id": "0.0-79.0-1.0", "time_elapsed": 649458, "key_press": -1, "trial_index": 107}, "uniqueid": "MTK3445:35K3O9HUACKU4YFWKNH4KR9DA3MEFH", "dateTime": 1520544524383}, {"current_trial": 108, "trialdata": {"rt": -1, "trial_type": "single-stim", "stimulus": "<p id=\"stim\">8</p>", "internal_node_id": "0.0-79.0-2.0", "time_elapsed": 650461, "key_press": -1, "trial_index": 108}, "uniqueid": "MTK3445:35K3O9HUACKU4YFWKNH4KR9DA3MEFH", "dateTime": 1520544525387}, {"current_trial": 109, "trialdata": {"rt": -1, "trial_type": "single-stim", "stimulus": "<p id=\"stim\">7</p>", "internal_node_id": "0.0-79.0-3.0", "time_elapsed": 651466, "key_press": -1, "trial_index": 109}, "uniqueid": "MTK3445:35K3O9HUACKU4YFWKNH4KR9DA3MEFH", "dateTime": 1520544526391}, {"current_trial": 110, "trialdata": {"rt": -1, "trial_type": "single-stim", "stimulus": "<p id=\"stim\">6</p>", "internal_node_id": "0.0-79.0-4.0", "time_elapsed": 652472, "key_press": -1, "trial_index": 110}, "uniqueid": "MTK3445:35K3O9HUACKU4YFWKNH4KR9DA3MEFH", "dateTime": 1520544527397}, {"current_trial": 111, "trialdata": {"rt": -1, "trial_type": "single-stim", "stimulus": "<p id=\"stim\">5</p>", "internal_node_id": "0.0-79.0-5.0", "time_elapsed": 653475, "key_press": -1, "trial_index": 111}, "uniqueid": "MTK3445:35K3O9HUACKU4YFWKNH4KR9DA3MEFH", "dateTime": 1520544528401}, {"current_trial": 112, "trialdata": {"rt": -1, "trial_type": "single-stim", "stimulus": "<p id=\"stim\">4</p>", "internal_node_id": "0.0-79.0-6.0", "time_elapsed": 654480, "key_press": -1, "trial_index": 112}, "uniqueid": "MTK3445:35K3O9HUACKU4YFWKNH4KR9DA3MEFH", "dateTime": 1520544529405}, {"current_trial": 113, "trialdata": {"rt": -1, "trial_type": "single-stim", "stimulus": "<p id=\"stim\">3</p>", "internal_node_id": "0.0-79.0-7.0", "time_elapsed": 655484, "key_press": -1, "trial_index": 113}, "uniqueid": "MTK3445:35K3O9HUACKU4YFWKNH4KR9DA3MEFH", "dateTime": 1520544530409}, {"current_trial": 114, "trialdata": {"rt": -1, "trial_type": "single-stim", "stimulus": "<p id=\"stim\">2</p>", "internal_node_id": "0.0-79.0-8.0", "time_elapsed": 656487, "key_press": -1, "trial_index": 114}, "uniqueid": "MTK3445:35K3O9HUACKU4YFWKNH4KR9DA3MEFH", "dateTime": 1520544531412}, {"current_trial": 115, "trialdata": {"rt": -1, "trial_type": "single-stim", "stimulus": "<p id=\"stim\">1</p>", "internal_node_id": "0.0-79.0-9.0", "time_elapsed": 657492, "key_press": -1, "trial_index": 115}, "uniqueid": "MTK3445:35K3O9HUACKU4YFWKNH4KR9DA3MEFH", "dateTime": 1520544532417}, {"current_trial": 116, "trialdata": {"rt": -1, "trial_type": "single-stim", "stimulus": "<p id=\"stim\">+</p>", "internal_node_id": "0.0-80.0-0.0", "time_elapsed": 658993, "key_press": -1, "type": "FIXATION", "trial_index": 116}, "uniqueid": "MTK3445:35K3O9HUACKU4YFWKNH4KR9DA3MEFH", "dateTime": 1520544533918}, {"current_trial": 117, "trialdata": {"rt": -1, "trial_type": "single-stim", "word": "fiddle", "stimulus": "<p id=\"stim\">FIDDLE</p>", "conditions": [12, 1600, "v", 12000], "internal_node_id": "0.0-81.0", "trial": 3, "time_elapsed": 660596, "serialpos": 0, "key_press": -1, "wordID": 560, "type": "PRES_VIS", "trial_index": 117}, "uniqueid": "MTK3445:35K3O9HUACKU4YFWKNH4KR9DA3MEFH", "dateTime": 1520544535521}, {"current_trial": 118, "trialdata": {"rt": -1, "trial_type": "single-stim", "word": "creature", "stimulus": "<p id=\"stim\">CREATURE</p>", "conditions": [12, 1600, "v", 12000], "internal_node_id": "0.0-82.0", "trial": 3, "time_elapsed": 663120, "serialpos": 1, "key_press": -1, "wordID": 402, "type": "PRES_VIS", "trial_index": 118}, "uniqueid": "MTK3445:35K3O9HUACKU4YFWKNH4KR9DA3MEFH", "dateTime": 1520544538046}, {"current_trial": 119, "trialdata": {"rt": -1, "trial_type": "single-stim", "word": "fireplace", "stimulus": "<p id=\"stim\">FIREPLACE</p>", "conditions": [12, 1600, "v", 12000], "internal_node_id": "0.0-83.0", "trial": 3, "time_elapsed": 665592, "serialpos": 2, "key_press": -1, "wordID": 569, "type": "PRES_VIS", "trial_index": 119}, "uniqueid": "MTK3445:35K3O9HUACKU4YFWKNH4KR9DA3MEFH", "dateTime": 1520544540517}, {"current_trial": 120, "trialdata": {"rt": -1, "trial_type": "single-stim", "word": "thread", "stimulus": "<p id=\"stim\">THREAD</p>", "conditions": [12, 1600, "v", 12000], "internal_node_id": "0.0-84.0", "trial": 3, "time_elapsed": 668268, "serialpos": 3, "key_press": -1, "wordID": 1459, "type": "PRES_VIS", "trial_index": 120}, "uniqueid": "MTK3445:35K3O9HUACKU4YFWKNH4KR9DA3MEFH", "dateTime": 1520544543193}, {"current_trial": 121, "trialdata": {"rt": -1, "trial_type": "single-stim", "word": "picture", "stimulus": "<p id=\"stim\">PICTURE</p>", "conditions": [12, 1600, "v", 12000], "internal_node_id": "0.0-85.0", "trial": 3, "time_elapsed": 670770, "serialpos": 4, "key_press": -1, "wordID": 1060, "type": "PRES_VIS", "trial_index": 121}, "uniqueid": "MTK3445:35K3O9HUACKU4YFWKNH4KR9DA3MEFH", "dateTime": 1520544545695}, {"current_trial": 122, "trialdata": {"rt": -1, "trial_type": "single-stim", "word": "termite", "stimulus": "<p id=\"stim\">TERMITE</p>", "conditions": [12, 1600, "v", 12000], "internal_node_id": "0.0-86.0", "trial": 3, "time_elapsed": 673277, "serialpos": 5, "key_press": -1, "wordID": 1450, "type": "PRES_VIS", "trial_index": 122}, "uniqueid": "MTK3445:35K3O9HUACKU4YFWKNH4KR9DA3MEFH", "dateTime": 1520544548202}, {"current_trial": 123, "trialdata": {"rt": -1, "trial_type": "single-stim", "word": "fungus", "stimulus": "<p id=\"stim\">FUNGUS</p>", "conditions": [12, 1600, "v", 12000], "internal_node_id": "0.0-87.0", "trial": 3, "time_elapsed": 675888, "serialpos": 6, "key_press": -1, "wordID": 613, "type": "PRES_VIS", "trial_index": 123}, "uniqueid": "MTK3445:35K3O9HUACKU4YFWKNH4KR9DA3MEFH", "dateTime": 1520544550814}, {"current_trial": 124, "trialdata": {"rt": -1, "trial_type": "single-stim", "word": "pluto", "stimulus": "<p id=\"stim\">PLUTO</p>", "conditions": [12, 1600, "v", 12000], "internal_node_id": "0.0-88.0", "trial": 3, "time_elapsed": 678616, "serialpos": 7, "key_press": -1, "wordID": 1091, "type": "PRES_VIS", "trial_index": 124}, "uniqueid": "MTK3445:35K3O9HUACKU4YFWKNH4KR9DA3MEFH", "dateTime": 1520544553542}, {"current_trial": 125, "trialdata": {"rt": -1, "trial_type": "single-stim", "word": "venus", "stimulus": "<p id=\"stim\">VENUS</p>", "conditions": [12, 1600, "v", 12000], "internal_node_id": "0.0-89.0", "trial": 3, "time_elapsed": 681024, "serialpos": 8, "key_press": -1, "wordID": 1556, "type": "PRES_VIS", "trial_index": 125}, "uniqueid": "MTK3445:35K3O9HUACKU4YFWKNH4KR9DA3MEFH", "dateTime": 1520544555949}, {"current_trial": 126, "trialdata": {"rt": -1, "trial_type": "single-stim", "word": "belly", "stimulus": "<p id=\"stim\">BELLY</p>", "conditions": [12, 1600, "v", 12000], "internal_node_id": "0.0-90.0", "trial": 3, "time_elapsed": 683636, "serialpos": 9, "key_press": -1, "wordID": 118, "type": "PRES_VIS", "trial_index": 126}, "uniqueid": "MTK3445:35K3O9HUACKU4YFWKNH4KR9DA3MEFH", "dateTime": 1520544558561}, {"current_trial": 127, "trialdata": {"rt": -1, "trial_type": "single-stim", "word": "lava", "stimulus": "<p id=\"stim\">LAVA</p>", "conditions": [12, 1600, "v", 12000], "internal_node_id": "0.0-91.0", "trial": 3, "time_elapsed": 686393, "serialpos": 10, "key_press": -1, "wordID": 803, "type": "PRES_VIS", "trial_index": 127}, "uniqueid": "MTK3445:35K3O9HUACKU4YFWKNH4KR9DA3MEFH", "dateTime": 1520544561318}, {"current_trial": 128, "trialdata": {"rt": -1, "trial_type": "single-stim", "word": "harp", "stimulus": "<p id=\"stim\">HARP</p>", "conditions": [12, 1600, "v", 12000], "internal_node_id": "0.0-92.0", "trial": 3, "time_elapsed": 688947, "serialpos": 11, "key_press": -1, "wordID": 688, "type": "PRES_VIS", "trial_index": 128}, "uniqueid": "MTK3445:35K3O9HUACKU4YFWKNH4KR9DA3MEFH", "dateTime": 1520544563872}, {"current_trial": 129, "trialdata": {"rt": -1, "trial_type": "single-stim", "stimulus": "", "internal_node_id": "0.0-93.0-0.0", "time_elapsed": 691141, "key_press": -1, "type": "PRE_RECALL_DELAY", "trial_index": 129}, "uniqueid": "MTK3445:35K3O9HUACKU4YFWKNH4KR9DA3MEFH", "dateTime": 1520544566066}, {"current_trial": 130, "trialdata": {"rt": -1000, "trial_type": "single-audio", "stimulus": "/static/audio/400Hz.wav", "internal_node_id": "0.0-94.0", "time_elapsed": 691642, "key_press": -1, "type": "PRE_RECALL_ALERT", "trial_index": 130}, "uniqueid": "MTK3445:35K3O9HUACKU4YFWKNH4KR9DA3MEFH", "dateTime": 1520544566567}, {"current_trial": 131, "trialdata": {"rt": [2189, 4365, 6037, 8261, 9933, 11981, 13933, 16997], "recwords": ["lava", "harp", "belly", "pluto", "venus", "creature", "fiddle", "fireplace"], "key_times": [1286, 1550, 1757, 1950, 2189, 2838, 3021, 3717, 3829, 4365, 4814, 4973, 5197, 5349, 5638, 6037, 6821, 7069, 7319, 7461, 7597, 8261, 8813, 8973, 9109, 9341, 9468, 9933, 10237, 10469, 10669, 10885, 11189, 11389, 11493, 11748, 11981, 12861, 13061, 13253, 13421, 13565, 13693, 13933, 14733, 14957, 15045, 15245, 15373, 15588, 15692, 15972, 16212, 16997], "trial_type": "free-recall", "conditions": [12, 1600, "v", 12000], "internal_node_id": "0.0-95.0-0.0", "key_presses": [76, 65, 86, 65, 32, 72, 65, 82, 80, 13, 66, 69, 76, 76, 89, 13, 80, 76, 85, 84, 79, 13, 86, 69, 78, 85, 83, 13, 67, 82, 69, 65, 84, 85, 82, 69, 13, 70, 73, 68, 68, 76, 69, 13, 70, 73, 82, 69, 80, 76, 65, 67, 69, 13], "trial": 3, "time_elapsed": 751643, "type": "FREE_RECALL", "trial_index": 131}, "uniqueid": "MTK3445:35K3O9HUACKU4YFWKNH4KR9DA3MEFH", "dateTime": 1520544626570}, {"current_trial": 132, "trialdata": {"rt": 2940, "trial_type": "text", "internal_node_id": "0.0-96.0", "time_elapsed": 756591, "key_press": 13, "type": "INSTRUCTIONS", "trial_index": 132}, "uniqueid": "MTK3445:35K3O9HUACKU4YFWKNH4KR9DA3MEFH", "dateTime": 1520544631516}, {"current_trial": 133, "trialdata": {"rt": [2946, 5610, 7347, 9585, 11786], "trial_type": "math-distractor", "key_times": [2426, 2738, 2946, 5026, 5410, 5610, 7242, 7347, 8954, 9458, 9585, 11633, 11786], "responses": ["13", "15", "6", "17", "9"], "num2": [4, 2, 1, 7, 2, 4], "num3": [6, 5, 4, 7, 3, 4], "conditions": [24, 1600, "v", 12000], "internal_node_id": "0.0-97.0", "key_presses": [49, 51, 13, 49, 53, 13, 54, 13, 49, 55, 13, 57, 13], "trial": 4, "time_elapsed": 770597, "type": "DISTRACTOR", "trial_index": 133, "num1": [3, 8, 1, 3, 4, 7]}, "uniqueid": "MTK3445:35K3O9HUACKU4YFWKNH4KR9DA3MEFH", "dateTime": 1520544645522}, {"current_trial": 134, "trialdata": {"rt": -1, "trial_type": "single-stim", "stimulus": "<p id=\"stim\">10</p>", "internal_node_id": "0.0-98.0-0.0", "time_elapsed": 773604, "key_press": -1, "trial_index": 134}, "uniqueid": "MTK3445:35K3O9HUACKU4YFWKNH4KR9DA3MEFH", "dateTime": 1520544648529}, {"current_trial": 135, "trialdata": {"rt": -1, "trial_type": "single-stim", "stimulus": "<p id=\"stim\">9</p>", "internal_node_id": "0.0-98.0-1.0", "time_elapsed": 774608, "key_press": -1, "trial_index": 135}, "uniqueid": "MTK3445:35K3O9HUACKU4YFWKNH4KR9DA3MEFH", "dateTime": 1520544649533}, {"current_trial": 136, "trialdata": {"rt": -1, "trial_type": "single-stim", "stimulus": "<p id=\"stim\">8</p>", "internal_node_id": "0.0-98.0-2.0", "time_elapsed": 775612, "key_press": -1, "trial_index": 136}, "uniqueid": "MTK3445:35K3O9HUACKU4YFWKNH4KR9DA3MEFH", "dateTime": 1520544650537}, {"current_trial": 137, "trialdata": {"rt": -1, "trial_type": "single-stim", "stimulus": "<p id=\"stim\">7</p>", "internal_node_id": "0.0-98.0-3.0", "time_elapsed": 776616, "key_press": -1, "trial_index": 137}, "uniqueid": "MTK3445:35K3O9HUACKU4YFWKNH4KR9DA3MEFH", "dateTime": 1520544651541}, {"current_trial": 138, "trialdata": {"rt": -1, "trial_type": "single-stim", "stimulus": "<p id=\"stim\">6</p>", "internal_node_id": "0.0-98.0-4.0", "time_elapsed": 777621, "key_press": -1, "trial_index": 138}, "uniqueid": "MTK3445:35K3O9HUACKU4YFWKNH4KR9DA3MEFH", "dateTime": 1520544652546}, {"current_trial": 139, "trialdata": {"rt": -1, "trial_type": "single-stim", "stimulus": "<p id=\"stim\">5</p>", "internal_node_id": "0.0-98.0-5.0", "time_elapsed": 778625, "key_press": -1, "trial_index": 139}, "uniqueid": "MTK3445:35K3O9HUACKU4YFWKNH4KR9DA3MEFH", "dateTime": 1520544653550}, {"current_trial": 140, "trialdata": {"rt": -1, "trial_type": "single-stim", "stimulus": "<p id=\"stim\">4</p>", "internal_node_id": "0.0-98.0-6.0", "time_elapsed": 779628, "key_press": -1, "trial_index": 140}, "uniqueid": "MTK3445:35K3O9HUACKU4YFWKNH4KR9DA3MEFH", "dateTime": 1520544654554}, {"current_trial": 141, "trialdata": {"rt": -1, "trial_type": "single-stim", "stimulus": "<p id=\"stim\">3</p>", "internal_node_id": "0.0-98.0-7.0", "time_elapsed": 780632, "key_press": -1, "trial_index": 141}, "uniqueid": "MTK3445:35K3O9HUACKU4YFWKNH4KR9DA3MEFH", "dateTime": 1520544655557}, {"current_trial": 142, "trialdata": {"rt": -1, "trial_type": "single-stim", "stimulus": "<p id=\"stim\">2</p>", "internal_node_id": "0.0-98.0-8.0", "time_elapsed": 781636, "key_press": -1, "trial_index": 142}, "uniqueid": "MTK3445:35K3O9HUACKU4YFWKNH4KR9DA3MEFH", "dateTime": 1520544656562}, {"current_trial": 143, "trialdata": {"rt": -1, "trial_type": "single-stim", "stimulus": "<p id=\"stim\">1</p>", "internal_node_id": "0.0-98.0-9.0", "time_elapsed": 782640, "key_press": -1, "trial_index": 143}, "uniqueid": "MTK3445:35K3O9HUACKU4YFWKNH4KR9DA3MEFH", "dateTime": 1520544657565}, {"current_trial": 144, "trialdata": {"rt": -1, "trial_type": "single-stim", "stimulus": "<p id=\"stim\">+</p>", "internal_node_id": "0.0-99.0-0.0", "time_elapsed": 784143, "key_press": -1, "type": "FIXATION", "trial_index": 144}, "uniqueid": "MTK3445:35K3O9HUACKU4YFWKNH4KR9DA3MEFH", "dateTime": 1520544659068}, {"current_trial": 145, "trialdata": {"rt": -1, "trial_type": "single-stim", "word": "swimmer", "stimulus": "<p id=\"stim\">SWIMMER</p>", "conditions": [24, 1600, "v", 12000], "internal_node_id": "0.0-100.0", "trial": 4, "time_elapsed": 785746, "serialpos": 0, "key_press": -1, "wordID": 1419, "type": "PRES_VIS", "trial_index": 145}, "uniqueid": "MTK3445:35K3O9HUACKU4YFWKNH4KR9DA3MEFH", "dateTime": 1520544660671}, {"current_trial": 146, "trialdata": {"rt": -1, "trial_type": "single-stim", "word": "forehead", "stimulus": "<p id=\"stim\">FOREHEAD</p>", "conditions": [24, 1600, "v", 12000], "internal_node_id": "0.0-101.0", "trial": 4, "time_elapsed": 788346, "serialpos": 1, "key_press": -1, "wordID": 591, "type": "PRES_VIS", "trial_index": 146}, "uniqueid": "MTK3445:35K3O9HUACKU4YFWKNH4KR9DA3MEFH", "dateTime": 1520544663271}, {"current_trial": 147, "trialdata": {"rt": -1, "trial_type": "single-stim", "word": "plaster", "stimulus": "<p id=\"stim\">PLASTER</p>", "conditions": [24, 1600, "v", 12000], "internal_node_id": "0.0-102.0", "trial": 4, "time_elapsed": 790800, "serialpos": 2, "key_press": -1, "wordID": 1084, "type": "PRES_VIS", "trial_index": 147}, "uniqueid": "MTK3445:35K3O9HUACKU4YFWKNH4KR9DA3MEFH", "dateTime": 1520544665725}, {"current_trial": 148, "trialdata": {"rt": -1, "trial_type": "single-stim", "word": "radish", "stimulus": "<p id=\"stim\">RADISH</p>", "conditions": [24, 1600, "v", 12000], "internal_node_id": "0.0-103.0", "trial": 4, "time_elapsed": 793412, "serialpos": 3, "key_press": -1, "wordID": 1157, "type": "PRES_VIS", "trial_index": 148}, "uniqueid": "MTK3445:35K3O9HUACKU4YFWKNH4KR9DA3MEFH", "dateTime": 1520544668337}, {"current_trial": 149, "trialdata": {"rt": -1, "trial_type": "single-stim", "word": "lettuce", "stimulus": "<p id=\"stim\">LETTUCE</p>", "conditions": [24, 1600, "v", 12000], "internal_node_id": "0.0-104.0", "trial": 4, "time_elapsed": 795896, "serialpos": 4, "key_press": -1, "wordID": 813, "type": "PRES_VIS", "trial_index": 149}, "uniqueid": "MTK3445:35K3O9HUACKU4YFWKNH4KR9DA3MEFH", "dateTime": 1520544670821}, {"current_trial": 150, "trialdata": {"rt": -1, "trial_type": "single-stim", "word": "table", "stimulus": "<p id=\"stim\">TABLE</p>", "conditions": [24, 1600, "v", 12000], "internal_node_id": "0.0-105.0", "trial": 4, "time_elapsed": 798381, "serialpos": 5, "key_press": -1, "wordID": 1425, "type": "PRES_VIS", "trial_index": 150}, "uniqueid": "MTK3445:35K3O9HUACKU4YFWKNH4KR9DA3MEFH", "dateTime": 1520544673306}, {"current_trial": 151, "trialdata": {"rt": -1, "trial_type": "single-stim", "word": "pliers", "stimulus": "<p id=\"stim\">PLIERS</p>", "conditions": [24, 1600, "v", 12000], "internal_node_id": "0.0-106.0", "trial": 4, "time_elapsed": 801114, "serialpos": 6, "key_press": -1, "wordID": 1088, "type": "PRES_VIS", "trial_index": 151}, "uniqueid": "MTK3445:35K3O9HUACKU4YFWKNH4KR9DA3MEFH", "dateTime": 1520544676039}, {"current_trial": 152, "trialdata": {"rt": -1, "trial_type": "single-stim", "word": "chest", "stimulus": "<p id=\"stim\">CHEST</p>", "conditions": [24, 1600, "v", 12000], "internal_node_id": "0.0-107.0", "trial": 4, "time_elapsed": 803853, "serialpos": 7, "key_press": -1, "wordID": 294, "type": "PRES_VIS", "trial_index": 152}, "uniqueid": "MTK3445:35K3O9HUACKU4YFWKNH4KR9DA3MEFH", "dateTime": 1520544678779}, {"current_trial": 153, "trialdata": {"rt": -1, "trial_type": "single-stim", "word": "kitchen", "stimulus": "<p id=\"stim\">KITCHEN</p>", "conditions": [24, 1600, "v", 12000], "internal_node_id": "0.0-108.0", "trial": 4, "time_elapsed": 806471, "serialpos": 8, "key_press": -1, "wordID": 777, "type": "PRES_VIS", "trial_index": 153}, "uniqueid": "MTK3445:35K3O9HUACKU4YFWKNH4KR9DA3MEFH", "dateTime": 1520544681396}, {"current_trial": 154, "trialdata": {"rt": -1, "trial_type": "single-stim", "word": "cabbage", "stimulus": "<p id=\"stim\">CABBAGE</p>", "conditions": [24, 1600, "v", 12000], "internal_node_id": "0.0-109.0", "trial": 4, "time_elapsed": 809239, "serialpos": 9, "key_press": -1, "wordID": 209, "type": "PRES_VIS", "trial_index": 154}, "uniqueid": "MTK3445:35K3O9HUACKU4YFWKNH4KR9DA3MEFH", "dateTime": 1520544684164}, {"current_trial": 155, "trialdata": {"rt": -1, "trial_type": "single-stim", "word": "balloon", "stimulus": "<p id=\"stim\">BALLOON</p>", "conditions": [24, 1600, "v", 12000], "internal_node_id": "0.0-110.0", "trial": 4, "time_elapsed": 811944, "serialpos": 10, "key_press": -1, "wordID": 74, "type": "PRES_VIS", "trial_index": 155}, "uniqueid": "MTK3445:35K3O9HUACKU4YFWKNH4KR9DA3MEFH", "dateTime": 1520544686869}, {"current_trial": 156, "trialdata": {"rt": -1, "trial_type": "single-stim", "word": "leopard", "stimulus": "<p id=\"stim\">LEOPARD</p>", "conditions": [24, 1600, "v", 12000], "internal_node_id": "0.0-111.0", "trial": 4, "time_elapsed": 814376, "serialpos": 11, "key_press": -1, "wordID": 811, "type": "PRES_VIS", "trial_index": 156}, "uniqueid": "MTK3445:35K3O9HUACKU4YFWKNH4KR9DA3MEFH", "dateTime": 1520544689301}, {"current_trial": 157, "trialdata": {"rt": -1, "trial_type": "single-stim", "word": "iceberg", "stimulus": "<p id=\"stim\">ICEBERG</p>", "conditions": [24, 1600, "v", 12000], "internal_node_id": "0.0-112.0", "trial": 4, "time_elapsed": 817034, "serialpos": 12, "key_press": -1, "wordID": 730, "type": "PRES_VIS", "trial_index": 157}, "uniqueid": "MTK3445:35K3O9HUACKU4YFWKNH4KR9DA3MEFH", "dateTime": 1520544691959}, {"current_trial": 158, "trialdata": {"rt": -1, "trial_type": "single-stim", "word": "panther", "stimulus": "<p id=\"stim\">PANTHER</p>", "conditions": [24, 1600, "v", 12000], "internal_node_id": "0.0-113.0", "trial": 4, "time_elapsed": 819687, "serialpos": 13, "key_press": -1, "wordID": 1008, "type": "PRES_VIS", "trial_index": 158}, "uniqueid": "MTK3445:35K3O9HUACKU4YFWKNH4KR9DA3MEFH", "dateTime": 1520544694612}, {"current_trial": 159, "trialdata": {"rt": -1, "trial_type": "single-stim", "word": "wrist", "stimulus": "<p id=\"stim\">WRIST</p>", "conditions": [24, 1600, "v", 12000], "internal_node_id": "0.0-114.0", "trial": 4, "time_elapsed": 822437, "serialpos": 14, "key_press": -1, "wordID": 1625, "type": "PRES_VIS", "trial_index": 159}, "uniqueid": "MTK3445:35K3O9HUACKU4YFWKNH4KR9DA3MEFH", "dateTime": 1520544697362}, {"current_trial": 160, "trialdata": {"rt": -1, "trial_type": "single-stim", "word": "leg", "stimulus": "<p id=\"stim\">LEG</p>", "conditions": [24, 1600, "v", 12000], "internal_node_id": "0.0-115.0", "trial": 4, "time_elapsed": 825025, "serialpos": 15, "key_press": -1, "wordID": 808, "type": "PRES_VIS", "trial_index": 160}, "uniqueid": "MTK3445:35K3O9HUACKU4YFWKNH4KR9DA3MEFH", "dateTime": 1520544699951}, {"current_trial": 161, "trialdata": {"rt": -1, "trial_type": "single-stim", "word": "zebra", "stimulus": "<p id=\"stim\">ZEBRA</p>", "conditions": [24, 1600, "v", 12000], "internal_node_id": "0.0-116.0", "trial": 4, "time_elapsed": 827579, "serialpos": 16, "key_press": -1, "wordID": 1634, "type": "PRES_VIS", "trial_index": 161}, "uniqueid": "MTK3445:35K3O9HUACKU4YFWKNH4KR9DA3MEFH", "dateTime": 1520544702504}, {"current_trial": 162, "trialdata": {"rt": -1, "trial_type": "single-stim", "word": "coin", "stimulus": "<p id=\"stim\">COIN</p>", "conditions": [24, 1600, "v", 12000], "internal_node_id": "0.0-117.0", "trial": 4, "time_elapsed": 830278, "serialpos": 17, "key_press": -1, "wordID": 342, "type": "PRES_VIS", "trial_index": 162}, "uniqueid": "MTK3445:35K3O9HUACKU4YFWKNH4KR9DA3MEFH", "dateTime": 1520544705203}, {"current_trial": 163, "trialdata": {"rt": -1, "trial_type": "single-stim", "word": "agent", "stimulus": "<p id=\"stim\">AGENT</p>", "conditions": [24, 1600, "v", 12000], "internal_node_id": "0.0-118.0", "trial": 4, "time_elapsed": 833070, "serialpos": 18, "key_press": -1, "wordID": 9, "type": "PRES_VIS", "trial_index": 163}, "uniqueid": "MTK3445:35K3O9HUACKU4YFWKNH4KR9DA3MEFH", "dateTime": 1520544707995}, {"current_trial": 164, "trialdata": {"rt": -1, "trial_type": "single-stim", "word": "airport", "stimulus": "<p id=\"stim\">AIRPORT</p>", "conditions": [24, 1600, "v", 12000], "internal_node_id": "0.0-119.0", "trial": 4, "time_elapsed": 835829, "serialpos": 19, "key_press": -1, "wordID": 12, "type": "PRES_VIS", "trial_index": 164}, "uniqueid": "MTK3445:35K3O9HUACKU4YFWKNH4KR9DA3MEFH", "dateTime": 1520544710754}, {"current_trial": 165, "trialdata": {"rt": -1, "trial_type": "single-stim", "word": "waiter", "stimulus": "<p id=\"stim\">WAITER</p>", "conditions": [24, 1600, "v", 12000], "internal_node_id": "0.0-120.0", "trial": 4, "time_elapsed": 838270, "serialpos": 20, "key_press": -1, "wordID": 1579, "type": "PRES_VIS", "trial_index": 165}, "uniqueid": "MTK3445:35K3O9HUACKU4YFWKNH4KR9DA3MEFH", "dateTime": 1520544713195}, {"current_trial": 166, "trialdata": {"rt": -1, "trial_type": "single-stim", "word": "expert", "stimulus": "<p id=\"stim\">EXPERT</p>", "conditions": [24, 1600, "v", 12000], "internal_node_id": "0.0-121.0", "trial": 4, "time_elapsed": 840673, "serialpos": 21, "key_press": -1, "wordID": 542, "type": "PRES_VIS", "trial_index": 166}, "uniqueid": "MTK3445:35K3O9HUACKU4YFWKNH4KR9DA3MEFH", "dateTime": 1520544715598}, {"current_trial": 167, "trialdata": {"rt": -1, "trial_type": "single-stim", "word": "barrel", "stimulus": "<p id=\"stim\">BARREL</p>", "conditions": [24, 1600, "v", 12000], "internal_node_id": "0.0-122.0", "trial": 4, "time_elapsed": 843424, "serialpos": 22, "key_press": -1, "wordID": 90, "type": "PRES_VIS", "trial_index": 167}, "uniqueid": "MTK3445:35K3O9HUACKU4YFWKNH4KR9DA3MEFH", "dateTime": 1520544718349}, {"current_trial": 168, "trialdata": {"rt": -1, "trial_type": "single-stim", "word": "rooster", "stimulus": "<p id=\"stim\">ROOSTER</p>", "conditions": [24, 1600, "v", 12000], "internal_node_id": "0.0-123.0", "trial": 4, "time_elapsed": 846059, "serialpos": 23, "key_press": -1, "wordID": 1208, "type": "PRES_VIS", "trial_index": 168}, "uniqueid": "MTK3445:35K3O9HUACKU4YFWKNH4KR9DA3MEFH", "dateTime": 1520544720984}, {"current_trial": 169, "trialdata": {"rt": -1, "trial_type": "single-stim", "stimulus": "", "internal_node_id": "0.0-124.0-0.0", "time_elapsed": 848427, "key_press": -1, "type": "PRE_RECALL_DELAY", "trial_index": 169}, "uniqueid": "MTK3445:35K3O9HUACKU4YFWKNH4KR9DA3MEFH", "dateTime": 1520544723352}, {"current_trial": 170, "trialdata": {"rt": -1000, "trial_type": "single-audio", "stimulus": "/static/audio/400Hz.wav", "internal_node_id": "0.0-125.0", "time_elapsed": 848928, "key_press": -1, "type": "PRE_RECALL_ALERT", "trial_index": 170}, "uniqueid": "MTK3445:35K3O9HUACKU4YFWKNH4KR9DA3MEFH", "dateTime": 1520544723853}, {"current_trial": 171, "trialdata": {"rt": [6353, 10387, 11795, 17714, 20578, 22530, 26242, 29290, 31569, 33849, 36634, 43961], "recwords": ["balloon", "coin", "agent", "airport", "rooster", "kitchen", "cabbage", "leopard", "lettuce", "zebra", "panther", "table"], "key_times": [1444, 1715, 1971, 2163, 2843, 3075, 3218, 3411, 4083, 4259, 4491, 4666, 5179, 5363, 5578, 6353, 6715, 6844, 7042, 7163, 7427, 7690, 7890, 8042, 8226, 9179, 9331, 9498, 9659, 9835, 10387, 10699, 10907, 11043, 11250, 11395, 11795, 12162, 12539, 13826, 14314, 14530, 14722, 14754, 15091, 15226, 15450, 16347, 16530, 17315, 17714, 18651, 18898, 19050, 19210, 19435, 19555, 19738, 20578, 21179, 21363, 21538, 21762, 21938, 22058, 22210, 22530, 22762, 23018, 23235, 23386, 23578, 23739, 24882, 25067, 25547, 26242, 27306, 27491, 27658, 27859, 28067, 28347, 28586, 29290, 29866, 30098, 30370, 30522, 30730, 30866, 31114, 31569, 31938, 32210, 32410, 32650, 32802, 33849, 34722, 34954, 35177, 35434, 35626, 35769, 35994, 36634, 41977, 42378, 42554, 43242, 43418, 43961, 53922, 54465, 54786, 54986, 55153, 56913, 57420, 57506, 57594, 58081], "trial_type": "free-recall", "conditions": [24, 1600, "v", 12000], "internal_node_id": "0.0-126.0-0.0", "key_presses": [65, 73, 82, 219, 8, 8, 8, 8, 66, 65, 76, 76, 79, 79, 78, 13, 67, 79, 73, 78, 222, 65, 71, 69, 78, 8, 8, 8, 8, 8, 13, 65, 71, 69, 78, 84, 13, 65, 85, 8, 73, 82, 80, 79, 79, 82, 84, 37, 37, 8, 13, 82, 79, 79, 83, 84, 69, 82, 13, 75, 73, 84, 67, 72, 69, 78, 13, 67, 65, 66, 66, 71, 69, 37, 37, 65, 13, 76, 69, 79, 80, 65, 82, 68, 13, 76, 69, 84, 84, 85, 67, 69, 13, 90, 69, 66, 82, 65, 13, 80, 65, 78, 84, 72, 69, 82, 13, 84, 65, 66, 76, 69, 13, 65, 71, 69, 78, 84, 8, 8, 8, 8, 8], "trial": 4, "time_elapsed": 908934, "type": "FREE_RECALL", "trial_index": 171}, "uniqueid": "MTK3445:35K3O9HUACKU4YFWKNH4KR9DA3MEFH", "dateTime": 1520544783862}, {"current_trial": 172, "trialdata": {"rt": 7387, "trial_type": "text", "internal_node_id": "0.0-127.0", "time_elapsed": 918329, "key_press": 13, "type": "INSTRUCTIONS", "trial_index": 172}, "uniqueid": "MTK3445:35K3O9HUACKU4YFWKNH4KR9DA3MEFH", "dateTime": 1520544793254}, {"current_trial": 173, "trialdata": {"rt": [4253, 7468, 9972, 11974, 14532, 17396, 19644, 22261], "trial_type": "math-distractor", "key_times": [3476, 3748, 4253, 6492, 6732, 7468, 9837, 9972, 11277, 11804, 11974, 13868, 14036, 14532, 16892, 17100, 17396, 19035, 19517, 19644, 21580, 21660, 22261, 23844, 23988], "responses": ["26", "21", "5", "19", "20", "21", "17", "17"], "num2": [8, 8, 2, 6, 3, 7, 8, 7, 3], "num3": [9, 9, 2, 9, 8, 8, 1, 9, 8], "conditions": [12, 1600, "v", 24000], "internal_node_id": "0.0-128.0", "key_presses": [50, 54, 13, 50, 49, 13, 53, 13, 49, 57, 13, 50, 48, 13, 50, 49, 13, 49, 55, 13, 49, 55, 13, 49, 55], "trial": 5, "time_elapsed": 944335, "type": "DISTRACTOR", "trial_index": 173, "num1": [9, 4, 1, 4, 9, 6, 8, 1, 6]}, "uniqueid": "MTK3445:35K3O9HUACKU4YFWKNH4KR9DA3MEFH", "dateTime": 1520544819262}, {"current_trial": 174, "trialdata": {"rt": -1, "trial_type": "single-stim", "stimulus": "<p id=\"stim\">10</p>", "internal_node_id": "0.0-129.0-0.0", "time_elapsed": 947344, "key_press": -1, "trial_index": 174}, "uniqueid": "MTK3445:35K3O9HUACKU4YFWKNH4KR9DA3MEFH", "dateTime": 1520544822269}, {"current_trial": 175, "trialdata": {"rt": -1, "trial_type": "single-stim", "stimulus": "<p id=\"stim\">9</p>", "internal_node_id": "0.0-129.0-1.0", "time_elapsed": 948348, "key_press": -1, "trial_index": 175}, "uniqueid": "MTK3445:35K3O9HUACKU4YFWKNH4KR9DA3MEFH", "dateTime": 1520544823273}, {"current_trial": 176, "trialdata": {"rt": -1, "trial_type": "single-stim", "stimulus": "<p id=\"stim\">8</p>", "internal_node_id": "0.0-129.0-2.0", "time_elapsed": 949353, "key_press": -1, "trial_index": 176}, "uniqueid": "MTK3445:35K3O9HUACKU4YFWKNH4KR9DA3MEFH", "dateTime": 1520544824279}, {"current_trial": 177, "trialdata": {"rt": -1, "trial_type": "single-stim", "stimulus": "<p id=\"stim\">7</p>", "internal_node_id": "0.0-129.0-3.0", "time_elapsed": 950358, "key_press": -1, "trial_index": 177}, "uniqueid": "MTK3445:35K3O9HUACKU4YFWKNH4KR9DA3MEFH", "dateTime": 1520544825283}, {"current_trial": 178, "trialdata": {"rt": -1, "trial_type": "single-stim", "stimulus": "<p id=\"stim\">6</p>", "internal_node_id": "0.0-129.0-4.0", "time_elapsed": 951361, "key_press": -1, "trial_index": 178}, "uniqueid": "MTK3445:35K3O9HUACKU4YFWKNH4KR9DA3MEFH", "dateTime": 1520544826286}, {"current_trial": 179, "trialdata": {"rt": -1, "trial_type": "single-stim", "stimulus": "<p id=\"stim\">5</p>", "internal_node_id": "0.0-129.0-5.0", "time_elapsed": 952365, "key_press": -1, "trial_index": 179}, "uniqueid": "MTK3445:35K3O9HUACKU4YFWKNH4KR9DA3MEFH", "dateTime": 1520544827290}, {"current_trial": 180, "trialdata": {"rt": -1, "trial_type": "single-stim", "stimulus": "<p id=\"stim\">4</p>", "internal_node_id": "0.0-129.0-6.0", "time_elapsed": 953368, "key_press": -1, "trial_index": 180}, "uniqueid": "MTK3445:35K3O9HUACKU4YFWKNH4KR9DA3MEFH", "dateTime": 1520544828293}, {"current_trial": 181, "trialdata": {"rt": -1, "trial_type": "single-stim", "stimulus": "<p id=\"stim\">3</p>", "internal_node_id": "0.0-129.0-7.0", "time_elapsed": 954372, "key_press": -1, "trial_index": 181}, "uniqueid": "MTK3445:35K3O9HUACKU4YFWKNH4KR9DA3MEFH", "dateTime": 1520544829297}, {"current_trial": 182, "trialdata": {"rt": -1, "trial_type": "single-stim", "stimulus": "<p id=\"stim\">2</p>", "internal_node_id": "0.0-129.0-8.0", "time_elapsed": 955378, "key_press": -1, "trial_index": 182}, "uniqueid": "MTK3445:35K3O9HUACKU4YFWKNH4KR9DA3MEFH", "dateTime": 1520544830303}, {"current_trial": 183, "trialdata": {"rt": -1, "trial_type": "single-stim", "stimulus": "<p id=\"stim\">1</p>", "internal_node_id": "0.0-129.0-9.0", "time_elapsed": 956381, "key_press": -1, "trial_index": 183}, "uniqueid": "MTK3445:35K3O9HUACKU4YFWKNH4KR9DA3MEFH", "dateTime": 1520544831306}, {"current_trial": 184, "trialdata": {"rt": -1, "trial_type": "single-stim", "stimulus": "<p id=\"stim\">+</p>", "internal_node_id": "0.0-130.0-0.0", "time_elapsed": 957884, "key_press": -1, "type": "FIXATION", "trial_index": 184}, "uniqueid": "MTK3445:35K3O9HUACKU4YFWKNH4KR9DA3MEFH", "dateTime": 1520544832809}, {"current_trial": 185, "trialdata": {"rt": -1, "trial_type": "single-stim", "word": "milk", "stimulus": "<p id=\"stim\">MILK</p>", "conditions": [12, 1600, "v", 24000], "internal_node_id": "0.0-131.0", "trial": 5, "time_elapsed": 959485, "serialpos": 0, "key_press": -1, "wordID": 894, "type": "PRES_VIS", "trial_index": 185}, "uniqueid": "MTK3445:35K3O9HUACKU4YFWKNH4KR9DA3MEFH", "dateTime": 1520544834410}, {"current_trial": 186, "trialdata": {"rt": -1, "trial_type": "single-stim", "word": "honey", "stimulus": "<p id=\"stim\">HONEY</p>", "conditions": [12, 1600, "v", 24000], "internal_node_id": "0.0-132.0", "trial": 5, "time_elapsed": 962074, "serialpos": 1, "key_press": -1, "wordID": 712, "type": "PRES_VIS", "trial_index": 186}, "uniqueid": "MTK3445:35K3O9HUACKU4YFWKNH4KR9DA3MEFH", "dateTime": 1520544836999}, {"current_trial": 187, "trialdata": {"rt": -1, "trial_type": "single-stim", "word": "mattress", "stimulus": "<p id=\"stim\">MATTRESS</p>", "conditions": [12, 1600, "v", 24000], "internal_node_id": "0.0-133.0", "trial": 5, "time_elapsed": 964629, "serialpos": 2, "key_press": -1, "wordID": 878, "type": "PRES_VIS", "trial_index": 187}, "uniqueid": "MTK3445:35K3O9HUACKU4YFWKNH4KR9DA3MEFH", "dateTime": 1520544839554}, {"current_trial": 188, "trialdata": {"rt": -1, "trial_type": "single-stim", "word": "washer", "stimulus": "<p id=\"stim\">WASHER</p>", "conditions": [12, 1600, "v", 24000], "internal_node_id": "0.0-134.0", "trial": 5, "time_elapsed": 967291, "serialpos": 3, "key_press": -1, "wordID": 1591, "type": "PRES_VIS", "trial_index": 188}, "uniqueid": "MTK3445:35K3O9HUACKU4YFWKNH4KR9DA3MEFH", "dateTime": 1520544842216}, {"current_trial": 189, "trialdata": {"rt": -1, "trial_type": "single-stim", "word": "quail", "stimulus": "<p id=\"stim\">QUAIL</p>", "conditions": [12, 1600, "v", 24000], "internal_node_id": "0.0-135.0", "trial": 5, "time_elapsed": 969729, "serialpos": 4, "key_press": -1, "wordID": 1146, "type": "PRES_VIS", "trial_index": 189}, "uniqueid": "MTK3445:35K3O9HUACKU4YFWKNH4KR9DA3MEFH", "dateTime": 1520544844655}, {"current_trial": 190, "trialdata": {"rt": -1, "trial_type": "single-stim", "word": "elbow", "stimulus": "<p id=\"stim\">ELBOW</p>", "conditions": [12, 1600, "v", 24000], "internal_node_id": "0.0-136.0", "trial": 5, "time_elapsed": 972149, "serialpos": 5, "key_press": -1, "wordID": 519, "type": "PRES_VIS", "trial_index": 190}, "uniqueid": "MTK3445:35K3O9HUACKU4YFWKNH4KR9DA3MEFH", "dateTime": 1520544847074}, {"current_trial": 191, "trialdata": {"rt": -1, "trial_type": "single-stim", "word": "taxi", "stimulus": "<p id=\"stim\">TAXI</p>", "conditions": [12, 1600, "v", 24000], "internal_node_id": "0.0-137.0", "trial": 5, "time_elapsed": 974738, "serialpos": 6, "key_press": -1, "wordID": 1437, "type": "PRES_VIS", "trial_index": 191}, "uniqueid": "MTK3445:35K3O9HUACKU4YFWKNH4KR9DA3MEFH", "dateTime": 1520544849663}, {"current_trial": 192, "trialdata": {"rt": -1, "trial_type": "single-stim", "word": "subway", "stimulus": "<p id=\"stim\">SUBWAY</p>", "conditions": [12, 1600, "v", 24000], "internal_node_id": "0.0-138.0", "trial": 5, "time_elapsed": 977350, "serialpos": 7, "key_press": -1, "wordID": 1399, "type": "PRES_VIS", "trial_index": 192}, "uniqueid": "MTK3445:35K3O9HUACKU4YFWKNH4KR9DA3MEFH", "dateTime": 1520544852275}, {"current_trial": 193, "trialdata": {"rt": -1, "trial_type": "single-stim", "word": "mustard", "stimulus": "<p id=\"stim\">MUSTARD</p>", "conditions": [12, 1600, "v", 24000], "internal_node_id": "0.0-139.0", "trial": 5, "time_elapsed": 980008, "serialpos": 8, "key_press": -1, "wordID": 934, "type": "PRES_VIS", "trial_index": 193}, "uniqueid": "MTK3445:35K3O9HUACKU4YFWKNH4KR9DA3MEFH", "dateTime": 1520544854933}, {"current_trial": 194, "trialdata": {"rt": -1, "trial_type": "single-stim", "word": "camel", "stimulus": "<p id=\"stim\">CAMEL</p>", "conditions": [12, 1600, "v", 24000], "internal_node_id": "0.0-140.0", "trial": 5, "time_elapsed": 982486, "serialpos": 9, "key_press": -1, "wordID": 222, "type": "PRES_VIS", "trial_index": 194}, "uniqueid": "MTK3445:35K3O9HUACKU4YFWKNH4KR9DA3MEFH", "dateTime": 1520544857411}, {"current_trial": 195, "trialdata": {"rt": -1, "trial_type": "single-stim", "word": "couch", "stimulus": "<p id=\"stim\">COUCH</p>", "conditions": [12, 1600, "v", 24000], "internal_node_id": "0.0-141.0", "trial": 5, "time_elapsed": 984894, "serialpos": 10, "key_press": -1, "wordID": 385, "type": "PRES_VIS", "trial_index": 195}, "uniqueid": "MTK3445:35K3O9HUACKU4YFWKNH4KR9DA3MEFH", "dateTime": 1520544859820}, {"current_trial": 196, "trialdata": {"rt": -1, "trial_type": "single-stim", "word": "jelly", "stimulus": "<p id=\"stim\">JELLY</p>", "conditions": [12, 1600, "v", 24000], "internal_node_id": "0.0-142.0", "trial": 5, "time_elapsed": 987565, "serialpos": 11, "key_press": -1, "wordID": 754, "type": "PRES_VIS", "trial_index": 196}, "uniqueid": "MTK3445:35K3O9HUACKU4YFWKNH4KR9DA3MEFH", "dateTime": 1520544862490}, {"current_trial": 197, "trialdata": {"rt": -1, "trial_type": "single-stim", "stimulus": "", "internal_node_id": "0.0-143.0-0.0", "time_elapsed": 989706, "key_press": -1, "type": "PRE_RECALL_DELAY", "trial_index": 197}, "uniqueid": "MTK3445:35K3O9HUACKU4YFWKNH4KR9DA3MEFH", "dateTime": 1520544864631}, {"current_trial": 198, "trialdata": {"rt": -1000, "trial_type": "single-audio", "stimulus": "/static/audio/400Hz.wav", "internal_node_id": "0.0-144.0", "time_elapsed": 990207, "key_press": -1, "type": "PRE_RECALL_ALERT", "trial_index": 198}, "uniqueid": "MTK3445:35K3O9HUACKU4YFWKNH4KR9DA3MEFH", "dateTime": 1520544865132}, {"current_trial": 199, "trialdata": {"rt": [2775, 5016, 6775, 8647, 10991, 12647, 20791], "recwords": ["taxi", "subway", "camel", "couch", "mustard", "elbow", "honey"], "key_times": [1696, 1895, 2079, 2472, 2775, 3455, 3703, 3911, 4239, 4463, 4639, 5016, 5615, 5879, 6055, 6198, 6399, 6775, 7423, 7671, 7919, 8086, 8231, 8647, 9327, 9527, 9695, 9823, 9950, 10118, 10287, 10991, 11223, 11704, 11959, 12151, 12367, 12647, 18598, 18831, 19062, 19871, 19966, 20791], "trial_type": "free-recall", "conditions": [12, 1600, "v", 24000], "internal_node_id": "0.0-145.0-0.0", "key_presses": [84, 65, 88, 73, 32, 83, 85, 66, 87, 65, 89, 32, 67, 65, 77, 69, 76, 13, 67, 79, 85, 67, 72, 13, 77, 85, 83, 84, 65, 82, 68, 13, 69, 76, 66, 79, 87, 13, 72, 79, 78, 69, 89, 13], "trial": 5, "time_elapsed": 1050213, "type": "FREE_RECALL", "trial_index": 199}, "uniqueid": "MTK3445:35K3O9HUACKU4YFWKNH4KR9DA3MEFH", "dateTime": 1520544925141}, {"current_trial": 200, "trialdata": {"rt": 4418, "trial_type": "text", "internal_node_id": "0.0-146.0", "time_elapsed": 1056638, "key_press": 13, "type": "INSTRUCTIONS", "trial_index": 200}, "uniqueid": "MTK3445:35K3O9HUACKU4YFWKNH4KR9DA3MEFH", "dateTime": 1520544931563}, {"current_trial": 201, "trialdata": {"rt": [5734, 8502, 10366], "trial_type": "math-distractor", "key_times": [4750, 5182, 5734, 7974, 8351, 8502, 10126, 10278, 10366], "responses": ["20", "14", "22"], "num2": [3, 2, 7, 1], "num3": [9, 7, 7, 5], "conditions": [12, 1600, "v", 12000], "internal_node_id": "0.0-147.0", "key_presses": [50, 48, 13, 49, 52, 13, 50, 50, 13], "trial": 6, "time_elapsed": 1070643, "type": "DISTRACTOR", "trial_index": 201, "num1": [8, 5, 8, 7]}, "uniqueid": "MTK3445:35K3O9HUACKU4YFWKNH4KR9DA3MEFH", "dateTime": 1520544945568}, {"current_trial": 202, "trialdata": {"rt": -1, "trial_type": "single-stim", "stimulus": "<p id=\"stim\">10</p>", "internal_node_id": "0.0-148.0-0.0", "time_elapsed": 1073648, "key_press": -1, "trial_index": 202}, "uniqueid": "MTK3445:35K3O9HUACKU4YFWKNH4KR9DA3MEFH", "dateTime": 1520544948573}, {"current_trial": 203, "trialdata": {"rt": -1, "trial_type": "single-stim", "stimulus": "<p id=\"stim\">9</p>", "internal_node_id": "0.0-148.0-1.0", "time_elapsed": 1074653, "key_press": -1, "trial_index": 203}, "uniqueid": "MTK3445:35K3O9HUACKU4YFWKNH4KR9DA3MEFH", "dateTime": 1520544949578}, {"current_trial": 204, "trialdata": {"rt": -1, "trial_type": "single-stim", "stimulus": "<p id=\"stim\">8</p>", "internal_node_id": "0.0-148.0-2.0", "time_elapsed": 1075658, "key_press": -1, "trial_index": 204}, "uniqueid": "MTK3445:35K3O9HUACKU4YFWKNH4KR9DA3MEFH", "dateTime": 1520544950584}, {"current_trial": 205, "trialdata": {"rt": -1, "trial_type": "single-stim", "stimulus": "<p id=\"stim\">7</p>", "internal_node_id": "0.0-148.0-3.0", "time_elapsed": 1076662, "key_press": -1, "trial_index": 205}, "uniqueid": "MTK3445:35K3O9HUACKU4YFWKNH4KR9DA3MEFH", "dateTime": 1520544951587}, {"current_trial": 206, "trialdata": {"rt": -1, "trial_type": "single-stim", "stimulus": "<p id=\"stim\">6</p>", "internal_node_id": "0.0-148.0-4.0", "time_elapsed": 1077666, "key_press": -1, "trial_index": 206}, "uniqueid": "MTK3445:35K3O9HUACKU4YFWKNH4KR9DA3MEFH", "dateTime": 1520544952591}, {"current_trial": 207, "trialdata": {"rt": -1, "trial_type": "single-stim", "stimulus": "<p id=\"stim\">5</p>", "internal_node_id": "0.0-148.0-5.0", "time_elapsed": 1078670, "key_press": -1, "trial_index": 207}, "uniqueid": "MTK3445:35K3O9HUACKU4YFWKNH4KR9DA3MEFH", "dateTime": 1520544953595}, {"current_trial": 208, "trialdata": {"rt": -1, "trial_type": "single-stim", "stimulus": "<p id=\"stim\">4</p>", "internal_node_id": "0.0-148.0-6.0", "time_elapsed": 1079675, "key_press": -1, "trial_index": 208}, "uniqueid": "MTK3445:35K3O9HUACKU4YFWKNH4KR9DA3MEFH", "dateTime": 1520544954600}, {"current_trial": 209, "trialdata": {"rt": -1, "trial_type": "single-stim", "stimulus": "<p id=\"stim\">3</p>", "internal_node_id": "0.0-148.0-7.0", "time_elapsed": 1080678, "key_press": -1, "trial_index": 209}, "uniqueid": "MTK3445:35K3O9HUACKU4YFWKNH4KR9DA3MEFH", "dateTime": 1520544955603}, {"current_trial": 210, "trialdata": {"rt": -1, "trial_type": "single-stim", "stimulus": "<p id=\"stim\">2</p>", "internal_node_id": "0.0-148.0-8.0", "time_elapsed": 1081681, "key_press": -1, "trial_index": 210}, "uniqueid": "MTK3445:35K3O9HUACKU4YFWKNH4KR9DA3MEFH", "dateTime": 1520544956606}, {"current_trial": 211, "trialdata": {"rt": -1, "trial_type": "single-stim", "stimulus": "<p id=\"stim\">1</p>", "internal_node_id": "0.0-148.0-9.0", "time_elapsed": 1082685, "key_press": -1, "trial_index": 211}, "uniqueid": "MTK3445:35K3O9HUACKU4YFWKNH4KR9DA3MEFH", "dateTime": 1520544957610}, {"current_trial": 212, "trialdata": {"rt": -1, "trial_type": "single-stim", "stimulus": "<p id=\"stim\">+</p>", "internal_node_id": "0.0-149.0-0.0", "time_elapsed": 1084188, "key_press": -1, "type": "FIXATION", "trial_index": 212}, "uniqueid": "MTK3445:35K3O9HUACKU4YFWKNH4KR9DA3MEFH", "dateTime": 1520544959113}, {"current_trial": 213, "trialdata": {"rt": -1, "trial_type": "single-stim", "word": "monster", "stimulus": "<p id=\"stim\">MONSTER</p>", "conditions": [12, 1600, "v", 12000], "internal_node_id": "0.0-150.0", "trial": 6, "time_elapsed": 1085790, "serialpos": 0, "key_press": -1, "wordID": 911, "type": "PRES_VIS", "trial_index": 213}, "uniqueid": "MTK3445:35K3O9HUACKU4YFWKNH4KR9DA3MEFH", "dateTime": 1520544960715}, {"current_trial": 214, "trialdata": {"rt": -1, "trial_type": "single-stim", "word": "judge", "stimulus": "<p id=\"stim\">JUDGE</p>", "conditions": [12, 1600, "v", 12000], "internal_node_id": "0.0-151.0", "trial": 6, "time_elapsed": 1088286, "serialpos": 1, "key_press": -1, "wordID": 760, "type": "PRES_VIS", "trial_index": 214}, "uniqueid": "MTK3445:35K3O9HUACKU4YFWKNH4KR9DA3MEFH", "dateTime": 1520544963211}, {"current_trial": 215, "trialdata": {"rt": -1, "trial_type": "single-stim", "word": "citrus", "stimulus": "<p id=\"stim\">CITRUS</p>", "conditions": [12, 1600, "v", 12000], "internal_node_id": "0.0-152.0", "trial": 6, "time_elapsed": 1090694, "serialpos": 2, "key_press": -1, "wordID": 312, "type": "PRES_VIS", "trial_index": 215}, "uniqueid": "MTK3445:35K3O9HUACKU4YFWKNH4KR9DA3MEFH", "dateTime": 1520544965619}, {"current_trial": 216, "trialdata": {"rt": -1, "trial_type": "single-stim", "word": "cook", "stimulus": "<p id=\"stim\">COOK</p>", "conditions": [12, 1600, "v", 12000], "internal_node_id": "0.0-153.0", "trial": 6, "time_elapsed": 1093311, "serialpos": 3, "key_press": -1, "wordID": 371, "type": "PRES_VIS", "trial_index": 216}, "uniqueid": "MTK3445:35K3O9HUACKU4YFWKNH4KR9DA3MEFH", "dateTime": 1520544968236}, {"current_trial": 217, "trialdata": {"rt": -1, "trial_type": "single-stim", "word": "princess", "stimulus": "<p id=\"stim\">PRINCESS</p>", "conditions": [12, 1600, "v", 12000], "internal_node_id": "0.0-154.0", "trial": 6, "time_elapsed": 1096045, "serialpos": 4, "key_press": -1, "wordID": 1124, "type": "PRES_VIS", "trial_index": 217}, "uniqueid": "MTK3445:35K3O9HUACKU4YFWKNH4KR9DA3MEFH", "dateTime": 1520544970970}, {"current_trial": 218, "trialdata": {"rt": -1, "trial_type": "single-stim", "word": "mars", "stimulus": "<p id=\"stim\">MARS</p>", "conditions": [12, 1600, "v", 12000], "internal_node_id": "0.0-155.0", "trial": 6, "time_elapsed": 1098547, "serialpos": 5, "key_press": -1, "wordID": 872, "type": "PRES_VIS", "trial_index": 218}, "uniqueid": "MTK3445:35K3O9HUACKU4YFWKNH4KR9DA3MEFH", "dateTime": 1520544973472}, {"current_trial": 219, "trialdata": {"rt": -1, "trial_type": "single-stim", "word": "pork", "stimulus": "<p id=\"stim\">PORK</p>", "conditions": [12, 1600, "v", 12000], "internal_node_id": "0.0-156.0", "trial": 6, "time_elapsed": 1101223, "serialpos": 6, "key_press": -1, "wordID": 1107, "type": "PRES_VIS", "trial_index": 219}, "uniqueid": "MTK3445:35K3O9HUACKU4YFWKNH4KR9DA3MEFH", "dateTime": 1520544976148}, {"current_trial": 220, "trialdata": {"rt": -1, "trial_type": "single-stim", "word": "cookbook", "stimulus": "<p id=\"stim\">COOKBOOK</p>", "conditions": [12, 1600, "v", 12000], "internal_node_id": "0.0-157.0", "trial": 6, "time_elapsed": 1103979, "serialpos": 7, "key_press": -1, "wordID": 372, "type": "PRES_VIS", "trial_index": 220}, "uniqueid": "MTK3445:35K3O9HUACKU4YFWKNH4KR9DA3MEFH", "dateTime": 1520544978904}, {"current_trial": 221, "trialdata": {"rt": -1, "trial_type": "single-stim", "word": "beast", "stimulus": "<p id=\"stim\">BEAST</p>", "conditions": [12, 1600, "v", 12000], "internal_node_id": "0.0-158.0", "trial": 6, "time_elapsed": 1106638, "serialpos": 8, "key_press": -1, "wordID": 107, "type": "PRES_VIS", "trial_index": 221}, "uniqueid": "MTK3445:35K3O9HUACKU4YFWKNH4KR9DA3MEFH", "dateTime": 1520544981563}, {"current_trial": 222, "trialdata": {"rt": -1, "trial_type": "single-stim", "word": "country", "stimulus": "<p id=\"stim\">COUNTRY</p>", "conditions": [12, 1600, "v", 12000], "internal_node_id": "0.0-159.0", "trial": 6, "time_elapsed": 1109428, "serialpos": 9, "key_press": -1, "wordID": 387, "type": "PRES_VIS", "trial_index": 222}, "uniqueid": "MTK3445:35K3O9HUACKU4YFWKNH4KR9DA3MEFH", "dateTime": 1520544984353}, {"current_trial": 223, "trialdata": {"rt": -1, "trial_type": "single-stim", "word": "world", "stimulus": "<p id=\"stim\">WORLD</p>", "conditions": [12, 1600, "v", 12000], "internal_node_id": "0.0-160.0", "trial": 6, "time_elapsed": 1112128, "serialpos": 10, "key_press": -1, "wordID": 1621, "type": "PRES_VIS", "trial_index": 223}, "uniqueid": "MTK3445:35K3O9HUACKU4YFWKNH4KR9DA3MEFH", "dateTime": 1520544987053}, {"current_trial": 224, "trialdata": {"rt": -1, "trial_type": "single-stim", "word": "smog", "stimulus": "<p id=\"stim\">SMOG</p>", "conditions": [12, 1600, "v", 12000], "internal_node_id": "0.0-161.0", "trial": 6, "time_elapsed": 1114705, "serialpos": 11, "key_press": -1, "wordID": 1329, "type": "PRES_VIS", "trial_index": 224}, "uniqueid": "MTK3445:35K3O9HUACKU4YFWKNH4KR9DA3MEFH", "dateTime": 1520544989630}, {"current_trial": 225, "trialdata": {"rt": -1, "trial_type": "single-stim", "stimulus": "", "internal_node_id": "0.0-162.0-0.0", "time_elapsed": 1117183, "key_press": -1, "type": "PRE_RECALL_DELAY", "trial_index": 225}, "uniqueid": "MTK3445:35K3O9HUACKU4YFWKNH4KR9DA3MEFH", "dateTime": 1520544992108}, {"current_trial": 226, "trialdata": {"rt": -1000, "trial_type": "single-audio", "stimulus": "/static/audio/400Hz.wav", "internal_node_id": "0.0-163.0", "time_elapsed": 1117684, "key_press": -1, "type": "PRE_RECALL_ALERT", "trial_index": 226}, "uniqueid": "MTK3445:35K3O9HUACKU4YFWKNH4KR9DA3MEFH", "dateTime": 1520544992609}, {"current_trial": 227, "trialdata": {"rt": [3799, 6855, 8928, 13431, 15783, 17791, 21791, 23839], "recwords": ["world", "citrus", "smog", "monster", "judge", "cook", "princess", "mars"], "key_times": [1256, 1504, 2240, 3080, 3279, 3432, 3591, 3799, 4792, 5288, 5487, 5703, 5887, 6048, 6855, 7839, 8127, 8303, 8544, 8928, 9615, 9759, 10007, 10264, 10375, 10616, 11808, 12032, 12200, 12487, 12736, 13431, 14264, 14471, 14728, 14855, 15024, 15783, 16727, 16967, 17135, 17359, 17791, 19055, 19567, 19711, 20087, 20223, 20487, 20791, 20991, 21791, 22431, 22623, 22887, 23175, 23839], "trial_type": "free-recall", "conditions": [12, 1600, "v", 12000], "internal_node_id": "0.0-164.0-0.0", "key_presses": [87, 80, 8, 79, 82, 76, 68, 32, 67, 73, 84, 82, 85, 83, 13, 83, 77, 79, 71, 13, 77, 79, 83, 84, 69, 82, 37, 37, 37, 37, 78, 13, 74, 85, 68, 71, 69, 13, 67, 79, 79, 75, 13, 80, 82, 73, 78, 67, 69, 83, 83, 13, 77, 65, 82, 83, 13], "trial": 6, "time_elapsed": 1177690, "type": "FREE_RECALL", "trial_index": 227}, "uniqueid": "MTK3445:35K3O9HUACKU4YFWKNH4KR9DA3MEFH", "dateTime": 1520545052618}, {"current_trial": 228, "trialdata": {"rt": 1321, "trial_type": "text", "internal_node_id": "0.0-165.0", "time_elapsed": 1181019, "key_press": 13, "type": "INSTRUCTIONS", "trial_index": 228}, "uniqueid": "MTK3445:35K3O9HUACKU4YFWKNH4KR9DA3MEFH", "dateTime": 1520545055944}, {"current_trial": 229, "trialdata": {"rt": [3834, 5867, 8156, 11803, 15114, 17378, 19979, 22514], "trial_type": "math-distractor", "key_times": [2795, 3035, 3834, 5587, 5771, 5867, 7251, 7970, 8156, 11099, 11355, 11803, 14090, 14611, 15114, 16618, 17202, 17378, 19475, 19818, 19979, 22090, 22362, 22514], "responses": ["21", "11", "18", "21", "26", "17", "14", "12"], "num2": [6, 2, 3, 9, 8, 6, 4, 1, 4], "num3": [8, 1, 8, 7, 9, 7, 9, 8, 2], "conditions": [12, 800, "v", 24000], "internal_node_id": "0.0-166.0", "key_presses": [50, 49, 13, 49, 49, 13, 49, 56, 13, 50, 49, 13, 50, 54, 13, 49, 55, 13, 49, 52, 13, 49, 50, 13], "trial": 7, "time_elapsed": 1207029, "type": "DISTRACTOR", "trial_index": 229, "num1": [7, 8, 7, 5, 9, 4, 1, 3, 3]}, "uniqueid": "MTK3445:35K3O9HUACKU4YFWKNH4KR9DA3MEFH", "dateTime": 1520545081954}, {"current_trial": 230, "trialdata": {"rt": -1, "trial_type": "single-stim", "stimulus": "<p id=\"stim\">10</p>", "internal_node_id": "0.0-167.0-0.0", "time_elapsed": 1210035, "key_press": -1, "trial_index": 230}, "uniqueid": "MTK3445:35K3O9HUACKU4YFWKNH4KR9DA3MEFH", "dateTime": 1520545084960}, {"current_trial": 231, "trialdata": {"rt": -1, "trial_type": "single-stim", "stimulus": "<p id=\"stim\">9</p>", "internal_node_id": "0.0-167.0-1.0", "time_elapsed": 1211039, "key_press": -1, "trial_index": 231}, "uniqueid": "MTK3445:35K3O9HUACKU4YFWKNH4KR9DA3MEFH", "dateTime": 1520545085964}, {"current_trial": 232, "trialdata": {"rt": -1, "trial_type": "single-stim", "stimulus": "<p id=\"stim\">8</p>", "internal_node_id": "0.0-167.0-2.0", "time_elapsed": 1212045, "key_press": -1, "trial_index": 232}, "uniqueid": "MTK3445:35K3O9HUACKU4YFWKNH4KR9DA3MEFH", "dateTime": 1520545086970}, {"current_trial": 233, "trialdata": {"rt": -1, "trial_type": "single-stim", "stimulus": "<p id=\"stim\">7</p>", "internal_node_id": "0.0-167.0-3.0", "time_elapsed": 1213048, "key_press": -1, "trial_index": 233}, "uniqueid": "MTK3445:35K3O9HUACKU4YFWKNH4KR9DA3MEFH", "dateTime": 1520545087973}, {"current_trial": 234, "trialdata": {"rt": -1, "trial_type": "single-stim", "stimulus": "<p id=\"stim\">6</p>", "internal_node_id": "0.0-167.0-4.0", "time_elapsed": 1214052, "key_press": -1, "trial_index": 234}, "uniqueid": "MTK3445:35K3O9HUACKU4YFWKNH4KR9DA3MEFH", "dateTime": 1520545088978}, {"current_trial": 235, "trialdata": {"rt": -1, "trial_type": "single-stim", "stimulus": "<p id=\"stim\">5</p>", "internal_node_id": "0.0-167.0-5.0", "time_elapsed": 1215056, "key_press": -1, "trial_index": 235}, "uniqueid": "MTK3445:35K3O9HUACKU4YFWKNH4KR9DA3MEFH", "dateTime": 1520545089981}, {"current_trial": 236, "trialdata": {"rt": -1, "trial_type": "single-stim", "stimulus": "<p id=\"stim\">4</p>", "internal_node_id": "0.0-167.0-6.0", "time_elapsed": 1216061, "key_press": -1, "trial_index": 236}, "uniqueid": "MTK3445:35K3O9HUACKU4YFWKNH4KR9DA3MEFH", "dateTime": 1520545090986}, {"current_trial": 237, "trialdata": {"rt": -1, "trial_type": "single-stim", "stimulus": "<p id=\"stim\">3</p>", "internal_node_id": "0.0-167.0-7.0", "time_elapsed": 1217065, "key_press": -1, "trial_index": 237}, "uniqueid": "MTK3445:35K3O9HUACKU4YFWKNH4KR9DA3MEFH", "dateTime": 1520545091990}, {"current_trial": 238, "trialdata": {"rt": -1, "trial_type": "single-stim", "stimulus": "<p id=\"stim\">2</p>", "internal_node_id": "0.0-167.0-8.0", "time_elapsed": 1218069, "key_press": -1, "trial_index": 238}, "uniqueid": "MTK3445:35K3O9HUACKU4YFWKNH4KR9DA3MEFH", "dateTime": 1520545092994}, {"current_trial": 239, "trialdata": {"rt": -1, "trial_type": "single-stim", "stimulus": "<p id=\"stim\">1</p>", "internal_node_id": "0.0-167.0-9.0", "time_elapsed": 1219073, "key_press": -1, "trial_index": 239}, "uniqueid": "MTK3445:35K3O9HUACKU4YFWKNH4KR9DA3MEFH", "dateTime": 1520545093998}, {"current_trial": 240, "trialdata": {"rt": -1, "trial_type": "single-stim", "stimulus": "<p id=\"stim\">+</p>", "internal_node_id": "0.0-168.0-0.0", "time_elapsed": 1220575, "key_press": -1, "type": "FIXATION", "trial_index": 240}, "uniqueid": "MTK3445:35K3O9HUACKU4YFWKNH4KR9DA3MEFH", "dateTime": 1520545095500}, {"current_trial": 241, "trialdata": {"rt": -1, "trial_type": "single-stim", "word": "award", "stimulus": "<p id=\"stim\">AWARD</p>", "conditions": [12, 800, "v", 24000], "internal_node_id": "0.0-169.0", "trial": 7, "time_elapsed": 1221381, "serialpos": 0, "key_press": -1, "wordID": 62, "type": "PRES_VIS", "trial_index": 241}, "uniqueid": "MTK3445:35K3O9HUACKU4YFWKNH4KR9DA3MEFH", "dateTime": 1520545096306}, {"current_trial": 242, "trialdata": {"rt": -1, "trial_type": "single-stim", "word": "casket", "stimulus": "<p id=\"stim\">CASKET</p>", "conditions": [12, 800, "v", 24000], "internal_node_id": "0.0-170.0", "trial": 7, "time_elapsed": 1223030, "serialpos": 1, "key_press": -1, "wordID": 254, "type": "PRES_VIS", "trial_index": 242}, "uniqueid": "MTK3445:35K3O9HUACKU4YFWKNH4KR9DA3MEFH", "dateTime": 1520545097955}, {"current_trial": 243, "trialdata": {"rt": -1, "trial_type": "single-stim", "word": "film", "stimulus": "<p id=\"stim\">FILM</p>", "conditions": [12, 800, "v", 24000], "internal_node_id": "0.0-171.0", "trial": 7, "time_elapsed": 1224735, "serialpos": 2, "key_press": -1, "wordID": 564, "type": "PRES_VIS", "trial_index": 243}, "uniqueid": "MTK3445:35K3O9HUACKU4YFWKNH4KR9DA3MEFH", "dateTime": 1520545099661}, {"current_trial": 244, "trialdata": {"rt": -1, "trial_type": "single-stim", "word": "banquet", "stimulus": "<p id=\"stim\">BANQUET</p>", "conditions": [12, 800, "v", 24000], "internal_node_id": "0.0-172.0", "trial": 7, "time_elapsed": 1226617, "serialpos": 3, "key_press": -1, "wordID": 85, "type": "PRES_VIS", "trial_index": 244}, "uniqueid": "MTK3445:35K3O9HUACKU4YFWKNH4KR9DA3MEFH", "dateTime": 1520545101542}, {"current_trial": 245, "trialdata": {"rt": -1, "trial_type": "single-stim", "word": "suitcase", "stimulus": "<p id=\"stim\">SUITCASE</p>", "conditions": [12, 800, "v", 24000], "internal_node_id": "0.0-173.0", "trial": 7, "time_elapsed": 1228352, "serialpos": 4, "key_press": -1, "wordID": 1402, "type": "PRES_VIS", "trial_index": 245}, "uniqueid": "MTK3445:35K3O9HUACKU4YFWKNH4KR9DA3MEFH", "dateTime": 1520545103277}, {"current_trial": 246, "trialdata": {"rt": -1, "trial_type": "single-stim", "word": "cashew", "stimulus": "<p id=\"stim\">CASHEW</p>", "conditions": [12, 800, "v", 24000], "internal_node_id": "0.0-174.0", "trial": 7, "time_elapsed": 1230226, "serialpos": 5, "key_press": -1, "wordID": 252, "type": "PRES_VIS", "trial_index": 246}, "uniqueid": "MTK3445:35K3O9HUACKU4YFWKNH4KR9DA3MEFH", "dateTime": 1520545105151}, {"current_trial": 247, "trialdata": {"rt": -1, "trial_type": "single-stim", "word": "shark", "stimulus": "<p id=\"stim\">SHARK</p>", "conditions": [12, 800, "v", 24000], "internal_node_id": "0.0-175.0", "trial": 7, "time_elapsed": 1232194, "serialpos": 6, "key_press": -1, "wordID": 1274, "type": "PRES_VIS", "trial_index": 247}, "uniqueid": "MTK3445:35K3O9HUACKU4YFWKNH4KR9DA3MEFH", "dateTime": 1520545107119}, {"current_trial": 248, "trialdata": {"rt": -1, "trial_type": "single-stim", "word": "mammal", "stimulus": "<p id=\"stim\">MAMMAL</p>", "conditions": [12, 800, "v", 24000], "internal_node_id": "0.0-176.0", "trial": 7, "time_elapsed": 1234144, "serialpos": 7, "key_press": -1, "wordID": 860, "type": "PRES_VIS", "trial_index": 248}, "uniqueid": "MTK3445:35K3O9HUACKU4YFWKNH4KR9DA3MEFH", "dateTime": 1520545109070}, {"current_trial": 249, "trialdata": {"rt": -1, "trial_type": "single-stim", "word": "luggage", "stimulus": "<p id=\"stim\">LUGGAGE</p>", "conditions": [12, 800, "v", 24000], "internal_node_id": "0.0-177.0", "trial": 7, "time_elapsed": 1235769, "serialpos": 8, "key_press": -1, "wordID": 846, "type": "PRES_VIS", "trial_index": 249}, "uniqueid": "MTK3445:35K3O9HUACKU4YFWKNH4KR9DA3MEFH", "dateTime": 1520545110695}, {"current_trial": 250, "trialdata": {"rt": -1, "trial_type": "single-stim", "word": "diver", "stimulus": "<p id=\"stim\">DIVER</p>", "conditions": [12, 800, "v", 24000], "internal_node_id": "0.0-178.0", "trial": 7, "time_elapsed": 1237615, "serialpos": 9, "key_press": -1, "wordID": 475, "type": "PRES_VIS", "trial_index": 250}, "uniqueid": "MTK3445:35K3O9HUACKU4YFWKNH4KR9DA3MEFH", "dateTime": 1520545112540}, {"current_trial": 251, "trialdata": {"rt": -1, "trial_type": "single-stim", "word": "worker", "stimulus": "<p id=\"stim\">WORKER</p>", "conditions": [12, 800, "v", 24000], "internal_node_id": "0.0-179.0", "trial": 7, "time_elapsed": 1239565, "serialpos": 10, "key_press": -1, "wordID": 1620, "type": "PRES_VIS", "trial_index": 251}, "uniqueid": "MTK3445:35K3O9HUACKU4YFWKNH4KR9DA3MEFH", "dateTime": 1520545114490}, {"current_trial": 252, "trialdata": {"rt": -1, "trial_type": "single-stim", "word": "husband", "stimulus": "<p id=\"stim\">HUSBAND</p>", "conditions": [12, 800, "v", 24000], "internal_node_id": "0.0-180.0", "trial": 7, "time_elapsed": 1241212, "serialpos": 11, "key_press": -1, "wordID": 727, "type": "PRES_VIS", "trial_index": 252}, "uniqueid": "MTK3445:35K3O9HUACKU4YFWKNH4KR9DA3MEFH", "dateTime": 1520545116137}, {"current_trial": 253, "trialdata": {"rt": -1, "trial_type": "single-stim", "stimulus": "", "internal_node_id": "0.0-181.0-0.0", "time_elapsed": 1243480, "key_press": -1, "type": "PRE_RECALL_DELAY", "trial_index": 253}, "uniqueid": "MTK3445:35K3O9HUACKU4YFWKNH4KR9DA3MEFH", "dateTime": 1520545118405}, {"current_trial": 254, "trialdata": {"rt": -1000, "trial_type": "single-audio", "stimulus": "/static/audio/400Hz.wav", "internal_node_id": "0.0-182.0", "time_elapsed": 1243983, "key_press": -1, "type": "PRE_RECALL_ALERT", "trial_index": 254}, "uniqueid": "MTK3445:35K3O9HUACKU4YFWKNH4KR9DA3MEFH", "dateTime": 1520545118908}, {"current_trial": 255, "trialdata": {"rt": [