{"assignmentId": "3WAKVUDHUXNYE1XCS4YX0HIZXMUU78", "workerId": "MTK3138", "questiondata": {"origin": "United States", "strat-rehearsal": "61", "marital": "Married/Domestic Partnership", "education": "Bachelor's degree", "ethnicity": "Not Hispanic", "color_depth": 24, "distracted": "No", "wrote-notes": "No", "strat-other": "", "screen_width": 1440, "avail_screen_width": 1440, "avail_screen_height": 877, "strat-image": "86", "language": "English", "gender": "Female", "age": "37", "gender_other": "", "race": ["White"], "strat-categorize": "93", "pixel_depth": 24, "strat-spatial": "1", "strat-story": "1", "race_other": "", "screen_height": 900}, "bonus": 0, "hitId": "386659BNTLO20980FFY2LG7VUG0104", "counterbalance": 2758, "useragent": "Mozilla/5.0 (Macintosh; Intel Mac OS X 10_13_3) AppleWebKit/537.36 (KHTML, like Gecko) Chrome/64.0.3282.186 Safari/537.36", "eventdata": [{"eventtype": "initialized", "interval": 0, "value": null, "timestamp": 1520106273627}, {"eventtype": "window_resize", "interval": 0, "value": [1440, 826], "timestamp": 1520106273627}, {"eventtype": "focus", "interval": 1545527, "value": "off", "timestamp": 1520107819154}, {"eventtype": "focus", "interval": 6453, "value": "on", "timestamp": 1520107825607}], "data": [{"current_trial": 0, "trialdata": {"rt": 1908, "trial_type": "text", "internal_node_id": "0.0-0.0", "time_elapsed": 1909, "key_press": 74, "type": "INSTRUCTIONS", "trial_index": 0}, "uniqueid": "MTK3138:3WAKVUDHUXNYE1XCS4YX0HIZXMUU78", "dateTime": 1520106275869}, {"current_trial": 1, "trialdata": {"rt": 13146, "trial_type": "text", "internal_node_id": "0.0-1.0", "time_elapsed": 15056, "key_press": 75, "type": "INSTRUCTIONS", "trial_index": 1}, "uniqueid": "MTK3138:3WAKVUDHUXNYE1XCS4YX0HIZXMUU78", "dateTime": 1520106289016}, {"current_trial": 2, "trialdata": {"rt": [26503], "trial_type": "audio-test", "responses": ["ocean"], "internal_node_id": "0.0-2.0", "time_elapsed": 41566, "type": "AUDIO_TEST", "trial_index": 2}, "uniqueid": "MTK3138:3WAKVUDHUXNYE1XCS4YX0HIZXMUU78", "dateTime": 1520106315526}, {"current_trial": 3, "trialdata": {"rt": [11282], "trial_type": "audio-test", "responses": ["crystal"], "internal_node_id": "0.0-3.0", "time_elapsed": 52851, "type": "AUDIO_TEST", "trial_index": 3}, "uniqueid": "MTK3138:3WAKVUDHUXNYE1XCS4YX0HIZXMUU78", "dateTime": 1520106326811}, {"current_trial": 4, "trialdata": {"rt": [7891], "trial_type": "audio-test", "responses": ["spice"], "internal_node_id": "0.0-4.0", "time_elapsed": 60746, "type": "AUDIO_TEST", "trial_index": 4}, "uniqueid": "MTK3138:3WAKVUDHUXNYE1XCS4YX0HIZXMUU78", "dateTime": 1520106334706}, {"current_trial": 5, "trialdata": {"rt": 23746, "trial_type": "survey-text", "responses": "{\"Q0\":\"10:30pm\",\"Q1\":\"6:30am\",\"Q2\":\"5\"}", "internal_node_id": "0.0-5.0", "time_elapsed": 85246, "type": "SLEEP_SURVEY", "trial_index": 5}, "uniqueid": "MTK3138:3WAKVUDHUXNYE1XCS4YX0HIZXMUU78", "dateTime": 1520106359206}, {"current_trial": 6, "trialdata": {"rt": 43446, "trial_type": "text", "internal_node_id": "0.0-6.0", "time_elapsed": 129694, "key_press": 75, "type": "INSTRUCTIONS", "trial_index": 6}, "uniqueid": "MTK3138:3WAKVUDHUXNYE1XCS4YX0HIZXMUU78", "dateTime": 1520106403655}, {"current_trial": 7, "trialdata": {"rt": 15254, "trial_type": "text", "internal_node_id": "0.0-7.0", "time_elapsed": 145450, "key_press": 75, "type": "INSTRUCTIONS", "trial_index": 7}, "uniqueid": "MTK3138:3WAKVUDHUXNYE1XCS4YX0HIZXMUU78", "dateTime": 1520106419410}, {"current_trial": 8, "trialdata": {"rt": 10135, "trial_type": "text", "internal_node_id": "0.0-8.0", "time_elapsed": 156090, "key_press": 75, "type": "INSTRUCTIONS", "trial_index": 8}, "uniqueid": "MTK3138:3WAKVUDHUXNYE1XCS4YX0HIZXMUU78", "dateTime": 1520106430050}, {"current_trial": 9, "trialdata": {"rt": [5315, 7017, 10160, 12272, 14040, 17290], "trial_type": "math-distractor", "key_times": [4395, 4878, 5315, 6679, 6825, 7017, 9762, 9934, 10160, 12145, 12272, 13717, 13878, 14040, 16737, 16985, 17290], "responses": ["17", "11", "18", "6", "12", "17"], "num2": [2, 5, 8, 1, 9, 4, 6], "num3": [8, 1, 3, 3, 2, 6, 9], "conditions": [18, 1200, "v", 18000], "internal_node_id": "0.0-9.0", "key_presses": [49, 55, 13, 49, 49, 13, 49, 56, 13, 54, 13, 49, 50, 13, 49, 55, 13], "trial": 0, "time_elapsed": 175097, "type": "DISTRACTOR", "trial_index": 9, "num1": [7, 5, 7, 2, 1, 7, 2]}, "uniqueid": "MTK3138:3WAKVUDHUXNYE1XCS4YX0HIZXMUU78", "dateTime": 1520106449057}, {"current_trial": 10, "trialdata": {"rt": -1, "trial_type": "single-stim", "stimulus": "<p id=\"stim\">10</p>", "internal_node_id": "0.0-10.0-0.0", "time_elapsed": 178104, "key_press": -1, "trial_index": 10}, "uniqueid": "MTK3138:3WAKVUDHUXNYE1XCS4YX0HIZXMUU78", "dateTime": 1520106452064}, {"current_trial": 11, "trialdata": {"rt": -1, "trial_type": "single-stim", "stimulus": "<p id=\"stim\">9</p>", "internal_node_id": "0.0-10.0-1.0", "time_elapsed": 179105, "key_press": -1, "trial_index": 11}, "uniqueid": "MTK3138:3WAKVUDHUXNYE1XCS4YX0HIZXMUU78", "dateTime": 1520106453065}, {"current_trial": 12, "trialdata": {"rt": -1, "trial_type": "single-stim", "stimulus": "<p id=\"stim\">8</p>", "internal_node_id": "0.0-10.0-2.0", "time_elapsed": 180107, "key_press": -1, "trial_index": 12}, "uniqueid": "MTK3138:3WAKVUDHUXNYE1XCS4YX0HIZXMUU78", "dateTime": 1520106454067}, {"current_trial": 13, "trialdata": {"rt": -1, "trial_type": "single-stim", "stimulus": "<p id=\"stim\">7</p>", "internal_node_id": "0.0-10.0-3.0", "time_elapsed": 181108, "key_press": -1, "trial_index": 13}, "uniqueid": "MTK3138:3WAKVUDHUXNYE1XCS4YX0HIZXMUU78", "dateTime": 1520106455068}, {"current_trial": 14, "trialdata": {"rt": -1, "trial_type": "single-stim", "stimulus": "<p id=\"stim\">6</p>", "internal_node_id": "0.0-10.0-4.0", "time_elapsed": 182110, "key_press": -1, "trial_index": 14}, "uniqueid": "MTK3138:3WAKVUDHUXNYE1XCS4YX0HIZXMUU78", "dateTime": 1520106456071}, {"current_trial": 15, "trialdata": {"rt": -1, "trial_type": "single-stim", "stimulus": "<p id=\"stim\">5</p>", "internal_node_id": "0.0-10.0-5.0", "time_elapsed": 183112, "key_press": -1, "trial_index": 15}, "uniqueid": "MTK3138:3WAKVUDHUXNYE1XCS4YX0HIZXMUU78", "dateTime": 1520106457072}, {"current_trial": 16, "trialdata": {"rt": -1, "trial_type": "single-stim", "stimulus": "<p id=\"stim\">4</p>", "internal_node_id": "0.0-10.0-6.0", "time_elapsed": 184115, "key_press": -1, "trial_index": 16}, "uniqueid": "MTK3138:3WAKVUDHUXNYE1XCS4YX0HIZXMUU78", "dateTime": 1520106458075}, {"current_trial": 17, "trialdata": {"rt": -1, "trial_type": "single-stim", "stimulus": "<p id=\"stim\">3</p>", "internal_node_id": "0.0-10.0-7.0", "time_elapsed": 185120, "key_press": -1, "trial_index": 17}, "uniqueid": "MTK3138:3WAKVUDHUXNYE1XCS4YX0HIZXMUU78", "dateTime": 1520106459080}, {"current_trial": 18, "trialdata": {"rt": -1, "trial_type": "single-stim", "stimulus": "<p id=\"stim\">2</p>", "internal_node_id": "0.0-10.0-8.0", "time_elapsed": 186124, "key_press": -1, "trial_index": 18}, "uniqueid": "MTK3138:3WAKVUDHUXNYE1XCS4YX0HIZXMUU78", "dateTime": 1520106460084}, {"current_trial": 19, "trialdata": {"rt": -1, "trial_type": "single-stim", "stimulus": "<p id=\"stim\">1</p>", "internal_node_id": "0.0-10.0-9.0", "time_elapsed": 187126, "key_press": -1, "trial_index": 19}, "uniqueid": "MTK3138:3WAKVUDHUXNYE1XCS4YX0HIZXMUU78", "dateTime": 1520106461086}, {"current_trial": 20, "trialdata": {"rt": -1, "trial_type": "single-stim", "stimulus": "<p id=\"stim\">+</p>", "internal_node_id": "0.0-11.0-0.0", "time_elapsed": 188632, "key_press": -1, "type": "FIXATION", "trial_index": 20}, "uniqueid": "MTK3138:3WAKVUDHUXNYE1XCS4YX0HIZXMUU78", "dateTime": 1520106462592}, {"current_trial": 21, "trialdata": {"rt": -1, "trial_type": "single-stim", "word": "elbow", "stimulus": "<p id=\"stim\">ELBOW</p>", "conditions": [18, 1200, "v", 18000], "internal_node_id": "0.0-12.0", "trial": 0, "time_elapsed": 189833, "serialpos": 0, "key_press": -1, "wordID": 519, "type": "PRES_VIS", "trial_index": 21}, "uniqueid": "MTK3138:3WAKVUDHUXNYE1XCS4YX0HIZXMUU78", "dateTime": 1520106463793}, {"current_trial": 22, "trialdata": {"rt": -1, "trial_type": "single-stim", "word": "ankle", "stimulus": "<p id=\"stim\">ANKLE</p>", "conditions": [18, 1200, "v", 18000], "internal_node_id": "0.0-13.0", "trial": 0, "time_elapsed": 191917, "serialpos": 1, "key_press": -1, "wordID": 23, "type": "PRES_VIS", "trial_index": 22}, "uniqueid": "MTK3138:3WAKVUDHUXNYE1XCS4YX0HIZXMUU78", "dateTime": 1520106465877}, {"current_trial": 23, "trialdata": {"rt": -1, "trial_type": "single-stim", "word": "mildew", "stimulus": "<p id=\"stim\">MILDEW</p>", "conditions": [18, 1200, "v", 18000], "internal_node_id": "0.0-14.0", "trial": 0, "time_elapsed": 194273, "serialpos": 2, "key_press": -1, "wordID": 892, "type": "PRES_VIS", "trial_index": 23}, "uniqueid": "MTK3138:3WAKVUDHUXNYE1XCS4YX0HIZXMUU78", "dateTime": 1520106468233}, {"current_trial": 24, "trialdata": {"rt": -1, "trial_type": "single-stim", "word": "witness", "stimulus": "<p id=\"stim\">WITNESS</p>", "conditions": [18, 1200, "v", 18000], "internal_node_id": "0.0-15.0", "trial": 0, "time_elapsed": 196641, "serialpos": 3, "key_press": -1, "wordID": 1617, "type": "PRES_VIS", "trial_index": 24}, "uniqueid": "MTK3138:3WAKVUDHUXNYE1XCS4YX0HIZXMUU78", "dateTime": 1520106470601}, {"current_trial": 25, "trialdata": {"rt": -1, "trial_type": "single-stim", "word": "lettuce", "stimulus": "<p id=\"stim\">LETTUCE</p>", "conditions": [18, 1200, "v", 18000], "internal_node_id": "0.0-16.0", "trial": 0, "time_elapsed": 198992, "serialpos": 4, "key_press": -1, "wordID": 813, "type": "PRES_VIS", "trial_index": 25}, "uniqueid": "MTK3138:3WAKVUDHUXNYE1XCS4YX0HIZXMUU78", "dateTime": 1520106472953}, {"current_trial": 26, "trialdata": {"rt": -1, "trial_type": "single-stim", "word": "crater", "stimulus": "<p id=\"stim\">CRATER</p>", "conditions": [18, 1200, "v", 18000], "internal_node_id": "0.0-17.0", "trial": 0, "time_elapsed": 201396, "serialpos": 5, "key_press": -1, "wordID": 399, "type": "PRES_VIS", "trial_index": 26}, "uniqueid": "MTK3138:3WAKVUDHUXNYE1XCS4YX0HIZXMUU78", "dateTime": 1520106475356}, {"current_trial": 27, "trialdata": {"rt": -1, "trial_type": "single-stim", "word": "trout", "stimulus": "<p id=\"stim\">TROUT</p>", "conditions": [18, 1200, "v", 18000], "internal_node_id": "0.0-18.0", "trial": 0, "time_elapsed": 203693, "serialpos": 6, "key_press": -1, "wordID": 1510, "type": "PRES_VIS", "trial_index": 27}, "uniqueid": "MTK3138:3WAKVUDHUXNYE1XCS4YX0HIZXMUU78", "dateTime": 1520106477653}, {"current_trial": 28, "trialdata": {"rt": -1, "trial_type": "single-stim", "word": "item", "stimulus": "<p id=\"stim\">ITEM</p>", "conditions": [18, 1200, "v", 18000], "internal_node_id": "0.0-19.0", "trial": 0, "time_elapsed": 205957, "serialpos": 7, "key_press": -1, "wordID": 745, "type": "PRES_VIS", "trial_index": 28}, "uniqueid": "MTK3138:3WAKVUDHUXNYE1XCS4YX0HIZXMUU78", "dateTime": 1520106479917}, {"current_trial": 29, "trialdata": {"rt": -1, "trial_type": "single-stim", "word": "cricket", "stimulus": "<p id=\"stim\">CRICKET</p>", "conditions": [18, 1200, "v", 18000], "internal_node_id": "0.0-20.0", "trial": 0, "time_elapsed": 208122, "serialpos": 8, "key_press": -1, "wordID": 407, "type": "PRES_VIS", "trial_index": 29}, "uniqueid": "MTK3138:3WAKVUDHUXNYE1XCS4YX0HIZXMUU78", "dateTime": 1520106482082}, {"current_trial": 30, "trialdata": {"rt": -1, "trial_type": "single-stim", "word": "lava", "stimulus": "<p id=\"stim\">LAVA</p>", "conditions": [18, 1200, "v", 18000], "internal_node_id": "0.0-21.0", "trial": 0, "time_elapsed": 210415, "serialpos": 9, "key_press": -1, "wordID": 803, "type": "PRES_VIS", "trial_index": 30}, "uniqueid": "MTK3138:3WAKVUDHUXNYE1XCS4YX0HIZXMUU78", "dateTime": 1520106484375}, {"current_trial": 31, "trialdata": {"rt": -1, "trial_type": "single-stim", "word": "carrot", "stimulus": "<p id=\"stim\">CARROT</p>", "conditions": [18, 1200, "v", 18000], "internal_node_id": "0.0-22.0", "trial": 0, "time_elapsed": 212447, "serialpos": 10, "key_press": -1, "wordID": 248, "type": "PRES_VIS", "trial_index": 31}, "uniqueid": "MTK3138:3WAKVUDHUXNYE1XCS4YX0HIZXMUU78", "dateTime": 1520106486407}, {"current_trial": 32, "trialdata": {"rt": -1, "trial_type": "single-stim", "word": "seal", "stimulus": "<p id=\"stim\">SEAL</p>", "conditions": [18, 1200, "v", 18000], "internal_node_id": "0.0-23.0", "trial": 0, "time_elapsed": 214756, "serialpos": 11, "key_press": -1, "wordID": 1261, "type": "PRES_VIS", "trial_index": 32}, "uniqueid": "MTK3138:3WAKVUDHUXNYE1XCS4YX0HIZXMUU78", "dateTime": 1520106488717}, {"current_trial": 33, "trialdata": {"rt": -1, "trial_type": "single-stim", "word": "space", "stimulus": "<p id=\"stim\">SPACE</p>", "conditions": [18, 1200, "v", 18000], "internal_node_id": "0.0-24.0", "trial": 0, "time_elapsed": 216881, "serialpos": 12, "key_press": -1, "wordID": 1344, "type": "PRES_VIS", "trial_index": 33}, "uniqueid": "MTK3138:3WAKVUDHUXNYE1XCS4YX0HIZXMUU78", "dateTime": 1520106490841}, {"current_trial": 34, "trialdata": {"rt": -1, "trial_type": "single-stim", "word": "garlic", "stimulus": "<p id=\"stim\">GARLIC</p>", "conditions": [18, 1200, "v", 18000], "internal_node_id": "0.0-25.0", "trial": 0, "time_elapsed": 219045, "serialpos": 13, "key_press": -1, "wordID": 623, "type": "PRES_VIS", "trial_index": 34}, "uniqueid": "MTK3138:3WAKVUDHUXNYE1XCS4YX0HIZXMUU78", "dateTime": 1520106493006}, {"current_trial": 35, "trialdata": {"rt": -1, "trial_type": "single-stim", "word": "asia", "stimulus": "<p id=\"stim\">ASIA</p>", "conditions": [18, 1200, "v", 18000], "internal_node_id": "0.0-26.0", "trial": 0, "time_elapsed": 221163, "serialpos": 14, "key_press": -1, "wordID": 45, "type": "PRES_VIS", "trial_index": 35}, "uniqueid": "MTK3138:3WAKVUDHUXNYE1XCS4YX0HIZXMUU78", "dateTime": 1520106495123}, {"current_trial": 36, "trialdata": {"rt": -1, "trial_type": "single-stim", "word": "smog", "stimulus": "<p id=\"stim\">SMOG</p>", "conditions": [18, 1200, "v", 18000], "internal_node_id": "0.0-27.0", "trial": 0, "time_elapsed": 223190, "serialpos": 15, "key_press": -1, "wordID": 1329, "type": "PRES_VIS", "trial_index": 36}, "uniqueid": "MTK3138:3WAKVUDHUXNYE1XCS4YX0HIZXMUU78", "dateTime": 1520106497150}, {"current_trial": 37, "trialdata": {"rt": -1, "trial_type": "single-stim", "word": "binder", "stimulus": "<p id=\"stim\">BINDER</p>", "conditions": [18, 1200, "v", 18000], "internal_node_id": "0.0-28.0", "trial": 0, "time_elapsed": 225221, "serialpos": 16, "key_press": -1, "wordID": 126, "type": "PRES_VIS", "trial_index": 37}, "uniqueid": "MTK3138:3WAKVUDHUXNYE1XCS4YX0HIZXMUU78", "dateTime": 1520106499181}, {"current_trial": 38, "trialdata": {"rt": -1, "trial_type": "single-stim", "word": "chemist", "stimulus": "<p id=\"stim\">CHEMIST</p>", "conditions": [18, 1200, "v", 18000], "internal_node_id": "0.0-29.0", "trial": 0, "time_elapsed": 227316, "serialpos": 17, "key_press": -1, "wordID": 291, "type": "PRES_VIS", "trial_index": 38}, "uniqueid": "MTK3138:3WAKVUDHUXNYE1XCS4YX0HIZXMUU78", "dateTime": 1520106501277}, {"current_trial": 39, "trialdata": {"rt": -1, "trial_type": "single-stim", "stimulus": "", "internal_node_id": "0.0-30.0-0.0", "time_elapsed": 229719, "key_press": -1, "type": "PRE_RECALL_DELAY", "trial_index": 39}, "uniqueid": "MTK3138:3WAKVUDHUXNYE1XCS4YX0HIZXMUU78", "dateTime": 1520106503679}, {"current_trial": 40, "trialdata": {"rt": -1000, "trial_type": "single-audio", "stimulus": "/static/audio/400Hz.wav", "internal_node_id": "0.0-31.0", "time_elapsed": 230223, "key_press": -1, "type": "PRE_RECALL_ALERT", "trial_index": 40}, "uniqueid": "MTK3138:3WAKVUDHUXNYE1XCS4YX0HIZXMUU78", "dateTime": 1520106504184}, {"current_trial": 41, "trialdata": {"rt": [3382, 5690, 7235, 12813, 25212, 52853], "recwords": ["elbow", "ankle", "lava", "cricket", "mildew", ""], "key_times": [1784, 1921, 2162, 2322, 2513, 3049, 3382, 3907, 4074, 4222, 4545, 4701, 5690, 6070, 6186, 6410, 6555, 7235, 11407, 11676, 11807, 11939, 12118, 12266, 12458, 12813, 24081, 24222, 24438, 24580, 24811, 24970, 25212, 52853], "trial_type": "free-recall", "conditions": [18, 1200, "v", 18000], "internal_node_id": "0.0-32.0-0.0", "key_presses": [16, 69, 76, 66, 79, 87, 13, 65, 78, 75, 76, 69, 13, 76, 65, 86, 65, 13, 67, 82, 73, 67, 75, 69, 84, 13, 77, 73, 76, 68, 69, 87, 13, 13], "trial": 0, "time_elapsed": 290228, "type": "FREE_RECALL", "trial_index": 41}, "uniqueid": "MTK3138:3WAKVUDHUXNYE1XCS4YX0HIZXMUU78", "dateTime": 1520106564189}, {"current_trial": 42, "trialdata": {"rt": 1690, "trial_type": "text", "internal_node_id": "0.0-33.0", "time_elapsed": 293926, "key_press": 74, "type": "INSTRUCTIONS", "trial_index": 42}, "uniqueid": "MTK3138:3WAKVUDHUXNYE1XCS4YX0HIZXMUU78", "dateTime": 1520106567886}, {"current_trial": 43, "trialdata": {"rt": [3834, 9589, 12551, 14661, 17145], "trial_type": "math-distractor", "key_times": [3382, 3524, 3834, 9277, 9473, 9589, 12056, 12337, 12551, 14356, 14528, 14661, 16729, 16951, 17145], "responses": ["17", "14", "12", "13", "18"], "num2": [8, 2, 2, 1, 1, 9], "num3": [1, 9, 9, 6, 9, 6], "conditions": [18, 1200, "v", 18000], "internal_node_id": "0.0-34.0", "key_presses": [49, 55, 13, 49, 52, 13, 49, 50, 13, 49, 51, 13, 49, 56, 13], "trial": 1, "time_elapsed": 313931, "type": "DISTRACTOR", "trial_index": 43, "num1": [8, 3, 1, 6, 8, 3]}, "uniqueid": "MTK3138:3WAKVUDHUXNYE1XCS4YX0HIZXMUU78", "dateTime": 1520106587891}, {"current_trial": 44, "trialdata": {"rt": -1, "trial_type": "single-stim", "stimulus": "<p id=\"stim\">10</p>", "internal_node_id": "0.0-35.0-0.0", "time_elapsed": 316937, "key_press": -1, "trial_index": 44}, "uniqueid": "MTK3138:3WAKVUDHUXNYE1XCS4YX0HIZXMUU78", "dateTime": 1520106590897}, {"current_trial": 45, "trialdata": {"rt": -1, "trial_type": "single-stim", "stimulus": "<p id=\"stim\">9</p>", "internal_node_id": "0.0-35.0-1.0", "time_elapsed": 317942, "key_press": -1, "trial_index": 45}, "uniqueid": "MTK3138:3WAKVUDHUXNYE1XCS4YX0HIZXMUU78", "dateTime": 1520106591902}, {"current_trial": 46, "trialdata": {"rt": -1, "trial_type": "single-stim", "stimulus": "<p id=\"stim\">8</p>", "internal_node_id": "0.0-35.0-2.0", "time_elapsed": 318946, "key_press": -1, "trial_index": 46}, "uniqueid": "MTK3138:3WAKVUDHUXNYE1XCS4YX0HIZXMUU78", "dateTime": 1520106592906}, {"current_trial": 47, "trialdata": {"rt": -1, "trial_type": "single-stim", "stimulus": "<p id=\"stim\">7</p>", "internal_node_id": "0.0-35.0-3.0", "time_elapsed": 319950, "key_press": -1, "trial_index": 47}, "uniqueid": "MTK3138:3WAKVUDHUXNYE1XCS4YX0HIZXMUU78", "dateTime": 1520106593910}, {"current_trial": 48, "trialdata": {"rt": -1, "trial_type": "single-stim", "stimulus": "<p id=\"stim\">6</p>", "internal_node_id": "0.0-35.0-4.0", "time_elapsed": 320953, "key_press": -1, "trial_index": 48}, "uniqueid": "MTK3138:3WAKVUDHUXNYE1XCS4YX0HIZXMUU78", "dateTime": 1520106594913}, {"current_trial": 49, "trialdata": {"rt": -1, "trial_type": "single-stim", "stimulus": "<p id=\"stim\">5</p>", "internal_node_id": "0.0-35.0-5.0", "time_elapsed": 321958, "key_press": -1, "trial_index": 49}, "uniqueid": "MTK3138:3WAKVUDHUXNYE1XCS4YX0HIZXMUU78", "dateTime": 1520106595918}, {"current_trial": 50, "trialdata": {"rt": -1, "trial_type": "single-stim", "stimulus": "<p id=\"stim\">4</p>", "internal_node_id": "0.0-35.0-6.0", "time_elapsed": 322962, "key_press": -1, "trial_index": 50}, "uniqueid": "MTK3138:3WAKVUDHUXNYE1XCS4YX0HIZXMUU78", "dateTime": 1520106596922}, {"current_trial": 51, "trialdata": {"rt": -1, "trial_type": "single-stim", "stimulus": "<p id=\"stim\">3</p>", "internal_node_id": "0.0-35.0-7.0", "time_elapsed": 323966, "key_press": -1, "trial_index": 51}, "uniqueid": "MTK3138:3WAKVUDHUXNYE1XCS4YX0HIZXMUU78", "dateTime": 1520106597926}, {"current_trial": 52, "trialdata": {"rt": -1, "trial_type": "single-stim", "stimulus": "<p id=\"stim\">2</p>", "internal_node_id": "0.0-35.0-8.0", "time_elapsed": 324970, "key_press": -1, "trial_index": 52}, "uniqueid": "MTK3138:3WAKVUDHUXNYE1XCS4YX0HIZXMUU78", "dateTime": 1520106598930}, {"current_trial": 53, "trialdata": {"rt": -1, "trial_type": "single-stim", "stimulus": "<p id=\"stim\">1</p>", "internal_node_id": "0.0-35.0-9.0", "time_elapsed": 325975, "key_press": -1, "trial_index": 53}, "uniqueid": "MTK3138:3WAKVUDHUXNYE1XCS4YX0HIZXMUU78", "dateTime": 1520106599935}, {"current_trial": 54, "trialdata": {"rt": -1, "trial_type": "single-stim", "stimulus": "<p id=\"stim\">+</p>", "internal_node_id": "0.0-36.0-0.0", "time_elapsed": 327478, "key_press": -1, "type": "FIXATION", "trial_index": 54}, "uniqueid": "MTK3138:3WAKVUDHUXNYE1XCS4YX0HIZXMUU78", "dateTime": 1520106601438}, {"current_trial": 55, "trialdata": {"rt": -1, "trial_type": "single-stim", "word": "lover", "stimulus": "<p id=\"stim\">LOVER</p>", "conditions": [18, 1200, "v", 18000], "internal_node_id": "0.0-37.0", "trial": 1, "time_elapsed": 328679, "serialpos": 0, "key_press": -1, "wordID": 845, "type": "PRES_VIS", "trial_index": 55}, "uniqueid": "MTK3138:3WAKVUDHUXNYE1XCS4YX0HIZXMUU78", "dateTime": 1520106602639}, {"current_trial": 56, "trialdata": {"rt": -1, "trial_type": "single-stim", "word": "hedge", "stimulus": "<p id=\"stim\">HEDGE</p>", "conditions": [18, 1200, "v", 18000], "internal_node_id": "0.0-38.0", "trial": 1, "time_elapsed": 330739, "serialpos": 1, "key_press": -1, "wordID": 698, "type": "PRES_VIS", "trial_index": 56}, "uniqueid": "MTK3138:3WAKVUDHUXNYE1XCS4YX0HIZXMUU78", "dateTime": 1520106604699}, {"current_trial": 57, "trialdata": {"rt": -1, "trial_type": "single-stim", "word": "spider", "stimulus": "<p id=\"stim\">SPIDER</p>", "conditions": [18, 1200, "v", 18000], "internal_node_id": "0.0-39.0", "trial": 1, "time_elapsed": 332928, "serialpos": 2, "key_press": -1, "wordID": 1350, "type": "PRES_VIS", "trial_index": 57}, "uniqueid": "MTK3138:3WAKVUDHUXNYE1XCS4YX0HIZXMUU78", "dateTime": 1520106606888}, {"current_trial": 58, "trialdata": {"rt": -1, "trial_type": "single-stim", "word": "cod", "stimulus": "<p id=\"stim\">COD</p>", "conditions": [18, 1200, "v", 18000], "internal_node_id": "0.0-40.0", "trial": 1, "time_elapsed": 335156, "serialpos": 3, "key_press": -1, "wordID": 339, "type": "PRES_VIS", "trial_index": 58}, "uniqueid": "MTK3138:3WAKVUDHUXNYE1XCS4YX0HIZXMUU78", "dateTime": 1520106609116}, {"current_trial": 59, "trialdata": {"rt": -1, "trial_type": "single-stim", "word": "sausage", "stimulus": "<p id=\"stim\">SAUSAGE</p>", "conditions": [18, 1200, "v", 18000], "internal_node_id": "0.0-41.0", "trial": 1, "time_elapsed": 337263, "serialpos": 4, "key_press": -1, "wordID": 1237, "type": "PRES_VIS", "trial_index": 59}, "uniqueid": "MTK3138:3WAKVUDHUXNYE1XCS4YX0HIZXMUU78", "dateTime": 1520106611223}, {"current_trial": 60, "trialdata": {"rt": -1, "trial_type": "single-stim", "word": "star", "stimulus": "<p id=\"stim\">STAR</p>", "conditions": [18, 1200, "v", 18000], "internal_node_id": "0.0-42.0", "trial": 1, "time_elapsed": 339655, "serialpos": 5, "key_press": -1, "wordID": 1372, "type": "PRES_VIS", "trial_index": 60}, "uniqueid": "MTK3138:3WAKVUDHUXNYE1XCS4YX0HIZXMUU78", "dateTime": 1520106613615}, {"current_trial": 61, "trialdata": {"rt": -1, "trial_type": "single-stim", "word": "bug", "stimulus": "<p id=\"stim\">BUG</p>", "conditions": [18, 1200, "v", 18000], "internal_node_id": "0.0-43.0", "trial": 1, "time_elapsed": 341866, "serialpos": 6, "key_press": -1, "wordID": 186, "type": "PRES_VIS", "trial_index": 61}, "uniqueid": "MTK3138:3WAKVUDHUXNYE1XCS4YX0HIZXMUU78", "dateTime": 1520106615826}, {"current_trial": 62, "trialdata": {"rt": -1, "trial_type": "single-stim", "word": "flag", "stimulus": "<p id=\"stim\">FLAG</p>", "conditions": [18, 1200, "v", 18000], "internal_node_id": "0.0-44.0", "trial": 1, "time_elapsed": 344240, "serialpos": 7, "key_press": -1, "wordID": 572, "type": "PRES_VIS", "trial_index": 62}, "uniqueid": "MTK3138:3WAKVUDHUXNYE1XCS4YX0HIZXMUU78", "dateTime": 1520106618200}, {"current_trial": 63, "trialdata": {"rt": -1, "trial_type": "single-stim", "word": "daughter", "stimulus": "<p id=\"stim\">DAUGHTER</p>", "conditions": [18, 1200, "v", 18000], "internal_node_id": "0.0-45.0", "trial": 1, "time_elapsed": 346516, "serialpos": 8, "key_press": -1, "wordID": 441, "type": "PRES_VIS", "trial_index": 63}, "uniqueid": "MTK3138:3WAKVUDHUXNYE1XCS4YX0HIZXMUU78", "dateTime": 1520106620476}, {"current_trial": 64, "trialdata": {"rt": -1, "trial_type": "single-stim", "word": "plaster", "stimulus": "<p id=\"stim\">PLASTER</p>", "conditions": [18, 1200, "v", 18000], "internal_node_id": "0.0-46.0", "trial": 1, "time_elapsed": 348913, "serialpos": 9, "key_press": -1, "wordID": 1084, "type": "PRES_VIS", "trial_index": 64}, "uniqueid": "MTK3138:3WAKVUDHUXNYE1XCS4YX0HIZXMUU78", "dateTime": 1520106622873}, {"current_trial": 65, "trialdata": {"rt": -1, "trial_type": "single-stim", "word": "cook", "stimulus": "<p id=\"stim\">COOK</p>", "conditions": [18, 1200, "v", 18000], "internal_node_id": "0.0-47.0", "trial": 1, "time_elapsed": 351140, "serialpos": 10, "key_press": -1, "wordID": 371, "type": "PRES_VIS", "trial_index": 65}, "uniqueid": "MTK3138:3WAKVUDHUXNYE1XCS4YX0HIZXMUU78", "dateTime": 1520106625100}, {"current_trial": 66, "trialdata": {"rt": -1, "trial_type": "single-stim", "word": "freezer", "stimulus": "<p id=\"stim\">FREEZER</p>", "conditions": [18, 1200, "v", 18000], "internal_node_id": "0.0-48.0", "trial": 1, "time_elapsed": 353463, "serialpos": 11, "key_press": -1, "wordID": 603, "type": "PRES_VIS", "trial_index": 66}, "uniqueid": "MTK3138:3WAKVUDHUXNYE1XCS4YX0HIZXMUU78", "dateTime": 1520106627423}, {"current_trial": 67, "trialdata": {"rt": -1, "trial_type": "single-stim", "word": "monster", "stimulus": "<p id=\"stim\">MONSTER</p>", "conditions": [18, 1200, "v", 18000], "internal_node_id": "0.0-49.0", "trial": 1, "time_elapsed": 355611, "serialpos": 12, "key_press": -1, "wordID": 911, "type": "PRES_VIS", "trial_index": 67}, "uniqueid": "MTK3138:3WAKVUDHUXNYE1XCS4YX0HIZXMUU78", "dateTime": 1520106629571}, {"current_trial": 68, "trialdata": {"rt": -1, "trial_type": "single-stim", "word": "fiddle", "stimulus": "<p id=\"stim\">FIDDLE</p>", "conditions": [18, 1200, "v", 18000], "internal_node_id": "0.0-50.0", "trial": 1, "time_elapsed": 357636, "serialpos": 13, "key_press": -1, "wordID": 560, "type": "PRES_VIS", "trial_index": 68}, "uniqueid": "MTK3138:3WAKVUDHUXNYE1XCS4YX0HIZXMUU78", "dateTime": 1520106631597}, {"current_trial": 69, "trialdata": {"rt": -1, "trial_type": "single-stim", "word": "seafood", "stimulus": "<p id=\"stim\">SEAFOOD</p>", "conditions": [18, 1200, "v", 18000], "internal_node_id": "0.0-51.0", "trial": 1, "time_elapsed": 359818, "serialpos": 14, "key_press": -1, "wordID": 1259, "type": "PRES_VIS", "trial_index": 69}, "uniqueid": "MTK3138:3WAKVUDHUXNYE1XCS4YX0HIZXMUU78", "dateTime": 1520106633778}, {"current_trial": 70, "trialdata": {"rt": -1, "trial_type": "single-stim", "word": "cattle", "stimulus": "<p id=\"stim\">CATTLE</p>", "conditions": [18, 1200, "v", 18000], "internal_node_id": "0.0-52.0", "trial": 1, "time_elapsed": 361983, "serialpos": 15, "key_press": -1, "wordID": 260, "type": "PRES_VIS", "trial_index": 70}, "uniqueid": "MTK3138:3WAKVUDHUXNYE1XCS4YX0HIZXMUU78", "dateTime": 1520106635943}, {"current_trial": 71, "trialdata": {"rt": -1, "trial_type": "single-stim", "word": "costume", "stimulus": "<p id=\"stim\">COSTUME</p>", "conditions": [18, 1200, "v", 18000], "internal_node_id": "0.0-53.0", "trial": 1, "time_elapsed": 364206, "serialpos": 16, "key_press": -1, "wordID": 382, "type": "PRES_VIS", "trial_index": 71}, "uniqueid": "MTK3138:3WAKVUDHUXNYE1XCS4YX0HIZXMUU78", "dateTime": 1520106638166}, {"current_trial": 72, "trialdata": {"rt": -1, "trial_type": "single-stim", "word": "journal", "stimulus": "<p id=\"stim\">JOURNAL</p>", "conditions": [18, 1200, "v", 18000], "internal_node_id": "0.0-54.0", "trial": 1, "time_elapsed": 366283, "serialpos": 17, "key_press": -1, "wordID": 759, "type": "PRES_VIS", "trial_index": 72}, "uniqueid": "MTK3138:3WAKVUDHUXNYE1XCS4YX0HIZXMUU78", "dateTime": 1520106640244}, {"current_trial": 73, "trialdata": {"rt": -1, "trial_type": "single-stim", "stimulus": "", "internal_node_id": "0.0-55.0-0.0", "time_elapsed": 368443, "key_press": -1, "type": "PRE_RECALL_DELAY", "trial_index": 73}, "uniqueid": "MTK3138:3WAKVUDHUXNYE1XCS4YX0HIZXMUU78", "dateTime": 1520106642403}, {"current_trial": 74, "trialdata": {"rt": -1000, "trial_type": "single-audio", "stimulus": "/static/audio/400Hz.wav", "internal_node_id": "0.0-56.0", "time_elapsed": 368946, "key_press": -1, "type": "PRE_RECALL_ALERT", "trial_index": 74}, "uniqueid": "MTK3138:3WAKVUDHUXNYE1XCS4YX0HIZXMUU78", "dateTime": 1520106642906}, {"current_trial": 75, "trialdata": {"rt": [3603, 4938, 8875, 10244, 21150], "recwords": ["seafood", "cattle", "lover", "hedge", "spider"], "key_times": [1051, 1192, 1920, 2154, 2352, 2501, 2829, 3603, 3884, 4111, 4270, 4395, 4528, 4664, 4938, 7194, 7355, 8021, 8291, 8404, 8588, 8676, 8875, 9218, 9308, 9608, 9795, 9997, 10244, 19490, 19595, 20082, 20210, 20445, 20585, 21150], "trial_type": "free-recall", "conditions": [18, 1200, "v", 18000], "internal_node_id": "0.0-57.0-0.0", "key_presses": [83, 69, 65, 70, 79, 79, 68, 13, 67, 65, 84, 84, 76, 69, 13, 76, 86, 8, 79, 86, 69, 82, 13, 72, 69, 68, 71, 69, 13, 83, 80, 73, 68, 69, 82, 13], "trial": 1, "time_elapsed": 428952, "type": "FREE_RECALL", "trial_index": 75}, "uniqueid": "MTK3138:3WAKVUDHUXNYE1XCS4YX0HIZXMUU78", "dateTime": 1520106702915}, {"current_trial": 76, "trialdata": {"rt": 3638, "trial_type": "text", "internal_node_id": "0.0-58.0", "time_elapsed": 434597, "key_press": 71, "type": "INSTRUCTIONS", "trial_index": 76}, "uniqueid": "MTK3138:3WAKVUDHUXNYE1XCS4YX0HIZXMUU78", "dateTime": 1520106708557}, {"current_trial": 77, "trialdata": {"rt": [6141, 14618, 19768], "trial_type": "math-distractor", "key_times": [5922, 6021, 6141, 14086, 14340, 14618, 19424, 19586, 19768], "responses": ["23", "23", "13"], "num2": [7, 9, 3, 5], "num3": [9, 6, 1, 2], "conditions": [12, 800, "v", 24000], "internal_node_id": "0.0-59.0", "key_presses": [50, 51, 13, 50, 51, 13, 49, 51, 13], "trial": 2, "time_elapsed": 459608, "type": "DISTRACTOR", "trial_index": 77, "num1": [7, 7, 9, 9]}, "uniqueid": "MTK3138:3WAKVUDHUXNYE1XCS4YX0HIZXMUU78", "dateTime": 1520106733568}, {"current_trial": 78, "trialdata": {"rt": -1, "trial_type": "single-stim", "stimulus": "<p id=\"stim\">10</p>", "internal_node_id": "0.0-60.0-0.0", "time_elapsed": 462613, "key_press": -1, "trial_index": 78}, "uniqueid": "MTK3138:3WAKVUDHUXNYE1XCS4YX0HIZXMUU78", "dateTime": 1520106736574}, {"current_trial": 79, "trialdata": {"rt": -1, "trial_type": "single-stim", "stimulus": "<p id=\"stim\">9</p>", "internal_node_id": "0.0-60.0-1.0", "time_elapsed": 463618, "key_press": -1, "trial_index": 79}, "uniqueid": "MTK3138:3WAKVUDHUXNYE1XCS4YX0HIZXMUU78", "dateTime": 1520106737578}, {"current_trial": 80, "trialdata": {"rt": -1, "trial_type": "single-stim", "stimulus": "<p id=\"stim\">8</p>", "internal_node_id": "0.0-60.0-2.0", "time_elapsed": 464622, "key_press": -1, "trial_index": 80}, "uniqueid": "MTK3138:3WAKVUDHUXNYE1XCS4YX0HIZXMUU78", "dateTime": 1520106738582}, {"current_trial": 81, "trialdata": {"rt": -1, "trial_type": "single-stim", "stimulus": "<p id=\"stim\">7</p>", "internal_node_id": "0.0-60.0-3.0", "time_elapsed": 465626, "key_press": -1, "trial_index": 81}, "uniqueid": "MTK3138:3WAKVUDHUXNYE1XCS4YX0HIZXMUU78", "dateTime": 1520106739586}, {"current_trial": 82, "trialdata": {"rt": -1, "trial_type": "single-stim", "stimulus": "<p id=\"stim\">6</p>", "internal_node_id": "0.0-60.0-4.0", "time_elapsed": 466630, "key_press": -1, "trial_index": 82}, "uniqueid": "MTK3138:3WAKVUDHUXNYE1XCS4YX0HIZXMUU78", "dateTime": 1520106740591}, {"current_trial": 83, "trialdata": {"rt": -1, "trial_type": "single-stim", "stimulus": "<p id=\"stim\">5</p>", "internal_node_id": "0.0-60.0-5.0", "time_elapsed": 467635, "key_press": -1, "trial_index": 83}, "uniqueid": "MTK3138:3WAKVUDHUXNYE1XCS4YX0HIZXMUU78", "dateTime": 1520106741595}, {"current_trial": 84, "trialdata": {"rt": -1, "trial_type": "single-stim", "stimulus": "<p id=\"stim\">4</p>", "internal_node_id": "0.0-60.0-6.0", "time_elapsed": 468640, "key_press": -1, "trial_index": 84}, "uniqueid": "MTK3138:3WAKVUDHUXNYE1XCS4YX0HIZXMUU78", "dateTime": 1520106742600}, {"current_trial": 85, "trialdata": {"rt": -1, "trial_type": "single-stim", "stimulus": "<p id=\"stim\">3</p>", "internal_node_id": "0.0-60.0-7.0", "time_elapsed": 469645, "key_press": -1, "trial_index": 85}, "uniqueid": "MTK3138:3WAKVUDHUXNYE1XCS4YX0HIZXMUU78", "dateTime": 1520106743605}, {"current_trial": 86, "trialdata": {"rt": -1, "trial_type": "single-stim", "stimulus": "<p id=\"stim\">2</p>", "internal_node_id": "0.0-60.0-8.0", "time_elapsed": 470647, "key_press": -1, "trial_index": 86}, "uniqueid": "MTK3138:3WAKVUDHUXNYE1XCS4YX0HIZXMUU78", "dateTime": 1520106744607}, {"current_trial": 87, "trialdata": {"rt": -1, "trial_type": "single-stim", "stimulus": "<p id=\"stim\">1</p>", "internal_node_id": "0.0-60.0-9.0", "time_elapsed": 471651, "key_press": -1, "trial_index": 87}, "uniqueid": "MTK3138:3WAKVUDHUXNYE1XCS4YX0HIZXMUU78", "dateTime": 1520106745611}, {"current_trial": 88, "trialdata": {"rt": -1, "trial_type": "single-stim", "stimulus": "<p id=\"stim\">+</p>", "internal_node_id": "0.0-61.0-0.0", "time_elapsed": 473154, "key_press": -1, "type": "FIXATION", "trial_index": 88}, "uniqueid": "MTK3138:3WAKVUDHUXNYE1XCS4YX0HIZXMUU78", "dateTime": 1520106747114}, {"current_trial": 89, "trialdata": {"rt": -1, "trial_type": "single-stim", "word": "victim", "stimulus": "<p id=\"stim\">VICTIM</p>", "conditions": [12, 800, "v", 24000], "internal_node_id": "0.0-62.0", "trial": 2, "time_elapsed": 473961, "serialpos": 0, "key_press": -1, "wordID": 1561, "type": "PRES_VIS", "trial_index": 89}, "uniqueid": "MTK3138:3WAKVUDHUXNYE1XCS4YX0HIZXMUU78", "dateTime": 1520106747921}, {"current_trial": 90, "trialdata": {"rt": -1, "trial_type": "single-stim", "word": "lion", "stimulus": "<p id=\"stim\">LION</p>", "conditions": [12, 800, "v", 24000], "internal_node_id": "0.0-63.0", "trial": 2, "time_elapsed": 475726, "serialpos": 1, "key_press": -1, "wordID": 826, "type": "PRES_VIS", "trial_index": 90}, "uniqueid": "MTK3138:3WAKVUDHUXNYE1XCS4YX0HIZXMUU78", "dateTime": 1520106749686}, {"current_trial": 91, "trialdata": {"rt": -1, "trial_type": "single-stim", "word": "arm", "stimulus": "<p id=\"stim\">ARM</p>", "conditions": [12, 800, "v", 24000], "internal_node_id": "0.0-64.0", "trial": 2, "time_elapsed": 477670, "serialpos": 2, "key_press": -1, "wordID": 37, "type": "PRES_VIS", "trial_index": 91}, "uniqueid": "MTK3138:3WAKVUDHUXNYE1XCS4YX0HIZXMUU78", "dateTime": 1520106751630}, {"current_trial": 92, "trialdata": {"rt": -1, "trial_type": "single-stim", "word": "shoulder", "stimulus": "<p id=\"stim\">SHOULDER</p>", "conditions": [12, 800, "v", 24000], "internal_node_id": "0.0-65.0", "trial": 2, "time_elapsed": 479550, "serialpos": 3, "key_press": -1, "wordID": 1293, "type": "PRES_VIS", "trial_index": 92}, "uniqueid": "MTK3138:3WAKVUDHUXNYE1XCS4YX0HIZXMUU78", "dateTime": 1520106753510}, {"current_trial": 93, "trialdata": {"rt": -1, "trial_type": "single-stim", "word": "mammal", "stimulus": "<p id=\"stim\">MAMMAL</p>", "conditions": [12, 800, "v", 24000], "internal_node_id": "0.0-66.0", "trial": 2, "time_elapsed": 481350, "serialpos": 4, "key_press": -1, "wordID": 860, "type": "PRES_VIS", "trial_index": 93}, "uniqueid": "MTK3138:3WAKVUDHUXNYE1XCS4YX0HIZXMUU78", "dateTime": 1520106755310}, {"current_trial": 94, "trialdata": {"rt": -1, "trial_type": "single-stim", "word": "finger", "stimulus": "<p id=\"stim\">FINGER</p>", "conditions": [12, 800, "v", 24000], "internal_node_id": "0.0-67.0", "trial": 2, "time_elapsed": 483160, "serialpos": 5, "key_press": -1, "wordID": 566, "type": "PRES_VIS", "trial_index": 94}, "uniqueid": "MTK3138:3WAKVUDHUXNYE1XCS4YX0HIZXMUU78", "dateTime": 1520106757121}, {"current_trial": 95, "trialdata": {"rt": -1, "trial_type": "single-stim", "word": "atom", "stimulus": "<p id=\"stim\">ATOM</p>", "conditions": [12, 800, "v", 24000], "internal_node_id": "0.0-68.0", "trial": 2, "time_elapsed": 484902, "serialpos": 6, "key_press": -1, "wordID": 54, "type": "PRES_VIS", "trial_index": 95}, "uniqueid": "MTK3138:3WAKVUDHUXNYE1XCS4YX0HIZXMUU78", "dateTime": 1520106758862}, {"current_trial": 96, "trialdata": {"rt": -1, "trial_type": "single-stim", "word": "penguin", "stimulus": "<p id=\"stim\">PENGUIN</p>", "conditions": [12, 800, "v", 24000], "internal_node_id": "0.0-69.0", "trial": 2, "time_elapsed": 486701, "serialpos": 7, "key_press": -1, "wordID": 1043, "type": "PRES_VIS", "trial_index": 96}, "uniqueid": "MTK3138:3WAKVUDHUXNYE1XCS4YX0HIZXMUU78", "dateTime": 1520106760661}, {"current_trial": 97, "trialdata": {"rt": -1, "trial_type": "single-stim", "word": "orange", "stimulus": "<p id=\"stim\">ORANGE</p>", "conditions": [12, 800, "v", 24000], "internal_node_id": "0.0-70.0", "trial": 2, "time_elapsed": 488361, "serialpos": 8, "key_press": -1, "wordID": 979, "type": "PRES_VIS", "trial_index": 97}, "uniqueid": "MTK3138:3WAKVUDHUXNYE1XCS4YX0HIZXMUU78", "dateTime": 1520106762321}, {"current_trial": 98, "trialdata": {"rt": -1, "trial_type": "single-stim", "word": "primate", "stimulus": "<p id=\"stim\">PRIMATE</p>", "conditions": [12, 800, "v", 24000], "internal_node_id": "0.0-71.0", "trial": 2, "time_elapsed": 490241, "serialpos": 9, "key_press": -1, "wordID": 1122, "type": "PRES_VIS", "trial_index": 98}, "uniqueid": "MTK3138:3WAKVUDHUXNYE1XCS4YX0HIZXMUU78", "dateTime": 1520106764202}, {"current_trial": 99, "trialdata": {"rt": -1, "trial_type": "single-stim", "word": "mustard", "stimulus": "<p id=\"stim\">MUSTARD</p>", "conditions": [12, 800, "v", 24000], "internal_node_id": "0.0-72.0", "trial": 2, "time_elapsed": 492012, "serialpos": 10, "key_press": -1, "wordID": 934, "type": "PRES_VIS", "trial_index": 99}, "uniqueid": "MTK3138:3WAKVUDHUXNYE1XCS4YX0HIZXMUU78", "dateTime": 1520106765972}, {"current_trial": 100, "trialdata": {"rt": -1, "trial_type": "single-stim", "word": "pasta", "stimulus": "<p id=\"stim\">PASTA</p>", "conditions": [12, 800, "v", 24000], "internal_node_id": "0.0-73.0", "trial": 2, "time_elapsed": 493660, "serialpos": 11, "key_press": -1, "wordID": 1020, "type": "PRES_VIS", "trial_index": 100}, "uniqueid": "MTK3138:3WAKVUDHUXNYE1XCS4YX0HIZXMUU78", "dateTime": 1520106767620}, {"current_trial": 101, "trialdata": {"rt": -1, "trial_type": "single-stim", "stimulus": "", "internal_node_id": "0.0-74.0-0.0", "time_elapsed": 496023, "key_press": -1, "type": "PRE_RECALL_DELAY", "trial_index": 101}, "uniqueid": "MTK3138:3WAKVUDHUXNYE1XCS4YX0HIZXMUU78", "dateTime": 1520106769983}, {"current_trial": 102, "trialdata": {"rt": -1000, "trial_type": "single-audio", "stimulus": "/static/audio/400Hz.wav", "internal_node_id": "0.0-75.0", "time_elapsed": 496525, "key_press": -1, "type": "PRE_RECALL_ALERT", "trial_index": 102}, "uniqueid": "MTK3138:3WAKVUDHUXNYE1XCS4YX0HIZXMUU78", "dateTime": 1520106770485}, {"current_trial": 103, "trialdata": {"rt": [2389, 4186, 7055, 9418, 12810, 15061, 19705], "recwords": ["mustard", "pasta", "victim", "penguin", "orange", "pasta", "mammal"], "key_times": [442, 664, 740, 817, 1181, 1301, 2073, 2389, 2688, 2856, 2973, 3100, 3269, 4186, 4385, 4586, 4706, 4898, 5395, 5611, 7055, 7326, 7450, 7579, 7712, 7933, 8182, 8630, 9418, 11368, 11475, 11941, 12216, 12384, 12595, 12810, 13907, 14047, 14167, 14331, 14499, 15061, 17971, 18110, 18206, 18462, 18920, 19147, 19266, 19428, 19705], "trial_type": "free-recall", "conditions": [12, 800, "v", 24000], "internal_node_id": "0.0-76.0-0.0", "key_presses": [77, 85, 83, 84, 65, 82, 68, 13, 80, 65, 83, 84, 65, 13, 86, 73, 67, 84, 73, 77, 13, 80, 69, 78, 71, 85, 73, 78, 13, 79, 82, 65, 78, 71, 69, 13, 80, 65, 83, 84, 65, 13, 77, 65, 77, 65, 8, 77, 65, 76, 13], "trial": 2, "time_elapsed": 556530, "type": "FREE_RECALL", "trial_index": 103}, "uniqueid": "MTK3138:3WAKVUDHUXNYE1XCS4YX0HIZXMUU78", "dateTime": 1520106830492}, {"current_trial": 104, "trialdata": {"rt": 1903, "trial_type": "text", "internal_node_id": "0.0-77.0", "time_elapsed": 560441, "key_press": 70, "type": "INSTRUCTIONS", "trial_index": 104}, "uniqueid": "MTK3138:3WAKVUDHUXNYE1XCS4YX0HIZXMUU78", "dateTime": 1520106834401}, {"current_trial": 105, "trialdata": {"rt": [3050, 7944, 9971], "trial_type": "math-distractor", "key_times": [2723, 3050, 6714, 6957, 7491, 7812, 7944, 9856, 9971], "responses": ["9", "20", "9"], "num2": [2, 8, 5, 8], "num3": [1, 9, 2, 7], "conditions": [24, 800, "v", 12000], "internal_node_id": "0.0-78.0", "key_presses": [57, 13, 50, 57, 8, 48, 13, 57, 13], "trial": 3, "time_elapsed": 574450, "type": "DISTRACTOR", "trial_index": 105, "num1": [6, 3, 2, 9]}, "uniqueid": "MTK3138:3WAKVUDHUXNYE1XCS4YX0HIZXMUU78", "dateTime": 1520106848410}, {"current_trial": 106, "trialdata": {"rt": -1, "trial_type": "single-stim", "stimulus": "<p id=\"stim\">10</p>", "internal_node_id": "0.0-79.0-0.0", "time_elapsed": 577459, "key_press": -1, "trial_index": 106}, "uniqueid": "MTK3138:3WAKVUDHUXNYE1XCS4YX0HIZXMUU78", "dateTime": 1520106851419}, {"current_trial": 107, "trialdata": {"rt": -1, "trial_type": "single-stim", "stimulus": "<p id=\"stim\">9</p>", "internal_node_id": "0.0-79.0-1.0", "time_elapsed": 578463, "key_press": -1, "trial_index": 107}, "uniqueid": "MTK3138:3WAKVUDHUXNYE1XCS4YX0HIZXMUU78", "dateTime": 1520106852423}, {"current_trial": 108, "trialdata": {"rt": -1, "trial_type": "single-stim", "stimulus": "<p id=\"stim\">8</p>", "internal_node_id": "0.0-79.0-2.0", "time_elapsed": 579468, "key_press": -1, "trial_index": 108}, "uniqueid": "MTK3138:3WAKVUDHUXNYE1XCS4YX0HIZXMUU78", "dateTime": 1520106853428}, {"current_trial": 109, "trialdata": {"rt": -1, "trial_type": "single-stim", "stimulus": "<p id=\"stim\">7</p>", "internal_node_id": "0.0-79.0-3.0", "time_elapsed": 580471, "key_press": -1, "trial_index": 109}, "uniqueid": "MTK3138:3WAKVUDHUXNYE1XCS4YX0HIZXMUU78", "dateTime": 1520106854431}, {"current_trial": 110, "trialdata": {"rt": -1, "trial_type": "single-stim", "stimulus": "<p id=\"stim\">6</p>", "internal_node_id": "0.0-79.0-4.0", "time_elapsed": 581476, "key_press": -1, "trial_index": 110}, "uniqueid": "MTK3138:3WAKVUDHUXNYE1XCS4YX0HIZXMUU78", "dateTime": 1520106855436}, {"current_trial": 111, "trialdata": {"rt": -1, "trial_type": "single-stim", "stimulus": "<p id=\"stim\">5</p>", "internal_node_id": "0.0-79.0-5.0", "time_elapsed": 582480, "key_press": -1, "trial_index": 111}, "uniqueid": "MTK3138:3WAKVUDHUXNYE1XCS4YX0HIZXMUU78", "dateTime": 1520106856440}, {"current_trial": 112, "trialdata": {"rt": -1, "trial_type": "single-stim", "stimulus": "<p id=\"stim\">4</p>", "internal_node_id": "0.0-79.0-6.0", "time_elapsed": 583484, "key_press": -1, "trial_index": 112}, "uniqueid": "MTK3138:3WAKVUDHUXNYE1XCS4YX0HIZXMUU78", "dateTime": 1520106857444}, {"current_trial": 113, "trialdata": {"rt": -1, "trial_type": "single-stim", "stimulus": "<p id=\"stim\">3</p>", "internal_node_id": "0.0-79.0-7.0", "time_elapsed": 584488, "key_press": -1, "trial_index": 113}, "uniqueid": "MTK3138:3WAKVUDHUXNYE1XCS4YX0HIZXMUU78", "dateTime": 1520106858448}, {"current_trial": 114, "trialdata": {"rt": -1, "trial_type": "single-stim", "stimulus": "<p id=\"stim\">2</p>", "internal_node_id": "0.0-79.0-8.0", "time_elapsed": 585492, "key_press": -1, "trial_index": 114}, "uniqueid": "MTK3138:3WAKVUDHUXNYE1XCS4YX0HIZXMUU78", "dateTime": 1520106859452}, {"current_trial": 115, "trialdata": {"rt": -1, "trial_type": "single-stim", "stimulus": "<p id=\"stim\">1</p>", "internal_node_id": "0.0-79.0-9.0", "time_elapsed": 586496, "key_press": -1, "trial_index": 115}, "uniqueid": "MTK3138:3WAKVUDHUXNYE1XCS4YX0HIZXMUU78", "dateTime": 1520106860457}, {"current_trial": 116, "trialdata": {"rt": -1, "trial_type": "single-stim", "stimulus": "<p id=\"stim\">+</p>", "internal_node_id": "0.0-80.0-0.0", "time_elapsed": 588000, "key_press": -1, "type": "FIXATION", "trial_index": 116}, "uniqueid": "MTK3138:3WAKVUDHUXNYE1XCS4YX0HIZXMUU78", "dateTime": 1520106861960}, {"current_trial": 117, "trialdata": {"rt": -1, "trial_type": "single-stim", "word": "mummy", "stimulus": "<p id=\"stim\">MUMMY</p>", "conditions": [24, 800, "v", 12000], "internal_node_id": "0.0-81.0", "trial": 3, "time_elapsed": 588808, "serialpos": 0, "key_press": -1, "wordID": 931, "type": "PRES_VIS", "trial_index": 117}, "uniqueid": "MTK3138:3WAKVUDHUXNYE1XCS4YX0HIZXMUU78", "dateTime": 1520106862768}, {"current_trial": 118, "trialdata": {"rt": -1, "trial_type": "single-stim", "word": "beaker", "stimulus": "<p id=\"stim\">BEAKER</p>", "conditions": [24, 800, "v", 12000], "internal_node_id": "0.0-82.0", "trial": 3, "time_elapsed": 590420, "serialpos": 1, "key_press": -1, "wordID": 103, "type": "PRES_VIS", "trial_index": 118}, "uniqueid": "MTK3138:3WAKVUDHUXNYE1XCS4YX0HIZXMUU78", "dateTime": 1520106864380}, {"current_trial": 119, "trialdata": {"rt": -1, "trial_type": "single-stim", "word": "bubble", "stimulus": "<p id=\"stim\">BUBBLE</p>", "conditions": [24, 800, "v", 12000], "internal_node_id": "0.0-83.0", "trial": 3, "time_elapsed": 592289, "serialpos": 2, "key_press": -1, "wordID": 182, "type": "PRES_VIS", "trial_index": 119}, "uniqueid": "MTK3138:3WAKVUDHUXNYE1XCS4YX0HIZXMUU78", "dateTime": 1520106866249}, {"current_trial": 120, "trialdata": {"rt": -1, "trial_type": "single-stim", "word": "spouse", "stimulus": "<p id=\"stim\">SPOUSE</p>", "conditions": [24, 800, "v", 12000], "internal_node_id": "0.0-84.0", "trial": 3, "time_elapsed": 594071, "serialpos": 3, "key_press": -1, "wordID": 1357, "type": "PRES_VIS", "trial_index": 120}, "uniqueid": "MTK3138:3WAKVUDHUXNYE1XCS4YX0HIZXMUU78", "dateTime": 1520106868031}, {"current_trial": 121, "trialdata": {"rt": -1, "trial_type": "single-stim", "word": "piston", "stimulus": "<p id=\"stim\">PISTON</p>", "conditions": [24, 800, "v", 12000], "internal_node_id": "0.0-85.0", "trial": 3, "time_elapsed": 595754, "serialpos": 4, "key_press": -1, "wordID": 1075, "type": "PRES_VIS", "trial_index": 121}, "uniqueid": "MTK3138:3WAKVUDHUXNYE1XCS4YX0HIZXMUU78", "dateTime": 1520106869714}, {"current_trial": 122, "trialdata": {"rt": -1, "trial_type": "single-stim", "word": "rabbit", "stimulus": "<p id=\"stim\">RABBIT</p>", "conditions": [24, 800, "v", 12000], "internal_node_id": "0.0-86.0", "trial": 3, "time_elapsed": 597420, "serialpos": 5, "key_press": -1, "wordID": 1151, "type": "PRES_VIS", "trial_index": 122}, "uniqueid": "MTK3138:3WAKVUDHUXNYE1XCS4YX0HIZXMUU78", "dateTime": 1520106871380}, {"current_trial": 123, "trialdata": {"rt": -1, "trial_type": "single-stim", "word": "shortcake", "stimulus": "<p id=\"stim\">SHORTCAKE</p>", "conditions": [24, 800, "v", 12000], "internal_node_id": "0.0-87.0", "trial": 3, "time_elapsed": 599172, "serialpos": 6, "key_press": -1, "wordID": 1291, "type": "PRES_VIS", "trial_index": 123}, "uniqueid": "MTK3138:3WAKVUDHUXNYE1XCS4YX0HIZXMUU78", "dateTime": 1520106873132}, {"current_trial": 124, "trialdata": {"rt": -1, "trial_type": "single-stim", "word": "wardrobe", "stimulus": "<p id=\"stim\">WARDROBE</p>", "conditions": [24, 800, "v", 12000], "internal_node_id": "0.0-88.0", "trial": 3, "time_elapsed": 600902, "serialpos": 7, "key_press": -1, "wordID": 1586, "type": "PRES_VIS", "trial_index": 124}, "uniqueid": "MTK3138:3WAKVUDHUXNYE1XCS4YX0HIZXMUU78", "dateTime": 1520106874862}, {"current_trial": 125, "trialdata": {"rt": -1, "trial_type": "single-stim", "word": "muffin", "stimulus": "<p id=\"stim\">MUFFIN</p>", "conditions": [24, 800, "v", 12000], "internal_node_id": "0.0-89.0", "trial": 3, "time_elapsed": 602702, "serialpos": 8, "key_press": -1, "wordID": 928, "type": "PRES_VIS", "trial_index": 125}, "uniqueid": "MTK3138:3WAKVUDHUXNYE1XCS4YX0HIZXMUU78", "dateTime": 1520106876662}, {"current_trial": 126, "trialdata": {"rt": -1, "trial_type": "single-stim", "word": "pastry", "stimulus": "<p id=\"stim\">PASTRY</p>", "conditions": [24, 800, "v", 12000], "internal_node_id": "0.0-90.0", "trial": 3, "time_elapsed": 604420, "serialpos": 9, "key_press": -1, "wordID": 1021, "type": "PRES_VIS", "trial_index": 126}, "uniqueid": "MTK3138:3WAKVUDHUXNYE1XCS4YX0HIZXMUU78", "dateTime": 1520106878380}, {"current_trial": 127, "trialdata": {"rt": -1, "trial_type": "single-stim", "word": "chipmunk", "stimulus": "<p id=\"stim\">CHIPMUNK</p>", "conditions": [24, 800, "v", 12000], "internal_node_id": "0.0-91.0", "trial": 3, "time_elapsed": 606213, "serialpos": 10, "key_press": -1, "wordID": 303, "type": "PRES_VIS", "trial_index": 127}, "uniqueid": "MTK3138:3WAKVUDHUXNYE1XCS4YX0HIZXMUU78", "dateTime": 1520106880173}, {"current_trial": 128, "trialdata": {"rt": -1, "trial_type": "single-stim", "word": "sword", "stimulus": "<p id=\"stim\">SWORD</p>", "conditions": [24, 800, "v", 12000], "internal_node_id": "0.0-92.0", "trial": 3, "time_elapsed": 608012, "serialpos": 11, "key_press": -1, "wordID": 1422, "type": "PRES_VIS", "trial_index": 128}, "uniqueid": "MTK3138:3WAKVUDHUXNYE1XCS4YX0HIZXMUU78", "dateTime": 1520106881972}, {"current_trial": 129, "trialdata": {"rt": -1, "trial_type": "single-stim", "word": "orchid", "stimulus": "<p id=\"stim\">ORCHID</p>", "conditions": [24, 800, "v", 12000], "internal_node_id": "0.0-93.0", "trial": 3, "time_elapsed": 609858, "serialpos": 12, "key_press": -1, "wordID": 981, "type": "PRES_VIS", "trial_index": 129}, "uniqueid": "MTK3138:3WAKVUDHUXNYE1XCS4YX0HIZXMUU78", "dateTime": 1520106883818}, {"current_trial": 130, "trialdata": {"rt": -1, "trial_type": "single-stim", "word": "venus", "stimulus": "<p id=\"stim\">VENUS</p>", "conditions": [24, 800, "v", 12000], "internal_node_id": "0.0-94.0", "trial": 3, "time_elapsed": 611518, "serialpos": 13, "key_press": -1, "wordID": 1556, "type": "PRES_VIS", "trial_index": 130}, "uniqueid": "MTK3138:3WAKVUDHUXNYE1XCS4YX0HIZXMUU78", "dateTime": 1520106885478}, {"current_trial": 131, "trialdata": {"rt": -1, "trial_type": "single-stim", "word": "citrus", "stimulus": "<p id=\"stim\">CITRUS</p>", "conditions": [24, 800, "v", 12000], "internal_node_id": "0.0-95.0", "trial": 3, "time_elapsed": 613334, "serialpos": 14, "key_press": -1, "wordID": 312, "type": "PRES_VIS", "trial_index": 131}, "uniqueid": "MTK3138:3WAKVUDHUXNYE1XCS4YX0HIZXMUU78", "dateTime": 1520106887294}, {"current_trial": 132, "trialdata": {"rt": -1, "trial_type": "single-stim", "word": "fruit", "stimulus": "<p id=\"stim\">FRUIT</p>", "conditions": [24, 800, "v", 12000], "internal_node_id": "0.0-96.0", "trial": 3, "time_elapsed": 615099, "serialpos": 15, "key_press": -1, "wordID": 609, "type": "PRES_VIS", "trial_index": 132}, "uniqueid": "MTK3138:3WAKVUDHUXNYE1XCS4YX0HIZXMUU78", "dateTime": 1520106889059}, {"current_trial": 133, "trialdata": {"rt": -1, "trial_type": "single-stim", "word": "apron", "stimulus": "<p id=\"stim\">APRON</p>", "conditions": [24, 800, "v", 12000], "internal_node_id": "0.0-97.0", "trial": 3, "time_elapsed": 616840, "serialpos": 16, "key_press": -1, "wordID": 34, "type": "PRES_VIS", "trial_index": 133}, "uniqueid": "MTK3138:3WAKVUDHUXNYE1XCS4YX0HIZXMUU78", "dateTime": 1520106890801}, {"current_trial": 134, "trialdata": {"rt": -1, "trial_type": "single-stim", "word": "guitar", "stimulus": "<p id=\"stim\">GUITAR</p>", "conditions": [24, 800, "v", 12000], "internal_node_id": "0.0-98.0", "trial": 3, "time_elapsed": 618454, "serialpos": 17, "key_press": -1, "wordID": 669, "type": "PRES_VIS", "trial_index": 134}, "uniqueid": "MTK3138:3WAKVUDHUXNYE1XCS4YX0HIZXMUU78", "dateTime": 1520106892414}, {"current_trial": 135, "trialdata": {"rt": -1, "trial_type": "single-stim", "word": "snack", "stimulus": "<p id=\"stim\">SNACK</p>", "conditions": [24, 800, "v", 12000], "internal_node_id": "0.0-99.0", "trial": 3, "time_elapsed": 620317, "serialpos": 18, "key_press": -1, "wordID": 1330, "type": "PRES_VIS", "trial_index": 135}, "uniqueid": "MTK3138:3WAKVUDHUXNYE1XCS4YX0HIZXMUU78", "dateTime": 1520106894277}, {"current_trial": 136, "trialdata": {"rt": -1, "trial_type": "single-stim", "word": "patrol", "stimulus": "<p id=\"stim\">PATROL</p>", "conditions": [24, 800, "v", 12000], "internal_node_id": "0.0-100.0", "trial": 3, "time_elapsed": 622180, "serialpos": 19, "key_press": -1, "wordID": 1026, "type": "PRES_VIS", "trial_index": 136}, "uniqueid": "MTK3138:3WAKVUDHUXNYE1XCS4YX0HIZXMUU78", "dateTime": 1520106896140}, {"current_trial": 137, "trialdata": {"rt": -1, "trial_type": "single-stim", "word": "proton", "stimulus": "<p id=\"stim\">PROTON</p>", "conditions": [24, 800, "v", 12000], "internal_node_id": "0.0-101.0", "trial": 3, "time_elapsed": 624095, "serialpos": 20, "key_press": -1, "wordID": 1131, "type": "PRES_VIS", "trial_index": 137}, "uniqueid": "MTK3138:3WAKVUDHUXNYE1XCS4YX0HIZXMUU78", "dateTime": 1520106898055}, {"current_trial": 138, "trialdata": {"rt": -1, "trial_type": "single-stim", "word": "blade", "stimulus": "<p id=\"stim\">BLADE</p>", "conditions": [24, 800, "v", 12000], "internal_node_id": "0.0-102.0", "trial": 3, "time_elapsed": 625830, "serialpos": 21, "key_press": -1, "wordID": 133, "type": "PRES_VIS", "trial_index": 138}, "uniqueid": "MTK3138:3WAKVUDHUXNYE1XCS4YX0HIZXMUU78", "dateTime": 1520106899790}, {"current_trial": 139, "trialdata": {"rt": -1, "trial_type": "single-stim", "word": "tuba", "stimulus": "<p id=\"stim\">TUBA</p>", "conditions": [24, 800, "v", 12000], "internal_node_id": "0.0-103.0", "trial": 3, "time_elapsed": 627484, "serialpos": 22, "key_press": -1, "wordID": 1514, "type": "PRES_VIS", "trial_index": 139}, "uniqueid": "MTK3138:3WAKVUDHUXNYE1XCS4YX0HIZXMUU78", "dateTime": 1520106901445}, {"current_trial": 140, "trialdata": {"rt": -1, "trial_type": "single-stim", "word": "lumber", "stimulus": "<p id=\"stim\">LUMBER</p>", "conditions": [24, 800, "v", 12000], "internal_node_id": "0.0-104.0", "trial": 3, "time_elapsed": 629185, "serialpos": 23, "key_press": -1, "wordID": 847, "type": "PRES_VIS", "trial_index": 140}, "uniqueid": "MTK3138:3WAKVUDHUXNYE1XCS4YX0HIZXMUU78", "dateTime": 1520106903145}, {"current_trial": 141, "trialdata": {"rt": -1, "trial_type": "single-stim", "stimulus": "", "internal_node_id": "0.0-105.0-0.0", "time_elapsed": 631675, "key_press": -1, "type": "PRE_RECALL_DELAY", "trial_index": 141}, "uniqueid": "MTK3138:3WAKVUDHUXNYE1XCS4YX0HIZXMUU78", "dateTime": 1520106905635}, {"current_trial": 142, "trialdata": {"rt": -1000, "trial_type": "single-audio", "stimulus": "/static/audio/400Hz.wav", "internal_node_id": "0.0-106.0", "time_elapsed": 632177, "key_press": -1, "type": "PRE_RECALL_ALERT", "trial_index": 142}, "uniqueid": "MTK3138:3WAKVUDHUXNYE1XCS4YX0HIZXMUU78", "dateTime": 1520106906137}, {"current_trial": 143, "trialdata": {"rt": [1338, 3961, 8154, 12776, 15026, 20720, 30338], "recwords": ["tuba", "lumber", "piston", "sword", "muffin", "tuba", "apron"], "key_times": [633, 807, 946, 1105, 1338, 1675, 1853, 2131, 2295, 3135, 3240, 3961, 5467, 5629, 5765, 5902, 6540, 7038, 8154, 9705, 9959, 10380, 10568, 10949, 12776, 13084, 13374, 13520, 13649, 13783, 13960, 15026, 20141, 20320, 20452, 20572, 20720, 29332, 29450, 29542, 29740, 29916, 30338], "trial_type": "free-recall", "conditions": [24, 800, "v", 12000], "internal_node_id": "0.0-107.0-0.0", "key_presses": [84, 85, 66, 65, 13, 76, 85, 77, 66, 69, 82, 13, 80, 73, 83, 84, 79, 78, 13, 83, 87, 79, 82, 68, 13, 77, 85, 70, 70, 73, 78, 13, 84, 85, 66, 65, 13, 65, 80, 82, 79, 78, 13], "trial": 3, "time_elapsed": 692182, "type": "FREE_RECALL", "trial_index": 143}, "uniqueid": "MTK3138:3WAKVUDHUXNYE1XCS4YX0HIZXMUU78", "dateTime": 1520106966144}, {"current_trial": 144, "trialdata": {"rt": 1686, "trial_type": "text", "internal_node_id": "0.0-108.0", "time_elapsed": 695872, "key_press": 74, "type": "INSTRUCTIONS", "trial_index": 144}, "uniqueid": "MTK3138:3WAKVUDHUXNYE1XCS4YX0HIZXMUU78", "dateTime": 1520106969833}, {"current_trial": 145, "trialdata": {"rt": [2119, 4947, 7228, 9011], "trial_type": "math-distractor", "key_times": [1819, 1979, 2119, 4481, 4752, 4947, 6934, 7081, 7228, 8745, 8913, 9011, 10657, 11150], "responses": ["11", "16", "11", "15"], "num2": [4, 4, 9, 6, 6], "num3": [1, 3, 1, 3, 4], "conditions": [24, 1600, "v", 12000], "internal_node_id": "0.0-109.0", "key_presses": [49, 49, 13, 49, 54, 13, 49, 49, 13, 49, 53, 13, 49, 54], "trial": 4, "time_elapsed": 709882, "type": "DISTRACTOR", "trial_index": 145, "num1": [6, 9, 1, 6, 6]}, "uniqueid": "MTK3138:3WAKVUDHUXNYE1XCS4YX0HIZXMUU78", "dateTime": 1520106983842}, {"current_trial": 146, "trialdata": {"rt": -1, "trial_type": "single-stim", "stimulus": "<p id=\"stim\">10</p>", "internal_node_id": "0.0-110.0-0.0", "time_elapsed": 712888, "key_press": -1, "trial_index": 146}, "uniqueid": "MTK3138:3WAKVUDHUXNYE1XCS4YX0HIZXMUU78", "dateTime": 1520106986848}, {"current_trial": 147, "trialdata": {"rt": -1, "trial_type": "single-stim", "stimulus": "<p id=\"stim\">9</p>", "internal_node_id": "0.0-110.0-1.0", "time_elapsed": 713892, "key_press": -1, "trial_index": 147}, "uniqueid": "MTK3138:3WAKVUDHUXNYE1XCS4YX0HIZXMUU78", "dateTime": 1520106987853}, {"current_trial": 148, "trialdata": {"rt": -1, "trial_type": "single-stim", "stimulus": "<p id=\"stim\">8</p>", "internal_node_id": "0.0-110.0-2.0", "time_elapsed": 714896, "key_press": -1, "trial_index": 148}, "uniqueid": "MTK3138:3WAKVUDHUXNYE1XCS4YX0HIZXMUU78", "dateTime": 1520106988856}, {"current_trial": 149, "trialdata": {"rt": -1, "trial_type": "single-stim", "stimulus": "<p id=\"stim\">7</p>", "internal_node_id": "0.0-110.0-3.0", "time_elapsed": 715900, "key_press": -1, "trial_index": 149}, "uniqueid": "MTK3138:3WAKVUDHUXNYE1XCS4YX0HIZXMUU78", "dateTime": 1520106989861}, {"current_trial": 150, "trialdata": {"rt": -1, "trial_type": "single-stim", "stimulus": "<p id=\"stim\">6</p>", "internal_node_id": "0.0-110.0-4.0", "time_elapsed": 716904, "key_press": -1, "trial_index": 150}, "uniqueid": "MTK3138:3WAKVUDHUXNYE1XCS4YX0HIZXMUU78", "dateTime": 1520106990864}, {"current_trial": 151, "trialdata": {"rt": -1, "trial_type": "single-stim", "stimulus": "<p id=\"stim\">5</p>", "internal_node_id": "0.0-110.0-5.0", "time_elapsed": 717908, "key_press": -1, "trial_index": 151}, "uniqueid": "MTK3138:3WAKVUDHUXNYE1XCS4YX0HIZXMUU78", "dateTime": 1520106991869}, {"current_trial": 152, "trialdata": {"rt": -1, "trial_type": "single-stim", "stimulus": "<p id=\"stim\">4</p>", "internal_node_id": "0.0-110.0-6.0", "time_elapsed": 718913, "key_press": -1, "trial_index": 152}, "uniqueid": "MTK3138:3WAKVUDHUXNYE1XCS4YX0HIZXMUU78", "dateTime": 1520106992873}, {"current_trial": 153, "trialdata": {"rt": -1, "trial_type": "single-stim", "stimulus": "<p id=\"stim\">3</p>", "internal_node_id": "0.0-110.0-7.0", "time_elapsed": 719917, "key_press": -1, "trial_index": 153}, "uniqueid": "MTK3138:3WAKVUDHUXNYE1XCS4YX0HIZXMUU78", "dateTime": 1520106993877}, {"current_trial": 154, "trialdata": {"rt": -1, "trial_type": "single-stim", "stimulus": "<p id=\"stim\">2</p>", "internal_node_id": "0.0-110.0-8.0", "time_elapsed": 720921, "key_press": -1, "trial_index": 154}, "uniqueid": "MTK3138:3WAKVUDHUXNYE1XCS4YX0HIZXMUU78", "dateTime": 1520106994881}, {"current_trial": 155, "trialdata": {"rt": -1, "trial_type": "single-stim", "stimulus": "<p id=\"stim\">1</p>", "internal_node_id": "0.0-110.0-9.0", "time_elapsed": 721925, "key_press": -1, "trial_index": 155}, "uniqueid": "MTK3138:3WAKVUDHUXNYE1XCS4YX0HIZXMUU78", "dateTime": 1520106995885}, {"current_trial": 156, "trialdata": {"rt": -1, "trial_type": "single-stim", "stimulus": "<p id=\"stim\">+</p>", "internal_node_id": "0.0-111.0-0.0", "time_elapsed": 723429, "key_press": -1, "type": "FIXATION", "trial_index": 156}, "uniqueid": "MTK3138:3WAKVUDHUXNYE1XCS4YX0HIZXMUU78", "dateTime": 1520106997389}, {"current_trial": 157, "trialdata": {"rt": -1, "trial_type": "single-stim", "word": "bucket", "stimulus": "<p id=\"stim\">BUCKET</p>", "conditions": [24, 1600, "v", 12000], "internal_node_id": "0.0-112.0", "trial": 4, "time_elapsed": 725031, "serialpos": 0, "key_press": -1, "wordID": 183, "type": "PRES_VIS", "trial_index": 157}, "uniqueid": "MTK3138:3WAKVUDHUXNYE1XCS4YX0HIZXMUU78", "dateTime": 1520106998991}, {"current_trial": 158, "trialdata": {"rt": -1, "trial_type": "single-stim", "word": "chest", "stimulus": "<p id=\"stim\">CHEST</p>", "conditions": [24, 1600, "v", 12000], "internal_node_id": "0.0-113.0", "trial": 4, "time_elapsed": 727747, "serialpos": 1, "key_press": -1, "wordID": 294, "type": "PRES_VIS", "trial_index": 158}, "uniqueid": "MTK3138:3WAKVUDHUXNYE1XCS4YX0HIZXMUU78", "dateTime": 1520107001707}, {"current_trial": 159, "trialdata": {"rt": -1, "trial_type": "single-stim", "word": "ground", "stimulus": "<p id=\"stim\">GROUND</p>", "conditions": [24, 1600, "v", 12000], "internal_node_id": "0.0-114.0", "trial": 4, "time_elapsed": 730207, "serialpos": 2, "key_press": -1, "wordID": 665, "type": "PRES_VIS", "trial_index": 159}, "uniqueid": "MTK3138:3WAKVUDHUXNYE1XCS4YX0HIZXMUU78", "dateTime": 1520107004167}, {"current_trial": 160, "trialdata": {"rt": -1, "trial_type": "single-stim", "word": "carriage", "stimulus": "<p id=\"stim\">CARRIAGE</p>", "conditions": [24, 1600, "v", 12000], "internal_node_id": "0.0-115.0", "trial": 4, "time_elapsed": 732872, "serialpos": 3, "key_press": -1, "wordID": 247, "type": "PRES_VIS", "trial_index": 160}, "uniqueid": "MTK3138:3WAKVUDHUXNYE1XCS4YX0HIZXMUU78", "dateTime": 1520107006832}, {"current_trial": 161, "trialdata": {"rt": -1, "trial_type": "single-stim", "word": "hiker", "stimulus": "<p id=\"stim\">HIKER</p>", "conditions": [24, 1600, "v", 12000], "internal_node_id": "0.0-116.0", "trial": 4, "time_elapsed": 735501, "serialpos": 4, "key_press": -1, "wordID": 707, "type": "PRES_VIS", "trial_index": 161}, "uniqueid": "MTK3138:3WAKVUDHUXNYE1XCS4YX0HIZXMUU78", "dateTime": 1520107009461}, {"current_trial": 162, "trialdata": {"rt": -1, "trial_type": "single-stim", "word": "puppy", "stimulus": "<p id=\"stim\">PUPPY</p>", "conditions": [24, 1600, "v", 12000], "internal_node_id": "0.0-117.0", "trial": 4, "time_elapsed": 738252, "serialpos": 5, "key_press": -1, "wordID": 1143, "type": "PRES_VIS", "trial_index": 162}, "uniqueid": "MTK3138:3WAKVUDHUXNYE1XCS4YX0HIZXMUU78", "dateTime": 1520107012212}, {"current_trial": 163, "trialdata": {"rt": -1, "trial_type": "single-stim", "word": "market", "stimulus": "<p id=\"stim\">MARKET</p>", "conditions": [24, 1600, "v", 12000], "internal_node_id": "0.0-118.0", "trial": 4, "time_elapsed": 740951, "serialpos": 6, "key_press": -1, "wordID": 870, "type": "PRES_VIS", "trial_index": 163}, "uniqueid": "MTK3138:3WAKVUDHUXNYE1XCS4YX0HIZXMUU78", "dateTime": 1520107014912}, {"current_trial": 164, "trialdata": {"rt": -1, "trial_type": "single-stim", "word": "climber", "stimulus": "<p id=\"stim\">CLIMBER</p>", "conditions": [24, 1600, "v", 12000], "internal_node_id": "0.0-119.0", "trial": 4, "time_elapsed": 743546, "serialpos": 7, "key_press": -1, "wordID": 322, "type": "PRES_VIS", "trial_index": 164}, "uniqueid": "MTK3138:3WAKVUDHUXNYE1XCS4YX0HIZXMUU78", "dateTime": 1520107017506}, {"current_trial": 165, "trialdata": {"rt": -1, "trial_type": "single-stim", "word": "dress", "stimulus": "<p id=\"stim\">DRESS</p>", "conditions": [24, 1600, "v", 12000], "internal_node_id": "0.0-120.0", "trial": 4, "time_elapsed": 746239, "serialpos": 8, "key_press": -1, "wordID": 494, "type": "PRES_VIS", "trial_index": 165}, "uniqueid": "MTK3138:3WAKVUDHUXNYE1XCS4YX0HIZXMUU78", "dateTime": 1520107020199}, {"current_trial": 166, "trialdata": {"rt": -1, "trial_type": "single-stim", "word": "scarf", "stimulus": "<p id=\"stim\">SCARF</p>", "conditions": [24, 1600, "v", 12000], "internal_node_id": "0.0-121.0", "trial": 4, "time_elapsed": 748654, "serialpos": 9, "key_press": -1, "wordID": 1245, "type": "PRES_VIS", "trial_index": 166}, "uniqueid": "MTK3138:3WAKVUDHUXNYE1XCS4YX0HIZXMUU78", "dateTime": 1520107022614}, {"current_trial": 167, "trialdata": {"rt": -1, "trial_type": "single-stim", "word": "burglar", "stimulus": "<p id=\"stim\">BURGLAR</p>", "conditions": [24, 1600, "v", 12000], "internal_node_id": "0.0-122.0", "trial": 4, "time_elapsed": 751348, "serialpos": 10, "key_press": -1, "wordID": 199, "type": "PRES_VIS", "trial_index": 167}, "uniqueid": "MTK3138:3WAKVUDHUXNYE1XCS4YX0HIZXMUU78", "dateTime": 1520107025308}, {"current_trial": 168, "trialdata": {"rt": -1, "trial_type": "single-stim", "word": "saddle", "stimulus": "<p id=\"stim\">SADDLE</p>", "conditions": [24, 1600, "v", 12000], "internal_node_id": "0.0-123.0", "trial": 4, "time_elapsed": 753895, "serialpos": 11, "key_press": -1, "wordID": 1220, "type": "PRES_VIS", "trial_index": 168}, "uniqueid": "MTK3138:3WAKVUDHUXNYE1XCS4YX0HIZXMUU78", "dateTime": 1520107027855}, {"current_trial": 169, "trialdata": {"rt": -1, "trial_type": "single-stim", "word": "mattress", "stimulus": "<p id=\"stim\">MATTRESS</p>", "conditions": [24, 1600, "v", 12000], "internal_node_id": "0.0-124.0", "trial": 4, "time_elapsed": 756500, "serialpos": 12, "key_press": -1, "wordID": 878, "type": "PRES_VIS", "trial_index": 169}, "uniqueid": "MTK3138:3WAKVUDHUXNYE1XCS4YX0HIZXMUU78", "dateTime": 1520107030461}, {"current_trial": 170, "trialdata": {"rt": -1, "trial_type": "single-stim", "word": "sidewalk", "stimulus": "<p id=\"stim\">SIDEWALK</p>", "conditions": [24, 1600, "v", 12000], "internal_node_id": "0.0-125.0", "trial": 4, "time_elapsed": 759008, "serialpos": 13, "key_press": -1, "wordID": 1302, "type": "PRES_VIS", "trial_index": 170}, "uniqueid": "MTK3138:3WAKVUDHUXNYE1XCS4YX0HIZXMUU78", "dateTime": 1520107032968}, {"current_trial": 171, "trialdata": {"rt": -1, "trial_type": "single-stim", "word": "quarter", "stimulus": "<p id=\"stim\">QUARTER</p>", "conditions": [24, 1600, "v", 12000], "internal_node_id": "0.0-126.0", "trial": 4, "time_elapsed": 761736, "serialpos": 14, "key_press": -1, "wordID": 1147, "type": "PRES_VIS", "trial_index": 171}, "uniqueid": "MTK3138:3WAKVUDHUXNYE1XCS4YX0HIZXMUU78", "dateTime": 1520107035696}, {"current_trial": 172, "trialdata": {"rt": -1, "trial_type": "single-stim", "word": "lamp", "stimulus": "<p id=\"stim\">LAMP</p>", "conditions": [24, 1600, "v", 12000], "internal_node_id": "0.0-127.0", "trial": 4, "time_elapsed": 764156, "serialpos": 15, "key_press": -1, "wordID": 797, "type": "PRES_VIS", "trial_index": 172}, "uniqueid": "MTK3138:3WAKVUDHUXNYE1XCS4YX0HIZXMUU78", "dateTime": 1520107038116}, {"current_trial": 173, "trialdata": {"rt": -1, "trial_type": "single-stim", "word": "box", "stimulus": "<p id=\"stim\">BOX</p>", "conditions": [24, 1600, "v", 12000], "internal_node_id": "0.0-128.0", "trial": 4, "time_elapsed": 766815, "serialpos": 16, "key_press": -1, "wordID": 158, "type": "PRES_VIS", "trial_index": 173}, "uniqueid": "MTK3138:3WAKVUDHUXNYE1XCS4YX0HIZXMUU78", "dateTime": 1520107040775}, {"current_trial": 174, "trialdata": {"rt": -1, "trial_type": "single-stim", "word": "tombstone", "stimulus": "<p id=\"stim\">TOMBSTONE</p>", "conditions": [24, 1600, "v", 12000], "internal_node_id": "0.0-129.0", "trial": 4, "time_elapsed": 769519, "serialpos": 17, "key_press": -1, "wordID": 1477, "type": "PRES_VIS", "trial_index": 174}, "uniqueid": "MTK3138:3WAKVUDHUXNYE1XCS4YX0HIZXMUU78", "dateTime": 1520107043479}, {"current_trial": 175, "trialdata": {"rt": -1, "trial_type": "single-stim", "word": "handbag", "stimulus": "<p id=\"stim\">HANDBAG</p>", "conditions": [24, 1600, "v", 12000], "internal_node_id": "0.0-130.0", "trial": 4, "time_elapsed": 772276, "serialpos": 18, "key_press": -1, "wordID": 683, "type": "PRES_VIS", "trial_index": 175}, "uniqueid": "MTK3138:3WAKVUDHUXNYE1XCS4YX0HIZXMUU78", "dateTime": 1520107046236}, {"current_trial": 176, "trialdata": {"rt": -1, "trial_type": "single-stim", "word": "pizza", "stimulus": "<p id=\"stim\">PIZZA</p>", "conditions": [24, 1600, "v", 12000], "internal_node_id": "0.0-131.0", "trial": 4, "time_elapsed": 774992, "serialpos": 19, "key_press": -1, "wordID": 1078, "type": "PRES_VIS", "trial_index": 176}, "uniqueid": "MTK3138:3WAKVUDHUXNYE1XCS4YX0HIZXMUU78", "dateTime": 1520107048952}, {"current_trial": 177, "trialdata": {"rt": -1, "trial_type": "single-stim", "word": "diner", "stimulus": "<p id=\"stim\">DINER</p>", "conditions": [24, 1600, "v", 12000], "internal_node_id": "0.0-132.0", "trial": 4, "time_elapsed": 777569, "serialpos": 20, "key_press": -1, "wordID": 466, "type": "PRES_VIS", "trial_index": 177}, "uniqueid": "MTK3138:3WAKVUDHUXNYE1XCS4YX0HIZXMUU78", "dateTime": 1520107051529}, {"current_trial": 178, "trialdata": {"rt": -1, "trial_type": "single-stim", "word": "knapsack", "stimulus": "<p id=\"stim\">KNAPSACK</p>", "conditions": [24, 1600, "v", 12000], "internal_node_id": "0.0-133.0", "trial": 4, "time_elapsed": 780222, "serialpos": 21, "key_press": -1, "wordID": 782, "type": "PRES_VIS", "trial_index": 178}, "uniqueid": "MTK3138:3WAKVUDHUXNYE1XCS4YX0HIZXMUU78", "dateTime": 1520107054182}, {"current_trial": 179, "trialdata": {"rt": -1, "trial_type": "single-stim", "word": "racket", "stimulus": "<p id=\"stim\">RACKET</p>", "conditions": [24, 1600, "v", 12000], "internal_node_id": "0.0-134.0", "trial": 4, "time_elapsed": 782834, "serialpos": 22, "key_press": -1, "wordID": 1154, "type": "PRES_VIS", "trial_index": 179}, "uniqueid": "MTK3138:3WAKVUDHUXNYE1XCS4YX0HIZXMUU78", "dateTime": 1520107056794}, {"current_trial": 180, "trialdata": {"rt": -1, "trial_type": "single-stim", "word": "briefcase", "stimulus": "<p id=\"stim\">BRIEFCASE</p>", "conditions": [24, 1600, "v", 12000], "internal_node_id": "0.0-135.0", "trial": 4, "time_elapsed": 785585, "serialpos": 23, "key_press": -1, "wordID": 174, "type": "PRES_VIS", "trial_index": 180}, "uniqueid": "MTK3138:3WAKVUDHUXNYE1XCS4YX0HIZXMUU78", "dateTime": 1520107059545}, {"current_trial": 181, "trialdata": {"rt": -1, "trial_type": "single-stim", "stimulus": "", "internal_node_id": "0.0-136.0-0.0", "time_elapsed": 788058, "key_press": -1, "type": "PRE_RECALL_DELAY", "trial_index": 181}, "uniqueid": "MTK3138:3WAKVUDHUXNYE1XCS4YX0HIZXMUU78", "dateTime": 1520107062018}, {"current_trial": 182, "trialdata": {"rt": -1000, "trial_type": "single-audio", "stimulus": "/static/audio/400Hz.wav", "internal_node_id": "0.0-137.0", "time_elapsed": 788559, "key_press": -1, "type": "PRE_RECALL_ALERT", "trial_index": 182}, "uniqueid": "MTK3138:3WAKVUDHUXNYE1XCS4YX0HIZXMUU78", "dateTime": 1520107062520}, {"current_trial": 183, "trialdata": {"rt": [1614, 2678, 4067, 5858, 8095, 12041, 17707, 39260, 48926], "recwords": ["quarter", "bucket", "lamp", "box", "diner", "knapsack", "bucket", "bucket", "carriage"], "key_times": [507, 609, 794, 922, 1181, 1288, 1412, 1614, 1851, 1950, 2082, 2213, 2347, 2451, 2678, 2834, 3181, 3490, 3647, 3783, 3943, 4067, 4227, 4372, 4548, 5858, 6057, 6187, 6314, 6458, 6566, 8095, 9190, 9342, 9544, 9753, 10358, 10687, 11005, 11531, 12041, 14787, 15003, 15158, 15265, 15361, 15616, 15769, 15944, 16098, 16371, 16493, 16993, 17139, 17236, 17707, 37907, 38065, 38236, 38429, 38631, 38780, 39260, 47722, 47984, 48152, 48269, 48439, 48524, 48607, 48727, 48926], "trial_type": "free-recall", "conditions": [24, 1600, "v", 12000], "internal_node_id": "0.0-138.0-0.0", "key_presses": [81, 85, 65, 82, 84, 69, 82, 32, 66, 85, 67, 75, 69, 84, 32, 80, 8, 76, 65, 77, 80, 32, 66, 79, 88, 13, 68, 73, 78, 69, 82, 13, 75, 78, 65, 80, 83, 65, 67, 75, 13, 66, 67, 75, 69, 84, 8, 8, 8, 8, 85, 67, 75, 69, 84, 13, 66, 85, 67, 75, 69, 84, 13, 67, 65, 82, 82, 73, 65, 71, 69, 13], "trial": 4, "time_elapsed": 848565, "type": "FREE_RECALL", "trial_index": 183}, "uniqueid": "MTK3138:3WAKVUDHUXNYE1XCS4YX0HIZXMUU78", "dateTime": 1520107122527}, {"current_trial": 184, "trialdata": {"rt": 1292, "trial_type": "text", "internal_node_id": "0.0-139.0", "time_elapsed": 851865, "key_press": 82, "type": "INSTRUCTIONS", "trial_index": 184}, "uniqueid": "MTK3138:3WAKVUDHUXNYE1XCS4YX0HIZXMUU78", "dateTime": 1520107125825}, {"current_trial": 185, "trialdata": {"rt": [4063, 7024, 9216, 11113], "trial_type": "math-distractor", "key_times": [3513, 3860, 4063, 6448, 6842, 7024, 8952, 9068, 9216, 11006, 11113], "responses": ["16", "18", "12", "9"], "num2": [7, 9, 5, 3, 6], "num3": [7, 4, 3, 5, 7], "conditions": [12, 800, "v", 12000], "internal_node_id": "0.0-140.0", "key_presses": [49, 54, 13, 49, 56, 13, 49, 50, 13, 57, 13], "trial": 5, "time_elapsed": 865872, "type": "DISTRACTOR", "trial_index": 185, "num1": [2, 5, 4, 1, 1]}, "uniqueid": "MTK3138:3WAKVUDHUXNYE1XCS4YX0HIZXMUU78", "dateTime": 1520107139832}, {"current_trial": 186, "trialdata": {"rt": -1, "trial_type": "single-stim", "stimulus": "<p id=\"stim\">10</p>", "internal_node_id": "0.0-141.0-0.0", "time_elapsed": 868875, "key_press": -1, "trial_index": 186}, "uniqueid": "MTK3138:3WAKVUDHUXNYE1XCS4YX0HIZXMUU78", "dateTime": 1520107142835}, {"current_trial": 187, "trialdata": {"rt": -1, "trial_type": "single-stim", "stimulus": "<p id=\"stim\">9</p>", "internal_node_id": "0.0-141.0-1.0", "time_elapsed": 869877, "key_press": -1, "trial_index": 187}, "uniqueid": "MTK3138:3WAKVUDHUXNYE1XCS4YX0HIZXMUU78", "dateTime": 1520107143837}, {"current_trial": 188, "trialdata": {"rt": -1, "trial_type": "single-stim", "stimulus": "<p id=\"stim\">8</p>", "internal_node_id": "0.0-141.0-2.0", "time_elapsed": 870881, "key_press": -1, "trial_index": 188}, "uniqueid": "MTK3138:3WAKVUDHUXNYE1XCS4YX0HIZXMUU78", "dateTime": 1520107144841}, {"current_trial": 189, "trialdata": {"rt": -1, "trial_type": "single-stim", "stimulus": "<p id=\"stim\">7</p>", "internal_node_id": "0.0-141.0-3.0", "time_elapsed": 871885, "key_press": -1, "trial_index": 189}, "uniqueid": "MTK3138:3WAKVUDHUXNYE1XCS4YX0HIZXMUU78", "dateTime": 1520107145845}, {"current_trial": 190, "trialdata": {"rt": -1, "trial_type": "single-stim", "stimulus": "<p id=\"stim\">6</p>", "internal_node_id": "0.0-141.0-4.0", "time_elapsed": 872890, "key_press": -1, "trial_index": 190}, "uniqueid": "MTK3138:3WAKVUDHUXNYE1XCS4YX0HIZXMUU78", "dateTime": 1520107146850}, {"current_trial": 191, "trialdata": {"rt": -1, "trial_type": "single-stim", "stimulus": "<p id=\"stim\">5</p>", "internal_node_id": "0.0-141.0-5.0", "time_elapsed": 873894, "key_press": -1, "trial_index": 191}, "uniqueid": "MTK3138:3WAKVUDHUXNYE1XCS4YX0HIZXMUU78", "dateTime": 1520107147854}, {"current_trial": 192, "trialdata": {"rt": -1, "trial_type": "single-stim", "stimulus": "<p id=\"stim\">4</p>", "internal_node_id": "0.0-141.0-6.0", "time_elapsed": 874897, "key_press": -1, "trial_index": 192}, "uniqueid": "MTK3138:3WAKVUDHUXNYE1XCS4YX0HIZXMUU78", "dateTime": 1520107148858}, {"current_trial": 193, "trialdata": {"rt": 19, "trial_type": "single-stim", "stimulus": "<p id=\"stim\">3</p>", "internal_node_id": "0.0-141.0-7.0", "time_elapsed": 875902, "key_press": 16, "trial_index": 193}, "uniqueid": "MTK3138:3WAKVUDHUXNYE1XCS4YX0HIZXMUU78", "dateTime": 1520107149862}, {"current_trial": 194, "trialdata": {"rt": -1, "trial_type": "single-stim", "stimulus": "<p id=\"stim\">2</p>", "internal_node_id": "0.0-141.0-8.0", "time_elapsed": 876906, "key_press": -1, "trial_index": 194}, "uniqueid": "MTK3138:3WAKVUDHUXNYE1XCS4YX0HIZXMUU78", "dateTime": 1520107150866}, {"current_trial": 195, "trialdata": {"rt": -1, "trial_type": "single-stim", "stimulus": "<p id=\"stim\">1</p>", "internal_node_id": "0.0-141.0-9.0", "time_elapsed": 877910, "key_press": -1, "trial_index": 195}, "uniqueid": "MTK3138:3WAKVUDHUXNYE1XCS4YX0HIZXMUU78", "dateTime": 1520107151870}, {"current_trial": 196, "trialdata": {"rt": -1, "trial_type": "single-stim", "stimulus": "<p id=\"stim\">+</p>", "internal_node_id": "0.0-142.0-0.0", "time_elapsed": 879413, "key_press": -1, "type": "FIXATION", "trial_index": 196}, "uniqueid": "MTK3138:3WAKVUDHUXNYE1XCS4YX0HIZXMUU78", "dateTime": 1520107153373}, {"current_trial": 197, "trialdata": {"rt": -1, "trial_type": "single-stim", "word": "fox", "stimulus": "<p id=\"stim\">FOX</p>", "conditions": [12, 800, "v", 12000], "internal_node_id": "0.0-143.0", "trial": 5, "time_elapsed": 880220, "serialpos": 0, "key_press": -1, "wordID": 597, "type": "PRES_VIS", "trial_index": 197}, "uniqueid": "MTK3138:3WAKVUDHUXNYE1XCS4YX0HIZXMUU78", "dateTime": 1520107154180}, {"current_trial": 198, "trialdata": {"rt": -1, "trial_type": "single-stim", "word": "apple", "stimulus": "<p id=\"stim\">APPLE</p>", "conditions": [12, 800, "v", 12000], "internal_node_id": "0.0-144.0", "trial": 5, "time_elapsed": 882123, "serialpos": 1, "key_press": -1, "wordID": 32, "type": "PRES_VIS", "trial_index": 198}, "uniqueid": "MTK3138:3WAKVUDHUXNYE1XCS4YX0HIZXMUU78", "dateTime": 1520107156083}, {"current_trial": 199, "trialdata": {"rt": -1, "trial_type": "single-stim", "word": "onion", "stimulus": "<p id=\"stim\">ONION</p>", "conditions": [12, 800, "v", 12000], "internal_node_id": "0.0-145.0", "trial": 5, "time_elapsed": 884016, "serialpos": 2, "key_press": -1, "wordID": 976, "type": "PRES_VIS", "trial_index": 199}, "uniqueid": "MTK3138:3WAKVUDHUXNYE1XCS4YX0HIZXMUU78", "dateTime": 1520107157976}, {"current_trial": 200, "trialdata": {"rt": -1, "trial_type": "single-stim", "word": "canal", "stimulus": "<p id=\"stim\">CANAL</p>", "conditions": [12, 800, "v", 12000], "internal_node_id": "0.0-146.0", "trial": 5, "time_elapsed": 885658, "serialpos": 3, "key_press": -1, "wordID": 225, "type": "PRES_VIS", "trial_index": 200}, "uniqueid": "MTK3138:3WAKVUDHUXNYE1XCS4YX0HIZXMUU78", "dateTime": 1520107159619}, {"current_trial": 201, "trialdata": {"rt": -1, "trial_type": "single-stim", "word": "sketch", "stimulus": "<p id=\"stim\">SKETCH</p>", "conditions": [12, 800, "v", 12000], "internal_node_id": "0.0-147.0", "trial": 5, "time_elapsed": 887527, "serialpos": 4, "key_press": -1, "wordID": 1314, "type": "PRES_VIS", "trial_index": 201}, "uniqueid": "MTK3138:3WAKVUDHUXNYE1XCS4YX0HIZXMUU78", "dateTime": 1520107161489}, {"current_trial": 202, "trialdata": {"rt": -1, "trial_type": "single-stim", "word": "body", "stimulus": "<p id=\"stim\">BODY</p>", "conditions": [12, 800, "v", 12000], "internal_node_id": "0.0-148.0", "trial": 5, "time_elapsed": 889494, "serialpos": 5, "key_press": -1, "wordID": 144, "type": "PRES_VIS", "trial_index": 202}, "uniqueid": "MTK3138:3WAKVUDHUXNYE1XCS4YX0HIZXMUU78", "dateTime": 1520107163455}, {"current_trial": 203, "trialdata": {"rt": -1, "trial_type": "single-stim", "word": "bureau", "stimulus": "<p id=\"stim\">BUREAU</p>", "conditions": [12, 800, "v", 12000], "internal_node_id": "0.0-149.0", "trial": 5, "time_elapsed": 891451, "serialpos": 6, "key_press": -1, "wordID": 198, "type": "PRES_VIS", "trial_index": 203}, "uniqueid": "MTK3138:3WAKVUDHUXNYE1XCS4YX0HIZXMUU78", "dateTime": 1520107165412}, {"current_trial": 204, "trialdata": {"rt": -1, "trial_type": "single-stim", "word": "mister", "stimulus": "<p id=\"stim\">MISTER</p>", "conditions": [12, 800, "v", 12000], "internal_node_id": "0.0-150.0", "trial": 5, "time_elapsed": 893291, "serialpos": 7, "key_press": -1, "wordID": 900, "type": "PRES_VIS", "trial_index": 204}, "uniqueid": "MTK3138:3WAKVUDHUXNYE1XCS4YX0HIZXMUU78", "dateTime": 1520107167251}, {"current_trial": 205, "trialdata": {"rt": -1, "trial_type": "single-stim", "word": "river", "stimulus": "<p id=\"stim\">RIVER</p>", "conditions": [12, 800, "v", 12000], "internal_node_id": "0.0-151.0", "trial": 5, "time_elapsed": 894922, "serialpos": 8, "key_press": -1, "wordID": 1193, "type": "PRES_VIS", "trial_index": 205}, "uniqueid": "MTK3138:3WAKVUDHUXNYE1XCS4YX0HIZXMUU78", "dateTime": 1520107168883}, {"current_trial": 206, "trialdata": {"rt": -1, "trial_type": "single-stim", "word": "uncle", "stimulus": "<p id=\"stim\">UNCLE</p>", "conditions": [12, 800, "v", 12000], "internal_node_id": "0.0-152.0", "trial": 5, "time_elapsed": 896797, "serialpos": 9, "key_press": -1, "wordID": 1535, "type": "PRES_VIS", "trial_index": 206}, "uniqueid": "MTK3138:3WAKVUDHUXNYE1XCS4YX0HIZXMUU78", "dateTime": 1520107170757}, {"current_trial": 207, "trialdata": {"rt": -1, "trial_type": "single-stim", "word": "husband", "stimulus": "<p id=\"stim\">HUSBAND</p>", "conditions": [12, 800, "v", 12000], "internal_node_id": "0.0-153.0", "trial": 5, "time_elapsed": 898648, "serialpos": 10, "key_press": -1, "wordID": 727, "type": "PRES_VIS", "trial_index": 207}, "uniqueid": "MTK3138:3WAKVUDHUXNYE1XCS4YX0HIZXMUU78", "dateTime": 1520107172608}, {"current_trial": 208, "trialdata": {"rt": -1, "trial_type": "single-stim", "word": "waitress", "stimulus": "<p id=\"stim\">WAITRESS</p>", "conditions": [12, 800, "v", 12000], "internal_node_id": "0.0-154.0", "trial": 5, "time_elapsed": 900535, "serialpos": 11, "key_press": -1, "wordID": 1580, "type": "PRES_VIS", "trial_index": 208}, "uniqueid": "MTK3138:3WAKVUDHUXNYE1XCS4YX0HIZXMUU78", "dateTime": 1520107174495}, {"current_trial": 209, "trialdata": {"rt": -1, "trial_type": "single-stim", "stimulus": "", "internal_node_id": "0.0-155.0-0.0", "time_elapsed": 902787, "key_press": -1, "type": "PRE_RECALL_DELAY", "trial_index": 209}, "uniqueid": "MTK3138:3WAKVUDHUXNYE1XCS4YX0HIZXMUU78", "dateTime": 1520107176747}, {"current_trial": 210, "trialdata": {"rt": -1000, "trial_type": "single-audio", "stimulus": "/static/audio/400Hz.wav", "internal_node_id": "0.0-156.0", "time_elapsed": 903289, "key_press": -1, "type": "PRE_RECALL_ALERT", "trial_index": 210}, "uniqueid": "MTK3138:3WAKVUDHUXNYE1XCS4YX0HIZXMUU78", "dateTime": 1520107177249}, {"current_trial": 211, "trialdata": {"rt": [1503, 3519, 4527, 8563, 12279], "recwords": ["fox", "uncle", "apple", "waitress", "onion"], "key_times": [872, 1093, 1271, 1503, 1932, 2157, 2344, 2506, 2635, 3519, 3763, 3899, 4054, 4178, 4310, 4527, 4703, 4826, 5034, 5171, 5423, 5945, 6449, 6677, 6931, 7074, 8563, 9323, 9509, 9749, 9941, 10061, 10384, 10496, 10643, 10798, 10950, 11289, 11516, 11701, 11822, 11962, 12279], "trial_type": "free-recall", "conditions": [12, 800, "v", 12000], "internal_node_id": "0.0-157.0-0.0", "key_presses": [70, 79, 88, 13, 85, 78, 67, 76, 69, 13, 65, 80, 80, 76, 69, 13, 87, 65, 73, 84, 78, 8, 82, 69, 83, 83, 13, 73, 79, 78, 73, 79, 8, 8, 8, 8, 8, 79, 78, 73, 79, 78, 13], "trial": 5, "time_elapsed": 963296, "type": "FREE_RECALL", "trial_index": 211}, "uniqueid": "MTK3138:3WAKVUDHUXNYE1XCS4YX0HIZXMUU78", "dateTime": 1520107237259}, {"current_trial": 212, "trialdata": {"rt": 2692, "trial_type": "text", "internal_node_id": "0.0-158.0", "time_elapsed": 967994, "key_press": 70, "type": "INSTRUCTIONS", "trial_index": 212}, "uniqueid": "MTK3138:3WAKVUDHUXNYE1XCS4YX0HIZXMUU78", "dateTime": 1520107241955}, {"current_trial": 213, "trialdata": {"rt": [2551, 4562, 8183, 13005, 15378, 17330, 20467, 22887], "trial_type": "math-distractor", "key_times": [2091, 2243, 2551, 4225, 4389, 4562, 7334, 7875, 8183, 12696, 12895, 13005, 15187, 15378, 17187, 17330, 20293, 20467, 22152, 22583, 22887], "responses": ["20", "19", "15", "14", "9", "8", "7", "20"], "num2": [6, 5, 5, 5, 1, 2, 2, 9, 5], "num3": [9, 5, 1, 2, 4, 2, 2, 9, 3], "conditions": [12, 1600, "v", 24000], "internal_node_id": "0.0-159.0", "key_presses": [50, 48, 13, 49, 57, 13, 49, 53, 13, 49, 52, 13, 57, 13, 56, 13, 55, 13, 50, 48, 13], "trial": 6, "time_elapsed": 994002, "type": "DISTRACTOR", "trial_index": 213, "num1": [5, 9, 9, 7, 4, 4, 3, 2, 3]}, "uniqueid": "MTK3138:3WAKVUDHUXNYE1XCS4YX0HIZXMUU78", "dateTime": 1520107267962}, {"current_trial": 214, "trialdata": {"rt": -1, "trial_type": "single-stim", "stimulus": "<p id=\"stim\">10</p>", "internal_node_id": "0.0-160.0-0.0", "time_elapsed": 997009, "key_press": -1, "trial_index": 214}, "uniqueid": "MTK3138:3WAKVUDHUXNYE1XCS4YX0HIZXMUU78", "dateTime": 1520107270969}, {"current_trial": 215, "trialdata": {"rt": -1, "trial_type": "single-stim", "stimulus": "<p id=\"stim\">9</p>", "internal_node_id": "0.0-160.0-1.0", "time_elapsed": 998014, "key_press": -1, "trial_index": 215}, "uniqueid": "MTK3138:3WAKVUDHUXNYE1XCS4YX0HIZXMUU78", "dateTime": 1520107271974}, {"current_trial": 216, "trialdata": {"rt": -1, "trial_type": "single-stim", "stimulus": "<p id=\"stim\">8</p>", "internal_node_id": "0.0-160.0-2.0", "time_elapsed": 999017, "key_press": -1, "trial_index": 216}, "uniqueid": "MTK3138:3WAKVUDHUXNYE1XCS4YX0HIZXMUU78", "dateTime": 1520107272977}, {"current_trial": 217, "trialdata": {"rt": -1, "trial_type": "single-stim", "stimulus": "<p id=\"stim\">7</p>", "internal_node_id": "0.0-160.0-3.0", "time_elapsed": 1000022, "key_press": -1, "trial_index": 217}, "uniqueid": "MTK3138:3WAKVUDHUXNYE1XCS4YX0HIZXMUU78", "dateTime": 1520107273982}, {"current_trial": 218, "trialdata": {"rt": -1, "trial_type": "single-stim", "stimulus": "<p id=\"stim\">6</p>", "internal_node_id": "0.0-160.0-4.0", "time_elapsed": 1001026, "key_press": -1, "trial_index": 218}, "uniqueid": "MTK3138:3WAKVUDHUXNYE1XCS4YX0HIZXMUU78", "dateTime": 1520107274986}, {"current_trial": 219, "trialdata": {"rt": -1, "trial_type": "single-stim", "stimulus": "<p id=\"stim\">5</p>", "internal_node_id": "0.0-160.0-5.0", "time_elapsed": 1002030, "key_press": -1, "trial_index": 219}, "uniqueid": "MTK3138:3WAKVUDHUXNYE1XCS4YX0HIZXMUU78", "dateTime": 1520107275991}, {"current_trial": 220, "trialdata": {"rt": -1, "trial_type": "single-stim", "stimulus": "<p id=\"stim\">4</p>", "internal_node_id": "0.0-160.0-6.0", "time_elapsed": 1003034, "key_press": -1, "trial_index": 220}, "uniqueid": "MTK3138:3WAKVUDHUXNYE1XCS4YX0HIZXMUU78", "dateTime": 1520107276995}, {"current_trial": 221, "trialdata": {"rt": -1, "trial_type": "single-stim", "stimulus": "<p id=\"stim\">3</p>", "internal_node_id": "0.0-160.0-7.0", "time_elapsed": 1004038, "key_press": -1, "trial_index": 221}, "uniqueid": "MTK3138:3WAKVUDHUXNYE1XCS4YX0HIZXMUU78", "dateTime": 1520107277998}, {"current_trial": 222, "trialdata": {"rt": -1, "trial_type": "single-stim", "stimulus": "<p id=\"stim\">2</p>", "internal_node_id": "0.0-160.0-8.0", "time_elapsed": 1005042, "key_press": -1, "trial_index": 222}, "uniqueid": "MTK3138:3WAKVUDHUXNYE1XCS4YX0HIZXMUU78", "dateTime": 1520107279002}, {"current_trial": 223, "trialdata": {"rt": -1, "trial_type": "single-stim", "stimulus": "<p id=\"stim\">1</p>", "internal_node_id": "0.0-160.0-9.0", "time_elapsed": 1006046, "key_press": -1, "trial_index": 223}, "uniqueid": "MTK3138:3WAKVUDHUXNYE1XCS4YX0HIZXMUU78", "dateTime": 1520107280006}, {"current_trial": 224, "trialdata": {"rt": -1, "trial_type": "single-stim", "stimulus": "<p id=\"stim\">+</p>", "internal_node_id": "0.0-161.0-0.0", "time_elapsed": 1007549, "key_press": -1, "type": "FIXATION", "trial_index": 224}, "uniqueid": "MTK3138:3WAKVUDHUXNYE1XCS4YX0HIZXMUU78", "dateTime": 1520107281509}, {"current_trial": 225, "trialdata": {"rt": -1, "trial_type": "single-stim", "word": "belly", "stimulus": "<p id=\"stim\">BELLY</p>", "conditions": [12, 1600, "v", 24000], "internal_node_id": "0.0-162.0", "trial": 6, "time_elapsed": 1009150, "serialpos": 0, "key_press": -1, "wordID": 118, "type": "PRES_VIS", "trial_index": 225}, "uniqueid": "MTK3138:3WAKVUDHUXNYE1XCS4YX0HIZXMUU78", "dateTime": 1520107283111}, {"current_trial": 226, "trialdata": {"rt": -1, "trial_type": "single-stim", "word": "bacon", "stimulus": "<p id=\"stim\">BACON</p>", "conditions": [12, 1600, "v", 24000], "internal_node_id": "0.0-163.0", "trial": 6, "time_elapsed": 1011763, "serialpos": 1, "key_press": -1, "wordID": 66, "type": "PRES_VIS", "trial_index": 226}, "uniqueid": "MTK3138:3WAKVUDHUXNYE1XCS4YX0HIZXMUU78", "dateTime": 1520107285723}, {"current_trial": 227, "trialdata": {"rt": -1, "trial_type": "single-stim", "word": "curtain", "stimulus": "<p id=\"stim\">CURTAIN</p>", "conditions": [12, 1600, "v", 24000], "internal_node_id": "0.0-164.0", "trial": 6, "time_elapsed": 1014462, "serialpos": 2, "key_press": -1, "wordID": 426, "type": "PRES_VIS", "trial_index": 227}, "uniqueid": "MTK3138:3WAKVUDHUXNYE1XCS4YX0HIZXMUU78", "dateTime": 1520107288422}, {"current_trial": 228, "trialdata": {"rt": -1, "trial_type": "single-stim", "word": "coin", "stimulus": "<p id=\"stim\">COIN</p>", "conditions": [12, 1600, "v", 24000], "internal_node_id": "0.0-165.0", "trial": 6, "time_elapsed": 1016900, "serialpos": 3, "key_press": -1, "wordID": 342, "type": "PRES_VIS", "trial_index": 228}, "uniqueid": "MTK3138:3WAKVUDHUXNYE1XCS4YX0HIZXMUU78", "dateTime": 1520107290860}, {"current_trial": 229, "trialdata": {"rt": -1, "trial_type": "single-stim", "word": "valve", "stimulus": "<p id=\"stim\">VALVE</p>", "conditions": [12, 1600, "v", 24000], "internal_node_id": "0.0-166.0", "trial": 6, "time_elapsed": 1019663, "serialpos": 4, "key_press": -1, "wordID": 1545, "type": "PRES_VIS", "trial_index": 229}, "uniqueid": "MTK3138:3WAKVUDHUXNYE1XCS4YX0HIZXMUU78", "dateTime": 1520107293623}, {"current_trial": 230, "trialdata": {"rt": -1, "trial_type": "single-stim", "word": "shorts", "stimulus": "<p id=\"stim\">SHORTS</p>", "conditions": [12, 1600, "v", 24000], "internal_node_id": "0.0-167.0", "trial": 6, "time_elapsed": 1022181, "serialpos": 5, "key_press": -1, "wordID": 1292, "type": "PRES_VIS", "trial_index": 230}, "uniqueid": "MTK3138:3WAKVUDHUXNYE1XCS4YX0HIZXMUU78", "dateTime": 1520107296141}, {"current_trial": 231, "trialdata": {"rt": -1, "trial_type": "single-stim", "word": "mailman", "stimulus": "<p id=\"stim\">MAILMAN</p>", "conditions": [12, 1600, "v", 24000], "internal_node_id": "0.0-168.0", "trial": 6, "time_elapsed": 1024735, "serialpos": 6, "key_press": -1, "wordID": 857, "type": "PRES_VIS", "trial_index": 231}, "uniqueid": "MTK3138:3WAKVUDHUXNYE1XCS4YX0HIZXMUU78", "dateTime": 1520107298695}, {"current_trial": 232, "trialdata": {"rt": -1, "trial_type": "single-stim", "word": "mailbox", "stimulus": "<p id=\"stim\">MAILBOX</p>", "conditions": [12, 1600, "v", 24000], "internal_node_id": "0.0-169.0", "trial": 6, "time_elapsed": 1027365, "serialpos": 7, "key_press": -1, "wordID": 856, "type": "PRES_VIS", "trial_index": 232}, "uniqueid": "MTK3138:3WAKVUDHUXNYE1XCS4YX0HIZXMUU78", "dateTime": 1520107301325}, {"current_trial": 233, "trialdata": {"rt": -1, "trial_type": "single-stim", "word": "maple", "stimulus": "<p id=\"stim\">MAPLE</p>", "conditions": [12, 1600, "v", 24000], "internal_node_id": "0.0-170.0", "trial": 6, "time_elapsed": 1029960, "serialpos": 8, "key_press": -1, "wordID": 865, "type": "PRES_VIS", "trial_index": 233}, "uniqueid": "MTK3138:3WAKVUDHUXNYE1XCS4YX0HIZXMUU78", "dateTime": 1520107303920}, {"current_trial": 234, "trialdata": {"rt": -1, "trial_type": "single-stim", "word": "bouquet", "stimulus": "<p id=\"stim\">BOUQUET</p>", "conditions": [12, 1600, "v", 24000], "internal_node_id": "0.0-171.0", "trial": 6, "time_elapsed": 1032687, "serialpos": 9, "key_press": -1, "wordID": 156, "type": "PRES_VIS", "trial_index": 234}, "uniqueid": "MTK3138:3WAKVUDHUXNYE1XCS4YX0HIZXMUU78", "dateTime": 1520107306647}, {"current_trial": 235, "trialdata": {"rt": -1, "trial_type": "single-stim", "word": "omelet", "stimulus": "<p id=\"stim\">OMELET</p>", "conditions": [12, 1600, "v", 24000], "internal_node_id": "0.0-172.0", "trial": 6, "time_elapsed": 1035195, "serialpos": 10, "key_press": -1, "wordID": 975, "type": "PRES_VIS", "trial_index": 235}, "uniqueid": "MTK3138:3WAKVUDHUXNYE1XCS4YX0HIZXMUU78", "dateTime": 1520107309155}, {"current_trial": 236, "trialdata": {"rt": -1, "trial_type": "single-stim", "word": "cashier", "stimulus": "<p id=\"stim\">CASHIER</p>", "conditions": [12, 1600, "v", 24000], "internal_node_id": "0.0-173.0", "trial": 6, "time_elapsed": 1037626, "serialpos": 11, "key_press": -1, "wordID": 253, "type": "PRES_VIS", "trial_index": 236}, "uniqueid": "MTK3138:3WAKVUDHUXNYE1XCS4YX0HIZXMUU78", "dateTime": 1520107311587}, {"current_trial": 237, "trialdata": {"rt": -1, "trial_type": "single-stim", "stimulus": "", "internal_node_id": "0.0-174.0-0.0", "time_elapsed": 1039762, "key_press": -1, "type": "PRE_RECALL_DELAY", "trial_index": 237}, "uniqueid": "MTK3138:3WAKVUDHUXNYE1XCS4YX0HIZXMUU78", "dateTime": 1520107313722}, {"current_trial": 238, "trialdata": {"rt": -1000, "trial_type": "single-audio", "stimulus": "/static/audio/400Hz.wav", "internal_node_id": "0.0-175.0", "time_elapsed": 1040264, "key_press": -1, "type": "PRE_RECALL_ALERT", "trial_index": 238}, "uniqueid": "MTK3138:3WAKVUDHUXNYE1XCS4YX0HIZXMUU78", "dateTime": 1520107314224}, {"current_trial": 239, "trialdata": {"rt": [1635, 2927, 4386, 5512, 14655, 21753, 30490, 36497], "recwords": ["belly", "bacon", "mailbox", "maple", "curtain", "coin", "mailman", "mailbox"], "key_times": [567, 776, 955, 1083, 1204, 1635, 1837, 1953, 2242, 2417, 2617, 2927, 3196, 3332, 3474, 3566, 3806, 3966, 4134, 4386, 4639, 4742, 5044, 5136, 5312, 5512, 13167, 13366, 13493, 13714, 13948, 14076, 14282, 14655, 20748, 20994, 21067, 21257, 21753, 28118, 28562, 28716, 28808, 29333, 29401, 29639, 30490, 35312, 35427, 35578, 35627, 35902, 36039, 36209, 36497], "trial_type": "free-recall", "conditions": [12, 1600, "v", 24000], "internal_node_id": "0.0-176.0-0.0", "key_presses": [66, 69, 76, 76, 89, 13, 66, 65, 67, 79, 78, 13, 77, 65, 73, 76, 66, 79, 88, 13, 77, 65, 80, 76, 69, 13, 67, 85, 82, 84, 65, 73, 78, 13, 67, 79, 73, 78, 13, 77, 65, 73, 76, 77, 65, 78, 13, 77, 65, 73, 76, 66, 79, 88, 13], "trial": 6, "time_elapsed": 1100267, "type": "FREE_RECALL", "trial_index": 239}, "uniqueid": "MTK3138:3WAKVUDHUXNYE1XCS4YX0HIZXMUU78", "dateTime": 1520107374231}, {"current_trial": 240, "trialdata": {"rt": 1625, "trial_type": "text", "internal_node_id": "0.0-177.0", "time_elapsed": 1103898, "key_press": 74, "type": "INSTRUCTIONS", "trial_index": 240}, "uniqueid": "MTK3138:3WAKVUDHUXNYE1XCS4YX0HIZXMUU78", "dateTime": 1520107377858}, {"current_trial": 241, "trialdata": {"rt": [2595, 4073, 7011, 9090], "trial_type": "math-distractor", "key_times": [2088, 2271, 2595, 3704, 3887, 4073, 6472, 6869, 7011, 8760, 8959, 9090], "responses": ["18", "12", "17", "15"], "num2": [8, 3, 6, 4, 2], "num3": [8, 2, 3, 8, 7], "conditions": [12, 1600, "v", 12000], "internal_node_id": "0.0-178.0", "key_presses": [49, 56, 13, 49, 50, 13, 49, 55, 13, 49, 53, 13], "trial": 7, "time_elapsed": 1117904, "type": "DISTRACTOR", "trial_index": 241, "num1": [2, 7, 8, 3, 3]}, "uniqueid": "MTK3138:3WAKVUDHUXNYE1XCS4YX0HIZXMUU78", "dateTime": 1520107391864}, {"current_trial": 242, "trialdata": {"rt": -1, "trial_type": "single-stim", "stimulus": "<p id=\"stim\">10</p>", "internal_node_id": "0.0-179.0-0.0", "time_elapsed": 1120911, "key_press": -1, "trial_index": 242}, "uniqueid": "MTK3138:3WAKVUDHUXNYE1XCS4YX0HIZXMUU78", "dateTime": 1520107394871}, {"current_trial": 243, "trialdata": {"rt": -1, "trial_type": "single-stim", "stimulus": "<p id=\"stim\">9</p>", "internal_node_id": "0.0-179.0-1.0", "time_elapsed": 1121913, "key_press": -1, "trial_index": 243}, "uniqueid": "MTK3138:3WAKVUDHUXNYE1XCS4YX0HIZXMUU78", "dateTime": 1520107395873}, {"current_trial": 244, "trialdata": {"rt": -1, "trial_type": "single-stim", "stimulus": "<p id=\"stim\">8</p>", "internal_node_id": "0.0-179.0-2.0", "time_elapsed": 1122918, "key_press": -1, "trial_index": 244}, "uniqueid": "MTK3138:3WAKVUDHUXNYE1XCS4YX0HIZXMUU78", "dateTime": 1520107396878}, {"current_trial": 245, "trialdata": {"rt": -1, "trial_type": "single-stim", "stimulus": "<p id=\"stim\">7</p>", "internal_node_id": "0.0-179.0-3.0", "time_elapsed": 1123922, "key_press": -1, "trial_index": 245}, "uniqueid": "MTK3138:3WAKVUDHUXNYE1XCS4YX0HIZXMUU78", "dateTime": 1520107397883}, {"current_trial": 246, "trialdata": {"rt": -1, "trial_type": "single-stim", "stimulus": "<p id=\"stim\">6</p>", "internal_node_id": "0.0-179.0-4.0", "time_elapsed": 1124926, "key_press": -1, "trial_index": 246}, "uniqueid": "MTK3138:3WAKVUDHUXNYE1XCS4YX0HIZXMUU78", "dateTime": 1520107398887}, {"current_trial": 247, "trialdata": {"rt": -1, "trial_type": "single-stim", "stimulus": "<p id=\"stim\">5</p>", "internal_node_id": "0.0-179.0-5.0", "time_elapsed": 1125931, "key_press": -1, "trial_index": 247}, "uniqueid": "MTK3138:3WAKVUDHUXNYE1XCS4YX0HIZXMUU78", "dateTime": 1520107399892}, {"current_trial": 248, "trialdata": {"rt": -1, "trial_type": "single-stim", "stimulus": "<p id=\"stim\">4</p>", "internal_node_id": "0.0-179.0-6.0", "time_elapsed": 1126935, "key_press": -1, "trial_index": 248}, "uniqueid": "MTK3138:3WAKVUDHUXNYE1XCS4YX0HIZXMUU78", "dateTime": 1520107400895}, {"current_trial": 249, "trialdata": {"rt": -1, "trial_type": "single-stim", "stimulus": "<p id=\"stim\">3</p>", "internal_node_id": "0.0-179.0-7.0", "time_elapsed": 1127939, "key_press": -1, "trial_index": 249}, "uniqueid": "MTK3138:3WAKVUDHUXNYE1XCS4YX0HIZXMUU78", "dateTime": 1520107401900}, {"current_trial": 250, "trialdata": {"rt": -1, "trial_type": "single-stim", "stimulus": "<p id=\"stim\">2</p>", "internal_node_id": "0.0-179.0-8.0", "time_elapsed": 1128944, "key_press": -1, "trial_index": 250}, "uniqueid": "MTK3138:3WAKVUDHUXNYE1XCS4YX0HIZXMUU78", "dateTime": 1520107402904}, {"current_trial": 251, "trialdata": {"rt": -1, "trial_type": "single-stim", "stimulus": "<p id=\"stim\">1</p>", "internal_node_id": "0.0-179.0-9.0", "time_elapsed": 1129947, "key_press": -1, "trial_index": 251}, "uniqueid": "MTK3138:3WAKVUDHUXNYE1XCS4YX0HIZXMUU78", "dateTime": 1520107403907}, {"current_trial": 252, "trialdata": {"rt": -1, "trial_type": "single-stim", "stimulus": "<p id=\"stim\">+</p>", "internal_node_id": "0.0-180.0-0.0", "time_elapsed": 1131450, "key_press": -1, "type": "FIXATION", "trial_index": 252}, "uniqueid": "MTK3138:3WAKVUDHUXNYE1XCS4YX0HIZXMUU78", "dateTime": 1520107405411}, {"current_trial": 253, "trialdata": {"rt": -1, "trial_type": "single-stim", "word": "zipper", "stimulus": "<p id=\"stim\">ZIPPER</p>", "conditions": [12, 1600, "v", 12000], "internal_node_id": "0.0-181.0", "trial": 7, "time_elapsed": 1133052, "serialpos": 0, "key_press": -1, "wordID": 1635, "type": "PRES_VIS", "trial_index": 253}, "uniqueid": "MTK3138:3WAKVUDHUXNYE1XCS4YX0HIZXMUU78", "dateTime": 1520107407012}, {"current_trial": 254, "trialdata": {"rt": -1, "trial_type": "single-stim", "word": "portrait", "stimulus": "<p id=\"stim\">PORTRAIT</p>", "conditions": [12, 1600, "v", 12000], "internal_node_id": "0.0-182.0", "trial": 7, "time_elapsed": 1135537, "serialpos": 1, "key_press": -1, "wordID": 1110, "type": "PRES_VIS", "trial_index": 254}, "uniqueid": "MTK3138:3WAKVUDHUXNYE1XCS4YX0HIZXMUU78", "dateTime": 1520107409497}, {"current_trial": 255, "trialdata": {"rt": -1, "trial_type": "single-stim", "word": "diver", "stimulus": "<p id=\"stim\">DIVER</p>", "conditions": [12, 1600, "v", 12000], "internal_node_id": "0.0-183.0", "trial": 7, "time_elapsed": 1138206, "serialpos": 2, "key_press": -1, "wordID": 475, "type": "PRES_VIS", "trial_index": 255}, "uniqueid": "MTK3138:3WAKVUDHUXNYE1XCS4YX0HIZXMUU78", "dateTime": 1520107412167}, {"current_trial": 256, "trialdata": {"rt": -1, "trial_type": "single-stim", "word": "flesh", "stimulus": "<p id=\"stim\">FLESH</p>", "conditions": [12, 1600, "v", 12000], "internal_node_id": "0.0-184.0", "trial": 7, "time_elapsed": 1140830, "serialpos": 3, "key_press": -1, "wordID": 578, "type": "PRES_VIS", "trial_index": 256}, "uniqueid": "MTK3138:3WAKVUDHUXNYE1XCS4YX0HIZXMUU78", "dateTime": 1520107414790}, {"current_trial": 257, "trialdata": {"rt": -1, "trial_type": "single-stim", "word": "poison", "stimulus": "<p id=\"stim\">POISON</p>", "conditions": [12, 1600, "v", 12000], "internal_node_id": "0.0-185.0", "trial": 7, "time_elapsed": 1143442, "serialpos": 4, "key_press": -1, "wordID": 1095, "type": "PRES_VIS", "trial_index": 257}, "uniqueid": "MTK3138:3WAKVUDHUXNYE1XCS4YX0HIZXMUU78", "dateTime": 1520107417403}, {"current_trial": 258, "trialdata": {"rt": -1, "trial_type": "single-stim", "word": "fragrance", "stimulus": "<p id=\"stim\">FRAGRANCE</p>", "conditions": [12, 1600, "v", 12000], "internal_node_id": "0.0-186.0", "trial": 7, "time_elapsed": 1146059, "serialpos": 5, "key_press": -1, "wordID": 598, "type": "PRES_VIS", "trial_index": 258}, "uniqueid": "MTK3138:3WAKVUDHUXNYE1XCS4YX0HIZXMUU78", "dateTime": 1520107420020}, {"current_trial": 259, "trialdata": {"rt": -1, "trial_type": "single-stim", "word": "coffee", "stimulus": "<p id=\"stim\">COFFEE</p>", "conditions": [12, 1600, "v", 12000], "internal_node_id": "0.0-187.0", "trial": 7, "time_elapsed": 1148712, "serialpos": 6, "key_press": -1, "wordID": 340, "type": "PRES_VIS", "trial_index": 259}, "uniqueid": "MTK3138:3WAKVUDHUXNYE1XCS4YX0HIZXMUU78", "dateTime": 1520107422673}, {"current_trial": 260, "trialdata": {"rt": -1, "trial_type": "single-s