{"assignmentId": "32KTQ2V7REMJFCGWYZ5VN3SBGHR9M2", "workerId": "MTK3671", "questiondata": {"origin": "United States", "strat-rehearsal": "90", "marital": "Single", "education": "High school diploma", "ethnicity": "Not Hispanic", "color_depth": 24, "distracted": "No", "wrote-notes": "No", "strat-other": "spoke the words aloud as i was seeing them on screen. ", "screen_width": 1440, "avail_screen_width": 1440, "avail_screen_height": 877, "strat-image": "80", "language": "English", "gender": "Female", "age": "23", "gender_other": "", "race": ["White"], "strat-categorize": "40", "pixel_depth": 24, "strat-spatial": "5", "strat-story": "5", "race_other": "", "screen_height": 900}, "bonus": 0, "hitId": "3PCPFX4U40XHEH773C72PO2781IFQW", "counterbalance": 1500, "useragent": "Mozilla/5.0 (Macintosh; Intel Mac OS X 10_13_3) AppleWebKit/537.36 (KHTML, like Gecko) Chrome/64.0.3282.186 Safari/537.36", "eventdata": [{"eventtype": "initialized", "interval": 0, "value": null, "timestamp": 1520893288015}, {"eventtype": "window_resize", "interval": 0, "value": [1440, 826], "timestamp": 1520893288015}, {"eventtype": "focus", "interval": 3018768, "value": "off", "timestamp": 1520896306783}, {"eventtype": "focus", "interval": 51611, "value": "on", "timestamp": 1520896358394}], "data": [{"current_trial": 0, "trialdata": {"rt": 1704, "trial_type": "text", "internal_node_id": "0.0-0.0", "time_elapsed": 1708, "key_press": 32, "type": "INSTRUCTIONS", "trial_index": 0}, "uniqueid": "MTK3671:32KTQ2V7REMJFCGWYZ5VN3SBGHR9M2", "dateTime": 1520893290991}, {"current_trial": 1, "trialdata": {"rt": 27507, "trial_type": "text", "internal_node_id": "0.0-1.0", "time_elapsed": 29217, "key_press": 32, "type": "INSTRUCTIONS", "trial_index": 1}, "uniqueid": "MTK3671:32KTQ2V7REMJFCGWYZ5VN3SBGHR9M2", "dateTime": 1520893318499}, {"current_trial": 2, "trialdata": {"rt": [4693], "trial_type": "audio-test", "responses": ["ocean"], "internal_node_id": "0.0-2.0", "time_elapsed": 33930, "type": "AUDIO_TEST", "trial_index": 2}, "uniqueid": "MTK3671:32KTQ2V7REMJFCGWYZ5VN3SBGHR9M2", "dateTime": 1520893323212}, {"current_trial": 3, "trialdata": {"rt": [5306], "trial_type": "audio-test", "responses": ["crystal"], "internal_node_id": "0.0-3.0", "time_elapsed": 39243, "type": "AUDIO_TEST", "trial_index": 3}, "uniqueid": "MTK3671:32KTQ2V7REMJFCGWYZ5VN3SBGHR9M2", "dateTime": 1520893328525}, {"current_trial": 4, "trialdata": {"rt": [5720], "trial_type": "audio-test", "responses": ["spice"], "internal_node_id": "0.0-4.0", "time_elapsed": 44969, "type": "AUDIO_TEST", "trial_index": 4}, "uniqueid": "MTK3671:32KTQ2V7REMJFCGWYZ5VN3SBGHR9M2", "dateTime": 1520893334251}, {"current_trial": 5, "trialdata": {"rt": 26560, "trial_type": "survey-text", "responses": "{\"Q0\":\"10pm\",\"Q1\":\"730\",\"Q2\":\"5\"}", "internal_node_id": "0.0-5.0", "time_elapsed": 72284, "type": "SLEEP_SURVEY", "trial_index": 5}, "uniqueid": "MTK3671:32KTQ2V7REMJFCGWYZ5VN3SBGHR9M2", "dateTime": 1520893361567}, {"current_trial": 6, "trialdata": {"rt": 34885, "trial_type": "text", "internal_node_id": "0.0-6.0", "time_elapsed": 108175, "key_press": 32, "type": "INSTRUCTIONS", "trial_index": 6}, "uniqueid": "MTK3671:32KTQ2V7REMJFCGWYZ5VN3SBGHR9M2", "dateTime": 1520893397457}, {"current_trial": 7, "trialdata": {"rt": 28891, "trial_type": "text", "internal_node_id": "0.0-7.0", "time_elapsed": 137568, "key_press": 32, "type": "INSTRUCTIONS", "trial_index": 7}, "uniqueid": "MTK3671:32KTQ2V7REMJFCGWYZ5VN3SBGHR9M2", "dateTime": 1520893426850}, {"current_trial": 8, "trialdata": {"rt": 8533, "trial_type": "text", "internal_node_id": "0.0-8.0", "time_elapsed": 146606, "key_press": 32, "type": "INSTRUCTIONS", "trial_index": 8}, "uniqueid": "MTK3671:32KTQ2V7REMJFCGWYZ5VN3SBGHR9M2", "dateTime": 1520893435888}, {"current_trial": 9, "trialdata": {"rt": [4312, 7903, 10680, 16520], "trial_type": "math-distractor", "key_times": [3465, 3832, 4312, 6888, 7392, 7903, 9728, 10304, 10680, 14211, 14552, 15616, 15831, 16520], "responses": ["13", "15", "16", "19"], "num2": [1, 9, 7, 9, 5], "num3": [5, 4, 6, 3, 5], "conditions": [18, 1200, "v", 18000], "internal_node_id": "0.0-9.0", "key_presses": [49, 51, 13, 49, 53, 13, 49, 54, 13, 49, 56, 8, 57, 13], "trial": 0, "time_elapsed": 165619, "type": "DISTRACTOR", "trial_index": 9, "num1": [7, 2, 3, 7, 5]}, "uniqueid": "MTK3671:32KTQ2V7REMJFCGWYZ5VN3SBGHR9M2", "dateTime": 1520893454902}, {"current_trial": 10, "trialdata": {"rt": -1, "trial_type": "single-stim", "stimulus": "<p id=\"stim\">10</p>", "internal_node_id": "0.0-10.0-0.0", "time_elapsed": 168625, "key_press": -1, "trial_index": 10}, "uniqueid": "MTK3671:32KTQ2V7REMJFCGWYZ5VN3SBGHR9M2", "dateTime": 1520893457907}, {"current_trial": 11, "trialdata": {"rt": -1, "trial_type": "single-stim", "stimulus": "<p id=\"stim\">9</p>", "internal_node_id": "0.0-10.0-1.0", "time_elapsed": 169630, "key_press": -1, "trial_index": 11}, "uniqueid": "MTK3671:32KTQ2V7REMJFCGWYZ5VN3SBGHR9M2", "dateTime": 1520893458912}, {"current_trial": 12, "trialdata": {"rt": -1, "trial_type": "single-stim", "stimulus": "<p id=\"stim\">8</p>", "internal_node_id": "0.0-10.0-2.0", "time_elapsed": 170633, "key_press": -1, "trial_index": 12}, "uniqueid": "MTK3671:32KTQ2V7REMJFCGWYZ5VN3SBGHR9M2", "dateTime": 1520893459915}, {"current_trial": 13, "trialdata": {"rt": -1, "trial_type": "single-stim", "stimulus": "<p id=\"stim\">7</p>", "internal_node_id": "0.0-10.0-3.0", "time_elapsed": 171637, "key_press": -1, "trial_index": 13}, "uniqueid": "MTK3671:32KTQ2V7REMJFCGWYZ5VN3SBGHR9M2", "dateTime": 1520893460919}, {"current_trial": 14, "trialdata": {"rt": -1, "trial_type": "single-stim", "stimulus": "<p id=\"stim\">6</p>", "internal_node_id": "0.0-10.0-4.0", "time_elapsed": 172641, "key_press": -1, "trial_index": 14}, "uniqueid": "MTK3671:32KTQ2V7REMJFCGWYZ5VN3SBGHR9M2", "dateTime": 1520893461923}, {"current_trial": 15, "trialdata": {"rt": -1, "trial_type": "single-stim", "stimulus": "<p id=\"stim\">5</p>", "internal_node_id": "0.0-10.0-5.0", "time_elapsed": 173646, "key_press": -1, "trial_index": 15}, "uniqueid": "MTK3671:32KTQ2V7REMJFCGWYZ5VN3SBGHR9M2", "dateTime": 1520893462928}, {"current_trial": 16, "trialdata": {"rt": -1, "trial_type": "single-stim", "stimulus": "<p id=\"stim\">4</p>", "internal_node_id": "0.0-10.0-6.0", "time_elapsed": 174650, "key_press": -1, "trial_index": 16}, "uniqueid": "MTK3671:32KTQ2V7REMJFCGWYZ5VN3SBGHR9M2", "dateTime": 1520893463932}, {"current_trial": 17, "trialdata": {"rt": -1, "trial_type": "single-stim", "stimulus": "<p id=\"stim\">3</p>", "internal_node_id": "0.0-10.0-7.0", "time_elapsed": 175655, "key_press": -1, "trial_index": 17}, "uniqueid": "MTK3671:32KTQ2V7REMJFCGWYZ5VN3SBGHR9M2", "dateTime": 1520893464937}, {"current_trial": 18, "trialdata": {"rt": -1, "trial_type": "single-stim", "stimulus": "<p id=\"stim\">2</p>", "internal_node_id": "0.0-10.0-8.0", "time_elapsed": 176658, "key_press": -1, "trial_index": 18}, "uniqueid": "MTK3671:32KTQ2V7REMJFCGWYZ5VN3SBGHR9M2", "dateTime": 1520893465940}, {"current_trial": 19, "trialdata": {"rt": -1, "trial_type": "single-stim", "stimulus": "<p id=\"stim\">1</p>", "internal_node_id": "0.0-10.0-9.0", "time_elapsed": 177662, "key_press": -1, "trial_index": 19}, "uniqueid": "MTK3671:32KTQ2V7REMJFCGWYZ5VN3SBGHR9M2", "dateTime": 1520893466944}, {"current_trial": 20, "trialdata": {"rt": -1, "trial_type": "single-stim", "stimulus": "<p id=\"stim\">+</p>", "internal_node_id": "0.0-11.0-0.0", "time_elapsed": 179165, "key_press": -1, "type": "FIXATION", "trial_index": 20}, "uniqueid": "MTK3671:32KTQ2V7REMJFCGWYZ5VN3SBGHR9M2", "dateTime": 1520893468447}, {"current_trial": 21, "trialdata": {"rt": -1, "trial_type": "single-stim", "word": "machine", "stimulus": "<p id=\"stim\">MACHINE</p>", "conditions": [18, 1200, "v", 18000], "internal_node_id": "0.0-12.0", "trial": 0, "time_elapsed": 180372, "serialpos": 0, "key_press": -1, "wordID": 851, "type": "PRES_VIS", "trial_index": 21}, "uniqueid": "MTK3671:32KTQ2V7REMJFCGWYZ5VN3SBGHR9M2", "dateTime": 1520893469654}, {"current_trial": 22, "trialdata": {"rt": -1, "trial_type": "single-stim", "word": "sandwich", "stimulus": "<p id=\"stim\">SANDWICH</p>", "conditions": [18, 1200, "v", 18000], "internal_node_id": "0.0-13.0", "trial": 0, "time_elapsed": 182572, "serialpos": 1, "key_press": -1, "wordID": 1231, "type": "PRES_VIS", "trial_index": 22}, "uniqueid": "MTK3671:32KTQ2V7REMJFCGWYZ5VN3SBGHR9M2", "dateTime": 1520893471854}, {"current_trial": 23, "trialdata": {"rt": -1, "trial_type": "single-stim", "word": "pastry", "stimulus": "<p id=\"stim\">PASTRY</p>", "conditions": [18, 1200, "v", 18000], "internal_node_id": "0.0-14.0", "trial": 0, "time_elapsed": 184644, "serialpos": 2, "key_press": -1, "wordID": 1021, "type": "PRES_VIS", "trial_index": 23}, "uniqueid": "MTK3671:32KTQ2V7REMJFCGWYZ5VN3SBGHR9M2", "dateTime": 1520893473926}, {"current_trial": 24, "trialdata": {"rt": -1, "trial_type": "single-stim", "word": "novel", "stimulus": "<p id=\"stim\">NOVEL</p>", "conditions": [18, 1200, "v", 18000], "internal_node_id": "0.0-15.0", "trial": 0, "time_elapsed": 186791, "serialpos": 3, "key_press": -1, "wordID": 959, "type": "PRES_VIS", "trial_index": 24}, "uniqueid": "MTK3671:32KTQ2V7REMJFCGWYZ5VN3SBGHR9M2", "dateTime": 1520893476073}, {"current_trial": 25, "trialdata": {"rt": -1, "trial_type": "single-stim", "word": "fireman", "stimulus": "<p id=\"stim\">FIREMAN</p>", "conditions": [18, 1200, "v", 18000], "internal_node_id": "0.0-16.0", "trial": 0, "time_elapsed": 189066, "serialpos": 4, "key_press": -1, "wordID": 568, "type": "PRES_VIS", "trial_index": 25}, "uniqueid": "MTK3671:32KTQ2V7REMJFCGWYZ5VN3SBGHR9M2", "dateTime": 1520893478349}, {"current_trial": 26, "trialdata": {"rt": -1, "trial_type": "single-stim", "word": "sunrise", "stimulus": "<p id=\"stim\">SUNRISE</p>", "conditions": [18, 1200, "v", 18000], "internal_node_id": "0.0-17.0", "trial": 0, "time_elapsed": 191347, "serialpos": 5, "key_press": -1, "wordID": 1406, "type": "PRES_VIS", "trial_index": 26}, "uniqueid": "MTK3671:32KTQ2V7REMJFCGWYZ5VN3SBGHR9M2", "dateTime": 1520893480630}, {"current_trial": 27, "trialdata": {"rt": -1, "trial_type": "single-stim", "word": "whistle", "stimulus": "<p id=\"stim\">WHISTLE</p>", "conditions": [18, 1200, "v", 18000], "internal_node_id": "0.0-18.0", "trial": 0, "time_elapsed": 193396, "serialpos": 6, "key_press": -1, "wordID": 1605, "type": "PRES_VIS", "trial_index": 27}, "uniqueid": "MTK3671:32KTQ2V7REMJFCGWYZ5VN3SBGHR9M2", "dateTime": 1520893482679}, {"current_trial": 28, "trialdata": {"rt": -1, "trial_type": "single-stim", "word": "hound", "stimulus": "<p id=\"stim\">HOUND</p>", "conditions": [18, 1200, "v", 18000], "internal_node_id": "0.0-19.0", "trial": 0, "time_elapsed": 195493, "serialpos": 7, "key_press": -1, "wordID": 723, "type": "PRES_VIS", "trial_index": 28}, "uniqueid": "MTK3671:32KTQ2V7REMJFCGWYZ5VN3SBGHR9M2", "dateTime": 1520893484776}, {"current_trial": 29, "trialdata": {"rt": -1, "trial_type": "single-stim", "word": "zebra", "stimulus": "<p id=\"stim\">ZEBRA</p>", "conditions": [18, 1200, "v", 18000], "internal_node_id": "0.0-20.0", "trial": 0, "time_elapsed": 197570, "serialpos": 8, "key_press": -1, "wordID": 1634, "type": "PRES_VIS", "trial_index": 29}, "uniqueid": "MTK3671:32KTQ2V7REMJFCGWYZ5VN3SBGHR9M2", "dateTime": 1520893486852}, {"current_trial": 30, "trialdata": {"rt": -1, "trial_type": "single-stim", "word": "lipstick", "stimulus": "<p id=\"stim\">LIPSTICK</p>", "conditions": [18, 1200, "v", 18000], "internal_node_id": "0.0-21.0", "trial": 0, "time_elapsed": 199845, "serialpos": 9, "key_press": -1, "wordID": 828, "type": "PRES_VIS", "trial_index": 30}, "uniqueid": "MTK3671:32KTQ2V7REMJFCGWYZ5VN3SBGHR9M2", "dateTime": 1520893489127}, {"current_trial": 31, "trialdata": {"rt": -1, "trial_type": "single-stim", "word": "banquet", "stimulus": "<p id=\"stim\">BANQUET</p>", "conditions": [18, 1200, "v", 18000], "internal_node_id": "0.0-22.0", "trial": 0, "time_elapsed": 202114, "serialpos": 10, "key_press": -1, "wordID": 85, "type": "PRES_VIS", "trial_index": 31}, "uniqueid": "MTK3671:32KTQ2V7REMJFCGWYZ5VN3SBGHR9M2", "dateTime": 1520893491397}, {"current_trial": 32, "trialdata": {"rt": -1, "trial_type": "single-stim", "word": "robin", "stimulus": "<p id=\"stim\">ROBIN</p>", "conditions": [18, 1200, "v", 18000], "internal_node_id": "0.0-23.0", "trial": 0, "time_elapsed": 204516, "serialpos": 11, "key_press": -1, "wordID": 1198, "type": "PRES_VIS", "trial_index": 32}, "uniqueid": "MTK3671:32KTQ2V7REMJFCGWYZ5VN3SBGHR9M2", "dateTime": 1520893493798}, {"current_trial": 33, "trialdata": {"rt": -1, "trial_type": "single-stim", "word": "champagne", "stimulus": "<p id=\"stim\">CHAMPAGNE</p>", "conditions": [18, 1200, "v", 18000], "internal_node_id": "0.0-24.0", "trial": 0, "time_elapsed": 206530, "serialpos": 12, "key_press": -1, "wordID": 277, "type": "PRES_VIS", "trial_index": 33}, "uniqueid": "MTK3671:32KTQ2V7REMJFCGWYZ5VN3SBGHR9M2", "dateTime": 1520893495812}, {"current_trial": 34, "trialdata": {"rt": -1, "trial_type": "single-stim", "word": "fiddle", "stimulus": "<p id=\"stim\">FIDDLE</p>", "conditions": [18, 1200, "v", 18000], "internal_node_id": "0.0-25.0", "trial": 0, "time_elapsed": 208765, "serialpos": 13, "key_press": -1, "wordID": 560, "type": "PRES_VIS", "trial_index": 34}, "uniqueid": "MTK3671:32KTQ2V7REMJFCGWYZ5VN3SBGHR9M2", "dateTime": 1520893498047}, {"current_trial": 35, "trialdata": {"rt": -1, "trial_type": "single-stim", "word": "soda", "stimulus": "<p id=\"stim\">SODA</p>", "conditions": [18, 1200, "v", 18000], "internal_node_id": "0.0-26.0", "trial": 0, "time_elapsed": 211115, "serialpos": 14, "key_press": -1, "wordID": 1340, "type": "PRES_VIS", "trial_index": 35}, "uniqueid": "MTK3671:32KTQ2V7REMJFCGWYZ5VN3SBGHR9M2", "dateTime": 1520893500397}, {"current_trial": 36, "trialdata": {"rt": -1, "trial_type": "single-stim", "word": "onion", "stimulus": "<p id=\"stim\">ONION</p>", "conditions": [18, 1200, "v", 18000], "internal_node_id": "0.0-27.0", "trial": 0, "time_elapsed": 213246, "serialpos": 15, "key_press": -1, "wordID": 976, "type": "PRES_VIS", "trial_index": 36}, "uniqueid": "MTK3671:32KTQ2V7REMJFCGWYZ5VN3SBGHR9M2", "dateTime": 1520893502528}, {"current_trial": 37, "trialdata": {"rt": -1, "trial_type": "single-stim", "word": "nurse", "stimulus": "<p id=\"stim\">NURSE</p>", "conditions": [18, 1200, "v", 18000], "internal_node_id": "0.0-28.0", "trial": 0, "time_elapsed": 215434, "serialpos": 16, "key_press": -1, "wordID": 962, "type": "PRES_VIS", "trial_index": 37}, "uniqueid": "MTK3671:32KTQ2V7REMJFCGWYZ5VN3SBGHR9M2", "dateTime": 1520893504716}, {"current_trial": 38, "trialdata": {"rt": -1, "trial_type": "single-stim", "word": "scissors", "stimulus": "<p id=\"stim\">SCISSORS</p>", "conditions": [18, 1200, "v", 18000], "internal_node_id": "0.0-29.0", "trial": 0, "time_elapsed": 217709, "serialpos": 17, "key_press": -1, "wordID": 1249, "type": "PRES_VIS", "trial_index": 38}, "uniqueid": "MTK3671:32KTQ2V7REMJFCGWYZ5VN3SBGHR9M2", "dateTime": 1520893506991}, {"current_trial": 39, "trialdata": {"rt": -1, "trial_type": "single-stim", "stimulus": "", "internal_node_id": "0.0-30.0-0.0", "time_elapsed": 219943, "key_press": -1, "type": "PRE_RECALL_DELAY", "trial_index": 39}, "uniqueid": "MTK3671:32KTQ2V7REMJFCGWYZ5VN3SBGHR9M2", "dateTime": 1520893509225}, {"current_trial": 40, "trialdata": {"rt": -1000, "trial_type": "single-audio", "stimulus": "/static/audio/400Hz.wav", "internal_node_id": "0.0-31.0", "time_elapsed": 220452, "key_press": -1, "type": "PRE_RECALL_ALERT", "trial_index": 40}, "uniqueid": "MTK3671:32KTQ2V7REMJFCGWYZ5VN3SBGHR9M2", "dateTime": 1520893509734}, {"current_trial": 41, "trialdata": {"rt": [21015, 24286, 30254, 40151, 42126, 43966, 49199, 51902, 53158, 55662, 59414], "recwords": ["machine", "sandwich", "pasty", "pastry", "novel", "fireman", "sunrise", "whistle", "hound", "zebra", "lipstick"], "key_times": [16200, 16278, 16550, 16622, 16655, 16766, 17198, 17350, 17487, 19446, 20038, 20206, 20294, 20550, 20694, 21015, 21847, 21975, 22119, 22269, 23007, 23126, 23910, 24030, 24286, 28727, 29039, 29334, 29493, 29670, 30254, 35286, 35743, 35870, 36206, 38983, 39430, 39663, 39822, 40151, 40591, 40830, 41327, 41510, 41886, 42126, 42558, 42750, 42895, 43102, 43326, 43567, 43726, 43966, 48045, 48174, 48398, 48574, 48758, 48862, 49095, 49199, 50070, 50230, 50359, 50543, 51302, 51439, 51670, 51902, 52285, 52502, 52622, 52902, 53028, 53158, 54326, 54751, 54958, 55150, 55463, 55662, 56486, 56830, 57014, 57510, 58334, 58903, 59086, 59231, 59414], "trial_type": "free-recall", "conditions": [18, 1200, "v", 18000], "internal_node_id": "0.0-32.0-0.0", "key_presses": [77, 65, 88, 67, 72, 73, 8, 8, 8, 8, 67, 72, 73, 78, 69, 13, 83, 65, 78, 68, 87, 73, 67, 72, 13, 80, 65, 83, 84, 89, 13, 80, 65, 83, 84, 89, 8, 82, 89, 13, 78, 79, 86, 69, 76, 13, 70, 73, 82, 69, 77, 65, 78, 13, 83, 85, 78, 82, 73, 83, 69, 13, 87, 72, 73, 83, 84, 76, 69, 13, 72, 79, 85, 78, 68, 13, 90, 69, 66, 82, 65, 13, 76, 73, 80, 83, 84, 73, 67, 75, 13], "trial": 0, "time_elapsed": 280458, "type": "FREE_RECALL", "trial_index": 41}, "uniqueid": "MTK3671:32KTQ2V7REMJFCGWYZ5VN3SBGHR9M2", "dateTime": 1520893569744}, {"current_trial": 42, "trialdata": {"rt": 2500, "trial_type": "text", "internal_node_id": "0.0-33.0", "time_elapsed": 284964, "key_press": 32, "type": "INSTRUCTIONS", "trial_index": 42}, "uniqueid": "MTK3671:32KTQ2V7REMJFCGWYZ5VN3SBGHR9M2", "dateTime": 1520893574247}, {"current_trial": 43, "trialdata": {"rt": [9482, 14306], "trial_type": "math-distractor", "key_times": [8786, 9482, 13737, 13858, 14306], "responses": ["9", "22"], "num2": [6, 6, 9], "num3": [2, 8, 7], "conditions": [18, 1200, "v", 18000], "internal_node_id": "0.0-34.0", "key_presses": [57, 13, 50, 50, 13], "trial": 1, "time_elapsed": 304973, "type": "DISTRACTOR", "trial_index": 43, "num1": [1, 8, 6]}, "uniqueid": "MTK3671:32KTQ2V7REMJFCGWYZ5VN3SBGHR9M2", "dateTime": 1520893594255}, {"current_trial": 44, "trialdata": {"rt": -1, "trial_type": "single-stim", "stimulus": "<p id=\"stim\">10</p>", "internal_node_id": "0.0-35.0-0.0", "time_elapsed": 307979, "key_press": -1, "trial_index": 44}, "uniqueid": "MTK3671:32KTQ2V7REMJFCGWYZ5VN3SBGHR9M2", "dateTime": 1520893597261}, {"current_trial": 45, "trialdata": {"rt": -1, "trial_type": "single-stim", "stimulus": "<p id=\"stim\">9</p>", "internal_node_id": "0.0-35.0-1.0", "time_elapsed": 308984, "key_press": -1, "trial_index": 45}, "uniqueid": "MTK3671:32KTQ2V7REMJFCGWYZ5VN3SBGHR9M2", "dateTime": 1520893598266}, {"current_trial": 46, "trialdata": {"rt": -1, "trial_type": "single-stim", "stimulus": "<p id=\"stim\">8</p>", "internal_node_id": "0.0-35.0-2.0", "time_elapsed": 309989, "key_press": -1, "trial_index": 46}, "uniqueid": "MTK3671:32KTQ2V7REMJFCGWYZ5VN3SBGHR9M2", "dateTime": 1520893599271}, {"current_trial": 47, "trialdata": {"rt": -1, "trial_type": "single-stim", "stimulus": "<p id=\"stim\">7</p>", "internal_node_id": "0.0-35.0-3.0", "time_elapsed": 310992, "key_press": -1, "trial_index": 47}, "uniqueid": "MTK3671:32KTQ2V7REMJFCGWYZ5VN3SBGHR9M2", "dateTime": 1520893600274}, {"current_trial": 48, "trialdata": {"rt": -1, "trial_type": "single-stim", "stimulus": "<p id=\"stim\">6</p>", "internal_node_id": "0.0-35.0-4.0", "time_elapsed": 311996, "key_press": -1, "trial_index": 48}, "uniqueid": "MTK3671:32KTQ2V7REMJFCGWYZ5VN3SBGHR9M2", "dateTime": 1520893601278}, {"current_trial": 49, "trialdata": {"rt": -1, "trial_type": "single-stim", "stimulus": "<p id=\"stim\">5</p>", "internal_node_id": "0.0-35.0-5.0", "time_elapsed": 313000, "key_press": -1, "trial_index": 49}, "uniqueid": "MTK3671:32KTQ2V7REMJFCGWYZ5VN3SBGHR9M2", "dateTime": 1520893602282}, {"current_trial": 50, "trialdata": {"rt": -1, "trial_type": "single-stim", "stimulus": "<p id=\"stim\">4</p>", "internal_node_id": "0.0-35.0-6.0", "time_elapsed": 314004, "key_press": -1, "trial_index": 50}, "uniqueid": "MTK3671:32KTQ2V7REMJFCGWYZ5VN3SBGHR9M2", "dateTime": 1520893603286}, {"current_trial": 51, "trialdata": {"rt": -1, "trial_type": "single-stim", "stimulus": "<p id=\"stim\">3</p>", "internal_node_id": "0.0-35.0-7.0", "time_elapsed": 315008, "key_press": -1, "trial_index": 51}, "uniqueid": "MTK3671:32KTQ2V7REMJFCGWYZ5VN3SBGHR9M2", "dateTime": 1520893604291}, {"current_trial": 52, "trialdata": {"rt": -1, "trial_type": "single-stim", "stimulus": "<p id=\"stim\">2</p>", "internal_node_id": "0.0-35.0-8.0", "time_elapsed": 316012, "key_press": -1, "trial_index": 52}, "uniqueid": "MTK3671:32KTQ2V7REMJFCGWYZ5VN3SBGHR9M2", "dateTime": 1520893605294}, {"current_trial": 53, "trialdata": {"rt": -1, "trial_type": "single-stim", "stimulus": "<p id=\"stim\">1</p>", "internal_node_id": "0.0-35.0-9.0", "time_elapsed": 317017, "key_press": -1, "trial_index": 53}, "uniqueid": "MTK3671:32KTQ2V7REMJFCGWYZ5VN3SBGHR9M2", "dateTime": 1520893606299}, {"current_trial": 54, "trialdata": {"rt": -1, "trial_type": "single-stim", "stimulus": "<p id=\"stim\">+</p>", "internal_node_id": "0.0-36.0-0.0", "time_elapsed": 318520, "key_press": -1, "type": "FIXATION", "trial_index": 54}, "uniqueid": "MTK3671:32KTQ2V7REMJFCGWYZ5VN3SBGHR9M2", "dateTime": 1520893607802}, {"current_trial": 55, "trialdata": {"rt": -1, "trial_type": "single-stim", "word": "suitcase", "stimulus": "<p id=\"stim\">SUITCASE</p>", "conditions": [18, 1200, "v", 18000], "internal_node_id": "0.0-37.0", "trial": 1, "time_elapsed": 319723, "serialpos": 0, "key_press": -1, "wordID": 1402, "type": "PRES_VIS", "trial_index": 55}, "uniqueid": "MTK3671:32KTQ2V7REMJFCGWYZ5VN3SBGHR9M2", "dateTime": 1520893609005}, {"current_trial": 56, "trialdata": {"rt": -1, "trial_type": "single-stim", "word": "sponge", "stimulus": "<p id=\"stim\">SPONGE</p>", "conditions": [18, 1200, "v", 18000], "internal_node_id": "0.0-38.0", "trial": 1, "time_elapsed": 321903, "serialpos": 1, "key_press": -1, "wordID": 1354, "type": "PRES_VIS", "trial_index": 56}, "uniqueid": "MTK3671:32KTQ2V7REMJFCGWYZ5VN3SBGHR9M2", "dateTime": 1520893611185}, {"current_trial": 57, "trialdata": {"rt": -1, "trial_type": "single-stim", "word": "stream", "stimulus": "<p id=\"stim\">STREAM</p>", "conditions": [18, 1200, "v", 18000], "internal_node_id": "0.0-39.0", "trial": 1, "time_elapsed": 323994, "serialpos": 2, "key_press": -1, "wordID": 1391, "type": "PRES_VIS", "trial_index": 57}, "uniqueid": "MTK3671:32KTQ2V7REMJFCGWYZ5VN3SBGHR9M2", "dateTime": 1520893613277}, {"current_trial": 58, "trialdata": {"rt": -1, "trial_type": "single-stim", "word": "spouse", "stimulus": "<p id=\"stim\">SPOUSE</p>", "conditions": [18, 1200, "v", 18000], "internal_node_id": "0.0-40.0", "trial": 1, "time_elapsed": 326128, "serialpos": 3, "key_press": -1, "wordID": 1357, "type": "PRES_VIS", "trial_index": 58}, "uniqueid": "MTK3671:32KTQ2V7REMJFCGWYZ5VN3SBGHR9M2", "dateTime": 1520893615410}, {"current_trial": 59, "trialdata": {"rt": -1, "trial_type": "single-stim", "word": "postage", "stimulus": "<p id=\"stim\">POSTAGE</p>", "conditions": [18, 1200, "v", 18000], "internal_node_id": "0.0-41.0", "trial": 1, "time_elapsed": 328282, "serialpos": 4, "key_press": -1, "wordID": 1112, "type": "PRES_VIS", "trial_index": 59}, "uniqueid": "MTK3671:32KTQ2V7REMJFCGWYZ5VN3SBGHR9M2", "dateTime": 1520893617564}, {"current_trial": 60, "trialdata": {"rt": -1, "trial_type": "single-stim", "word": "juggler", "stimulus": "<p id=\"stim\">JUGGLER</p>", "conditions": [18, 1200, "v", 18000], "internal_node_id": "0.0-42.0", "trial": 1, "time_elapsed": 330389, "serialpos": 5, "key_press": -1, "wordID": 762, "type": "PRES_VIS", "trial_index": 60}, "uniqueid": "MTK3671:32KTQ2V7REMJFCGWYZ5VN3SBGHR9M2", "dateTime": 1520893619671}, {"current_trial": 61, "trialdata": {"rt": -1, "trial_type": "single-stim", "word": "stomach", "stimulus": "<p id=\"stim\">STOMACH</p>", "conditions": [18, 1200, "v", 18000], "internal_node_id": "0.0-43.0", "trial": 1, "time_elapsed": 332774, "serialpos": 6, "key_press": -1, "wordID": 1383, "type": "PRES_VIS", "trial_index": 61}, "uniqueid": "MTK3671:32KTQ2V7REMJFCGWYZ5VN3SBGHR9M2", "dateTime": 1520893622056}, {"current_trial": 62, "trialdata": {"rt": -1, "trial_type": "single-stim", "word": "luggage", "stimulus": "<p id=\"stim\">LUGGAGE</p>", "conditions": [18, 1200, "v", 18000], "internal_node_id": "0.0-44.0", "trial": 1, "time_elapsed": 335159, "serialpos": 7, "key_press": -1, "wordID": 846, "type": "PRES_VIS", "trial_index": 62}, "uniqueid": "MTK3671:32KTQ2V7REMJFCGWYZ5VN3SBGHR9M2", "dateTime": 1520893624442}, {"current_trial": 63, "trialdata": {"rt": -1, "trial_type": "single-stim", "word": "lady", "stimulus": "<p id=\"stim\">LADY</p>", "conditions": [18, 1200, "v", 18000], "internal_node_id": "0.0-45.0", "trial": 1, "time_elapsed": 337382, "serialpos": 8, "key_press": -1, "wordID": 793, "type": "PRES_VIS", "trial_index": 63}, "uniqueid": "MTK3671:32KTQ2V7REMJFCGWYZ5VN3SBGHR9M2", "dateTime": 1520893626664}, {"current_trial": 64, "trialdata": {"rt": -1, "trial_type": "single-stim", "word": "virus", "stimulus": "<p id=\"stim\">VIRUS</p>", "conditions": [18, 1200, "v", 18000], "internal_node_id": "0.0-46.0", "trial": 1, "time_elapsed": 339605, "serialpos": 9, "key_press": -1, "wordID": 1571, "type": "PRES_VIS", "trial_index": 64}, "uniqueid": "MTK3671:32KTQ2V7REMJFCGWYZ5VN3SBGHR9M2", "dateTime": 1520893628888}, {"current_trial": 65, "trialdata": {"rt": -1, "trial_type": "single-stim", "word": "apron", "stimulus": "<p id=\"stim\">APRON</p>", "conditions": [18, 1200, "v", 18000], "internal_node_id": "0.0-47.0", "trial": 1, "time_elapsed": 341938, "serialpos": 10, "key_press": -1, "wordID": 34, "type": "PRES_VIS", "trial_index": 65}, "uniqueid": "MTK3671:32KTQ2V7REMJFCGWYZ5VN3SBGHR9M2", "dateTime": 1520893631220}, {"current_trial": 66, "trialdata": {"rt": -1, "trial_type": "single-stim", "word": "blockade", "stimulus": "<p id=\"stim\">BLOCKADE</p>", "conditions": [18, 1200, "v", 18000], "internal_node_id": "0.0-48.0", "trial": 1, "time_elapsed": 344144, "serialpos": 11, "key_press": -1, "wordID": 136, "type": "PRES_VIS", "trial_index": 66}, "uniqueid": "MTK3671:32KTQ2V7REMJFCGWYZ5VN3SBGHR9M2", "dateTime": 1520893633426}, {"current_trial": 67, "trialdata": {"rt": -1, "trial_type": "single-stim", "word": "blackboard", "stimulus": "<p id=\"stim\">BLACKBOARD</p>", "conditions": [18, 1200, "v", 18000], "internal_node_id": "0.0-49.0", "trial": 1, "time_elapsed": 346215, "serialpos": 12, "key_press": -1, "wordID": 132, "type": "PRES_VIS", "trial_index": 67}, "uniqueid": "MTK3671:32KTQ2V7REMJFCGWYZ5VN3SBGHR9M2", "dateTime": 1520893635498}, {"current_trial": 68, "trialdata": {"rt": -1, "trial_type": "single-stim", "word": "money", "stimulus": "<p id=\"stim\">MONEY</p>", "conditions": [18, 1200, "v", 18000], "internal_node_id": "0.0-50.0", "trial": 1, "time_elapsed": 348525, "serialpos": 13, "key_press": -1, "wordID": 907, "type": "PRES_VIS", "trial_index": 68}, "uniqueid": "MTK3671:32KTQ2V7REMJFCGWYZ5VN3SBGHR9M2", "dateTime": 1520893637810}, {"current_trial": 69, "trialdata": {"rt": -1, "trial_type": "single-stim", "word": "wagon", "stimulus": "<p id=\"stim\">WAGON</p>", "conditions": [18, 1200, "v", 18000], "internal_node_id": "0.0-51.0", "trial": 1, "time_elapsed": 350785, "serialpos": 14, "key_press": -1, "wordID": 1577, "type": "PRES_VIS", "trial_index": 69}, "uniqueid": "MTK3671:32KTQ2V7REMJFCGWYZ5VN3SBGHR9M2", "dateTime": 1520893640067}, {"current_trial": 70, "trialdata": {"rt": -1, "trial_type": "single-stim", "word": "shark", "stimulus": "<p id=\"stim\">SHARK</p>", "conditions": [18, 1200, "v", 18000], "internal_node_id": "0.0-52.0", "trial": 1, "time_elapsed": 352861, "serialpos": 15, "key_press": -1, "wordID": 1274, "type": "PRES_VIS", "trial_index": 70}, "uniqueid": "MTK3671:32KTQ2V7REMJFCGWYZ5VN3SBGHR9M2", "dateTime": 1520893642143}, {"current_trial": 71, "trialdata": {"rt": -1, "trial_type": "single-stim", "word": "receipt", "stimulus": "<p id=\"stim\">RECEIPT</p>", "conditions": [18, 1200, "v", 18000], "internal_node_id": "0.0-53.0", "trial": 1, "time_elapsed": 355189, "serialpos": 16, "key_press": -1, "wordID": 1172, "type": "PRES_VIS", "trial_index": 71}, "uniqueid": "MTK3671:32KTQ2V7REMJFCGWYZ5VN3SBGHR9M2", "dateTime": 1520893644471}, {"current_trial": 72, "trialdata": {"rt": -1, "trial_type": "single-stim", "word": "bank", "stimulus": "<p id=\"stim\">BANK</p>", "conditions": [18, 1200, "v", 18000], "internal_node_id": "0.0-54.0", "trial": 1, "time_elapsed": 357476, "serialpos": 17, "key_press": -1, "wordID": 82, "type": "PRES_VIS", "trial_index": 72}, "uniqueid": "MTK3671:32KTQ2V7REMJFCGWYZ5VN3SBGHR9M2", "dateTime": 1520893646758}, {"current_trial": 73, "trialdata": {"rt": -1, "trial_type": "single-stim", "stimulus": "", "internal_node_id": "0.0-55.0-0.0", "time_elapsed": 360000, "key_press": -1, "type": "PRE_RECALL_DELAY", "trial_index": 73}, "uniqueid": "MTK3671:32KTQ2V7REMJFCGWYZ5VN3SBGHR9M2", "dateTime": 1520893649282}, {"current_trial": 74, "trialdata": {"rt": -1000, "trial_type": "single-audio", "stimulus": "/static/audio/400Hz.wav", "internal_node_id": "0.0-56.0", "time_elapsed": 360502, "key_press": -1, "type": "PRE_RECALL_ALERT", "trial_index": 74}, "uniqueid": "MTK3671:32KTQ2V7REMJFCGWYZ5VN3SBGHR9M2", "dateTime": 1520893649784}, {"current_trial": 75, "trialdata": {"rt": [16267, 21939, 23643, 33083, 36612, 41980, 43835, 46379, 49011, 51059, 52915, 56107, 59410], "recwords": ["suitcase", "sponge", "stream", "spouse", "postage", "juggler", "stomach", "luggage", "lady", "virus", "apron", "blockade", "blackboard"], "key_times": [14372, 14691, 14820, 15003, 15307, 15619, 15915, 16116, 16267, 16796, 16892, 17147, 17716, 20604, 20987, 21067, 21467, 21732, 21811, 21939, 22475, 22772, 22916, 22995, 23251, 23347, 23643, 31796, 31995, 32211, 32676, 32755, 33003, 33083, 35307, 35363, 35556, 36035, 36163, 36355, 36443, 36612, 40443, 40650, 40842, 40963, 41179, 41220, 41746, 41980, 42435, 42819, 42922, 43139, 43267, 43564, 43659, 43835, 45171, 45475, 45683, 45795, 45875, 46019, 46203, 46379, 47163, 47307, 47611, 47668, 47883, 48731, 49011, 49987, 50091, 50443, 50530, 50755, 51059, 52090, 52203, 52419, 52515, 52739, 52915, 54059, 54347, 54580, 54715, 54898, 55075, 55427, 55691, 56107, 56587, 56819, 56954, 57220, 57355, 57770, 58003, 58747, 59059, 59267, 59410], "trial_type": "free-recall", "conditions": [18, 1200, "v", 18000], "internal_node_id": "0.0-57.0-0.0", "key_presses": [83, 85, 73, 84, 67, 65, 83, 69, 13, 83, 79, 73, 8, 8, 80, 79, 78, 71, 69, 32, 83, 84, 82, 69, 65, 77, 13, 83, 80, 79, 85, 83, 69, 13, 80, 79, 83, 84, 65, 71, 69, 13, 74, 85, 71, 71, 76, 69, 82, 13, 83, 84, 79, 77, 65, 67, 72, 13, 76, 85, 71, 71, 65, 71, 69, 13, 76, 65, 68, 89, 222, 8, 13, 86, 73, 82, 85, 83, 13, 65, 80, 82, 79, 78, 13, 66, 76, 79, 67, 75, 65, 68, 69, 13, 66, 76, 65, 67, 75, 66, 79, 65, 82, 68, 13], "trial": 1, "time_elapsed": 420507, "type": "FREE_RECALL", "trial_index": 75}, "uniqueid": "MTK3671:32KTQ2V7REMJFCGWYZ5VN3SBGHR9M2", "dateTime": 1520893709793}, {"current_trial": 76, "trialdata": {"rt": 3591, "trial_type": "text", "internal_node_id": "0.0-58.0", "time_elapsed": 426107, "key_press": 32, "type": "INSTRUCTIONS", "trial_index": 76}, "uniqueid": "MTK3671:32KTQ2V7REMJFCGWYZ5VN3SBGHR9M2", "dateTime": 1520893715389}, {"current_trial": 77, "trialdata": {"rt": [7330, 12082, 14257, 18272, 20105], "trial_type": "math-distractor", "key_times": [6810, 7026, 7330, 11530, 11921, 12082, 13986, 14041, 14257, 17834, 17962, 18272, 19602, 19842, 20105], "responses": ["15", "13", "18", "23", "17"], "num2": [5, 6, 1, 9, 7, 4], "num3": [2, 3, 9, 8, 1, 7], "conditions": [12, 1600, "v", 24000], "internal_node_id": "0.0-59.0", "key_presses": [49, 53, 13, 49, 51, 13, 49, 56, 13, 50, 51, 13, 49, 55, 13], "trial": 2, "time_elapsed": 451117, "type": "DISTRACTOR", "trial_index": 77, "num1": [8, 5, 8, 5, 9, 9]}, "uniqueid": "MTK3671:32KTQ2V7REMJFCGWYZ5VN3SBGHR9M2", "dateTime": 1520893740399}, {"current_trial": 78, "trialdata": {"rt": -1, "trial_type": "single-stim", "stimulus": "<p id=\"stim\">10</p>", "internal_node_id": "0.0-60.0-0.0", "time_elapsed": 454123, "key_press": -1, "trial_index": 78}, "uniqueid": "MTK3671:32KTQ2V7REMJFCGWYZ5VN3SBGHR9M2", "dateTime": 1520893743406}, {"current_trial": 79, "trialdata": {"rt": -1, "trial_type": "single-stim", "stimulus": "<p id=\"stim\">9</p>", "internal_node_id": "0.0-60.0-1.0", "time_elapsed": 455127, "key_press": -1, "trial_index": 79}, "uniqueid": "MTK3671:32KTQ2V7REMJFCGWYZ5VN3SBGHR9M2", "dateTime": 1520893744409}, {"current_trial": 80, "trialdata": {"rt": -1, "trial_type": "single-stim", "stimulus": "<p id=\"stim\">8</p>", "internal_node_id": "0.0-60.0-2.0", "time_elapsed": 456131, "key_press": -1, "trial_index": 80}, "uniqueid": "MTK3671:32KTQ2V7REMJFCGWYZ5VN3SBGHR9M2", "dateTime": 1520893745413}, {"current_trial": 81, "trialdata": {"rt": -1, "trial_type": "single-stim", "stimulus": "<p id=\"stim\">7</p>", "internal_node_id": "0.0-60.0-3.0", "time_elapsed": 457136, "key_press": -1, "trial_index": 81}, "uniqueid": "MTK3671:32KTQ2V7REMJFCGWYZ5VN3SBGHR9M2", "dateTime": 1520893746418}, {"current_trial": 82, "trialdata": {"rt": -1, "trial_type": "single-stim", "stimulus": "<p id=\"stim\">6</p>", "internal_node_id": "0.0-60.0-4.0", "time_elapsed": 458139, "key_press": -1, "trial_index": 82}, "uniqueid": "MTK3671:32KTQ2V7REMJFCGWYZ5VN3SBGHR9M2", "dateTime": 1520893747421}, {"current_trial": 83, "trialdata": {"rt": -1, "trial_type": "single-stim", "stimulus": "<p id=\"stim\">5</p>", "internal_node_id": "0.0-60.0-5.0", "time_elapsed": 459143, "key_press": -1, "trial_index": 83}, "uniqueid": "MTK3671:32KTQ2V7REMJFCGWYZ5VN3SBGHR9M2", "dateTime": 1520893748425}, {"current_trial": 84, "trialdata": {"rt": -1, "trial_type": "single-stim", "stimulus": "<p id=\"stim\">4</p>", "internal_node_id": "0.0-60.0-6.0", "time_elapsed": 460148, "key_press": -1, "trial_index": 84}, "uniqueid": "MTK3671:32KTQ2V7REMJFCGWYZ5VN3SBGHR9M2", "dateTime": 1520893749430}, {"current_trial": 85, "trialdata": {"rt": -1, "trial_type": "single-stim", "stimulus": "<p id=\"stim\">3</p>", "internal_node_id": "0.0-60.0-7.0", "time_elapsed": 461152, "key_press": -1, "trial_index": 85}, "uniqueid": "MTK3671:32KTQ2V7REMJFCGWYZ5VN3SBGHR9M2", "dateTime": 1520893750434}, {"current_trial": 86, "trialdata": {"rt": -1, "trial_type": "single-stim", "stimulus": "<p id=\"stim\">2</p>", "internal_node_id": "0.0-60.0-8.0", "time_elapsed": 462156, "key_press": -1, "trial_index": 86}, "uniqueid": "MTK3671:32KTQ2V7REMJFCGWYZ5VN3SBGHR9M2", "dateTime": 1520893751438}, {"current_trial": 87, "trialdata": {"rt": -1, "trial_type": "single-stim", "stimulus": "<p id=\"stim\">1</p>", "internal_node_id": "0.0-60.0-9.0", "time_elapsed": 463160, "key_press": -1, "trial_index": 87}, "uniqueid": "MTK3671:32KTQ2V7REMJFCGWYZ5VN3SBGHR9M2", "dateTime": 1520893752442}, {"current_trial": 88, "trialdata": {"rt": -1, "trial_type": "single-stim", "stimulus": "<p id=\"stim\">+</p>", "internal_node_id": "0.0-61.0-0.0", "time_elapsed": 464663, "key_press": -1, "type": "FIXATION", "trial_index": 88}, "uniqueid": "MTK3671:32KTQ2V7REMJFCGWYZ5VN3SBGHR9M2", "dateTime": 1520893753945}, {"current_trial": 89, "trialdata": {"rt": -1, "trial_type": "single-stim", "word": "daughter", "stimulus": "<p id=\"stim\">DAUGHTER</p>", "conditions": [12, 1600, "v", 24000], "internal_node_id": "0.0-62.0", "trial": 2, "time_elapsed": 466265, "serialpos": 0, "key_press": -1, "wordID": 441, "type": "PRES_VIS", "trial_index": 89}, "uniqueid": "MTK3671:32KTQ2V7REMJFCGWYZ5VN3SBGHR9M2", "dateTime": 1520893755547}, {"current_trial": 90, "trialdata": {"rt": -1, "trial_type": "single-stim", "word": "freezer", "stimulus": "<p id=\"stim\">FREEZER</p>", "conditions": [12, 1600, "v", 24000], "internal_node_id": "0.0-63.0", "trial": 2, "time_elapsed": 468749, "serialpos": 1, "key_press": -1, "wordID": 603, "type": "PRES_VIS", "trial_index": 90}, "uniqueid": "MTK3671:32KTQ2V7REMJFCGWYZ5VN3SBGHR9M2", "dateTime": 1520893758031}, {"current_trial": 91, "trialdata": {"rt": -1, "trial_type": "single-stim", "word": "plaza", "stimulus": "<p id=\"stim\">PLAZA</p>", "conditions": [12, 1600, "v", 24000], "internal_node_id": "0.0-64.0", "trial": 2, "time_elapsed": 471256, "serialpos": 2, "key_press": -1, "wordID": 1087, "type": "PRES_VIS", "trial_index": 91}, "uniqueid": "MTK3671:32KTQ2V7REMJFCGWYZ5VN3SBGHR9M2", "dateTime": 1520893760538}, {"current_trial": 92, "trialdata": {"rt": -1, "trial_type": "single-stim", "word": "island", "stimulus": "<p id=\"stim\">ISLAND</p>", "conditions": [12, 1600, "v", 24000], "internal_node_id": "0.0-65.0", "trial": 2, "time_elapsed": 473689, "serialpos": 3, "key_press": -1, "wordID": 744, "type": "PRES_VIS", "trial_index": 92}, "uniqueid": "MTK3671:32KTQ2V7REMJFCGWYZ5VN3SBGHR9M2", "dateTime": 1520893762971}, {"current_trial": 93, "trialdata": {"rt": -1, "trial_type": "single-stim", "word": "shirt", "stimulus": "<p id=\"stim\">SHIRT</p>", "conditions": [12, 1600, "v", 24000], "internal_node_id": "0.0-66.0", "trial": 2, "time_elapsed": 476143, "serialpos": 4, "key_press": -1, "wordID": 1286, "type": "PRES_VIS", "trial_index": 93}, "uniqueid": "MTK3671:32KTQ2V7REMJFCGWYZ5VN3SBGHR9M2", "dateTime": 1520893765425}, {"current_trial": 94, "trialdata": {"rt": -1, "trial_type": "single-stim", "word": "husband", "stimulus": "<p id=\"stim\">HUSBAND</p>", "conditions": [12, 1600, "v", 24000], "internal_node_id": "0.0-67.0", "trial": 2, "time_elapsed": 478732, "serialpos": 5, "key_press": -1, "wordID": 727, "type": "PRES_VIS", "trial_index": 94}, "uniqueid": "MTK3671:32KTQ2V7REMJFCGWYZ5VN3SBGHR9M2", "dateTime": 1520893768014}, {"current_trial": 95, "trialdata": {"rt": -1, "trial_type": "single-stim", "word": "eagle", "stimulus": "<p id=\"stim\">EAGLE</p>", "conditions": [12, 1600, "v", 24000], "internal_node_id": "0.0-68.0", "trial": 2, "time_elapsed": 481440, "serialpos": 6, "key_press": -1, "wordID": 511, "type": "PRES_VIS", "trial_index": 95}, "uniqueid": "MTK3671:32KTQ2V7REMJFCGWYZ5VN3SBGHR9M2", "dateTime": 1520893770722}, {"current_trial": 96, "trialdata": {"rt": -1, "trial_type": "single-stim", "word": "powder", "stimulus": "<p id=\"stim\">POWDER</p>", "conditions": [12, 1600, "v", 24000], "internal_node_id": "0.0-69.0", "trial": 2, "time_elapsed": 484170, "serialpos": 7, "key_press": -1, "wordID": 1116, "type": "PRES_VIS", "trial_index": 96}, "uniqueid": "MTK3671:32KTQ2V7REMJFCGWYZ5VN3SBGHR9M2", "dateTime": 1520893773453}, {"current_trial": 97, "trialdata": {"rt": -1, "trial_type": "single-stim", "word": "drink", "stimulus": "<p id=\"stim\">DRINK</p>", "conditions": [12, 1600, "v", 24000], "internal_node_id": "0.0-70.0", "trial": 2, "time_elapsed": 486939, "serialpos": 8, "key_press": -1, "wordID": 497, "type": "PRES_VIS", "trial_index": 97}, "uniqueid": "MTK3671:32KTQ2V7REMJFCGWYZ5VN3SBGHR9M2", "dateTime": 1520893776221}, {"current_trial": 98, "trialdata": {"rt": -1, "trial_type": "single-stim", "word": "shelter", "stimulus": "<p id=\"stim\">SHELTER</p>", "conditions": [12, 1600, "v", 24000], "internal_node_id": "0.0-71.0", "trial": 2, "time_elapsed": 489469, "serialpos": 9, "key_press": -1, "wordID": 1281, "type": "PRES_VIS", "trial_index": 98}, "uniqueid": "MTK3671:32KTQ2V7REMJFCGWYZ5VN3SBGHR9M2", "dateTime": 1520893778751}, {"current_trial": 99, "trialdata": {"rt": -1, "trial_type": "single-stim", "word": "uncle", "stimulus": "<p id=\"stim\">UNCLE</p>", "conditions": [12, 1600, "v", 24000], "internal_node_id": "0.0-72.0", "trial": 2, "time_elapsed": 492238, "serialpos": 10, "key_press": -1, "wordID": 1535, "type": "PRES_VIS", "trial_index": 99}, "uniqueid": "MTK3671:32KTQ2V7REMJFCGWYZ5VN3SBGHR9M2", "dateTime": 1520893781520}, {"current_trial": 100, "trialdata": {"rt": -1, "trial_type": "single-stim", "word": "sister", "stimulus": "<p id=\"stim\">SISTER</p>", "conditions": [12, 1600, "v", 24000], "internal_node_id": "0.0-73.0", "trial": 2, "time_elapsed": 494802, "serialpos": 11, "key_press": -1, "wordID": 1311, "type": "PRES_VIS", "trial_index": 100}, "uniqueid": "MTK3671:32KTQ2V7REMJFCGWYZ5VN3SBGHR9M2", "dateTime": 1520893784085}, {"current_trial": 101, "trialdata": {"rt": -1, "trial_type": "single-stim", "stimulus": "", "internal_node_id": "0.0-74.0-0.0", "time_elapsed": 497223, "key_press": -1, "type": "PRE_RECALL_DELAY", "trial_index": 101}, "uniqueid": "MTK3671:32KTQ2V7REMJFCGWYZ5VN3SBGHR9M2", "dateTime": 1520893786505}, {"current_trial": 102, "trialdata": {"rt": -1000, "trial_type": "single-audio", "stimulus": "/static/audio/400Hz.wav", "internal_node_id": "0.0-75.0", "time_elapsed": 497725, "key_press": -1, "type": "PRE_RECALL_ALERT", "trial_index": 102}, "uniqueid": "MTK3671:32KTQ2V7REMJFCGWYZ5VN3SBGHR9M2", "dateTime": 1520893787007}, {"current_trial": 103, "trialdata": {"rt": [9250, 13203, 14786, 16458, 18882, 21809, 24522, 27258, 30057, 32528, 35021, 38421], "recwords": ["daughter", "freezer", "plaza", "island", "shirt", "husband", "eagle", "powder", "drink", "shelte", "uncle", "sister"], "key_times": [7522, 7650, 8169, 8355, 8578, 8835, 8987, 9099, 9250, 10858, 11106, 11403, 12194, 12554, 12707, 12914, 13203, 13762, 13930, 14042, 14274, 14595, 14786, 15666, 15770, 15938, 16050, 16210, 16363, 16458, 18146, 18250, 18427, 18601, 18778, 18882, 20650, 20818, 20922, 21298, 21434, 21561, 21690, 21809, 23490, 23770, 23921, 24179, 24394, 24522, 26170, 26339, 26466, 26810, 27058, 27130, 27258, 28882, 29113, 29210, 29441, 29857, 30057, 31425, 31544, 31712, 31824, 32088, 32336, 32528, 34271, 34495, 34662, 34766, 34894, 35021, 36709, 36869, 36982, 37381, 37589, 37765, 38421], "trial_type": "free-recall", "conditions": [12, 1600, "v", 24000], "internal_node_id": "0.0-76.0-0.0", "key_presses": [68, 65, 85, 71, 72, 84, 69, 82, 13, 70, 82, 69, 69, 90, 69, 82, 13, 80, 76, 65, 90, 65, 13, 73, 83, 76, 65, 78, 68, 13, 83, 72, 73, 82, 84, 13, 72, 85, 83, 66, 65, 78, 68, 13, 69, 65, 71, 76, 69, 13, 80, 79, 87, 68, 69, 82, 13, 68, 82, 73, 78, 75, 13, 83, 72, 69, 76, 84, 69, 13, 85, 78, 67, 76, 69, 13, 83, 73, 83, 84, 69, 82, 13], "trial": 2, "time_elapsed": 557720, "type": "FREE_RECALL", "trial_index": 103}, "uniqueid": "MTK3671:32KTQ2V7REMJFCGWYZ5VN3SBGHR9M2", "dateTime": 1520893847006}, {"current_trial": 104, "trialdata": {"rt": 1032, "trial_type": "text", "internal_node_id": "0.0-77.0", "time_elapsed": 560757, "key_press": 32, "type": "INSTRUCTIONS", "trial_index": 104}, "uniqueid": "MTK3671:32KTQ2V7REMJFCGWYZ5VN3SBGHR9M2", "dateTime": 1520893850040}, {"current_trial": 105, "trialdata": {"rt": [14946, 17409, 18882, 23385], "trial_type": "math-distractor", "key_times": [14146, 14610, 14946, 17185, 17409, 18705, 18882, 22690, 22979, 23385], "responses": ["15", "7", "4", "12"], "num2": [7, 2, 1, 4, 2], "num3": [9, 3, 2, 7, 7], "conditions": [24, 800, "v", 24000], "internal_node_id": "0.0-78.0", "key_presses": [49, 53, 13, 55, 13, 52, 13, 49, 50, 13], "trial": 3, "time_elapsed": 586764, "type": "DISTRACTOR", "trial_index": 105, "num1": [9, 2, 1, 1, 7]}, "uniqueid": "MTK3671:32KTQ2V7REMJFCGWYZ5VN3SBGHR9M2", "dateTime": 1520893876047}, {"current_trial": 106, "trialdata": {"rt": -1, "trial_type": "single-stim", "stimulus": "<p id=\"stim\">10</p>", "internal_node_id": "0.0-79.0-0.0", "time_elapsed": 589770, "key_press": -1, "trial_index": 106}, "uniqueid": "MTK3671:32KTQ2V7REMJFCGWYZ5VN3SBGHR9M2", "dateTime": 1520893879052}, {"current_trial": 107, "trialdata": {"rt": -1, "trial_type": "single-stim", "stimulus": "<p id=\"stim\">9</p>", "internal_node_id": "0.0-79.0-1.0", "time_elapsed": 590774, "key_press": -1, "trial_index": 107}, "uniqueid": "MTK3671:32KTQ2V7REMJFCGWYZ5VN3SBGHR9M2", "dateTime": 1520893880056}, {"current_trial": 108, "trialdata": {"rt": -1, "trial_type": "single-stim", "stimulus": "<p id=\"stim\">8</p>", "internal_node_id": "0.0-79.0-2.0", "time_elapsed": 591778, "key_press": -1, "trial_index": 108}, "uniqueid": "MTK3671:32KTQ2V7REMJFCGWYZ5VN3SBGHR9M2", "dateTime": 1520893881060}, {"current_trial": 109, "trialdata": {"rt": -1, "trial_type": "single-stim", "stimulus": "<p id=\"stim\">7</p>", "internal_node_id": "0.0-79.0-3.0", "time_elapsed": 592782, "key_press": -1, "trial_index": 109}, "uniqueid": "MTK3671:32KTQ2V7REMJFCGWYZ5VN3SBGHR9M2", "dateTime": 1520893882065}, {"current_trial": 110, "trialdata": {"rt": -1, "trial_type": "single-stim", "stimulus": "<p id=\"stim\">6</p>", "internal_node_id": "0.0-79.0-4.0", "time_elapsed": 593786, "key_press": -1, "trial_index": 110}, "uniqueid": "MTK3671:32KTQ2V7REMJFCGWYZ5VN3SBGHR9M2", "dateTime": 1520893883069}, {"current_trial": 111, "trialdata": {"rt": -1, "trial_type": "single-stim", "stimulus": "<p id=\"stim\">5</p>", "internal_node_id": "0.0-79.0-5.0", "time_elapsed": 594791, "key_press": -1, "trial_index": 111}, "uniqueid": "MTK3671:32KTQ2V7REMJFCGWYZ5VN3SBGHR9M2", "dateTime": 1520893884073}, {"current_trial": 112, "trialdata": {"rt": -1, "trial_type": "single-stim", "stimulus": "<p id=\"stim\">4</p>", "internal_node_id": "0.0-79.0-6.0", "time_elapsed": 595795, "key_press": -1, "trial_index": 112}, "uniqueid": "MTK3671:32KTQ2V7REMJFCGWYZ5VN3SBGHR9M2", "dateTime": 1520893885077}, {"current_trial": 113, "trialdata": {"rt": -1, "trial_type": "single-stim", "stimulus": "<p id=\"stim\">3</p>", "internal_node_id": "0.0-79.0-7.0", "time_elapsed": 596798, "key_press": -1, "trial_index": 113}, "uniqueid": "MTK3671:32KTQ2V7REMJFCGWYZ5VN3SBGHR9M2", "dateTime": 1520893886081}, {"current_trial": 114, "trialdata": {"rt": -1, "trial_type": "single-stim", "stimulus": "<p id=\"stim\">2</p>", "internal_node_id": "0.0-79.0-8.0", "time_elapsed": 597803, "key_press": -1, "trial_index": 114}, "uniqueid": "MTK3671:32KTQ2V7REMJFCGWYZ5VN3SBGHR9M2", "dateTime": 1520893887085}, {"current_trial": 115, "trialdata": {"rt": -1, "trial_type": "single-stim", "stimulus": "<p id=\"stim\">1</p>", "internal_node_id": "0.0-79.0-9.0", "time_elapsed": 598807, "key_press": -1, "trial_index": 115}, "uniqueid": "MTK3671:32KTQ2V7REMJFCGWYZ5VN3SBGHR9M2", "dateTime": 1520893888089}, {"current_trial": 116, "trialdata": {"rt": -1, "trial_type": "single-stim", "stimulus": "<p id=\"stim\">+</p>", "internal_node_id": "0.0-80.0-0.0", "time_elapsed": 600310, "key_press": -1, "type": "FIXATION", "trial_index": 116}, "uniqueid": "MTK3671:32KTQ2V7REMJFCGWYZ5VN3SBGHR9M2", "dateTime": 1520893889592}, {"current_trial": 117, "trialdata": {"rt": -1, "trial_type": "single-stim", "word": "scallop", "stimulus": "<p id=\"stim\">SCALLOP</p>", "conditions": [24, 800, "v", 24000], "internal_node_id": "0.0-81.0", "trial": 3, "time_elapsed": 601117, "serialpos": 0, "key_press": -1, "wordID": 1241, "type": "PRES_VIS", "trial_index": 117}, "uniqueid": "MTK3671:32KTQ2V7REMJFCGWYZ5VN3SBGHR9M2", "dateTime": 1520893890400}, {"current_trial": 118, "trialdata": {"rt": -1, "trial_type": "single-stim", "word": "marine", "stimulus": "<p id=\"stim\">MARINE</p>", "conditions": [24, 800, "v", 24000], "internal_node_id": "0.0-82.0", "trial": 3, "time_elapsed": 603024, "serialpos": 1, "key_press": -1, "wordID": 868, "type": "PRES_VIS", "trial_index": 118}, "uniqueid": "MTK3671:32KTQ2V7REMJFCGWYZ5VN3SBGHR9M2", "dateTime": 1520893892306}, {"current_trial": 119, "trialdata": {"rt": -1, "trial_type": "single-stim", "word": "crutch", "stimulus": "<p id=\"stim\">CRUTCH</p>", "conditions": [24, 800, "v", 24000], "internal_node_id": "0.0-83.0", "trial": 3, "time_elapsed": 604669, "serialpos": 2, "key_press": -1, "wordID": 416, "type": "PRES_VIS", "trial_index": 119}, "uniqueid": "MTK3671:32KTQ2V7REMJFCGWYZ5VN3SBGHR9M2", "dateTime": 1520893893951}, {"current_trial": 120, "trialdata": {"rt": -1, "trial_type": "single-stim", "word": "crater", "stimulus": "<p id=\"stim\">CRATER</p>", "conditions": [24, 800, "v", 24000], "internal_node_id": "0.0-84.0", "trial": 3, "time_elapsed": 606503, "serialpos": 3, "key_press": -1, "wordID": 399, "type": "PRES_VIS", "trial_index": 120}, "uniqueid": "MTK3671:32KTQ2V7REMJFCGWYZ5VN3SBGHR9M2", "dateTime": 1520893895785}, {"current_trial": 121, "trialdata": {"rt": -1, "trial_type": "single-stim", "word": "journal", "stimulus": "<p id=\"stim\">JOURNAL</p>", "conditions": [24, 800, "v", 24000], "internal_node_id": "0.0-85.0", "trial": 3, "time_elapsed": 608354, "serialpos": 4, "key_press": -1, "wordID": 759, "type": "PRES_VIS", "trial_index": 121}, "uniqueid": "MTK3671:32KTQ2V7REMJFCGWYZ5VN3SBGHR9M2", "dateTime": 1520893897636}, {"current_trial": 122, "trialdata": {"rt": -1, "trial_type": "single-stim", "word": "sculpture", "stimulus": "<p id=\"stim\">SCULPTURE</p>", "conditions": [24, 800, "v", 24000], "internal_node_id": "0.0-86.0", "trial": 3, "time_elapsed": 610154, "serialpos": 5, "key_press": -1, "wordID": 1257, "type": "PRES_VIS", "trial_index": 122}, "uniqueid": "MTK3671:32KTQ2V7REMJFCGWYZ5VN3SBGHR9M2", "dateTime": 1520893899436}, {"current_trial": 123, "trialdata": {"rt": -1, "trial_type": "single-stim", "word": "pigment", "stimulus": "<p id=\"stim\">PIGMENT</p>", "conditions": [24, 800, "v", 24000], "internal_node_id": "0.0-87.0", "trial": 3, "time_elapsed": 612078, "serialpos": 6, "key_press": -1, "wordID": 1065, "type": "PRES_VIS", "trial_index": 123}, "uniqueid": "MTK3671:32KTQ2V7REMJFCGWYZ5VN3SBGHR9M2", "dateTime": 1520893901361}, {"current_trial": 124, "trialdata": {"rt": -1, "trial_type": "single-stim", "word": "wardrobe", "stimulus": "<p id=\"stim\">WARDROBE</p>", "conditions": [24, 800, "v", 24000], "internal_node_id": "0.0-88.0", "trial": 3, "time_elapsed": 613914, "serialpos": 7, "key_press": -1, "wordID": 1586, "type": "PRES_VIS", "trial_index": 124}, "uniqueid": "MTK3671:32KTQ2V7REMJFCGWYZ5VN3SBGHR9M2", "dateTime": 1520893903196}, {"current_trial": 125, "trialdata": {"rt": -1, "trial_type": "single-stim", "word": "blouse", "stimulus": "<p id=\"stim\">BLOUSE</p>", "conditions": [24, 800, "v", 24000], "internal_node_id": "0.0-89.0", "trial": 3, "time_elapsed": 615626, "serialpos": 8, "key_press": -1, "wordID": 138, "type": "PRES_VIS", "trial_index": 125}, "uniqueid": "MTK3671:32KTQ2V7REMJFCGWYZ5VN3SBGHR9M2", "dateTime": 1520893904908}, {"current_trial": 126, "trialdata": {"rt": -1, "trial_type": "single-stim", "word": "orange", "stimulus": "<p id=\"stim\">ORANGE</p>", "conditions": [24, 800, "v", 24000], "internal_node_id": "0.0-90.0", "trial": 3, "time_elapsed": 617536, "serialpos": 9, "key_press": -1, "wordID": 979, "type": "PRES_VIS", "trial_index": 126}, "uniqueid": "MTK3671:32KTQ2V7REMJFCGWYZ5VN3SBGHR9M2", "dateTime": 1520893906818}, {"current_trial": 127, "trialdata": {"rt": -1, "trial_type": "single-stim", "word": "lava", "stimulus": "<p id=\"stim\">LAVA</p>", "conditions": [24, 800, "v", 24000], "internal_node_id": "0.0-91.0", "trial": 3, "time_elapsed": 619420, "serialpos": 10, "key_press": -1, "wordID": 803, "type": "PRES_VIS", "trial_index": 127}, "uniqueid": "MTK3671:32KTQ2V7REMJFCGWYZ5VN3SBGHR9M2", "dateTime": 1520893908702}, {"current_trial": 128, "trialdata": {"rt": -1, "trial_type": "single-stim", "word": "mammal", "stimulus": "<p id=\"stim\">MAMMAL</p>", "conditions": [24, 800, "v", 24000], "internal_node_id": "0.0-92.0", "trial": 3, "time_elapsed": 621326, "serialpos": 11, "key_press": -1, "wordID": 860, "type": "PRES_VIS", "trial_index": 128}, "uniqueid": "MTK3671:32KTQ2V7REMJFCGWYZ5VN3SBGHR9M2", "dateTime": 1520893910608}, {"current_trial": 129, "trialdata": {"rt": -1, "trial_type": "single-stim", "word": "penguin", "stimulus": "<p id=\"stim\">PENGUIN</p>", "conditions": [24, 800, "v", 24000], "internal_node_id": "0.0-93.0", "trial": 3, "time_elapsed": 622955, "serialpos": 12, "key_press": -1, "wordID": 1043, "type": "PRES_VIS", "trial_index": 129}, "uniqueid": "MTK3671:32KTQ2V7REMJFCGWYZ5VN3SBGHR9M2", "dateTime": 1520893912238}, {"current_trial": 130, "trialdata": {"rt": -1, "trial_type": "single-stim", "word": "sketch", "stimulus": "<p id=\"stim\">SKETCH</p>", "conditions": [24, 800, "v", 24000], "internal_node_id": "0.0-94.0", "trial": 3, "time_elapsed": 624686, "serialpos": 13, "key_press": -1, "wordID": 1314, "type": "PRES_VIS", "trial_index": 130}, "uniqueid": "MTK3671:32KTQ2V7REMJFCGWYZ5VN3SBGHR9M2", "dateTime": 1520893913968}, {"current_trial": 131, "trialdata": {"rt": -1, "trial_type": "single-stim", "word": "pimple", "stimulus": "<p id=\"stim\">PIMPLE</p>", "conditions": [24, 800, "v", 24000], "internal_node_id": "0.0-95.0", "trial": 3, "time_elapsed": 626631, "serialpos": 14, "key_press": -1, "wordID": 1070, "type": "PRES_VIS", "trial_index": 131}, "uniqueid": "MTK3671:32KTQ2V7REMJFCGWYZ5VN3SBGHR9M2", "dateTime": 1520893915913}, {"current_trial": 132, "trialdata": {"rt": -1, "trial_type": "single-stim", "word": "necklace", "stimulus": "<p id=\"stim\">NECKLACE</p>", "conditions": [24, 800, "v", 24000], "internal_node_id": "0.0-96.0", "trial": 3, "time_elapsed": 628558, "serialpos": 15, "key_press": -1, "wordID": 939, "type": "PRES_VIS", "trial_index": 132}, "uniqueid": "MTK3671:32KTQ2V7REMJFCGWYZ5VN3SBGHR9M2", "dateTime": 1520893917840}, {"current_trial": 133, "trialdata": {"rt": -1, "trial_type": "single-stim", "word": "actor", "stimulus": "<p id=\"stim\">ACTOR</p>", "conditions": [24, 800, "v", 24000], "internal_node_id": "0.0-97.0", "trial": 3, "time_elapsed": 630554, "serialpos": 16, "key_press": -1, "wordID": 4, "type": "PRES_VIS", "trial_index": 133}, "uniqueid": "MTK3671:32KTQ2V7REMJFCGWYZ5VN3SBGHR9M2", "dateTime": 1520893919836}, {"current_trial": 134, "trialdata": {"rt": -1, "trial_type": "single-stim", "word": "actress", "stimulus": "<p id=\"stim\">ACTRESS</p>", "conditions": [24, 800, "v", 24000], "internal_node_id": "0.0-98.0", "trial": 3, "time_elapsed": 632422, "serialpos": 17, "key_press": -1, "wordID": 5, "type": "PRES_VIS", "trial_index": 134}, "uniqueid": "MTK3671:32KTQ2V7REMJFCGWYZ5VN3SBGHR9M2", "dateTime": 1520893921704}, {"current_trial": 135, "trialdata": {"rt": -1, "trial_type": "single-stim", "word": "tourist", "stimulus": "<p id=\"stim\">TOURIST</p>", "conditions": [24, 800, "v", 24000], "internal_node_id": "0.0-99.0", "trial": 3, "time_elapsed": 634190, "serialpos": 18, "key_press": -1, "wordID": 1487, "type": "PRES_VIS", "trial_index": 135}, "uniqueid": "MTK3671:32KTQ2V7REMJFCGWYZ5VN3SBGHR9M2", "dateTime": 1520893923472}, {"current_trial": 136, "trialdata": {"rt": -1, "trial_type": "single-stim", "word": "europe", "stimulus": "<p id=\"stim\">EUROPE</p>", "conditions": [24, 800, "v", 24000], "internal_node_id": "0.0-100.0", "trial": 3, "time_elapsed": 635951, "serialpos": 19, "key_press": -1, "wordID": 540, "type": "PRES_VIS", "trial_index": 136}, "uniqueid": "MTK3671:32KTQ2V7REMJFCGWYZ5VN3SBGHR9M2", "dateTime": 1520893925234}, {"current_trial": 137, "trialdata": {"rt": -1, "trial_type": "single-stim", "word": "fragrance", "stimulus": "<p id=\"stim\">FRAGRANCE</p>", "conditions": [24, 800, "v", 24000], "internal_node_id": "0.0-101.0", "trial": 3, "time_elapsed": 637949, "serialpos": 20, "key_press": -1, "wordID": 598, "type": "PRES_VIS", "trial_index": 137}, "uniqueid": "MTK3671:32KTQ2V7REMJFCGWYZ5VN3SBGHR9M2", "dateTime": 1520893927231}, {"current_trial": 138, "trialdata": {"rt": -1, "trial_type": "single-stim", "word": "dolphin", "stimulus": "<p id=\"stim\">DOLPHIN</p>", "conditions": [24, 800, "v", 24000], "internal_node_id": "0.0-102.0", "trial": 3, "time_elapsed": 639696, "serialpos": 21, "key_press": -1, "wordID": 482, "type": "PRES_VIS", "trial_index": 138}, "uniqueid": "MTK3671:32KTQ2V7REMJFCGWYZ5VN3SBGHR9M2", "dateTime": 1520893928978}, {"current_trial": 139, "trialdata": {"rt": -1, "trial_type": "single-stim", "word": "temple", "stimulus": "<p id=\"stim\">TEMPLE</p>", "conditions": [24, 800, "v", 24000], "internal_node_id": "0.0-103.0", "trial": 3, "time_elapsed": 641529, "serialpos": 22, "key_press": -1, "wordID": 1447, "type": "PRES_VIS", "trial_index": 139}, "uniqueid": "MTK3671:32KTQ2V7REMJFCGWYZ5VN3SBGHR9M2", "dateTime": 1520893930813}, {"current_trial": 140, "trialdata": {"rt": -1, "trial_type": "single-stim", "word": "seafood", "stimulus": "<p id=\"stim\">SEAFOOD</p>", "conditions": [24, 800, "v", 24000], "internal_node_id": "0.0-104.0", "trial": 3, "time_elapsed": 643306, "serialpos": 23, "key_press": -1, "wordID": 1259, "type": "PRES_VIS", "trial_index": 140}, "uniqueid": "MTK3671:32KTQ2V7REMJFCGWYZ5VN3SBGHR9M2", "dateTime": 1520893932588}, {"current_trial": 141, "trialdata": {"rt": -1, "trial_type": "single-stim", "stimulus": "", "internal_node_id": "0.0-105.0-0.0", "time_elapsed": 645418, "key_press": -1, "type": "PRE_RECALL_DELAY", "trial_index": 141}, "uniqueid": "MTK3671:32KTQ2V7REMJFCGWYZ5VN3SBGHR9M2", "dateTime": 1520893934700}, {"current_trial": 142, "trialdata": {"rt": -1000, "trial_type": "single-audio", "stimulus": "/static/audio/400Hz.wav", "internal_node_id": "0.0-106.0", "time_elapsed": 645919, "key_press": -1, "type": "PRE_RECALL_ALERT", "trial_index": 142}, "uniqueid": "MTK3671:32KTQ2V7REMJFCGWYZ5VN3SBGHR9M2", "dateTime": 1520893935201}, {"current_trial": 143, "trialdata": {"rt": [7146, 9866, 10481, 12338, 14418, 21610, 23585, 25042, 27848, 30137, 32345, 34841, 36082, 37809, 40793, 43729, 46953], "recwords": ["scallop", "crutch", "a", "marine", "journal", "sculpture", "orange", "lava", "mammal", "penguin", "pimple", "necklace", "actor", "actress", "tourist", "europe", "fragrancd"], "key_times": [4538, 4857, 5010, 5169, 5313, 5553, 5881, 6146, 6321, 6521, 6641, 7146, 8449, 8690, 8994, 9312, 9466, 9617, 9866, 10361, 10481, 10857, 11153, 11241, 11633, 11778, 12114, 12209, 12338, 13194, 13417, 13537, 13762, 13922, 14082, 14194, 14418, 14954, 15193, 15297, 15546, 15681, 16057, 16361, 17345, 17536, 17705, 18473, 20209, 20441, 21097, 21209, 21377, 21481, 21610, 22073, 22289, 22641, 22737, 23008, 23137, 23585, 24425, 24537, 24785, 24880, 25042, 26025, 26137, 26250, 26433, 27105, 27273, 27432, 27609, 27848, 28353, 28608, 28721, 29337, 29529, 29600, 29857, 30137, 31217, 31377, 31665, 31905, 32081, 32217, 32345, 33146, 33433, 33673, 33833, 34033, 34137, 34425, 34721, 34841, 35138, 35416, 35586, 35841, 35937, 36082, 36377, 36609, 36802, 36938, 37065, 37561, 37673, 37809, 38729, 38816, 38993, 39082, 39257, 39537, 40162, 40298, 40513, 40793, 41489, 42033, 42137, 42257, 42665, 43033, 43161, 43369, 43729, 44553, 44769, 45073, 45657, 45913, 46217, 46337, 46569, 46801, 46953], "trial_type": "free-recall", "conditions": [24, 800, "v", 24000], "internal_node_id": "0.0-107.0-0.0", "key_presses": [65, 8, 83, 67, 65, 79, 8, 76, 76, 79, 80, 13, 67, 82, 85, 84, 67, 72, 13, 65, 188, 8, 77, 65, 82, 73, 78, 69, 13, 74, 79, 85, 82, 78, 65, 76, 13, 83, 67, 85, 76, 84, 80, 85, 8, 8, 8, 8, 76, 80, 84, 85, 82, 69, 13, 79, 82, 65, 78, 71, 69, 32, 76, 65, 86, 65, 13, 77, 65, 77, 65, 8, 77, 65, 76, 13, 80, 69, 78, 71, 85, 73, 78, 13, 80, 73, 77, 80, 76, 69, 13, 78, 69, 67, 75, 76, 65, 67, 69, 13, 65, 67, 84, 79, 82, 13, 65, 67, 84, 82, 69, 83, 83, 13, 84, 79, 85, 82, 73, 68, 8, 83, 84, 13, 87, 8, 69, 85, 82, 79, 80, 69, 13, 70, 82, 65, 71, 82, 65, 78, 67, 68, 13], "trial": 3, "time_elapsed": 705926, "type": "FREE_RECALL", "trial_index": 143}, "uniqueid": "MTK3671:32KTQ2V7REMJFCGWYZ5VN3SBGHR9M2", "dateTime": 1520893995212}, {"current_trial": 144, "trialdata": {"rt": 1595, "trial_type": "text", "internal_node_id": "0.0-108.0", "time_elapsed": 709529, "key_press": 32, "type": "INSTRUCTIONS", "trial_index": 144}, "uniqueid": "MTK3671:32KTQ2V7REMJFCGWYZ5VN3SBGHR9M2", "dateTime": 1520893998811}, {"current_trial": 145, "trialdata": {"rt": [3043, 4828, 6740, 12907, 19011, 21348], "trial_type": "math-distractor", "key_times": [2660, 2731, 3043, 4396, 4828, 6316, 6484, 6740, 11811, 11996, 12257, 12907, 18508, 18803, 19011, 20762, 21091, 21348, 23835], "responses": ["10", "9", "17", "11", "24", "14"], "num2": [1, 4, 4, 5, 9, 6, 8], "num3": [6, 4, 6, 1, 8, 1, 9], "conditions": [12, 800, "v", 24000], "internal_node_id": "0.0-109.0", "key_presses": [49, 48, 13, 57, 13, 49, 55, 13, 49, 49, 16, 13, 50, 52, 13, 49, 52, 13, 50], "trial": 4, "time_elapsed": 735537, "type": "DISTRACTOR", "trial_index": 145, "num1": [3, 1, 7, 8, 7, 7, 7]}, "uniqueid": "MTK3671:32KTQ2V7REMJFCGWYZ5VN3SBGHR9M2", "dateTime": 1520894024820}, {"current_trial": 146, "trialdata": {"rt": -1, "trial_type": "single-stim", "stimulus": "<p id=\"stim\">10</p>", "internal_node_id": "0.0-110.0-0.0", "time_elapsed": 738543, "key_press": -1, "trial_index": 146}, "uniqueid": "MTK3671:32KTQ2V7REMJFCGWYZ5VN3SBGHR9M2", "dateTime": 1520894027825}, {"current_trial": 147, "trialdata": {"rt": -1, "trial_type": "single-stim", "stimulus": "<p id=\"stim\">9</p>", "internal_node_id": "0.0-110.0-1.0", "time_elapsed": 739546, "key_press": -1, "trial_index": 147}, "uniqueid": "MTK3671:32KTQ2V7REMJFCGWYZ5VN3SBGHR9M2", "dateTime": 1520894028829}, {"current_trial": 148, "trialdata": {"rt": -1, "trial_type": "single-stim", "stimulus": "<p id=\"stim\">8</p>", "internal_node_id": "0.0-110.0-2.0", "time_elapsed": 740550, "key_press": -1, "trial_index": 148}, "uniqueid": "MTK3671:32KTQ2V7REMJFCGWYZ5VN3SBGHR9M2", "dateTime": 1520894029833}, {"current_trial": 149, "trialdata": {"rt": -1, "trial_type": "single-stim", "stimulus": "<p id=\"stim\">7</p>", "internal_node_id": "0.0-110.0-3.0", "time_elapsed": 741555, "key_press": -1, "trial_index": 149}, "uniqueid": "MTK3671:32KTQ2V7REMJFCGWYZ5VN3SBGHR9M2", "dateTime": 1520894030837}, {"current_trial": 150, "trialdata": {"rt": -1, "trial_type": "single-stim", "stimulus": "<p id=\"stim\">6</p>", "internal_node_id": "0.0-110.0-4.0", "time_elapsed": 742559, "key_press": -1, "trial_index": 150}, "uniqueid": "MTK3671:32KTQ2V7REMJFCGWYZ5VN3SBGHR9M2", "dateTime": 1520894031841}, {"current_trial": 151, "trialdata": {"rt": -1, "trial_type": "single-stim", "stimulus": "<p id=\"stim\">5</p>", "internal_node_id": "0.0-110.0-5.0", "time_elapsed": 743563, "key_press": -1, "trial_index": 151}, "uniqueid": "MTK3671:32KTQ2V7REMJFCGWYZ5VN3SBGHR9M2", "dateTime": 1520894032846}, {"current_trial": 152, "trialdata": {"rt": -1, "trial_type": "single-stim", "stimulus": "<p id=\"stim\">4</p>", "internal_node_id": "0.0-110.0-6.0", "time_elapsed": 744567, "key_press": -1, "trial_index": 152}, "uniqueid": "MTK3671:32KTQ2V7REMJFCGWYZ5VN3SBGHR9M2", "dateTime": 1520894033849}, {"current_trial": 153, "trialdata": {"rt": -1, "trial_type": "single-stim", "stimulus": "<p id=\"stim\">3</p>", "internal_node_id": "0.0-110.0-7.0", "time_elapsed": 745571, "key_press": -1, "trial_index": 153}, "uniqueid": "MTK3671:32KTQ2V7REMJFCGWYZ5VN3SBGHR9M2", "dateTime": 1520894034853}, {"current_trial": 154, "trialdata": {"rt": -1, "trial_type": "single-stim", "stimulus": "<p id=\"stim\">2</p>", "internal_node_id": "0.0-110.0-8.0", "time_elapsed": 746575, "key_press": -1, "trial_index": 154}, "uniqueid": "MTK3671:32KTQ2V7REMJFCGWYZ5VN3SBGHR9M2", "dateTime": 1520894035858}, {"current_trial": 155, "trialdata": {"rt": -1, "trial_type": "single-stim", "stimulus": "<p id=\"stim\">1</p>", "internal_node_id": "0.0-110.0-9.0", "time_elapsed": 747579, "key_press": -1, "trial_index": 155}, "uniqueid": "MTK3671:32KTQ2V7REMJFCGWYZ5VN3SBGHR9M2", "dateTime": 1520894036862}, {"current_trial": 156, "trialdata": {"rt": -1, "trial_type": "single-stim", "stimulus": "<p id=\"stim\">+</p>", "internal_node_id": "0.0-111.0-0.0", "time_elapsed": 749084, "key_press": -1, "type": "FIXATION", "trial_index": 156}, "uniqueid": "MTK3671:32KTQ2V7REMJFCGWYZ5VN3SBGHR9M2", "dateTime": 1520894038366}, {"current_trial": 157, "trialdata": {"rt": -1, "trial_type": "single-stim", "word": "headband", "stimulus": "<p id=\"stim\">HEADBAND</p>", "conditions": [12, 800, "v", 24000], "internal_node_id": "0.0-112.0", "trial": 4, "time_elapsed": 749889, "serialpos": 0, "key_press": -1, "wordID": 695, "type": "PRES_VIS", "trial_index": 157}, "uniqueid": "MTK3671:32KTQ2V7REMJFCGWYZ5VN3SBGHR9M2", "dateTime": 1520894039171}, {"current_trial": 158, "trialdata": {"rt": -1, "trial_type": "single-stim", "word": "coffee", "stimulus": "<p id=\"stim\">COFFEE</p>", "conditions": [12, 800, "v", 24000], "internal_node_id": "0.0-113.0", "trial": 4, "time_elapsed": 751747, "serialpos": 1, "key_press": -1, "wordID": 340, "type": "PRES_VIS", "trial_index": 158}, "uniqueid": "MTK3671:32KTQ2V7REMJFCGWYZ5VN3SBGHR9M2", "dateTime": 1520894041029}, {"current_trial": 159, "trialdata": {"rt": -1, "trial_type": "single-stim", "word": "scotch", "stimulus": "<p id=\"stim\">SCOTCH</p>", "conditions": [12, 800, "v", 24000], "internal_node_id": "0.0-114.0", "trial": 4, "time_elapsed": 753442, "serialpos": 2, "key_press": -1, "wordID": 1250, "type": "PRES_VIS", "trial_index": 159}, "uniqueid": "MTK3671:32KTQ2V7REMJFCGWYZ5VN3SBGHR9M2", "dateTime": 1520894042724}, {"current_trial": 160, "trialdata": {"rt": -1, "trial_type": "single-stim", "word": "badge", "stimulus": "<p id=\"stim\">BADGE</p>", "conditions": [12, 800, "v", 24000], "internal_node_id": "0.0-115.0", "trial": 4, "time_elapsed": 755363, "serialpos": 3, "key_press": -1, "wordID": 67, "type": "PRES_VIS", "trial_index": 160}, "uniqueid": "MTK3671:32KTQ2V7REMJFCGWYZ5VN3SBGHR9M2", "dateTime": 1520894044646}, {"current_trial": 161, "trialdata": {"rt": -1, "trial_type": "single-stim", "word": "sticker", "stimulus": "<p id=\"stim\">STICKER</p>", "conditions": [12, 800, "v", 24000], "internal_node_id": "0.0-116.0", "trial": 4, "time_elapsed": 756971, "serialpos": 4, "key_press": -1, "wordID": 1381, "type": "PRES_VIS", "trial_index": 161}, "uniqueid": "MTK3671:32KTQ2V7REMJFCGWYZ5VN3SBGHR9M2", "dateTime": 1520894046253}, {"current_trial": 162, "trialdata": {"rt": -1, "trial_type": "single-stim", "word": "branch", "stimulus": "<p id=\"stim\">BRANCH</p>", "conditions": [12, 800, "v", 24000], "internal_node_id": "0.0-117.0", "trial": 4, "time_elapsed": 758729, "serialpos": 5, "key_press": -1, "wordID": 167, "type": "PRES_VIS", "trial_index": 162}, "uniqueid": "MTK3671:32KTQ2V7REMJFCGWYZ5VN3SBGHR9M2", "dateTime": 1520894048011}, {"current_trial": 163, "trialdata": {"rt": -1, "trial_type": "single-stim", "word": "boyfriend", "stimulus": "<p id=\"stim\">BOYFRIEND</p>", "conditions": [12, 800, "v", 24000], "internal_node_id": "0.0-118.0", "trial": 4, "time_elapsed": 760476, "serialpos": 6, "key_press": -1, "wordID": 161, "type": "PRES_VIS", "trial_index": 163}, "uniqueid": "MTK3671:32KTQ2V7REMJFCGWYZ5VN3SBGHR9M2", "dateTime": 1520894049758}, {"current_trial": 164, "trialdata": {"rt": -1, "trial_type": "single-stim", "word": "brandy", "stimulus": "<p id=\"stim\">BRANDY</p>", "conditions": [12, 800, "v", 24000], "internal_node_id": "0.0-119.0", "trial": 4, "time_elapsed": 762195, "serialpos": 7, "key_press": -1, "wordID": 168, "type": "PRES_VIS", "trial_index": 164}, "uniqueid": "MTK3671:32KTQ2V7REMJFCGWYZ5VN3SBGHR9M2", "dateTime": 1520894051478}, {"current_trial": 165, "trialdata": {"rt": -1, "trial_type": "single-stim", "word": "lagoon", "stimulus": "<p id=\"stim\">LAGOON</p>", "conditions": [12, 800, "v", 24000], "internal_node_id": "0.0-120.0", "trial": 4, "time_elapsed": 763874, "serialpos": 8, "key_press": -1, "wordID": 794, "type": "PRES_VIS", "trial_index": 165}, "uniqueid": "MTK3671:32KTQ2V7REMJFCGWYZ5VN3SBGHR9M2", "dateTime": 1520894053157}, {"current_trial": 166, "trialdata": {"rt": -1, "trial_type": "single-stim", "word": "garden", "stimulus": "<p id=\"stim\">GARDEN</p>", "conditions": [12, 800, "v", 24000], "internal_node_id": "0.0-121.0", "trial": 4, "time_elapsed": 765798, "serialpos": 9, "key_press": -1, "wordID": 622, "type": "PRES_VIS", "trial_index": 166}, "uniqueid": "MTK3671:32KTQ2V7REMJFCGWYZ5VN3SBGHR9M2", "dateTime": 1520894055080}, {"current_trial": 167, "trialdata": {"rt": -1, "trial_type": "single-stim", "word": "kleenex", "stimulus": "<p id=\"stim\">KLEENEX</p>", "conditions": [12, 800, "v", 24000], "internal_node_id": "0.0-122.0", "trial": 4, "time_elapsed": 767766, "serialpos": 10, "key_press": -1, "wordID": 781, "type": "PRES_VIS", "trial_index": 167}, "uniqueid": "MTK3671:32KTQ2V7REMJFCGWYZ5VN3SBGHR9M2", "dateTime": 1520894057048}, {"current_trial": 168, "trialdata": {"rt": -1, "trial_type": "single-stim", "word": "hamper", "stimulus": "<p id=\"stim\">HAMPER</p>", "conditions": [12, 800, "v", 24000], "internal_node_id": "0.0-123.0", "trial": 4, "time_elapsed": 769710, "serialpos": 11, "key_press": -1, "wordID": 681, "type": "PRES_VIS", "trial_index": 168}, "uniqueid": "MTK3671:32KTQ2V7REMJFCGWYZ5VN3SBGHR9M2", "dateTime": 1520894058993}, {"current_trial": 169, "trialdata": {"rt": -1, "trial_type": "single-stim", "stimulus": "", "internal_node_id": "0.0-124.0-0.0", "time_elapsed": 771840, "key_press": -1, "type": "PRE_RECALL_DELAY", "trial_index": 169}, "uniqueid": "MTK3671:32KTQ2V7REMJFCGWYZ5VN3SBGHR9M2", "dateTime": 1520894061122}, {"current_trial": 170, "trialdata": {"rt": -1000, "trial_type": "single-audio", "stimulus": "/static/audio/400Hz.wav", "internal_node_id": "0.0-125.0", "time_elapsed": 772342, "key_press": -1, "type": "PRE_RECALL_ALERT", "trial_index": 170}, "uniqueid": "MTK3671:32KTQ2V7REMJFCGWYZ5VN3SBGHR9M2", "dateTime": 1520894061624}, {"current_trial": 171, "trialdata": {"rt": [8198, 9718, 11590, 14910, 16453, 17854, 18238, 20438, 22030, 24262, 27204, 29166, 43278, 46909], "recwords": ["headband", "coffee", "scotch", "badge", "sticker", "branch", "", "boyfriend", "lagoon", "garden", "kleenex", "hamper", "sticker", "brandy"], "key_times": [6557, 6622, 6855, 6966, 7424, 7551, 7678, 8061, 8198, 8478, 8614, 8943, 9134, 9357, 9494, 9718, 10046, 10270, 10759, 10927, 11278, 11375, 11590, 12134, 12294, 12678, 12958, 13173, 13782, 13958, 14054, 14166, 14590, 14718, 14910, 15182, 15358, 15733, 15894, 15982, 16238, 16358, 16453, 16830, 17054, 17342, 17438, 17662, 17764, 17854, 18238, 18888, 19109, 19325, 19598, 19790, 19910, 20070, 20205, 20310, 20438, 20959, 21078, 21334, 21566, 21694, 21846, 22030, 22451, 22566, 22910, 23333, 23397, 23630, 23886, 24014, 24262, 24878, 25077, 25158, 25318, 25662, 25845, 26373, 26934, 27038, 27204, 27646, 27806, 28005, 28727, 28798, 28950, 29166, 41958, 42230, 42573, 42701, 42830, 42965, 43093, 43278, 45766, 45901, 46205, 46253, 46525, 46637, 46909], "trial_type": "free-recall", "conditions": [12, 800, "v", 24000], "internal_node_id": "0.0-126.0-0.0", "key_presses": [72, 69, 65, 68, 66, 65, 78, 68, 13, 67, 79, 70, 70, 69, 69, 13, 83, 67, 79, 84, 67, 72, 13, 66, 65, 71, 68, 69, 8, 8, 8, 68, 71, 69, 13, 83, 84, 73, 67, 75, 69, 82, 13, 66, 82, 65, 78, 67, 72, 32, 13, 66, 79, 89, 70, 82, 73, 69, 78, 68, 13, 76, 65, 71, 79, 79, 78, 13, 71, 65, 68, 8, 82, 68, 69, 78, 13, 75, 76, 69, 69, 78, 69, 90, 8, 88, 13, 72, 65, 77, 80, 69, 82, 13, 83, 84, 73, 67, 75, 69, 82, 13, 66, 82, 65, 78, 68, 89, 13], "trial": 4, "time_elapsed": 832348, "type": "FREE_RECALL", "trial_index": 171}, "uniqueid": "MTK3671:32KTQ2V7REMJFCGWYZ5VN3SBGHR9M2", "dateTime": 1520894121634}, {"current_trial": 172, "trialdata": {"rt": 1323, "trial_type": "text", "internal_node_id": "0.0-127.0", "time_elapsed": 835679, "key_press": 32, "type": "INSTRUCTIONS", "trial_index": 172}, "uniqueid": "MTK3671:32KTQ2V7REMJFCGWYZ5VN3SBGHR9M2", "dateTime": 1520894124961}, {"current_trial": 173, "trialdata": {"rt": [1516, 3380, 6316, 8724], "trial_type": "math-distractor", "key_times": [1148, 1244, 1516, 3042, 3236, 3380, 5804, 6084, 6316, 8197, 8548, 8724, 11132, 11516], "responses": ["19", "14", "17", "13"], "num2": [7, 1, 6, 1, 6], "num3": [3, 6, 3, 5, 8], "conditions": [24, 1600, "v", 12000], "internal_node_id": "0.0-128.0", "key_presses": [49, 57, 13, 49, 52, 13, 49, 55, 13, 49, 51, 13, 50, 52], "trial": 5, "time_elapsed": 849684, "type": "DISTRACTOR", "trial_index": 173, "num1": [9, 7, 8, 7, 7]}, "uniqueid": "MTK3671:32KTQ2V7REMJFCGWYZ5VN3SBGHR9M2", "dateTime": 1520894138967}, {"current_trial": 174, "trialdata": {"rt": -1, "trial_type": "single-stim", "stimulus": "<p id=\"stim\">10</p>", "internal_node_id": "0.0-129.0-0.0", "time_elapsed": 852690, "key_press": -1, "trial_index": 174}, "uniqueid": "MTK3671:32KTQ2V7REMJFCGWYZ5VN3SBGHR9M2", "dateTime": 1520894141973}, {"current_trial": 175, "trialdata": {"rt": -1, "trial_type": "single-stim", "stimulus": "<p id=\"stim\">9</p>", "internal_node_id": "0.0-129.0-1.0", "time_elapsed": 853694, "key_press": -1, "trial_index": 175}, "uniqueid": "MTK3671:32KTQ2V7REMJFCGWYZ5VN3SBGHR9M2", "dateTime": 1520894142976}, {"current_trial": 176, "trialdata": {"rt": -1, "trial_type": "single-stim", "stimulus": "<p id=\"stim\">8</p>", "internal_node_id": "0.0-129.0-2.0", "time_elapsed": 854698, "key_press": -1, "trial_index": 176}, "uniqueid": "MTK3671:32KTQ2V7REMJFCGWYZ5VN3SBGHR9M2", "dateTime": 1520894143980}, {"current_trial": 177, "trialdata": {"rt": -1, "trial_type": "single-stim", "stimulus": "<p id=\"stim\">7</p>", "internal_node_id": "0.0-129.0-3.0", "time_elapsed": 855702, "key_press": -1, "trial_index": 177}, "uniqueid": "MTK3671:32KTQ2V7REMJFCGWYZ5VN3SBGHR9M2", "dateTime": 1520894144985}, {"current_trial": 178, "trialdata": {"rt": -1, "trial_type": "single-stim", "stimulus": "<p id=\"stim\">6</p>", "internal_node_id": "0.0-129.0-4.0", "time_elapsed": 856707, "key_press": -1, "trial_index": 178}, "uniqueid": "MTK3671:32KTQ2V7REMJFCGWYZ5VN3SBGHR9M2", "dateTime": 1520894145989}, {"current_trial": 179, "trialdata": {"rt": -1, "trial_type": "single-stim", "stimulus": "<p id=\"stim\">5</p>", "internal_node_id": "0.0-129.0-5.0", "time_elapsed": 857711, "key_press": -1, "trial_index": 179}, "uniqueid": "MTK3671:32KTQ2V7REMJFCGWYZ5VN3SBGHR9M2", "dateTime": 1520894146993}, {"current_trial": 180, "trialdata": {"rt": -1, "trial_type": "single-stim", "stimulus": "<p id=\"stim\">4</p>", "internal_node_id": "0.0-129.0-6.0", "time_elapsed": 858715, "key_press": -1, "trial_index": 180}, "uniqueid": "MTK3671:32KTQ2V7REMJFCGWYZ5VN3SBGHR9M2", "dateTime": 1520894147997}, {"current_trial": 181, "trialdata": {"rt": -1, "trial_type": "single-stim", "stimulus": "<p id=\"stim\">3</p>", "internal_node_id": "0.0-129.0-7.0", "time_elapsed": 859721, "key_press": -1, "trial_index": 181}, "uniqueid": "MTK3671:32KTQ2V7REMJFCGWYZ5VN3SBGHR9M2", "dateTime": 1520894149003}, {"current_trial": 182, "trialdata": {"rt": -1, "trial_type": "single-stim", "stimulus": "<p id=\"stim\">2</p>", "internal_node_id": "0.0-129.0-8.0", "time_elapsed": 860723, "key_press": -1, "trial_index": 182}, "uniqueid": "MTK3671:32KTQ2V7REMJFCGWYZ5VN3SBGHR9M2", "dateTime": 1520894150005}, {"current_trial": 183, "trialdata": {"rt": -1, "trial_type": "single-stim", "stimulus": "<p id=\"stim\">1</p>", "internal_node_id": "0.0-129.0-9.0", "time_elapsed": 861727, "key_press": -1, "trial_index": 183}, "uniqueid": "MTK3671:32KTQ2V7REMJFCGWYZ5VN3SBGHR9M2", "dateTime": 1520894151009}, {"current_trial": 184, "trialdata": {"rt": -1, "trial_type": "single-stim", "stimulus": "<p id=\"stim\">+</p>", "internal_node_id": "0.0-130.0-0.0", "time_elapsed": 863230, "key_press": -1, "type": "FIXATION", "trial_index": 184}, "uniqueid": "MTK3671:32KTQ2V7REMJFCGWYZ5VN3SBGHR9M2", "dateTime": 1520894152512}, {"current_trial": 185, "trialdata": {"rt": -1, "trial_type": "single-stim", "word": "brick", "stimulus": "<p id=\"stim\">BRICK</p>", "conditions": [24, 1600, "v", 12000], "internal_node_id": "0.0-131.0", "trial": 5, "time_elapsed": 864831, "serialpos": 0, "key_press": -1, "wordID": 171, "type": "PRES_VIS", "trial_index": 185}, "uniqueid": "MTK3671:32KTQ2V7REMJFCGWYZ5VN3SBGHR9M2", "dateTime": 1520894154114}, {"current_trial": 186, "trialdata": {"rt": -1, "trial_type": "single-stim", "word": "poet", "stimulus": "<p id=\"stim\">POET</p>", "conditions": [24, 1600, "v", 12000], "internal_node_id": "0.0-132.0", "trial": 5, "time_elapsed": 867601, "serialpos": 1, "key_press": -1, "wordID": 1094, "type": "PRES_VIS", "trial_index": 186}, "uniqueid": "MTK3671:32KTQ2V7REMJFCGWYZ5VN3SBGHR9M2", "dateTime": 1520894156883}, {"current_trial": 187, "trialdata": {"rt": -1, "trial_type": "single-stim", "word": "student", "stimulus": "<p id=\"stim\">STUDENT</p>", "conditions": [24, 1600, "v", 12000], "internal_node_id": "0.0-133.0", "trial": 5, "time_elapsed": 870008, "serialpos": 2, "key_press": -1, "wordID": 1394, "type": "PRES_VIS", "trial_index": 187}, "uniqueid": "MTK3671:32KTQ2V7REMJFCGWYZ5VN3SBGHR9M2", "dateTime": 1520894159291}, {"current_trial": 188, "trialdata": {"rt": -1, "trial_type": "single-stim", "word": "stone", "stimulus": "<p id=\"stim\">STONE</p>", "conditions": [24, 1600, "v", 12000], "internal_node_id": "0.0-134.0", "trial": 5, "time_elapsed": 872586, "serialpos": 3, "key_press": -1, "wordID": 1384, "type": "PRES_VIS", "trial_index": 188}, "uniqueid": "MTK3671:32KTQ2V7REMJFCGWYZ5VN3SBGHR9M2", "dateTime": 1520894161868}, {"current_trial": 189, "trialdata": {"rt": -1, "trial_type": "single-stim", "word": "lunch", "stimulus": "<p id=\"stim\">LUNCH</p>", "conditions": [24, 1600, "v", 12000], "internal_node_id": "0.0-135.0", "trial": 5, "time_elapsed": 875111, "serialpos": 4, "key_press": -1, "wordID": 848, "type": "PRES_VIS", "trial_index": 189}, "uniqueid": "MTK3671:32KTQ2V7REMJFCGWYZ5VN3SBGHR9M2", "dateTime": 1520894164393}, {"current_trial": 190, "trialdata": {"rt": -1, "trial_type": "single-stim", "word": "candy", "stimulus": "<p id=\"stim\">CANDY</p>", "conditions": [24, 1600, "v", 12000], "internal_node_id": "0.0-136.0", "trial": 5, "time_elapsed": 877780, "serialpos": 5, "key_press": -1, "wordID": 229, "type": "PRES_VIS", "trial_index": 190}, "uniqueid": "MTK3671:32KTQ2V7REMJFCGWYZ5VN3SBGHR9M2", "dateTime": 1520894167063}, {"current_trial": 191, "trialdata": {"rt": -1, "trial_type": "single-stim", "word": "typist", "stimulus": "<p id=\"stim\">TYPIST</p>", "conditions": [24, 1600, "v", 12000], "internal_node_id": "0.0-137.0", "trial": 5, "time_elapsed": 880508, "serialpos": 6, "key_press": -1, "wordID": 1531, "type": "PRES_VIS", "trial_index": 191}, "uniqueid": "MTK3671:32KTQ2V7REMJFCGWYZ5VN3SBGHR9M2", "dateTime": 1520894169790}, {"current_trial": 192, "trialdata": {"rt": -1, "trial_type": "single-stim", "word": "lake", "stimulus": "<p id=\"stim\">LAKE</p>", "conditions": [24, 1600, "v", 12000], "internal_node_id": "0.0-138.0", "trial": 5, "time_elapsed": 883045, "serialpos": 7, "key_press": -1, "wordID": 795, "type": "PRES_VIS", "trial_index": 192}, "uniqueid": "MTK3671:32KTQ2V7REMJFCGWYZ5VN3SBGHR9M2", "dateTime": 1520894172327}, {"current_trial": 193, "trialdata": {"rt": -1, "trial_type": "single-stim", "word": "river", "stimulus": "<p id=\"stim\">RIVER</p>", "conditions": [24, 1600, "v", 12000], "internal_node_id": "0.0-139.0", "trial": 5, "time_elapsed": 885476, "serialpos": 8, "key_press": -1, "wordID": 1193, "type": "PRES_VIS", "trial_index": 193}, "uniqueid": "MTK3671:32KTQ2V7REMJFCGWYZ5VN3SBGHR9M2", "dateTime": 1520894174758}, {"current_trial": 194, "trialdata": {"rt": -1, "trial_type": "single-stim", "word": "gymnast", "stimulus": "<p id=\"stim\">GYMNAST</p>", "conditions": [24, 1600, "v", 12000], "internal_node_id": "0.0-140.0", "trial": 5, "time_elapsed": 888074, "serialpos": 9, "key_press": -1, "wordID": 674, "type": "PRES_VIS", "trial_index": 194}, "uniqueid": "MTK3671:32KTQ2V7REMJFCGWYZ5VN3SBGHR9M2", "dateTime": 1520894177356}, {"current_trial": 195, "trialdata": {"rt": -1, "trial_type": "single-stim", "word": "sausage", "stimulus": "<p id=\"stim\">SAUSAGE</p>", "conditions": [24, 1600, "v", 12000], "internal_node_id": "0.0-141.0", "trial": 5, "time_elapsed": 890584, "serialpos": 10, "key_press": -1, "wordID": 1237, "type": "PRES_VIS", "trial_index": 195}, "uniqueid": "MTK3671:32KTQ2V7REMJFCGWYZ5VN3SBGHR9M2", "dateTime": 1520894179866}, {"current_trial": 196, "trialdata": {"rt": -1, "trial_type": "single-stim", "word": "sibling", "stimulus": "<p id=\"stim\">SIBLING</p>", "conditions": [24, 1600, "v", 12000], "internal_node_id": "0.0-142.0", "trial": 5, "time_elapsed": 893306, "serialpos": 11, "key_press": -1, "wordID": 1300, "type": "PRES_VIS", "trial_index": 196}, "uniqueid": "MTK3671:32KTQ2V7REMJFCGWYZ5VN3SBGHR9M2", "dateTime": 1520894182589}, {"current_trial": 197, "trialdata": {"rt": -1, "trial_type": "single-stim", "word": "ulcer", "stimulus": "<p id=\"stim\">ULCER</p>", "conditions": [24, 1600, "v", 12000], "internal_node_id": "0.0-143.0", "trial": 5, "time_elapsed": 896016, "serialpos": 12, "key_press": -1, "wordID": 1532, "type": "PRES_VIS", "trial_index": 197}, "uniqueid": "MTK3671:32KTQ2V7REMJFCGWYZ5VN3SBGHR9M2", "dateTime": 1520894185298}, {"current_trial": 198, "trialdata": {"rt": -1, "trial_type": "single-stim", "word": "liver", "stimulus": "<p id=\"stim\">LIVER</p>", "conditions": [24, 1600, "v", 12000], "internal_node_id": "0.0-144.0", "trial": 5, "time_elapsed": 898802, "serialpos": 13, "key_press": -1, "wordID": 832, "type": "PRES_VIS", "trial_index": 198}, "uniqueid": "MTK3671:32KTQ2V7REMJFCGWYZ5VN3SBGHR9M2", "dateTime": 1520894188084}, {"current_trial": 199, "trialdata": {"rt": -1, "trial_type": "single-stim", "word": "shortcake", "stimulus": "<p id=\"stim\">SHORTCAKE</p>", "conditions": [24, 1600, "v", 12000], "internal_node_id": "0.0-145.0", "trial": 5, "time_elapsed": 901321, "serialpos": 14, "key_press": -1, "wordID": 1291, "type": "PRES_VIS", "trial_index": 199}, "uniqueid": "MTK3671:32KTQ2V7REMJFCGWYZ5VN3SBGHR9M2", "dateTime": 1520894190603}, {"current_trial": 200, "trialdata": {"rt": -1, "trial_type": "single-stim", "word": "banker", "stimulus": "<p id=\"stim\">BANKER</p>", "conditions": [24, 1600, "v", 12000], "internal_node_id": "0.0-146.0", "trial": 5, "time_elapsed": 904071, "serialpos": 15, "key_press": -1, "wordID": 83, "type": "PRES_VIS", "trial_index": 200}, "uniqueid": "MTK3671:32KTQ2V7REMJFCGWYZ5VN3SBGHR9M2", "dateTime": 1520894193353}, {"current_trial": 201, "trialdata": {"rt": -1, "trial_type": "single-stim", "word": "worker", "stimulus": "<p id=\"stim\">WORKER</p>", "conditions": [24, 1600, "v", 12000], "internal_node_id": "0.0-147.0", "trial": 5, "time_elapsed": 906730, "serialpos": 16, "key_press": -1, "wordID": 1620, "type": "PRES_VIS", "trial_index": 201}, "uniqueid": "MTK3671:32KTQ2V7REMJFCGWYZ5VN3SBGHR9M2", "dateTime": 1520894196012}, {"current_trial": 202, "trialdata": {"rt": -1, "trial_type": "single-stim", "word": "donkey", "stimulus": "<p id=\"stim\">DONKEY</p>", "conditions": [24, 1600, "v", 12000], "internal_node_id": "0.0-148.0", "trial": 5, "time_elapsed": 909162, "serialpos": 17, "key_press": -1, "wordID": 483, "type": "PRES_VIS", "trial_index": 202}, "uniqueid": "MTK3671:32KTQ2V7REMJFCGWYZ5VN3SBGHR9M2", "dateTime": 1520894198444}, {"current_trial": 203, "trialdata": {"rt": -1, "trial_type": "single-stim", "word": "camel", "stimulus": "<p id=\"stim\">CAMEL</p>", "conditions": [24, 1600, "v", 12000], "internal_node_id": "0.0-149.0", "trial": 5, "time_elapsed": 911948, "serialpos": 18, "key_press": -1, "wordID": 222, "type": "PRES_VIS", "trial_index": 203}, "uniqueid": "MTK3671:32KTQ2V7REMJFCGWYZ5VN3SBGHR9M2", "dateTime": 1520894201230}, {"current_trial": 204, "trialdata": {"rt": -1, "trial_type": "single-stim", "word": "marrow", "stimulus": "<p id=\"stim\">MARROW</p>", "conditions": [24, 1600, "v", 12000], "internal_node_id": "0.0-150.0", "trial": 5, "time_elapsed": 914560, "serialpos": 19, "key_press": -1, "wordID": 871, "type": "PRES_VIS", "trial_index": 204}, "uniqueid": "MTK3671:32KTQ2V7REMJFCGWYZ5VN3SBGHR9M2", "dateTime": 1520894203842}, {"current_trial": 205, "trialdata": {"rt": -1, "trial_type": "single-stim", "word": "clock", "stimulus": "<p id=\"stim\">CLOCK</p>", "conditions": [24, 1600, "v", 12000], "internal_node_id": "0.0-151.0", "trial": 5, "time_elapsed": 917345, "serialpos": 20, "key_press": -1, "wordID": 324, "type": "PRES_VIS", "trial_index": 205}, "uniqueid": "MTK3671:32KTQ2V7REMJFCGWYZ5VN3SBGHR9M2", "dateTime": 1520894206627}, {"current_trial": 206, "trialdata": {"rt": -1, "trial_type": "single-stim", "word": "thread", "stimulus": "<p id=\"stim\">THREAD</p>", "conditions": [24, 1600, "v", 12000], "internal_node_id": "0.0-152.0", "trial": 5, "time_elapsed": 919847, "serialpos": 21, "key_press": -1, "wordID": 1459, "type": "PRES_VIS", "trial_index": 206}, "uniqueid": "MTK3671:32KTQ2V7REMJFCGWYZ5VN3SBGHR9M2", "dateTime": 1520894209129}, {"current_trial": 207, "trialdata": {"rt": -1, "trial_type": "single-stim", "word": "turnip", "stimulus": "<p id=\"stim\">TURNIP</p>", "conditions": [24, 1600, "v", 12000], "internal_node_id": "0.0-153.0", "trial": 5, "time_elapsed": 922499, "serialpos": 22, "key_press": -1, "wordID": 1520, "type": "PRES_VIS", "trial_index": 207}, "uniqueid": "MTK3671:32KTQ2V7REMJFCGWYZ5VN3SBGHR9M2", "dateTime": 1520894211781}, {"current_trial": 208, "trialdata": {"rt": -1, "trial_type": "single-stim", "word": "picnic", "stimulus": "<p id=\"stim\">PICNIC</p>", "conditions": [24, 1600, "v", 12000], "internal_node_id": "0.0-154.0", "trial": 5, "time_elapsed": 925218, "serialpos": 23, "key_press": -1, "wordID": 1059, "type": "PRES_VIS", "trial_index": 208}, "uniqueid": "MTK3671:32KTQ2V7REMJFCGWYZ5VN3SBGHR9M2", "dateTime": 1520894214500}, {"current_trial": 209, "trialdata": {"rt": -1, "trial_type": "single-stim", "stimulus": "", "internal_node_id": "0.0-155.0-0.0", "time_elapsed": 927433, "key_press": -1, "type": "PRE_RECALL_DELAY", "trial_index": 209}, "uniqueid": "MTK3671:32KTQ2V7REMJFCGWYZ5VN3SBGHR9M2", "dateTime": 1520894216715}, {"current_trial": 210, "trialdata": {"rt": -1000, "trial_type": "single-audio", "stimulus": "/static/audio/400Hz.wav", "internal_node_id": "0.0-156.0", "time_elapsed": 927935, "key_press": -1, "type": "PRE_RECALL_ALERT", "trial_index": 210}, "uniqueid": "MTK3671:32KTQ2V7REMJFCGWYZ5VN3SBGHR9M2", "dateTime": 1520894217218}, {"current_trial": 211, "trialdata": {"rt": [6315, 8826, 10419, 14747, 17691, 19267, 23379, 26419, 32051, 38154, 39587, 44402, 45666, 47522, 50050, 53986, 55034, 57586], "recwords": ["turnip", "marrow", "banker", "worke", "donley", "camel", "clock", "thread", "picnic", "brick", "poet", "student", "stone", "lunch", "candy", "typist", "lake", "river"], "key_times": [1708, 1995, 2443, 2571, 2844, 3066, 6315, 7075, 7243, 7867, 8011, 8114, 8659, 8826, 9234, 9346, 9507, 9634, 9962, 10131, 10419, 11924, 12058, 12211, 12626, 12764, 12899, 13307, 13483, 13698, 14171, 14299, 14747, 15801, 15923, 16116, 16458, 16963, 17138, 17298, 17467, 17691, 18194, 18603, 18779, 18946, 19067, 19267, 22475, 22602, 22899, 23042, 23195, 23379, 25059, 25163, 25314, 25475, 25890, 26130, 26419, 30410, 30650, 30746, 31107, 31379, 31786, 32051, 36835, 36978, 37139, 37738, 37922, 38154, 38866, 39034, 39154, 39450, 39587, 41675, 41891, 42123, 42226, 42466, 42739, 42923, 43026, 43331, 43466, 43666, 43826, 44251, 44402, 44826, 45122, 45283, 45387, 45521, 45666, 46603, 46882, 47098, 47177, 47307, 47522, 49146, 49386, 49530, 49682, 49794, 50050, 52034, 52194, 52514, 52698, 52794, 52874, 53226, 53369, 53450, 53635, 53986, 54538, 54626, 54794, 54898, 55034, 56842, 56955, 57130, 57362, 57418, 57586], "trial_type": "free-recall", "conditions": [24, 1600, "v", 12000], "internal_node_id": "0.0-157.0-0.0", "key_presses": [84, 85, 82, 78, 73, 80, 13, 77, 65, 82, 82, 79, 87, 13, 66, 65, 78, 75, 69, 82, 13, 87, 79, 82, 76, 69, 82, 8, 8, 8, 75, 69, 13, 68, 79, 78, 69, 8, 76, 69, 89, 13, 67, 65, 77, 69, 76, 13, 67, 76, 79, 67, 75, 13, 84, 72, 82, 69, 65, 68, 13, 80, 73, 67, 78, 73, 67, 13, 66, 82, 73, 67, 75, 13, 80, 79, 69, 84, 13, 83, 84, 73, 68, 69, 8, 8, 8, 85, 68, 69, 78, 84, 13, 83, 84, 79, 78, 69, 13, 76, 85, 78, 67, 72, 13, 67, 65, 78, 68, 89, 13, 84, 89, 80, 73, 73, 83, 8, 8, 83, 84, 13, 76, 65, 75, 69, 13, 82, 73, 86, 69, 82, 13], "trial": 5, "time_elapsed": 987943, "type": "FREE_RECALL", "trial_index": 211}, "uniqueid": "MTK3671:32KTQ2V7REMJFCGWYZ5VN3SBGHR9M2", "dateTime": 1520894277231}, {"current_trial": 212, "trialdata": {"rt": 12683, "trial_type": "text", "internal_node_id": "0.0-158.0", "time_elapsed": 1002635, "key_press": 32, "type": "INSTRUCTIONS", "trial_index": 212}, "uniqueid": "MTK3671:32KTQ2V7REMJFCGWYZ5VN3SBGHR9M2", "dateTime": 1520894291917}, {"current_trial": 213, "trialdata": {"rt": [2049, 5817, 11226, 13377, 16689], "trial_type": "math-distractor", "key_times": [1338, 1697, 2049, 5242, 5553, 5817, 10138, 10681, 10801, 10953, 11226, 12753, 13009, 13377, 16001, 16209, 16689, 18897, 19666, 23801], "responses": ["14", "16", "17", "15", "22"], "num2": [7, 7, 3, 5, 7, 9], "num3": [1, 5, 5, 2, 6, 8], "conditions": [12, 800, "v", 24000], "internal_node_id": "0.0-159.0", "key_presses": [49, 52, 13, 49, 54, 13, 55, 8, 49, 55, 13, 49, 53, 13, 50, 50, 13, 49, 8, 50], "trial": 6, "time_elapsed": 1028646, "type": "DISTRACTOR", "trial_index": 213, "num1": [6, 4, 9, 8, 9, 6]}, "uniqueid": "MTK3671:32KTQ2V7REMJFCGWYZ5VN3SBGHR9M2", "dateTime": 1520894317928}, {"current_trial": 214, "trialdata": {"rt": -1, "trial_type": "single-stim", "stimulus": "<p id=\"stim\">10</p>", "internal_node_id": "0.0-160.0-0.0", "time_elapsed": 1031652, "key_press": -1, "trial_index": 214}, "uniqueid": "MTK3671:32KTQ2V7REMJFCGWYZ5VN3SBGHR9M2", "dateTime": 1520894320934}, {"current_trial": 215, "trialdata": {"rt": -1, "trial_type": "single-stim", "stimulus": "<p id=\"stim\">9</p>", "internal_node_id": "0.0-160.0-1.0", "time_elapsed": 1032656, "key_press": -1, "trial_index": 215}, "uniqueid": "MTK3671:32KTQ2V7REMJFCGWYZ5VN3SBGHR9M2", "dateTime": 1520894321938}, {"current_trial": 216, "trialdata": {"rt": -1, "trial_type": "single-stim", "stimulus": "<p id=\"stim\">8</p>", "internal_node_id": "0.0-160.0-2.0", "time_elapsed": 1033659, "key_press": -1, "trial_index": 216}, "uniqueid": "MTK3671:32KTQ2V7REMJFCGWYZ5VN3SBGHR9M2", "dateTime": 1520894322941}, {"current_trial": 217, "trialdata": {"rt": -1, "trial_type": "single-stim", "stimulus": "<p id=\"stim\">7</p>", "internal_node_id": "0.0-160.0-3.0", "time_elapsed": 1034664, "key_press": -1, "trial_index": 217}, "uniqueid": "MTK3671:32KTQ2V7REMJFCGWYZ5VN3SBGHR9M2", "dateTime": 1520894323946}, {"current_trial": 218, "trialdata": {"rt": -1, "trial_type": "single-stim", "stimulus": "<p id=\"stim\">6</p>", "internal_node_id": "0.0-160.0-4.0", "time_elapsed": 1035668, "key_press": -1, "trial_index": 218}, "uniqueid": "MTK3671:32KTQ2V7REMJFCGWYZ5VN3SBGHR9M2", "dateTime": 1520894324950}, {"current_trial": 219, "trialdata": {"rt": -1, "trial_type": "single-stim", "stimulus": "<p id=\"stim\">5</p>", "internal_node_id": "0.0-160.0-5.0", "time_elapsed": 1036672, "key_press": -1, "trial_index": 219}, "uniqueid": "MTK3671:32KTQ2V7REMJFCGWYZ5VN3SBGHR9M2", "dateTime": 1520894325955}, {"current_trial": 220, "trialdata": {"rt": -1, "trial_type": "single-stim", "stimulus": "<p id=\"stim\">4</p>", "internal_node_id": "0.0-160.0-6.0", "time_elapsed": 1037676, "key_press": -1, "trial_index": 220}, "uniqueid": "MTK3671:32KTQ2V7REMJFCGWYZ5VN3SBGHR9M2", "dateTime": 1520894326958}, {"current_trial": 221, "trialdata": {"rt": -1, "trial_type": "single-stim", "stimulus": "<p id=\"stim\">3</p>", "internal_node_id": "0.0-160.0-7.0", "time_elapsed": 1038680, "key_press": -1, "trial_index": 221}, "uniqueid": "MTK3671:32KTQ2V7REMJFCGWYZ5VN3SBGHR9M2", "dateTime": 1520894327962}, {"current_trial": 222, "trialdata": {"rt": -1, "trial_type": "single-stim", "stimulus": "<p id=\"stim\">2</p>", "internal_node_id": "0.0-160.0-8.0", "time_elapsed": 1039684, "key_press": -1, "trial_index": 222}, "uniqueid": "MTK3671:32KTQ2V7REMJFCGWYZ5VN3SBGHR9M2", "dateTime": 1520894328966}, {"current_trial": 223, "trialdata": {"rt": -1, "trial_type": "single-stim", "stimulus": "<p id=\"stim\">1</p>", "internal_node_id": "0.0-160.0-9.0", "time_elapsed": 1040689, "key_press": -1, "trial_index": 223}, "uniqueid": "MTK3671:32KTQ2V7REMJFCGWYZ5VN3SBGHR9M2", "dateTime": 1520894329971}, {"current_trial": 224, "trialdata": {"rt": -1, "trial_type": "single-stim", "stimulus": "<p id=\"stim\">+</p>", "internal_node_id": "0.0-161.0-0.0", "time_elapsed": 1042192, "key_press": -1, "type": "FIXATION", "trial_index": 224}, "uniqueid": "MTK3671:32KTQ2V7REMJFCGWYZ5VN3SBGHR9M2", "dateTime": 1520894331474}, {"current_trial": 225, "trialdata": {"rt": -1, "trial_type": "single-stim", "word": "termite", "stimulus": "<p id=\"stim\">TERMITE</p>", "conditions": [12, 800, "v", 24000], "internal_node_id": "0.0-162.0", "trial": 6, "time_elapsed": 1042998, "serialpos": 0, "key_press": -1, "wordID": 1450, "type": "PRES_VIS", "trial_index": 225}, "uniqueid": "MTK3671:32KTQ2V7REMJFCGWYZ5VN3SBGHR9M2", "dateTime": 1520894332281}, {"current_trial": 226, "trialdata": {"rt": -1, "trial_type": "single-stim", "word": "zipper", "stimulus": "<p id=\"stim\">ZIPPER</p>", "conditions": [12, 800, "v", 24000], "internal_node_id": "0.0-163.0", "trial": 6, "time_elapsed": 1044896, "serialpos": 1, "key_press": -1, "wordID": 1635, "type": "PRES_VIS", "trial_index": 226}, "uniqueid": "MTK3671:32KTQ2V7REMJFCGWYZ5VN3SBGHR9M2", "dateTime": 1520894334178}, {"current_trial": 227, "trialdata": {"rt": -1, "trial_type": "single-stim", "word": "woman", "stimulus": "<p id=\"stim\">WOMAN</p>", "conditions": [12, 800, "v", 24000], "internal_node_id": "0.0-164.0", "trial": 6, "time_elapsed": 1046800, "serialpos": 2, "key_press": -1, "wordID": 1619, "type": "PRES_VIS", "trial_index": 227}, "uniqueid": "MTK3671:32KTQ2V7REMJFCGWYZ5VN3SBGHR9M2", "dateTime": 1520894336083}, {"current_trial": 228, "trialdata": {"rt": -1, "trial_type": "single-stim", "word": "costume", "stimulus": "<p id=\"stim\">COSTUME</p>", "conditions": [12, 800, "v", 24000], "internal_node_id": "0.0-165.0", "trial": 6, "time_elapsed": 1048535, "serialpos": 3, "key_press": -1, "wordID": 382, "type": "PRES_VIS", "trial_index": 228}, "uniqueid": "MTK3671:32KTQ2V7REMJFCGWYZ5VN3SBGHR9M2", "dateTime": 1520894337817}, {"current_trial": 229, "trialdata": {"rt": -1, "trial_type": "single-stim", "word": "star", "stimulus": "<p id=\"stim\">STAR</p>", "conditions": [12, 800, "v", 24000], "internal_node_id": "0.0-166.0", "trial": 6, "time_elapsed": 1050329, "serialpos": 4, "key_press": -1, "wordID": 1372, "type": "PRES_VIS", "trial_index": 229}, "uniqueid": "MTK3671:32KTQ2V7REMJFCGWYZ5VN3SBGHR9M2", "dateTime": 1520894339612}, {"current_trial": 230, "trialdata": {"rt": -1, "trial_type": "single-stim", "word": "victim", "stimulus": "<p id=\"stim\">VICTIM</p>", "conditions": [12, 800, "v", 24000], "internal_node_id": "0.0-167.0", "trial": 6, "time_elapsed": 1052087, "serialpos": 5, "key_press": -1, "wordID": 1561, "type": "PRES_VIS", "trial_index": 230}, "uniqueid": "MTK3671:32KTQ2V7REMJFCGWYZ5VN3SBGHR9M2", "dateTime": 1520894341369}, {"current_trial": 231, "trialdata": {"rt": -1, "trial_type": "single-stim", "word": "stove", "stimulus": "<p id=\"stim\">STOVE</p>", "conditions": [12, 800, "v", 24000], "internal_node_id": "0.0-168.0", "trial": 6, "time_elapsed": 1053933, "serialpos": 6, "key_press": -1, "wordID": 1387, "type": "PRES_VIS", "trial_index": 231}, "uniqueid": "MTK3671:32KTQ2V7REMJFCGWYZ5VN3SBGHR9M2", "dateTime": 1520894343215}, {"current_trial": 232, "trialdata": {"rt": -1, "trial_type": "single-stim", "word": "pistol", "stimulus": "<p id=\"stim\">PISTOL</p>", "conditions": [12, 800, "v", 24000], "internal_node_id": "0.0-169.0", "trial": 6, "time_elapsed": 1055842, "serialpos": 7, "key_press": -1, "wordID": 1074, "type": "PRES_VIS", "trial_index": 232}, "uniqueid": "MTK3671:32KTQ2V7REMJFCGWYZ5VN3SBGHR9M2", "dateTime": 1520894345124}, {"current_trial": 233, "trialdata": {"rt": -1, "trial_type": "single-stim", "word": "clothes", "stimulus": "<p id=\"stim\">CLOTHES</p>", "conditions": [12, 800, "v", 24000], "internal_node_id": "0.0-170.0", "trial": 6, "time_elapsed": 1057619, "serialpos": 8, "key_press": -1, "wordID": 326, "type": "PRES_VIS", "trial_index": 233}, "uniqueid": "MTK3671:32KTQ2V7REMJFCGWYZ5VN3SBGHR9M2", "dateTime": 1520894346901}, {"current_trial": 234, "trialdata": {"rt": -1, "trial_type": "single-stim", "word": "plate", "stimulus": "<p id=\"stim\">PLATE</p>", "conditions": [12, 800, "v", 24000], "internal_node_id": "0.0-171.0", "trial": 6, "time_elapsed": 1059375, "serialpos": 9, "key_press": -1, "wordID": 1085, "type": "PRES_VIS", "trial_index": 234}, "uniqueid": "MTK3671:32KTQ2V7REMJFCGWYZ5VN3SBGHR9M2", "dateTime": 1520894348658}, {"current_trial": 235, "trialdata": {"rt": -1, "trial_type": "single-stim", "word": "wrist", "stimulus": "<p id=\"stim\">WRIST</p>", "conditions": [12, 800, "v", 24000], "internal_node_id": "0.0-172.0", "trial": 6, "time_elapsed": 1061153, "serialpos": 10, "key_press": -1, "wordID": 1625, "type": "PRES_VIS", "trial_index": 235}, "uniqueid": "MTK3671:32KTQ2V7REMJFCGWYZ5VN3SBGHR9M2", "dateTime": 1520894350435}, {"current_trial": 236, "trialdata": {"rt": -1, "trial_type": "single-stim", "word": "finger", "stimulus": "<p id=\"stim\">FINGER</p>", "conditions": [12, 800, "v", 24000], "internal_node_id": "0.0-173.0", "trial": 6, "time_elapsed": 1063080, "serialpos": 11, "key_press": -1, "wordID": 566, "type": "PRES_VIS", "trial_index": 236}, "uniqueid": "MTK3671:32KTQ2V7REMJFCGWYZ5VN3SBGHR9M2", "dateTime": 1520894352362}, {"current_trial": 237, "trialdata": {"rt": -1, "trial_type": "single-stim", "stimulus": "", "internal_node_id": "0.0-174.0-0.0", "time_elapsed": 1065268, "key_press": -1, "type": "PRE_RECALL_DELAY", "trial_index": 237}, "uniqueid": "MTK3671:32KTQ2V7REMJFCGWYZ5VN3SBGHR9M2", "dateTime": 1520894354551}, {"current_trial": 238, "trialdata": {"rt": -1000, "trial_type": "single-audio", "stimulus": "/static/audio/400Hz.wav", "internal_node_id": "0.0-175.0", "time_elapsed": 1065771, "key_press": -1, "type": "PRE_RECALL_ALERT", "trial_index": 238}, "uniqueid": "MTK3671:32KTQ2V7REMJFCGWYZ5VN3SBGHR9M2", "dateTime": 1520894355053}, {"current_trial": 239, "trialdata": {"rt": [2613, 4005, 5453, 12813, 15421, 17100, 19332, 20421, 22853, 26301, 28356, 29661, 34221], "recwords": ["finger", "stove", "wrist", "termite", "zipper", "woman", "costume", "star", "victim", "pistol", "clothes", "plate", "finger"], "key_times": [1501, 1790, 1964, 2237, 2301, 2414, 2613, 2997, 3293, 3412, 3581, 3820, 4005, 4461, 4741, 4821, 4997, 5157, 5453, 11702, 11805, 11917, 12149, 12318, 12445, 12677, 12813, 14469, 14701, 14940, 15077, 15158, 15252, 15421, 16341, 16477, 16677, 16789, 16909, 17100, 18077, 18213, 18453, 18749, 18798, 19077, 19173, 19332, 19756, 19925, 20021, 20165, 20421, 21765, 21932, 22029, 22301, 22397, 22636, 22853, 25253, 25460, 25548, 25869, 25917, 26117, 26301, 26989, 27221, 27429, 27645, 27749, 27925, 28212, 28356, 28779, 29013, 29125, 29380, 29468, 29661, 32805, 32892, 33092, 33380, 33429, 33525, 34221], "trial_type": "free-recall", "conditions": [12, 800, "v", 24000], "internal_node_id": "0.0-176.0-0.0", "key_presses": [70, 73, 78, 71, 69, 82, 13, 83, 84, 79, 86, 69, 13, 87, 82, 73, 83, 84, 13, 84, 69, 82, 77, 73, 84, 69, 13, 90, 73, 80, 80, 69, 82, 13, 87, 79, 77, 65, 78, 13, 67, 79, 83, 84, 85, 77, 69, 13, 83, 84, 65, 82, 13, 86, 73, 67, 84, 73, 77, 13, 80, 73, 83, 84, 79, 76, 13, 67, 76, 79, 84, 72, 69, 83, 13, 80, 76, 65, 84, 69, 13, 70, 73, 78, 71, 69, 82, 13], "trial": 6, "time_elapsed": 1125776, "type": "FREE_RECALL", "trial_index": 239}, "uniqueid": "MTK3671:32KTQ2V7REMJFCGWYZ5VN3SBGHR9M2", "dateTime": 1520894415062}, {"current_trial": 240, "trialdata": {"rt": 526, "trial_type": "text", "internal_node_id": "0.0-177.0", "time_elapsed": 1128313, "key_press": 32, "type": "INSTRUCTIONS", "trial_index": 240}, "uniqueid": "MTK3671:32KTQ2V7REMJFCGWYZ5VN3SBGHR9M2", "dateTime": 1520894417595}, {"current_trial": 241, "trialdata": {"rt": [5538, 8482], "trial_type": "math-distractor", "key_times": [2698, 3139, 4426, 5538, 7794, 8210, 8482], "responses": ["26 ", "14"], "num2": [8, 3, 7], "num3": [9, 2, 8], "conditions": [24, 800, "v", 12000], "internal_node_id": "0.0-178.0", "key_presses": [50, 54, 32, 13, 49, 52, 13], "trial": 7, "time_elapsed": 1142319, "type": "DISTRACTOR", "trial_index": 241, "num1": [9, 9, 6]}, "uniqueid": "MTK3671:32KTQ2V7REMJFCGWYZ5VN3SBGHR9M2", "dateTime": 1520894431602}, {"current_trial": 242, "trialdata": {"rt": -1, "trial_type": "single-stim", "stimulus": "<p id=\"stim\">10</p>", "internal_node_id": "0.0-179.0-0.0", "time_elapsed": 1145326, "key_press": -1, "trial_index": 242}, "uniqueid": "MTK3671:32KTQ2V7REMJFCGWYZ5VN3SBGHR9M2", "dateTime": 1520894434609}, {"current_trial": 243, "trialdata": {"rt": -1, "trial_type": "single-stim", "stimulus": "<p id=\"stim\">9</p>", "internal_node_id": "0.0-179.0-1.0", "time_elapsed": 1146331, "key_press": -1, "trial_index": 243}, "uniqueid": "MTK3671:32KTQ2V7REMJFCGWYZ5VN3SBGHR9M2", "dateTime": 1520894435613}, {"current_trial": 244