{"assignmentId": "3KYQYYSHYWEJI5EPNVPA13061BDDOB", "workerId": "MTK3167", "questiondata": {"origin": "United States", "strat-rehearsal": "77", "marital": "Divorced", "education": "Some graduate education", "ethnicity": "Not Hispanic", "color_depth": 24, "distracted": "No", "wrote-notes": "Yes", "strat-other": "", "screen_width": 1366, "avail_screen_width": 1338, "avail_screen_height": 745, "strat-image": "18", "language": "english", "gender": "Female", "age": "44", "gender_other": "", "race": ["White"], "strat-categorize": "72", "pixel_depth": 24, "strat-spatial": "6", "strat-story": "13", "race_other": "", "screen_height": 768}, "bonus": 0, "hitId": "38EHZ67RIMZW725AM363Q0IEZ8LGMV", "counterbalance": 1155, "useragent": "Mozilla/5.0 (Macintosh; Intel Mac OS X 10_12_0) AppleWebKit/537.36 (KHTML, like Gecko) Chrome/64.0.3282.167 Safari/537.36", "eventdata": [{"eventtype": "initialized", "interval": 0, "value": null, "timestamp": 1520111728077}, {"eventtype": "window_resize", "interval": 0, "value": [1366, 694], "timestamp": 1520111728077}, {"eventtype": "window_resize", "interval": 58861, "value": [1366, 650], "timestamp": 1520111786938}, {"eventtype": "focus", "interval": 6825, "value": "off", "timestamp": 1520111793763}, {"eventtype": "focus", "interval": 1018, "value": "on", "timestamp": 1520111794781}, {"eventtype": "window_resize", "interval": 2225, "value": [1366, 694], "timestamp": 1520111797006}, {"eventtype": "focus", "interval": 7347, "value": "off", "timestamp": 1520111804353}, {"eventtype": "focus", "interval": 298, "value": "on", "timestamp": 1520111804651}, {"eventtype": "window_resize", "interval": 29358, "value": [794, 671], "timestamp": 1520111834009}, {"eventtype": "focus", "interval": 3700, "value": "off", "timestamp": 1520111837709}, {"eventtype": "focus", "interval": 12434, "value": "on", "timestamp": 1520111850143}, {"eventtype": "window_resize", "interval": 2180, "value": [1366, 694], "timestamp": 1520111852323}], "data": [{"current_trial": 0, "trialdata": {"rt": 7259, "trial_type": "text", "internal_node_id": "0.0-0.0", "time_elapsed": 7262, "key_press": 77, "type": "INSTRUCTIONS", "trial_index": 0}, "uniqueid": "MTK3167:3KYQYYSHYWEJI5EPNVPA13061BDDOB", "dateTime": 1520111735683}, {"current_trial": 1, "trialdata": {"rt": 30465, "trial_type": "text", "internal_node_id": "0.0-1.0", "time_elapsed": 37731, "key_press": 32, "type": "INSTRUCTIONS", "trial_index": 1}, "uniqueid": "MTK3167:3KYQYYSHYWEJI5EPNVPA13061BDDOB", "dateTime": 1520111766151}, {"current_trial": 2, "trialdata": {"rt": [34415, 87557], "trial_type": "audio-test", "responses": ["open", "ocean"], "internal_node_id": "0.0-2.0", "time_elapsed": 125377, "type": "AUDIO_TEST", "trial_index": 2}, "uniqueid": "MTK3167:3KYQYYSHYWEJI5EPNVPA13061BDDOB", "dateTime": 1520111853798}, {"current_trial": 3, "trialdata": {"rt": [6780], "trial_type": "audio-test", "responses": ["crystal"], "internal_node_id": "0.0-3.0", "time_elapsed": 132173, "type": "AUDIO_TEST", "trial_index": 3}, "uniqueid": "MTK3167:3KYQYYSHYWEJI5EPNVPA13061BDDOB", "dateTime": 1520111860593}, {"current_trial": 4, "trialdata": {"rt": [5128], "trial_type": "audio-test", "responses": ["spice"], "internal_node_id": "0.0-4.0", "time_elapsed": 137317, "type": "AUDIO_TEST", "trial_index": 4}, "uniqueid": "MTK3167:3KYQYYSHYWEJI5EPNVPA13061BDDOB", "dateTime": 1520111865738}, {"current_trial": 5, "trialdata": {"rt": 22704, "trial_type": "survey-text", "responses": "{\"Q0\":\"2:00am\",\"Q1\":\"10:00am\",\"Q2\":\"3\"}", "internal_node_id": "0.0-5.0", "time_elapsed": 160781, "type": "SLEEP_SURVEY", "trial_index": 5}, "uniqueid": "MTK3167:3KYQYYSHYWEJI5EPNVPA13061BDDOB", "dateTime": 1520111889202}, {"current_trial": 6, "trialdata": {"rt": 33298, "trial_type": "text", "internal_node_id": "0.0-6.0", "time_elapsed": 195084, "key_press": 77, "type": "INSTRUCTIONS", "trial_index": 6}, "uniqueid": "MTK3167:3KYQYYSHYWEJI5EPNVPA13061BDDOB", "dateTime": 1520111923505}, {"current_trial": 7, "trialdata": {"rt": 12423, "trial_type": "text", "internal_node_id": "0.0-7.0", "time_elapsed": 208010, "key_press": 75, "type": "INSTRUCTIONS", "trial_index": 7}, "uniqueid": "MTK3167:3KYQYYSHYWEJI5EPNVPA13061BDDOB", "dateTime": 1520111936430}, {"current_trial": 8, "trialdata": {"rt": 7772, "trial_type": "text", "internal_node_id": "0.0-8.0", "time_elapsed": 216289, "key_press": 75, "type": "INSTRUCTIONS", "trial_index": 8}, "uniqueid": "MTK3167:3KYQYYSHYWEJI5EPNVPA13061BDDOB", "dateTime": 1520111944710}, {"current_trial": 9, "trialdata": {"rt": [4884, 8188, 9957, 12052], "trial_type": "math-distractor", "key_times": [4124, 4244, 4884, 7403, 7620, 8188, 9477, 9612, 9957, 11699, 11868, 12052], "responses": ["11", "17", "11", "12"], "num2": [1, 8, 4, 4, 9], "num3": [4, 2, 1, 3, 3], "conditions": [18, 1200, "v", 18000], "internal_node_id": "0.0-9.0", "key_presses": [49, 49, 13, 49, 55, 13, 49, 49, 13, 49, 50, 13], "trial": 0, "time_elapsed": 235325, "type": "DISTRACTOR", "trial_index": 9, "num1": [6, 7, 6, 5, 6]}, "uniqueid": "MTK3167:3KYQYYSHYWEJI5EPNVPA13061BDDOB", "dateTime": 1520111963746}, {"current_trial": 10, "trialdata": {"rt": -1, "trial_type": "single-stim", "stimulus": "<p id=\"stim\">10</p>", "internal_node_id": "0.0-10.0-0.0", "time_elapsed": 238334, "key_press": -1, "trial_index": 10}, "uniqueid": "MTK3167:3KYQYYSHYWEJI5EPNVPA13061BDDOB", "dateTime": 1520111966754}, {"current_trial": 11, "trialdata": {"rt": -1, "trial_type": "single-stim", "stimulus": "<p id=\"stim\">9</p>", "internal_node_id": "0.0-10.0-1.0", "time_elapsed": 239350, "key_press": -1, "trial_index": 11}, "uniqueid": "MTK3167:3KYQYYSHYWEJI5EPNVPA13061BDDOB", "dateTime": 1520111967770}, {"current_trial": 12, "trialdata": {"rt": -1, "trial_type": "single-stim", "stimulus": "<p id=\"stim\">8</p>", "internal_node_id": "0.0-10.0-2.0", "time_elapsed": 240356, "key_press": -1, "trial_index": 12}, "uniqueid": "MTK3167:3KYQYYSHYWEJI5EPNVPA13061BDDOB", "dateTime": 1520111968777}, {"current_trial": 13, "trialdata": {"rt": -1, "trial_type": "single-stim", "stimulus": "<p id=\"stim\">7</p>", "internal_node_id": "0.0-10.0-3.0", "time_elapsed": 241363, "key_press": -1, "trial_index": 13}, "uniqueid": "MTK3167:3KYQYYSHYWEJI5EPNVPA13061BDDOB", "dateTime": 1520111969783}, {"current_trial": 14, "trialdata": {"rt": -1, "trial_type": "single-stim", "stimulus": "<p id=\"stim\">6</p>", "internal_node_id": "0.0-10.0-4.0", "time_elapsed": 242366, "key_press": -1, "trial_index": 14}, "uniqueid": "MTK3167:3KYQYYSHYWEJI5EPNVPA13061BDDOB", "dateTime": 1520111970787}, {"current_trial": 15, "trialdata": {"rt": -1, "trial_type": "single-stim", "stimulus": "<p id=\"stim\">5</p>", "internal_node_id": "0.0-10.0-5.0", "time_elapsed": 243371, "key_press": -1, "trial_index": 15}, "uniqueid": "MTK3167:3KYQYYSHYWEJI5EPNVPA13061BDDOB", "dateTime": 1520111971791}, {"current_trial": 16, "trialdata": {"rt": -1, "trial_type": "single-stim", "stimulus": "<p id=\"stim\">4</p>", "internal_node_id": "0.0-10.0-6.0", "time_elapsed": 244374, "key_press": -1, "trial_index": 16}, "uniqueid": "MTK3167:3KYQYYSHYWEJI5EPNVPA13061BDDOB", "dateTime": 1520111972795}, {"current_trial": 17, "trialdata": {"rt": -1, "trial_type": "single-stim", "stimulus": "<p id=\"stim\">3</p>", "internal_node_id": "0.0-10.0-7.0", "time_elapsed": 245378, "key_press": -1, "trial_index": 17}, "uniqueid": "MTK3167:3KYQYYSHYWEJI5EPNVPA13061BDDOB", "dateTime": 1520111973799}, {"current_trial": 18, "trialdata": {"rt": -1, "trial_type": "single-stim", "stimulus": "<p id=\"stim\">2</p>", "internal_node_id": "0.0-10.0-8.0", "time_elapsed": 246383, "key_press": -1, "trial_index": 18}, "uniqueid": "MTK3167:3KYQYYSHYWEJI5EPNVPA13061BDDOB", "dateTime": 1520111974803}, {"current_trial": 19, "trialdata": {"rt": -1, "trial_type": "single-stim", "stimulus": "<p id=\"stim\">1</p>", "internal_node_id": "0.0-10.0-9.0", "time_elapsed": 247387, "key_press": -1, "trial_index": 19}, "uniqueid": "MTK3167:3KYQYYSHYWEJI5EPNVPA13061BDDOB", "dateTime": 1520111975807}, {"current_trial": 20, "trialdata": {"rt": -1, "trial_type": "single-stim", "stimulus": "<p id=\"stim\">+</p>", "internal_node_id": "0.0-11.0-0.0", "time_elapsed": 248895, "key_press": -1, "type": "FIXATION", "trial_index": 20}, "uniqueid": "MTK3167:3KYQYYSHYWEJI5EPNVPA13061BDDOB", "dateTime": 1520111977315}, {"current_trial": 21, "trialdata": {"rt": -1, "trial_type": "single-stim", "word": "pilot", "stimulus": "<p id=\"stim\">PILOT</p>", "conditions": [18, 1200, "v", 18000], "internal_node_id": "0.0-12.0", "trial": 0, "time_elapsed": 250102, "serialpos": 0, "key_press": -1, "wordID": 1069, "type": "PRES_VIS", "trial_index": 21}, "uniqueid": "MTK3167:3KYQYYSHYWEJI5EPNVPA13061BDDOB", "dateTime": 1520111978522}, {"current_trial": 22, "trialdata": {"rt": -1, "trial_type": "single-stim", "word": "body", "stimulus": "<p id=\"stim\">BODY</p>", "conditions": [18, 1200, "v", 18000], "internal_node_id": "0.0-13.0", "trial": 0, "time_elapsed": 252435, "serialpos": 1, "key_press": -1, "wordID": 144, "type": "PRES_VIS", "trial_index": 22}, "uniqueid": "MTK3167:3KYQYYSHYWEJI5EPNVPA13061BDDOB", "dateTime": 1520111980855}, {"current_trial": 23, "trialdata": {"rt": -1, "trial_type": "single-stim", "word": "arm", "stimulus": "<p id=\"stim\">ARM</p>", "conditions": [18, 1200, "v", 18000], "internal_node_id": "0.0-14.0", "trial": 0, "time_elapsed": 254660, "serialpos": 2, "key_press": -1, "wordID": 37, "type": "PRES_VIS", "trial_index": 23}, "uniqueid": "MTK3167:3KYQYYSHYWEJI5EPNVPA13061BDDOB", "dateTime": 1520111983080}, {"current_trial": 24, "trialdata": {"rt": -1, "trial_type": "single-stim", "word": "perfume", "stimulus": "<p id=\"stim\">PERFUME</p>", "conditions": [18, 1200, "v", 18000], "internal_node_id": "0.0-15.0", "trial": 0, "time_elapsed": 256904, "serialpos": 3, "key_press": -1, "wordID": 1048, "type": "PRES_VIS", "trial_index": 24}, "uniqueid": "MTK3167:3KYQYYSHYWEJI5EPNVPA13061BDDOB", "dateTime": 1520111985324}, {"current_trial": 25, "trialdata": {"rt": -1, "trial_type": "single-stim", "word": "casket", "stimulus": "<p id=\"stim\">CASKET</p>", "conditions": [18, 1200, "v", 18000], "internal_node_id": "0.0-16.0", "trial": 0, "time_elapsed": 259290, "serialpos": 4, "key_press": -1, "wordID": 254, "type": "PRES_VIS", "trial_index": 25}, "uniqueid": "MTK3167:3KYQYYSHYWEJI5EPNVPA13061BDDOB", "dateTime": 1520111987710}, {"current_trial": 26, "trialdata": {"rt": -1, "trial_type": "single-stim", "word": "blouse", "stimulus": "<p id=\"stim\">BLOUSE</p>", "conditions": [18, 1200, "v", 18000], "internal_node_id": "0.0-17.0", "trial": 0, "time_elapsed": 261635, "serialpos": 5, "key_press": -1, "wordID": 138, "type": "PRES_VIS", "trial_index": 26}, "uniqueid": "MTK3167:3KYQYYSHYWEJI5EPNVPA13061BDDOB", "dateTime": 1520111990055}, {"current_trial": 27, "trialdata": {"rt": -1, "trial_type": "single-stim", "word": "plaza", "stimulus": "<p id=\"stim\">PLAZA</p>", "conditions": [18, 1200, "v", 18000], "internal_node_id": "0.0-18.0", "trial": 0, "time_elapsed": 263945, "serialpos": 6, "key_press": -1, "wordID": 1087, "type": "PRES_VIS", "trial_index": 27}, "uniqueid": "MTK3167:3KYQYYSHYWEJI5EPNVPA13061BDDOB", "dateTime": 1520111992365}, {"current_trial": 28, "trialdata": {"rt": -1, "trial_type": "single-stim", "word": "ankle", "stimulus": "<p id=\"stim\">ANKLE</p>", "conditions": [18, 1200, "v", 18000], "internal_node_id": "0.0-19.0", "trial": 0, "time_elapsed": 266074, "serialpos": 7, "key_press": -1, "wordID": 23, "type": "PRES_VIS", "trial_index": 28}, "uniqueid": "MTK3167:3KYQYYSHYWEJI5EPNVPA13061BDDOB", "dateTime": 1520111994494}, {"current_trial": 29, "trialdata": {"rt": -1, "trial_type": "single-stim", "word": "cookbook", "stimulus": "<p id=\"stim\">COOKBOOK</p>", "conditions": [18, 1200, "v", 18000], "internal_node_id": "0.0-20.0", "trial": 0, "time_elapsed": 268117, "serialpos": 8, "key_press": -1, "wordID": 372, "type": "PRES_VIS", "trial_index": 29}, "uniqueid": "MTK3167:3KYQYYSHYWEJI5EPNVPA13061BDDOB", "dateTime": 1520111996538}, {"current_trial": 30, "trialdata": {"rt": -1, "trial_type": "single-stim", "word": "donkey", "stimulus": "<p id=\"stim\">DONKEY</p>", "conditions": [18, 1200, "v", 18000], "internal_node_id": "0.0-21.0", "trial": 0, "time_elapsed": 270235, "serialpos": 9, "key_press": -1, "wordID": 483, "type": "PRES_VIS", "trial_index": 30}, "uniqueid": "MTK3167:3KYQYYSHYWEJI5EPNVPA13061BDDOB", "dateTime": 1520111998655}, {"current_trial": 31, "trialdata": {"rt": -1, "trial_type": "single-stim", "word": "cyclone", "stimulus": "<p id=\"stim\">CYCLONE</p>", "conditions": [18, 1200, "v", 18000], "internal_node_id": "0.0-22.0", "trial": 0, "time_elapsed": 272633, "serialpos": 10, "key_press": -1, "wordID": 430, "type": "PRES_VIS", "trial_index": 31}, "uniqueid": "MTK3167:3KYQYYSHYWEJI5EPNVPA13061BDDOB", "dateTime": 1520112001054}, {"current_trial": 32, "trialdata": {"rt": -1, "trial_type": "single-stim", "word": "candy", "stimulus": "<p id=\"stim\">CANDY</p>", "conditions": [18, 1200, "v", 18000], "internal_node_id": "0.0-23.0", "trial": 0, "time_elapsed": 274675, "serialpos": 11, "key_press": -1, "wordID": 229, "type": "PRES_VIS", "trial_index": 32}, "uniqueid": "MTK3167:3KYQYYSHYWEJI5EPNVPA13061BDDOB", "dateTime": 1520112003095}, {"current_trial": 33, "trialdata": {"rt": -1, "trial_type": "single-stim", "word": "ointment", "stimulus": "<p id=\"stim\">OINTMENT</p>", "conditions": [18, 1200, "v", 18000], "internal_node_id": "0.0-24.0", "trial": 0, "time_elapsed": 276899, "serialpos": 12, "key_press": -1, "wordID": 973, "type": "PRES_VIS", "trial_index": 33}, "uniqueid": "MTK3167:3KYQYYSHYWEJI5EPNVPA13061BDDOB", "dateTime": 1520112005320}, {"current_trial": 34, "trialdata": {"rt": -1, "trial_type": "single-stim", "word": "harp", "stimulus": "<p id=\"stim\">HARP</p>", "conditions": [18, 1200, "v", 18000], "internal_node_id": "0.0-25.0", "trial": 0, "time_elapsed": 279080, "serialpos": 13, "key_press": -1, "wordID": 688, "type": "PRES_VIS", "trial_index": 34}, "uniqueid": "MTK3167:3KYQYYSHYWEJI5EPNVPA13061BDDOB", "dateTime": 1520112007501}, {"current_trial": 35, "trialdata": {"rt": -1, "trial_type": "single-stim", "word": "rabbit", "stimulus": "<p id=\"stim\">RABBIT</p>", "conditions": [18, 1200, "v", 18000], "internal_node_id": "0.0-26.0", "trial": 0, "time_elapsed": 281305, "serialpos": 14, "key_press": -1, "wordID": 1151, "type": "PRES_VIS", "trial_index": 35}, "uniqueid": "MTK3167:3KYQYYSHYWEJI5EPNVPA13061BDDOB", "dateTime": 1520112009725}, {"current_trial": 36, "trialdata": {"rt": -1, "trial_type": "single-stim", "word": "citrus", "stimulus": "<p id=\"stim\">CITRUS</p>", "conditions": [18, 1200, "v", 18000], "internal_node_id": "0.0-27.0", "trial": 0, "time_elapsed": 283693, "serialpos": 15, "key_press": -1, "wordID": 312, "type": "PRES_VIS", "trial_index": 36}, "uniqueid": "MTK3167:3KYQYYSHYWEJI5EPNVPA13061BDDOB", "dateTime": 1520112012114}, {"current_trial": 37, "trialdata": {"rt": -1, "trial_type": "single-stim", "word": "shirt", "stimulus": "<p id=\"stim\">SHIRT</p>", "conditions": [18, 1200, "v", 18000], "internal_node_id": "0.0-28.0", "trial": 0, "time_elapsed": 285865, "serialpos": 16, "key_press": -1, "wordID": 1286, "type": "PRES_VIS", "trial_index": 37}, "uniqueid": "MTK3167:3KYQYYSHYWEJI5EPNVPA13061BDDOB", "dateTime": 1520112014285}, {"current_trial": 38, "trialdata": {"rt": -1, "trial_type": "single-stim", "word": "belly", "stimulus": "<p id=\"stim\">BELLY</p>", "conditions": [18, 1200, "v", 18000], "internal_node_id": "0.0-29.0", "trial": 0, "time_elapsed": 288134, "serialpos": 17, "key_press": -1, "wordID": 118, "type": "PRES_VIS", "trial_index": 38}, "uniqueid": "MTK3167:3KYQYYSHYWEJI5EPNVPA13061BDDOB", "dateTime": 1520112016555}, {"current_trial": 39, "trialdata": {"rt": -1, "trial_type": "single-stim", "stimulus": "", "internal_node_id": "0.0-30.0-0.0", "time_elapsed": 290334, "key_press": -1, "type": "PRE_RECALL_DELAY", "trial_index": 39}, "uniqueid": "MTK3167:3KYQYYSHYWEJI5EPNVPA13061BDDOB", "dateTime": 1520112018754}, {"current_trial": 40, "trialdata": {"rt": -1000, "trial_type": "single-audio", "stimulus": "/static/audio/400Hz.wav", "internal_node_id": "0.0-31.0", "time_elapsed": 290846, "key_press": -1, "type": "PRE_RECALL_ALERT", "trial_index": 40}, "uniqueid": "MTK3167:3KYQYYSHYWEJI5EPNVPA13061BDDOB", "dateTime": 1520112019267}, {"current_trial": 41, "trialdata": {"rt": [4462, 6294, 7670, 11007, 13587, 16923, 20467, 22003], "recwords": ["pilot", "body", "arm", "perfume", "rabbitt", "casket", "ointment", "ankle"], "key_times": [1928, 2127, 2315, 3156, 3502, 3694, 4151, 4462, 5232, 5390, 5687, 6071, 6294, 6852, 7087, 7256, 7670, 8256, 8407, 8599, 8847, 9006, 9198, 9423, 9742, 10503, 11007, 11606, 11740, 12007, 12133, 12275, 13051, 13203, 13587, 15291, 15476, 16043, 16220, 16364, 16596, 16923, 18787, 19003, 19260, 19531, 19667, 19787, 19931, 20011, 20467, 20995, 21131, 21291, 21483, 21675, 22003], "trial_type": "free-recall", "conditions": [18, 1200, "v", 18000], "internal_node_id": "0.0-32.0-0.0", "key_presses": [80, 73, 75, 8, 76, 79, 84, 13, 66, 79, 68, 89, 13, 65, 82, 77, 13, 80, 69, 82, 70, 85, 77, 69, 220, 8, 13, 82, 65, 66, 66, 73, 84, 84, 13, 67, 65, 83, 75, 69, 84, 13, 79, 73, 78, 84, 77, 69, 78, 84, 13, 65, 78, 75, 76, 69, 13], "trial": 0, "time_elapsed": 350854, "type": "FREE_RECALL", "trial_index": 41}, "uniqueid": "MTK3167:3KYQYYSHYWEJI5EPNVPA13061BDDOB", "dateTime": 1520112079281}, {"current_trial": 42, "trialdata": {"rt": 1717, "trial_type": "text", "internal_node_id": "0.0-33.0", "time_elapsed": 354583, "key_press": 13, "type": "INSTRUCTIONS", "trial_index": 42}, "uniqueid": "MTK3167:3KYQYYSHYWEJI5EPNVPA13061BDDOB", "dateTime": 1520112083003}, {"current_trial": 43, "trialdata": {"rt": [5488, 7320, 10273, 12329, 16943], "trial_type": "math-distractor", "key_times": [4920, 5032, 5488, 6984, 7097, 7320, 9871, 10065, 10273, 11713, 12097, 12329, 16369, 16640, 16943], "responses": ["20", "10", "21", "18", "25"], "num2": [9, 1, 5, 2, 9, 5], "num3": [8, 8, 8, 8, 8, 7], "conditions": [18, 1200, "v", 18000], "internal_node_id": "0.0-34.0", "key_presses": [50, 48, 13, 49, 48, 13, 50, 49, 13, 49, 56, 13, 50, 53, 13], "trial": 1, "time_elapsed": 374596, "type": "DISTRACTOR", "trial_index": 43, "num1": [3, 1, 8, 8, 8, 1]}, "uniqueid": "MTK3167:3KYQYYSHYWEJI5EPNVPA13061BDDOB", "dateTime": 1520112103017}, {"current_trial": 44, "trialdata": {"rt": -1, "trial_type": "single-stim", "stimulus": "<p id=\"stim\">10</p>", "internal_node_id": "0.0-35.0-0.0", "time_elapsed": 377608, "key_press": -1, "trial_index": 44}, "uniqueid": "MTK3167:3KYQYYSHYWEJI5EPNVPA13061BDDOB", "dateTime": 1520112106028}, {"current_trial": 45, "trialdata": {"rt": -1, "trial_type": "single-stim", "stimulus": "<p id=\"stim\">9</p>", "internal_node_id": "0.0-35.0-1.0", "time_elapsed": 378612, "key_press": -1, "trial_index": 45}, "uniqueid": "MTK3167:3KYQYYSHYWEJI5EPNVPA13061BDDOB", "dateTime": 1520112107032}, {"current_trial": 46, "trialdata": {"rt": -1, "trial_type": "single-stim", "stimulus": "<p id=\"stim\">8</p>", "internal_node_id": "0.0-35.0-2.0", "time_elapsed": 379615, "key_press": -1, "trial_index": 46}, "uniqueid": "MTK3167:3KYQYYSHYWEJI5EPNVPA13061BDDOB", "dateTime": 1520112108036}, {"current_trial": 47, "trialdata": {"rt": -1, "trial_type": "single-stim", "stimulus": "<p id=\"stim\">7</p>", "internal_node_id": "0.0-35.0-3.0", "time_elapsed": 380619, "key_press": -1, "trial_index": 47}, "uniqueid": "MTK3167:3KYQYYSHYWEJI5EPNVPA13061BDDOB", "dateTime": 1520112109040}, {"current_trial": 48, "trialdata": {"rt": -1, "trial_type": "single-stim", "stimulus": "<p id=\"stim\">6</p>", "internal_node_id": "0.0-35.0-4.0", "time_elapsed": 381624, "key_press": -1, "trial_index": 48}, "uniqueid": "MTK3167:3KYQYYSHYWEJI5EPNVPA13061BDDOB", "dateTime": 1520112110045}, {"current_trial": 49, "trialdata": {"rt": -1, "trial_type": "single-stim", "stimulus": "<p id=\"stim\">5</p>", "internal_node_id": "0.0-35.0-5.0", "time_elapsed": 382628, "key_press": -1, "trial_index": 49}, "uniqueid": "MTK3167:3KYQYYSHYWEJI5EPNVPA13061BDDOB", "dateTime": 1520112111048}, {"current_trial": 50, "trialdata": {"rt": -1, "trial_type": "single-stim", "stimulus": "<p id=\"stim\">4</p>", "internal_node_id": "0.0-35.0-6.0", "time_elapsed": 383633, "key_press": -1, "trial_index": 50}, "uniqueid": "MTK3167:3KYQYYSHYWEJI5EPNVPA13061BDDOB", "dateTime": 1520112112053}, {"current_trial": 51, "trialdata": {"rt": -1, "trial_type": "single-stim", "stimulus": "<p id=\"stim\">3</p>", "internal_node_id": "0.0-35.0-7.0", "time_elapsed": 384636, "key_press": -1, "trial_index": 51}, "uniqueid": "MTK3167:3KYQYYSHYWEJI5EPNVPA13061BDDOB", "dateTime": 1520112113056}, {"current_trial": 52, "trialdata": {"rt": -1, "trial_type": "single-stim", "stimulus": "<p id=\"stim\">2</p>", "internal_node_id": "0.0-35.0-8.0", "time_elapsed": 385641, "key_press": -1, "trial_index": 52}, "uniqueid": "MTK3167:3KYQYYSHYWEJI5EPNVPA13061BDDOB", "dateTime": 1520112114061}, {"current_trial": 53, "trialdata": {"rt": -1, "trial_type": "single-stim", "stimulus": "<p id=\"stim\">1</p>", "internal_node_id": "0.0-35.0-9.0", "time_elapsed": 386644, "key_press": -1, "trial_index": 53}, "uniqueid": "MTK3167:3KYQYYSHYWEJI5EPNVPA13061BDDOB", "dateTime": 1520112115065}, {"current_trial": 54, "trialdata": {"rt": -1, "trial_type": "single-stim", "stimulus": "<p id=\"stim\">+</p>", "internal_node_id": "0.0-36.0-0.0", "time_elapsed": 388148, "key_press": -1, "type": "FIXATION", "trial_index": 54}, "uniqueid": "MTK3167:3KYQYYSHYWEJI5EPNVPA13061BDDOB", "dateTime": 1520112116569}, {"current_trial": 55, "trialdata": {"rt": -1, "trial_type": "single-stim", "word": "banquet", "stimulus": "<p id=\"stim\">BANQUET</p>", "conditions": [18, 1200, "v", 18000], "internal_node_id": "0.0-37.0", "trial": 1, "time_elapsed": 389353, "serialpos": 0, "key_press": -1, "wordID": 85, "type": "PRES_VIS", "trial_index": 55}, "uniqueid": "MTK3167:3KYQYYSHYWEJI5EPNVPA13061BDDOB", "dateTime": 1520112117774}, {"current_trial": 56, "trialdata": {"rt": -1, "trial_type": "single-stim", "word": "swimmer", "stimulus": "<p id=\"stim\">SWIMMER</p>", "conditions": [18, 1200, "v", 18000], "internal_node_id": "0.0-38.0", "trial": 1, "time_elapsed": 391601, "serialpos": 1, "key_press": -1, "wordID": 1419, "type": "PRES_VIS", "trial_index": 56}, "uniqueid": "MTK3167:3KYQYYSHYWEJI5EPNVPA13061BDDOB", "dateTime": 1520112120022}, {"current_trial": 57, "trialdata": {"rt": -1, "trial_type": "single-stim", "word": "nurse", "stimulus": "<p id=\"stim\">NURSE</p>", "conditions": [18, 1200, "v", 18000], "internal_node_id": "0.0-39.0", "trial": 1, "time_elapsed": 393800, "serialpos": 2, "key_press": -1, "wordID": 962, "type": "PRES_VIS", "trial_index": 57}, "uniqueid": "MTK3167:3KYQYYSHYWEJI5EPNVPA13061BDDOB", "dateTime": 1520112122220}, {"current_trial": 58, "trialdata": {"rt": -1, "trial_type": "single-stim", "word": "dandruff", "stimulus": "<p id=\"stim\">DANDRUFF</p>", "conditions": [18, 1200, "v", 18000], "internal_node_id": "0.0-40.0", "trial": 1, "time_elapsed": 396180, "serialpos": 3, "key_press": -1, "wordID": 438, "type": "PRES_VIS", "trial_index": 58}, "uniqueid": "MTK3167:3KYQYYSHYWEJI5EPNVPA13061BDDOB", "dateTime": 1520112124600}, {"current_trial": 59, "trialdata": {"rt": -1, "trial_type": "single-stim", "word": "yarn", "stimulus": "<p id=\"stim\">YARN</p>", "conditions": [18, 1200, "v", 18000], "internal_node_id": "0.0-41.0", "trial": 1, "time_elapsed": 398525, "serialpos": 4, "key_press": -1, "wordID": 1630, "type": "PRES_VIS", "trial_index": 59}, "uniqueid": "MTK3167:3KYQYYSHYWEJI5EPNVPA13061BDDOB", "dateTime": 1520112126945}, {"current_trial": 60, "trialdata": {"rt": -1, "trial_type": "single-stim", "word": "flask", "stimulus": "<p id=\"stim\">FLASK</p>", "conditions": [18, 1200, "v", 18000], "internal_node_id": "0.0-42.0", "trial": 1, "time_elapsed": 400916, "serialpos": 5, "key_press": -1, "wordID": 575, "type": "PRES_VIS", "trial_index": 60}, "uniqueid": "MTK3167:3KYQYYSHYWEJI5EPNVPA13061BDDOB", "dateTime": 1520112129336}, {"current_trial": 61, "trialdata": {"rt": -1, "trial_type": "single-stim", "word": "sausage", "stimulus": "<p id=\"stim\">SAUSAGE</p>", "conditions": [18, 1200, "v", 18000], "internal_node_id": "0.0-43.0", "trial": 1, "time_elapsed": 403040, "serialpos": 6, "key_press": -1, "wordID": 1237, "type": "PRES_VIS", "trial_index": 61}, "uniqueid": "MTK3167:3KYQYYSHYWEJI5EPNVPA13061BDDOB", "dateTime": 1520112131460}, {"current_trial": 62, "trialdata": {"rt": -1, "trial_type": "single-stim", "word": "plaster", "stimulus": "<p id=\"stim\">PLASTER</p>", "conditions": [18, 1200, "v", 18000], "internal_node_id": "0.0-44.0", "trial": 1, "time_elapsed": 405072, "serialpos": 7, "key_press": -1, "wordID": 1084, "type": "PRES_VIS", "trial_index": 62}, "uniqueid": "MTK3167:3KYQYYSHYWEJI5EPNVPA13061BDDOB", "dateTime": 1520112133492}, {"current_trial": 63, "trialdata": {"rt": -1, "trial_type": "single-stim", "word": "space", "stimulus": "<p id=\"stim\">SPACE</p>", "conditions": [18, 1200, "v", 18000], "internal_node_id": "0.0-45.0", "trial": 1, "time_elapsed": 407260, "serialpos": 8, "key_press": -1, "wordID": 1344, "type": "PRES_VIS", "trial_index": 63}, "uniqueid": "MTK3167:3KYQYYSHYWEJI5EPNVPA13061BDDOB", "dateTime": 1520112135680}, {"current_trial": 64, "trialdata": {"rt": -1, "trial_type": "single-stim", "word": "lagoon", "stimulus": "<p id=\"stim\">LAGOON</p>", "conditions": [18, 1200, "v", 18000], "internal_node_id": "0.0-46.0", "trial": 1, "time_elapsed": 409647, "serialpos": 9, "key_press": -1, "wordID": 794, "type": "PRES_VIS", "trial_index": 64}, "uniqueid": "MTK3167:3KYQYYSHYWEJI5EPNVPA13061BDDOB", "dateTime": 1520112138068}, {"current_trial": 65, "trialdata": {"rt": -1, "trial_type": "single-stim", "word": "popcorn", "stimulus": "<p id=\"stim\">POPCORN</p>", "conditions": [18, 1200, "v", 18000], "internal_node_id": "0.0-47.0", "trial": 1, "time_elapsed": 411833, "serialpos": 10, "key_press": -1, "wordID": 1103, "type": "PRES_VIS", "trial_index": 65}, "uniqueid": "MTK3167:3KYQYYSHYWEJI5EPNVPA13061BDDOB", "dateTime": 1520112140254}, {"current_trial": 66, "trialdata": {"rt": -1, "trial_type": "single-stim", "word": "cabbage", "stimulus": "<p id=\"stim\">CABBAGE</p>", "conditions": [18, 1200, "v", 18000], "internal_node_id": "0.0-48.0", "trial": 1, "time_elapsed": 414155, "serialpos": 11, "key_press": -1, "wordID": 209, "type": "PRES_VIS", "trial_index": 66}, "uniqueid": "MTK3167:3KYQYYSHYWEJI5EPNVPA13061BDDOB", "dateTime": 1520112142575}, {"current_trial": 67, "trialdata": {"rt": -1, "trial_type": "single-stim", "word": "clamp", "stimulus": "<p id=\"stim\">CLAMP</p>", "conditions": [18, 1200, "v", 18000], "internal_node_id": "0.0-49.0", "trial": 1, "time_elapsed": 416367, "serialpos": 12, "key_press": -1, "wordID": 315, "type": "PRES_VIS", "trial_index": 67}, "uniqueid": "MTK3167:3KYQYYSHYWEJI5EPNVPA13061BDDOB", "dateTime": 1520112144787}, {"current_trial": 68, "trialdata": {"rt": -1, "trial_type": "single-stim", "word": "dime", "stimulus": "<p id=\"stim\">DIME</p>", "conditions": [18, 1200, "v", 18000], "internal_node_id": "0.0-50.0", "trial": 1, "time_elapsed": 418733, "serialpos": 13, "key_press": -1, "wordID": 465, "type": "PRES_VIS", "trial_index": 68}, "uniqueid": "MTK3167:3KYQYYSHYWEJI5EPNVPA13061BDDOB", "dateTime": 1520112147158}, {"current_trial": 69, "trialdata": {"rt": -1, "trial_type": "single-stim", "word": "yacht", "stimulus": "<p id=\"stim\">YACHT</p>", "conditions": [18, 1200, "v", 18000], "internal_node_id": "0.0-51.0", "trial": 1, "time_elapsed": 421050, "serialpos": 14, "key_press": -1, "wordID": 1628, "type": "PRES_VIS", "trial_index": 69}, "uniqueid": "MTK3167:3KYQYYSHYWEJI5EPNVPA13061BDDOB", "dateTime": 1520112149470}, {"current_trial": 70, "trialdata": {"rt": -1, "trial_type": "single-stim", "word": "atom", "stimulus": "<p id=\"stim\">ATOM</p>", "conditions": [18, 1200, "v", 18000], "internal_node_id": "0.0-52.0", "trial": 1, "time_elapsed": 423261, "serialpos": 15, "key_press": -1, "wordID": 54, "type": "PRES_VIS", "trial_index": 70}, "uniqueid": "MTK3167:3KYQYYSHYWEJI5EPNVPA13061BDDOB", "dateTime": 1520112151682}, {"current_trial": 71, "trialdata": {"rt": -1, "trial_type": "single-stim", "word": "blender", "stimulus": "<p id=\"stim\">BLENDER</p>", "conditions": [18, 1200, "v", 18000], "internal_node_id": "0.0-53.0", "trial": 1, "time_elapsed": 425576, "serialpos": 16, "key_press": -1, "wordID": 135, "type": "PRES_VIS", "trial_index": 71}, "uniqueid": "MTK3167:3KYQYYSHYWEJI5EPNVPA13061BDDOB", "dateTime": 1520112153997}, {"current_trial": 72, "trialdata": {"rt": -1, "trial_type": "single-stim", "word": "river", "stimulus": "<p id=\"stim\">RIVER</p>", "conditions": [18, 1200, "v", 18000], "internal_node_id": "0.0-54.0", "trial": 1, "time_elapsed": 427643, "serialpos": 17, "key_press": -1, "wordID": 1193, "type": "PRES_VIS", "trial_index": 72}, "uniqueid": "MTK3167:3KYQYYSHYWEJI5EPNVPA13061BDDOB", "dateTime": 1520112156063}, {"current_trial": 73, "trialdata": {"rt": -1, "trial_type": "single-stim", "stimulus": "", "internal_node_id": "0.0-55.0-0.0", "time_elapsed": 429964, "key_press": -1, "type": "PRE_RECALL_DELAY", "trial_index": 73}, "uniqueid": "MTK3167:3KYQYYSHYWEJI5EPNVPA13061BDDOB", "dateTime": 1520112158384}, {"current_trial": 74, "trialdata": {"rt": -1000, "trial_type": "single-audio", "stimulus": "/static/audio/400Hz.wav", "internal_node_id": "0.0-56.0", "time_elapsed": 430467, "key_press": -1, "type": "PRE_RECALL_ALERT", "trial_index": 74}, "uniqueid": "MTK3167:3KYQYYSHYWEJI5EPNVPA13061BDDOB", "dateTime": 1520112158887}, {"current_trial": 75, "trialdata": {"rt": [4111, 5886, 13145, 16399, 28333], "recwords": ["blender", "swimmer", "lagoon", "casket", "arm"], "key_times": [2096, 2558, 2839, 3254, 3446, 3654, 3853, 4111, 4654, 4862, 5031, 5278, 5414, 5574, 5729, 5886, 12105, 12217, 12474, 12634, 12768, 12921, 13145, 15471, 15672, 15790, 15904, 16089, 16248, 16399, 26726, 27001, 27821, 28333], "trial_type": "free-recall", "conditions": [18, 1200, "v", 18000], "internal_node_id": "0.0-57.0-0.0", "key_presses": [66, 76, 69, 78, 68, 69, 82, 13, 83, 87, 73, 77, 77, 69, 82, 13, 76, 65, 71, 79, 79, 78, 13, 67, 65, 83, 75, 69, 84, 13, 65, 82, 77, 13], "trial": 1, "time_elapsed": 490473, "type": "FREE_RECALL", "trial_index": 75}, "uniqueid": "MTK3167:3KYQYYSHYWEJI5EPNVPA13061BDDOB", "dateTime": 1520112218896}, {"current_trial": 76, "trialdata": {"rt": 2520, "trial_type": "text", "internal_node_id": "0.0-58.0", "time_elapsed": 495001, "key_press": 13, "type": "INSTRUCTIONS", "trial_index": 76}, "uniqueid": "MTK3167:3KYQYYSHYWEJI5EPNVPA13061BDDOB", "dateTime": 1520112223422}, {"current_trial": 77, "trialdata": {"rt": [3241, 11642, 13426, 15712, 17297, 20889], "trial_type": "math-distractor", "key_times": [2689, 2857, 3241, 11282, 11385, 11642, 13145, 13259, 13426, 15553, 15712, 17001, 17297, 20392, 20673, 20889, 23801, 23945], "responses": ["18", "18", "11", "6", "7", "15"], "num2": [4, 5, 1, 3, 3, 8, 4], "num3": [6, 6, 6, 1, 3, 3, 3], "conditions": [12, 800, "v", 24000], "internal_node_id": "0.0-59.0", "key_presses": [49, 56, 13, 49, 56, 13, 49, 49, 13, 54, 13, 55, 13, 49, 53, 13, 49, 49], "trial": 2, "time_elapsed": 520011, "type": "DISTRACTOR", "trial_index": 77, "num1": [8, 7, 4, 2, 1, 4, 4]}, "uniqueid": "MTK3167:3KYQYYSHYWEJI5EPNVPA13061BDDOB", "dateTime": 1520112248431}, {"current_trial": 78, "trialdata": {"rt": -1, "trial_type": "single-stim", "stimulus": "<p id=\"stim\">10</p>", "internal_node_id": "0.0-60.0-0.0", "time_elapsed": 523020, "key_press": -1, "trial_index": 78}, "uniqueid": "MTK3167:3KYQYYSHYWEJI5EPNVPA13061BDDOB", "dateTime": 1520112251440}, {"current_trial": 79, "trialdata": {"rt": -1, "trial_type": "single-stim", "stimulus": "<p id=\"stim\">9</p>", "internal_node_id": "0.0-60.0-1.0", "time_elapsed": 524026, "key_press": -1, "trial_index": 79}, "uniqueid": "MTK3167:3KYQYYSHYWEJI5EPNVPA13061BDDOB", "dateTime": 1520112252446}, {"current_trial": 80, "trialdata": {"rt": -1, "trial_type": "single-stim", "stimulus": "<p id=\"stim\">8</p>", "internal_node_id": "0.0-60.0-2.0", "time_elapsed": 525033, "key_press": -1, "trial_index": 80}, "uniqueid": "MTK3167:3KYQYYSHYWEJI5EPNVPA13061BDDOB", "dateTime": 1520112253453}, {"current_trial": 81, "trialdata": {"rt": -1, "trial_type": "single-stim", "stimulus": "<p id=\"stim\">7</p>", "internal_node_id": "0.0-60.0-3.0", "time_elapsed": 526039, "key_press": -1, "trial_index": 81}, "uniqueid": "MTK3167:3KYQYYSHYWEJI5EPNVPA13061BDDOB", "dateTime": 1520112254459}, {"current_trial": 82, "trialdata": {"rt": -1, "trial_type": "single-stim", "stimulus": "<p id=\"stim\">6</p>", "internal_node_id": "0.0-60.0-4.0", "time_elapsed": 527045, "key_press": -1, "trial_index": 82}, "uniqueid": "MTK3167:3KYQYYSHYWEJI5EPNVPA13061BDDOB", "dateTime": 1520112255465}, {"current_trial": 83, "trialdata": {"rt": -1, "trial_type": "single-stim", "stimulus": "<p id=\"stim\">5</p>", "internal_node_id": "0.0-60.0-5.0", "time_elapsed": 528049, "key_press": -1, "trial_index": 83}, "uniqueid": "MTK3167:3KYQYYSHYWEJI5EPNVPA13061BDDOB", "dateTime": 1520112256469}, {"current_trial": 84, "trialdata": {"rt": -1, "trial_type": "single-stim", "stimulus": "<p id=\"stim\">4</p>", "internal_node_id": "0.0-60.0-6.0", "time_elapsed": 529053, "key_press": -1, "trial_index": 84}, "uniqueid": "MTK3167:3KYQYYSHYWEJI5EPNVPA13061BDDOB", "dateTime": 1520112257473}, {"current_trial": 85, "trialdata": {"rt": -1, "trial_type": "single-stim", "stimulus": "<p id=\"stim\">3</p>", "internal_node_id": "0.0-60.0-7.0", "time_elapsed": 530057, "key_press": -1, "trial_index": 85}, "uniqueid": "MTK3167:3KYQYYSHYWEJI5EPNVPA13061BDDOB", "dateTime": 1520112258477}, {"current_trial": 86, "trialdata": {"rt": -1, "trial_type": "single-stim", "stimulus": "<p id=\"stim\">2</p>", "internal_node_id": "0.0-60.0-8.0", "time_elapsed": 531061, "key_press": -1, "trial_index": 86}, "uniqueid": "MTK3167:3KYQYYSHYWEJI5EPNVPA13061BDDOB", "dateTime": 1520112259481}, {"current_trial": 87, "trialdata": {"rt": -1, "trial_type": "single-stim", "stimulus": "<p id=\"stim\">1</p>", "internal_node_id": "0.0-60.0-9.0", "time_elapsed": 532065, "key_press": -1, "trial_index": 87}, "uniqueid": "MTK3167:3KYQYYSHYWEJI5EPNVPA13061BDDOB", "dateTime": 1520112260485}, {"current_trial": 88, "trialdata": {"rt": -1, "trial_type": "single-stim", "stimulus": "<p id=\"stim\">+</p>", "internal_node_id": "0.0-61.0-0.0", "time_elapsed": 533568, "key_press": -1, "type": "FIXATION", "trial_index": 88}, "uniqueid": "MTK3167:3KYQYYSHYWEJI5EPNVPA13061BDDOB", "dateTime": 1520112261988}, {"current_trial": 89, "trialdata": {"rt": -1, "trial_type": "single-stim", "word": "hero", "stimulus": "<p id=\"stim\">HERO</p>", "conditions": [12, 800, "v", 24000], "internal_node_id": "0.0-62.0", "trial": 2, "time_elapsed": 534373, "serialpos": 0, "key_press": -1, "wordID": 705, "type": "PRES_VIS", "trial_index": 89}, "uniqueid": "MTK3167:3KYQYYSHYWEJI5EPNVPA13061BDDOB", "dateTime": 1520112262793}, {"current_trial": 90, "trialdata": {"rt": -1, "trial_type": "single-stim", "word": "brick", "stimulus": "<p id=\"stim\">BRICK</p>", "conditions": [12, 800, "v", 24000], "internal_node_id": "0.0-63.0", "trial": 2, "time_elapsed": 536334, "serialpos": 1, "key_press": -1, "wordID": 171, "type": "PRES_VIS", "trial_index": 90}, "uniqueid": "MTK3167:3KYQYYSHYWEJI5EPNVPA13061BDDOB", "dateTime": 1520112264754}, {"current_trial": 91, "trialdata": {"rt": -1, "trial_type": "single-stim", "word": "army", "stimulus": "<p id=\"stim\">ARMY</p>", "conditions": [12, 800, "v", 24000], "internal_node_id": "0.0-64.0", "trial": 2, "time_elapsed": 538105, "serialpos": 2, "key_press": -1, "wordID": 38, "type": "PRES_VIS", "trial_index": 91}, "uniqueid": "MTK3167:3KYQYYSHYWEJI5EPNVPA13061BDDOB", "dateTime": 1520112266525}, {"current_trial": 92, "trialdata": {"rt": -1, "trial_type": "single-stim", "word": "trout", "stimulus": "<p id=\"stim\">TROUT</p>", "conditions": [12, 800, "v", 24000], "internal_node_id": "0.0-65.0", "trial": 2, "time_elapsed": 539744, "serialpos": 3, "key_press": -1, "wordID": 1510, "type": "PRES_VIS", "trial_index": 92}, "uniqueid": "MTK3167:3KYQYYSHYWEJI5EPNVPA13061BDDOB", "dateTime": 1520112268164}, {"current_trial": 93, "trialdata": {"rt": -1, "trial_type": "single-stim", "word": "drink", "stimulus": "<p id=\"stim\">DRINK</p>", "conditions": [12, 800, "v", 24000], "internal_node_id": "0.0-66.0", "trial": 2, "time_elapsed": 541615, "serialpos": 4, "key_press": -1, "wordID": 497, "type": "PRES_VIS", "trial_index": 93}, "uniqueid": "MTK3167:3KYQYYSHYWEJI5EPNVPA13061BDDOB", "dateTime": 1520112270035}, {"current_trial": 94, "trialdata": {"rt": -1, "trial_type": "single-stim", "word": "toaster", "stimulus": "<p id=\"stim\">TOASTER</p>", "conditions": [12, 800, "v", 24000], "internal_node_id": "0.0-67.0", "trial": 2, "time_elapsed": 543473, "serialpos": 5, "key_press": -1, "wordID": 1471, "type": "PRES_VIS", "trial_index": 94}, "uniqueid": "MTK3167:3KYQYYSHYWEJI5EPNVPA13061BDDOB", "dateTime": 1520112271893}, {"current_trial": 95, "trialdata": {"rt": -1, "trial_type": "single-stim", "word": "stove", "stimulus": "<p id=\"stim\">STOVE</p>", "conditions": [12, 800, "v", 24000], "internal_node_id": "0.0-68.0", "trial": 2, "time_elapsed": 545350, "serialpos": 6, "key_press": -1, "wordID": 1387, "type": "PRES_VIS", "trial_index": 95}, "uniqueid": "MTK3167:3KYQYYSHYWEJI5EPNVPA13061BDDOB", "dateTime": 1520112273770}, {"current_trial": 96, "trialdata": {"rt": -1, "trial_type": "single-stim", "word": "soda", "stimulus": "<p id=\"stim\">SODA</p>", "conditions": [12, 800, "v", 24000], "internal_node_id": "0.0-69.0", "trial": 2, "time_elapsed": 547196, "serialpos": 7, "key_press": -1, "wordID": 1340, "type": "PRES_VIS", "trial_index": 96}, "uniqueid": "MTK3167:3KYQYYSHYWEJI5EPNVPA13061BDDOB", "dateTime": 1520112275616}, {"current_trial": 97, "trialdata": {"rt": -1, "trial_type": "single-stim", "word": "subway", "stimulus": "<p id=\"stim\">SUBWAY</p>", "conditions": [12, 800, "v", 24000], "internal_node_id": "0.0-70.0", "trial": 2, "time_elapsed": 549051, "serialpos": 8, "key_press": -1, "wordID": 1399, "type": "PRES_VIS", "trial_index": 97}, "uniqueid": "MTK3167:3KYQYYSHYWEJI5EPNVPA13061BDDOB", "dateTime": 1520112277471}, {"current_trial": 98, "trialdata": {"rt": -1, "trial_type": "single-stim", "word": "stream", "stimulus": "<p id=\"stim\">STREAM</p>", "conditions": [12, 800, "v", 24000], "internal_node_id": "0.0-71.0", "trial": 2, "time_elapsed": 551003, "serialpos": 9, "key_press": -1, "wordID": 1391, "type": "PRES_VIS", "trial_index": 98}, "uniqueid": "MTK3167:3KYQYYSHYWEJI5EPNVPA13061BDDOB", "dateTime": 1520112279423}, {"current_trial": 99, "trialdata": {"rt": -1, "trial_type": "single-stim", "word": "sculpture", "stimulus": "<p id=\"stim\">SCULPTURE</p>", "conditions": [12, 800, "v", 24000], "internal_node_id": "0.0-72.0", "trial": 2, "time_elapsed": 552811, "serialpos": 10, "key_press": -1, "wordID": 1257, "type": "PRES_VIS", "trial_index": 99}, "uniqueid": "MTK3167:3KYQYYSHYWEJI5EPNVPA13061BDDOB", "dateTime": 1520112281231}, {"current_trial": 100, "trialdata": {"rt": -1, "trial_type": "single-stim", "word": "lover", "stimulus": "<p id=\"stim\">LOVER</p>", "conditions": [12, 800, "v", 24000], "internal_node_id": "0.0-73.0", "trial": 2, "time_elapsed": 554656, "serialpos": 11, "key_press": -1, "wordID": 845, "type": "PRES_VIS", "trial_index": 100}, "uniqueid": "MTK3167:3KYQYYSHYWEJI5EPNVPA13061BDDOB", "dateTime": 1520112283077}, {"current_trial": 101, "trialdata": {"rt": -1, "trial_type": "single-stim", "stimulus": "", "internal_node_id": "0.0-74.0-0.0", "time_elapsed": 556987, "key_press": -1, "type": "PRE_RECALL_DELAY", "trial_index": 101}, "uniqueid": "MTK3167:3KYQYYSHYWEJI5EPNVPA13061BDDOB", "dateTime": 1520112285407}, {"current_trial": 102, "trialdata": {"rt": -1000, "trial_type": "single-audio", "stimulus": "/static/audio/400Hz.wav", "internal_node_id": "0.0-75.0", "time_elapsed": 557488, "key_press": -1, "type": "PRE_RECALL_ALERT", "trial_index": 102}, "uniqueid": "MTK3167:3KYQYYSHYWEJI5EPNVPA13061BDDOB", "dateTime": 1520112285908}, {"current_trial": 103, "trialdata": {"rt": [3462, 5142, 8558, 10512, 13497, 15457, 18465, 19713, 22791, 24417, 28709, 29893, 34813], "recwords": ["hero", "brick", "army", "trout", "lover", "stream", "subway", "soda", "stove", "toaster", "drink", "scu", "sculpture"], "key_times": [2727, 2854, 3030, 3166, 3462, 4046, 4326, 4526, 4678, 4837, 5142, 5582, 5766, 5950, 6526, 8558, 9581, 9750, 9902, 10039, 10224, 10512, 12696, 12898, 12966, 13168, 13328, 13497, 14046, 14239, 14432, 14760, 14967, 15160, 15457, 17224, 17392, 17622, 17889, 18048, 18337, 18465, 18968, 19137, 19239, 19440, 19713, 21551, 21921, 22120, 22280, 22496, 22791, 23402, 23528, 23637, 23840, 23992, 24128, 24247, 24417, 25913, 26136, 26257, 27056, 27703, 28294, 28392, 28709, 29316, 29557, 29701, 29893, 32557, 32797, 33053, 33301, 33974, 34333, 34485, 34557, 34701, 34813], "trial_type": "free-recall", "conditions": [12, 800, "v", 24000], "internal_node_id": "0.0-76.0-0.0", "key_presses": [72, 69, 82, 79, 13, 66, 82, 73, 67, 75, 13, 65, 82, 77, 89, 13, 84, 82, 79, 85, 84, 13, 76, 79, 86, 69, 82, 13, 83, 84, 82, 69, 65, 77, 13, 83, 85, 66, 87, 65, 89, 13, 83, 79, 68, 65, 13, 83, 84, 79, 86, 69, 13, 84, 79, 65, 83, 84, 69, 82, 13, 68, 82, 79, 8, 73, 78, 75, 13, 83, 67, 85, 186, 83, 67, 85, 76, 80, 84, 85, 82, 69, 13], "trial": 2, "time_elapsed": 617492, "type": "FREE_RECALL", "trial_index": 103}, "uniqueid": "MTK3167:3KYQYYSHYWEJI5EPNVPA13061BDDOB", "dateTime": 1520112345918}, {"current_trial": 104, "trialdata": {"rt": 1758, "trial_type": "text", "internal_node_id": "0.0-77.0", "time_elapsed": 621261, "key_press": 13, "type": "INSTRUCTIONS", "trial_index": 104}, "uniqueid": "MTK3167:3KYQYYSHYWEJI5EPNVPA13061BDDOB", "dateTime": 1520112349682}, {"current_trial": 105, "trialdata": {"rt": [5483, 9322, 11035, 13651, 17354, 19275, 22090, 23947], "trial_type": "math-distractor", "key_times": [4731, 5131, 5483, 8732, 9035, 9322, 10570, 10818, 11035, 13027, 13387, 13651, 16746, 17130, 17354, 18830, 19067, 19275, 21659, 21890, 22090, 23434, 23762, 23947], "responses": ["16", "16", "14", "16", "17", "14", "14", "16"], "num2": [6, 3, 4, 8, 3, 8, 7, 1, 7], "num3": [3, 5, 9, 4, 4, 2, 4, 9, 6], "conditions": [24, 1600, "v", 24000], "internal_node_id": "0.0-78.0", "key_presses": [49, 54, 13, 49, 54, 13, 49, 52, 13, 49, 54, 13, 49, 55, 13, 49, 52, 13, 49, 52, 13, 49, 54, 13], "trial": 3, "time_elapsed": 647273, "type": "DISTRACTOR", "trial_index": 105, "num1": [7, 8, 1, 4, 9, 4, 3, 6, 7]}, "uniqueid": "MTK3167:3KYQYYSHYWEJI5EPNVPA13061BDDOB", "dateTime": 1520112375693}, {"current_trial": 106, "trialdata": {"rt": -1, "trial_type": "single-stim", "stimulus": "<p id=\"stim\">10</p>", "internal_node_id": "0.0-79.0-0.0", "time_elapsed": 650281, "key_press": -1, "trial_index": 106}, "uniqueid": "MTK3167:3KYQYYSHYWEJI5EPNVPA13061BDDOB", "dateTime": 1520112378701}, {"current_trial": 107, "trialdata": {"rt": -1, "trial_type": "single-stim", "stimulus": "<p id=\"stim\">9</p>", "internal_node_id": "0.0-79.0-1.0", "time_elapsed": 651284, "key_press": -1, "trial_index": 107}, "uniqueid": "MTK3167:3KYQYYSHYWEJI5EPNVPA13061BDDOB", "dateTime": 1520112379704}, {"current_trial": 108, "trialdata": {"rt": -1, "trial_type": "single-stim", "stimulus": "<p id=\"stim\">8</p>", "internal_node_id": "0.0-79.0-2.0", "time_elapsed": 652289, "key_press": -1, "trial_index": 108}, "uniqueid": "MTK3167:3KYQYYSHYWEJI5EPNVPA13061BDDOB", "dateTime": 1520112380709}, {"current_trial": 109, "trialdata": {"rt": -1, "trial_type": "single-stim", "stimulus": "<p id=\"stim\">7</p>", "internal_node_id": "0.0-79.0-3.0", "time_elapsed": 653295, "key_press": -1, "trial_index": 109}, "uniqueid": "MTK3167:3KYQYYSHYWEJI5EPNVPA13061BDDOB", "dateTime": 1520112381715}, {"current_trial": 110, "trialdata": {"rt": -1, "trial_type": "single-stim", "stimulus": "<p id=\"stim\">6</p>", "internal_node_id": "0.0-79.0-4.0", "time_elapsed": 654300, "key_press": -1, "trial_index": 110}, "uniqueid": "MTK3167:3KYQYYSHYWEJI5EPNVPA13061BDDOB", "dateTime": 1520112382720}, {"current_trial": 111, "trialdata": {"rt": -1, "trial_type": "single-stim", "stimulus": "<p id=\"stim\">5</p>", "internal_node_id": "0.0-79.0-5.0", "time_elapsed": 655303, "key_press": -1, "trial_index": 111}, "uniqueid": "MTK3167:3KYQYYSHYWEJI5EPNVPA13061BDDOB", "dateTime": 1520112383724}, {"current_trial": 112, "trialdata": {"rt": -1, "trial_type": "single-stim", "stimulus": "<p id=\"stim\">4</p>", "internal_node_id": "0.0-79.0-6.0", "time_elapsed": 656310, "key_press": -1, "trial_index": 112}, "uniqueid": "MTK3167:3KYQYYSHYWEJI5EPNVPA13061BDDOB", "dateTime": 1520112384730}, {"current_trial": 113, "trialdata": {"rt": -1, "trial_type": "single-stim", "stimulus": "<p id=\"stim\">3</p>", "internal_node_id": "0.0-79.0-7.0", "time_elapsed": 657315, "key_press": -1, "trial_index": 113}, "uniqueid": "MTK3167:3KYQYYSHYWEJI5EPNVPA13061BDDOB", "dateTime": 1520112385735}, {"current_trial": 114, "trialdata": {"rt": -1, "trial_type": "single-stim", "stimulus": "<p id=\"stim\">2</p>", "internal_node_id": "0.0-79.0-8.0", "time_elapsed": 658319, "key_press": -1, "trial_index": 114}, "uniqueid": "MTK3167:3KYQYYSHYWEJI5EPNVPA13061BDDOB", "dateTime": 1520112386740}, {"current_trial": 115, "trialdata": {"rt": -1, "trial_type": "single-stim", "stimulus": "<p id=\"stim\">1</p>", "internal_node_id": "0.0-79.0-9.0", "time_elapsed": 659323, "key_press": -1, "trial_index": 115}, "uniqueid": "MTK3167:3KYQYYSHYWEJI5EPNVPA13061BDDOB", "dateTime": 1520112387743}, {"current_trial": 116, "trialdata": {"rt": -1, "trial_type": "single-stim", "stimulus": "<p id=\"stim\">+</p>", "internal_node_id": "0.0-80.0-0.0", "time_elapsed": 660829, "key_press": -1, "type": "FIXATION", "trial_index": 116}, "uniqueid": "MTK3167:3KYQYYSHYWEJI5EPNVPA13061BDDOB", "dateTime": 1520112389250}, {"current_trial": 117, "trialdata": {"rt": -1, "trial_type": "single-stim", "word": "knapsack", "stimulus": "<p id=\"stim\">KNAPSACK</p>", "conditions": [24, 1600, "v", 24000], "internal_node_id": "0.0-81.0", "trial": 3, "time_elapsed": 662434, "serialpos": 0, "key_press": -1, "wordID": 782, "type": "PRES_VIS", "trial_index": 117}, "uniqueid": "MTK3167:3KYQYYSHYWEJI5EPNVPA13061BDDOB", "dateTime": 1520112390854}, {"current_trial": 118, "trialdata": {"rt": -1, "trial_type": "single-stim", "word": "cigar", "stimulus": "<p id=\"stim\">CIGAR</p>", "conditions": [24, 1600, "v", 24000], "internal_node_id": "0.0-82.0", "trial": 3, "time_elapsed": 665051, "serialpos": 1, "key_press": -1, "wordID": 307, "type": "PRES_VIS", "trial_index": 118}, "uniqueid": "MTK3167:3KYQYYSHYWEJI5EPNVPA13061BDDOB", "dateTime": 1520112393472}, {"current_trial": 119, "trialdata": {"rt": -1, "trial_type": "single-stim", "word": "costume", "stimulus": "<p id=\"stim\">COSTUME</p>", "conditions": [24, 1600, "v", 24000], "internal_node_id": "0.0-83.0", "trial": 3, "time_elapsed": 667753, "serialpos": 2, "key_press": -1, "wordID": 382, "type": "PRES_VIS", "trial_index": 119}, "uniqueid": "MTK3167:3KYQYYSHYWEJI5EPNVPA13061BDDOB", "dateTime": 1520112396173}, {"current_trial": 120, "trialdata": {"rt": -1, "trial_type": "single-stim", "word": "bunny", "stimulus": "<p id=\"stim\">BUNNY</p>", "conditions": [24, 1600, "v", 24000], "internal_node_id": "0.0-84.0", "trial": 3, "time_elapsed": 670484, "serialpos": 3, "key_press": -1, "wordID": 197, "type": "PRES_VIS", "trial_index": 120}, "uniqueid": "MTK3167:3KYQYYSHYWEJI5EPNVPA13061BDDOB", "dateTime": 1520112398904}, {"current_trial": 121, "trialdata": {"rt": -1, "trial_type": "single-stim", "word": "turnip", "stimulus": "<p id=\"stim\">TURNIP</p>", "conditions": [24, 1600, "v", 24000], "internal_node_id": "0.0-85.0", "trial": 3, "time_elapsed": 673119, "serialpos": 4, "key_press": -1, "wordID": 1520, "type": "PRES_VIS", "trial_index": 121}, "uniqueid": "MTK3167:3KYQYYSHYWEJI5EPNVPA13061BDDOB", "dateTime": 1520112401539}, {"current_trial": 122, "trialdata": {"rt": -1, "trial_type": "single-stim", "word": "bathtub", "stimulus": "<p id=\"stim\">BATHTUB</p>", "conditions": [24, 1600, "v", 24000], "internal_node_id": "0.0-86.0", "trial": 3, "time_elapsed": 675840, "serialpos": 5, "key_press": -1, "wordID": 99, "type": "PRES_VIS", "trial_index": 122}, "uniqueid": "MTK3167:3KYQYYSHYWEJI5EPNVPA13061BDDOB", "dateTime": 1520112404261}, {"current_trial": 123, "trialdata": {"rt": -1, "trial_type": "single-stim", "word": "ground", "stimulus": "<p id=\"stim\">GROUND</p>", "conditions": [24, 1600, "v", 24000], "internal_node_id": "0.0-87.0", "trial": 3, "time_elapsed": 678302, "serialpos": 6, "key_press": -1, "wordID": 665, "type": "PRES_VIS", "trial_index": 123}, "uniqueid": "MTK3167:3KYQYYSHYWEJI5EPNVPA13061BDDOB", "dateTime": 1520112406722}, {"current_trial": 124, "trialdata": {"rt": -1, "trial_type": "single-stim", "word": "beaver", "stimulus": "<p id=\"stim\">BEAVER</p>", "conditions": [24, 1600, "v", 24000], "internal_node_id": "0.0-88.0", "trial": 3, "time_elapsed": 680780, "serialpos": 7, "key_press": -1, "wordID": 108, "type": "PRES_VIS", "trial_index": 124}, "uniqueid": "MTK3167:3KYQYYSHYWEJI5EPNVPA13061BDDOB", "dateTime": 1520112409200}, {"current_trial": 125, "trialdata": {"rt": -1, "trial_type": "single-stim", "word": "student", "stimulus": "<p id=\"stim\">STUDENT</p>", "conditions": [24, 1600, "v", 24000], "internal_node_id": "0.0-89.0", "trial": 3, "time_elapsed": 683421, "serialpos": 8, "key_press": -1, "wordID": 1394, "type": "PRES_VIS", "trial_index": 125}, "uniqueid": "MTK3167:3KYQYYSHYWEJI5EPNVPA13061BDDOB", "dateTime": 1520112411841}, {"current_trial": 126, "trialdata": {"rt": -1, "trial_type": "single-stim", "word": "wardrobe", "stimulus": "<p id=\"stim\">WARDROBE</p>", "conditions": [24, 1600, "v", 24000], "internal_node_id": "0.0-90.0", "trial": 3, "time_elapsed": 686001, "serialpos": 9, "key_press": -1, "wordID": 1586, "type": "PRES_VIS", "trial_index": 126}, "uniqueid": "MTK3167:3KYQYYSHYWEJI5EPNVPA13061BDDOB", "dateTime": 1520112414421}, {"current_trial": 127, "trialdata": {"rt": -1, "trial_type": "single-stim", "word": "sister", "stimulus": "<p id=\"stim\">SISTER</p>", "conditions": [24, 1600, "v", 24000], "internal_node_id": "0.0-91.0", "trial": 3, "time_elapsed": 688499, "serialpos": 10, "key_press": -1, "wordID": 1311, "type": "PRES_VIS", "trial_index": 127}, "uniqueid": "MTK3167:3KYQYYSHYWEJI5EPNVPA13061BDDOB", "dateTime": 1520112416919}, {"current_trial": 128, "trialdata": {"rt": -1, "trial_type": "single-stim", "word": "sibling", "stimulus": "<p id=\"stim\">SIBLING</p>", "conditions": [24, 1600, "v", 24000], "internal_node_id": "0.0-92.0", "trial": 3, "time_elapsed": 691154, "serialpos": 11, "key_press": -1, "wordID": 1300, "type": "PRES_VIS", "trial_index": 128}, "uniqueid": "MTK3167:3KYQYYSHYWEJI5EPNVPA13061BDDOB", "dateTime": 1520112419574}, {"current_trial": 129, "trialdata": {"rt": -1, "trial_type": "single-stim", "word": "banjo", "stimulus": "<p id=\"stim\">BANJO</p>", "conditions": [24, 1600, "v", 24000], "internal_node_id": "0.0-93.0", "trial": 3, "time_elapsed": 693803, "serialpos": 12, "key_press": -1, "wordID": 81, "type": "PRES_VIS", "trial_index": 129}, "uniqueid": "MTK3167:3KYQYYSHYWEJI5EPNVPA13061BDDOB", "dateTime": 1520112422224}, {"current_trial": 130, "trialdata": {"rt": -1, "trial_type": "single-stim", "word": "xerox", "stimulus": "<p id=\"stim\">XEROX</p>", "conditions": [24, 1600, "v", 24000], "internal_node_id": "0.0-94.0", "trial": 3, "time_elapsed": 696226, "serialpos": 13, "key_press": -1, "wordID": 1627, "type": "PRES_VIS", "trial_index": 130}, "uniqueid": "MTK3167:3KYQYYSHYWEJI5EPNVPA13061BDDOB", "dateTime": 1520112424647}, {"current_trial": 131, "trialdata": {"rt": -1, "trial_type": "single-stim", "word": "ulcer", "stimulus": "<p id=\"stim\">ULCER</p>", "conditions": [24, 1600, "v", 24000], "internal_node_id": "0.0-95.0", "trial": 3, "time_elapsed": 698960, "serialpos": 14, "key_press": -1, "wordID": 1532, "type": "PRES_VIS", "trial_index": 131}, "uniqueid": "MTK3167:3KYQYYSHYWEJI5EPNVPA13061BDDOB", "dateTime": 1520112427380}, {"current_trial": 132, "trialdata": {"rt": -1, "trial_type": "single-stim", "word": "turtle", "stimulus": "<p id=\"stim\">TURTLE</p>", "conditions": [24, 1600, "v", 24000], "internal_node_id": "0.0-96.0", "trial": 3, "time_elapsed": 701546, "serialpos": 15, "key_press": -1, "wordID": 1521, "type": "PRES_VIS", "trial_index": 132}, "uniqueid": "MTK3167:3KYQYYSHYWEJI5EPNVPA13061BDDOB", "dateTime": 1520112429966}, {"current_trial": 133, "trialdata": {"rt": -1, "trial_type": "single-stim", "word": "temple", "stimulus": "<p id=\"stim\">TEMPLE</p>", "conditions": [24, 1600, "v", 24000], "internal_node_id": "0.0-97.0", "trial": 3, "time_elapsed": 704317, "serialpos": 16, "key_press": -1, "wordID": 1447, "type": "PRES_VIS", "trial_index": 133}, "uniqueid": "MTK3167:3KYQYYSHYWEJI5EPNVPA13061BDDOB", "dateTime": 1520112432737}, {"current_trial": 134, "trialdata": {"rt": -1, "trial_type": "single-stim", "word": "bacon", "stimulus": "<p id=\"stim\">BACON</p>", "conditions": [24, 1600, "v", 24000], "internal_node_id": "0.0-98.0", "trial": 3, "time_elapsed": 706981, "serialpos": 17, "key_press": -1, "wordID": 66, "type": "PRES_VIS", "trial_index": 134}, "uniqueid": "MTK3167:3KYQYYSHYWEJI5EPNVPA13061BDDOB", "dateTime": 1520112435401}, {"current_trial": 135, "trialdata": {"rt": -1, "trial_type": "single-stim", "word": "turkey", "stimulus": "<p id=\"stim\">TURKEY</p>", "conditions": [24, 1600, "v", 24000], "internal_node_id": "0.0-99.0", "trial": 3, "time_elapsed": 709750, "serialpos": 18, "key_press": -1, "wordID": 1519, "type": "PRES_VIS", "trial_index": 135}, "uniqueid": "MTK3167:3KYQYYSHYWEJI5EPNVPA13061BDDOB", "dateTime": 1520112438170}, {"current_trial": 136, "trialdata": {"rt": -1, "trial_type": "single-stim", "word": "ketchup", "stimulus": "<p id=\"stim\">KETCHUP</p>", "conditions": [24, 1600, "v", 24000], "internal_node_id": "0.0-100.0", "trial": 3, "time_elapsed": 712527, "serialpos": 19, "key_press": -1, "wordID": 770, "type": "PRES_VIS", "trial_index": 136}, "uniqueid": "MTK3167:3KYQYYSHYWEJI5EPNVPA13061BDDOB", "dateTime": 1520112440947}, {"current_trial": 137, "trialdata": {"rt": -1, "trial_type": "single-stim", "word": "guitar", "stimulus": "<p id=\"stim\">GUITAR</p>", "conditions": [24, 1600, "v", 24000], "internal_node_id": "0.0-101.0", "trial": 3, "time_elapsed": 715057, "serialpos": 20, "key_press": -1, "wordID": 669, "type": "PRES_VIS", "trial_index": 137}, "uniqueid": "MTK3167:3KYQYYSHYWEJI5EPNVPA13061BDDOB", "dateTime": 1520112443478}, {"current_trial": 138, "trialdata": {"rt": -1, "trial_type": "single-stim", "word": "lake", "stimulus": "<p id=\"stim\">LAKE</p>", "conditions": [24, 1600, "v", 24000], "internal_node_id": "0.0-102.0", "trial": 3, "time_elapsed": 717756, "serialpos": 21, "key_press": -1, "wordID": 795, "type": "PRES_VIS", "trial_index": 138}, "uniqueid": "MTK3167:3KYQYYSHYWEJI5EPNVPA13061BDDOB", "dateTime": 1520112446176}, {"current_trial": 139, "trialdata": {"rt": -1, "trial_type": "single-stim", "word": "glass", "stimulus": "<p id=\"stim\">GLASS</p>", "conditions": [24, 1600, "v", 24000], "internal_node_id": "0.0-103.0", "trial": 3, "time_elapsed": 720403, "serialpos": 22, "key_press": -1, "wordID": 638, "type": "PRES_VIS", "trial_index": 139}, "uniqueid": "MTK3167:3KYQYYSHYWEJI5EPNVPA13061BDDOB", "dateTime": 1520112448823}, {"current_trial": 140, "trialdata": {"rt": -1, "trial_type": "single-stim", "word": "france", "stimulus": "<p id=\"stim\">FRANCE</p>", "conditions": [24, 1600, "v", 24000], "internal_node_id": "0.0-104.0", "trial": 3, "time_elapsed": 722843, "serialpos": 23, "key_press": -1, "wordID": 600, "type": "PRES_VIS", "trial_index": 140}, "uniqueid": "MTK3167:3KYQYYSHYWEJI5EPNVPA13061BDDOB", "dateTime": 1520112451263}, {"current_trial": 141, "trialdata": {"rt": -1, "trial_type": "single-stim", "stimulus": "", "internal_node_id": "0.0-105.0-0.0", "time_elapsed": 724997, "key_press": -1, "type": "PRE_RECALL_DELAY", "trial_index": 141}, "uniqueid": "MTK3167:3KYQYYSHYWEJI5EPNVPA13061BDDOB", "dateTime": 1520112453417}, {"current_trial": 142, "trialdata": {"rt": -1000, "trial_type": "single-audio", "stimulus": "/static/audio/400Hz.wav", "internal_node_id": "0.0-106.0", "time_elapsed": 725499, "key_press": -1, "type": "PRE_RECALL_ALERT", "trial_index": 142}, "uniqueid": "MTK3167:3KYQYYSHYWEJI5EPNVPA13061BDDOB", "dateTime": 1520112453920}, {"current_trial": 143, "trialdata": {"rt": [2088, 3920, 7533, 10076, 11485, 13292, 18092, 22723, 25415, 28070, 31084, 37566, 39278, 42094, 43125], "recwords": ["lake", "glass", "france", "ketchup", "sister", "student", "knapsack", "armout", "body", "turt", "turtle", "ground", "beaver", "glass", "lake"], "key_times": [1376, 1526, 1656, 1791, 2088, 3078, 3240, 3367, 3583, 3735, 3920, 5303, 5487, 5576, 5936, 6399, 6996, 7134, 7360, 7533, 8212, 8364, 8572, 8788, 9020, 9324, 9764, 10076, 10612, 10764, 10956, 11092, 11229, 11340, 11485, 12036, 12244, 12469, 12620, 12804, 12924, 13092, 13292, 14212, 14348, 14564, 14660, 14836, 17244, 17444, 17620, 18092, 21332, 21549, 21740, 21964, 22166, 22380, 22723, 24070, 24220, 24678, 24992, 25415, 27510, 27654, 27790, 27966, 28070, 28237, 29253, 29863, 30046, 30399, 30623, 30757, 30877, 31084, 36367, 36542, 36727, 36862, 37062, 37222, 37566, 38174, 38350, 38486, 38694, 38919, 39062, 39278, 41331, 41509, 41590, 41806, 41958, 42094, 42603, 42703, 42847, 42942, 43125], "trial_type": "free-recall", "conditions": [24, 1600, "v", 24000], "internal_node_id": "0.0-107.0-0.0", "key_presses": [76, 65, 75, 69, 13, 71, 76, 65, 83, 83, 13, 70, 82, 65, 67, 8, 78, 67, 69, 13, 75, 69, 84, 67, 72, 85, 80, 13, 83, 73, 83, 84, 69, 82, 13, 83, 84, 85, 68, 69, 78, 84, 13, 75, 78, 65, 80, 83, 65, 67, 75, 13, 65, 82, 77, 79, 85, 84, 13, 66, 79, 68, 89, 13, 84, 85, 82, 84, 186, 69, 8, 84, 85, 82, 84, 76, 69, 13, 71, 82, 79, 85, 78, 68, 13, 66, 69, 65, 86, 69, 82, 13, 71, 76, 65, 83, 83, 13, 76, 65, 75, 69, 13], "trial": 3, "time_elapsed": 785504, "type": "FREE_RECALL", "trial_index": 143}, "uniqueid": "MTK3167:3KYQYYSHYWEJI5EPNVPA13061BDDOB", "dateTime": 1520112513929}, {"current_trial": 144, "trialdata": {"rt": 1623, "trial_type": "text", "internal_node_id": "0.0-108.0", "time_elapsed": 789135, "key_press": 13, "type": "INSTRUCTIONS", "trial_index": 144}, "uniqueid": "MTK3167:3KYQYYSHYWEJI5EPNVPA13061BDDOB", "dateTime": 1520112517555}, {"current_trial": 145, "trialdata": {"rt": [3057, 8206, 11176, 13224, 17384, 21288], "trial_type": "math-distractor", "key_times": [2152, 2865, 3057, 7447, 7975, 8206, 10903, 11046, 11176, 12568, 13007, 13224, 16807, 17169, 17384, 20857, 21111, 21288], "responses": ["17", "19", "12", "19", "20", "16"], "num2": [3, 4, 4, 5, 6, 9, 7], "num3": [7, 8, 7, 9, 6, 3, 5], "conditions": [12, 1600, "v", 24000], "internal_node_id": "0.0-109.0", "key_presses": [49, 55, 13, 49, 57, 13, 49, 50, 13, 49, 57, 13, 50, 48, 13, 49, 54, 13], "trial": 4, "time_elapsed": 815144, "type": "DISTRACTOR", "trial_index": 145, "num1": [7, 7, 1, 5, 8, 4, 4]}, "uniqueid": "MTK3167:3KYQYYSHYWEJI5EPNVPA13061BDDOB", "dateTime": 1520112543564}, {"current_trial": 146, "trialdata": {"rt": -1, "trial_type": "single-stim", "stimulus": "<p id=\"stim\">10</p>", "internal_node_id": "0.0-110.0-0.0", "time_elapsed": 818155, "key_press": -1, "trial_index": 146}, "uniqueid": "MTK3167:3KYQYYSHYWEJI5EPNVPA13061BDDOB", "dateTime": 1520112546575}, {"current_trial": 147, "trialdata": {"rt": -1, "trial_type": "single-stim", "stimulus": "<p id=\"stim\">9</p>", "internal_node_id": "0.0-110.0-1.0", "time_elapsed": 819159, "key_press": -1, "trial_index": 147}, "uniqueid": "MTK3167:3KYQYYSHYWEJI5EPNVPA13061BDDOB", "dateTime": 1520112547579}, {"current_trial": 148, "trialdata": {"rt": -1, "trial_type": "single-stim", "stimulus": "<p id=\"stim\">8</p>", "internal_node_id": "0.0-110.0-2.0", "time_elapsed": 820163, "key_press": -1, "trial_index": 148}, "uniqueid": "MTK3167:3KYQYYSHYWEJI5EPNVPA13061BDDOB", "dateTime": 1520112548583}, {"current_trial": 149, "trialdata": {"rt": -1, "trial_type": "single-stim", "stimulus": "<p id=\"stim\">7</p>", "internal_node_id": "0.0-110.0-3.0", "time_elapsed": 821168, "key_press": -1, "trial_index": 149}, "uniqueid": "MTK3167:3KYQYYSHYWEJI5EPNVPA13061BDDOB", "dateTime": 1520112549588}, {"current_trial": 150, "trialdata": {"rt": -1, "trial_type": "single-stim", "stimulus": "<p id=\"stim\">6</p>", "internal_node_id": "0.0-110.0-4.0", "time_elapsed": 822172, "key_press": -1, "trial_index": 150}, "uniqueid": "MTK3167:3KYQYYSHYWEJI5EPNVPA13061BDDOB", "dateTime": 1520112550592}, {"current_trial": 151, "trialdata": {"rt": -1, "trial_type": "single-stim", "stimulus": "<p id=\"stim\">5</p>", "internal_node_id": "0.0-110.0-5.0", "time_elapsed": 823176, "key_press": -1, "trial_index": 151}, "uniqueid": "MTK3167:3KYQYYSHYWEJI5EPNVPA13061BDDOB", "dateTime": 1520112551596}, {"current_trial": 152, "trialdata": {"rt": -1, "trial_type": "single-stim", "stimulus": "<p id=\"stim\">4</p>", "internal_node_id": "0.0-110.0-6.0", "time_elapsed": 824179, "key_press": -1, "trial_index": 152}, "uniqueid": "MTK3167:3KYQYYSHYWEJI5EPNVPA13061BDDOB", "dateTime": 1520112552600}, {"current_trial": 153, "trialdata": {"rt": -1, "trial_type": "single-stim", "stimulus": "<p id=\"stim\">3</p>", "internal_node_id": "0.0-110.0-7.0", "time_elapsed": 825184, "key_press": -1, "trial_index": 153}, "uniqueid": "MTK3167:3KYQYYSHYWEJI5EPNVPA13061BDDOB", "dateTime": 1520112553604}, {"current_trial": 154, "trialdata": {"rt": -1, "trial_type": "single-stim", "stimulus": "<p id=\"stim\">2</p>", "internal_node_id": "0.0-110.0-8.0", "time_elapsed": 826187, "key_press": -1, "trial_index": 154}, "uniqueid": "MTK3167:3KYQYYSHYWEJI5EPNVPA13061BDDOB", "dateTime": 1520112554608}, {"current_trial": 155, "trialdata": {"rt": -1, "trial_type": "single-stim", "stimulus": "<p id=\"stim\">1</p>", "internal_node_id": "0.0-110.0-9.0", "time_elapsed": 827192, "key_press": -1, "trial_index": 155}, "uniqueid": "MTK3167:3KYQYYSHYWEJI5EPNVPA13061BDDOB", "dateTime": 1520112555613}, {"current_trial": 156, "trialdata": {"rt": -1, "trial_type": "single-stim", "stimulus": "<p id=\"stim\">+</p>", "internal_node_id": "0.0-111.0-0.0", "time_elapsed": 828695, "key_press": -1, "type": "FIXATION", "trial_index": 156}, "uniqueid": "MTK3167:3KYQYYSHYWEJI5EPNVPA13061BDDOB", "dateTime": 1520112557115}, {"current_trial": 157, "trialdata": {"rt": -1, "trial_type": "single-stim", "word": "beef", "stimulus": "<p id=\"stim\">BEEF</p>", "conditions": [12, 1600, "v", 24000], "internal_node_id": "0.0-112.0", "trial": 4, "time_elapsed": 830302, "serialpos": 0, "key_press": -1, "wordID": 112, "type": "PRES_VIS", "trial_index": 157}, "uniqueid": "MTK3167:3KYQYYSHYWEJI5EPNVPA13061BDDOB", "dateTime": 1520112558723}, {"current_trial": 158, "trialdata": {"rt": -1, "trial_type": "single-stim", "word": "snake", "stimulus": "<p id=\"stim\">SNAKE</p>", "conditions": [12, 1600, "v", 24000], "internal_node_id": "0.0-113.0", "trial": 4, "time_elapsed": 833083, "serialpos": 1, "key_press": -1, "wordID": 1332, "type": "PRES_VIS", "trial_index": 158}, "uniqueid": "MTK3167:3KYQYYSHYWEJI5EPNVPA13061BDDOB", "dateTime": 1520112561503}, {"current_trial": 159, "trialdata": {"rt": -1, "trial_type": "single-stim", "word": "asia", "stimulus": "<p id=\"stim\">ASIA</p>", "conditions": [12, 1600, "v", 24000], "internal_node_id": "0.0-114.0", "trial": 4, "time_elapsed": 835659, "serialpos": 2, "key_press": -1, "wordID": 45, "type": "PRES_VIS", "trial_index": 159}, "uniqueid": "MTK3167:3KYQYYSHYWEJI5EPNVPA13061BDDOB", "dateTime": 1520112564080}, {"current_trial": 160, "trialdata": {"rt": -1, "trial_type": "single-stim", "word": "actor", "stimulus": "<p id=\"stim\">ACTOR</p>", "conditions": [12, 1600, "v", 24000], "internal_node_id": "0.0-115.0", "trial": 4, "time_elapsed": 838223, "serialpos": 3, "key_press": -1, "wordID": 4, "type": "PRES_VIS", "trial_index": 160}, "uniqueid": "MTK3167:3KYQYYSHYWEJI5EPNVPA13061BDDOB", "dateTime": 1520112566643}, {"current_trial": 161, "trialdata": {"rt": -1, "trial_type": "single-stim", "word": "mildew", "stimulus": "<p id=\"stim\">MILDEW</p>", "conditions": [12, 1600, "v", 24000], "internal_node_id": "0.0-116.0", "trial": 4, "time_elapsed": 840953, "serialpos": 4, "key_press": -1, "wordID": 892, "type": "PRES_VIS", "trial_index": 161}, "uniqueid": "MTK3167:3KYQYYSHYWEJI5EPNVPA13061BDDOB", "dateTime": 1520112569374}, {"current_trial": 162, "trialdata": {"rt": -1, "trial_type": "single-stim", "word": "crevice", "stimulus": "<p id=\"stim\">CREVICE</p>", "conditions": [12, 1600, "v", 24000], "internal_node_id": "0.0-117.0", "trial": 4, "time_elapsed": 843564, "serialpos": 5, "key_press": -1, "wordID": 404, "type": "PRES_VIS", "trial_index": 162}, "uniqueid": "MTK3167:3KYQYYSHYWEJI5EPNVPA13061BDDOB", "dateTime": 1520112571984}, {"current_trial": 163, "trialdata": {"rt": -1, "trial_type": "single-stim", "word": "frame", "stimulus": "<p id=\"stim\">FRAME</p>", "conditions": [12, 1600, "v", 24000], "internal_node_id": "0.0-118.0", "trial": 4, "time_elapsed": 846055, "serialpos": 6, "key_press": -1, "wordID": 599, "type": "PRES_VIS", "trial_index": 163}, "uniqueid": "MTK3167:3KYQYYSHYWEJI5EPNVPA13061BDDOB", "dateTime": 1520112574475}, {"current_trial": 164, "trialdata": {"rt": -1, "trial_type": "single-stim", "word": "lizard", "stimulus": "<p id=\"stim\">LIZARD</p>", "conditions": [12, 1600, "v", 24000], "internal_node_id": "0.0-119.0", "trial": 4, "time_elapsed": 848840, "serialpos": 7, "key_press": -1, "wordID": 833, "type": "PRES_VIS", "trial_index": 164}, "uniqueid": "MTK3167:3KYQYYSHYWEJI5EPNVPA13061BDDOB", "dateTime": 1520112577260}, {"current_trial": 165, "trialdata": {"rt": -1, "trial_type": "single-stim", "word": "salt", "stimulus": "<p id=\"stim\">SALT</p>", "conditions": [12, 1600, "v", 24000], "internal_node_id": "0.0-120.0", "trial": 4, "time_elapsed": 851643, "serialpos": 8, "key_press": -1, "wordID": 1228, "type": "PRES_VIS", "trial_index": 165}, "uniqueid": "MTK3167:3KYQYYSHYWEJI5EPNVPA13061BDDOB", "dateTime": 1520112580064}, {"current_trial": 166, "trialdata": {"rt": -1, "trial_type": "single-stim", "word": "supper", "stimulus": "<p id=\"stim\">SUPPER</p>", "conditions": [12, 1600, "v", 24000], "internal_node_id": "0.0-121.0", "trial": 4, "time_elapsed": 854197, "serialpos": 9, "key_press": -1, "wordID": 1410, "type": "PRES_VIS", "trial_index": 166}, "uniqueid": "MTK3167:3KYQYYSHYWEJI5EPNVPA13061BDDOB", "dateTime": 1520112582617}, {"current_trial": 167, "trialdata": {"rt": -1, "trial_type": "single-stim", "word": "picnic", "stimulus": "<p id=\"stim\">PICNIC</p>", "conditions": [12, 1600, "v", 24000], "internal_node_id": "0.0-122.0", "trial": 4, "time_elapsed": 856617, "serialpos": 10, "key_press": -1, "wordID": 1059, "type": "PRES_VIS", "trial_index": 167}, "uniqueid": "MTK3167:3KYQYYSHYWEJI5EPNVPA13061BDDOB", "dateTime": 1520112585038}, {"current_trial": 168, "trialdata": {"rt": -1, "trial_type": "single-stim", "word": "wrist", "stimulus": "<p id=\"stim\">WRIST</p>", "conditions": [12, 1600, "v", 24000], "internal_node_id": "0.0-123.0", "trial": 4, "time_elapsed": 859275, "serialpos": 11, "key_press": -1, "wordID": 1625, "type": "PRES_VIS", "trial_index": 168}, "uniqueid": "MTK3167:3KYQYYSHYWEJI5EPNVPA13061BDDOB", "dateTime": 1520112587696}, {"current_trial": 169, "trialdata": {"rt": -1, "trial_type": "single-stim", "stimulus": "", "internal_node_id": "0.0-124.0-0.0", "time_elapsed": 861416, "key_press": -1, "type": "PRE_RECALL_DELAY", "trial_index": 169}, "uniqueid": "MTK3167:3KYQYYSHYWEJI5EPNVPA13061BDDOB", "dateTime": 1520112589836}, {"current_trial": 170, "trialdata": {"rt": -1000, "trial_type": "single-audio", "stimulus": "/static/audio/400Hz.wav", "internal_node_id": "0.0-125.0", "time_elapsed": 861918, "key_press": -1, "type": "PRE_RECALL_ALERT", "trial_index": 170}, "uniqueid": "MTK3167:3KYQYYSHYWEJI5EPNVPA13061BDDOB", "dateTime": 1520112590339}, {"current_trial": 171, "trialdata": {"rt": [2487, 6638, 8558, 10574, 15681, 23512, 43997], "recwords": ["wrist", "picnic", "supper", "beef", "mildew", "crevice", "picnic"], "key_times": [1522, 1694, 1871, 1999, 2151, 2487, 3487, 4071, 4399, 4639, 4911, 5062, 5246, 5415, 6638, 7367, 7535, 7831, 7974, 8095, 8303, 8558, 8967, 9319, 9463, 9711, 10574, 14489, 14738, 14882, 15032, 15249, 15393, 15681, 21808, 22034, 22176, 22377, 22577, 22720, 23225, 23512, 42823, 43022, 43254, 43390, 43558, 43749, 43997], "trial_type": "free-recall", "conditions": [12, 1600, "v", 24000], "internal_node_id": "0.0-126.0-0.0", "key_presses": [87, 82, 73, 83, 84, 13, 79, 8, 80, 73, 67, 78, 73, 67, 13, 83, 85, 80, 80, 69, 82, 13, 66, 69, 69, 70, 13, 77, 73, 76, 68, 69, 87, 13, 67, 82, 69, 86, 73, 67, 69, 13, 80, 73, 67, 78, 73, 67, 13], "trial": 4, "time_elapsed": 921924, "type": "FREE_RECALL", "trial_index": 171}, "uniqueid": "MTK3167:3KYQYYSHYWEJI5EPNVPA13061BDDOB", "dateTime": 1520112650357}, {"current_trial": 172, "trialdata": {"rt": 2231, "trial_type": "text", "internal_node_id": "0.0-127.0", "time_elapsed": 926174, "key_press": 13, "type": "INSTRUCTIONS", "trial_index": 172}, "uniqueid": "MTK3167:3KYQYYSHYWEJI5EPNVPA13061BDDOB", "dateTime": 1520112654595}, {"current_trial": 173, "trialdata": {"rt": [2556, 4716, 6516, 10132], "trial_type": "math-distractor", "key_times": [1740, 2044, 2556, 4277, 4404, 4716, 6332, 6516, 9597, 9923, 10132], "responses": ["16", "10", "9", "16"], "num2": [9, 1, 3, 2, 9], "num3": [1, 5, 5, 5, 4], "conditions": [24, 1600, "v", 12000], "internal_node_id": "0.0-128.0", "key_presses": [49, 54, 13, 49, 48, 13, 57, 13, 49, 54, 13], "trial": 5, "time_elapsed": 940183, "type": "DISTRACTOR", "trial_index": 173, "num1": [6, 4, 1, 9, 3]}, "uniqueid": "MTK3167:3KYQYYSHYWEJI5EPNVPA13061BDDOB", "dateTime": 1520112668603}, {"current_trial": 174, "trialdata": {"rt": -1, "trial_type": "single-stim", "stimulus": "<p id=\"stim\">10</p>", "internal_node_id": "0.0-129.0-0.0", "time_elapsed": 943192, "key_press": -1, "trial_index": 174}, "uniqueid": "MTK3167:3KYQYYSHYWEJI5EPNVPA13061BDDOB", "dateTime": 1520112671612}, {"current_trial": 175, "trialdata": {"rt": -1, "trial_type": "single-stim", "stimulus": "<p id=\"stim\">9</p>", "internal_node_id": "0.0-129.0-1.0", "time_elapsed": 944196, "key_press": -1, "trial_index": 175}, "uniqueid": "MTK3167:3KYQYYSHYWEJI5EPNVPA13061BDDOB", "dateTime": 1520112672616}, {"current_trial": 176, "trialdata": {"rt": -1, "trial_type": "single-stim", "stimulus": "<p id=\"stim\">8</p>", "internal_node_id": "0.0-129.0-2.0", "time_elapsed": 945200, "key_press": -1, "trial_index": 176}, "uniqueid": "MTK3167:3KYQYYSHYWEJI5EPNVPA13061BDDOB", "dateTime": 1520112673620}, {"current_trial": 177, "trialdata": {"rt": -1, "trial_type": "single-stim", "stimulus": "<p id=\"stim\">7</p>", "internal_node_id": "0.0-129.0-3.0", "time_elapsed": 946204, "key_press": -1, "trial_index": 177}, "uniqueid": "MTK3167:3KYQYYSHYWEJI5EPNVPA13061BDDOB", "dateTime": 1520112674624}, {"current_trial": 178, "trialdata": {"rt": -1, "trial_type": "single-stim", "stimulus": "<p id=\"stim\">6</p>", "internal_node_id": "0.0-129.0-4.0", "time_elapsed": 947208, "key_press": -1, "trial_index": 178}, "uniqueid": "MTK3167:3KYQYYSHYWEJI5EPNVPA13061BDDOB", "dateTime": 1520112675629}, {"current_trial": 179, "trialdata": {"rt": -1, "trial_type": "single-stim", "stimulus": "<p id=\"stim\">5</p>", "internal_node_id": "0.0-129.0-5.0", "time_elapsed": 948212, "key_press": -1, "trial_index": 179}, "uniqueid": "MTK3167:3KYQYYSHYWEJI5EPNVPA13061BDDOB", "dateTime": 1520112676632}, {"current_trial": 180, "trialdata": {"rt": -1, "trial_type": "single-stim", "stimulus": "<p id=\"stim\">4</p>", "internal_node_id": "0.0-129.0-6.0", "time_elapsed": 949217, "key_press": -1, "trial_index": 180}, "uniqueid": "MTK3167:3KYQYYSHYWEJI5EPNVPA13061BDDOB", "dateTime": 1520112677637}, {"current_trial": 181, "trialdata": {"rt": -1, "trial_type": "single-stim", "stimulus": "<p id=\"stim\">3</p>", "internal_node_id": "0.0-129.0-7.0", "time_elapsed": 950221, "key_press": -1, "trial_index": 181}, "uniqueid": "MTK3167:3KYQYYSHYWEJI5EPNVPA13061BDDOB", "dateTime": 1520112678641}, {"current_trial": 182, "trialdata": {"rt": -1, "trial_type": "single-stim", "stimulus": "<p id=\"stim\">2</p>", "internal_node_id": "0.0-129.0-8.0", "time_elapsed": 951227, "key_press": -1, "trial_index": 182}, "uniqueid": "MTK3167:3KYQYYSHYWEJI5EPNVPA13061BDDOB", "dateTime": 1520112679647}, {"current_trial": 183, "trialdata": {"rt": -1, "trial_type": "single-stim", "stimulus": "<p id=\"stim\">1</p>", "internal_node_id": "0.0-129.0-9.0", "time_elapsed": 952231, "key_press": -1, "trial_index": 183}, "uniqueid": "MTK3167:3KYQYYSHYWEJI5EPNVPA13061BDDOB", "dateTime": 1520112680651}, {"current_trial": 184, "trialdata": {"rt": -1, "trial_type": "single-stim", "stimulus": "<p id=\"stim\">+</p>", "internal_node_id": "0.0-130.0-0.0", "time_elapsed": 953738, "key_press": -1, "type": "FIXATION", "trial_index": 184}, "uniqueid": "MTK3167:3KYQYYSHYWEJI5EPNVPA13061BDDOB", "dateTime": 1520112682158}, {"current_trial": 185, "trialdata": {"rt": -1, "trial_type": "single-stim", "word": "mammal", "stimulus": "<p id=\"stim\">MAMMAL</p>", "conditions": [24, 1600, "v", 12000], "internal_node_id": "0.0-131.0", "trial": 5, "time_elapsed": 955342, "serialpos": 0, "key_press": -1, "wordID": 860, "type": "PRES_VIS", "trial_index": 185}, "uniqueid": "MTK3167:3KYQYYSHYWEJI5EPNVPA13061BDDOB", "dateTime": 1520112683763}, {"current_trial": 186, "trialdata": {"rt": -1, "trial_type": "single-stim", "word": "lace", "stimulus": "<p id=\"stim\">LACE</p>", "conditions": [24, 1600, "v", 12000], "internal_node_id": "0.0-132.0", "trial": 5, "time_elapsed": 957931, "serialpos": 1, "key_press": -1, "wordID": 791, "type": "PRES_VIS", "trial_index": 186}, "uniqueid": "MTK3167:3KYQYYSHYWEJI5EPNVPA13061BDDOB", "dateTime": 1520112686351}, {"current_trial": 187, "trialdata": {"rt": -1, "trial_type": "single-stim", "word": "shorts", "stimulus": "<p id=\"stim\">SHORTS</p>", "conditions": [24, 1600, "v", 12000], "internal_node_id": "0.0-133.0", "trial": 5, "time_elapsed": 960682, "serialpos": 2, "key_press": -1, "wordID": 1292, "type": "PRES_VIS", "trial_index": 187}, "uniqueid": "MTK3167:3KYQYYSHYWEJI5EPNVPA13061BDDOB", "dateTime": 1520112689102}, {"current_trial": 188, "trialdata": {"rt": -1, "trial_type": "single-stim", "word": "sparrow", "stimulus": "<p id=\"stim\">SPARROW</p>", "conditions": [24, 1600, "v", 12000], "internal_node_id": "0.0-134.0", "trial": 5, "time_elapsed": 963166, "serialpos": 3, "key_press": -1, "wordID": 1346, "type": "PRES_VIS", "trial_index": 188}, "uniqueid": "MTK3167:3KYQYYSHYWEJI5EPNVPA13061BDDOB", "dateTime": 1520112691586}, {"current_trial": 189, "trialdata": {"rt": -1, "trial_type": "single-stim", "word": "venus", "stimulus": "<p id=\"stim\">VENUS</p>", "conditions": [24, 1600, "v", 12000], "internal_node_id": "0.0-135.0", "trial": 5, "time_elapsed": 965610, "serialpos": 4, "key_press": -1, "wordID": 1556, "type": "PRES_VIS", "trial_index": 189}, "uniqueid": "MTK3167:3KYQYYSHYWEJI5EPNVPA13061BDDOB", "dateTime": 1520112694030}, {"current_trial": 190, "trialdata": {"rt": -1, "trial_type": "single-stim", "word": "dolphin", "stimulus": "<p id=\"stim\">DOLPHIN</p>", "conditions": [24, 1600, "v", 12000], "internal_node_id": "0.0-136.0", "trial": 5, "time_elapsed": 968085, "serialpos": 5, "key_press": -1, "wordID": 482, "type": "PRES_VIS", "trial_index": 190}, "uniqueid": "MTK3167:3KYQYYSHYWEJI5EPNVPA13061BDDOB", "dateTime": 1520112696506}, {"current_trial": 191, "trialdata": {"rt": -1, "trial_type": "single-stim", "word": "notebook", "stimulus": "<p id=\"stim\">NOTEBOOK</p>", "conditions": [24, 1600, "v", 12000], "internal_node_id": "0.0-137.0", "trial": 5, "time_elapsed": 970891, "serialpos": 6, "key_press": -1, "wordID": 958, "type": "PRES_VIS", "trial_index": 191}, "uniqueid": "MTK3167:3KYQYYSHYWEJI5EPNVPA13061BDDOB", "dateTime": 1520112699311}, {"current_trial": 192, "trialdata": {"rt": -1, "trial_type": "single-stim", "word": "tart", "stimulus": "<p id=\"stim\">TART</p>", "conditions": [24, 1600, "v", 12000], "internal_node_id": "0.0-138.0", "trial": 5, "time_elapsed": 973334, "serialpos": 7, "key_press": -1, "wordID": 1435, "type": "PRES_VIS", "trial_index": 192}, "uniqueid": "MTK3167:3KYQYYSHYWEJI5EPNVPA13061BDDOB", "dateTime": 1520112701754}, {"current_trial": 193, "trialdata": {"rt": -1, "trial_type": "single-stim", "word": "briefcase", "stimulus": "<p id=\"stim\">BRIEFCASE</p>", "conditions": [24, 1600, "v", 12000], "internal_node_id": "0.0-139.0", "trial": 5, "time_elapsed": 975801, "serialpos": 8, "key_press": -1, "wordID": 174, "type": "PRES_VIS", "trial_index": 193}, "uniqueid": "MTK3167:3KYQYYSHYWEJI5EPNVPA13061BDDOB", "dateTime": 1520112704221}, {"current_trial": 194, "trialdata": {"rt": -1, "trial_type": "single-stim", "word": "human", "stimulus": "<p id=\"stim\">HUMAN</p>", "conditions": [24, 1600, "v", 12000], "internal_node_id": "0.0-140.0", "trial": 5, "time_elapsed": 978317, "serialpos": 9, "key_press": -1, "wordID": 725, "type": "PRES_VIS", "trial_index": 194}, "uniqueid": "MTK3167:3KYQYYSHYWEJI5EPNVPA13061BDDOB", "dateTime": 1520112706737}, {"current_trial": 195, "trialdata": {"rt": -1, "trial_type": "single-stim", "word": "tortoise", "stimulus": "<p id=\"stim\">TORTOISE</p>", "conditions": [24, 1600, "v", 12000], "internal_node_id": "0.0-141.0", "trial": 5, "time_elapsed": 980766, "serialpos": 10, "key_press": -1, "wordID": 1485, "type": "PRES_VIS", "trial_index": 195}, "uniqueid": "MTK3167:3KYQYYSHYWEJI5EPNVPA13061BDDOB", "dateTime": 1520112709186}, {"current_trial": 196, "trialdata": {"rt": -1, "trial_type": "single-stim", "word": "snail", "stimulus": "<p id=\"stim\">SNAIL</p>", "conditions": [24, 1600, "v", 12000], "internal_node_id": "0.0-142.0", "trial": 5, "time_elapsed": 983427, "serialpos": 11, "key_press": -1, "wordID": 1331, "type": "PRES_VIS", "trial_index": 196}, "uniqueid": "MTK3167:3KYQYYSHYWEJI5EPNVPA13061BDDOB", "dateTime": 1520112711847}, {"current_trial": 197, "trialdata": {"rt": -1, "trial_type": "single-stim", "word": "elbow", "stimulus": "<p id=\"stim\">ELBOW</p>", "conditions": [24, 1600, "v", 12000], "internal_node_id": "0.0-143.0", "trial": 5, "time_elapsed": 986036, "serialpos": 12, "key_press": -1, "wordID": 519, "type": "PRES_VIS", "trial_index": 197}, "uniqueid": "MTK3167:3KYQYYSHYWEJI5EPNVPA13061BDDOB", "dateTime": 1520112714457}, {"current_trial": 198, "trialdata": {"rt": -1, "trial_type": "single-stim", "word": "curtain", "stimulus": "<p id=\"stim\">CURTAIN</p>", "conditions": [24, 1600, "v", 12000], "internal_node_id": "0.0-144.0", "trial": 5, "time_elapsed": 988602, "serialpos": 13, "key_press": -1, "wordID": 426, "type": "PRES_VIS", "trial_index": 198}, "uniqueid": "MTK3167:3KYQYYSHYWEJI5EPNVPA13061BDDOB", "dateTime": 1520112717022}, {"current_trial": 199, "trialdata": {"rt": -1, "trial_type": "single-stim", "word": "scallop", "stimulus": "<p id=\"stim\">SCALLOP</p>", "conditions": [24, 1600, "v", 12000], "internal_node_id": "0.0-145.0", "trial": 5, "time_elapsed": 991393, "serialpos": 14, "key_press": -1, "wordID": 1241, "type": "PRES_VIS", "trial_index": 199}, "uniqueid": "MTK3167:3KYQYYSHYWEJI5EPNVPA13061BDDOB", "dateTime": 1520112719813}, {"current_trial": 200, "trialdata": {"rt": -1, "trial_type": "single-stim", "word": "robin", "stimulus": "<p id=\"stim\">ROBIN</p>", "conditions": [24, 1600, "v", 12000], "internal_node_id": "0.0-146.0", "trial": 5, "time_elapsed": 993970, "serialpos": 15, "key_press": -1, "wordID": 1198, "type": "PRES_VIS", "trial_index": 200}, "uniqueid": "MTK3167:3KYQYYSHYWEJI5EPNVPA13061BDDOB", "dateTime": 1520112722390}, {"current_trial": 201, "trialdata": {"rt": -1, "trial_type": "single-stim", "word": "twister", "stimulus": "<p id=\"stim\">TWISTER</p>", "conditions": [24, 1600, "v", 12000], "internal_node_id": "0.0-147.0", "trial": 5, "time_elapsed": 996379, "serialpos": 16, "key_press": -1, "wordID": 1529, "type": "PRES_VIS", "trial_index": 201}, "uniqueid": "MTK3167:3KYQYYSHYWEJI5EPNVPA13061BDDOB", "dateTime": 1520112724799}, {"current_trial": 202, "trialdata": {"rt": -1, "trial_type": "single-stim", "word": "diver", "stimulus": "<p id=\"stim\">DIVER</p>", "conditions": [24, 1600, "v", 12000], "internal_node_id": "0.0-148.0", "trial": 5, "time_elapsed": 999086, "serialpos": 17, "key_press": -1, "wordID": 475, "type": "PRES_VIS", "trial_index": 202}, "uniqueid": "MTK3167:3KYQYYSHYWEJI5EPNVPA13061BDDOB", "dateTime": 1520112727506}, {"current_trial": 203, "trialdata": {"rt": -1, "trial_type": "single-stim", "word": "termite", "stimulus": "<p id=\"stim\">TERMITE</p>", "conditions": [24, 1600, "v", 12000], "internal_node_id": "0.0-149.0", "trial": 5, "time_elapsed": 1001761, "serialpos": 18, "key_press": -1, "wordID": 1450, "type": "PRES_VIS", "trial_index": 203}, "uniqueid": "MTK3167:3KYQYYSHYWEJI5EPNVPA13061BDDOB", "dateTime": 1520112730181}, {"current_trial": 204, "trialdata": {"rt": -1, "trial_type": "single-stim", "word": "grape", "stimulus": "<p id=\"stim\">GRAPE</p>", "conditions": [24, 1600, "v", 12000], "internal_node_id": "0.0-150.0", "trial": 5, "time_elapsed": 1004408, "serialpos": 19, "key_press": -1, "wordID": 653, "type": "PRES_VIS", "trial_index": 204}, "uniqueid": "MTK3167:3KYQYYSHYWEJI5EPNVPA13061BDDOB", "dateTime": 1520112732828}, {"current_trial": 205, "trialdata": {"rt": -1, "trial_type": "single-stim", "word": "skirt", "stimulus": "<p id=\"stim\">SKIRT</p>", "conditions": [24, 1600, "v", 12000], "internal_node_id": "0.0-151.0", "trial": 5, "time_elapsed": 1006878, "serialpos": 20, "key_press": -1, "wordID": 1318, "type": "PRES_VIS", "trial_index": 205}, "uniqueid": "MTK3167:3KYQYYSHYWEJI5EPNVPA13061BDDOB", "dateTime": 1520112735298}, {"current_trial": 206, "trialdata": {"rt": -1, "trial_type": "single-stim", "word": "dress", "stimulus": "<p id=\"stim\">DRESS</p>", "conditions": [24, 1600, "v", 12000], "internal_node_id": "0.0-152.0", "trial": 5, "time_elapsed": 1009545, "serialpos": 21, "key_press": -1, "wordID": 494, "type": "PRES_VIS", "trial_index": 206}, "uniqueid": "MTK3167:3KYQYYSHYWEJI5EPNVPA13061BDDOB", "dateTime": 1520112737965}, {"current_trial": 207, "trialdata": {"rt": -1, "trial_type": "single-stim", "word": "hood", "stimulus": "<p id=\"stim\">HOOD</p>", "conditions": [24, 1600, "v", 12000], "internal_node_id": "0.0-153.0", "trial": 5, "time_elapsed": 1012165, "serialpos": 22, "key_press": -1, "wordID": 713, "type": "PRES_VIS", "trial_index": 207}, "uniqueid": "MTK3167:3KYQYYSHYWEJI5EPNVPA13061BDDOB", "dateTime": 1520112740585}, {"current_trial": 208, "trialdata": {"rt": -1, "trial_type": "single-stim", "word": "barley", "stimulus": "<p id=\"stim\">BARLEY</p>", "conditions": [24, 1600, "v", 12000], "internal_node_id": "0.0-154.0", "trial": 5, "time_elapsed": 1014817, "serialpos": 23, "key_press": -1, "wordID": 87, "type": "PRES_VIS", "trial_index": 208}, "uniqueid": "MTK3167:3KYQYYSHYWEJI5EPNVPA13061BDDOB", "dateTime": 1520112743237}, {"current_trial": 209, "trialdata": {"rt": -1, "trial_type": "single-stim", "stimulus": "", "internal_node_id": "0.0-155.0-0.0", "time_elapsed": 1017232, "key_press": -1, "type": "PRE_RECALL_DELAY", "trial_index": 209}, "uniqueid": "MTK3167:3KYQYYSHYWEJI5EPNVPA13061BDDOB", "dateTime": 1520112745652}, {"current_trial": 210, "trialdata": {"rt": -1000, "trial_type": "single-audio", "stimulus": "/static/audio/400Hz.wav", "internal_node_id": "0.0-156.0", "time_elapsed": 1017734, "key_press": -1, "type": "PRE_RECALL_ALERT", "trial_index": 210}, "uniqueid": "MTK3167:3KYQYYSHYWEJI5EPNVPA13061BDDOB", "dateTime": 1520112746154}, {"current_trial": 211, "trialdata": {"rt": [2421, 4300, 5757, 7340, 11228, 15759, 26383, 28230, 31885], "recwords": ["dress", "skirt", "hood", "barley", "mammal", "tortoise", "curtain", "dress", "homemaker"], "key_times": [1286, 1493, 1596, 1980, 2180, 2421, 3156, 3461, 3685, 3901, 4125, 4300, 4824, 5101, 5252, 5500, 5757, 6292, 6477, 6653, 6749, 6893, 7140, 7340, 10068, 10229, 10549, 10685, 10797, 10924, 11228, 11917, 12092, 12876, 13508, 13748, 14012, 14164, 14364, 14525, 15271, 15759, 24471, 24623, 24863, 25104, 25272, 25423, 25599, 26383, 27408, 27623, 27687, 27904, 28024, 28230, 30628, 30756, 30932, 31037, 31196, 31307, 31428, 31540, 31692, 31885], "trial_type": "free-recall", "conditions": [24, 1600, "v", 12000], "internal_node_id": "0.0-157.0-0.0", "key_presses": [68, 82, 69, 83, 83, 13, 83, 75, 73, 82, 84, 13, 72, 79, 79, 68, 13, 66, 65, 82, 76, 69, 89, 13, 77, 65, 77, 77, 65, 76, 13, 84, 79, 84, 8, 82, 84, 79, 73, 83, 69, 13, 67, 85, 82, 84, 65, 73, 78, 13, 68, 82, 69, 83, 83, 13, 72, 79, 77, 69, 77, 65, 75, 69, 82, 13], "trial": 5, "time_elapsed": 1077740, "type": "FREE_RECALL", "trial_index": 211}, "uniqueid": "MTK3167:3KYQYYSHYWEJI5EPNVPA13061BDDOB", "dateTime": 1520112806165}, {"current_trial": 212, "trialdata": {"rt": 5654, "trial_type": "text", "internal_node_id": "0.0-158.0", "time_elapsed": 1085402, "key_press": 13, "type": "INSTRUCTIONS", "trial_index": 212}, "uniqueid": "MTK3167:3KYQYYSHYWEJI5EPNVPA13061BDDOB", "dateTime": 1520112813822}, {"current_trial": 213, "trialdata": {"rt": [1692, 7490], "trial_type": "math-distractor", "key_times": [1359, 1515, 1692, 7211, 7315, 7490], "responses": ["14", "21"], "num2": [6, 7, 7], "num3": [6, 5, 7], "conditions": [24, 800, "v", 12000], "internal_node_id": "0.0-159.0", "key_presses": [49, 52, 13, 50, 49, 13], "trial": 6, "time_elapsed": 1099408, "type": "DISTRACTOR", "trial_index": 213, "num1": [2, 9, 9]}, "uniqueid": "MTK3167:3KYQYYSHYWEJI5EPNVPA13061BDDOB", "dateTime": 1520112827828}, {"current_trial": 214, "trialdata": {"rt": -1, "trial_type": "single-stim", "stimulus": "<p id=\"stim\">10</p>", "internal_node_id": "0.0-160.0-0.0", "time_elapsed": 1102417, "key_press": -1, "trial_index": 214}, "uniqueid": "MTK3167:3KYQYYSHYWEJI5EPNVPA13061BDDOB", "dateTime": 1520112830837}, {"current_trial": 215, "trialdata": {"rt": -1, "trial_type": "single-stim", "stimulus": "<p id=\"stim\">9</p>", "internal_node_id": "0.0-160.0-1.0", "time_elapsed": 1103422, "key_press": -1, "trial_index": 215}, "uniqueid": "MTK3167:3KYQYYSHYWEJI5EPNVPA13061BDDOB", "dateTime": 1520112831842}, {"current_trial": 216, "trialdata": {"rt": -1, "trial_type": "single-stim", "stimulus": "<p id=\"stim\">8</p>", "internal_node_id": "0.0-160.0-2.0", "time_elapsed": 1104428, "key_press": -1, "trial_index": 216}, "uniqueid": "MTK3167:3KYQYYSHYWEJI5EPNVPA13061BDDOB", "dateTime": 1520112832848}, {"current_trial": 217, "trialdata": {"rt": -1, "trial_type": "single-stim", "stimulus": "<p id=\"stim\">7</p>", "internal_node_id": "0.0-160.0-3.0", "time_elapsed": 1105432, "key_press": -1, "trial_index": 217}, "uniqueid": "MTK3167:3KYQYYSHYWEJI5EPNVPA13061BDDOB", "dateTime": 1520112833853}, {"current_trial": 218, "trialdata": {"rt": -1, "trial_type": "single-stim", "stimulus": "<p id=\"stim\">6</p>", "internal_node_id": "0.0-160.0-4.0", "time_elapsed": 1106439, "key_press": -1, "trial_index": 218}, "uniqueid": "MTK3167:3KYQYYSHYWEJI5EPNVPA13061BDDOB", "dateTime": 1520112834859}, {"current_trial": 219, "trialdata": {"rt": -1, "trial_type": "single-stim", "stimulus": "<p id=\"stim\">5</p>", "internal_node_id": "0.0-160.0-5.0", "time_elapsed": 1107444, "key_press": -1, "trial_index": 219}, "uniqueid": "MTK3167:3KYQYYSHYWEJI5EPNVPA13061BDDOB", "dateTime": 1520112835864}, {"current_trial": 220, "trialdata": {"rt": -1, "trial_type": "single-stim", "stimulus": "<p id=\"stim\">4</p>", "internal_node_id": "0.0-160.0-6.0", "time_elapsed": 1108447, "key_press": -1, "trial_index": 220}, "uniqueid": "MTK3167:3KYQYYSHYWEJI5EPNVPA13061BDDOB", "dateTime": 1520112836867}, {"current_trial": 221, "trialdata": {"rt": -1, "trial_type": "single-stim", "stimulus": "<p id=\"stim\">3</p>", "internal_node_id": "0.0-160.0-7.0", "time_elapsed": 1109451, "key_press": -1, "trial_index": 221}, "uniqueid": "MTK3167:3KYQYYSHYWEJI5EPNVPA13061BDDOB", "dateTime": 1520112837871}, {"current_trial": 222, "trialdata": {"rt": -1, "trial_type": "single-stim", "stimulus": "<p id=\"stim\">2</p>", "internal_node_id": "0.0-160.0-8.0", "time_elapsed": 1110456, "key_press": -1, "trial_index": 222}, "uniqueid": "MTK3167:3KYQYYSHYWEJI5EPNVPA13061BDDOB", "dateTime": 1520112838876}, {"current_trial": 223, "trialdata": {"rt": -1, "trial_type": "single-stim", "stimulus": "<p id=\"stim\">1</p>", "internal_node_id": "0.0-160.0-9.0", "time_elapsed": 1111460, "key_press": -1, "trial_index": 223}, "uniqueid": "MTK3167:3KYQYYSHYWEJI5EPNVPA13061BDDOB", "dateTime": 1520112839880}, {"current_trial": 224, "trialdata": {"rt": -1, "trial_type": "single-stim", "stimulus": "<p id=\"stim\">+</p>", "internal_node_id": "0.0-161.0-0.0", "time_elapsed": 1112963, "key_press": -1, "type": "FIXATION", "trial_index": 224}, "uniqueid": "MTK3167:3KYQYYSHYWEJI5EPNVPA13061BDDOB", "dateTime": 1520112841383}, {"current_trial": 225, "trialdata": {"rt": -1, "trial_type": "single-stim", "word": "carrot", "stimulus": "<p id=\"stim\">CARROT</p>", "conditions": [24, 800, "v", 12000], "internal_node_id": "0.0-162.0", "trial": 6, "time_elapsed": 1113767, "serialpos": 0, "key_press": -1, "wordID": 248, "type": "PRES_VIS", "trial_index": 225}, "uniqueid": "MTK3167:3KYQYYSHYWEJI5EPNVPA13061BDDOB", "dateTime": 1520112842187}, {"current_trial": 226, "trialdata": {"rt": -1, "trial_type": "single-stim", "word": "sandwich", "stimulus": "<p id=\"stim\">SANDWICH</p>", "conditions": [24, 800, "v", 12000], "internal_node_id": "0.0-163.0", "trial": 6, "time_elapsed": 1115682, "serialpos": 1, "key_press": -1, "wordID": 1231, "type": "PRES_VIS", "trial_index": 226}, "uniqueid": "MTK3167:3KYQYYSHYWEJI5EPNVPA13061BDDOB", "dateTime": 1520112844103}, {"current_trial": 227, "trialdata": {"rt": -1, "trial_type": "single-stim", "word": "garbage", "stimulus": "<p id=\"stim\">GARBAGE</p>", "conditions": [24, 800, "v", 12000], "internal_node_id": "0.0-164.0", "trial": 6, "time_elapsed": 1117383, "serialpos": 2, "key_press": -1, "wordID": 621, "type": "PRES_VIS", "trial_index": 227}, "uniqueid": "MTK3167:3KYQYYSHYWEJI5EPNVPA13061BDDOB", "dateTime": 1520112845803}, {"current_trial": 228, "trialdata": {"rt": -1, "trial_type": "single-stim", "word": "skillet", "stimulus": "<p id=\"stim\">SKILLET</p>", "conditions": [24, 800, "v", 12000], "internal_node_id": "0.0-165.0", "trial": 6, "time_elapsed": 1119229, "serialpos": 3, "key_press": -1, "wordID": 1316, "type": "PRES_VIS", "trial_index": 228}, "uniqueid": "MTK3167:3KYQYYSHYWEJI5EPNVPA13061BDDOB", "dateTime": 1520112847649}, {"current_trial": 229, "trialdata": {"rt": -1, "trial_type": "single-stim", "word": "onion", "stimulus": "<p id=\"stim\">ONION</p>", "conditions": [24, 800, "v", 12000], "internal_node_id": "0.0-166.0", "trial": 6, "time_elapsed": 1120951, "serialpos": 4, "key_press": -1, "wordID": 976, "type": "PRES_VIS", "trial_index": 229}, "uniqueid": "MTK3167:3KYQYYSHYWEJI5EPNVPA13061BDDOB", "dateTime": 1520112849371}, {"current_trial": 230, "trialdata": {"rt": -1, "trial_type": "single-stim", "word": "county", "stimulus": "<p id=\"stim\">COUNTY</p>", "conditions": [24, 800, "v", 12000], "internal_node_id": "0.0-167.0", "trial": 6, "time_elapsed": 1122641, "serialpos": 5, "key_press": -1, "wordID": 388, "type": "PRES_VIS", "trial_index": 230}, "uniqueid": "MTK3167:3KYQYYSHYWEJI5EPNVPA13061BDDOB", "dateTime": 1520112851062}, {"current_trial": 231, "trialdata": {"rt": -1, "trial_type": "single-stim", "word": "plaid", "stimulus": "<p id=\"stim\">PLAID</p>", "conditions": [24, 800, "v", 12000], "internal_node_id": "0.0-168.0", "trial": 6, "time_elapsed": 1124443, "serialpos": 6, "key_press": -1, "wordID": 1079, "type": "PRES_VIS", "trial_index": 231}, "uniqueid": "MTK3167:3KYQYYSHYWEJI5EPNVPA13061BDDOB", "dateTime": 1520112852863}, {"current_trial": 232, "trialdata": {"rt": -1, "trial_type": "single-stim", "word": "viking", "stimulus": "<p id=\"stim\">VIKING</p>", "conditions": [24, 800, "v", 12000], "internal_node_id": "0.0-169.0", "trial": 6, "time_elapsed": 1126282, "serialpos": 7, "key_press": -1, "wordID": 1564, "type": "PRES_VIS", "trial_index": 232}, "uniqueid": "MTK3167:3KYQYYSHYWEJI5EPNVPA13061BDDOB", "dateTime": 1520112854703}, {"current_trial": 233, "trialdata": {"rt": -1, "trial_type": "single-stim", "word": "bank", "stimulus": "<p id=\"stim\">BANK</p>", "conditions": [24, 800, "v", 12000], "internal_node_id": "0.0-170.0", "trial": 6, "time_elapsed": 1127926, "serialpos": 8, "key_press": -1, "wordID": 82, "type": "PRES_VIS", "trial_index": 233}, "uniqueid": "MTK3167:3KYQYYSHYWEJI5EPNVPA13061BDDOB", "dateTime": 1520112856346}, {"current_trial": 234, "trialdata": {"rt": -1, "trial_type": "single-stim", "word": "sheriff", "stimulus": "<p id=\"stim\">SHERIFF</p>", "conditions": [24, 800, "v", 12000], "internal_node_id": "0.0-171.0", "trial": 6, "time_elapsed": 1129867, "serialpos": 9, "key_press": -1, "wordID": 1283, "type": "PRES_VIS", "trial_index": 234}, "uniqueid": "MTK3167:3KYQYYSHYWEJI5EPNVPA13061BDDOB", "dateTime": 1520112858287}, {"current_trial": 235, "trialdata": {"rt": -1, "trial_type": "single-stim", "word": "silk", "stimulus": "<p id=\"stim\">SILK</p>", "conditions": [24, 800, "v", 12000], "internal_node_id": "0.0-172.0", "trial": 6, "time_elapsed": 1131780, "serialpos": 10, "key_press": -1, "wordID": 1306, "type": "PRES_VIS", "trial_index": 235}, "uniqueid": "MTK3167:3KYQYYSHYWEJI5EPNVPA13061BDDOB", "dateTime": 1520112860200}, {"current_trial": 236, "trialdata": {"rt": -1, "trial_type": "single-stim", "word": "velvet", "stimulus": "<p id=\"stim\">VELVET</p>", "conditions": [24, 800, "v", 12000], "internal_node_id": "0.0-173.0", "trial": 6, "time_elapsed": 1133616, "serialpos": 11, "key_press": -1, "wordID": 1554, "type": "PRES_VIS", "trial_index": 236}, "uniqueid": "MTK3167:3KYQYYSHYWEJI5EPNVPA13061BDDOB", "dateTime": 1520112862036}, {"current_trial": 237, "trialdata": {"rt": -1, "trial_type": "single-stim", "word": "liver", "stimulus": "<p id=\"stim\">LIVER</p>", "conditions": [24, 800, "v", 12000], "internal_node_id": "0.0-174.0", "trial": 6, "time_elapsed": 1135590, "serialpos": 12, "key_press": -1, "wordID": 832, "type": "PRES_VIS", "trial_index": 237}, "uniqueid": "MTK3167:3KYQYYSHYWEJI5EPNVPA13061BDDOB", "dateTime": 1520112864011}, {"current_trial": 238, "trialdata": {"rt": -1, "trial_type": "single-stim", "word": "softball", "stimulus": "<p id=\"stim\">SOFTBALL</p>", "conditions": [24, 800, "v", 12000], "internal_node_id": "0.0-175.0", "trial": 6, "time_elapsed": 1137594, "serialpos": 13, "key_press": -1, "wordID": 1342, "type": "PRES_VIS", "trial_index": 238}, "uniqueid": "MTK3167:3KYQYYSHYWEJI5EPNVPA13061BDDOB", "dateTime": 1520112866014}, {"current_trial": 239, "trialdata": {"rt": -1, "trial_type": "single-stim", "word": "trombone", "stimulus": "<p id=\"stim\">TROMBONE</p>", "conditions": [24, 800, "v", 12000], "internal_node_id": "0.0-176.0", "trial": 6, "time_elapsed": 1139368, "serialpos": 14, "key_press": -1, "wordID": 1507, "type": "PRES_VIS", "trial_index": 239}, "uniqueid": "MTK3167:3KYQYYSHYWEJI5EPNVPA13061BDDOB", "dateTime": 1520112867788}, {"current_trial": 240, "trialdata": {"rt": -1, "trial_type": "single-stim", "word": "rust", "stimulus": "<p id=\"stim\">RUST</p>", "conditions": [24, 800, "v", 12000], "internal_node_id": "0.0-177.0", "trial": 6, "time_elapsed": 1141135, "serialpos": 15, "key_press": -1, "wordID": 1218, "type": "PRES_VIS", "trial_index": 240}, "uniqueid": "MTK3167:3KYQYYSHYWEJI5EPNVPA13061BDDOB", "dateTime": 1520112869555}, {"current_trial": 241, "trialdata": {"rt": -1, "trial_type": "single-stim", "word": "cattle", "stimulus": "<p id=\"stim\">CATTLE</p>", "conditions": [24, 800, "v", 12000], "internal_node_id": "0.0-178.0", "trial": 6, "time_elapsed": 1143096, "serialpos": 16, "key_press": -1, "wordID": 260, "type": "PRES_VIS", "trial_index": 241}, "uniqueid": "MTK3167:3KYQYYSHYWEJI5EPNVPA13061BDDOB", "dateTime": 1520112871517}, {"current_trial": 242, "trialdata": {"rt": -1, "trial_type": "single-stim", "word": "napkin", "stimulus": "<p id=\"stim\">NAPKIN</p>", "conditions": [24, 800, "v", 12000], "internal_node_id": "0.0-179.0", "trial": 6, "time_elapsed": 1144772, "serialpos": 17, "key_press": -1, "wordID": 936, "type": "PRES_VIS", "trial_index": 242}, "uniqueid": "MTK3167:3KYQYYSHYWEJI5EPNVPA13061BDDOB", "dateTime": 1520112873192}, {"current_trial": 243, "trialdata": {"rt": -1, "trial_type": "single-stim", "word": "gymnast", "stimulus": "<p id=\"stim\">GYMNAST</p>", "conditions": [24, 800, "v", 12000], "internal_node_id": "0.0-180.0", "trial": 6, "time_elapsed": 1146530, "serialpos": 18, "key_press": -1, "wordID": 674, "type": "PRES_VIS", "trial_index": 243}, "uniqueid": "MTK3167:3KYQYYSHYWEJI5EPNVPA13061BDDOB", "dateTime": 1520112874950}, {"current_trial": 244, "trialdata": {"rt": -1, "trial_type": "single-stim", "word": "dancer", "stimulus": "<p id=\"stim\">DANCER</p>", "conditions": [24, 800, "v", 12000], "internal_node_id": "0.0-181.0", "trial": 6, "time_elapsed": 1148302, "serialpos": 19, "key_press": -1, "wordID": 436, "type": "PRES_VIS", "trial_index": 244}, "uniqueid": "MTK3167:3KYQYYSHYWEJI5EPNVPA13061BDDOB", "dateTime": 1520112876722}, {"current_trial": 245, "trialdata": {"rt": -1, "trial_type": "single-stim", "word": "marrow", "stimulus": "<p id=\"stim\">MARROW</p>", "conditions": [24, 800, "v", 12000], "internal_node_id": "0.0-182.0", "trial": 6, "time_elapsed": 1150297, "serialpos": 20, "key_press": -1, "wordID": 871, "type": "PRES_VIS", "trial_index": 245}, "uniqueid": "MTK3167:3KYQYYSHYWEJI5EPNVPA13061BDDOB", "dateTime": 1520112878717}, {"current_trial": 246, "trialdata": {"rt": -1, "trial_type": "single-stim", "word": "parrot", "stimulus": "<p id=\"stim\">PARROT</p>", "conditions": [24, 800, "v", 12000], "internal_node_id": "0.0-183.0", "trial": 6, "time_elapsed": 1152194, "serialpos": 21, "key_press": -1, "wordID": 1014, "type": "PRES_VIS", "trial_index": 246}, "uniqueid": "MTK3167:3KYQYYSHYWEJI5EPNVPA13061BDDOB", "dateTime": 1520112880614}, {"current_trial": 247, "trialdata": {"rt": -1, "trial_type": "single-stim", "word": "brother", "stimulus": "<p id=\"stim\">BROTHER</p>", "conditions": [24, 800, "v", 12000], "internal_node_id": "0.0-184.0", "trial": 6, "time_elapsed": 1153857, "serialpos": 22, "key_press": -1, "wordID": 178, "type": "PRES_VIS", "trial_index": 247}, "uniqueid": "MTK3167:3KYQYYSHYWEJI5EPNVPA13061BDDOB", "dateTime": 1520112882277}, {"current_trial": 248, "trialdata": {"rt": -1, "trial_type": "single-stim", "word": "uncle", "stimulus": "<p id=\"stim\">UNCLE</p>", "conditions": [24, 800, "v", 12000], "internal_node_id": "0.0-185.0", "trial": 6, "time_elapsed": 1155482, "serialpos": 23, "key_press": -1, "wordID": 1535, "type": "PRES_VIS", "trial_index": 248}, "uniqueid": "MTK3167:3KYQYYSHYWEJI5EPNVPA13061BDDOB", "dateTime": 1520112883902}, {"current_trial": 249, "trialdata": {"rt": -1, "trial_type": "single-stim", "stimulus": "", "internal_node_id": "0.0-186.0-0.0", "time_elapsed": 1157587, "key_press": -1, "type": "PRE_RECALL_DELAY", "trial_index": 249}, "uniqueid": "MTK3167:3KYQYYSHYWEJI5EPNVPA13061BDDOB", "dateTime": 1520112886007}, {"current_trial": 250, "trialdata": {"rt": -1000, "trial_type": "single-audio", "stimulus": "/static/audio/400Hz.wav", "internal_node_id": "0.0-187.0", "time_elapsed": 1158088, "key_press": -1, "type": "PRE_RECALL_ALERT", "trial_index": 250}, "uniqueid": "MTK3167:3KYQYYSHYWEJI5EPNVPA13061BDDOB", "dateTime": 1520112886509}, {"current_trial": 251, "trialdata": {"rt": [2456, 3735, 6654, 8669, 10726, 14029, 22598, 24045, 30871], "recwords": ["brother", "uncle", "gymnast", "dancer", "carrot", "garbace", "skillet", "onion", "trombone"], "key_times": [1129, 1400, 1592, 1744, 1848, 1936, 2063, 2456, 2816, 3022, 3192, 3319, 3528, 3735, 4384, 4616, 4760, 5024, 5761, 5935, 6416, 6654, 7288, 7520, 7712, 7937, 8223, 8431, 8669, 8945, 9177, 9399, 9550, 9694, 10302, 10726, 12525, 12692, 12844, 13076, 13253, 13485, 13749, 14029, 21164, 21276, 21461, 21956, 22109, 22157, 22373, 22598, 23100, 23309, 23476, 23620, 23764, 24045, 29094, 29255, 29423, 29664, 30103, 30247, 30424, 30585, 30871], "tria