{"assignmentId": "3LEP4MGT3H7ZZBPGJQKOVJ07VLEDBA", "workerId": "MTK3314", "questiondata": {"origin": "United States", "strat-rehearsal": "16", "marital": "Single", "education": "Some college", "ethnicity": "Hispanic", "color_depth": 24, "distracted": "No", "wrote-notes": "No", "strat-other": "I tried to completely concentrate on the current word with some success, but sometimes I just couldn't help using the strategies above.", "screen_width": 1920, "avail_screen_width": 1803, "avail_screen_height": 1080, "strat-image": "76", "language": "English", "gender": "Male", "age": "58", "gender_other": "", "race": ["American Indian/Alaskan Native"], "strat-categorize": "93", "pixel_depth": 24, "strat-spatial": "25", "strat-story": "13", "race_other": "", "screen_height": 1080}, "bonus": 0, "hitId": "33QQ60S6ASPI96ZYH38MWICS5F80UH", "counterbalance": 1299, "useragent": "Mozilla/5.0 (Windows NT 6.1; Win64; x64) AppleWebKit/537.36 (KHTML, like Gecko) Chrome/64.0.3282.186 Safari/537.36", "eventdata": [{"eventtype": "initialized", "interval": 0, "value": null, "timestamp": 1520368935220}, {"eventtype": "window_resize", "interval": 0, "value": [1803, 1035], "timestamp": 1520368935220}, {"eventtype": "focus", "interval": 72079, "value": "off", "timestamp": 1520369007299}, {"eventtype": "focus", "interval": 171488, "value": "on", "timestamp": 1520369178787}, {"eventtype": "window_resize", "interval": 12914, "value": [1803, 986], "timestamp": 1520369191701}, {"eventtype": "focus", "interval": 3223, "value": "off", "timestamp": 1520369194924}, {"eventtype": "window_resize", "interval": 6484, "value": [1803, 1035], "timestamp": 1520369201408}, {"eventtype": "focus", "interval": 520, "value": "on", "timestamp": 1520369201928}, {"eventtype": "focus", "interval": 3730, "value": "off", "timestamp": 1520369205658}, {"eventtype": "focus", "interval": 1449, "value": "on", "timestamp": 1520369207107}, {"eventtype": "focus", "interval": 358907, "value": "off", "timestamp": 1520369566014}, {"eventtype": "focus", "interval": 9879, "value": "on", "timestamp": 1520369575893}, {"eventtype": "focus", "interval": 0, "value": "on", "timestamp": 1520369575893}, {"eventtype": "focus", "interval": 907093, "value": "off", "timestamp": 1520370482986}, {"eventtype": "focus", "interval": 64404, "value": "on", "timestamp": 1520370547390}, {"eventtype": "focus", "interval": 1977210, "value": "off", "timestamp": 1520372524600}, {"eventtype": "focus", "interval": 5984, "value": "on", "timestamp": 1520372530584}], "data": [{"current_trial": 0, "trialdata": {"rt": 4672, "trial_type": "text", "internal_node_id": "0.0-0.0", "time_elapsed": 4675, "key_press": 32, "type": "INSTRUCTIONS", "trial_index": 0}, "uniqueid": "MTK3314:3LEP4MGT3H7ZZBPGJQKOVJ07VLEDBA", "dateTime": 1520368940525}, {"current_trial": 1, "trialdata": {"rt": 30604, "trial_type": "text", "internal_node_id": "0.0-1.0", "time_elapsed": 35280, "key_press": 32, "type": "INSTRUCTIONS", "trial_index": 1}, "uniqueid": "MTK3314:3LEP4MGT3H7ZZBPGJQKOVJ07VLEDBA", "dateTime": 1520368971130}, {"current_trial": 2, "trialdata": {"rt": [23647, 243568], "trial_type": "audio-test", "responses": ["up", "ocean"], "internal_node_id": "0.0-2.0", "time_elapsed": 278856, "type": "AUDIO_TEST", "trial_index": 2}, "uniqueid": "MTK3314:3LEP4MGT3H7ZZBPGJQKOVJ07VLEDBA", "dateTime": 1520369214706}, {"current_trial": 3, "trialdata": {"rt": [10140], "trial_type": "audio-test", "responses": ["crystal"], "internal_node_id": "0.0-3.0", "time_elapsed": 289000, "type": "AUDIO_TEST", "trial_index": 3}, "uniqueid": "MTK3314:3LEP4MGT3H7ZZBPGJQKOVJ07VLEDBA", "dateTime": 1520369224850}, {"current_trial": 4, "trialdata": {"rt": [10141], "trial_type": "audio-test", "responses": ["spice"], "internal_node_id": "0.0-4.0", "time_elapsed": 299144, "type": "AUDIO_TEST", "trial_index": 4}, "uniqueid": "MTK3314:3LEP4MGT3H7ZZBPGJQKOVJ07VLEDBA", "dateTime": 1520369234994}, {"current_trial": 5, "trialdata": {"rt": 24565, "trial_type": "survey-text", "responses": "{\"Q0\":\"2 AM\",\"Q1\":\"9 AM\",\"Q2\":\"5\"}", "internal_node_id": "0.0-5.0", "time_elapsed": 324460, "type": "SLEEP_SURVEY", "trial_index": 5}, "uniqueid": "MTK3314:3LEP4MGT3H7ZZBPGJQKOVJ07VLEDBA", "dateTime": 1520369260310}, {"current_trial": 6, "trialdata": {"rt": 45590, "trial_type": "text", "internal_node_id": "0.0-6.0", "time_elapsed": 371052, "key_press": 32, "type": "INSTRUCTIONS", "trial_index": 6}, "uniqueid": "MTK3314:3LEP4MGT3H7ZZBPGJQKOVJ07VLEDBA", "dateTime": 1520369306902}, {"current_trial": 7, "trialdata": {"rt": 28561, "trial_type": "text", "internal_node_id": "0.0-7.0", "time_elapsed": 400113, "key_press": 32, "type": "INSTRUCTIONS", "trial_index": 7}, "uniqueid": "MTK3314:3LEP4MGT3H7ZZBPGJQKOVJ07VLEDBA", "dateTime": 1520369335963}, {"current_trial": 8, "trialdata": {"rt": 11642, "trial_type": "text", "internal_node_id": "0.0-8.0", "time_elapsed": 412257, "key_press": 32, "type": "INSTRUCTIONS", "trial_index": 8}, "uniqueid": "MTK3314:3LEP4MGT3H7ZZBPGJQKOVJ07VLEDBA", "dateTime": 1520369348107}, {"current_trial": 9, "trialdata": {"rt": [3356, 5884, 9268, 11027, 13772, 16380], "trial_type": "math-distractor", "key_times": [2108, 2412, 3356, 5172, 5436, 5884, 8340, 8588, 9268, 10307, 10491, 11027, 13227, 13475, 13772, 15764, 16036, 16380, 17747], "responses": ["24", "14", "18", "15", "13", "16"], "num2": [8, 3, 9, 5, 6, 2, 3], "num3": [9, 8, 6, 5, 5, 9, 2], "conditions": [18, 1200, "v", 18000], "internal_node_id": "0.0-9.0", "key_presses": [98, 100, 13, 97, 100, 13, 97, 104, 13, 97, 101, 13, 97, 99, 13, 97, 102, 13, 97], "trial": 0, "time_elapsed": 431261, "type": "DISTRACTOR", "trial_index": 9, "num1": [7, 3, 3, 5, 2, 5, 6]}, "uniqueid": "MTK3314:3LEP4MGT3H7ZZBPGJQKOVJ07VLEDBA", "dateTime": 1520369367112}, {"current_trial": 10, "trialdata": {"rt": -1, "trial_type": "single-stim", "stimulus": "<p id=\"stim\">10</p>", "internal_node_id": "0.0-10.0-0.0", "time_elapsed": 434263, "key_press": -1, "trial_index": 10}, "uniqueid": "MTK3314:3LEP4MGT3H7ZZBPGJQKOVJ07VLEDBA", "dateTime": 1520369370113}, {"current_trial": 11, "trialdata": {"rt": -1, "trial_type": "single-stim", "stimulus": "<p id=\"stim\">9</p>", "internal_node_id": "0.0-10.0-1.0", "time_elapsed": 435265, "key_press": -1, "trial_index": 11}, "uniqueid": "MTK3314:3LEP4MGT3H7ZZBPGJQKOVJ07VLEDBA", "dateTime": 1520369371115}, {"current_trial": 12, "trialdata": {"rt": -1, "trial_type": "single-stim", "stimulus": "<p id=\"stim\">8</p>", "internal_node_id": "0.0-10.0-2.0", "time_elapsed": 436266, "key_press": -1, "trial_index": 12}, "uniqueid": "MTK3314:3LEP4MGT3H7ZZBPGJQKOVJ07VLEDBA", "dateTime": 1520369372116}, {"current_trial": 13, "trialdata": {"rt": -1, "trial_type": "single-stim", "stimulus": "<p id=\"stim\">7</p>", "internal_node_id": "0.0-10.0-3.0", "time_elapsed": 437267, "key_press": -1, "trial_index": 13}, "uniqueid": "MTK3314:3LEP4MGT3H7ZZBPGJQKOVJ07VLEDBA", "dateTime": 1520369373117}, {"current_trial": 14, "trialdata": {"rt": -1, "trial_type": "single-stim", "stimulus": "<p id=\"stim\">6</p>", "internal_node_id": "0.0-10.0-4.0", "time_elapsed": 438268, "key_press": -1, "trial_index": 14}, "uniqueid": "MTK3314:3LEP4MGT3H7ZZBPGJQKOVJ07VLEDBA", "dateTime": 1520369374119}, {"current_trial": 15, "trialdata": {"rt": -1, "trial_type": "single-stim", "stimulus": "<p id=\"stim\">5</p>", "internal_node_id": "0.0-10.0-5.0", "time_elapsed": 439269, "key_press": -1, "trial_index": 15}, "uniqueid": "MTK3314:3LEP4MGT3H7ZZBPGJQKOVJ07VLEDBA", "dateTime": 1520369375119}, {"current_trial": 16, "trialdata": {"rt": -1, "trial_type": "single-stim", "stimulus": "<p id=\"stim\">4</p>", "internal_node_id": "0.0-10.0-6.0", "time_elapsed": 440270, "key_press": -1, "trial_index": 16}, "uniqueid": "MTK3314:3LEP4MGT3H7ZZBPGJQKOVJ07VLEDBA", "dateTime": 1520369376120}, {"current_trial": 17, "trialdata": {"rt": -1, "trial_type": "single-stim", "stimulus": "<p id=\"stim\">3</p>", "internal_node_id": "0.0-10.0-7.0", "time_elapsed": 441271, "key_press": -1, "trial_index": 17}, "uniqueid": "MTK3314:3LEP4MGT3H7ZZBPGJQKOVJ07VLEDBA", "dateTime": 1520369377121}, {"current_trial": 18, "trialdata": {"rt": -1, "trial_type": "single-stim", "stimulus": "<p id=\"stim\">2</p>", "internal_node_id": "0.0-10.0-8.0", "time_elapsed": 442272, "key_press": -1, "trial_index": 18}, "uniqueid": "MTK3314:3LEP4MGT3H7ZZBPGJQKOVJ07VLEDBA", "dateTime": 1520369378122}, {"current_trial": 19, "trialdata": {"rt": -1, "trial_type": "single-stim", "stimulus": "<p id=\"stim\">1</p>", "internal_node_id": "0.0-10.0-9.0", "time_elapsed": 443274, "key_press": -1, "trial_index": 19}, "uniqueid": "MTK3314:3LEP4MGT3H7ZZBPGJQKOVJ07VLEDBA", "dateTime": 1520369379124}, {"current_trial": 20, "trialdata": {"rt": -1, "trial_type": "single-stim", "stimulus": "<p id=\"stim\">+</p>", "internal_node_id": "0.0-11.0-0.0", "time_elapsed": 444775, "key_press": -1, "type": "FIXATION", "trial_index": 20}, "uniqueid": "MTK3314:3LEP4MGT3H7ZZBPGJQKOVJ07VLEDBA", "dateTime": 1520369380625}, {"current_trial": 21, "trialdata": {"rt": -1, "trial_type": "single-stim", "word": "college", "stimulus": "<p id=\"stim\">COLLEGE</p>", "conditions": [18, 1200, "v", 18000], "internal_node_id": "0.0-12.0", "trial": 0, "time_elapsed": 445975, "serialpos": 0, "key_press": -1, "wordID": 345, "type": "PRES_VIS", "trial_index": 21}, "uniqueid": "MTK3314:3LEP4MGT3H7ZZBPGJQKOVJ07VLEDBA", "dateTime": 1520369381826}, {"current_trial": 22, "trialdata": {"rt": -1, "trial_type": "single-stim", "word": "icing", "stimulus": "<p id=\"stim\">ICING</p>", "conditions": [18, 1200, "v", 18000], "internal_node_id": "0.0-13.0", "trial": 0, "time_elapsed": 448131, "serialpos": 1, "key_press": -1, "wordID": 731, "type": "PRES_VIS", "trial_index": 22}, "uniqueid": "MTK3314:3LEP4MGT3H7ZZBPGJQKOVJ07VLEDBA", "dateTime": 1520369383981}, {"current_trial": 23, "trialdata": {"rt": -1, "trial_type": "single-stim", "word": "missile", "stimulus": "<p id=\"stim\">MISSILE</p>", "conditions": [18, 1200, "v", 18000], "internal_node_id": "0.0-14.0", "trial": 0, "time_elapsed": 450190, "serialpos": 2, "key_press": -1, "wordID": 899, "type": "PRES_VIS", "trial_index": 23}, "uniqueid": "MTK3314:3LEP4MGT3H7ZZBPGJQKOVJ07VLEDBA", "dateTime": 1520369386040}, {"current_trial": 24, "trialdata": {"rt": -1, "trial_type": "single-stim", "word": "rust", "stimulus": "<p id=\"stim\">RUST</p>", "conditions": [18, 1200, "v", 18000], "internal_node_id": "0.0-15.0", "trial": 0, "time_elapsed": 452592, "serialpos": 3, "key_press": -1, "wordID": 1218, "type": "PRES_VIS", "trial_index": 24}, "uniqueid": "MTK3314:3LEP4MGT3H7ZZBPGJQKOVJ07VLEDBA", "dateTime": 1520369388442}, {"current_trial": 25, "trialdata": {"rt": -1, "trial_type": "single-stim", "word": "dime", "stimulus": "<p id=\"stim\">DIME</p>", "conditions": [18, 1200, "v", 18000], "internal_node_id": "0.0-16.0", "trial": 0, "time_elapsed": 454774, "serialpos": 4, "key_press": -1, "wordID": 465, "type": "PRES_VIS", "trial_index": 25}, "uniqueid": "MTK3314:3LEP4MGT3H7ZZBPGJQKOVJ07VLEDBA", "dateTime": 1520369390624}, {"current_trial": 26, "trialdata": {"rt": -1, "trial_type": "single-stim", "word": "champagne", "stimulus": "<p id=\"stim\">CHAMPAGNE</p>", "conditions": [18, 1200, "v", 18000], "internal_node_id": "0.0-17.0", "trial": 0, "time_elapsed": 456820, "serialpos": 5, "key_press": -1, "wordID": 277, "type": "PRES_VIS", "trial_index": 26}, "uniqueid": "MTK3314:3LEP4MGT3H7ZZBPGJQKOVJ07VLEDBA", "dateTime": 1520369392670}, {"current_trial": 27, "trialdata": {"rt": -1, "trial_type": "single-stim", "word": "bunny", "stimulus": "<p id=\"stim\">BUNNY</p>", "conditions": [18, 1200, "v", 18000], "internal_node_id": "0.0-18.0", "trial": 0, "time_elapsed": 459109, "serialpos": 6, "key_press": -1, "wordID": 197, "type": "PRES_VIS", "trial_index": 27}, "uniqueid": "MTK3314:3LEP4MGT3H7ZZBPGJQKOVJ07VLEDBA", "dateTime": 1520369394960}, {"current_trial": 28, "trialdata": {"rt": -1, "trial_type": "single-stim", "word": "tablet", "stimulus": "<p id=\"stim\">TABLET</p>", "conditions": [18, 1200, "v", 18000], "internal_node_id": "0.0-19.0", "trial": 0, "time_elapsed": 461232, "serialpos": 7, "key_press": -1, "wordID": 1426, "type": "PRES_VIS", "trial_index": 28}, "uniqueid": "MTK3314:3LEP4MGT3H7ZZBPGJQKOVJ07VLEDBA", "dateTime": 1520369397082}, {"current_trial": 29, "trialdata": {"rt": -1, "trial_type": "single-stim", "word": "pudding", "stimulus": "<p id=\"stim\">PUDDING</p>", "conditions": [18, 1200, "v", 18000], "internal_node_id": "0.0-20.0", "trial": 0, "time_elapsed": 463291, "serialpos": 8, "key_press": -1, "wordID": 1138, "type": "PRES_VIS", "trial_index": 29}, "uniqueid": "MTK3314:3LEP4MGT3H7ZZBPGJQKOVJ07VLEDBA", "dateTime": 1520369399141}, {"current_trial": 30, "trialdata": {"rt": -1, "trial_type": "single-stim", "word": "cocoon", "stimulus": "<p id=\"stim\">COCOON</p>", "conditions": [18, 1200, "v", 18000], "internal_node_id": "0.0-21.0", "trial": 0, "time_elapsed": 465587, "serialpos": 9, "key_press": -1, "wordID": 338, "type": "PRES_VIS", "trial_index": 30}, "uniqueid": "MTK3314:3LEP4MGT3H7ZZBPGJQKOVJ07VLEDBA", "dateTime": 1520369401437}, {"current_trial": 31, "trialdata": {"rt": -1, "trial_type": "single-stim", "word": "sibling", "stimulus": "<p id=\"stim\">SIBLING</p>", "conditions": [18, 1200, "v", 18000], "internal_node_id": "0.0-22.0", "trial": 0, "time_elapsed": 467592, "serialpos": 10, "key_press": -1, "wordID": 1300, "type": "PRES_VIS", "trial_index": 31}, "uniqueid": "MTK3314:3LEP4MGT3H7ZZBPGJQKOVJ07VLEDBA", "dateTime": 1520369403442}, {"current_trial": 32, "trialdata": {"rt": -1, "trial_type": "single-stim", "word": "wasp", "stimulus": "<p id=\"stim\">WASP</p>", "conditions": [18, 1200, "v", 18000], "internal_node_id": "0.0-23.0", "trial": 0, "time_elapsed": 469867, "serialpos": 11, "key_press": -1, "wordID": 1592, "type": "PRES_VIS", "trial_index": 32}, "uniqueid": "MTK3314:3LEP4MGT3H7ZZBPGJQKOVJ07VLEDBA", "dateTime": 1520369405717}, {"current_trial": 33, "trialdata": {"rt": -1, "trial_type": "single-stim", "word": "wagon", "stimulus": "<p id=\"stim\">WAGON</p>", "conditions": [18, 1200, "v", 18000], "internal_node_id": "0.0-24.0", "trial": 0, "time_elapsed": 471919, "serialpos": 12, "key_press": -1, "wordID": 1577, "type": "PRES_VIS", "trial_index": 33}, "uniqueid": "MTK3314:3LEP4MGT3H7ZZBPGJQKOVJ07VLEDBA", "dateTime": 1520369407770}, {"current_trial": 34, "trialdata": {"rt": -1, "trial_type": "single-stim", "word": "banker", "stimulus": "<p id=\"stim\">BANKER</p>", "conditions": [18, 1200, "v", 18000], "internal_node_id": "0.0-25.0", "trial": 0, "time_elapsed": 474054, "serialpos": 13, "key_press": -1, "wordID": 83, "type": "PRES_VIS", "trial_index": 34}, "uniqueid": "MTK3314:3LEP4MGT3H7ZZBPGJQKOVJ07VLEDBA", "dateTime": 1520369409904}, {"current_trial": 35, "trialdata": {"rt": -1, "trial_type": "single-stim", "word": "clam", "stimulus": "<p id=\"stim\">CLAM</p>", "conditions": [18, 1200, "v", 18000], "internal_node_id": "0.0-26.0", "trial": 0, "time_elapsed": 476413, "serialpos": 14, "key_press": -1, "wordID": 314, "type": "PRES_VIS", "trial_index": 35}, "uniqueid": "MTK3314:3LEP4MGT3H7ZZBPGJQKOVJ07VLEDBA", "dateTime": 1520369412263}, {"current_trial": 36, "trialdata": {"rt": -1, "trial_type": "single-stim", "word": "donkey", "stimulus": "<p id=\"stim\">DONKEY</p>", "conditions": [18, 1200, "v", 18000], "internal_node_id": "0.0-27.0", "trial": 0, "time_elapsed": 478490, "serialpos": 15, "key_press": -1, "wordID": 483, "type": "PRES_VIS", "trial_index": 36}, "uniqueid": "MTK3314:3LEP4MGT3H7ZZBPGJQKOVJ07VLEDBA", "dateTime": 1520369414340}, {"current_trial": 37, "trialdata": {"rt": -1, "trial_type": "single-stim", "word": "thief", "stimulus": "<p id=\"stim\">THIEF</p>", "conditions": [18, 1200, "v", 18000], "internal_node_id": "0.0-28.0", "trial": 0, "time_elapsed": 480843, "serialpos": 16, "key_press": -1, "wordID": 1455, "type": "PRES_VIS", "trial_index": 37}, "uniqueid": "MTK3314:3LEP4MGT3H7ZZBPGJQKOVJ07VLEDBA", "dateTime": 1520369416693}, {"current_trial": 38, "trialdata": {"rt": -1, "trial_type": "single-stim", "word": "ozone", "stimulus": "<p id=\"stim\">OZONE</p>", "conditions": [18, 1200, "v", 18000], "internal_node_id": "0.0-29.0", "trial": 0, "time_elapsed": 482976, "serialpos": 17, "key_press": -1, "wordID": 995, "type": "PRES_VIS", "trial_index": 38}, "uniqueid": "MTK3314:3LEP4MGT3H7ZZBPGJQKOVJ07VLEDBA", "dateTime": 1520369418826}, {"current_trial": 39, "trialdata": {"rt": -1, "trial_type": "single-stim", "stimulus": "", "internal_node_id": "0.0-30.0-0.0", "time_elapsed": 485264, "key_press": -1, "type": "PRE_RECALL_DELAY", "trial_index": 39}, "uniqueid": "MTK3314:3LEP4MGT3H7ZZBPGJQKOVJ07VLEDBA", "dateTime": 1520369421114}, {"current_trial": 40, "trialdata": {"rt": -1000, "trial_type": "single-audio", "stimulus": "/static/audio/400Hz.wav", "internal_node_id": "0.0-31.0", "time_elapsed": 485766, "key_press": -1, "type": "PRE_RECALL_ALERT", "trial_index": 40}, "uniqueid": "MTK3314:3LEP4MGT3H7ZZBPGJQKOVJ07VLEDBA", "dateTime": 1520369421616}, {"current_trial": 41, "trialdata": {"rt": [5755, 8427, 12139, 17115, 33836, 43212, 44715, 45900, 48732, 54540], "recwords": ["ozone", "crab", "missile", "college", "banker", "no", "others", "", "no", "others"], "key_times": [2004, 3283, 3620, 3979, 4283, 5755, 6667, 7123, 7403, 7947, 8427, 8931, 9195, 10051, 10299, 10563, 10963, 11259, 12139, 15131, 15363, 15611, 15819, 16051, 16427, 16571, 17115, 31692, 31868, 32124, 32452, 32781, 32996, 33836, 42668, 42988, 43212, 43452, 43692, 43868, 44028, 44187, 44468, 44715, 45900, 47540, 47827, 48732, 49212, 50027, 50179, 50315, 50475, 50739, 54540, 56700, 57164], "trial_type": "free-recall", "conditions": [18, 1200, "v", 18000], "internal_node_id": "0.0-32.0-0.0", "key_presses": [79, 90, 79, 78, 69, 13, 67, 82, 65, 66, 13, 77, 73, 83, 83, 73, 76, 69, 13, 67, 79, 76, 76, 69, 71, 69, 13, 66, 65, 78, 75, 69, 82, 13, 78, 79, 32, 79, 84, 72, 69, 82, 83, 32, 13, 78, 79, 32, 79, 84, 72, 69, 82, 83, 13, 78, 79], "trial": 0, "time_elapsed": 545786, "type": "FREE_RECALL", "trial_index": 41}, "uniqueid": "MTK3314:3LEP4MGT3H7ZZBPGJQKOVJ07VLEDBA", "dateTime": 1520369481637}, {"current_trial": 42, "trialdata": {"rt": 1807, "trial_type": "text", "internal_node_id": "0.0-33.0", "time_elapsed": 549595, "key_press": 32, "type": "INSTRUCTIONS", "trial_index": 42}, "uniqueid": "MTK3314:3LEP4MGT3H7ZZBPGJQKOVJ07VLEDBA", "dateTime": 1520369485446}, {"current_trial": 43, "trialdata": {"rt": [3270, 5909, 8022, 10046, 12358, 14773, 16710], "trial_type": "math-distractor", "key_times": [2534, 2894, 3270, 5126, 5502, 5909, 7285, 7686, 8022, 9318, 9677, 10046, 11606, 11957, 12358, 13886, 14270, 14773, 16206, 16710, 17902], "responses": ["12", "22", "12", "12", "16", "19", "8"], "num2": [1, 5, 6, 7, 6, 8, 2, 4], "num3": [4, 8, 1, 1, 7, 2, 2, 1], "conditions": [18, 1200, "v", 18000], "internal_node_id": "0.0-34.0", "key_presses": [97, 98, 13, 98, 98, 13, 97, 98, 13, 97, 98, 13, 97, 102, 13, 97, 105, 13, 104, 13, 105], "trial": 1, "time_elapsed": 569598, "type": "DISTRACTOR", "trial_index": 43, "num1": [7, 9, 5, 4, 3, 9, 4, 4]}, "uniqueid": "MTK3314:3LEP4MGT3H7ZZBPGJQKOVJ07VLEDBA", "dateTime": 1520369505448}, {"current_trial": 44, "trialdata": {"rt": -1, "trial_type": "single-stim", "stimulus": "<p id=\"stim\">10</p>", "internal_node_id": "0.0-35.0-0.0", "time_elapsed": 572600, "key_press": -1, "trial_index": 44}, "uniqueid": "MTK3314:3LEP4MGT3H7ZZBPGJQKOVJ07VLEDBA", "dateTime": 1520369508450}, {"current_trial": 45, "trialdata": {"rt": -1, "trial_type": "single-stim", "stimulus": "<p id=\"stim\">9</p>", "internal_node_id": "0.0-35.0-1.0", "time_elapsed": 573601, "key_press": -1, "trial_index": 45}, "uniqueid": "MTK3314:3LEP4MGT3H7ZZBPGJQKOVJ07VLEDBA", "dateTime": 1520369509451}, {"current_trial": 46, "trialdata": {"rt": -1, "trial_type": "single-stim", "stimulus": "<p id=\"stim\">8</p>", "internal_node_id": "0.0-35.0-2.0", "time_elapsed": 574582, "key_press": -1, "trial_index": 46}, "uniqueid": "MTK3314:3LEP4MGT3H7ZZBPGJQKOVJ07VLEDBA", "dateTime": 1520369510432}, {"current_trial": 47, "trialdata": {"rt": -1, "trial_type": "single-stim", "stimulus": "<p id=\"stim\">7</p>", "internal_node_id": "0.0-35.0-3.0", "time_elapsed": 575584, "key_press": -1, "trial_index": 47}, "uniqueid": "MTK3314:3LEP4MGT3H7ZZBPGJQKOVJ07VLEDBA", "dateTime": 1520369511434}, {"current_trial": 48, "trialdata": {"rt": -1, "trial_type": "single-stim", "stimulus": "<p id=\"stim\">6</p>", "internal_node_id": "0.0-35.0-4.0", "time_elapsed": 576585, "key_press": -1, "trial_index": 48}, "uniqueid": "MTK3314:3LEP4MGT3H7ZZBPGJQKOVJ07VLEDBA", "dateTime": 1520369512435}, {"current_trial": 49, "trialdata": {"rt": -1, "trial_type": "single-stim", "stimulus": "<p id=\"stim\">5</p>", "internal_node_id": "0.0-35.0-5.0", "time_elapsed": 577585, "key_press": -1, "trial_index": 49}, "uniqueid": "MTK3314:3LEP4MGT3H7ZZBPGJQKOVJ07VLEDBA", "dateTime": 1520369513435}, {"current_trial": 50, "trialdata": {"rt": -1, "trial_type": "single-stim", "stimulus": "<p id=\"stim\">4</p>", "internal_node_id": "0.0-35.0-6.0", "time_elapsed": 578587, "key_press": -1, "trial_index": 50}, "uniqueid": "MTK3314:3LEP4MGT3H7ZZBPGJQKOVJ07VLEDBA", "dateTime": 1520369514437}, {"current_trial": 51, "trialdata": {"rt": -1, "trial_type": "single-stim", "stimulus": "<p id=\"stim\">3</p>", "internal_node_id": "0.0-35.0-7.0", "time_elapsed": 579587, "key_press": -1, "trial_index": 51}, "uniqueid": "MTK3314:3LEP4MGT3H7ZZBPGJQKOVJ07VLEDBA", "dateTime": 1520369515438}, {"current_trial": 52, "trialdata": {"rt": -1, "trial_type": "single-stim", "stimulus": "<p id=\"stim\">2</p>", "internal_node_id": "0.0-35.0-8.0", "time_elapsed": 580588, "key_press": -1, "trial_index": 52}, "uniqueid": "MTK3314:3LEP4MGT3H7ZZBPGJQKOVJ07VLEDBA", "dateTime": 1520369516439}, {"current_trial": 53, "trialdata": {"rt": -1, "trial_type": "single-stim", "stimulus": "<p id=\"stim\">1</p>", "internal_node_id": "0.0-35.0-9.0", "time_elapsed": 581589, "key_press": -1, "trial_index": 53}, "uniqueid": "MTK3314:3LEP4MGT3H7ZZBPGJQKOVJ07VLEDBA", "dateTime": 1520369517439}, {"current_trial": 54, "trialdata": {"rt": -1, "trial_type": "single-stim", "stimulus": "<p id=\"stim\">+</p>", "internal_node_id": "0.0-36.0-0.0", "time_elapsed": 583091, "key_press": -1, "type": "FIXATION", "trial_index": 54}, "uniqueid": "MTK3314:3LEP4MGT3H7ZZBPGJQKOVJ07VLEDBA", "dateTime": 1520369518941}, {"current_trial": 55, "trialdata": {"rt": -1, "trial_type": "single-stim", "word": "silk", "stimulus": "<p id=\"stim\">SILK</p>", "conditions": [18, 1200, "v", 18000], "internal_node_id": "0.0-37.0", "trial": 1, "time_elapsed": 584292, "serialpos": 0, "key_press": -1, "wordID": 1306, "type": "PRES_VIS", "trial_index": 55}, "uniqueid": "MTK3314:3LEP4MGT3H7ZZBPGJQKOVJ07VLEDBA", "dateTime": 1520369520142}, {"current_trial": 56, "trialdata": {"rt": -1, "trial_type": "single-stim", "word": "casket", "stimulus": "<p id=\"stim\">CASKET</p>", "conditions": [18, 1200, "v", 18000], "internal_node_id": "0.0-38.0", "trial": 1, "time_elapsed": 586567, "serialpos": 1, "key_press": -1, "wordID": 254, "type": "PRES_VIS", "trial_index": 56}, "uniqueid": "MTK3314:3LEP4MGT3H7ZZBPGJQKOVJ07VLEDBA", "dateTime": 1520369522417}, {"current_trial": 57, "trialdata": {"rt": -1, "trial_type": "single-stim", "word": "spider", "stimulus": "<p id=\"stim\">SPIDER</p>", "conditions": [18, 1200, "v", 18000], "internal_node_id": "0.0-39.0", "trial": 1, "time_elapsed": 588944, "serialpos": 2, "key_press": -1, "wordID": 1350, "type": "PRES_VIS", "trial_index": 57}, "uniqueid": "MTK3314:3LEP4MGT3H7ZZBPGJQKOVJ07VLEDBA", "dateTime": 1520369524794}, {"current_trial": 58, "trialdata": {"rt": -1, "trial_type": "single-stim", "word": "expert", "stimulus": "<p id=\"stim\">EXPERT</p>", "conditions": [18, 1200, "v", 18000], "internal_node_id": "0.0-40.0", "trial": 1, "time_elapsed": 591332, "serialpos": 3, "key_press": -1, "wordID": 542, "type": "PRES_VIS", "trial_index": 58}, "uniqueid": "MTK3314:3LEP4MGT3H7ZZBPGJQKOVJ07VLEDBA", "dateTime": 1520369527182}, {"current_trial": 59, "trialdata": {"rt": -1, "trial_type": "single-stim", "word": "seafood", "stimulus": "<p id=\"stim\">SEAFOOD</p>", "conditions": [18, 1200, "v", 18000], "internal_node_id": "0.0-41.0", "trial": 1, "time_elapsed": 593397, "serialpos": 4, "key_press": -1, "wordID": 1259, "type": "PRES_VIS", "trial_index": 59}, "uniqueid": "MTK3314:3LEP4MGT3H7ZZBPGJQKOVJ07VLEDBA", "dateTime": 1520369529247}, {"current_trial": 60, "trialdata": {"rt": -1, "trial_type": "single-stim", "word": "atlas", "stimulus": "<p id=\"stim\">ATLAS</p>", "conditions": [18, 1200, "v", 18000], "internal_node_id": "0.0-42.0", "trial": 1, "time_elapsed": 595642, "serialpos": 5, "key_press": -1, "wordID": 52, "type": "PRES_VIS", "trial_index": 60}, "uniqueid": "MTK3314:3LEP4MGT3H7ZZBPGJQKOVJ07VLEDBA", "dateTime": 1520369531492}, {"current_trial": 61, "trialdata": {"rt": -1, "trial_type": "single-stim", "word": "skirt", "stimulus": "<p id=\"stim\">SKIRT</p>", "conditions": [18, 1200, "v", 18000], "internal_node_id": "0.0-43.0", "trial": 1, "time_elapsed": 597876, "serialpos": 6, "key_press": -1, "wordID": 1318, "type": "PRES_VIS", "trial_index": 61}, "uniqueid": "MTK3314:3LEP4MGT3H7ZZBPGJQKOVJ07VLEDBA", "dateTime": 1520369533726}, {"current_trial": 62, "trialdata": {"rt": -1, "trial_type": "single-stim", "word": "orange", "stimulus": "<p id=\"stim\">ORANGE</p>", "conditions": [18, 1200, "v", 18000], "internal_node_id": "0.0-44.0", "trial": 1, "time_elapsed": 600048, "serialpos": 7, "key_press": -1, "wordID": 979, "type": "PRES_VIS", "trial_index": 62}, "uniqueid": "MTK3314:3LEP4MGT3H7ZZBPGJQKOVJ07VLEDBA", "dateTime": 1520369535898}, {"current_trial": 63, "trialdata": {"rt": -1, "trial_type": "single-stim", "word": "brick", "stimulus": "<p id=\"stim\">BRICK</p>", "conditions": [18, 1200, "v", 18000], "internal_node_id": "0.0-45.0", "trial": 1, "time_elapsed": 602065, "serialpos": 8, "key_press": -1, "wordID": 171, "type": "PRES_VIS", "trial_index": 63}, "uniqueid": "MTK3314:3LEP4MGT3H7ZZBPGJQKOVJ07VLEDBA", "dateTime": 1520369537915}, {"current_trial": 64, "trialdata": {"rt": -1, "trial_type": "single-stim", "word": "drug", "stimulus": "<p id=\"stim\">DRUG</p>", "conditions": [18, 1200, "v", 18000], "internal_node_id": "0.0-46.0", "trial": 1, "time_elapsed": 604147, "serialpos": 9, "key_press": -1, "wordID": 500, "type": "PRES_VIS", "trial_index": 64}, "uniqueid": "MTK3314:3LEP4MGT3H7ZZBPGJQKOVJ07VLEDBA", "dateTime": 1520369539998}, {"current_trial": 65, "trialdata": {"rt": -1, "trial_type": "single-stim", "word": "breast", "stimulus": "<p id=\"stim\">BREAST</p>", "conditions": [18, 1200, "v", 18000], "internal_node_id": "0.0-47.0", "trial": 1, "time_elapsed": 606409, "serialpos": 10, "key_press": -1, "wordID": 170, "type": "PRES_VIS", "trial_index": 65}, "uniqueid": "MTK3314:3LEP4MGT3H7ZZBPGJQKOVJ07VLEDBA", "dateTime": 1520369542259}, {"current_trial": 66, "trialdata": {"rt": -1, "trial_type": "single-stim", "word": "stomach", "stimulus": "<p id=\"stim\">STOMACH</p>", "conditions": [18, 1200, "v", 18000], "internal_node_id": "0.0-48.0", "trial": 1, "time_elapsed": 608420, "serialpos": 11, "key_press": -1, "wordID": 1383, "type": "PRES_VIS", "trial_index": 66}, "uniqueid": "MTK3314:3LEP4MGT3H7ZZBPGJQKOVJ07VLEDBA", "dateTime": 1520369544270}, {"current_trial": 67, "trialdata": {"rt": -1, "trial_type": "single-stim", "word": "xerox", "stimulus": "<p id=\"stim\">XEROX</p>", "conditions": [18, 1200, "v", 18000], "internal_node_id": "0.0-49.0", "trial": 1, "time_elapsed": 610733, "serialpos": 12, "key_press": -1, "wordID": 1627, "type": "PRES_VIS", "trial_index": 67}, "uniqueid": "MTK3314:3LEP4MGT3H7ZZBPGJQKOVJ07VLEDBA", "dateTime": 1520369546583}, {"current_trial": 68, "trialdata": {"rt": -1, "trial_type": "single-stim", "word": "rattle", "stimulus": "<p id=\"stim\">RATTLE</p>", "conditions": [18, 1200, "v", 18000], "internal_node_id": "0.0-50.0", "trial": 1, "time_elapsed": 612959, "serialpos": 13, "key_press": -1, "wordID": 1169, "type": "PRES_VIS", "trial_index": 68}, "uniqueid": "MTK3314:3LEP4MGT3H7ZZBPGJQKOVJ07VLEDBA", "dateTime": 1520369548811}, {"current_trial": 69, "trialdata": {"rt": -1, "trial_type": "single-stim", "word": "freezer", "stimulus": "<p id=\"stim\">FREEZER</p>", "conditions": [18, 1200, "v", 18000], "internal_node_id": "0.0-51.0", "trial": 1, "time_elapsed": 615049, "serialpos": 14, "key_press": -1, "wordID": 603, "type": "PRES_VIS", "trial_index": 69}, "uniqueid": "MTK3314:3LEP4MGT3H7ZZBPGJQKOVJ07VLEDBA", "dateTime": 1520369550899}, {"current_trial": 70, "trialdata": {"rt": -1, "trial_type": "single-stim", "word": "stream", "stimulus": "<p id=\"stim\">STREAM</p>", "conditions": [18, 1200, "v", 18000], "internal_node_id": "0.0-52.0", "trial": 1, "time_elapsed": 617362, "serialpos": 15, "key_press": -1, "wordID": 1391, "type": "PRES_VIS", "trial_index": 70}, "uniqueid": "MTK3314:3LEP4MGT3H7ZZBPGJQKOVJ07VLEDBA", "dateTime": 1520369553213}, {"current_trial": 71, "trialdata": {"rt": -1, "trial_type": "single-stim", "word": "thread", "stimulus": "<p id=\"stim\">THREAD</p>", "conditions": [18, 1200, "v", 18000], "internal_node_id": "0.0-53.0", "trial": 1, "time_elapsed": 619638, "serialpos": 16, "key_press": -1, "wordID": 1459, "type": "PRES_VIS", "trial_index": 71}, "uniqueid": "MTK3314:3LEP4MGT3H7ZZBPGJQKOVJ07VLEDBA", "dateTime": 1520369555488}, {"current_trial": 72, "trialdata": {"rt": -1, "trial_type": "single-stim", "word": "shoulder", "stimulus": "<p id=\"stim\">SHOULDER</p>", "conditions": [18, 1200, "v", 18000], "internal_node_id": "0.0-54.0", "trial": 1, "time_elapsed": 621728, "serialpos": 17, "key_press": -1, "wordID": 1293, "type": "PRES_VIS", "trial_index": 72}, "uniqueid": "MTK3314:3LEP4MGT3H7ZZBPGJQKOVJ07VLEDBA", "dateTime": 1520369557578}, {"current_trial": 73, "trialdata": {"rt": -1, "trial_type": "single-stim", "stimulus": "", "internal_node_id": "0.0-55.0-0.0", "time_elapsed": 624138, "key_press": -1, "type": "PRE_RECALL_DELAY", "trial_index": 73}, "uniqueid": "MTK3314:3LEP4MGT3H7ZZBPGJQKOVJ07VLEDBA", "dateTime": 1520369559988}, {"current_trial": 74, "trialdata": {"rt": -1000, "trial_type": "single-audio", "stimulus": "/static/audio/400Hz.wav", "internal_node_id": "0.0-56.0", "time_elapsed": 624638, "key_press": -1, "type": "PRE_RECALL_ALERT", "trial_index": 74}, "uniqueid": "MTK3314:3LEP4MGT3H7ZZBPGJQKOVJ07VLEDBA", "dateTime": 1520369560489}, {"current_trial": 75, "trialdata": {"rt": [16389, 19421, 24109, 46244], "recwords": ["shoulder", "text", "xerox", "college"], "key_times": [1765, 2308, 2812, 3156, 3908, 4388, 4644, 4900, 5524, 16389, 17661, 17909, 18245, 18533, 19421, 21117, 21509, 21741, 22029, 22805, 24109, 43325, 43636, 43869, 44076, 44300, 45244, 45372, 46244], "trial_type": "free-recall", "conditions": [18, 1200, "v", 18000], "internal_node_id": "0.0-57.0-0.0", "key_presses": [83, 72, 79, 85, 76, 68, 69, 82, 9, 13, 84, 69, 88, 84, 13, 88, 69, 82, 79, 88, 13, 67, 79, 76, 76, 69, 71, 69, 13], "trial": 1, "time_elapsed": 684659, "type": "FREE_RECALL", "trial_index": 75}, "uniqueid": "MTK3314:3LEP4MGT3H7ZZBPGJQKOVJ07VLEDBA", "dateTime": 1520369620510}, {"current_trial": 76, "trialdata": {"rt": 119, "trial_type": "text", "internal_node_id": "0.0-58.0", "time_elapsed": 686779, "key_press": 75, "type": "INSTRUCTIONS", "trial_index": 76}, "uniqueid": "MTK3314:3LEP4MGT3H7ZZBPGJQKOVJ07VLEDBA", "dateTime": 1520369622630}, {"current_trial": 77, "trialdata": {"rt": [2334, 4798, 6814, 9131, 11483], "trial_type": "math-distractor", "key_times": [1886, 2070, 2334, 4358, 4558, 4798, 6183, 6502, 6814, 8444, 8747, 9131, 10708, 11043, 11483], "responses": ["11", "11", "13", "15", "22"], "num2": [3, 4, 1, 8, 7, 8], "num3": [2, 2, 5, 3, 7, 1], "conditions": [24, 800, "v", 12000], "internal_node_id": "0.0-59.0", "key_presses": [97, 97, 13, 97, 97, 13, 97, 99, 13, 97, 101, 13, 98, 98, 13], "trial": 2, "time_elapsed": 699763, "type": "DISTRACTOR", "trial_index": 77, "num1": [6, 5, 8, 4, 8, 2]}, "uniqueid": "MTK3314:3LEP4MGT3H7ZZBPGJQKOVJ07VLEDBA", "dateTime": 1520369635613}, {"current_trial": 78, "trialdata": {"rt": -1, "trial_type": "single-stim", "stimulus": "<p id=\"stim\">10</p>", "internal_node_id": "0.0-60.0-0.0", "time_elapsed": 702765, "key_press": -1, "trial_index": 78}, "uniqueid": "MTK3314:3LEP4MGT3H7ZZBPGJQKOVJ07VLEDBA", "dateTime": 1520369638615}, {"current_trial": 79, "trialdata": {"rt": -1, "trial_type": "single-stim", "stimulus": "<p id=\"stim\">9</p>", "internal_node_id": "0.0-60.0-1.0", "time_elapsed": 703766, "key_press": -1, "trial_index": 79}, "uniqueid": "MTK3314:3LEP4MGT3H7ZZBPGJQKOVJ07VLEDBA", "dateTime": 1520369639616}, {"current_trial": 80, "trialdata": {"rt": -1, "trial_type": "single-stim", "stimulus": "<p id=\"stim\">8</p>", "internal_node_id": "0.0-60.0-2.0", "time_elapsed": 704767, "key_press": -1, "trial_index": 80}, "uniqueid": "MTK3314:3LEP4MGT3H7ZZBPGJQKOVJ07VLEDBA", "dateTime": 1520369640617}, {"current_trial": 81, "trialdata": {"rt": -1, "trial_type": "single-stim", "stimulus": "<p id=\"stim\">7</p>", "internal_node_id": "0.0-60.0-3.0", "time_elapsed": 705769, "key_press": -1, "trial_index": 81}, "uniqueid": "MTK3314:3LEP4MGT3H7ZZBPGJQKOVJ07VLEDBA", "dateTime": 1520369641619}, {"current_trial": 82, "trialdata": {"rt": -1, "trial_type": "single-stim", "stimulus": "<p id=\"stim\">6</p>", "internal_node_id": "0.0-60.0-4.0", "time_elapsed": 706769, "key_press": -1, "trial_index": 82}, "uniqueid": "MTK3314:3LEP4MGT3H7ZZBPGJQKOVJ07VLEDBA", "dateTime": 1520369642619}, {"current_trial": 83, "trialdata": {"rt": -1, "trial_type": "single-stim", "stimulus": "<p id=\"stim\">5</p>", "internal_node_id": "0.0-60.0-5.0", "time_elapsed": 707771, "key_press": -1, "trial_index": 83}, "uniqueid": "MTK3314:3LEP4MGT3H7ZZBPGJQKOVJ07VLEDBA", "dateTime": 1520369643621}, {"current_trial": 84, "trialdata": {"rt": -1, "trial_type": "single-stim", "stimulus": "<p id=\"stim\">4</p>", "internal_node_id": "0.0-60.0-6.0", "time_elapsed": 708771, "key_press": -1, "trial_index": 84}, "uniqueid": "MTK3314:3LEP4MGT3H7ZZBPGJQKOVJ07VLEDBA", "dateTime": 1520369644621}, {"current_trial": 85, "trialdata": {"rt": -1, "trial_type": "single-stim", "stimulus": "<p id=\"stim\">3</p>", "internal_node_id": "0.0-60.0-7.0", "time_elapsed": 709772, "key_press": -1, "trial_index": 85}, "uniqueid": "MTK3314:3LEP4MGT3H7ZZBPGJQKOVJ07VLEDBA", "dateTime": 1520369645622}, {"current_trial": 86, "trialdata": {"rt": -1, "trial_type": "single-stim", "stimulus": "<p id=\"stim\">2</p>", "internal_node_id": "0.0-60.0-8.0", "time_elapsed": 710773, "key_press": -1, "trial_index": 86}, "uniqueid": "MTK3314:3LEP4MGT3H7ZZBPGJQKOVJ07VLEDBA", "dateTime": 1520369646623}, {"current_trial": 87, "trialdata": {"rt": -1, "trial_type": "single-stim", "stimulus": "<p id=\"stim\">1</p>", "internal_node_id": "0.0-60.0-9.0", "time_elapsed": 711774, "key_press": -1, "trial_index": 87}, "uniqueid": "MTK3314:3LEP4MGT3H7ZZBPGJQKOVJ07VLEDBA", "dateTime": 1520369647624}, {"current_trial": 88, "trialdata": {"rt": -1, "trial_type": "single-stim", "stimulus": "<p id=\"stim\">+</p>", "internal_node_id": "0.0-61.0-0.0", "time_elapsed": 713276, "key_press": -1, "type": "FIXATION", "trial_index": 88}, "uniqueid": "MTK3314:3LEP4MGT3H7ZZBPGJQKOVJ07VLEDBA", "dateTime": 1520369649126}, {"current_trial": 89, "trialdata": {"rt": -1, "trial_type": "single-stim", "word": "box", "stimulus": "<p id=\"stim\">BOX</p>", "conditions": [24, 800, "v", 12000], "internal_node_id": "0.0-62.0", "trial": 2, "time_elapsed": 714077, "serialpos": 0, "key_press": -1, "wordID": 158, "type": "PRES_VIS", "trial_index": 89}, "uniqueid": "MTK3314:3LEP4MGT3H7ZZBPGJQKOVJ07VLEDBA", "dateTime": 1520369649927}, {"current_trial": 90, "trialdata": {"rt": -1, "trial_type": "single-stim", "word": "skillet", "stimulus": "<p id=\"stim\">SKILLET</p>", "conditions": [24, 800, "v", 12000], "internal_node_id": "0.0-63.0", "trial": 2, "time_elapsed": 715876, "serialpos": 1, "key_press": -1, "wordID": 1316, "type": "PRES_VIS", "trial_index": 90}, "uniqueid": "MTK3314:3LEP4MGT3H7ZZBPGJQKOVJ07VLEDBA", "dateTime": 1520369651726}, {"current_trial": 91, "trialdata": {"rt": -1, "trial_type": "single-stim", "word": "blender", "stimulus": "<p id=\"stim\">BLENDER</p>", "conditions": [24, 800, "v", 12000], "internal_node_id": "0.0-64.0", "trial": 2, "time_elapsed": 717799, "serialpos": 2, "key_press": -1, "wordID": 135, "type": "PRES_VIS", "trial_index": 91}, "uniqueid": "MTK3314:3LEP4MGT3H7ZZBPGJQKOVJ07VLEDBA", "dateTime": 1520369653649}, {"current_trial": 92, "trialdata": {"rt": -1, "trial_type": "single-stim", "word": "glove", "stimulus": "<p id=\"stim\">GLOVE</p>", "conditions": [24, 800, "v", 12000], "internal_node_id": "0.0-65.0", "trial": 2, "time_elapsed": 719735, "serialpos": 3, "key_press": -1, "wordID": 641, "type": "PRES_VIS", "trial_index": 92}, "uniqueid": "MTK3314:3LEP4MGT3H7ZZBPGJQKOVJ07VLEDBA", "dateTime": 1520369655585}, {"current_trial": 93, "trialdata": {"rt": -1, "trial_type": "single-stim", "word": "puppy", "stimulus": "<p id=\"stim\">PUPPY</p>", "conditions": [24, 800, "v", 12000], "internal_node_id": "0.0-66.0", "trial": 2, "time_elapsed": 721563, "serialpos": 4, "key_press": -1, "wordID": 1143, "type": "PRES_VIS", "trial_index": 93}, "uniqueid": "MTK3314:3LEP4MGT3H7ZZBPGJQKOVJ07VLEDBA", "dateTime": 1520369657414}, {"current_trial": 94, "trialdata": {"rt": -1, "trial_type": "single-stim", "word": "creature", "stimulus": "<p id=\"stim\">CREATURE</p>", "conditions": [24, 800, "v", 12000], "internal_node_id": "0.0-67.0", "trial": 2, "time_elapsed": 723377, "serialpos": 5, "key_press": -1, "wordID": 402, "type": "PRES_VIS", "trial_index": 94}, "uniqueid": "MTK3314:3LEP4MGT3H7ZZBPGJQKOVJ07VLEDBA", "dateTime": 1520369659227}, {"current_trial": 95, "trialdata": {"rt": -1, "trial_type": "single-stim", "word": "wrist", "stimulus": "<p id=\"stim\">WRIST</p>", "conditions": [24, 800, "v", 12000], "internal_node_id": "0.0-68.0", "trial": 2, "time_elapsed": 725020, "serialpos": 6, "key_press": -1, "wordID": 1625, "type": "PRES_VIS", "trial_index": 95}, "uniqueid": "MTK3314:3LEP4MGT3H7ZZBPGJQKOVJ07VLEDBA", "dateTime": 1520369660870}, {"current_trial": 96, "trialdata": {"rt": -1, "trial_type": "single-stim", "word": "boyfriend", "stimulus": "<p id=\"stim\">BOYFRIEND</p>", "conditions": [24, 800, "v", 12000], "internal_node_id": "0.0-69.0", "trial": 2, "time_elapsed": 726994, "serialpos": 7, "key_press": -1, "wordID": 161, "type": "PRES_VIS", "trial_index": 96}, "uniqueid": "MTK3314:3LEP4MGT3H7ZZBPGJQKOVJ07VLEDBA", "dateTime": 1520369662844}, {"current_trial": 97, "trialdata": {"rt": -1, "trial_type": "single-stim", "word": "freckle", "stimulus": "<p id=\"stim\">FRECKLE</p>", "conditions": [24, 800, "v", 12000], "internal_node_id": "0.0-70.0", "trial": 2, "time_elapsed": 728616, "serialpos": 8, "key_press": -1, "wordID": 601, "type": "PRES_VIS", "trial_index": 97}, "uniqueid": "MTK3314:3LEP4MGT3H7ZZBPGJQKOVJ07VLEDBA", "dateTime": 1520369664466}, {"current_trial": 98, "trialdata": {"rt": -1, "trial_type": "single-stim", "word": "fragrance", "stimulus": "<p id=\"stim\">FRAGRANCE</p>", "conditions": [24, 800, "v", 12000], "internal_node_id": "0.0-71.0", "trial": 2, "time_elapsed": 730222, "serialpos": 9, "key_press": -1, "wordID": 598, "type": "PRES_VIS", "trial_index": 98}, "uniqueid": "MTK3314:3LEP4MGT3H7ZZBPGJQKOVJ07VLEDBA", "dateTime": 1520369666072}, {"current_trial": 99, "trialdata": {"rt": -1, "trial_type": "single-stim", "word": "vagrant", "stimulus": "<p id=\"stim\">VAGRANT</p>", "conditions": [24, 800, "v", 12000], "internal_node_id": "0.0-72.0", "trial": 2, "time_elapsed": 732171, "serialpos": 10, "key_press": -1, "wordID": 1543, "type": "PRES_VIS", "trial_index": 99}, "uniqueid": "MTK3314:3LEP4MGT3H7ZZBPGJQKOVJ07VLEDBA", "dateTime": 1520369668021}, {"current_trial": 100, "trialdata": {"rt": -1, "trial_type": "single-stim", "word": "pimple", "stimulus": "<p id=\"stim\">PIMPLE</p>", "conditions": [24, 800, "v", 12000], "internal_node_id": "0.0-73.0", "trial": 2, "time_elapsed": 733963, "serialpos": 11, "key_press": -1, "wordID": 1070, "type": "PRES_VIS", "trial_index": 100}, "uniqueid": "MTK3314:3LEP4MGT3H7ZZBPGJQKOVJ07VLEDBA", "dateTime": 1520369669813}, {"current_trial": 101, "trialdata": {"rt": -1, "trial_type": "single-stim", "word": "grill", "stimulus": "<p id=\"stim\">GRILL</p>", "conditions": [24, 800, "v", 12000], "internal_node_id": "0.0-74.0", "trial": 2, "time_elapsed": 735738, "serialpos": 12, "key_press": -1, "wordID": 660, "type": "PRES_VIS", "trial_index": 101}, "uniqueid": "MTK3314:3LEP4MGT3H7ZZBPGJQKOVJ07VLEDBA", "dateTime": 1520369671588}, {"current_trial": 102, "trialdata": {"rt": -1, "trial_type": "single-stim", "word": "victim", "stimulus": "<p id=\"stim\">VICTIM</p>", "conditions": [24, 800, "v", 12000], "internal_node_id": "0.0-75.0", "trial": 2, "time_elapsed": 737602, "serialpos": 13, "key_press": -1, "wordID": 1561, "type": "PRES_VIS", "trial_index": 102}, "uniqueid": "MTK3314:3LEP4MGT3H7ZZBPGJQKOVJ07VLEDBA", "dateTime": 1520369673452}, {"current_trial": 103, "trialdata": {"rt": -1, "trial_type": "single-stim", "word": "briefcase", "stimulus": "<p id=\"stim\">BRIEFCASE</p>", "conditions": [24, 800, "v", 12000], "internal_node_id": "0.0-76.0", "trial": 2, "time_elapsed": 739207, "serialpos": 14, "key_press": -1, "wordID": 174, "type": "PRES_VIS", "trial_index": 103}, "uniqueid": "MTK3314:3LEP4MGT3H7ZZBPGJQKOVJ07VLEDBA", "dateTime": 1520369675057}, {"current_trial": 104, "trialdata": {"rt": -1, "trial_type": "single-stim", "word": "chest", "stimulus": "<p id=\"stim\">CHEST</p>", "conditions": [24, 800, "v", 12000], "internal_node_id": "0.0-77.0", "trial": 2, "time_elapsed": 741007, "serialpos": 15, "key_press": -1, "wordID": 294, "type": "PRES_VIS", "trial_index": 104}, "uniqueid": "MTK3314:3LEP4MGT3H7ZZBPGJQKOVJ07VLEDBA", "dateTime": 1520369676858}, {"current_trial": 105, "trialdata": {"rt": -1, "trial_type": "single-stim", "word": "sheriff", "stimulus": "<p id=\"stim\">SHERIFF</p>", "conditions": [24, 800, "v", 12000], "internal_node_id": "0.0-78.0", "trial": 2, "time_elapsed": 742732, "serialpos": 16, "key_press": -1, "wordID": 1283, "type": "PRES_VIS", "trial_index": 105}, "uniqueid": "MTK3314:3LEP4MGT3H7ZZBPGJQKOVJ07VLEDBA", "dateTime": 1520369678582}, {"current_trial": 106, "trialdata": {"rt": -1, "trial_type": "single-stim", "word": "slime", "stimulus": "<p id=\"stim\">SLIME</p>", "conditions": [24, 800, "v", 12000], "internal_node_id": "0.0-79.0", "trial": 2, "time_elapsed": 744533, "serialpos": 17, "key_press": -1, "wordID": 1326, "type": "PRES_VIS", "trial_index": 106}, "uniqueid": "MTK3314:3LEP4MGT3H7ZZBPGJQKOVJ07VLEDBA", "dateTime": 1520369680383}, {"current_trial": 107, "trialdata": {"rt": -1, "trial_type": "single-stim", "word": "lace", "stimulus": "<p id=\"stim\">LACE</p>", "conditions": [24, 800, "v", 12000], "internal_node_id": "0.0-80.0", "trial": 2, "time_elapsed": 746292, "serialpos": 18, "key_press": -1, "wordID": 791, "type": "PRES_VIS", "trial_index": 107}, "uniqueid": "MTK3314:3LEP4MGT3H7ZZBPGJQKOVJ07VLEDBA", "dateTime": 1520369682142}, {"current_trial": 108, "trialdata": {"rt": -1, "trial_type": "single-stim", "word": "velvet", "stimulus": "<p id=\"stim\">VELVET</p>", "conditions": [24, 800, "v", 12000], "internal_node_id": "0.0-81.0", "trial": 2, "time_elapsed": 748039, "serialpos": 19, "key_press": -1, "wordID": 1554, "type": "PRES_VIS", "trial_index": 108}, "uniqueid": "MTK3314:3LEP4MGT3H7ZZBPGJQKOVJ07VLEDBA", "dateTime": 1520369683889}, {"current_trial": 109, "trialdata": {"rt": -1, "trial_type": "single-stim", "word": "blade", "stimulus": "<p id=\"stim\">BLADE</p>", "conditions": [24, 800, "v", 12000], "internal_node_id": "0.0-82.0", "trial": 2, "time_elapsed": 749887, "serialpos": 20, "key_press": -1, "wordID": 133, "type": "PRES_VIS", "trial_index": 109}, "uniqueid": "MTK3314:3LEP4MGT3H7ZZBPGJQKOVJ07VLEDBA", "dateTime": 1520369685737}, {"current_trial": 110, "trialdata": {"rt": -1, "trial_type": "single-stim", "word": "island", "stimulus": "<p id=\"stim\">ISLAND</p>", "conditions": [24, 800, "v", 12000], "internal_node_id": "0.0-83.0", "trial": 2, "time_elapsed": 751743, "serialpos": 21, "key_press": -1, "wordID": 744, "type": "PRES_VIS", "trial_index": 110}, "uniqueid": "MTK3314:3LEP4MGT3H7ZZBPGJQKOVJ07VLEDBA", "dateTime": 1520369687593}, {"current_trial": 111, "trialdata": {"rt": -1, "trial_type": "single-stim", "word": "asia", "stimulus": "<p id=\"stim\">ASIA</p>", "conditions": [24, 800, "v", 12000], "internal_node_id": "0.0-84.0", "trial": 2, "time_elapsed": 753500, "serialpos": 22, "key_press": -1, "wordID": 45, "type": "PRES_VIS", "trial_index": 111}, "uniqueid": "MTK3314:3LEP4MGT3H7ZZBPGJQKOVJ07VLEDBA", "dateTime": 1520369689350}, {"current_trial": 112, "trialdata": {"rt": -1, "trial_type": "single-stim", "word": "knapsack", "stimulus": "<p id=\"stim\">KNAPSACK</p>", "conditions": [24, 800, "v", 12000], "internal_node_id": "0.0-85.0", "trial": 2, "time_elapsed": 755480, "serialpos": 23, "key_press": -1, "wordID": 782, "type": "PRES_VIS", "trial_index": 112}, "uniqueid": "MTK3314:3LEP4MGT3H7ZZBPGJQKOVJ07VLEDBA", "dateTime": 1520369691330}, {"current_trial": 113, "trialdata": {"rt": -1, "trial_type": "single-stim", "stimulus": "", "internal_node_id": "0.0-86.0-0.0", "time_elapsed": 757805, "key_press": -1, "type": "PRE_RECALL_DELAY", "trial_index": 113}, "uniqueid": "MTK3314:3LEP4MGT3H7ZZBPGJQKOVJ07VLEDBA", "dateTime": 1520369693655}, {"current_trial": 114, "trialdata": {"rt": -1000, "trial_type": "single-audio", "stimulus": "/static/audio/400Hz.wav", "internal_node_id": "0.0-87.0", "time_elapsed": 758306, "key_press": -1, "type": "PRE_RECALL_ALERT", "trial_index": 114}, "uniqueid": "MTK3314:3LEP4MGT3H7ZZBPGJQKOVJ07VLEDBA", "dateTime": 1520369694156}, {"current_trial": 115, "trialdata": {"rt": [5753, 8057, 11737, 16656, 20161, 40056, 46024], "recwords": ["knapsack", "china", "china", "lace", "velvet", "box", "box"], "key_times": [1970, 2297, 3426, 3681, 3945, 4249, 5065, 5210, 5753, 6401, 6681, 6930, 7250, 7538, 8057, 9369, 9665, 10617, 10921, 11177, 11737, 14345, 14665, 15065, 15369, 16656, 17825, 18112, 18585, 19049, 19265, 19521, 20161, 39008, 39296, 39672, 40056, 44128, 44280, 44688, 46024], "trial_type": "free-recall", "conditions": [24, 800, "v", 12000], "internal_node_id": "0.0-88.0-0.0", "key_presses": [75, 78, 65, 80, 83, 65, 67, 75, 13, 67, 72, 73, 78, 65, 13, 67, 72, 73, 78, 65, 13, 76, 65, 67, 69, 13, 86, 69, 76, 86, 69, 84, 13, 66, 79, 88, 13, 66, 79, 88, 13], "trial": 2, "time_elapsed": 818308, "type": "FREE_RECALL", "trial_index": 115}, "uniqueid": "MTK3314:3LEP4MGT3H7ZZBPGJQKOVJ07VLEDBA", "dateTime": 1520369754160}, {"current_trial": 116, "trialdata": {"rt": 2972, "trial_type": "text", "internal_node_id": "0.0-89.0", "time_elapsed": 823283, "key_press": 32, "type": "INSTRUCTIONS", "trial_index": 116}, "uniqueid": "MTK3314:3LEP4MGT3H7ZZBPGJQKOVJ07VLEDBA", "dateTime": 1520369759133}, {"current_trial": 117, "trialdata": {"rt": [2942, 6989, 9294, 11157, 14565, 17405, 20701, 22613], "trial_type": "math-distractor", "key_times": [2038, 2326, 2942, 6510, 6733, 6989, 8574, 8869, 9294, 10661, 11157, 13685, 13957, 14565, 16565, 16877, 17405, 19685, 20013, 20701, 21917, 22253, 22613], "responses": ["12", "23", "12", "6", "15", "24", "18", "11"], "num2": [4, 9, 9, 2, 9, 8, 5, 3, 9], "num3": [6, 7, 2, 2, 4, 7, 6, 2, 8], "conditions": [12, 1600, "v", 24000], "internal_node_id": "0.0-90.0", "key_presses": [97, 98, 13, 98, 99, 13, 97, 98, 13, 102, 13, 97, 101, 13, 98, 100, 13, 97, 104, 13, 97, 97, 13], "trial": 3, "time_elapsed": 849285, "type": "DISTRACTOR", "trial_index": 117, "num1": [2, 7, 1, 2, 2, 9, 7, 6, 5]}, "uniqueid": "MTK3314:3LEP4MGT3H7ZZBPGJQKOVJ07VLEDBA", "dateTime": 1520369785135}, {"current_trial": 118, "trialdata": {"rt": -1, "trial_type": "single-stim", "stimulus": "<p id=\"stim\">10</p>", "internal_node_id": "0.0-91.0-0.0", "time_elapsed": 852287, "key_press": -1, "trial_index": 118}, "uniqueid": "MTK3314:3LEP4MGT3H7ZZBPGJQKOVJ07VLEDBA", "dateTime": 1520369788137}, {"current_trial": 119, "trialdata": {"rt": -1, "trial_type": "single-stim", "stimulus": "<p id=\"stim\">9</p>", "internal_node_id": "0.0-91.0-1.0", "time_elapsed": 853288, "key_press": -1, "trial_index": 119}, "uniqueid": "MTK3314:3LEP4MGT3H7ZZBPGJQKOVJ07VLEDBA", "dateTime": 1520369789138}, {"current_trial": 120, "trialdata": {"rt": -1, "trial_type": "single-stim", "stimulus": "<p id=\"stim\">8</p>", "internal_node_id": "0.0-91.0-2.0", "time_elapsed": 854289, "key_press": -1, "trial_index": 120}, "uniqueid": "MTK3314:3LEP4MGT3H7ZZBPGJQKOVJ07VLEDBA", "dateTime": 1520369790139}, {"current_trial": 121, "trialdata": {"rt": -1, "trial_type": "single-stim", "stimulus": "<p id=\"stim\">7</p>", "internal_node_id": "0.0-91.0-3.0", "time_elapsed": 855290, "key_press": -1, "trial_index": 121}, "uniqueid": "MTK3314:3LEP4MGT3H7ZZBPGJQKOVJ07VLEDBA", "dateTime": 1520369791140}, {"current_trial": 122, "trialdata": {"rt": -1, "trial_type": "single-stim", "stimulus": "<p id=\"stim\">6</p>", "internal_node_id": "0.0-91.0-4.0", "time_elapsed": 856291, "key_press": -1, "trial_index": 122}, "uniqueid": "MTK3314:3LEP4MGT3H7ZZBPGJQKOVJ07VLEDBA", "dateTime": 1520369792141}, {"current_trial": 123, "trialdata": {"rt": -1, "trial_type": "single-stim", "stimulus": "<p id=\"stim\">5</p>", "internal_node_id": "0.0-91.0-5.0", "time_elapsed": 857292, "key_press": -1, "trial_index": 123}, "uniqueid": "MTK3314:3LEP4MGT3H7ZZBPGJQKOVJ07VLEDBA", "dateTime": 1520369793142}, {"current_trial": 124, "trialdata": {"rt": -1, "trial_type": "single-stim", "stimulus": "<p id=\"stim\">4</p>", "internal_node_id": "0.0-91.0-6.0", "time_elapsed": 858293, "key_press": -1, "trial_index": 124}, "uniqueid": "MTK3314:3LEP4MGT3H7ZZBPGJQKOVJ07VLEDBA", "dateTime": 1520369794143}, {"current_trial": 125, "trialdata": {"rt": -1, "trial_type": "single-stim", "stimulus": "<p id=\"stim\">3</p>", "internal_node_id": "0.0-91.0-7.0", "time_elapsed": 859294, "key_press": -1, "trial_index": 125}, "uniqueid": "MTK3314:3LEP4MGT3H7ZZBPGJQKOVJ07VLEDBA", "dateTime": 1520369795144}, {"current_trial": 126, "trialdata": {"rt": -1, "trial_type": "single-stim", "stimulus": "<p id=\"stim\">2</p>", "internal_node_id": "0.0-91.0-8.0", "time_elapsed": 860295, "key_press": -1, "trial_index": 126}, "uniqueid": "MTK3314:3LEP4MGT3H7ZZBPGJQKOVJ07VLEDBA", "dateTime": 1520369796145}, {"current_trial": 127, "trialdata": {"rt": -1, "trial_type": "single-stim", "stimulus": "<p id=\"stim\">1</p>", "internal_node_id": "0.0-91.0-9.0", "time_elapsed": 861297, "key_press": -1, "trial_index": 127}, "uniqueid": "MTK3314:3LEP4MGT3H7ZZBPGJQKOVJ07VLEDBA", "dateTime": 1520369797147}, {"current_trial": 128, "trialdata": {"rt": -1, "trial_type": "single-stim", "stimulus": "<p id=\"stim\">+</p>", "internal_node_id": "0.0-92.0-0.0", "time_elapsed": 862797, "key_press": -1, "type": "FIXATION", "trial_index": 128}, "uniqueid": "MTK3314:3LEP4MGT3H7ZZBPGJQKOVJ07VLEDBA", "dateTime": 1520369798648}, {"current_trial": 129, "trialdata": {"rt": -1, "trial_type": "single-stim", "word": "plaza", "stimulus": "<p id=\"stim\">PLAZA</p>", "conditions": [12, 1600, "v", 24000], "internal_node_id": "0.0-93.0", "trial": 3, "time_elapsed": 864398, "serialpos": 0, "key_press": -1, "wordID": 1087, "type": "PRES_VIS", "trial_index": 129}, "uniqueid": "MTK3314:3LEP4MGT3H7ZZBPGJQKOVJ07VLEDBA", "dateTime": 1520369800248}, {"current_trial": 130, "trialdata": {"rt": -1, "trial_type": "single-stim", "word": "necklace", "stimulus": "<p id=\"stim\">NECKLACE</p>", "conditions": [12, 1600, "v", 24000], "internal_node_id": "0.0-94.0", "trial": 3, "time_elapsed": 866979, "serialpos": 1, "key_press": -1, "wordID": 939, "type": "PRES_VIS", "trial_index": 130}, "uniqueid": "MTK3314:3LEP4MGT3H7ZZBPGJQKOVJ07VLEDBA", "dateTime": 1520369802829}, {"current_trial": 131, "trialdata": {"rt": -1, "trial_type": "single-stim", "word": "climber", "stimulus": "<p id=\"stim\">CLIMBER</p>", "conditions": [12, 1600, "v", 24000], "internal_node_id": "0.0-95.0", "trial": 3, "time_elapsed": 869600, "serialpos": 2, "key_press": -1, "wordID": 322, "type": "PRES_VIS", "trial_index": 131}, "uniqueid": "MTK3314:3LEP4MGT3H7ZZBPGJQKOVJ07VLEDBA", "dateTime": 1520369805450}, {"current_trial": 132, "trialdata": {"rt": -1, "trial_type": "single-stim", "word": "leader", "stimulus": "<p id=\"stim\">LEADER</p>", "conditions": [12, 1600, "v", 24000], "internal_node_id": "0.0-96.0", "trial": 3, "time_elapsed": 872361, "serialpos": 3, "key_press": -1, "wordID": 806, "type": "PRES_VIS", "trial_index": 132}, "uniqueid": "MTK3314:3LEP4MGT3H7ZZBPGJQKOVJ07VLEDBA", "dateTime": 1520369808211}, {"current_trial": 133, "trialdata": {"rt": -1, "trial_type": "single-stim", "word": "country", "stimulus": "<p id=\"stim\">COUNTRY</p>", "conditions": [12, 1600, "v", 24000], "internal_node_id": "0.0-97.0", "trial": 3, "time_elapsed": 874970, "serialpos": 4, "key_press": -1, "wordID": 387, "type": "PRES_VIS", "trial_index": 133}, "uniqueid": "MTK3314:3LEP4MGT3H7ZZBPGJQKOVJ07VLEDBA", "dateTime": 1520369810820}, {"current_trial": 134, "trialdata": {"rt": -1, "trial_type": "single-stim", "word": "world", "stimulus": "<p id=\"stim\">WORLD</p>", "conditions": [12, 1600, "v", 24000], "internal_node_id": "0.0-98.0", "trial": 3, "time_elapsed": 877735, "serialpos": 5, "key_press": -1, "wordID": 1621, "type": "PRES_VIS", "trial_index": 134}, "uniqueid": "MTK3314:3LEP4MGT3H7ZZBPGJQKOVJ07VLEDBA", "dateTime": 1520369813585}, {"current_trial": 135, "trialdata": {"rt": -1, "trial_type": "single-stim", "word": "highway", "stimulus": "<p id=\"stim\">HIGHWAY</p>", "conditions": [12, 1600, "v", 24000], "internal_node_id": "0.0-99.0", "trial": 3, "time_elapsed": 880460, "serialpos": 6, "key_press": -1, "wordID": 706, "type": "PRES_VIS", "trial_index": 135}, "uniqueid": "MTK3314:3LEP4MGT3H7ZZBPGJQKOVJ07VLEDBA", "dateTime": 1520369816310}, {"current_trial": 136, "trialdata": {"rt": -1, "trial_type": "single-stim", "word": "sidewalk", "stimulus": "<p id=\"stim\">SIDEWALK</p>", "conditions": [12, 1600, "v", 24000], "internal_node_id": "0.0-100.0", "trial": 3, "time_elapsed": 883194, "serialpos": 7, "key_press": -1, "wordID": 1302, "type": "PRES_VIS", "trial_index": 136}, "uniqueid": "MTK3314:3LEP4MGT3H7ZZBPGJQKOVJ07VLEDBA", "dateTime": 1520369819044}, {"current_trial": 137, "trialdata": {"rt": -1, "trial_type": "single-stim", "word": "lunch", "stimulus": "<p id=\"stim\">LUNCH</p>", "conditions": [12, 1600, "v", 24000], "internal_node_id": "0.0-101.0", "trial": 3, "time_elapsed": 885893, "serialpos": 8, "key_press": -1, "wordID": 848, "type": "PRES_VIS", "trial_index": 137}, "uniqueid": "MTK3314:3LEP4MGT3H7ZZBPGJQKOVJ07VLEDBA", "dateTime": 1520369821743}, {"current_trial": 138, "trialdata": {"rt": -1, "trial_type": "single-stim", "word": "gavel", "stimulus": "<p id=\"stim\">GAVEL</p>", "conditions": [12, 1600, "v", 24000], "internal_node_id": "0.0-102.0", "trial": 3, "time_elapsed": 888350, "serialpos": 9, "key_press": -1, "wordID": 626, "type": "PRES_VIS", "trial_index": 138}, "uniqueid": "MTK3314:3LEP4MGT3H7ZZBPGJQKOVJ07VLEDBA", "dateTime": 1520369824201}, {"current_trial": 139, "trialdata": {"rt": -1, "trial_type": "single-stim", "word": "farmer", "stimulus": "<p id=\"stim\">FARMER</p>", "conditions": [12, 1600, "v", 24000], "internal_node_id": "0.0-103.0", "trial": 3, "time_elapsed": 891050, "serialpos": 10, "key_press": -1, "wordID": 552, "type": "PRES_VIS", "trial_index": 139}, "uniqueid": "MTK3314:3LEP4MGT3H7ZZBPGJQKOVJ07VLEDBA", "dateTime": 1520369826901}, {"current_trial": 140, "trialdata": {"rt": -1, "trial_type": "single-stim", "word": "tribe", "stimulus": "<p id=\"stim\">TRIBE</p>", "conditions": [12, 1600, "v", 24000], "internal_node_id": "0.0-104.0", "trial": 3, "time_elapsed": 893742, "serialpos": 11, "key_press": -1, "wordID": 1504, "type": "PRES_VIS", "trial_index": 140}, "uniqueid": "MTK3314:3LEP4MGT3H7ZZBPGJQKOVJ07VLEDBA", "dateTime": 1520369829592}, {"current_trial": 141, "trialdata": {"rt": -1, "trial_type": "single-stim", "stimulus": "", "internal_node_id": "0.0-105.0-0.0", "time_elapsed": 896159, "key_press": -1, "type": "PRE_RECALL_DELAY", "trial_index": 141}, "uniqueid": "MTK3314:3LEP4MGT3H7ZZBPGJQKOVJ07VLEDBA", "dateTime": 1520369832009}, {"current_trial": 142, "trialdata": {"rt": -1000, "trial_type": "single-audio", "stimulus": "/static/audio/400Hz.wav", "internal_node_id": "0.0-106.0", "time_elapsed": 896663, "key_press": -1, "type": "PRE_RECALL_ALERT", "trial_index": 142}, "uniqueid": "MTK3314:3LEP4MGT3H7ZZBPGJQKOVJ07VLEDBA", "dateTime": 1520369832513}, {"current_trial": 143, "trialdata": {"rt": [4029, 7174, 10173, 14453, 18116, 21373, 44452], "recwords": ["farmer", "tribe", "gavel", "highway", "world", "country", "farmer"], "key_times": [1334, 1550, 1734, 2405, 2749, 3021, 4029, 4613, 4949, 5477, 6069, 6398, 7174, 7997, 8253, 8542, 8798, 9390, 10173, 11197, 11509, 11861, 12157, 12501, 12781, 13125, 14453, 14853, 15341, 15757, 16109, 17109, 18116, 18605, 18909, 19173, 19453, 20149, 20517, 20813, 21373, 41484, 41716, 42028, 43132, 43372, 43596, 44452], "trial_type": "free-recall", "conditions": [12, 1600, "v", 24000], "internal_node_id": "0.0-107.0-0.0", "key_presses": [70, 65, 82, 77, 69, 82, 13, 84, 82, 73, 66, 69, 13, 71, 65, 86, 69, 76, 13, 72, 73, 71, 72, 87, 65, 89, 13, 87, 79, 82, 76, 68, 13, 67, 79, 85, 78, 84, 82, 89, 13, 70, 65, 82, 77, 69, 82, 13], "trial": 3, "time_elapsed": 956665, "type": "FREE_RECALL", "trial_index": 143}, "uniqueid": "MTK3314:3LEP4MGT3H7ZZBPGJQKOVJ07VLEDBA", "dateTime": 1520369892517}, {"current_trial": 144, "trialdata": {"rt": 1488, "trial_type": "text", "internal_node_id": "0.0-108.0", "time_elapsed": 960156, "key_press": 32, "type": "INSTRUCTIONS", "trial_index": 144}, "uniqueid": "MTK3314:3LEP4MGT3H7ZZBPGJQKOVJ07VLEDBA", "dateTime": 1520369896006}, {"current_trial": 145, "trialdata": {"rt": [4246, 7790, 10318], "trial_type": "math-distractor", "key_times": [3206, 3462, 4246, 5774, 7190, 7790, 9278, 9726, 10318, 11517, 11702], "responses": ["16", "16", "17"], "num2": [6, 8, 7, 5], "num3": [7, 7, 7, 5], "conditions": [12, 800, "v", 12000], "internal_node_id": "0.0-109.0", "key_presses": [97, 102, 13, 97, 102, 13, 97, 103, 13, 97, 98], "trial": 4, "time_elapsed": 974158, "type": "DISTRACTOR", "trial_index": 145, "num1": [3, 1, 3, 2]}, "uniqueid": "MTK3314:3LEP4MGT3H7ZZBPGJQKOVJ07VLEDBA", "dateTime": 1520369910008}, {"current_trial": 146, "trialdata": {"rt": -1, "trial_type": "single-stim", "stimulus": "<p id=\"stim\">10</p>", "internal_node_id": "0.0-110.0-0.0", "time_elapsed": 977160, "key_press": -1, "trial_index": 146}, "uniqueid": "MTK3314:3LEP4MGT3H7ZZBPGJQKOVJ07VLEDBA", "dateTime": 1520369913010}, {"current_trial": 147, "trialdata": {"rt": -1, "trial_type": "single-stim", "stimulus": "<p id=\"stim\">9</p>", "internal_node_id": "0.0-110.0-1.0", "time_elapsed": 978161, "key_press": -1, "trial_index": 147}, "uniqueid": "MTK3314:3LEP4MGT3H7ZZBPGJQKOVJ07VLEDBA", "dateTime": 1520369914011}, {"current_trial": 148, "trialdata": {"rt": -1, "trial_type": "single-stim", "stimulus": "<p id=\"stim\">8</p>", "internal_node_id": "0.0-110.0-2.0", "time_elapsed": 979162, "key_press": -1, "trial_index": 148}, "uniqueid": "MTK3314:3LEP4MGT3H7ZZBPGJQKOVJ07VLEDBA", "dateTime": 1520369915012}, {"current_trial": 149, "trialdata": {"rt": -1, "trial_type": "single-stim", "stimulus": "<p id=\"stim\">7</p>", "internal_node_id": "0.0-110.0-3.0", "time_elapsed": 980163, "key_press": -1, "trial_index": 149}, "uniqueid": "MTK3314:3LEP4MGT3H7ZZBPGJQKOVJ07VLEDBA", "dateTime": 1520369916013}, {"current_trial": 150, "trialdata": {"rt": -1, "trial_type": "single-stim", "stimulus": "<p id=\"stim\">6</p>", "internal_node_id": "0.0-110.0-4.0", "time_elapsed": 981164, "key_press": -1, "trial_index": 150}, "uniqueid": "MTK3314:3LEP4MGT3H7ZZBPGJQKOVJ07VLEDBA", "dateTime": 1520369917014}, {"current_trial": 151, "trialdata": {"rt": -1, "trial_type": "single-stim", "stimulus": "<p id=\"stim\">5</p>", "internal_node_id": "0.0-110.0-5.0", "time_elapsed": 982165, "key_press": -1, "trial_index": 151}, "uniqueid": "MTK3314:3LEP4MGT3H7ZZBPGJQKOVJ07VLEDBA", "dateTime": 1520369918015}, {"current_trial": 152, "trialdata": {"rt": -1, "trial_type": "single-stim", "stimulus": "<p id=\"stim\">4</p>", "internal_node_id": "0.0-110.0-6.0", "time_elapsed": 983166, "key_press": -1, "trial_index": 152}, "uniqueid": "MTK3314:3LEP4MGT3H7ZZBPGJQKOVJ07VLEDBA", "dateTime": 1520369919016}, {"current_trial": 153, "trialdata": {"rt": -1, "trial_type": "single-stim", "stimulus": "<p id=\"stim\">3</p>", "internal_node_id": "0.0-110.0-7.0", "time_elapsed": 984168, "key_press": -1, "trial_index": 153}, "uniqueid": "MTK3314:3LEP4MGT3H7ZZBPGJQKOVJ07VLEDBA", "dateTime": 1520369920018}, {"current_trial": 154, "trialdata": {"rt": -1, "trial_type": "single-stim", "stimulus": "<p id=\"stim\">2</p>", "internal_node_id": "0.0-110.0-8.0", "time_elapsed": 985168, "key_press": -1, "trial_index": 154}, "uniqueid": "MTK3314:3LEP4MGT3H7ZZBPGJQKOVJ07VLEDBA", "dateTime": 1520369921018}, {"current_trial": 155, "trialdata": {"rt": -1, "trial_type": "single-stim", "stimulus": "<p id=\"stim\">1</p>", "internal_node_id": "0.0-110.0-9.0", "time_elapsed": 986169, "key_press": -1, "trial_index": 155}, "uniqueid": "MTK3314:3LEP4MGT3H7ZZBPGJQKOVJ07VLEDBA", "dateTime": 1520369922019}, {"current_trial": 156, "trialdata": {"rt": -1, "trial_type": "single-stim", "stimulus": "<p id=\"stim\">+</p>", "internal_node_id": "0.0-111.0-0.0", "time_elapsed": 987670, "key_press": -1, "type": "FIXATION", "trial_index": 156}, "uniqueid": "MTK3314:3LEP4MGT3H7ZZBPGJQKOVJ07VLEDBA", "dateTime": 1520369923520}, {"current_trial": 157, "trialdata": {"rt": -1, "trial_type": "single-stim", "word": "girl", "stimulus": "<p id=\"stim\">GIRL</p>", "conditions": [12, 800, "v", 12000], "internal_node_id": "0.0-112.0", "trial": 4, "time_elapsed": 988471, "serialpos": 0, "key_press": -1, "wordID": 636, "type": "PRES_VIS", "trial_index": 157}, "uniqueid": "MTK3314:3LEP4MGT3H7ZZBPGJQKOVJ07VLEDBA", "dateTime": 1520369924321}, {"current_trial": 158, "trialdata": {"rt": -1, "trial_type": "single-stim", "word": "jungle", "stimulus": "<p id=\"stim\">JUNGLE</p>", "conditions": [12, 800, "v", 12000], "internal_node_id": "0.0-113.0", "trial": 4, "time_elapsed": 990322, "serialpos": 1, "key_press": -1, "wordID": 763, "type": "PRES_VIS", "trial_index": 158}, "uniqueid": "MTK3314:3LEP4MGT3H7ZZBPGJQKOVJ07VLEDBA", "dateTime": 1520369926172}, {"current_trial": 159, "trialdata": {"rt": -1, "trial_type": "single-stim", "word": "ground", "stimulus": "<p id=\"stim\">GROUND</p>", "conditions": [12, 800, "v", 12000], "internal_node_id": "0.0-114.0", "trial": 4, "time_elapsed": 992061, "serialpos": 2, "key_press": -1, "wordID": 665, "type": "PRES_VIS", "trial_index": 159}, "uniqueid": "MTK3314:3LEP4MGT3H7ZZBPGJQKOVJ07VLEDBA", "dateTime": 1520369927911}, {"current_trial": 160, "trialdata": {"rt": -1, "trial_type": "single-stim", "word": "child", "stimulus": "<p id=\"stim\">CHILD</p>", "conditions": [12, 800, "v", 12000], "internal_node_id": "0.0-115.0", "trial": 4, "time_elapsed": 993862, "serialpos": 3, "key_press": -1, "wordID": 298, "type": "PRES_VIS", "trial_index": 160}, "uniqueid": "MTK3314:3LEP4MGT3H7ZZBPGJQKOVJ07VLEDBA", "dateTime": 1520369929712}, {"current_trial": 161, "trialdata": {"rt": -1, "trial_type": "single-stim", "word": "infant", "stimulus": "<p id=\"stim\">INFANT</p>", "conditions": [12, 800, "v", 12000], "internal_node_id": "0.0-116.0", "trial": 4, "time_elapsed": 995518, "serialpos": 4, "key_press": -1, "wordID": 736, "type": "PRES_VIS", "trial_index": 161}, "uniqueid": "MTK3314:3LEP4MGT3H7ZZBPGJQKOVJ07VLEDBA", "dateTime": 1520369931368}, {"current_trial": 162, "trialdata": {"rt": -1, "trial_type": "single-stim", "word": "baby", "stimulus": "<p id=\"stim\">BABY</p>", "conditions": [12, 800, "v", 12000], "internal_node_id": "0.0-117.0", "trial": 4, "time_elapsed": 997308, "serialpos": 5, "key_press": -1, "wordID": 63, "type": "PRES_VIS", "trial_index": 162}, "uniqueid": "MTK3314:3LEP4MGT3H7ZZBPGJQKOVJ07VLEDBA", "dateTime": 1520369933158}, {"current_trial": 163, "trialdata": {"rt": -1, "trial_type": "single-stim", "word": "headband", "stimulus": "<p id=\"stim\">HEADBAND</p>", "conditions": [12, 800, "v", 12000], "internal_node_id": "0.0-118.0", "trial": 4, "time_elapsed": 999269, "serialpos": 6, "key_press": -1, "wordID": 695, "type": "PRES_VIS", "trial_index": 163}, "uniqueid": "MTK3314:3LEP4MGT3H7ZZBPGJQKOVJ07VLEDBA", "dateTime": 1520369935119}, {"current_trial": 164, "trialdata": {"rt": -1, "trial_type": "single-stim", "word": "palace", "stimulus": "<p id=\"stim\">PALACE</p>", "conditions": [12, 800, "v", 12000], "internal_node_id": "0.0-119.0", "trial": 4, "time_elapsed": 1001136, "serialpos": 7, "key_press": -1, "wordID": 1005, "type": "PRES_VIS", "trial_index": 164}, "uniqueid": "MTK3314:3LEP4MGT3H7ZZBPGJQKOVJ07VLEDBA", "dateTime": 1520369936986}, {"current_trial": 165, "trialdata": {"rt": -1, "trial_type": "single-stim", "word": "snake", "stimulus": "<p id=\"stim\">SNAKE</p>", "conditions": [12, 800, "v", 12000], "internal_node_id": "0.0-120.0", "trial": 4, "time_elapsed": 1002746, "serialpos": 8, "key_press": -1, "wordID": 1332, "type": "PRES_VIS", "trial_index": 165}, "uniqueid": "MTK3314:3LEP4MGT3H7ZZBPGJQKOVJ07VLEDBA", "dateTime": 1520369938596}, {"current_trial": 166, "trialdata": {"rt": -1, "trial_type": "single-stim", "word": "grave", "stimulus": "<p id=\"stim\">GRAVE</p>", "conditions": [12, 800, "v", 12000], "internal_node_id": "0.0-121.0", "trial": 4, "time_elapsed": 1004569, "serialpos": 9, "key_press": -1, "wordID": 657, "type": "PRES_VIS", "trial_index": 166}, "uniqueid": "MTK3314:3LEP4MGT3H7ZZBPGJQKOVJ07VLEDBA", "dateTime": 1520369940419}, {"current_trial": 167, "trialdata": {"rt": -1, "trial_type": "single-stim", "word": "shelf", "stimulus": "<p id=\"stim\">SHELF</p>", "conditions": [12, 800, "v", 12000], "internal_node_id": "0.0-122.0", "trial": 4, "time_elapsed": 1006252, "serialpos": 10, "key_press": -1, "wordID": 1279, "type": "PRES_VIS", "trial_index": 167}, "uniqueid": "MTK3314:3LEP4MGT3H7ZZBPGJQKOVJ07VLEDBA", "dateTime": 1520369942102}, {"current_trial": 168, "trialdata": {"rt": -1, "trial_type": "single-stim", "word": "woman", "stimulus": "<p id=\"stim\">WOMAN</p>", "conditions": [12, 800, "v", 12000], "internal_node_id": "0.0-123.0", "trial": 4, "time_elapsed": 1008026, "serialpos": 11, "key_press": -1, "wordID": 1619, "type": "PRES_VIS", "trial_index": 168}, "uniqueid": "MTK3314:3LEP4MGT3H7ZZBPGJQKOVJ07VLEDBA", "dateTime": 1520369943876}, {"current_trial": 169, "trialdata": {"rt": -1, "trial_type": "single-stim", "stimulus": "", "internal_node_id": "0.0-124.0-0.0", "time_elapsed": 1010563, "key_press": -1, "type": "PRE_RECALL_DELAY", "trial_index": 169}, "uniqueid": "MTK3314:3LEP4MGT3H7ZZBPGJQKOVJ07VLEDBA", "dateTime": 1520369946413}, {"current_trial": 170, "trialdata": {"rt": -1000, "trial_type": "single-audio", "stimulus": "/static/audio/400Hz.wav", "internal_node_id": "0.0-125.0", "time_elapsed": 1011067, "key_press": -1, "type": "PRE_RECALL_ALERT", "trial_index": 170}, "uniqueid": "MTK3314:3LEP4MGT3H7ZZBPGJQKOVJ07VLEDBA", "dateTime": 1520369946917}, {"current_trial": 171, "trialdata": {"rt": [3219, 7380, 11539, 15595, 18011], "recwords": ["woman", "girl", "child", "infant", "baby"], "key_times": [1836, 2027, 2331, 2627, 2947, 3219, 5452, 5740, 6044, 6635, 7380, 8708, 8972, 9259, 9636, 9908, 11539, 12268, 12564, 12859, 13388, 13763, 14403, 15595, 16235, 16491, 16859, 17195, 18011, 58298, 58401, 58978, 59305, 59465], "trial_type": "free-recall", "conditions": [12, 800, "v", 12000], "internal_node_id": "0.0-126.0-0.0", "key_presses": [87, 79, 77, 65, 78, 32, 71, 73, 82, 76, 32, 67, 72, 73, 76, 68, 13, 73, 78, 70, 65, 78, 84, 13, 66, 65, 66, 89, 13, 71, 82, 65, 86, 69], "trial": 4, "time_elapsed": 1071069, "type": "FREE_RECALL", "trial_index": 171}, "uniqueid": "MTK3314:3LEP4MGT3H7ZZBPGJQKOVJ07VLEDBA", "dateTime": 1520370006921}, {"current_trial": 172, "trialdata": {"rt": 1237, "trial_type": "text", "internal_node_id": "0.0-127.0", "time_elapsed": 1074310, "key_press": 32, "type": "INSTRUCTIONS", "trial_index": 172}, "uniqueid": "MTK3314:3LEP4MGT3H7ZZBPGJQKOVJ07VLEDBA", "dateTime": 1520370010160}, {"current_trial": 173, "trialdata": {"rt": [2878, 5350, 7430, 9574, 11846, 14126, 16438, 18614, 20446, 22309], "trial_type": "math-distractor", "key_times": [1806, 2118, 2878, 4734, 5030, 5350, 6822, 7078, 7430, 9022, 9269, 9574, 11358, 11541, 11846, 13310, 13670, 14126, 15622, 15958, 16438, 17678, 17965, 18614, 19949, 20157, 20446, 21830, 22029, 22309], "responses": ["16", "13", "14", "13", "12", "17", "17", "13", "15", "15"], "num2": [5, 3, 8, 1, 7, 5, 8, 9, 8, 4, 9], "num3": [8, 5, 5, 5, 3, 8, 6, 3, 2, 6, 4], "conditions": [24, 800, "v", 24000], "internal_node_id": "0.0-128.0", "key_presses": [97, 102, 13, 97, 99, 13, 97, 100, 13, 97, 99, 13, 97, 98, 13, 97, 103, 13, 97, 103, 13, 97, 99, 13, 97, 101, 13, 97, 101, 13], "trial": 5, "time_elapsed": 1100313, "type": "DISTRACTOR", "trial_index": 173, "num1": [3, 5, 1, 7, 2, 4, 3, 1, 5, 5, 6]}, "uniqueid": "MTK3314:3LEP4MGT3H7ZZBPGJQKOVJ07VLEDBA", "dateTime": 1520370036163}, {"current_trial": 174, "trialdata": {"rt": -1, "trial_type": "single-stim", "stimulus": "<p id=\"stim\">10</p>", "internal_node_id": "0.0-129.0-0.0", "time_elapsed": 1103315, "key_press": -1, "trial_index": 174}, "uniqueid": "MTK3314:3LEP4MGT3H7ZZBPGJQKOVJ07VLEDBA", "dateTime": 1520370039165}, {"current_trial": 175, "trialdata": {"rt": -1, "trial_type": "single-stim", "stimulus": "<p id=\"stim\">9</p>", "internal_node_id": "0.0-129.0-1.0", "time_elapsed": 1104316, "key_press": -1, "trial_index": 175}, "uniqueid": "MTK3314:3LEP4MGT3H7ZZBPGJQKOVJ07VLEDBA", "dateTime": 1520370040166}, {"current_trial": 176, "trialdata": {"rt": -1, "trial_type": "single-stim", "stimulus": "<p id=\"stim\">8</p>", "internal_node_id": "0.0-129.0-2.0", "time_elapsed": 1105317, "key_press": -1, "trial_index": 176}, "uniqueid": "MTK3314:3LEP4MGT3H7ZZBPGJQKOVJ07VLEDBA", "dateTime": 1520370041167}, {"current_trial": 177, "trialdata": {"rt": -1, "trial_type": "single-stim", "stimulus": "<p id=\"stim\">7</p>", "internal_node_id": "0.0-129.0-3.0", "time_elapsed": 1106318, "key_press": -1, "trial_index": 177}, "uniqueid": "MTK3314:3LEP4MGT3H7ZZBPGJQKOVJ07VLEDBA", "dateTime": 1520370042168}, {"current_trial": 178, "trialdata": {"rt": -1, "trial_type": "single-stim", "stimulus": "<p id=\"stim\">6</p>", "internal_node_id": "0.0-129.0-4.0", "time_elapsed": 1107319, "key_press": -1, "trial_index": 178}, "uniqueid": "MTK3314:3LEP4MGT3H7ZZBPGJQKOVJ07VLEDBA", "dateTime": 1520370043169}, {"current_trial": 179, "trialdata": {"rt": -1, "trial_type": "single-stim", "stimulus": "<p id=\"stim\">5</p>", "internal_node_id": "0.0-129.0-5.0", "time_elapsed": 1108320, "key_press": -1, "trial_index": 179}, "uniqueid": "MTK3314:3LEP4MGT3H7ZZBPGJQKOVJ07VLEDBA", "dateTime": 1520370044171}, {"current_trial": 180, "trialdata": {"rt": -1, "trial_type": "single-stim", "stimulus": "<p id=\"stim\">4</p>", "internal_node_id": "0.0-129.0-6.0", "time_elapsed": 1109321, "key_press": -1, "trial_index": 180}, "uniqueid": "MTK3314:3LEP4MGT3H7ZZBPGJQKOVJ07VLEDBA", "dateTime": 1520370045171}, {"current_trial": 181, "trialdata": {"rt": -1, "trial_type": "single-stim", "stimulus": "<p id=\"stim\">3</p>", "internal_node_id": "0.0-129.0-7.0", "time_elapsed": 1110323, "key_press": -1, "trial_index": 181}, "uniqueid": "MTK3314:3LEP4MGT3H7ZZBPGJQKOVJ07VLEDBA", "dateTime": 1520370046173}, {"current_trial": 182, "trialdata": {"rt": -1, "trial_type": "single-stim", "stimulus": "<p id=\"stim\">2</p>", "internal_node_id": "0.0-129.0-8.0", "time_elapsed": 1111323, "key_press": -1, "trial_index": 182}, "uniqueid": "MTK3314:3LEP4MGT3H7ZZBPGJQKOVJ07VLEDBA", "dateTime": 1520370047173}, {"current_trial": 183, "trialdata": {"rt": -1, "trial_type": "single-stim", "stimulus": "<p id=\"stim\">1</p>", "internal_node_id": "0.0-129.0-9.0", "time_elapsed": 1112325, "key_press": -1, "trial_index": 183}, "uniqueid": "MTK3314:3LEP4MGT3H7ZZBPGJQKOVJ07VLEDBA", "dateTime": 1520370048175}, {"current_trial": 184, "trialdata": {"rt": -1, "trial_type": "single-stim", "stimulus": "<p id=\"stim\">+</p>", "internal_node_id": "0.0-130.0-0.0", "time_elapsed": 1113826, "key_press": -1, "type": "FIXATION", "trial_index": 184}, "uniqueid": "MTK3314:3LEP4MGT3H7ZZBPGJQKOVJ07VLEDBA", "dateTime": 1520370049676}, {"current_trial": 185, "trialdata": {"rt": -1, "trial_type": "single-stim", "word": "beaker", "stimulus": "<p id=\"stim\">BEAKER</p>", "conditions": [24, 800, "v", 24000], "internal_node_id": "0.0-131.0", "trial": 5, "time_elapsed": 1114626, "serialpos": 0, "key_press": -1, "wordID": 103, "type": "PRES_VIS", "trial_index": 185}, "uniqueid": "MTK3314:3LEP4MGT3H7ZZBPGJQKOVJ07VLEDBA", "dateTime": 1520370050476}, {"current_trial": 186, "trialdata": {"rt": -1, "trial_type": "single-stim", "word": "flask", "stimulus": "<p id=\"stim\">FLASK</p>", "conditions": [24, 800, "v", 24000], "internal_node_id": "0.0-132.0", "trial": 5, "time_elapsed": 1116287, "serialpos": 1, "key_press": -1, "wordID": 575, "type": "PRES_VIS", "trial_index": 186}, "uniqueid": "MTK3314:3LEP4MGT3H7ZZBPGJQKOVJ07VLEDBA", "dateTime": 1520370052138}, {"current_trial": 187, "trialdata": {"rt": -1, "trial_type": "single-stim", "word": "mammal", "stimulus": "<p id=\"stim\">MAMMAL</p>", "conditions": [24, 800, "v", 24000], "internal_node_id": "0.0-133.0", "trial": 5, "time_elapsed": 1117990, "serialpos": 2, "key_press": -1, "wordID": 860, "type": "PRES_VIS", "trial_index": 187}, "uniqueid": "MTK3314:3LEP4MGT3H7ZZBPGJQKOVJ07VLEDBA", "dateTime": 1520370053840}, {"current_trial": 188, "trialdata": {"rt": -1, "trial_type": "single-stim", "word": "zipper", "stimulus": "<p id=\"stim\">ZIPPER</p>", "conditions": [24, 800, "v", 24000], "internal_node_id": "0.0-134.0", "trial": 5, "time_elapsed": 1119884, "serialpos": 3, "key_press": -1, "wordID": 1635, "type": "PRES_VIS", "trial_index": 188}, "uniqueid": "MTK3314:3LEP4MGT3H7ZZBPGJQKOVJ07VLEDBA", "dateTime": 1520370055734}, {"current_trial": 189, "trialdata": {"rt": -1, "trial_type": "single-stim", "word": "handbag", "stimulus": "<p id=\"stim\">HANDBAG</p>", "conditions": [24, 800, "v", 24000], "internal_node_id": "0.0-135.0", "trial": 5, "time_elapsed": 1121727, "serialpos": 4, "key_press": -1, "wordID": 683, "type": "PRES_VIS", "trial_index": 189}, "uniqueid": "MTK3314:3LEP4MGT3H7ZZBPGJQKOVJ07VLEDBA", "dateTime": 1520370057577}, {"current_trial": 190, "trialdata": {"rt": -1, "trial_type": "single-stim", "word": "airport", "stimulus": "<p id=\"stim\">AIRPORT</p>", "conditions": [24, 800, "v", 24000], "internal_node_id": "0.0-136.0", "trial": 5, "time_elapsed": 1123552, "serialpos": 5, "key_press": -1, "wordID": 12, "type": "PRES_VIS", "trial_index": 190}, "uniqueid": "MTK3314:3LEP4MGT3H7ZZBPGJQKOVJ07VLEDBA", "dateTime": 1520370059403}, {"current_trial": 191, "trialdata": {"rt": -1, "trial_type": "single-stim", "word": "trombone", "stimulus": "<p id=\"stim\">TROMBONE</p>", "conditions": [24, 800, "v", 24000], "internal_node_id": "0.0-137.0", "trial": 5, "time_elapsed": 1125470, "serialpos": 6, "key_press": -1, "wordID": 1507, "type": "PRES_VIS", "trial_index": 191}, "uniqueid": "MTK3314:3LEP4MGT3H7ZZBPGJQKOVJ07VLEDBA", "dateTime": 1520370061320}, {"current_trial": 192, "trialdata": {"rt": -1, "trial_type": "single-stim", "word": "bike", "stimulus": "<p id=\"stim\">BIKE</p>", "conditions": [24, 800, "v", 24000], "internal_node_id": "0.0-138.0", "trial": 5, "time_elapsed": 1127367, "serialpos": 7, "key_press": -1, "wordID": 124, "type": "PRES_VIS", "trial_index": 192}, "uniqueid": "MTK3314:3LEP4MGT3H7ZZBPGJQKOVJ07VLEDBA", "dateTime": 1520370063217}, {"current_trial": 193, "trialdata": {"rt": -1, "trial_type": "single-stim", "word": "match", "stimulus": "<p id=\"stim\">MATCH</p>", "conditions": [24, 800, "v", 24000], "internal_node_id": "0.0-139.0", "trial": 5, "time_elapsed": 1129061, "serialpos": 8, "key_press": -1, "wordID": 877, "type": "PRES_VIS", "trial_index": 193}, "uniqueid": "MTK3314:3LEP4MGT3H7ZZBPGJQKOVJ07VLEDBA", "dateTime": 1520370064911}, {"current_trial": 194, "trialdata": {"rt": -1, "trial_type": "single-stim", "word": "driver", "stimulus": "<p id=\"stim\">DRIVER</p>", "conditions": [24, 800, "v", 24000], "internal_node_id": "0.0-140.0", "trial": 5, "time_elapsed": 1130838, "serialpos": 9, "key_press": -1, "wordID": 498, "type": "PRES_VIS", "trial_index": 194}, "uniqueid": "MTK3314:3LEP4MGT3H7ZZBPGJQKOVJ07VLEDBA", "dateTime": 1520370066688}, {"current_trial": 195, "trialdata": {"rt": -1, "trial_type": "single-stim", "word": "leg", "stimulus": "<p id=\"stim\">LEG</p>", "conditions": [24, 800, "v", 24000], "internal_node_id": "0.0-141.0", "trial": 5, "time_elapsed": 1132704, "serialpos": 10, "key_press": -1, "wordID": 808, "type": "PRES_VIS", "trial_index": 195}, "uniqueid": "MTK3314:3LEP4MGT3H7ZZBPGJQKOVJ07VLEDBA", "dateTime": 1520370068554}, {"current_trial": 196, "trialdata": {"rt": -1, "trial_type": "single-stim", "word": "piano", "stimulus": "<p id=\"stim\">PIANO</p>", "conditions": [24, 800, "v", 24000], "internal_node_id": "0.0-142.0", "trial": 5, "time_elapsed": 1134506, "serialpos": 11, "key_press": -1, "wordID": 1056, "type": "PRES_VIS", "trial_index": 196}, "uniqueid": "MTK3314:3LEP4MGT3H7ZZBPGJQKOVJ07VLEDBA", "dateTime": 1520370070356}, {"current_trial": 197, "trialdata": {"rt": -1, "trial_type": "single-stim", "word": "fungus", "stimulus": "<p id=\"stim\">FUNGUS</p>", "conditions": [24, 800, "v", 24000], "internal_node_id": "0.0-143.0", "trial": 5, "time_elapsed": 1136226, "serialpos": 12, "key_press": -1, "wordID": 613, "type": "PRES_VIS", "trial_index": 197}, "uniqueid": "MTK3314:3LEP4MGT3H7ZZBPGJQKOVJ07VLEDBA", "dateTime": 1520370072076}, {"current_trial": 198, "trialdata": {"rt": -1, "trial_type": "single-stim", "word": "hamper", "stimulus": "<p id=\"stim\">HAMPER</p>", "conditions": [24, 800, "v", 24000], "internal_node_id": "0.0-144.0", "trial": 5, "time_elapsed": 1138161, "serialpos": 13, "key_press": -1, "wordID": 681, "type": "PRES_VIS", "trial_index": 198}, "uniqueid": "MTK3314:3LEP4MGT3H7ZZBPGJQKOVJ07VLEDBA", "dateTime": 1520370074011}, {"current_trial": 199, "trialdata": {"rt": -1, "trial_type": "single-stim", "word": "penguin", "stimulus": "<p id=\"stim\">PENGUIN</p>", "conditions": [24, 800, "v", 24000], "internal_node_id": "0.0-145.0", "trial": 5, "time_elapsed": 1140084, "serialpos": 14, "key_press": -1, "wordID": 1043, "type": "PRES_VIS", "trial_index": 199}, "uniqueid": "MTK3314:3LEP4MGT3H7ZZBPGJQKOVJ07VLEDBA", "dateTime": 1520370075934}, {"current_trial": 200, "trialdata": {"rt": -1, "trial_type": "single-stim", "word": "garden", "stimulus": "<p id=\"stim\">GARDEN</p>", "conditions": [24, 800, "v", 24000], "internal_node_id": "0.0-146.0", "trial": 5, "time_elapsed": 1141700, "serialpos": 15, "key_press": -1, "wordID": 622, "type": "PRES_VIS", "trial_index": 200}, "uniqueid": "MTK3314:3LEP4MGT3H7ZZBPGJQKOVJ07VLEDBA", "dateTime": 1520370077550}, {"current_trial": 201, "trialdata": {"rt": -1, "trial_type": "single-stim", "word": "banjo", "stimulus": "<p id=\"stim\">BANJO</p>", "conditions": [24, 800, "v", 24000], "internal_node_id": "0.0-147.0", "trial": 5, "time_elapsed": 1143606, "serialpos": 16, "key_press": -1, "wordID": 81, "type": "PRES_VIS", "trial_index": 201}, "uniqueid": "MTK3314:3LEP4MGT3H7ZZBPGJQKOVJ07VLEDBA", "dateTime": 1520370079456}, {"current_trial": 202, "trialdata": {"rt": -1, "trial_type": "single-stim", "word": "hornet", "stimulus": "<p id=\"stim\">HORNET</p>", "conditions": [24, 800, "v", 24000], "internal_node_id": "0.0-148.0", "trial": 5, "time_elapsed": 1145342, "serialpos": 17, "key_press": -1, "wordID": 717, "type": "PRES_VIS", "trial_index": 202}, "uniqueid": "MTK3314:3LEP4MGT3H7ZZBPGJQKOVJ07VLEDBA", "dateTime": 1520370081192}, {"current_trial": 203, "trialdata": {"rt": -1, "trial_type": "single-stim", "word": "suspect", "stimulus": "<p id=\"stim\">SUSPECT</p>", "conditions": [24, 800, "v", 24000], "internal_node_id": "0.0-149.0", "trial": 5, "time_elapsed": 1147313, "serialpos": 18, "key_press": -1, "wordID": 1414, "type": "PRES_VIS", "trial_index": 203}, "uniqueid": "MTK3314:3LEP4MGT3H7ZZBPGJQKOVJ07VLEDBA", "dateTime": 1520370083163}, {"current_trial": 204, "trialdata": {"rt": -1, "trial_type": "single-stim", "word": "preacher", "stimulus": "<p id=\"stim\">PREACHER</p>", "conditions": [24, 800, "v", 24000], "internal_node_id": "0.0-150.0", "trial": 5, "time_elapsed": 1149200, "serialpos": 19, "key_press": -1, "wordID": 1118, "type": "PRES_VIS", "trial_index": 204}, "uniqueid": "MTK3314:3LEP4MGT3H7ZZBPGJQKOVJ07VLEDBA", "dateTime": 1520370085050}, {"current_trial": 205, "trialdata": {"rt": -1, "trial_type": "single-stim", "word": "soda", "stimulus": "<p id=\"stim\">SODA</p>", "conditions": [24, 800, "v", 24000], "internal_node_id": "0.0-151.0", "trial": 5, "time_elapsed": 1151002, "serialpos": 20, "key_press": -1, "wordID": 1340, "type": "PRES_VIS", "trial_index": 205}, "uniqueid": "MTK3314:3LEP4MGT3H7ZZBPGJQKOVJ07VLEDBA", "dateTime": 1520370086853}, {"current_trial": 206, "trialdata": {"rt": -1, "trial_type": "single-stim", "word": "popcorn", "stimulus": "<p id=\"stim\">POPCORN</p>", "conditions": [24, 800, "v", 24000], "internal_node_id": "0.0-152.0", "trial": 5, "time_elapsed": 1152948, "serialpos": 21, "key_press": -1, "wordID": 1103, "type": "PRES_VIS", "trial_index": 206}, "uniqueid": "MTK3314:3LEP4MGT3H7ZZBPGJQKOVJ07VLEDBA", "dateTime": 1520370088798}, {"current_trial": 207, "trialdata": {"rt": -1, "trial_type": "single-stim", "word": "robber", "stimulus": "<p id=\"stim\">ROBBER</p>", "conditions": [24, 800, "v", 24000], "internal_node_id": "0.0-153.0", "trial": 5, "time_elapsed": 1154800, "serialpos": 22, "key_press": -1, "wordID": 1196, "type": "PRES_VIS", "trial_index": 207}, "uniqueid": "MTK3314:3LEP4MGT3H7ZZBPGJQKOVJ07VLEDBA", "dateTime": 1520370090650}, {"current_trial": 208, "trialdata": {"rt": -1, "trial_type": "single-stim", "word": "egypt", "stimulus": "<p id=\"stim\">EGYPT</p>", "conditions": [24, 800, "v", 24000], "internal_node_id": "0.0-154.0", "trial": 5, "time_elapsed": 1156586, "serialpos": 23, "key_press": -1, "wordID": 518, "type": "PRES_VIS", "trial_index": 208}, "uniqueid": "MTK3314:3LEP4MGT3H7ZZBPGJQKOVJ07VLEDBA", "dateTime": 1520370092436}, {"current_trial": 209, "trialdata": {"rt": -1, "trial_type": "single-stim", "stimulus": "", "internal_node_id": "0.0-155.0-0.0", "time_elapsed": 1158890, "key_press": -1, "type": "PRE_RECALL_DELAY", "trial_index": 209}, "uniqueid": "MTK3314:3LEP4MGT3H7ZZBPGJQKOVJ07VLEDBA", "dateTime": 1520370094740}, {"current_trial": 210, "trialdata": {"rt": -1000, "trial_type": "single-audio", "stimulus": "/static/audio/400Hz.wav", "internal_node_id": "0.0-156.0", "time_elapsed": 1159393, "key_press": -1, "type": "PRE_RECALL_ALERT", "trial_index": 210}, "uniqueid": "MTK3314:3LEP4MGT3H7ZZBPGJQKOVJ07VLEDBA", "dateTime": 1520370095243}, {"current_trial": 211, "trialdata": {"rt": [4223, 6510, 10390, 15958, 18856, 27519], "recwords": ["soda", "robber", "egypt", "popcorn", "soda", "mammal"], "key_times": [2358, 2574, 2758, 3014, 4223, 4886, 5183, 5566, 5782, 5998, 6198, 6510, 7311, 8326, 8678, 9342, 9486, 10390, 11958, 12197, 12871, 13302, 13814, 14214, 15198, 15958, 16390, 16637, 16998, 17262, 18856, 24496, 24839, 25159, 25350, 25711, 26103, 27519], "trial_type": "free-recall", "conditions": [24, 800, "v", 24000], "internal_node_id": "0.0-157.0-0.0", "key_presses": [83, 79, 68, 65, 32, 82, 79, 66, 66, 69, 82, 32, 69, 71, 89, 80, 84, 32, 80, 79, 80, 67, 79, 82, 78, 32, 83, 79, 68, 65, 32, 77, 65, 77, 77, 65, 76, 13], "trial": 5, "time_elapsed": 1219413, "type": "FREE_RECALL", "trial_index": 211}, "uniqueid": "MTK3314:3LEP4MGT3H7ZZBPGJQKOVJ07VLEDBA", "dateTime": 1520370155264}, {"current_trial": 212, "trialdata": {"rt": 1577, "trial_type": "text", "internal_node_id": "0.0-158.0", "time_elapsed": 1222992, "key_press": 32, "type": "INSTRUCTIONS", "trial_index": 212}, "uniqueid": "MTK3314:3LEP4MGT3H7ZZBPGJQKOVJ07VLEDBA", "dateTime": 1520370158842}, {"current_trial": 213, "trialdata": {"rt": [2678, 5302, 8247, 10414], "trial_type": "math-distractor", "key_times": [2086, 2678, 4726, 5302, 7606, 7846, 8247, 9838, 10102, 10414], "responses": ["6", "1", "14", "14"], "num2": [1, 7, 6, 1, 6], "num3": [2, 1, 6, 9, 2], "conditions": [24, 1600, "v", 12000], "internal_node_id": "0.0-159.0", "key_presses": [102, 13, 97, 13, 97, 100, 13, 97, 100, 13], "trial": 6, "time_elapsed": 1236994, "type": "DISTRACTOR", "trial_index": 213, "num1": [3, 2, 2, 4, 9]}, "uniqueid": "MTK3314:3LEP4MGT3H7ZZBPGJQKOVJ07VLEDBA", "dateTime": 1520370172844}, {"current_trial": 214, "trialdata": {"rt": -1, "trial_type": "single-stim", "stimulus": "<p id=\"stim\">10</p>", "internal_node_id": "0.0-160.0-0.0", "time_elapsed": 1239988, "key_press": -1, "trial_index": 214}, "uniqueid": "MTK3314:3LEP4MGT3H7ZZBPGJQKOVJ07VLEDBA", "dateTime": 1520370175839}, {"current_trial": 215, "trialdata": {"rt": -1, "trial_type": "single-stim", "stimulus": "<p id=\"stim\">9</p>", "internal_node_id": "0.0-160.0-1.0", "time_elapsed": 1240990, "key_press": -1, "trial_index": 215}, "uniqueid": "MTK3314:3LEP4MGT3H7ZZBPGJQKOVJ07VLEDBA", "dateTime": 1520370176840}, {"current_trial": 216, "trialdata": {"rt": -1, "trial_type": "single-stim", "stimulus": "<p id=\"stim\">8</p>", "internal_node_id": "0.0-160.0-2.0", "time_elapsed": 1241992, "key_press": -1, "trial_index": 216}, "uniqueid": "MTK3314:3LEP4MGT3H7ZZBPGJQKOVJ07VLEDBA", "dateTime": 1520370177842}, {"current_trial": 217, "trialdata": {"rt": -1, "trial_type": "single-stim", "stimulus": "<p id=\"stim\">7</p>", "internal_node_id": "0.0-160.0-3.0", "time_elapsed": 1242992, "key_press": -1, "trial_index": 217}, "uniqueid": "MTK3314:3LEP4MGT3H7ZZBPGJQKOVJ07VLEDBA", "dateTime": 1520370178842}, {"current_trial": 218, "trialdata": {"rt": -1, "trial_type": "single-stim", "stimulus": "<p id=\"stim\">6</p>", "internal_node_id": "0.0-160.0-4.0", "time_elapsed": 1243994, "key_press": -1, "trial_index": 218}, "uniqueid": "MTK3314:3LEP4MGT3H7ZZBPGJQKOVJ07VLEDBA", "dateTime": 1520370179844}, {"current_trial": 219, "trialdata": {"rt": -1, "trial_type": "single-stim", "stimulus": "<p id=\"stim\">5</p>", "internal_node_id": "0.0-160.0-5.0", "time_elapsed": 1244994, "key_press": -1, "trial_index": 219}, "uniqueid": "MTK3314:3LEP4MGT3H7ZZBPGJQKOVJ07VLEDBA", "dateTime": 1520370180845}, {"current_trial": 220, "trialdata": {"rt": -1, "trial_type": "single-stim", "stimulus": "<p id=\"stim\">4</p>", "internal_node_id": "0.0-160.0-6.0", "time_elapsed": 1245996, "key_press": -1, "trial_index": 220}, "uniqueid": "MTK3314:3LEP4MGT3H7ZZBPGJQKOVJ07VLEDBA", "dateTime": 1520370181846}, {"current_trial": 221, "trialdata": {"rt": -1, "trial_type": "single-stim", "stimulus": "<p id=\"stim\">3</p>", "internal_node_id": "0.0-160.0-7.0", "time_elapsed": 1246996, "key_press": -1, "trial_index": 221}, "uniqueid": "MTK3314:3LEP4MGT3H7ZZBPGJQKOVJ07VLEDBA", "dateTime": 1520370182846}, {"current_trial": 222, "trialdata": {"rt": -1, "trial_type": "single-stim", "stimulus": "<p id=\"stim\">2</p>", "internal_node_id": "0.0-160.0-8.0", "time_elapsed": 1247998, "key_press": -1, "trial_index": 222}, "uniqueid": "MTK3314:3LEP4MGT3H7ZZBPGJQKOVJ07VLEDBA", "dateTime": 1520370183848}, {"current_trial": 223, "trialdata": {"rt": -1, "trial_type": "single-stim", "stimulus": "<p id=\"stim\">1</p>", "internal_node_id": "0.0-160.0-9.0", "time_elapsed": 1248999, "key_press": -1, "trial_index": 223}, "uniqueid": "MTK3314:3LEP4MGT3H7ZZBPGJQKOVJ07VLEDBA", "dateTime": 1520370184849}, {"current_trial": 224, "trialdata": {"rt": -1, "trial_type": "single-stim", "stimulus": "<p id=\"stim\">+</p>", "internal_node_id": "0.0-161.0-0.0", "time_elapsed": 1250499, "key_press": -1, "type": "FIXATION", "trial_index": 224}, "uniqueid": "MTK3314:3LEP4MGT3H7ZZBPGJQKOVJ07VLEDBA", "dateTime": 1520370186350}, {"current_trial": 225, "trialdata": {"rt": -1, "trial_type": "single-stim", "word": "mailbox", "stimulus": "<p id=\"stim\">MAILBOX</p>", "conditions": [24, 1600, "v", 12000], "internal_node_id": "0.0-162.0", "trial": 6, "time_elapsed": 1252101, "serialpos": 0, "key_press": -1, "wordID": 856, "type": "PRES_VIS", "trial_index": 225}, "uniqueid": "MTK3314:3LEP4MGT3H7ZZBPGJQKOVJ07VLEDBA", "dateTime": 1520370187951}, {"current_trial": 226, "trialdata": {"rt": -1, "trial_type": "single-stim", "word": "zebra", "stimulus": "<p id=\"stim\">ZEBRA</p>", "conditions": [24, 1600, "v", 12000], "internal_node_id": "0.0-163.0", "trial": 6, "time_elapsed": 1254551, "serialpos": 1, "key_press": -1, "wordID": 1634, "type": "PRES_VIS", "trial_index": 226}, "uniqueid": "MTK3314:3LEP4MGT3H7ZZBPGJQKOVJ07VLEDBA", "dateTime": 1520370190402}, {"current_trial": 227, "trialdata": {"rt": -1, "trial_type": "single-stim", "word": "supper", "stimulus": "<p id=\"stim\">SUPPER</p>", "conditions": [24, 1600, "v", 12000], "internal_node_id": "0.0-164.0", "trial": 6, "time_elapsed": 1256992, "serialpos": 2, "key_press": -1, "wordID": 1410, "type": "PRES_VIS", "trial_index": 227}, "uniqueid": "MTK3314:3LEP4MGT3H7ZZBPGJQKOVJ07VLEDBA", "dateTime": 1520370192842}, {"current_trial": 228, "trialdata": {"rt": -1, "trial_type": "single-stim", "word": "waitress", "stimulus": "<p id=\"stim\">WAITRESS</p>", "conditions": [24, 1600, "v", 12000], "internal_node_id": "0.0-165.0", "trial": 6, "time_elapsed": 1259740, "serialpos": 3, "key_press": -1, "wordID": 1580, "type": "PRES_VIS", "trial_index": 228}, "uniqueid": "MTK3314:3LEP4MGT3H7ZZBPGJQKOVJ07VLEDBA", "dateTime": 1520370195590}, {"current_trial": 229, "trialdata": {"rt": -1, "trial_type": "single-stim", "word": "sparrow", "stimulus": "<p id=\"stim\">SPARROW</p>", "conditions": [24, 1600, "v", 12000], "internal_node_id": "0.0-166.0", "trial": 6, "time_elapsed": 1262207, "serialpos": 4, "key_press": -1, "wordID": 1346, "type": "PRES_VIS", "trial_index": 229}, "uniqueid": "MTK3314:3LEP4MGT3H7ZZBPGJQKOVJ07VLEDBA", "dateTime": 1520370198057}, {"current_trial": 230, "trialdata": {"rt": -1, "trial_type": "single-stim", "word": "princess", "stimulus": "<p id=\"stim\">PRINCESS</p>", "conditions": [24, 1600, "v", 12000], "internal_node_id": "0.0-167.0", "trial": 6, "time_elapsed": 1264717, "serialpos": 5, "key_press": -1, "wordID": 1124, "type": "PRES_VIS", "trial_index": 230}, "uniqueid": "MTK3314:3LEP4MGT3H7ZZBPGJQKOVJ07VLEDBA", "dateTime": 1520370200567}, {"current_trial": 231, "trialdata": {"rt": -1, "trial_type": "single-stim", "word": "sphinx", "stimulus": "<p id=\"stim\">SPHINX</p>", "conditions": [24, 1600, "v", 12000], "internal_node_id": "0.0-168.0", "trial": 6, "time_elapsed": 1267134, "serialpos": 6, "key_press": -1, "wordID": 1348, "type": "PRES_VIS", "trial_index": 231}, "uniqueid": "MTK3314:3LEP4MGT3H7ZZBPGJQKOVJ07VLEDBA", "dateTime": 1520370202984}, {"current_trial": 232, "trialdata": {"rt": -1, "trial_type": "single-stim", "word": "hand", "stimulus": "<p id=\"stim\">HAND</p>", "conditions": [24, 1600, "v", 12000], "internal_node_id": "0.0-169.0", "trial": 6, "time_elapsed": 1269862, "serialpos": 7, "key_press": -1, "wordID": 682, "type": "PRES_VIS", "trial_index": 232}, "uniqueid": "MTK3314:3LEP4MGT3H7ZZBPGJQKOVJ07VLEDBA", "dateTime": 1520370205712}, {"current_trial": 233, "trialdata": {"rt": -1, "trial_type": "single-stim", "word": "bank", "stimulus": "<p id=\"stim\">BANK</p>", "conditions": [24, 1600, "v", 12000], "internal_node_id": "0.0-170.0", "trial": 6, "time_elapsed": 1272417, "serialpos": 8, "key_press": -1, "wordID": 82, "type": "PRES_VIS", "trial_index": 233}, "uniqueid": "MTK3314:3LEP4MGT3H7ZZBPGJQKOVJ07VLEDBA", "dateTime": 1520370208267}, {"current_trial": 234, "trialdata": {"rt": -1, "trial_type": "single-stim", "word": "hostess", "stimulus": "<p id=\"stim\">HOSTESS</p>", "conditions": [24, 1600, "v", 12000], "internal_node_id": "0.0-171.0", "trial": 6, "time_elapsed": 1275203, "serialpos": 9, "key_press": -1, "wordID": 722, "type": "PRES_VIS", "trial_index": 234}, "uniqueid": "MTK3314:3LEP4MGT3H7ZZBPGJQKOVJ07VLEDBA", "dateTime": 1520370211053}, {"current_trial": 235, "trialdata": {"rt": -1, "trial_type": "single-stim", "word": "actor", "stimulus": "<p id=\"stim\">ACTOR</p>", "conditions": [24, 1600, "v", 12000], "internal_node_id": "0.0-172.0", "trial": 6, "time_elapsed": 1277960, "serialpos": 10, "key_press": -1, "wordID": 4, "type": "PRES_VIS", "trial_index": 235}, "uniqueid": "MTK3314:3LEP4MGT3H7ZZBPGJQKOVJ07VLEDBA", "dateTime": 1520370213810}, {"current_trial": 236, "trialdata": {"rt": -1, "trial_type": "single-stim", "word": "film", "stimulus": "<p id=\"stim\">FILM</p>", "conditions": [24, 1600, "v", 12000], "internal_node_id": "0.0-173.0", "trial": 6, "time_elapsed": 1280372, "serialpos": 11, "key_press": -1, "wordID": 564, "type": "PRES_VIS", "trial_index": 236}, "uniqueid": "MTK3314:3LEP4MGT3H7ZZBPGJQKOVJ07VLEDBA", "dateTime": 1520370216222}, {"current_trial": 237, "trialdata": {"rt": -1, "trial_type": "single-stim", "word": "lily", "stimulus": "<p id=\"stim\">LILY</p>", "conditions": [24, 1600, "v", 12000], "internal_node_id": "0.0-174.0", "trial": 6, "time_elapsed": 1282817, "serialpos": 12, "key_press": -1, "wordID": 820, "type": "PRES_VIS", "trial_index": 237}, "uniqueid": "MTK3314:3LEP4MGT3H7ZZBPGJQKOVJ07VLEDBA", "dateTime": 1520370218668}, {"current_trial": 238, "trialdata": {"rt": -1, "trial_type": "single-stim", "word": "survey", "stimulus": "<p id=\"stim\">SURVEY</p>", "conditions": [24, 1600, "v", 12000], "internal_node_id": "0.0-175.0", "trial": 6, "time_elapsed": 1285320, "serialpos": 13, "key_press": -1, "wordID": 1413, "type": "PRES_VIS", "trial_index": 238}, "uniqueid": "MTK3314:3LEP4MGT3H7ZZBPGJQKOVJ07VLEDBA", "dateTime": 1520370221170}, {"current_trial": 239, "trialdata": {"rt": -1, "trial_type": "single-stim", "word": "star", "stimulus": "<p id=\"stim\">STAR</p>", "conditions": [24, 1600, "v", 12000], "internal_node_id": "0.0-176.0", "trial": 6, "time_elapsed": 1287726, "serialpos": 14, "key_press": -1, "wordID": 1372, "type": "PRES_VIS", "trial_index": 239}, "uniqueid": "MTK3314:3LEP4MGT3H7ZZBPGJQKOVJ07VLEDBA", "dateTime": 1520370223576}, {"current_trial": 240, "trialdata": {"rt": -1, "trial_type": "single-stim", "word": "cashew", "stimulus": "<p id=\"stim\">CASHEW</p>", "conditions": [24, 1600, "v", 12000], "internal_node_id": "0.0-177.0", "trial": 6, "time_elapsed": 1290512, "serialpos": 15, "key_press": -1, "wordID": 252, "type": "PRES_VIS", "trial_index": 240}, "uniqueid": "MTK3314:3LEP4MGT3H7ZZBPGJQKOVJ07VLEDBA", "dateTime": 1520370226362}, {"current_trial": 241, "trialdata": {"rt": -1, "trial_type": "single-stim", "word": "stone", "stimulus": "<p id=\"stim\">STONE</p>", "conditions": [24, 1600, "v", 12000], "internal_node_id": "0.0-178.0", "trial": 6, "time_elapsed": 1293184, "serialpos": 16, "key_press": -1, "wordID": 1384, "type": "PRES_VIS", "trial_index": 241}, "uniqueid": "MTK3314:3LEP4MGT3H7ZZBPGJQKOVJ07VLEDBA", "dateTime": 1520370229034}, {"current_trial": 242, "trialdata": {"rt": -1, "trial_type": "single-stim", "word": "football", "stimulus": "<p id=\"stim\">FOOTBALL</p>", "conditions": [24, 1600, "v", 12000], "internal_node_id": "0.0-179.0", "trial": 6, "time_elapsed": 1295732, "serialpos": 17, "key_press": -1, "wordID": 590, "type": "PRES_VIS", "trial_index": 242}, "uniqueid": "MTK3314:3LEP4MGT3H7ZZBPGJQKOVJ07VLEDBA", "dateTime": 1520370231582}, {"current_trial": 243, "trialdata": {"rt": -1, "trial_type": "single-stim", "word": "flag", "stimulus": "<p id=\"stim\">FLAG</p>", "conditions": [24, 1600, "v", 12000], "internal_node_id": "0.0-180.0", "trial": 6, "time_elapsed": 1298426, "serialpos": 18, "key_press": -1, "wordID": 572, "type": "PRES_VIS", "trial_index": 243}, "uniqueid": "MTK3314:3LEP4MGT3H7ZZBPGJQKOVJ07VLEDBA", "dateTime": 1520370234276}, {"current_trial": 244, "trialdata": {"rt": -1, "trial_type": "single-stim", "word": "powder", "stimulus": "<p id=\"stim\">POWDER</p>", "conditions": [24, 1600, "v", 12000], "internal_node_id": "0.0-181.0", "trial": 6, "time_elapsed": 1300907, "serialpos": 19, "key_press": -1, "wordID": 1116, "type": "PRES_VIS", "trial_index": 244}, "uniqueid": "MTK3314:3LEP4MGT3H7ZZBPGJQKOVJ07VLEDBA", "dateTime": 1520370236757}, {"current_trial": 245, "trialdata": {"rt": -1, "trial_type": "single-stim", "word": "elbow", "stimulus": "<p id=\"stim\">ELBOW</p>", "conditions": [24, 1600, "v", 12000], "internal_node_id": "0.0-182.0", "trial": 6, "time_elapsed": 1303387, "serialpos": 20, "key_press": -1, "wordID": 519, "type": "PRES_VIS", "trial_index": 245}, "uniqueid": "MTK3314:3LEP4MGT3H7ZZBPGJQKOVJ07VLEDBA", "dateTime": 1520370239237}, {"current_trial": 246, "trialdata": {"rt": -1, "trial_type": "single-stim", "word": "ankle", "stimulus": "<p id=\"stim\">ANKLE</p>", "conditions": [24, 1600, "v", 12000], "internal_node_id": "0.0-183.0", "trial": 6, "time_elapsed": 1305808, "serialpos": 21, "key_press": -1, "wordID": 23, "type": "PRES_VIS", "trial_index": 246}, "uniqueid": "MTK3314:3LEP4MGT3H7ZZBPGJQKOVJ07VLEDBA", "dateTime": 1520370241659}, {"current_trial": 247, "trialdata": {"rt": -1, "trial_type": "single-stim", "word": "iceberg", "stimulus": "<p id=\"stim\">ICEBERG</p>", "conditions": [24, 1600, "v", 12000], "internal_node_id": "0.0-184.0", "trial": 6, "time_elapsed": 1308544, "serialpos": 22, "key_press": -1, "wordID": 730, "type": "PRES_VIS", "trial_index": 247}, "uniqueid": "MTK3314:3LEP4MGT3H7ZZBPGJQKOVJ07VLEDBA", "dateTime": 1520370244394}, {"current_trial": 248, "trialdata": {"rt": -1, "trial_type": "single-stim", "word": "flower", "stimulus": "<p id=\"stim\">FLOWER</p>", "conditions": [24, 1600, "v", 12000], "internal_node_id": "0.0-185.0", "trial": 6, "time_elapsed": 1310985, "serialpos": 23, "key_press": -1, "wordID": 583, "type": "PRES_VIS", "trial_index": 248}, "uniqueid": "MTK3314:3LEP4MGT3H7ZZBPGJQKOVJ07VLEDBA", "dateTime": 1520370246835}, {"current_trial": 249, "trialdata": {"rt": -1, "trial_type": "single-stim", "stimulus": "", "internal_node_id": "0.0-186.0-0.0", "time_elapsed": 1313285, "key_press": -1, "type": "PRE_RECALL_DELAY", "trial_index": 249}, "uniqueid": "MTK3314:3LEP4MGT3H7ZZBPGJQKOVJ07VLEDBA", "dateTime": 1520370249135}, {"current_trial": 250, "trialdata": {"rt": -1000, "trial_type": "single-audio", "stimulus": "/static/audio/400Hz.wav", "internal_node_id": "0.0-187.0", "time_elapsed": 1313786, "key_press": -1, "type": "PRE_RECALL_ALERT", "trial_index": 250}, "uniqueid": "MTK3314:3LEP4MGT3H7ZZBPGJQKOVJ07VLEDBA", "dateTime": 1520370249636}, {"current_trial": 251, "trialdata": {"rt": [4516, 9212, 13364, 22699, 25498, 41538, 45620], "recwords": ["elbow", "ankle", "football", "waitress", "supper", "zebra", "mailbox"], "key_times": [1308, 1556, 2355, 2596, 3403, 4516, 5611, 5851, 6564, 6907, 8251, 9212, 9803, 10124, 10355, 10739, 11347, 11627, 12147, 12355, 13364, 18866, 19139, 19434, 19803, 20075, 20363, 21291, 21627, 22699, 23139, 23515, 24002, 24211, 24378, 24539, 25498, 38635, 39106, 40058, 40362, 41034, 41538, 42282, 42554, 42786, 43146, 43956, 44204, 44973, 45620], "trial_type": "free-recall", "conditions": [24, 1600, "v", 12000], "internal_node_id": "0.0-188.0-0.0", "key_presses": [69, 76, 66, 79, 87, 32, 65, 78, 75, 76, 69, 32, 70, 79, 79, 84, 66, 65, 76, 76, 32, 87, 65, 73, 84, 82, 69, 83, 83, 32, 83, 85, 80, 80, 69, 82, 32, 90, 69, 66, 82, 65, 32, 77, 65, 73, 76, 66, 79, 88, 32], "trial": 6, "time_elapsed": 1373799, "type": "FREE_RECALL", "trial_index": 251}, "uniqueid": "MTK3314:3LEP4MGT3H7ZZBPGJQKOVJ07VLEDBA", "dateTime": 1520370309651}, {"current_trial": 252, "trialdata": {"rt": 741, "trial_type": "text", "internal_node_id": "0.0-189.0", "time_elapsed": 1376543, "key_press": 32, "type": "INSTRUCTIONS", "trial_index": 252}, "uniqueid": "MTK3314:3LEP4MGT3H7ZZBPGJQKOVJ07VLEDBA", "dateTime": 1520370312393}, {"current_trial": 253, "trialdata": {"rt": [3789, 5781, 7589, 10349, 17141, 19877, 22581], "trial_type": "math-distractor", "key_times": [1789, 2622, 3277, 3517, 3789, 5069, 5326, 5781, 7094, 7589, 9830, 10037, 10349