{"assignmentId": "3LKC68YZ3BAIRBEG4QU0TRPR9VZOWK", "workerId": "MTK3267", "questiondata": {"avail_screen_height": 768, "color_depth": 24, "screen_width": 1366, "pixel_depth": 24, "avail_screen_width": 1366, "screen_height": 768}, "bonus": 0, "hitId": "3MVY4USGB6UD1OOAWO2SNLU06CASIU", "counterbalance": 2068, "useragent": "Mozilla/5.0 (Windows NT 10.0; Win64; x64; rv:58.0) Gecko/20100101 Firefox/58.0", "eventdata": [{"eventtype": "initialized", "interval": 0, "value": null, "timestamp": 1520285020762}, {"eventtype": "window_resize", "interval": 0, "value": [1366, 670], "timestamp": 1520285020762}, {"eventtype": "window_resize", "interval": 129609, "value": [1525, 748], "timestamp": 1520285150371}, {"eventtype": "focus", "interval": 987968, "value": "off", "timestamp": 1520286138339}, {"eventtype": "focus", "interval": 24998, "value": "on", "timestamp": 1520286163337}, {"eventtype": "focus", "interval": 152147, "value": "off", "timestamp": 1520286315484}, {"eventtype": "focus", "interval": 1807, "value": "on", "timestamp": 1520286317291}, {"eventtype": "focus", "interval": 94810, "value": "off", "timestamp": 1520286412101}, {"eventtype": "focus", "interval": 11762, "value": "on", "timestamp": 1520286423863}, {"eventtype": "focus", "interval": 67755, "value": "off", "timestamp": 1520286491618}, {"eventtype": "focus", "interval": 2221, "value": "on", "timestamp": 1520286493839}, {"eventtype": "focus", "interval": 395881, "value": "off", "timestamp": 1520286889720}, {"eventtype": "focus", "interval": 1635, "value": "on", "timestamp": 1520286891355}], "data": [{"current_trial": 0, "trialdata": {"rt": 5776, "trial_type": "text", "internal_node_id": "0.0-0.0", "time_elapsed": 5783, "key_press": 32, "type": "INSTRUCTIONS", "trial_index": 0}, "uniqueid": "MTK3267:3LKC68YZ3BAIRBEG4QU0TRPR9VZOWK", "dateTime": 1520285028269}, {"current_trial": 1, "trialdata": {"rt": 69218, "trial_type": "text", "internal_node_id": "0.0-1.0", "time_elapsed": 75007, "key_press": 32, "type": "INSTRUCTIONS", "trial_index": 1}, "uniqueid": "MTK3267:3LKC68YZ3BAIRBEG4QU0TRPR9VZOWK", "dateTime": 1520285097492}, {"current_trial": 2, "trialdata": {"rt": [9415], "trial_type": "audio-test", "responses": ["ocean"], "internal_node_id": "0.0-2.0", "time_elapsed": 84604, "type": "AUDIO_TEST", "trial_index": 2}, "uniqueid": "MTK3267:3LKC68YZ3BAIRBEG4QU0TRPR9VZOWK", "dateTime": 1520285107089}, {"current_trial": 3, "trialdata": {"rt": [7482], "trial_type": "audio-test", "responses": ["crystal"], "internal_node_id": "0.0-3.0", "time_elapsed": 92097, "type": "AUDIO_TEST", "trial_index": 3}, "uniqueid": "MTK3267:3LKC68YZ3BAIRBEG4QU0TRPR9VZOWK", "dateTime": 1520285114582}, {"current_trial": 4, "trialdata": {"rt": [5653], "trial_type": "audio-test", "responses": ["spice"], "internal_node_id": "0.0-4.0", "time_elapsed": 97762, "type": "AUDIO_TEST", "trial_index": 4}, "uniqueid": "MTK3267:3LKC68YZ3BAIRBEG4QU0TRPR9VZOWK", "dateTime": 1520285120247}, {"current_trial": 5, "trialdata": {"rt": 24852, "trial_type": "survey-text", "responses": "{\"Q0\":\"11 pm\",\"Q1\":\"6:30 am\",\"Q2\":\"3\"}", "internal_node_id": "0.0-5.0", "time_elapsed": 123380, "type": "SLEEP_SURVEY", "trial_index": 5}, "uniqueid": "MTK3267:3LKC68YZ3BAIRBEG4QU0TRPR9VZOWK", "dateTime": 1520285145865}, {"current_trial": 6, "trialdata": {"rt": 34619, "trial_type": "text", "internal_node_id": "0.0-6.0", "time_elapsed": 159016, "key_press": 32, "type": "INSTRUCTIONS", "trial_index": 6}, "uniqueid": "MTK3267:3LKC68YZ3BAIRBEG4QU0TRPR9VZOWK", "dateTime": 1520285181502}, {"current_trial": 7, "trialdata": {"rt": 12406, "trial_type": "text", "internal_node_id": "0.0-7.0", "time_elapsed": 171937, "key_press": 32, "type": "INSTRUCTIONS", "trial_index": 7}, "uniqueid": "MTK3267:3LKC68YZ3BAIRBEG4QU0TRPR9VZOWK", "dateTime": 1520285194422}, {"current_trial": 8, "trialdata": {"rt": 3170, "trial_type": "text", "internal_node_id": "0.0-8.0", "time_elapsed": 175612, "key_press": 32, "type": "INSTRUCTIONS", "trial_index": 8}, "uniqueid": "MTK3267:3LKC68YZ3BAIRBEG4QU0TRPR9VZOWK", "dateTime": 1520285198097}, {"current_trial": 9, "trialdata": {"rt": [3715, 6862, 9796, 13252, 16322], "trial_type": "math-distractor", "key_times": [2631, 2955, 3715, 6372, 6548, 6862, 8811, 9395, 9796, 11642, 12032, 13252, 15794, 15993, 16322], "responses": ["14", "22", "10", "19", "12"], "num2": [9, 7, 2, 7, 2, 3], "num3": [3, 8, 3, 5, 7, 2], "conditions": [18, 1200, "v", 18000], "internal_node_id": "0.0-9.0", "key_presses": [49, 52, 13, 50, 50, 13, 49, 48, 13, 49, 57, 13, 97, 98, 13], "trial": 0, "time_elapsed": 194645, "type": "DISTRACTOR", "trial_index": 9, "num1": [2, 7, 5, 7, 3, 8]}, "uniqueid": "MTK3267:3LKC68YZ3BAIRBEG4QU0TRPR9VZOWK", "dateTime": 1520285217131}, {"current_trial": 10, "trialdata": {"rt": -1, "trial_type": "single-stim", "stimulus": "<p id=\"stim\">10</p>", "internal_node_id": "0.0-10.0-0.0", "time_elapsed": 197661, "key_press": -1, "trial_index": 10}, "uniqueid": "MTK3267:3LKC68YZ3BAIRBEG4QU0TRPR9VZOWK", "dateTime": 1520285220147}, {"current_trial": 11, "trialdata": {"rt": -1, "trial_type": "single-stim", "stimulus": "<p id=\"stim\">9</p>", "internal_node_id": "0.0-10.0-1.0", "time_elapsed": 198674, "key_press": -1, "trial_index": 11}, "uniqueid": "MTK3267:3LKC68YZ3BAIRBEG4QU0TRPR9VZOWK", "dateTime": 1520285221160}, {"current_trial": 12, "trialdata": {"rt": -1, "trial_type": "single-stim", "stimulus": "<p id=\"stim\">8</p>", "internal_node_id": "0.0-10.0-2.0", "time_elapsed": 199682, "key_press": -1, "trial_index": 12}, "uniqueid": "MTK3267:3LKC68YZ3BAIRBEG4QU0TRPR9VZOWK", "dateTime": 1520285222168}, {"current_trial": 13, "trialdata": {"rt": -1, "trial_type": "single-stim", "stimulus": "<p id=\"stim\">7</p>", "internal_node_id": "0.0-10.0-3.0", "time_elapsed": 200699, "key_press": -1, "trial_index": 13}, "uniqueid": "MTK3267:3LKC68YZ3BAIRBEG4QU0TRPR9VZOWK", "dateTime": 1520285223184}, {"current_trial": 14, "trialdata": {"rt": -1, "trial_type": "single-stim", "stimulus": "<p id=\"stim\">6</p>", "internal_node_id": "0.0-10.0-4.0", "time_elapsed": 201701, "key_press": -1, "trial_index": 14}, "uniqueid": "MTK3267:3LKC68YZ3BAIRBEG4QU0TRPR9VZOWK", "dateTime": 1520285224187}, {"current_trial": 15, "trialdata": {"rt": -1, "trial_type": "single-stim", "stimulus": "<p id=\"stim\">5</p>", "internal_node_id": "0.0-10.0-5.0", "time_elapsed": 202707, "key_press": -1, "trial_index": 15}, "uniqueid": "MTK3267:3LKC68YZ3BAIRBEG4QU0TRPR9VZOWK", "dateTime": 1520285225193}, {"current_trial": 16, "trialdata": {"rt": -1, "trial_type": "single-stim", "stimulus": "<p id=\"stim\">4</p>", "internal_node_id": "0.0-10.0-6.0", "time_elapsed": 203717, "key_press": -1, "trial_index": 16}, "uniqueid": "MTK3267:3LKC68YZ3BAIRBEG4QU0TRPR9VZOWK", "dateTime": 1520285226202}, {"current_trial": 17, "trialdata": {"rt": -1, "trial_type": "single-stim", "stimulus": "<p id=\"stim\">3</p>", "internal_node_id": "0.0-10.0-7.0", "time_elapsed": 204723, "key_press": -1, "trial_index": 17}, "uniqueid": "MTK3267:3LKC68YZ3BAIRBEG4QU0TRPR9VZOWK", "dateTime": 1520285227208}, {"current_trial": 18, "trialdata": {"rt": -1, "trial_type": "single-stim", "stimulus": "<p id=\"stim\">2</p>", "internal_node_id": "0.0-10.0-8.0", "time_elapsed": 205734, "key_press": -1, "trial_index": 18}, "uniqueid": "MTK3267:3LKC68YZ3BAIRBEG4QU0TRPR9VZOWK", "dateTime": 1520285228219}, {"current_trial": 19, "trialdata": {"rt": -1, "trial_type": "single-stim", "stimulus": "<p id=\"stim\">1</p>", "internal_node_id": "0.0-10.0-9.0", "time_elapsed": 206749, "key_press": -1, "trial_index": 19}, "uniqueid": "MTK3267:3LKC68YZ3BAIRBEG4QU0TRPR9VZOWK", "dateTime": 1520285229235}, {"current_trial": 20, "trialdata": {"rt": -1, "trial_type": "single-stim", "stimulus": "<p id=\"stim\">+</p>", "internal_node_id": "0.0-11.0-0.0", "time_elapsed": 208254, "key_press": -1, "type": "FIXATION", "trial_index": 20}, "uniqueid": "MTK3267:3LKC68YZ3BAIRBEG4QU0TRPR9VZOWK", "dateTime": 1520285230739}, {"current_trial": 21, "trialdata": {"rt": -1, "trial_type": "single-stim", "word": "primate", "stimulus": "<p id=\"stim\">PRIMATE</p>", "conditions": [18, 1200, "v", 18000], "internal_node_id": "0.0-12.0", "trial": 0, "time_elapsed": 209461, "serialpos": 0, "key_press": -1, "wordID": 1122, "type": "PRES_VIS", "trial_index": 21}, "uniqueid": "MTK3267:3LKC68YZ3BAIRBEG4QU0TRPR9VZOWK", "dateTime": 1520285231946}, {"current_trial": 22, "trialdata": {"rt": -1, "trial_type": "single-stim", "word": "sphinx", "stimulus": "<p id=\"stim\">SPHINX</p>", "conditions": [18, 1200, "v", 18000], "internal_node_id": "0.0-13.0", "trial": 0, "time_elapsed": 211809, "serialpos": 1, "key_press": -1, "wordID": 1348, "type": "PRES_VIS", "trial_index": 22}, "uniqueid": "MTK3267:3LKC68YZ3BAIRBEG4QU0TRPR9VZOWK", "dateTime": 1520285234295}, {"current_trial": 23, "trialdata": {"rt": -1, "trial_type": "single-stim", "word": "salmon", "stimulus": "<p id=\"stim\">SALMON</p>", "conditions": [18, 1200, "v", 18000], "internal_node_id": "0.0-14.0", "trial": 0, "time_elapsed": 214005, "serialpos": 2, "key_press": -1, "wordID": 1226, "type": "PRES_VIS", "trial_index": 23}, "uniqueid": "MTK3267:3LKC68YZ3BAIRBEG4QU0TRPR9VZOWK", "dateTime": 1520285236491}, {"current_trial": 24, "trialdata": {"rt": -1, "trial_type": "single-stim", "word": "subway", "stimulus": "<p id=\"stim\">SUBWAY</p>", "conditions": [18, 1200, "v", 18000], "internal_node_id": "0.0-15.0", "trial": 0, "time_elapsed": 216360, "serialpos": 3, "key_press": -1, "wordID": 1399, "type": "PRES_VIS", "trial_index": 24}, "uniqueid": "MTK3267:3LKC68YZ3BAIRBEG4QU0TRPR9VZOWK", "dateTime": 1520285238846}, {"current_trial": 25, "trialdata": {"rt": -1, "trial_type": "single-stim", "word": "piano", "stimulus": "<p id=\"stim\">PIANO</p>", "conditions": [18, 1200, "v", 18000], "internal_node_id": "0.0-16.0", "trial": 0, "time_elapsed": 218565, "serialpos": 4, "key_press": -1, "wordID": 1056, "type": "PRES_VIS", "trial_index": 25}, "uniqueid": "MTK3267:3LKC68YZ3BAIRBEG4QU0TRPR9VZOWK", "dateTime": 1520285241050}, {"current_trial": 26, "trialdata": {"rt": -1, "trial_type": "single-stim", "word": "quail", "stimulus": "<p id=\"stim\">QUAIL</p>", "conditions": [18, 1200, "v", 18000], "internal_node_id": "0.0-17.0", "trial": 0, "time_elapsed": 220583, "serialpos": 5, "key_press": -1, "wordID": 1146, "type": "PRES_VIS", "trial_index": 26}, "uniqueid": "MTK3267:3LKC68YZ3BAIRBEG4QU0TRPR9VZOWK", "dateTime": 1520285243068}, {"current_trial": 27, "trialdata": {"rt": -1, "trial_type": "single-stim", "word": "item", "stimulus": "<p id=\"stim\">ITEM</p>", "conditions": [18, 1200, "v", 18000], "internal_node_id": "0.0-18.0", "trial": 0, "time_elapsed": 222641, "serialpos": 6, "key_press": -1, "wordID": 745, "type": "PRES_VIS", "trial_index": 27}, "uniqueid": "MTK3267:3LKC68YZ3BAIRBEG4QU0TRPR9VZOWK", "dateTime": 1520285245126}, {"current_trial": 28, "trialdata": {"rt": -1, "trial_type": "single-stim", "word": "river", "stimulus": "<p id=\"stim\">RIVER</p>", "conditions": [18, 1200, "v", 18000], "internal_node_id": "0.0-19.0", "trial": 0, "time_elapsed": 224699, "serialpos": 7, "key_press": -1, "wordID": 1193, "type": "PRES_VIS", "trial_index": 28}, "uniqueid": "MTK3267:3LKC68YZ3BAIRBEG4QU0TRPR9VZOWK", "dateTime": 1520285247184}, {"current_trial": 29, "trialdata": {"rt": -1, "trial_type": "single-stim", "word": "custard", "stimulus": "<p id=\"stim\">CUSTARD</p>", "conditions": [18, 1200, "v", 18000], "internal_node_id": "0.0-20.0", "trial": 0, "time_elapsed": 226843, "serialpos": 8, "key_press": -1, "wordID": 428, "type": "PRES_VIS", "trial_index": 29}, "uniqueid": "MTK3267:3LKC68YZ3BAIRBEG4QU0TRPR9VZOWK", "dateTime": 1520285249328}, {"current_trial": 30, "trialdata": {"rt": -1, "trial_type": "single-stim", "word": "wrist", "stimulus": "<p id=\"stim\">WRIST</p>", "conditions": [18, 1200, "v", 18000], "internal_node_id": "0.0-21.0", "trial": 0, "time_elapsed": 229167, "serialpos": 9, "key_press": -1, "wordID": 1625, "type": "PRES_VIS", "trial_index": 30}, "uniqueid": "MTK3267:3LKC68YZ3BAIRBEG4QU0TRPR9VZOWK", "dateTime": 1520285251652}, {"current_trial": 31, "trialdata": {"rt": -1, "trial_type": "single-stim", "word": "pepper", "stimulus": "<p id=\"stim\">PEPPER</p>", "conditions": [18, 1200, "v", 18000], "internal_node_id": "0.0-22.0", "trial": 0, "time_elapsed": 231448, "serialpos": 10, "key_press": -1, "wordID": 1046, "type": "PRES_VIS", "trial_index": 31}, "uniqueid": "MTK3267:3LKC68YZ3BAIRBEG4QU0TRPR9VZOWK", "dateTime": 1520285253934}, {"current_trial": 32, "trialdata": {"rt": -1, "trial_type": "single-stim", "word": "robber", "stimulus": "<p id=\"stim\">ROBBER</p>", "conditions": [18, 1200, "v", 18000], "internal_node_id": "0.0-23.0", "trial": 0, "time_elapsed": 233572, "serialpos": 11, "key_press": -1, "wordID": 1196, "type": "PRES_VIS", "trial_index": 32}, "uniqueid": "MTK3267:3LKC68YZ3BAIRBEG4QU0TRPR9VZOWK", "dateTime": 1520285256058}, {"current_trial": 33, "trialdata": {"rt": -1, "trial_type": "single-stim", "word": "parrot", "stimulus": "<p id=\"stim\">PARROT</p>", "conditions": [18, 1200, "v", 18000], "internal_node_id": "0.0-24.0", "trial": 0, "time_elapsed": 235938, "serialpos": 12, "key_press": -1, "wordID": 1014, "type": "PRES_VIS", "trial_index": 33}, "uniqueid": "MTK3267:3LKC68YZ3BAIRBEG4QU0TRPR9VZOWK", "dateTime": 1520285258423}, {"current_trial": 34, "trialdata": {"rt": -1, "trial_type": "single-stim", "word": "padding", "stimulus": "<p id=\"stim\">PADDING</p>", "conditions": [18, 1200, "v", 18000], "internal_node_id": "0.0-25.0", "trial": 0, "time_elapsed": 238292, "serialpos": 13, "key_press": -1, "wordID": 998, "type": "PRES_VIS", "trial_index": 34}, "uniqueid": "MTK3267:3LKC68YZ3BAIRBEG4QU0TRPR9VZOWK", "dateTime": 1520285260777}, {"current_trial": 35, "trialdata": {"rt": -1, "trial_type": "single-stim", "word": "novel", "stimulus": "<p id=\"stim\">NOVEL</p>", "conditions": [18, 1200, "v", 18000], "internal_node_id": "0.0-26.0", "trial": 0, "time_elapsed": 240638, "serialpos": 14, "key_press": -1, "wordID": 959, "type": "PRES_VIS", "trial_index": 35}, "uniqueid": "MTK3267:3LKC68YZ3BAIRBEG4QU0TRPR9VZOWK", "dateTime": 1520285263123}, {"current_trial": 36, "trialdata": {"rt": -1, "trial_type": "single-stim", "word": "outlaw", "stimulus": "<p id=\"stim\">OUTLAW</p>", "conditions": [18, 1200, "v", 18000], "internal_node_id": "0.0-27.0", "trial": 0, "time_elapsed": 243023, "serialpos": 15, "key_press": -1, "wordID": 988, "type": "PRES_VIS", "trial_index": 36}, "uniqueid": "MTK3267:3LKC68YZ3BAIRBEG4QU0TRPR9VZOWK", "dateTime": 1520285265508}, {"current_trial": 37, "trialdata": {"rt": -1, "trial_type": "single-stim", "word": "liver", "stimulus": "<p id=\"stim\">LIVER</p>", "conditions": [18, 1200, "v", 18000], "internal_node_id": "0.0-28.0", "trial": 0, "time_elapsed": 245060, "serialpos": 16, "key_press": -1, "wordID": 832, "type": "PRES_VIS", "trial_index": 37}, "uniqueid": "MTK3267:3LKC68YZ3BAIRBEG4QU0TRPR9VZOWK", "dateTime": 1520285267545}, {"current_trial": 38, "trialdata": {"rt": -1, "trial_type": "single-stim", "word": "mammal", "stimulus": "<p id=\"stim\">MAMMAL</p>", "conditions": [18, 1200, "v", 18000], "internal_node_id": "0.0-29.0", "trial": 0, "time_elapsed": 247455, "serialpos": 17, "key_press": -1, "wordID": 860, "type": "PRES_VIS", "trial_index": 38}, "uniqueid": "MTK3267:3LKC68YZ3BAIRBEG4QU0TRPR9VZOWK", "dateTime": 1520285269940}, {"current_trial": 39, "trialdata": {"rt": -1, "trial_type": "single-stim", "stimulus": "", "internal_node_id": "0.0-30.0-0.0", "time_elapsed": 249825, "key_press": -1, "type": "PRE_RECALL_DELAY", "trial_index": 39}, "uniqueid": "MTK3267:3LKC68YZ3BAIRBEG4QU0TRPR9VZOWK", "dateTime": 1520285272310}, {"current_trial": 40, "trialdata": {"rt": -1000, "trial_type": "single-audio", "stimulus": "/static/audio/400Hz.wav", "internal_node_id": "0.0-31.0", "time_elapsed": 250330, "key_press": -1, "type": "PRE_RECALL_ALERT", "trial_index": 40}, "uniqueid": "MTK3267:3LKC68YZ3BAIRBEG4QU0TRPR9VZOWK", "dateTime": 1520285272816}, {"current_trial": 41, "trialdata": {"rt": [4447, 6380, 8169, 17808, 19822, 22984, 40419], "recwords": ["primate", "item", "robber", "wrist", "river", "custard", "novel"], "key_times": [2996, 3132, 3223, 3373, 3487, 3636, 3793, 4447, 5333, 5483, 5722, 5845, 6380, 6739, 6900, 7202, 7335, 7463, 7652, 8169, 11211, 11721, 12083, 12448, 12658, 16410, 16658, 16908, 17079, 17404, 17808, 18495, 18699, 18897, 19146, 19343, 19822, 21216, 21484, 21620, 21732, 21866, 21978, 22166, 22984, 38449, 38657, 39161, 39501, 39706, 40419], "trial_type": "free-recall", "conditions": [18, 1200, "v", 18000], "internal_node_id": "0.0-32.0-0.0", "key_presses": [80, 82, 73, 77, 65, 84, 69, 13, 73, 84, 69, 77, 13, 82, 79, 66, 66, 69, 82, 13, 182, 182, 182, 182, 182, 87, 82, 73, 83, 84, 13, 82, 73, 86, 69, 82, 13, 67, 85, 83, 84, 65, 82, 68, 13, 78, 79, 86, 69, 76, 13], "trial": 0, "time_elapsed": 310346, "type": "FREE_RECALL", "trial_index": 41}, "uniqueid": "MTK3267:3LKC68YZ3BAIRBEG4QU0TRPR9VZOWK", "dateTime": 1520285332844}, {"current_trial": 42, "trialdata": {"rt": 1964, "trial_type": "text", "internal_node_id": "0.0-33.0", "time_elapsed": 314328, "key_press": 32, "type": "INSTRUCTIONS", "trial_index": 42}, "uniqueid": "MTK3267:3LKC68YZ3BAIRBEG4QU0TRPR9VZOWK", "dateTime": 1520285336813}, {"current_trial": 43, "trialdata": {"rt": [3617, 5730, 7575, 11362, 14628, 17507], "trial_type": "math-distractor", "key_times": [3070, 3325, 3617, 5168, 5406, 5730, 7051, 7245, 7575, 10671, 10987, 11362, 13931, 14273, 14628, 16600, 17122, 17507], "responses": ["24", "17", "11", "13", "15", "16"], "num2": [5, 4, 2, 1, 6, 8, 4], "num3": [9, 6, 8, 8, 5, 1, 3], "conditions": [18, 1200, "v", 18000], "internal_node_id": "0.0-34.0", "key_presses": [98, 100, 13, 97, 103, 13, 97, 97, 13, 97, 99, 13, 97, 101, 13, 97, 102, 13], "trial": 1, "time_elapsed": 334363, "type": "DISTRACTOR", "trial_index": 43, "num1": [9, 7, 1, 4, 4, 7, 4]}, "uniqueid": "MTK3267:3LKC68YZ3BAIRBEG4QU0TRPR9VZOWK", "dateTime": 1520285356848}, {"current_trial": 44, "trialdata": {"rt": -1, "trial_type": "single-stim", "stimulus": "<p id=\"stim\">10</p>", "internal_node_id": "0.0-35.0-0.0", "time_elapsed": 337371, "key_press": -1, "trial_index": 44}, "uniqueid": "MTK3267:3LKC68YZ3BAIRBEG4QU0TRPR9VZOWK", "dateTime": 1520285359856}, {"current_trial": 45, "trialdata": {"rt": -1, "trial_type": "single-stim", "stimulus": "<p id=\"stim\">9</p>", "internal_node_id": "0.0-35.0-1.0", "time_elapsed": 338375, "key_press": -1, "trial_index": 45}, "uniqueid": "MTK3267:3LKC68YZ3BAIRBEG4QU0TRPR9VZOWK", "dateTime": 1520285360860}, {"current_trial": 46, "trialdata": {"rt": -1, "trial_type": "single-stim", "stimulus": "<p id=\"stim\">8</p>", "internal_node_id": "0.0-35.0-2.0", "time_elapsed": 339388, "key_press": -1, "trial_index": 46}, "uniqueid": "MTK3267:3LKC68YZ3BAIRBEG4QU0TRPR9VZOWK", "dateTime": 1520285361873}, {"current_trial": 47, "trialdata": {"rt": -1, "trial_type": "single-stim", "stimulus": "<p id=\"stim\">7</p>", "internal_node_id": "0.0-35.0-3.0", "time_elapsed": 340395, "key_press": -1, "trial_index": 47}, "uniqueid": "MTK3267:3LKC68YZ3BAIRBEG4QU0TRPR9VZOWK", "dateTime": 1520285362880}, {"current_trial": 48, "trialdata": {"rt": -1, "trial_type": "single-stim", "stimulus": "<p id=\"stim\">6</p>", "internal_node_id": "0.0-35.0-4.0", "time_elapsed": 341399, "key_press": -1, "trial_index": 48}, "uniqueid": "MTK3267:3LKC68YZ3BAIRBEG4QU0TRPR9VZOWK", "dateTime": 1520285363884}, {"current_trial": 49, "trialdata": {"rt": -1, "trial_type": "single-stim", "stimulus": "<p id=\"stim\">5</p>", "internal_node_id": "0.0-35.0-5.0", "time_elapsed": 342400, "key_press": -1, "trial_index": 49}, "uniqueid": "MTK3267:3LKC68YZ3BAIRBEG4QU0TRPR9VZOWK", "dateTime": 1520285364886}, {"current_trial": 50, "trialdata": {"rt": -1, "trial_type": "single-stim", "stimulus": "<p id=\"stim\">4</p>", "internal_node_id": "0.0-35.0-6.0", "time_elapsed": 343416, "key_press": -1, "trial_index": 50}, "uniqueid": "MTK3267:3LKC68YZ3BAIRBEG4QU0TRPR9VZOWK", "dateTime": 1520285365901}, {"current_trial": 51, "trialdata": {"rt": -1, "trial_type": "single-stim", "stimulus": "<p id=\"stim\">3</p>", "internal_node_id": "0.0-35.0-7.0", "time_elapsed": 344422, "key_press": -1, "trial_index": 51}, "uniqueid": "MTK3267:3LKC68YZ3BAIRBEG4QU0TRPR9VZOWK", "dateTime": 1520285366907}, {"current_trial": 52, "trialdata": {"rt": -1, "trial_type": "single-stim", "stimulus": "<p id=\"stim\">2</p>", "internal_node_id": "0.0-35.0-8.0", "time_elapsed": 345431, "key_press": -1, "trial_index": 52}, "uniqueid": "MTK3267:3LKC68YZ3BAIRBEG4QU0TRPR9VZOWK", "dateTime": 1520285367916}, {"current_trial": 53, "trialdata": {"rt": -1, "trial_type": "single-stim", "stimulus": "<p id=\"stim\">1</p>", "internal_node_id": "0.0-35.0-9.0", "time_elapsed": 346443, "key_press": -1, "trial_index": 53}, "uniqueid": "MTK3267:3LKC68YZ3BAIRBEG4QU0TRPR9VZOWK", "dateTime": 1520285368929}, {"current_trial": 54, "trialdata": {"rt": -1, "trial_type": "single-stim", "stimulus": "<p id=\"stim\">+</p>", "internal_node_id": "0.0-36.0-0.0", "time_elapsed": 347959, "key_press": -1, "type": "FIXATION", "trial_index": 54}, "uniqueid": "MTK3267:3LKC68YZ3BAIRBEG4QU0TRPR9VZOWK", "dateTime": 1520285370444}, {"current_trial": 55, "trialdata": {"rt": -1, "trial_type": "single-stim", "word": "football", "stimulus": "<p id=\"stim\">FOOTBALL</p>", "conditions": [18, 1200, "v", 18000], "internal_node_id": "0.0-37.0", "trial": 1, "time_elapsed": 349164, "serialpos": 0, "key_press": -1, "wordID": 590, "type": "PRES_VIS", "trial_index": 55}, "uniqueid": "MTK3267:3LKC68YZ3BAIRBEG4QU0TRPR9VZOWK", "dateTime": 1520285371650}, {"current_trial": 56, "trialdata": {"rt": -1, "trial_type": "single-stim", "word": "concert", "stimulus": "<p id=\"stim\">CONCERT</p>", "conditions": [18, 1200, "v", 18000], "internal_node_id": "0.0-38.0", "trial": 1, "time_elapsed": 351209, "serialpos": 1, "key_press": -1, "wordID": 359, "type": "PRES_VIS", "trial_index": 56}, "uniqueid": "MTK3267:3LKC68YZ3BAIRBEG4QU0TRPR9VZOWK", "dateTime": 1520285373694}, {"current_trial": 57, "trialdata": {"rt": -1, "trial_type": "single-stim", "word": "ketchup", "stimulus": "<p id=\"stim\">KETCHUP</p>", "conditions": [18, 1200, "v", 18000], "internal_node_id": "0.0-39.0", "trial": 1, "time_elapsed": 353545, "serialpos": 2, "key_press": -1, "wordID": 770, "type": "PRES_VIS", "trial_index": 57}, "uniqueid": "MTK3267:3LKC68YZ3BAIRBEG4QU0TRPR9VZOWK", "dateTime": 1520285376030}, {"current_trial": 58, "trialdata": {"rt": -1, "trial_type": "single-stim", "word": "jury", "stimulus": "<p id=\"stim\">JURY</p>", "conditions": [18, 1200, "v", 18000], "internal_node_id": "0.0-40.0", "trial": 1, "time_elapsed": 355883, "serialpos": 3, "key_press": -1, "wordID": 765, "type": "PRES_VIS", "trial_index": 58}, "uniqueid": "MTK3267:3LKC68YZ3BAIRBEG4QU0TRPR9VZOWK", "dateTime": 1520285378368}, {"current_trial": 59, "trialdata": {"rt": -1, "trial_type": "single-stim", "word": "cobra", "stimulus": "<p id=\"stim\">COBRA</p>", "conditions": [18, 1200, "v", 18000], "internal_node_id": "0.0-41.0", "trial": 1, "time_elapsed": 358025, "serialpos": 4, "key_press": -1, "wordID": 335, "type": "PRES_VIS", "trial_index": 59}, "uniqueid": "MTK3267:3LKC68YZ3BAIRBEG4QU0TRPR9VZOWK", "dateTime": 1520285380510}, {"current_trial": 60, "trialdata": {"rt": -1, "trial_type": "single-stim", "word": "notebook", "stimulus": "<p id=\"stim\">NOTEBOOK</p>", "conditions": [18, 1200, "v", 18000], "internal_node_id": "0.0-42.0", "trial": 1, "time_elapsed": 360235, "serialpos": 5, "key_press": -1, "wordID": 958, "type": "PRES_VIS", "trial_index": 60}, "uniqueid": "MTK3267:3LKC68YZ3BAIRBEG4QU0TRPR9VZOWK", "dateTime": 1520285382720}, {"current_trial": 61, "trialdata": {"rt": -1, "trial_type": "single-stim", "word": "dentist", "stimulus": "<p id=\"stim\">DENTIST</p>", "conditions": [18, 1200, "v", 18000], "internal_node_id": "0.0-43.0", "trial": 1, "time_elapsed": 362349, "serialpos": 6, "key_press": -1, "wordID": 446, "type": "PRES_VIS", "trial_index": 61}, "uniqueid": "MTK3267:3LKC68YZ3BAIRBEG4QU0TRPR9VZOWK", "dateTime": 1520285384834}, {"current_trial": 62, "trialdata": {"rt": -1, "trial_type": "single-stim", "word": "package", "stimulus": "<p id=\"stim\">PACKAGE</p>", "conditions": [18, 1200, "v", 18000], "internal_node_id": "0.0-44.0", "trial": 1, "time_elapsed": 364521, "serialpos": 7, "key_press": -1, "wordID": 996, "type": "PRES_VIS", "trial_index": 62}, "uniqueid": "MTK3267:3LKC68YZ3BAIRBEG4QU0TRPR9VZOWK", "dateTime": 1520285387006}, {"current_trial": 63, "trialdata": {"rt": -1, "trial_type": "single-stim", "word": "dustpan", "stimulus": "<p id=\"stim\">DUSTPAN</p>", "conditions": [18, 1200, "v", 18000], "internal_node_id": "0.0-45.0", "trial": 1, "time_elapsed": 366763, "serialpos": 8, "key_press": -1, "wordID": 508, "type": "PRES_VIS", "trial_index": 63}, "uniqueid": "MTK3267:3LKC68YZ3BAIRBEG4QU0TRPR9VZOWK", "dateTime": 1520285389249}, {"current_trial": 64, "trialdata": {"rt": -1, "trial_type": "single-stim", "word": "fruit", "stimulus": "<p id=\"stim\">FRUIT</p>", "conditions": [18, 1200, "v", 18000], "internal_node_id": "0.0-46.0", "trial": 1, "time_elapsed": 369100, "serialpos": 9, "key_press": -1, "wordID": 609, "type": "PRES_VIS", "trial_index": 64}, "uniqueid": "MTK3267:3LKC68YZ3BAIRBEG4QU0TRPR9VZOWK", "dateTime": 1520285391586}, {"current_trial": 65, "trialdata": {"rt": -1, "trial_type": "single-stim", "word": "teacher", "stimulus": "<p id=\"stim\">TEACHER</p>", "conditions": [18, 1200, "v", 18000], "internal_node_id": "0.0-47.0", "trial": 1, "time_elapsed": 371508, "serialpos": 10, "key_press": -1, "wordID": 1439, "type": "PRES_VIS", "trial_index": 65}, "uniqueid": "MTK3267:3LKC68YZ3BAIRBEG4QU0TRPR9VZOWK", "dateTime": 1520285393993}, {"current_trial": 66, "trialdata": {"rt": -1, "trial_type": "single-stim", "word": "lily", "stimulus": "<p id=\"stim\">LILY</p>", "conditions": [18, 1200, "v", 18000], "internal_node_id": "0.0-48.0", "trial": 1, "time_elapsed": 373613, "serialpos": 11, "key_press": -1, "wordID": 820, "type": "PRES_VIS", "trial_index": 66}, "uniqueid": "MTK3267:3LKC68YZ3BAIRBEG4QU0TRPR9VZOWK", "dateTime": 1520285396099}, {"current_trial": 67, "trialdata": {"rt": -1, "trial_type": "single-stim", "word": "country", "stimulus": "<p id=\"stim\">COUNTRY</p>", "conditions": [18, 1200, "v", 18000], "internal_node_id": "0.0-49.0", "trial": 1, "time_elapsed": 376016, "serialpos": 12, "key_press": -1, "wordID": 387, "type": "PRES_VIS", "trial_index": 67}, "uniqueid": "MTK3267:3LKC68YZ3BAIRBEG4QU0TRPR9VZOWK", "dateTime": 1520285398502}, {"current_trial": 68, "trialdata": {"rt": -1, "trial_type": "single-stim", "word": "jungle", "stimulus": "<p id=\"stim\">JUNGLE</p>", "conditions": [18, 1200, "v", 18000], "internal_node_id": "0.0-50.0", "trial": 1, "time_elapsed": 378393, "serialpos": 13, "key_press": -1, "wordID": 763, "type": "PRES_VIS", "trial_index": 68}, "uniqueid": "MTK3267:3LKC68YZ3BAIRBEG4QU0TRPR9VZOWK", "dateTime": 1520285400878}, {"current_trial": 69, "trialdata": {"rt": -1, "trial_type": "single-stim", "word": "bacon", "stimulus": "<p id=\"stim\">BACON</p>", "conditions": [18, 1200, "v", 18000], "internal_node_id": "0.0-51.0", "trial": 1, "time_elapsed": 380429, "serialpos": 14, "key_press": -1, "wordID": 66, "type": "PRES_VIS", "trial_index": 69}, "uniqueid": "MTK3267:3LKC68YZ3BAIRBEG4QU0TRPR9VZOWK", "dateTime": 1520285402915}, {"current_trial": 70, "trialdata": {"rt": -1, "trial_type": "single-stim", "word": "hood", "stimulus": "<p id=\"stim\">HOOD</p>", "conditions": [18, 1200, "v", 18000], "internal_node_id": "0.0-52.0", "trial": 1, "time_elapsed": 382578, "serialpos": 15, "key_press": -1, "wordID": 713, "type": "PRES_VIS", "trial_index": 70}, "uniqueid": "MTK3267:3LKC68YZ3BAIRBEG4QU0TRPR9VZOWK", "dateTime": 1520285405063}, {"current_trial": 71, "trialdata": {"rt": -1, "trial_type": "single-stim", "word": "actor", "stimulus": "<p id=\"stim\">ACTOR</p>", "conditions": [18, 1200, "v", 18000], "internal_node_id": "0.0-53.0", "trial": 1, "time_elapsed": 384709, "serialpos": 16, "key_press": -1, "wordID": 4, "type": "PRES_VIS", "trial_index": 71}, "uniqueid": "MTK3267:3LKC68YZ3BAIRBEG4QU0TRPR9VZOWK", "dateTime": 1520285407194}, {"current_trial": 72, "trialdata": {"rt": -1, "trial_type": "single-stim", "word": "drug", "stimulus": "<p id=\"stim\">DRUG</p>", "conditions": [18, 1200, "v", 18000], "internal_node_id": "0.0-54.0", "trial": 1, "time_elapsed": 386739, "serialpos": 17, "key_press": -1, "wordID": 500, "type": "PRES_VIS", "trial_index": 72}, "uniqueid": "MTK3267:3LKC68YZ3BAIRBEG4QU0TRPR9VZOWK", "dateTime": 1520285409224}, {"current_trial": 73, "trialdata": {"rt": -1, "trial_type": "single-stim", "stimulus": "", "internal_node_id": "0.0-55.0-0.0", "time_elapsed": 389200, "key_press": -1, "type": "PRE_RECALL_DELAY", "trial_index": 73}, "uniqueid": "MTK3267:3LKC68YZ3BAIRBEG4QU0TRPR9VZOWK", "dateTime": 1520285411685}, {"current_trial": 74, "trialdata": {"rt": -1000, "trial_type": "single-audio", "stimulus": "/static/audio/400Hz.wav", "internal_node_id": "0.0-56.0", "time_elapsed": 389714, "key_press": -1, "type": "PRE_RECALL_ALERT", "trial_index": 74}, "uniqueid": "MTK3267:3LKC68YZ3BAIRBEG4QU0TRPR9VZOWK", "dateTime": 1520285412199}, {"current_trial": 75, "trialdata": {"rt": [2106, 7364, 9149, 10796, 12907, 16663, 21878, 24067], "recwords": ["drug", "lily", "teacher", "dentist", "package", "bacon", "football", "concert"], "key_times": [1099, 1320, 1554, 1737, 2106, 3500, 3702, 3917, 4123, 4294, 4472, 4818, 5180, 5384, 6398, 6635, 6828, 7059, 7364, 7814, 7929, 8112, 8344, 8465, 8641, 8803, 9149, 9339, 9515, 9641, 9746, 9824, 10041, 10177, 10796, 11216, 11410, 11657, 11921, 12151, 12309, 12471, 12907, 15018, 15251, 15558, 15686, 15874, 16663, 20345, 20509, 20665, 20797, 20981, 21246, 21402, 21539, 21878, 22294, 22421, 22635, 22842, 23061, 23233, 23417, 24067], "trial_type": "free-recall", "conditions": [18, 1200, "v", 18000], "internal_node_id": "0.0-57.0-0.0", "key_presses": [68, 82, 85, 71, 13, 182, 182, 182, 182, 182, 182, 182, 182, 182, 76, 73, 76, 89, 13, 84, 69, 65, 67, 72, 69, 82, 13, 68, 69, 78, 84, 73, 83, 84, 13, 80, 65, 67, 75, 65, 71, 69, 13, 66, 65, 67, 79, 78, 13, 70, 79, 79, 84, 66, 65, 76, 76, 13, 67, 79, 78, 67, 69, 82, 84, 13], "trial": 1, "time_elapsed": 449722, "type": "FREE_RECALL", "trial_index": 75}, "uniqueid": "MTK3267:3LKC68YZ3BAIRBEG4QU0TRPR9VZOWK", "dateTime": 1520285472214}, {"current_trial": 76, "trialdata": {"rt": 2413, "trial_type": "text", "internal_node_id": "0.0-58.0", "time_elapsed": 454144, "key_press": 32, "type": "INSTRUCTIONS", "trial_index": 76}, "uniqueid": "MTK3267:3LKC68YZ3BAIRBEG4QU0TRPR9VZOWK", "dateTime": 1520285476630}, {"current_trial": 77, "trialdata": {"rt": [2814, 5664, 7362, 10398, 13681, 15293, 17337, 19808, 22754], "trial_type": "math-distractor", "key_times": [2311, 2448, 2814, 5172, 5330, 5664, 6907, 7057, 7362, 9941, 10137, 10398, 13104, 13343, 13681, 14936, 15293, 16762, 17025, 17337, 18978, 19444, 19808, 21925, 22217, 22754], "responses": ["15", "19", "15", "21", "18", "9", "17", "13", "16"], "num2": [5, 7, 7, 9, 5, 4, 6, 6, 4, 1], "num3": [7, 8, 1, 8, 7, 4, 5, 1, 9, 5], "conditions": [12, 800, "v", 24000], "internal_node_id": "0.0-59.0", "key_presses": [97, 101, 13, 97, 105, 13, 97, 101, 13, 98, 97, 13, 97, 104, 13, 105, 13, 97, 103, 13, 97, 99, 13, 97, 102, 13], "trial": 2, "time_elapsed": 479174, "type": "DISTRACTOR", "trial_index": 77, "num1": [3, 4, 7, 4, 6, 1, 6, 6, 3, 8]}, "uniqueid": "MTK3267:3LKC68YZ3BAIRBEG4QU0TRPR9VZOWK", "dateTime": 1520285501659}, {"current_trial": 78, "trialdata": {"rt": -1, "trial_type": "single-stim", "stimulus": "<p id=\"stim\">10</p>", "internal_node_id": "0.0-60.0-0.0", "time_elapsed": 482185, "key_press": -1, "trial_index": 78}, "uniqueid": "MTK3267:3LKC68YZ3BAIRBEG4QU0TRPR9VZOWK", "dateTime": 1520285504671}, {"current_trial": 79, "trialdata": {"rt": -1, "trial_type": "single-stim", "stimulus": "<p id=\"stim\">9</p>", "internal_node_id": "0.0-60.0-1.0", "time_elapsed": 483193, "key_press": -1, "trial_index": 79}, "uniqueid": "MTK3267:3LKC68YZ3BAIRBEG4QU0TRPR9VZOWK", "dateTime": 1520285505678}, {"current_trial": 80, "trialdata": {"rt": -1, "trial_type": "single-stim", "stimulus": "<p id=\"stim\">8</p>", "internal_node_id": "0.0-60.0-2.0", "time_elapsed": 484204, "key_press": -1, "trial_index": 80}, "uniqueid": "MTK3267:3LKC68YZ3BAIRBEG4QU0TRPR9VZOWK", "dateTime": 1520285506689}, {"current_trial": 81, "trialdata": {"rt": -1, "trial_type": "single-stim", "stimulus": "<p id=\"stim\">7</p>", "internal_node_id": "0.0-60.0-3.0", "time_elapsed": 485207, "key_press": -1, "trial_index": 81}, "uniqueid": "MTK3267:3LKC68YZ3BAIRBEG4QU0TRPR9VZOWK", "dateTime": 1520285507692}, {"current_trial": 82, "trialdata": {"rt": -1, "trial_type": "single-stim", "stimulus": "<p id=\"stim\">6</p>", "internal_node_id": "0.0-60.0-4.0", "time_elapsed": 486211, "key_press": -1, "trial_index": 82}, "uniqueid": "MTK3267:3LKC68YZ3BAIRBEG4QU0TRPR9VZOWK", "dateTime": 1520285508696}, {"current_trial": 83, "trialdata": {"rt": -1, "trial_type": "single-stim", "stimulus": "<p id=\"stim\">5</p>", "internal_node_id": "0.0-60.0-5.0", "time_elapsed": 487212, "key_press": -1, "trial_index": 83}, "uniqueid": "MTK3267:3LKC68YZ3BAIRBEG4QU0TRPR9VZOWK", "dateTime": 1520285509698}, {"current_trial": 84, "trialdata": {"rt": -1, "trial_type": "single-stim", "stimulus": "<p id=\"stim\">4</p>", "internal_node_id": "0.0-60.0-6.0", "time_elapsed": 488220, "key_press": -1, "trial_index": 84}, "uniqueid": "MTK3267:3LKC68YZ3BAIRBEG4QU0TRPR9VZOWK", "dateTime": 1520285510705}, {"current_trial": 85, "trialdata": {"rt": -1, "trial_type": "single-stim", "stimulus": "<p id=\"stim\">3</p>", "internal_node_id": "0.0-60.0-7.0", "time_elapsed": 489236, "key_press": -1, "trial_index": 85}, "uniqueid": "MTK3267:3LKC68YZ3BAIRBEG4QU0TRPR9VZOWK", "dateTime": 1520285511721}, {"current_trial": 86, "trialdata": {"rt": -1, "trial_type": "single-stim", "stimulus": "<p id=\"stim\">2</p>", "internal_node_id": "0.0-60.0-8.0", "time_elapsed": 490238, "key_press": -1, "trial_index": 86}, "uniqueid": "MTK3267:3LKC68YZ3BAIRBEG4QU0TRPR9VZOWK", "dateTime": 1520285512724}, {"current_trial": 87, "trialdata": {"rt": -1, "trial_type": "single-stim", "stimulus": "<p id=\"stim\">1</p>", "internal_node_id": "0.0-60.0-9.0", "time_elapsed": 491240, "key_press": -1, "trial_index": 87}, "uniqueid": "MTK3267:3LKC68YZ3BAIRBEG4QU0TRPR9VZOWK", "dateTime": 1520285513726}, {"current_trial": 88, "trialdata": {"rt": -1, "trial_type": "single-stim", "stimulus": "<p id=\"stim\">+</p>", "internal_node_id": "0.0-61.0-0.0", "time_elapsed": 492745, "key_press": -1, "type": "FIXATION", "trial_index": 88}, "uniqueid": "MTK3267:3LKC68YZ3BAIRBEG4QU0TRPR9VZOWK", "dateTime": 1520285515230}, {"current_trial": 89, "trialdata": {"rt": -1, "trial_type": "single-stim", "word": "honey", "stimulus": "<p id=\"stim\">HONEY</p>", "conditions": [12, 800, "v", 24000], "internal_node_id": "0.0-62.0", "trial": 2, "time_elapsed": 493549, "serialpos": 0, "key_press": -1, "wordID": 712, "type": "PRES_VIS", "trial_index": 89}, "uniqueid": "MTK3267:3LKC68YZ3BAIRBEG4QU0TRPR9VZOWK", "dateTime": 1520285516034}, {"current_trial": 90, "trialdata": {"rt": -1, "trial_type": "single-stim", "word": "leg", "stimulus": "<p id=\"stim\">LEG</p>", "conditions": [12, 800, "v", 24000], "internal_node_id": "0.0-63.0", "trial": 2, "time_elapsed": 495344, "serialpos": 1, "key_press": -1, "wordID": 808, "type": "PRES_VIS", "trial_index": 90}, "uniqueid": "MTK3267:3LKC68YZ3BAIRBEG4QU0TRPR9VZOWK", "dateTime": 1520285517830}, {"current_trial": 91, "trialdata": {"rt": -1, "trial_type": "single-stim", "word": "mister", "stimulus": "<p id=\"stim\">MISTER</p>", "conditions": [12, 800, "v", 24000], "internal_node_id": "0.0-64.0", "trial": 2, "time_elapsed": 497032, "serialpos": 2, "key_press": -1, "wordID": 900, "type": "PRES_VIS", "trial_index": 91}, "uniqueid": "MTK3267:3LKC68YZ3BAIRBEG4QU0TRPR9VZOWK", "dateTime": 1520285519518}, {"current_trial": 92, "trialdata": {"rt": -1, "trial_type": "single-stim", "word": "drink", "stimulus": "<p id=\"stim\">DRINK</p>", "conditions": [12, 800, "v", 24000], "internal_node_id": "0.0-65.0", "trial": 2, "time_elapsed": 498699, "serialpos": 3, "key_press": -1, "wordID": 497, "type": "PRES_VIS", "trial_index": 92}, "uniqueid": "MTK3267:3LKC68YZ3BAIRBEG4QU0TRPR9VZOWK", "dateTime": 1520285521185}, {"current_trial": 93, "trialdata": {"rt": -1, "trial_type": "single-stim", "word": "oyster", "stimulus": "<p id=\"stim\">OYSTER</p>", "conditions": [12, 800, "v", 24000], "internal_node_id": "0.0-66.0", "trial": 2, "time_elapsed": 500343, "serialpos": 4, "key_press": -1, "wordID": 994, "type": "PRES_VIS", "trial_index": 93}, "uniqueid": "MTK3267:3LKC68YZ3BAIRBEG4QU0TRPR9VZOWK", "dateTime": 1520285522828}, {"current_trial": 94, "trialdata": {"rt": -1, "trial_type": "single-stim", "word": "spool", "stimulus": "<p id=\"stim\">SPOOL</p>", "conditions": [12, 800, "v", 24000], "internal_node_id": "0.0-67.0", "trial": 2, "time_elapsed": 502053, "serialpos": 5, "key_press": -1, "wordID": 1355, "type": "PRES_VIS", "trial_index": 94}, "uniqueid": "MTK3267:3LKC68YZ3BAIRBEG4QU0TRPR9VZOWK", "dateTime": 1520285524538}, {"current_trial": 95, "trialdata": {"rt": -1, "trial_type": "single-stim", "word": "twister", "stimulus": "<p id=\"stim\">TWISTER</p>", "conditions": [12, 800, "v", 24000], "internal_node_id": "0.0-68.0", "trial": 2, "time_elapsed": 504041, "serialpos": 6, "key_press": -1, "wordID": 1529, "type": "PRES_VIS", "trial_index": 95}, "uniqueid": "MTK3267:3LKC68YZ3BAIRBEG4QU0TRPR9VZOWK", "dateTime": 1520285526526}, {"current_trial": 96, "trialdata": {"rt": -1, "trial_type": "single-stim", "word": "costume", "stimulus": "<p id=\"stim\">COSTUME</p>", "conditions": [12, 800, "v", 24000], "internal_node_id": "0.0-69.0", "trial": 2, "time_elapsed": 505705, "serialpos": 7, "key_press": -1, "wordID": 382, "type": "PRES_VIS", "trial_index": 96}, "uniqueid": "MTK3267:3LKC68YZ3BAIRBEG4QU0TRPR9VZOWK", "dateTime": 1520285528191}, {"current_trial": 97, "trialdata": {"rt": -1, "trial_type": "single-stim", "word": "wardrobe", "stimulus": "<p id=\"stim\">WARDROBE</p>", "conditions": [12, 800, "v", 24000], "internal_node_id": "0.0-70.0", "trial": 2, "time_elapsed": 507688, "serialpos": 8, "key_press": -1, "wordID": 1586, "type": "PRES_VIS", "trial_index": 97}, "uniqueid": "MTK3267:3LKC68YZ3BAIRBEG4QU0TRPR9VZOWK", "dateTime": 1520285530173}, {"current_trial": 98, "trialdata": {"rt": -1, "trial_type": "single-stim", "word": "cattle", "stimulus": "<p id=\"stim\">CATTLE</p>", "conditions": [12, 800, "v", 24000], "internal_node_id": "0.0-71.0", "trial": 2, "time_elapsed": 509365, "serialpos": 9, "key_press": -1, "wordID": 260, "type": "PRES_VIS", "trial_index": 98}, "uniqueid": "MTK3267:3LKC68YZ3BAIRBEG4QU0TRPR9VZOWK", "dateTime": 1520285531850}, {"current_trial": 99, "trialdata": {"rt": -1, "trial_type": "single-stim", "word": "ankle", "stimulus": "<p id=\"stim\">ANKLE</p>", "conditions": [12, 800, "v", 24000], "internal_node_id": "0.0-72.0", "trial": 2, "time_elapsed": 511258, "serialpos": 10, "key_press": -1, "wordID": 23, "type": "PRES_VIS", "trial_index": 99}, "uniqueid": "MTK3267:3LKC68YZ3BAIRBEG4QU0TRPR9VZOWK", "dateTime": 1520285533743}, {"current_trial": 100, "trialdata": {"rt": -1, "trial_type": "single-stim", "word": "blackboard", "stimulus": "<p id=\"stim\">BLACKBOARD</p>", "conditions": [12, 800, "v", 24000], "internal_node_id": "0.0-73.0", "trial": 2, "time_elapsed": 513020, "serialpos": 11, "key_press": -1, "wordID": 132, "type": "PRES_VIS", "trial_index": 100}, "uniqueid": "MTK3267:3LKC68YZ3BAIRBEG4QU0TRPR9VZOWK", "dateTime": 1520285535505}, {"current_trial": 101, "trialdata": {"rt": -1, "trial_type": "single-stim", "stimulus": "", "internal_node_id": "0.0-74.0-0.0", "time_elapsed": 515172, "key_press": -1, "type": "PRE_RECALL_DELAY", "trial_index": 101}, "uniqueid": "MTK3267:3LKC68YZ3BAIRBEG4QU0TRPR9VZOWK", "dateTime": 1520285537657}, {"current_trial": 102, "trialdata": {"rt": -1000, "trial_type": "single-audio", "stimulus": "/static/audio/400Hz.wav", "internal_node_id": "0.0-75.0", "time_elapsed": 515683, "key_press": -1, "type": "PRE_RECALL_ALERT", "trial_index": 102}, "uniqueid": "MTK3267:3LKC68YZ3BAIRBEG4QU0TRPR9VZOWK", "dateTime": 1520285538168}, {"current_trial": 103, "trialdata": {"rt": [5712, 9166, 13751, 29699, 34535, 42430], "recwords": ["costume", "spool", "ankle", "hone", "honey", "drink"], "key_times": [3887, 4146, 4330, 4675, 4843, 5094, 5271, 5712, 7836, 8008, 8241, 8383, 8599, 9166, 12449, 12576, 12765, 13049, 13263, 13751, 28191, 28419, 28655, 28854, 29699, 33033, 33264, 33505, 33724, 33882, 34535, 40853, 41102, 41312, 41519, 41675, 42430], "trial_type": "free-recall", "conditions": [12, 800, "v", 24000], "internal_node_id": "0.0-76.0-0.0", "key_presses": [67, 79, 83, 84, 85, 77, 69, 13, 83, 80, 79, 79, 76, 13, 65, 78, 75, 76, 69, 13, 72, 79, 78, 69, 13, 72, 79, 78, 69, 89, 13, 68, 82, 73, 78, 75, 13], "trial": 2, "time_elapsed": 575704, "type": "FREE_RECALL", "trial_index": 103}, "uniqueid": "MTK3267:3LKC68YZ3BAIRBEG4QU0TRPR9VZOWK", "dateTime": 1520285598197}, {"current_trial": 104, "trialdata": {"rt": 1835, "trial_type": "text", "internal_node_id": "0.0-77.0", "time_elapsed": 579553, "key_press": 32, "type": "INSTRUCTIONS", "trial_index": 104}, "uniqueid": "MTK3267:3LKC68YZ3BAIRBEG4QU0TRPR9VZOWK", "dateTime": 1520285602039}, {"current_trial": 105, "trialdata": {"rt": [3035, 7415, 11125, 13916, 16214, 19818, 23024], "trial_type": "math-distractor", "key_times": [2577, 2771, 3035, 6919, 7147, 7415, 10555, 10739, 11125, 13184, 13546, 13916, 15497, 16214, 19213, 19516, 19818, 22620, 22801, 23024], "responses": ["21", "12", "22", "13", "9", "16", "11"], "num2": [7, 2, 5, 2, 6, 1, 2, 8], "num3": [6, 8, 8, 4, 2, 8, 4, 3], "conditions": [24, 1600, "v", 24000], "internal_node_id": "0.0-78.0", "key_presses": [98, 97, 13, 97, 98, 13, 98, 98, 13, 97, 99, 13, 105, 13, 97, 102, 13, 97, 97, 13], "trial": 3, "time_elapsed": 605583, "type": "DISTRACTOR", "trial_index": 105, "num1": [8, 2, 9, 7, 1, 7, 5, 1]}, "uniqueid": "MTK3267:3LKC68YZ3BAIRBEG4QU0TRPR9VZOWK", "dateTime": 1520285628068}, {"current_trial": 106, "trialdata": {"rt": -1, "trial_type": "single-stim", "stimulus": "<p id=\"stim\">10</p>", "internal_node_id": "0.0-79.0-0.0", "time_elapsed": 608595, "key_press": -1, "trial_index": 106}, "uniqueid": "MTK3267:3LKC68YZ3BAIRBEG4QU0TRPR9VZOWK", "dateTime": 1520285631080}, {"current_trial": 107, "trialdata": {"rt": -1, "trial_type": "single-stim", "stimulus": "<p id=\"stim\">9</p>", "internal_node_id": "0.0-79.0-1.0", "time_elapsed": 609604, "key_press": -1, "trial_index": 107}, "uniqueid": "MTK3267:3LKC68YZ3BAIRBEG4QU0TRPR9VZOWK", "dateTime": 1520285632089}, {"current_trial": 108, "trialdata": {"rt": -1, "trial_type": "single-stim", "stimulus": "<p id=\"stim\">8</p>", "internal_node_id": "0.0-79.0-2.0", "time_elapsed": 610618, "key_press": -1, "trial_index": 108}, "uniqueid": "MTK3267:3LKC68YZ3BAIRBEG4QU0TRPR9VZOWK", "dateTime": 1520285633103}, {"current_trial": 109, "trialdata": {"rt": -1, "trial_type": "single-stim", "stimulus": "<p id=\"stim\">7</p>", "internal_node_id": "0.0-79.0-3.0", "time_elapsed": 611620, "key_press": -1, "trial_index": 109}, "uniqueid": "MTK3267:3LKC68YZ3BAIRBEG4QU0TRPR9VZOWK", "dateTime": 1520285634106}, {"current_trial": 110, "trialdata": {"rt": -1, "trial_type": "single-stim", "stimulus": "<p id=\"stim\">6</p>", "internal_node_id": "0.0-79.0-4.0", "time_elapsed": 612633, "key_press": -1, "trial_index": 110}, "uniqueid": "MTK3267:3LKC68YZ3BAIRBEG4QU0TRPR9VZOWK", "dateTime": 1520285635119}, {"current_trial": 111, "trialdata": {"rt": -1, "trial_type": "single-stim", "stimulus": "<p id=\"stim\">5</p>", "internal_node_id": "0.0-79.0-5.0", "time_elapsed": 613640, "key_press": -1, "trial_index": 111}, "uniqueid": "MTK3267:3LKC68YZ3BAIRBEG4QU0TRPR9VZOWK", "dateTime": 1520285636126}, {"current_trial": 112, "trialdata": {"rt": -1, "trial_type": "single-stim", "stimulus": "<p id=\"stim\">4</p>", "internal_node_id": "0.0-79.0-6.0", "time_elapsed": 614657, "key_press": -1, "trial_index": 112}, "uniqueid": "MTK3267:3LKC68YZ3BAIRBEG4QU0TRPR9VZOWK", "dateTime": 1520285637142}, {"current_trial": 113, "trialdata": {"rt": -1, "trial_type": "single-stim", "stimulus": "<p id=\"stim\">3</p>", "internal_node_id": "0.0-79.0-7.0", "time_elapsed": 615674, "key_press": -1, "trial_index": 113}, "uniqueid": "MTK3267:3LKC68YZ3BAIRBEG4QU0TRPR9VZOWK", "dateTime": 1520285638159}, {"current_trial": 114, "trialdata": {"rt": -1, "trial_type": "single-stim", "stimulus": "<p id=\"stim\">2</p>", "internal_node_id": "0.0-79.0-8.0", "time_elapsed": 616684, "key_press": -1, "trial_index": 114}, "uniqueid": "MTK3267:3LKC68YZ3BAIRBEG4QU0TRPR9VZOWK", "dateTime": 1520285639169}, {"current_trial": 115, "trialdata": {"rt": -1, "trial_type": "single-stim", "stimulus": "<p id=\"stim\">1</p>", "internal_node_id": "0.0-79.0-9.0", "time_elapsed": 617694, "key_press": -1, "trial_index": 115}, "uniqueid": "MTK3267:3LKC68YZ3BAIRBEG4QU0TRPR9VZOWK", "dateTime": 1520285640179}, {"current_trial": 116, "trialdata": {"rt": -1, "trial_type": "single-stim", "stimulus": "<p id=\"stim\">+</p>", "internal_node_id": "0.0-80.0-0.0", "time_elapsed": 619200, "key_press": -1, "type": "FIXATION", "trial_index": 116}, "uniqueid": "MTK3267:3LKC68YZ3BAIRBEG4QU0TRPR9VZOWK", "dateTime": 1520285641686}, {"current_trial": 117, "trialdata": {"rt": -1, "trial_type": "single-stim", "word": "college", "stimulus": "<p id=\"stim\">COLLEGE</p>", "conditions": [24, 1600, "v", 24000], "internal_node_id": "0.0-81.0", "trial": 3, "time_elapsed": 620802, "serialpos": 0, "key_press": -1, "wordID": 345, "type": "PRES_VIS", "trial_index": 117}, "uniqueid": "MTK3267:3LKC68YZ3BAIRBEG4QU0TRPR9VZOWK", "dateTime": 1520285643288}, {"current_trial": 118, "trialdata": {"rt": -1, "trial_type": "single-stim", "word": "island", "stimulus": "<p id=\"stim\">ISLAND</p>", "conditions": [24, 1600, "v", 24000], "internal_node_id": "0.0-82.0", "trial": 3, "time_elapsed": 623593, "serialpos": 1, "key_press": -1, "wordID": 744, "type": "PRES_VIS", "trial_index": 118}, "uniqueid": "MTK3267:3LKC68YZ3BAIRBEG4QU0TRPR9VZOWK", "dateTime": 1520285646079}, {"current_trial": 119, "trialdata": {"rt": -1, "trial_type": "single-stim", "word": "doughnut", "stimulus": "<p id=\"stim\">DOUGHNUT</p>", "conditions": [24, 1600, "v", 24000], "internal_node_id": "0.0-83.0", "trial": 3, "time_elapsed": 626411, "serialpos": 2, "key_press": -1, "wordID": 489, "type": "PRES_VIS", "trial_index": 119}, "uniqueid": "MTK3267:3LKC68YZ3BAIRBEG4QU0TRPR9VZOWK", "dateTime": 1520285648896}, {"current_trial": 120, "trialdata": {"rt": -1, "trial_type": "single-stim", "word": "husband", "stimulus": "<p id=\"stim\">HUSBAND</p>", "conditions": [24, 1600, "v", 24000], "internal_node_id": "0.0-84.0", "trial": 3, "time_elapsed": 629028, "serialpos": 3, "key_press": -1, "wordID": 727, "type": "PRES_VIS", "trial_index": 120}, "uniqueid": "MTK3267:3LKC68YZ3BAIRBEG4QU0TRPR9VZOWK", "dateTime": 1520285651513}, {"current_trial": 121, "trialdata": {"rt": -1, "trial_type": "single-stim", "word": "uncle", "stimulus": "<p id=\"stim\">UNCLE</p>", "conditions": [24, 1600, "v", 24000], "internal_node_id": "0.0-85.0", "trial": 3, "time_elapsed": 631784, "serialpos": 4, "key_press": -1, "wordID": 1535, "type": "PRES_VIS", "trial_index": 121}, "uniqueid": "MTK3267:3LKC68YZ3BAIRBEG4QU0TRPR9VZOWK", "dateTime": 1520285654269}, {"current_trial": 122, "trialdata": {"rt": -1, "trial_type": "single-stim", "word": "marsh", "stimulus": "<p id=\"stim\">MARSH</p>", "conditions": [24, 1600, "v", 24000], "internal_node_id": "0.0-86.0", "trial": 3, "time_elapsed": 634355, "serialpos": 5, "key_press": -1, "wordID": 873, "type": "PRES_VIS", "trial_index": 122}, "uniqueid": "MTK3267:3LKC68YZ3BAIRBEG4QU0TRPR9VZOWK", "dateTime": 1520285656840}, {"current_trial": 123, "trialdata": {"rt": -1, "trial_type": "single-stim", "word": "student", "stimulus": "<p id=\"stim\">STUDENT</p>", "conditions": [24, 1600, "v", 24000], "internal_node_id": "0.0-87.0", "trial": 3, "time_elapsed": 637014, "serialpos": 6, "key_press": -1, "wordID": 1394, "type": "PRES_VIS", "trial_index": 123}, "uniqueid": "MTK3267:3LKC68YZ3BAIRBEG4QU0TRPR9VZOWK", "dateTime": 1520285659499}, {"current_trial": 124, "trialdata": {"rt": -1, "trial_type": "single-stim", "word": "foot", "stimulus": "<p id=\"stim\">FOOT</p>", "conditions": [24, 1600, "v", 24000], "internal_node_id": "0.0-88.0", "trial": 3, "time_elapsed": 639773, "serialpos": 7, "key_press": -1, "wordID": 589, "type": "PRES_VIS", "trial_index": 124}, "uniqueid": "MTK3267:3LKC68YZ3BAIRBEG4QU0TRPR9VZOWK", "dateTime": 1520285662258}, {"current_trial": 125, "trialdata": {"rt": -1, "trial_type": "single-stim", "word": "motel", "stimulus": "<p id=\"stim\">MOTEL</p>", "conditions": [24, 1600, "v", 24000], "internal_node_id": "0.0-89.0", "trial": 3, "time_elapsed": 642213, "serialpos": 8, "key_press": -1, "wordID": 918, "type": "PRES_VIS", "trial_index": 125}, "uniqueid": "MTK3267:3LKC68YZ3BAIRBEG4QU0TRPR9VZOWK", "dateTime": 1520285664699}, {"current_trial": 126, "trialdata": {"rt": -1, "trial_type": "single-stim", "word": "crab", "stimulus": "<p id=\"stim\">CRAB</p>", "conditions": [24, 1600, "v", 24000], "internal_node_id": "0.0-90.0", "trial": 3, "time_elapsed": 644638, "serialpos": 9, "key_press": -1, "wordID": 396, "type": "PRES_VIS", "trial_index": 126}, "uniqueid": "MTK3267:3LKC68YZ3BAIRBEG4QU0TRPR9VZOWK", "dateTime": 1520285667124}, {"current_trial": 127, "trialdata": {"rt": -1, "trial_type": "single-stim", "word": "shortcake", "stimulus": "<p id=\"stim\">SHORTCAKE</p>", "conditions": [24, 1600, "v", 24000], "internal_node_id": "0.0-91.0", "trial": 3, "time_elapsed": 647132, "serialpos": 10, "key_press": -1, "wordID": 1291, "type": "PRES_VIS", "trial_index": 127}, "uniqueid": "MTK3267:3LKC68YZ3BAIRBEG4QU0TRPR9VZOWK", "dateTime": 1520285669618}, {"current_trial": 128, "trialdata": {"rt": -1, "trial_type": "single-stim", "word": "finger", "stimulus": "<p id=\"stim\">FINGER</p>", "conditions": [24, 1600, "v", 24000], "internal_node_id": "0.0-92.0", "trial": 3, "time_elapsed": 649581, "serialpos": 11, "key_press": -1, "wordID": 566, "type": "PRES_VIS", "trial_index": 128}, "uniqueid": "MTK3267:3LKC68YZ3BAIRBEG4QU0TRPR9VZOWK", "dateTime": 1520285672067}, {"current_trial": 129, "trialdata": {"rt": -1, "trial_type": "single-stim", "word": "victim", "stimulus": "<p id=\"stim\">VICTIM</p>", "conditions": [24, 1600, "v", 24000], "internal_node_id": "0.0-93.0", "trial": 3, "time_elapsed": 652226, "serialpos": 12, "key_press": -1, "wordID": 1561, "type": "PRES_VIS", "trial_index": 129}, "uniqueid": "MTK3267:3LKC68YZ3BAIRBEG4QU0TRPR9VZOWK", "dateTime": 1520285674712}, {"current_trial": 130, "trialdata": {"rt": -1, "trial_type": "single-stim", "word": "woman", "stimulus": "<p id=\"stim\">WOMAN</p>", "conditions": [24, 1600, "v", 24000], "internal_node_id": "0.0-94.0", "trial": 3, "time_elapsed": 654840, "serialpos": 13, "key_press": -1, "wordID": 1619, "type": "PRES_VIS", "trial_index": 130}, "uniqueid": "MTK3267:3LKC68YZ3BAIRBEG4QU0TRPR9VZOWK", "dateTime": 1520285677325}, {"current_trial": 131, "trialdata": {"rt": -1, "trial_type": "single-stim", "word": "gavel", "stimulus": "<p id=\"stim\">GAVEL</p>", "conditions": [24, 1600, "v", 24000], "internal_node_id": "0.0-95.0", "trial": 3, "time_elapsed": 657417, "serialpos": 14, "key_press": -1, "wordID": 626, "type": "PRES_VIS", "trial_index": 131}, "uniqueid": "MTK3267:3LKC68YZ3BAIRBEG4QU0TRPR9VZOWK", "dateTime": 1520285679902}, {"current_trial": 132, "trialdata": {"rt": -1, "trial_type": "single-stim", "word": "leader", "stimulus": "<p id=\"stim\">LEADER</p>", "conditions": [24, 1600, "v", 24000], "internal_node_id": "0.0-96.0", "trial": 3, "time_elapsed": 659964, "serialpos": 15, "key_press": -1, "wordID": 806, "type": "PRES_VIS", "trial_index": 132}, "uniqueid": "MTK3267:3LKC68YZ3BAIRBEG4QU0TRPR9VZOWK", "dateTime": 1520285682449}, {"current_trial": 133, "trialdata": {"rt": -1, "trial_type": "single-stim", "word": "spider", "stimulus": "<p id=\"stim\">SPIDER</p>", "conditions": [24, 1600, "v", 24000], "internal_node_id": "0.0-97.0", "trial": 3, "time_elapsed": 662384, "serialpos": 16, "key_press": -1, "wordID": 1350, "type": "PRES_VIS", "trial_index": 133}, "uniqueid": "MTK3267:3LKC68YZ3BAIRBEG4QU0TRPR9VZOWK", "dateTime": 1520285684869}, {"current_trial": 134, "trialdata": {"rt": -1, "trial_type": "single-stim", "word": "tortoise", "stimulus": "<p id=\"stim\">TORTOISE</p>", "conditions": [24, 1600, "v", 24000], "internal_node_id": "0.0-98.0", "trial": 3, "time_elapsed": 665113, "serialpos": 17, "key_press": -1, "wordID": 1485, "type": "PRES_VIS", "trial_index": 134}, "uniqueid": "MTK3267:3LKC68YZ3BAIRBEG4QU0TRPR9VZOWK", "dateTime": 1520285687598}, {"current_trial": 135, "trialdata": {"rt": -1, "trial_type": "single-stim", "word": "keeper", "stimulus": "<p id=\"stim\">KEEPER</p>", "conditions": [24, 1600, "v", 24000], "internal_node_id": "0.0-99.0", "trial": 3, "time_elapsed": 667550, "serialpos": 18, "key_press": -1, "wordID": 768, "type": "PRES_VIS", "trial_index": 135}, "uniqueid": "MTK3267:3LKC68YZ3BAIRBEG4QU0TRPR9VZOWK", "dateTime": 1520285690035}, {"current_trial": 136, "trialdata": {"rt": -1, "trial_type": "single-stim", "word": "snake", "stimulus": "<p id=\"stim\">SNAKE</p>", "conditions": [24, 1600, "v", 24000], "internal_node_id": "0.0-100.0", "trial": 3, "time_elapsed": 670349, "serialpos": 19, "key_press": -1, "wordID": 1332, "type": "PRES_VIS", "trial_index": 136}, "uniqueid": "MTK3267:3LKC68YZ3BAIRBEG4QU0TRPR9VZOWK", "dateTime": 1520285692835}, {"current_trial": 137, "trialdata": {"rt": -1, "trial_type": "single-stim", "word": "playground", "stimulus": "<p id=\"stim\">PLAYGROUND</p>", "conditions": [24, 1600, "v", 24000], "internal_node_id": "0.0-101.0", "trial": 3, "time_elapsed": 673130, "serialpos": 20, "key_press": -1, "wordID": 1086, "type": "PRES_VIS", "trial_index": 137}, "uniqueid": "MTK3267:3LKC68YZ3BAIRBEG4QU0TRPR9VZOWK", "dateTime": 1520285695615}, {"current_trial": 138, "trialdata": {"rt": -1, "trial_type": "single-stim", "word": "stallion", "stimulus": "<p id=\"stim\">STALLION</p>", "conditions": [24, 1600, "v", 24000], "internal_node_id": "0.0-102.0", "trial": 3, "time_elapsed": 675898, "serialpos": 21, "key_press": -1, "wordID": 1368, "type": "PRES_VIS", "trial_index": 138}, "uniqueid": "MTK3267:3LKC68YZ3BAIRBEG4QU0TRPR9VZOWK", "dateTime": 1520285698383}, {"current_trial": 139, "trialdata": {"rt": -1, "trial_type": "single-stim", "word": "chipmunk", "stimulus": "<p id=\"stim\">CHIPMUNK</p>", "conditions": [24, 1600, "v", 24000], "internal_node_id": "0.0-103.0", "trial": 3, "time_elapsed": 678353, "serialpos": 22, "key_press": -1, "wordID": 303, "type": "PRES_VIS", "trial_index": 139}, "uniqueid": "MTK3267:3LKC68YZ3BAIRBEG4QU0TRPR9VZOWK", "dateTime": 1520285700839}, {"current_trial": 140, "trialdata": {"rt": -1, "trial_type": "single-stim", "word": "banker", "stimulus": "<p id=\"stim\">BANKER</p>", "conditions": [24, 1600, "v", 24000], "internal_node_id": "0.0-104.0", "trial": 3, "time_elapsed": 681121, "serialpos": 23, "key_press": -1, "wordID": 83, "type": "PRES_VIS", "trial_index": 140}, "uniqueid": "MTK3267:3LKC68YZ3BAIRBEG4QU0TRPR9VZOWK", "dateTime": 1520285703606}, {"current_trial": 141, "trialdata": {"rt": -1, "trial_type": "single-stim", "stimulus": "", "internal_node_id": "0.0-105.0-0.0", "time_elapsed": 683534, "key_press": -1, "type": "PRE_RECALL_DELAY", "trial_index": 141}, "uniqueid": "MTK3267:3LKC68YZ3BAIRBEG4QU0TRPR9VZOWK", "dateTime": 1520285706019}, {"current_trial": 142, "trialdata": {"rt": -1000, "trial_type": "single-audio", "stimulus": "/static/audio/400Hz.wav", "internal_node_id": "0.0-106.0", "time_elapsed": 684042, "key_press": -1, "type": "PRE_RECALL_ALERT", "trial_index": 142}, "uniqueid": "MTK3267:3LKC68YZ3BAIRBEG4QU0TRPR9VZOWK", "dateTime": 1520285706527}, {"current_trial": 143, "trialdata": {"rt": [6554, 8680, 11224, 12998, 14413, 16349, 26314, 29117], "recwords": ["banker", "finger", "husband", "uncle", "woman", "victim", "college", "island"], "key_times": [1525, 1759, 1959, 2138, 2281, 2443, 2575, 2747, 2911, 3096, 4717, 5175, 5304, 5438, 5584, 5718, 5911, 6554, 7119, 7230, 7369, 7608, 7711, 7907, 8680, 9304, 9424, 9598, 9817, 9977, 10129, 10328, 11224, 11656, 11814, 11973, 12149, 12292, 12998, 13374, 13439, 13595, 13736, 13844, 14413, 14794, 14908, 15140, 15375, 15519, 15666, 16349, 24609, 24759, 24981, 25117, 25343, 25590, 25773, 26314, 26698, 26892, 27140, 27331, 27467, 27658, 29117], "trial_type": "free-recall", "conditions": [24, 1600, "v", 24000], "internal_node_id": "0.0-107.0-0.0", "key_presses": [182, 182, 182, 182, 182, 182, 182, 182, 182, 182, 183, 66, 65, 78, 75, 69, 82, 13, 70, 73, 78, 71, 69, 82, 13, 72, 85, 83, 66, 65, 78, 68, 13, 85, 78, 67, 76, 69, 13, 87, 79, 77, 65, 78, 13, 86, 73, 67, 84, 73, 77, 13, 67, 79, 76, 76, 69, 71, 69, 13, 73, 83, 76, 65, 78, 68, 13], "trial": 3, "time_elapsed": 744063, "type": "FREE_RECALL", "trial_index": 143}, "uniqueid": "MTK3267:3LKC68YZ3BAIRBEG4QU0TRPR9VZOWK", "dateTime": 1520285766556}, {"current_trial": 144, "trialdata": {"rt": 1108, "trial_type": "text", "internal_node_id": "0.0-108.0", "time_elapsed": 747189, "key_press": 32, "type": "INSTRUCTIONS", "trial_index": 144}, "uniqueid": "MTK3267:3LKC68YZ3BAIRBEG4QU0TRPR9VZOWK", "dateTime": 1520285769674}, {"current_trial": 145, "trialdata": {"rt": [2512, 4557, 8047, 10328], "trial_type": "math-distractor", "key_times": [2044, 2229, 2512, 3993, 4247, 4557, 7518, 7730, 8047, 9752, 10006, 10328, 11584, 11792], "responses": ["10", "16", "23", "17"], "num2": [3, 8, 7, 4, 9], "num3": [4, 4, 7, 9, 2], "conditions": [12, 800, "v", 12000], "internal_node_id": "0.0-109.0", "key_presses": [97, 96, 13, 97, 102, 13, 98, 99, 13, 97, 103, 13, 97, 98], "trial": 4, "time_elapsed": 761222, "type": "DISTRACTOR", "trial_index": 145, "num1": [3, 4, 9, 4, 1]}, "uniqueid": "MTK3267:3LKC68YZ3BAIRBEG4QU0TRPR9VZOWK", "dateTime": 1520285783708}, {"current_trial": 146, "trialdata": {"rt": -1, "trial_type": "single-stim", "stimulus": "<p id=\"stim\">10</p>", "internal_node_id": "0.0-110.0-0.0", "time_elapsed": 764248, "key_press": -1, "trial_index": 146}, "uniqueid": "MTK3267:3LKC68YZ3BAIRBEG4QU0TRPR9VZOWK", "dateTime": 1520285786733}, {"current_trial": 147, "trialdata": {"rt": -1, "trial_type": "single-stim", "stimulus": "<p id=\"stim\">9</p>", "internal_node_id": "0.0-110.0-1.0", "time_elapsed": 765252, "key_press": -1, "trial_index": 147}, "uniqueid": "MTK3267:3LKC68YZ3BAIRBEG4QU0TRPR9VZOWK", "dateTime": 1520285787737}, {"current_trial": 148, "trialdata": {"rt": -1, "trial_type": "single-stim", "stimulus": "<p id=\"stim\">8</p>", "internal_node_id": "0.0-110.0-2.0", "time_elapsed": 766259, "key_press": -1, "trial_index": 148}, "uniqueid": "MTK3267:3LKC68YZ3BAIRBEG4QU0TRPR9VZOWK", "dateTime": 1520285788744}, {"current_trial": 149, "trialdata": {"rt": -1, "trial_type": "single-stim", "stimulus": "<p id=\"stim\">7</p>", "internal_node_id": "0.0-110.0-3.0", "time_elapsed": 767273, "key_press": -1, "trial_index": 149}, "uniqueid": "MTK3267:3LKC68YZ3BAIRBEG4QU0TRPR9VZOWK", "dateTime": 1520285789759}, {"current_trial": 150, "trialdata": {"rt": -1, "trial_type": "single-stim", "stimulus": "<p id=\"stim\">6</p>", "internal_node_id": "0.0-110.0-4.0", "time_elapsed": 768275, "key_press": -1, "trial_index": 150}, "uniqueid": "MTK3267:3LKC68YZ3BAIRBEG4QU0TRPR9VZOWK", "dateTime": 1520285790761}, {"current_trial": 151, "trialdata": {"rt": -1, "trial_type": "single-stim", "stimulus": "<p id=\"stim\">5</p>", "internal_node_id": "0.0-110.0-5.0", "time_elapsed": 769284, "key_press": -1, "trial_index": 151}, "uniqueid": "MTK3267:3LKC68YZ3BAIRBEG4QU0TRPR9VZOWK", "dateTime": 1520285791770}, {"current_trial": 152, "trialdata": {"rt": -1, "trial_type": "single-stim", "stimulus": "<p id=\"stim\">4</p>", "internal_node_id": "0.0-110.0-6.0", "time_elapsed": 770286, "key_press": -1, "trial_index": 152}, "uniqueid": "MTK3267:3LKC68YZ3BAIRBEG4QU0TRPR9VZOWK", "dateTime": 1520285792771}, {"current_trial": 153, "trialdata": {"rt": -1, "trial_type": "single-stim", "stimulus": "<p id=\"stim\">3</p>", "internal_node_id": "0.0-110.0-7.0", "time_elapsed": 771298, "key_press": -1, "trial_index": 153}, "uniqueid": "MTK3267:3LKC68YZ3BAIRBEG4QU0TRPR9VZOWK", "dateTime": 1520285793783}, {"current_trial": 154, "trialdata": {"rt": -1, "trial_type": "single-stim", "stimulus": "<p id=\"stim\">2</p>", "internal_node_id": "0.0-110.0-8.0", "time_elapsed": 772300, "key_press": -1, "trial_index": 154}, "uniqueid": "MTK3267:3LKC68YZ3BAIRBEG4QU0TRPR9VZOWK", "dateTime": 1520285794786}, {"current_trial": 155, "trialdata": {"rt": -1, "trial_type": "single-stim", "stimulus": "<p id=\"stim\">1</p>", "internal_node_id": "0.0-110.0-9.0", "time_elapsed": 773316, "key_press": -1, "trial_index": 155}, "uniqueid": "MTK3267:3LKC68YZ3BAIRBEG4QU0TRPR9VZOWK", "dateTime": 1520285795801}, {"current_trial": 156, "trialdata": {"rt": -1, "trial_type": "single-stim", "stimulus": "<p id=\"stim\">+</p>", "internal_node_id": "0.0-111.0-0.0", "time_elapsed": 774824, "key_press": -1, "type": "FIXATION", "trial_index": 156}, "uniqueid": "MTK3267:3LKC68YZ3BAIRBEG4QU0TRPR9VZOWK", "dateTime": 1520285797309}, {"current_trial": 157, "trialdata": {"rt": -1, "trial_type": "single-stim", "word": "harp", "stimulus": "<p id=\"stim\">HARP</p>", "conditions": [12, 800, "v", 12000], "internal_node_id": "0.0-112.0", "trial": 4, "time_elapsed": 775639, "serialpos": 0, "key_press": -1, "wordID": 688, "type": "PRES_VIS", "trial_index": 157}, "uniqueid": "MTK3267:3LKC68YZ3BAIRBEG4QU0TRPR9VZOWK", "dateTime": 1520285798124}, {"current_trial": 158, "trialdata": {"rt": -1, "trial_type": "single-stim", "word": "trombone", "stimulus": "<p id=\"stim\">TROMBONE</p>", "conditions": [12, 800, "v", 12000], "internal_node_id": "0.0-113.0", "trial": 4, "time_elapsed": 777486, "serialpos": 1, "key_press": -1, "wordID": 1507, "type": "PRES_VIS", "trial_index": 158}, "uniqueid": "MTK3267:3LKC68YZ3BAIRBEG4QU0TRPR9VZOWK", "dateTime": 1520285799972}, {"current_trial": 159, "trialdata": {"rt": -1, "trial_type": "single-stim", "word": "orchid", "stimulus": "<p id=\"stim\">ORCHID</p>", "conditions": [12, 800, "v", 12000], "internal_node_id": "0.0-114.0", "trial": 4, "time_elapsed": 779483, "serialpos": 2, "key_press": -1, "wordID": 981, "type": "PRES_VIS", "trial_index": 159}, "uniqueid": "MTK3267:3LKC68YZ3BAIRBEG4QU0TRPR9VZOWK", "dateTime": 1520285801968}, {"current_trial": 160, "trialdata": {"rt": -1, "trial_type": "single-stim", "word": "blouse", "stimulus": "<p id=\"stim\">BLOUSE</p>", "conditions": [12, 800, "v", 12000], "internal_node_id": "0.0-115.0", "trial": 4, "time_elapsed": 781261, "serialpos": 3, "key_press": -1, "wordID": 138, "type": "PRES_VIS", "trial_index": 160}, "uniqueid": "MTK3267:3LKC68YZ3BAIRBEG4QU0TRPR9VZOWK", "dateTime": 1520285803747}, {"current_trial": 161, "trialdata": {"rt": -1, "trial_type": "single-stim", "word": "sponge", "stimulus": "<p id=\"stim\">SPONGE</p>", "conditions": [12, 800, "v", 12000], "internal_node_id": "0.0-116.0", "trial": 4, "time_elapsed": 783046, "serialpos": 4, "key_press": -1, "wordID": 1354, "type": "PRES_VIS", "trial_index": 161}, "uniqueid": "MTK3267:3LKC68YZ3BAIRBEG4QU0TRPR9VZOWK", "dateTime": 1520285805532}, {"current_trial": 162, "trialdata": {"rt": -1, "trial_type": "single-stim", "word": "garden", "stimulus": "<p id=\"stim\">GARDEN</p>", "conditions": [12, 800, "v", 12000], "internal_node_id": "0.0-117.0", "trial": 4, "time_elapsed": 784793, "serialpos": 5, "key_press": -1, "wordID": 622, "type": "PRES_VIS", "trial_index": 162}, "uniqueid": "MTK3267:3LKC68YZ3BAIRBEG4QU0TRPR9VZOWK", "dateTime": 1520285807279}, {"current_trial": 163, "trialdata": {"rt": -1, "trial_type": "single-stim", "word": "thread", "stimulus": "<p id=\"stim\">THREAD</p>", "conditions": [12, 800, "v", 12000], "internal_node_id": "0.0-118.0", "trial": 4, "time_elapsed": 786431, "serialpos": 6, "key_press": -1, "wordID": 1459, "type": "PRES_VIS", "trial_index": 163}, "uniqueid": "MTK3267:3LKC68YZ3BAIRBEG4QU0TRPR9VZOWK", "dateTime": 1520285808917}, {"current_trial": 164, "trialdata": {"rt": -1, "trial_type": "single-stim", "word": "seal", "stimulus": "<p id=\"stim\">SEAL</p>", "conditions": [12, 800, "v", 12000], "internal_node_id": "0.0-119.0", "trial": 4, "time_elapsed": 788111, "serialpos": 7, "key_press": -1, "wordID": 1261, "type": "PRES_VIS", "trial_index": 164}, "uniqueid": "MTK3267:3LKC68YZ3BAIRBEG4QU0TRPR9VZOWK", "dateTime": 1520285810596}, {"current_trial": 165, "trialdata": {"rt": -1, "trial_type": "single-stim", "word": "frame", "stimulus": "<p id=\"stim\">FRAME</p>", "conditions": [12, 800, "v", 12000], "internal_node_id": "0.0-120.0", "trial": 4, "time_elapsed": 789879, "serialpos": 8, "key_press": -1, "wordID": 599, "type": "PRES_VIS", "trial_index": 165}, "uniqueid": "MTK3267:3LKC68YZ3BAIRBEG4QU0TRPR9VZOWK", "dateTime": 1520285812364}, {"current_trial": 166, "trialdata": {"rt": -1, "trial_type": "single-stim", "word": "fireman", "stimulus": "<p id=\"stim\">FIREMAN</p>", "conditions": [12, 800, "v", 12000], "internal_node_id": "0.0-121.0", "trial": 4, "time_elapsed": 791582, "serialpos": 9, "key_press": -1, "wordID": 568, "type": "PRES_VIS", "trial_index": 166}, "uniqueid": "MTK3267:3LKC68YZ3BAIRBEG4QU0TRPR9VZOWK", "dateTime": 1520285814068}, {"current_trial": 167, "trialdata": {"rt": -1, "trial_type": "single-stim", "word": "award", "stimulus": "<p id=\"stim\">AWARD</p>", "conditions": [12, 800, "v", 12000], "internal_node_id": "0.0-122.0", "trial": 4, "time_elapsed": 793269, "serialpos": 10, "key_press": -1, "wordID": 62, "type": "PRES_VIS", "trial_index": 167}, "uniqueid": "MTK3267:3LKC68YZ3BAIRBEG4QU0TRPR9VZOWK", "dateTime": 1520285815754}, {"current_trial": 168, "trialdata": {"rt": -1, "trial_type": "single-stim", "word": "rabbit", "stimulus": "<p id=\"stim\">RABBIT</p>", "conditions": [12, 800, "v", 12000], "internal_node_id": "0.0-123.0", "trial": 4, "time_elapsed": 794984, "serialpos": 11, "key_press": -1, "wordID": 1151, "type": "PRES_VIS", "trial_index": 168}, "uniqueid": "MTK3267:3LKC68YZ3BAIRBEG4QU0TRPR9VZOWK", "dateTime": 1520285817469}, {"current_trial": 169, "trialdata": {"rt": -1, "trial_type": "single-stim", "stimulus": "", "internal_node_id": "0.0-124.0-0.0", "time_elapsed": 797218, "key_press": -1, "type": "PRE_RECALL_DELAY", "trial_index": 169}, "uniqueid": "MTK3267:3LKC68YZ3BAIRBEG4QU0TRPR9VZOWK", "dateTime": 1520285819703}, {"current_trial": 170, "trialdata": {"rt": -1000, "trial_type": "single-audio", "stimulus": "/static/audio/400Hz.wav", "internal_node_id": "0.0-125.0", "time_elapsed": 797720, "key_press": -1, "type": "PRE_RECALL_ALERT", "trial_index": 170}, "uniqueid": "MTK3267:3LKC68YZ3BAIRBEG4QU0TRPR9VZOWK", "dateTime": 1520285820206}, {"current_trial": 171, "trialdata": {"rt": [2699, 20657, 24862, 38394, 47299], "recwords": ["rabbit", "harp", "orchid", "fireman", "thread"], "key_times": [1022, 1380, 1518, 1670, 1836, 2011, 2699, 19183, 19458, 19821, 20003, 20657, 22034, 22203, 22443, 22608, 23527, 23844, 24862, 35406, 35582, 35722, 35909, 36084, 36260, 36427, 37179, 37356, 37545, 37743, 38394, 45906, 46060, 46211, 46396, 46603, 46857, 47299], "trial_type": "free-recall", "conditions": [12, 800, "v", 12000], "internal_node_id": "0.0-126.0-0.0", "key_presses": [82, 65, 66, 66, 73, 84, 13, 72, 65, 82, 80, 13, 79, 82, 67, 72, 73, 68, 13, 70, 73, 82, 69, 77, 83, 78, 8, 8, 65, 78, 13, 84, 72, 82, 69, 65, 68, 13], "trial": 4, "time_elapsed": 857733, "type": "FREE_RECALL", "trial_index": 171}, "uniqueid": "MTK3267:3LKC68YZ3BAIRBEG4QU0TRPR9VZOWK", "dateTime": 1520285880226}, {"current_trial": 172, "trialdata": {"rt": 1345, "trial_type": "text", "internal_node_id": "0.0-127.0", "time_elapsed": 861088, "key_press": 32, "type": "INSTRUCTIONS", "trial_index": 172}, "uniqueid": "MTK3267:3LKC68YZ3BAIRBEG4QU0TRPR9VZOWK", "dateTime": 1520285883573}, {"current_trial": 173, "trialdata": {"rt": [2328, 4458, 8854, 10587], "trial_type": "math-distractor", "key_times": [1966, 2328, 4120, 4458, 8400, 8618, 8854, 9989, 10324, 10587], "responses": ["8", "8", "21", "17"], "num2": [2, 2, 7, 9, 8], "num3": [3, 2, 6, 7, 9], "conditions": [12, 1600, "v", 12000], "internal_node_id": "0.0-128.0", "key_presses": [104, 13, 104, 13, 98, 97, 13, 97, 103, 13], "trial": 5, "time_elapsed": 875101, "type": "DISTRACTOR", "trial_index": 173, "num1": [3, 4, 8, 1, 1]}, "uniqueid": "MTK3267:3LKC68YZ3BAIRBEG4QU0TRPR9VZOWK", "dateTime": 1520285897587}, {"current_trial": 174, "trialdata": {"rt": -1, "trial_type": "single-stim", "stimulus": "<p id=\"stim\">10</p>", "internal_node_id": "0.0-129.0-0.0", "time_elapsed": 878124, "key_press": -1, "trial_index": 174}, "uniqueid": "MTK3267:3LKC68YZ3BAIRBEG4QU0TRPR9VZOWK", "dateTime": 1520285900609}, {"current_trial": 175, "trialdata": {"rt": -1, "trial_type": "single-stim", "stimulus": "<p id=\"stim\">9</p>", "internal_node_id": "0.0-129.0-1.0", "time_elapsed": 879128, "key_press": -1, "trial_index": 175}, "uniqueid": "MTK3267:3LKC68YZ3BAIRBEG4QU0TRPR9VZOWK", "dateTime": 1520285901614}, {"current_trial": 176, "trialdata": {"rt": -1, "trial_type": "single-stim", "stimulus": "<p id=\"stim\">8</p>", "internal_node_id": "0.0-129.0-2.0", "time_elapsed": 880130, "key_press": -1, "trial_index": 176}, "uniqueid": "MTK3267:3LKC68YZ3BAIRBEG4QU0TRPR9VZOWK", "dateTime": 1520285902616}, {"current_trial": 177, "trialdata": {"rt": -1, "trial_type": "single-stim", "stimulus": "<p id=\"stim\">7</p>", "internal_node_id": "0.0-129.0-3.0", "time_elapsed": 881138, "key_press": -1, "trial_index": 177}, "uniqueid": "MTK3267:3LKC68YZ3BAIRBEG4QU0TRPR9VZOWK", "dateTime": 1520285903624}, {"current_trial": 178, "trialdata": {"rt": -1, "trial_type": "single-stim", "stimulus": "<p id=\"stim\">6</p>", "internal_node_id": "0.0-129.0-4.0", "time_elapsed": 882148, "key_press": -1, "trial_index": 178}, "uniqueid": "MTK3267:3LKC68YZ3BAIRBEG4QU0TRPR9VZOWK", "dateTime": 1520285904633}, {"current_trial": 179, "trialdata": {"rt": -1, "trial_type": "single-stim", "stimulus": "<p id=\"stim\">5</p>", "internal_node_id": "0.0-129.0-5.0", "time_elapsed": 883155, "key_press": -1, "trial_index": 179}, "uniqueid": "MTK3267:3LKC68YZ3BAIRBEG4QU0TRPR9VZOWK", "dateTime": 1520285905640}, {"current_trial": 180, "trialdata": {"rt": -1, "trial_type": "single-stim", "stimulus": "<p id=\"stim\">4</p>", "internal_node_id": "0.0-129.0-6.0", "time_elapsed": 884161, "key_press": -1, "trial_index": 180}, "uniqueid": "MTK3267:3LKC68YZ3BAIRBEG4QU0TRPR9VZOWK", "dateTime": 1520285906647}, {"current_trial": 181, "trialdata": {"rt": -1, "trial_type": "single-stim", "stimulus": "<p id=\"stim\">3</p>", "internal_node_id": "0.0-129.0-7.0", "time_elapsed": 885169, "key_press": -1, "trial_index": 181}, "uniqueid": "MTK3267:3LKC68YZ3BAIRBEG4QU0TRPR9VZOWK", "dateTime": 1520285907655}, {"current_trial": 182, "trialdata": {"rt": -1, "trial_type": "single-stim", "stimulus": "<p id=\"stim\">2</p>", "internal_node_id": "0.0-129.0-8.0", "time_elapsed": 886173, "key_press": -1, "trial_index": 182}, "uniqueid": "MTK3267:3LKC68YZ3BAIRBEG4QU0TRPR9VZOWK", "dateTime": 1520285908658}, {"current_trial": 183, "trialdata": {"rt": -1, "trial_type": "single-stim", "stimulus": "<p id=\"stim\">1</p>", "internal_node_id": "0.0-129.0-9.0", "time_elapsed": 887189, "key_press": -1, "trial_index": 183}, "uniqueid": "MTK3267:3LKC68YZ3BAIRBEG4QU0TRPR9VZOWK", "dateTime": 1520285909674}, {"current_trial": 184, "trialdata": {"rt": -1, "trial_type": "single-stim", "stimulus": "<p id=\"stim\">+</p>", "internal_node_id": "0.0-130.0-0.0", "time_elapsed": 888694, "key_press": -1, "type": "FIXATION", "trial_index": 184}, "uniqueid": "MTK3267:3LKC68YZ3BAIRBEG4QU0TRPR9VZOWK", "dateTime": 1520285911179}, {"current_trial": 185, "trialdata": {"rt": -1, "trial_type": "single-stim", "word": "church", "stimulus": "<p id=\"stim\">CHURCH</p>", "conditions": [12, 1600, "v", 12000], "internal_node_id": "0.0-131.0", "trial": 5, "time_elapsed": 890296, "serialpos": 0, "key_press": -1, "wordID": 306, "type": "PRES_VIS", "trial_index": 185}, "uniqueid": "MTK3267:3LKC68YZ3BAIRBEG4QU0TRPR9VZOWK", "dateTime": 1520285912781}, {"current_trial": 186, "trialdata": {"rt": -1, "trial_type": "single-stim", "word": "brick", "stimulus": "<p id=\"stim\">BRICK</p>", "conditions": [12, 1600, "v", 12000], "internal_node_id": "0.0-132.0", "trial": 5, "time_elapsed": 893071, "serialpos": 1, "key_press": -1, "wordID": 171, "type": "PRES_VIS", "trial_index": 186}, "uniqueid": "MTK3267:3LKC68YZ3BAIRBEG4QU0TRPR9VZOWK", "dateTime": 1520285915556}, {"current_trial": 187, "trialdata": {"rt": -1, "trial_type": "single-stim", "word": "muffin", "stimulus": "<p id=\"stim\">MUFFIN</p>", "conditions": [12, 1600, "v", 12000], "internal_node_id": "0.0-133.0", "trial": 5, "time_elapsed": 895485, "serialpos": 2, "key_press": -1, "wordID": 928, "type": "PRES_VIS", "trial_index": 187}, "uniqueid": "MTK3267:3LKC68YZ3BAIRBEG4QU0TRPR9VZOWK", "dateTime": 1520285917970}, {"current_trial": 188, "trialdata": {"rt": -1, "trial_type": "single-stim", "word": "cod", "stimulus": "<p id=\"stim\">COD</p>", "conditions": [12, 1600, "v", 12000], "internal_node_id": "0.0-134.0", "trial": 5, "time_elapsed": 897985, "serialpos": 3, "key_press": -1, "wordID": 339, "type": "PRES_VIS", "trial_index": 188}, "uniqueid": "MTK3267:3LKC68YZ3BAIRBEG4QU0TRPR9VZOWK", "dateTime": 1520285920470}, {"current_trial": 189, "trialdata": {"rt": -1, "trial_type": "single-stim", "word": "journal", "stimulus": "<p id=\"stim\">JOURNAL</p>", "conditions": [12, 1600, "v", 12000], "internal_node_id": "0.0-135.0", "trial": 5, "time_elapsed": 900686, "serialpos": 4, "key_press": -1, "wordID": 759, "type": "PRES_VIS", "trial_index": 189}, "uniqueid": "MTK3267:3LKC68YZ3BAIRBEG4QU0TRPR9VZOWK", "dateTime": 1520285923171}, {"current_trial": 190, "trialdata": {"rt": -1, "trial_type": "single-stim", "word": "luggage", "stimulus": "<p id=\"stim\">LUGGAGE</p>", "conditions": [12, 1600, "v", 12000], "internal_node_id": "0.0-136.0", "trial": 5, "time_elapsed": 903136, "serialpos": 5, "key_press": -1, "wordID": 846, "type": "PRES_VIS", "trial_index": 190}, "uniqueid": "MTK3267:3LKC68YZ3BAIRBEG4QU0TRPR9VZOWK", "dateTime": 1520285925621}, {"current_trial": 191, "trialdata": {"rt": -1, "trial_type": "single-stim", "word": "apron", "stimulus": "<p id=\"stim\">APRON</p>", "conditions": [12, 1600, "v", 12000], "internal_node_id": "0.0-137.0", "trial": 5, "time_elapsed": 905690, "serialpos": 6, "key_press": -1, "wordID": 34, "type": "PRES_VIS", "trial_index": 191}, "uniqueid": "MTK3267:3LKC68YZ3BAIRBEG4QU0TRPR9VZOWK", "dateTime": 1520285928175}, {"current_trial": 192, "trialdata": {"rt": -1, "trial_type": "single-stim", "word": "basement", "stimulus": "<p id=\"stim\">BASEMENT</p>", "conditions": [12, 1600, "v", 12000], "internal_node_id": "0.0-138.0", "trial": 5, "time_elapsed": 908156, "serialpos": 7, "key_press": -1, "wordID": 93, "type": "PRES_VIS", "trial_index": 192}, "uniqueid": "MTK3267:3LKC68YZ3BAIRBEG4QU0TRPR9VZOWK", "dateTime": 1520285930642}, {"current_trial": 193, "trialdata": {"rt": -1, "trial_type": "single-stim", "word": "cellar", "stimulus": "<p id=\"stim\">CELLAR</p>", "conditions": [12, 1600, "v", 12000], "internal_node_id": "0.0-139.0", "trial": 5, "time_elapsed": 910754, "serialpos": 8, "key_press": -1, "wordID": 266, "type": "PRES_VIS", "trial_index": 193}, "uniqueid": "MTK3267:3LKC68YZ3BAIRBEG4QU0TRPR9VZOWK", "dateTime": 1520285933239}, {"current_trial": 194, "trialdata": {"rt": -1, "trial_type": "single-stim", "word": "mustard", "stimulus": "<p id=\"stim\">MUSTARD</p>", "conditions": [12, 1600, "v", 12000], "internal_node_id": "0.0-140.0", "trial": 5, "time_elapsed": 913470, "serialpos": 9, "key_press": -1, "wordID": 934, "type": "PRES_VIS", "trial_index": 194}, "uniqueid": "MTK3267:3LKC68YZ3BAIRBEG4QU0TRPR9VZOWK", "dateTime": 1520285935955}, {"current_trial": 195, "trialdata": {"rt": -1, "trial_type": "single-stim", "word": "ointment", "stimulus": "<p id=\"stim\">OINTMENT</p>", "conditions": [12, 1600, "v", 12000], "internal_node_id": "0.0-141.0", "trial": 5, "time_elapsed": 915998, "serialpos": 10, "key_press": -1, "wordID": 973, "type": "PRES_VIS", "trial_index": 195}, "uniqueid": "MTK3267:3LKC68YZ3BAIRBEG4QU0TRPR9VZOWK", "dateTime": 1520285938483}, {"current_trial": 196, "trialdata": {"rt": -1, "trial_type": "single-stim", "word": "scallop", "stimulus": "<p id=\"stim\">SCALLOP</p>", "conditions": [12, 1600, "v", 12000], "internal_node_id": "0.0-142.0", "trial": 5, "time_elapsed": 918700, "serialpos": 11, "key_press": -1, "wordID": 1241, "type": "PRES_VIS", "trial_index": 196}, "uniqueid": "MTK3267:3LKC68YZ3BAIRBEG4QU0TRPR9VZOWK", "dateTime": 1520285941185}, {"current_trial": 197, "trialdata": {"rt": -1, "trial_type": "single-stim", "stimulus": "", "internal_node_id": "0.0-143.0-0.0", "time_elapsed": 920985, "key_press": -1, "type": "PRE_RECALL_DELAY", "trial_index": 197}, "uniqueid": "MTK3267:3LKC68YZ3BAIRBEG4QU0TRPR9VZOWK", "dateTime": 1520285943471}, {"current_trial": 198, "trialdata": {"rt": -1000, "trial_type": "single-audio", "stimulus": "/static/audio/400Hz.wav", "internal_node_id": "0.0-144.0", "time_elapsed": 921488, "key_press": -1, "type": "PRE_RECALL_ALERT", "trial_index": 198}, "uniqueid": "MTK3267:3LKC68YZ3BAIRBEG4QU0TRPR9VZOWK", "dateTime": 1520285943973}, {"current_trial": 199, "trialdata": {"rt": [3180, 4730, 7114, 15813], "recwords": ["scallop", "cod", "basement", "luggage"], "key_times": [1349, 1535, 1786, 2005, 2129, 2352, 2551, 3180, 3667, 3885, 4227, 4730, 5592, 5741, 5914, 6104, 6233, 6338, 6436, 6603, 7114, 13841, 14170, 14434, 14588, 14738, 14869, 15060, 15813], "trial_type": "free-recall", "conditions": [12, 1600, "v", 12000], "internal_node_id": "0.0-145.0-0.0", "key_presses": [83, 67, 65, 76, 76, 79, 80, 13, 67, 79, 68, 13, 66, 65, 83, 69, 77, 69, 78, 84, 13, 76, 85, 71, 71, 65, 71, 69, 13], "trial": 5, "time_elapsed": 981508, "type": "FREE_RECALL", "trial_index": 199}, "uniqueid": "MTK3267:3LKC68YZ3BAIRBEG4QU0TRPR9VZOWK", "dateTime": 1520286004001}, {"current_trial": 200, "trialdata": {"rt": 4194, "trial_type": "text", "internal_node_id": "0.0-146.0", "time_elapsed": 987721, "key_press": 32, "type": "INSTRUCTIONS", "trial_index": 200}, "uniqueid": "MTK3267:3LKC68YZ3BAIRBEG4QU0TRPR9VZOWK", "dateTime": 1520286010206}, {"current_trial": 201, "trialdata": {"rt": [1847, 3978, 6802, 8755, 10671, 12574, 16343, 18905, 20756, 23077], "trial_type": "math-distractor", "key_times": [1517, 1847, 3470, 3683, 3978, 6152, 6493, 6802, 8305, 8518, 8755, 10179, 10419, 10671, 11996, 12269, 12574, 15860, 16098, 16343, 18375, 18613, 18905, 20201, 20461, 20756, 22595, 22797, 23077], "responses": ["9", "12", "13", "14", "15", "13", "17", "15", "13", "12"], "num2": [3, 2, 4, 9, 3, 8, 9, 2, 9, 2, 8], "num3": [1, 1, 2, 2, 3, 2, 5, 4, 1, 8, 1], "conditions": [12, 1600, "v", 24000], "internal_node_id": "0.0-147.0", "key_presses": [105, 13, 97, 98, 13, 97, 99, 13, 97, 100, 13, 97, 101, 13, 97, 99, 13, 97, 103, 13, 97, 101, 13, 97, 99, 13, 97, 98, 13], "trial": 6, "time_elapsed": 1013743, "type": "DISTRACTOR", "trial_index": 201, "num1": [5, 9, 7, 2, 9, 3, 3, 9, 3, 2, 1]}, "uniqueid": "MTK3267:3LKC68YZ3BAIRBEG4QU0TRPR9VZOWK", "dateTime": 1520286036229}, {"current_trial": 202, "trialdata": {"rt": -1, "trial_type": "single-stim", "stimulus": "<p id=\"stim\">10</p>", "internal_node_id": "0.0-148.0-0.0", "time_elapsed": 1016756, "key_press": -1, "trial_index": 202}, "uniqueid": "MTK3267:3LKC68YZ3BAIRBEG4QU0TRPR9VZOWK", "dateTime": 1520286039242}, {"current_trial": 203, "trialdata": {"rt": -1, "trial_type": "single-stim", "stimulus": "<p id=\"stim\">9</p>", "internal_node_id": "0.0-148.0-1.0", "time_elapsed": 1017768, "key_press": -1, "trial_index": 203}, "uniqueid": "MTK3267:3LKC68YZ3BAIRBEG4QU0TRPR9VZOWK", "dateTime": 1520286040253}, {"current_trial": 204, "trialdata": {"rt": -1, "trial_type": "single-stim", "stimulus": "<p id=\"stim\">8</p>", "internal_node_id": "0.0-148.0-2.0", "time_elapsed": 1018770, "key_press": -1, "trial_index": 204}, "uniqueid": "MTK3267:3LKC68YZ3BAIRBEG4QU0TRPR9VZOWK", "dateTime": 1520286041255}, {"current_trial": 205, "trialdata": {"rt": -1, "trial_type": "single-stim", "stimulus": "<p id=\"stim\">7</p>", "internal_node_id": "0.0-148.0-3.0", "time_elapsed": 1019777, "key_press": -1, "trial_index": 205}, "uniqueid": "MTK3267:3LKC68YZ3BAIRBEG4QU0TRPR9VZOWK", "dateTime": 1520286042263}, {"current_trial": 206, "trialdata": {"rt": -1, "trial_type": "single-stim", "stimulus": "<p id=\"stim\">6</p>", "internal_node_id": "0.0-148.0-4.0", "time_elapsed": 1020780, "key_press": -1, "trial_index": 206}, "uniqueid": "MTK3267:3LKC68YZ3BAIRBEG4QU0TRPR9VZOWK", "dateTime": 1520286043266}, {"current_trial": 207, "trialdata": {"rt": -1, "trial_type": "single-stim", "stimulus": "<p id=\"stim\">5</p>", "internal_node_id": "0.0-148.0-5.0", "time_elapsed": 1021786, "key_press": -1, "trial_index": 207}, "uniqueid": "MTK3267:3LKC68YZ3BAIRBEG4QU0TRPR9VZOWK", "dateTime": 1520286044272}, {"current_trial": 208, "trialdata": {"rt": -1, "trial_type": "single-stim", "stimulus": "<p id=\"stim\">4</p>", "internal_node_id": "0.0-148.0-6.0", "time_elapsed": 1022795, "key_press": -1, "trial_index": 208}, "uniqueid": "MTK3267:3LKC68YZ3BAIRBEG4QU0TRPR9VZOWK", "dateTime": 1520286045280}, {"current_trial": 209, "trialdata": {"rt": -1, "trial_type": "single-stim", "stimulus": "<p id=\"stim\">3</p>", "internal_node_id": "0.0-148.0-7.0", "time_elapsed": 1023810, "key_press": -1, "trial_index": 209}, "uniqueid": "MTK3267:3LKC68YZ3BAIRBEG4QU0TRPR9VZOWK", "dateTime": 1520286046296}, {"current_trial": 210, "trialdata": {"rt": -1, "trial_type": "single-stim", "stimulus": "<p id=\"stim\">2</p>", "internal_node_id": "0.0-148.0-8.0", "time_elapsed": 1024816, "key_press": -1, "trial_index": 210}, "uniqueid": "MTK3267:3LKC68YZ3BAIRBEG4QU0TRPR9VZOWK", "dateTime": 1520286047301}, {"current_trial": 211, "trialdata": {"rt": -1, "trial_type": "single-stim", "stimulus": "<p id=\"stim\">1</p>", "internal_node_id": "0.0-148.0-9.0", "time_elapsed": 1025818, "key_press": -1, "trial_index": 211}, "uniqueid": "MTK3267:3LKC68YZ3BAIRBEG4QU0TRPR9VZOWK", "dateTime": 1520286048303}, {"current_trial": 212, "trialdata": {"rt": -1, "trial_type": "single-stim", "stimulus": "<p id=\"stim\">+</p>", "internal_node_id": "0.0-149.0-0.0", "time_elapsed": 1027333, "key_press": -1, "type": "FIXATION", "trial_index": 212}, "uniqueid": "MTK3267:3LKC68YZ3BAIRBEG4QU0TRPR9VZOWK", "dateTime": 1520286049818}, {"current_trial": 213, "trialdata": {"rt": -1, "trial_type": "single-stim", "word": "mildew", "stimulus": "<p id=\"stim\">MILDEW</p>", "conditions": [12, 1600, "v", 24000], "internal_node_id": "0.0-150.0", "trial": 6, "time_elapsed": 1028937, "serialpos": 0, "key_press": -1, "wordID": 892, "type": "PRES_VIS", "trial_index": 213}, "uniqueid": "MTK3267:3LKC68YZ3BAIRBEG4QU0TRPR9VZOWK", "dateTime": 1520286051422}, {"current_trial": 214, "trialdata": {"rt": -1, "trial_type": "single-stim", "word": "icing", "stimulus": "<p id=\"stim\">ICING</p>", "conditions": [12, 1600, "v", 24000], "internal_node_id": "0.0-151.0", "trial": 6, "time_elapsed": 1031501, "serialpos": 1, "key_press": -1, "wordID": 731, "type": "PRES_VIS", "trial_index": 214}, "uniqueid": "MTK3267:3LKC68YZ3BAIRBEG4QU0TRPR9VZOWK", "dateTime": 1520286053986}, {"current_trial": 215, "trialdata": {"rt": -1, "trial_type": "single-stim", "word": "farmer", "stimulus": "<p id=\"stim\">FARMER</p>", "conditions": [12, 1600, "v", 24000], "internal_node_id": "0.0-152.0", "trial": 6, "time_elapsed": 1034110, "serialpos": 2, "key_press": -1, "wordID": 552, "type": "PRES_VIS", "trial_index": 215}, "uniqueid": "MTK3267:3LKC68YZ3BAIRBEG4QU0TRPR9VZOWK", "dateTime": 1520286056595}, {"current_trial": 216, "trialdata": {"rt": -1, "trial_type": "single-stim", "word": "princess", "stimulus": "<p id=\"stim\">PRINCESS</p>", "conditions": [12, 1600, "v", 24000], "internal_node_id": "0.0-153.0", "trial": 6, "time_elapsed": 1036820, "serialpos": 3, "key_press": -1, "wordID": 1124, "type": "PRES_VIS", "trial_index": 216}, "uniqueid": "MTK3267:3LKC68YZ3BAIRBEG4QU0TRPR9VZOWK", "dateTime": 1520286059306}, {"current_trial": 217, "trialdata": {"rt": -1, "trial_type": "single-stim", "word": "dashboard", "stimulus": "<p id=\"stim\">DASHBOARD</p>", "conditions": [12, 1600, "v", 24000], "internal_node_id": "0.0-154.0", "trial": 6, "time_elapsed": 1039249, "serialpos": 4, "key_press": -1, "wordID": 440, "type": "PRES_VIS", "trial_index": 217}, "uniqueid": "MTK3267:3LKC68YZ3BAIRBEG4QU0TRPR9VZOWK", "dateTime": 1520286061735}, {"current_trial": 218, "trialdata": {"rt": -1, "trial_type": "single-stim", "word": "lover", "stimulus": "<p id=\"stim\">LOVER</p>", "conditions": [12, 1600, "v", 24000], "internal_node_id": "0.0-155.0", "trial": 6, "time_elapsed": 1041921, "serialpos": 5, "key_press": -1, "wordID": 845, "type": "PRES_VIS", "trial_index": 218}, "uniqueid": "MTK3267:3LKC68YZ3BAIRBEG4QU0TRPR9VZOWK", "dateTime": 1520286064407}, {"current_trial": 219, "trialdata": {"rt": -1, "trial_type": "single-stim", "word": "nurse", "stimulus": "<p id=\"stim\">NURSE</p>", "conditions": [12, 1600, "v", 24000], "internal_node_id": "0.0-156.0", "trial": 6, "time_elapsed": 1044520, "serialpos": 6, "key_press": -1, "wordID": 962, "type": "PRES_VIS", "trial_index": 219}, "uniqueid": "MTK3267:3LKC68YZ3BAIRBEG4QU0TRPR9VZOWK", "dateTime": 1520286067005}, {"current_trial": 220, "trialdata": {"rt": -1, "trial_type": "single-stim", "word": "patient", "stimulus": "<p id=\"stim\">PATIENT</p>", "conditions": [12, 1600, "v", 24000], "internal_node_id": "0.0-157.0", "trial": 6, "time_elapsed": 1046944, "serialpos": 7, "key_press": -1, "wordID": 1023, "type": "PRES_VIS", "trial_index": 220}, "uniqueid": "MTK3267:3LKC68YZ3BAIRBEG4QU0TRPR9VZOWK", "dateTime": 1520286069430}, {"current_trial": 221, "trialdata": {"rt": -1, "trial_type": "single-stim", "word": "breast", "stimulus": "<p id=\"stim\">BREAST</p>", "conditions": [12, 1600, "v", 24000], "internal_node_id": "0.0-158.0", "trial": 6, "time_elapsed": 1049549, "serialpos": 8, "key_press": -1, "wordID": 170, "type": "PRES_VIS", "trial_index": 221}, "uniqueid": "MTK3267:3LKC68YZ3BAIRBEG4QU0TRPR9VZOWK", "dateTime": 1520286072034}, {"current_trial": 222, "trialdata": {"rt": -1, "trial_type": "single-stim", "word": "donkey", "stimulus": "<p id=\"stim\">DONKEY</p>", "conditions": [12, 1600, "v", 24000], "internal_node_id": "0.0-159.0", "trial": 6, "time_elapsed": 1052268, "serialpos": 9, "key_press": -1, "wordID": 483, "type": "PRES_VIS", "trial_index": 222}, "uniqueid": "MTK3267:3LKC68YZ3BAIRBEG4QU0TRPR9VZOWK", "dateTime": 1520286074754}, {"current_trial": 223, "trialdata": {"rt": -1, "trial_type": "single-stim", "word": "girl", "stimulus": "<p id=\"stim\">GIRL</p>", "conditions": [12, 1600, "v", 24000], "internal_node_id": "0.0-160.0", "trial": 6, "time_elapsed": 1055002, "serialpos": 10, "key_press": -1, "wordID": 636, "type": "PRES_VIS", "trial_index": 223}, "uniqueid": "MTK3267:3LKC68YZ3BAIRBEG4QU0TRPR9VZOWK", "dateTime": 1520286077487}, {"current_trial": 224, "trialdata": {"rt": -1, "trial_type": "single-stim", "word": "umpire", "stimulus": "<p id=\"stim\">UMPIRE</p>", "conditions": [12, 1600, "v", 24000], "internal_node_id": "0.0-161.0", "trial": 6, "time_elapsed": 1057768, "serialpos": 11, "key_press": -1, "wordID": 1534, "type": "PRES_VIS", "trial_index": 224}, "uniqueid": "MTK3267:3LKC68YZ3BAIRBEG4QU0TRPR9VZOWK", "dateTime": 1520286080254}, {"current_trial": 225, "trialdata": {"rt": -1, "trial_type": "single-stim", "stimulus": "", "internal_node_id": "0.0-162.0-0.0", "time_elapsed": 1060149, "key_press": -1, "type": "PRE_RECALL_DELAY", "trial_index": 225}, "uniqueid": "MTK3267:3LKC68YZ3BAIRBEG4QU0TRPR9VZOWK", "dateTime": 1520286082635}, {"current_trial": 226, "trialdata": {"rt": -1000, "trial_type": "single-audio", "stimulus": "/static/audio/400Hz.wav", "internal_node_id": "0.0-163.0", "time_elapsed": 1060654, "key_press": -1, "type": "PRE_RECALL_ALERT", "trial_index": 226}, "uniqueid": "MTK3267:3LKC68YZ3BAIRBEG4QU0TRPR9VZOWK", "dateTime": 1520286083139}, {"current_trial": 227, "trialdata": {"rt": [1860, 4136, 12895, 34932], "recwords": ["girl", "umpire", "dashboard", "breast"], "key_times": [1025, 1241, 1385, 1505, 1860, 2339, 2518, 2759, 2992, 3175, 3387, 4136, 10647, 10904, 11075, 11190, 11339, 11652, 11771, 12044, 12291, 12895, 33222, 33436, 33644, 33850, 34035, 34178, 34932], "trial_type": "free-recall", "conditions": [12, 1600, "v", 24000], "internal_node_id": "0.0-164.0-0.0", "key_presses": [71, 73, 82, 76, 13, 85, 77, 80, 73, 82, 69, 13, 68, 65, 83, 72, 66, 79, 65, 82, 68, 13, 66, 82, 69, 65, 83, 84, 13], "trial": 6, "time_elapsed": 1120670, "type": "FREE_RECALL", "trial_index": 227}, "uniqueid": "MTK3267:3LKC68YZ3BAIRBEG4QU0TRPR9VZOWK", "dateTime": 1520286143172}, {"current_trial": 228, "trialdata": {"rt": 19563, "trial_type": "text", "internal_node_id": "0.0-165.0", "time_elapsed": 1142257, "key_press": 32, "type": "INSTRUCTIONS", "trial_index": 228}, "uniqueid": "MTK3267:3LKC68YZ3BAIRBEG4QU0TRPR9VZOWK", "dateTime": 1520286164744}, {"current_trial": 229, "trialdata": {"rt": [2631, 4813, 7956, 10314, 12652, 19530, 22020, 23871], "trial_type": "math-distractor", "key_times": [2369, 2631, 4363, 4551, 4813, 6324, 7263, 7956, 9781, 10039, 10314, 12205, 12407, 12652, 18714, 18967, 19530, 21406, 21715, 22020, 23315, 23568, 23871], "responses": ["7", "15", "19", "18", "14", "20", "18", "10"], "num2": [3, 8, 8, 6, 7, 5, 3, 8, 9], "num3": [2, 2, 9, 5, 6, 9, 7, 1, 5], "conditions": [24, 800, "v", 24000], "internal_node_id": "0.0-166.0", "key_presses": [103, 13, 97, 101, 13, 97, 105, 13, 97, 104, 13, 97, 100, 13, 98, 96, 13, 97, 104, 13, 97, 96, 13], "trial": 7, "time_elapsed": 1168283, "type": "DISTRACTOR", "trial_index": 229, "num1": [2, 5, 2, 7, 1, 6, 8, 1, 3]}, "uniqueid": "MTK3267:3LKC68YZ3BAIRBEG4QU0TRPR9VZOWK", "dateTime": 1520286190771}, {"current_trial": 230, "trialdata": {"rt": -1, "trial_type": "single-stim", "stimulus": "<p id=\"stim\">10</p>", "internal_node_id": "0.0-167.0-0.0", "time_elapsed": 1171299, "key_press": -1, "trial_index": 230}, "uniqueid": "MTK3267:3LKC68YZ3BAIRBEG4QU0TRPR9VZOWK", "dateTime": 1520286193784}, {"current_trial": 231, "trialdata": {"rt": -1, "trial_type": "single-stim", "stimulus": "<p id=\"stim\">9</p>", "internal_node_id": "0.0-167.0-1.0", "time_elapsed": 1172301, "key_press": -1, "trial_index": 231}, "uniqueid": "MTK3267:3LKC68YZ3BAIRBEG4QU0TRPR9VZOWK", "dateTime": 1520286194787}, {"current_trial": 232, "trialdata": {"rt": -1, "trial_type": "single-stim", "stimulus": "<p id=\"stim\">8</p>", "internal_node_id": "0.0-167.0-2.0", "time_elapsed": 1173318, "key_press": -1, "trial_index": 232}, "uniqueid": "MTK3267:3LKC68YZ3BAIRBEG4QU0TRPR9VZOWK", "dateTime": 1520286195804}, {"current_trial": 233, "trialdata": {"rt": -1, "trial_type": "single-stim", "stimulus": "<p id=\"stim\">7</p>", "internal_node_id": "0.0-167.0-3.0", "time_elapsed": 1174335, "key_press": -1, "trial_index": 233}, "uniqueid": "MTK3267:3LKC68YZ3BAIRBEG4QU0TRPR9VZOWK", "dateTime": 1520286196820}, {"current_trial": 234, "trialdata": {"rt": -1, "trial_type": "single-stim", "stimulus": "<p id=\"stim\">6</p>", "internal_node_id": "0.0-167.0-4.0", "time_elapsed": 1175350, "key_press": -1, "trial_index": 234}, "uniqueid": "MTK3267:3LKC68YZ3BAIRBEG4QU0TRPR9VZOWK", "dateTime": 1520286197836}, {"current_trial": 235, "trialdata": {"rt": -1, "trial_type": "single-stim", "stimulus": "<p id=\"stim\">5</p>", "internal_node_id": "0.0-167.0-5.0", "time_elapsed": 1176367, "key_press": -1, "trial_index": 235}, "uniqueid": "MTK3267:3LKC68YZ3BAIRBEG4QU0TRPR9VZOWK", "dateTime": 1520286198852}, {"current_trial": 236, "trialdata": {"rt": -1, "trial_type": "single-stim", "stimulus": "<p id=\"stim\">4</p>", "internal_node_id": "0.0-167.0-6.0", "time_elapsed": 1177370, "key_press": -1, "trial_index": 236}, "uniqueid": "MTK3267:3LKC68YZ3BAIRBEG4QU0TRPR9VZOWK", "dateTime": 1520286199856}, {"current_trial": 237, "trialdata": {"rt": -1, "trial_type": "single-stim", "stimulus": "<p id=\"stim\">3</p>", "internal_node_id": "0.0-167.0-7.0", "time_elapsed": 1178386, "key_press": -1, "trial_index": 237}, "uniqueid": "MTK3267:3LKC68YZ3BAIRBEG4QU0TRPR9VZOWK", "dateTime": 1520286200871}, {"current_trial": 238, "trialdata": {"rt": -1, "trial_type": "single-stim", "stimulus": "<p id=\"stim\">2</p>", "internal_node_id": "0.0-167.0-8.0", "time_elapsed": 1179388, "key_press": -1, "trial_index": 238}, "uniqueid": "MTK3267:3LKC68YZ3BAIRBEG4QU0TRPR9VZOWK", "dateTime": 1520286201873}, {"current_trial": 239, "trialdata": {"rt": -1, "trial_type": "single-stim", "stimulus": "<p id=\"stim\">1</p>", "internal_node_id": "0.0-167.0-9.0", "time_elapsed": 1180404, "key_press": -1, "trial_index": 239}, "uniqueid": "MTK3267:3LKC68YZ3BAIRBEG4QU0TRPR9VZOWK", "dateTime": 1520286202889}, {"current_trial": 240, "trialdata": {"rt": -1, "trial_type": "single-stim", "stimulus": "<p id=\"stim\">+</p>", "internal_node_id": "0.0-168.0-0.0", "time_elapsed": 1181912, "key_press": -1, "type": "FIXATION", "trial_index": 240}, "uniqueid": "MTK3267:3LKC68YZ3BAIRBEG4QU0TRPR9VZOWK", "dateTime": 1520286204398}, {"current_trial": 241, "trialdata": {"rt": -1, "trial_type": "single-stim", "word": "rocket", "stimulus": "<p id=\"stim\">ROCKET</p>", "conditions": [24, 800, "v", 24000], "internal_node_id": "0.0-169.0", "trial": 7, "time_elapsed": 1182715, "serialpos": 0, "key_press": -1, "wordID": 1201, "type": "PRES_VIS", "trial_index": 241}, "uniqueid": "MTK3267:3LKC68YZ3BAIRBEG4QU0TRPR9VZOWK", "dateTime": 1520286205200}, {"current_trial": 242, "trialdata": {"rt": -1, "trial_type": "single-stim", "word": "termite", "stimulus": "<p id=\"stim\">TERMITE</p>", "conditions": [24, 800, "v", 24000], "internal_node_id": "0.0-170.0", "trial": 7, "time_elapsed": 1184469, "serialpos": 1, "key_press": -1, "wordID": 1450, "type": "PRES_VIS", "trial_index": 242}, "uniqueid": "MTK3267:3LKC68YZ3BAIRBEG4QU0TRPR9VZOWK", "dateTime": 1520286206955}, {"current_trial": 243, "trialdata": {"rt": -1, "trial_type": "single-stim", "word": "europe", "stimulus": "<p id=\"stim\">EUROPE</p>", "conditions": [24, 800, "v", 24000], "internal_node_id": "0.0-171.0", "trial": 7, "time_elapsed": 1186255, "serialpos": 2, "key_press": -1, "wordID": 540, "type": "PRES_VIS", "trial_index": 243}, "uniqueid": "MTK3267:3LKC68YZ3BAIRBEG4QU0TRPR9VZOWK", "dateTime": 1520286208740}, {"current_trial": 244, "trialdata": {"rt": -1, "trial_type": "single-stim", "word": "casket", "stimulus": "<p id=\"stim\">CASKET</p>", "conditions": [24, 800, "v", 24000], "internal_node_id": "0.0-172.0", "trial": 7, "time_elapsed": 1187993, "serialpos": 3, "key_press": -1, "wordID": 254, "type": "PRES_VIS", "trial_index": 244}, "uniqueid": "MTK3267:3LKC68YZ3BAIRBEG4QU0TRPR9VZOWK", "dateTime": 1520286210479}, {"current_trial": 245, "trialdata": {"rt": -1, "trial_type": "single-stim", "word": "tombstone", "stimulus": "<p id=\"stim\">TOMBSTONE</p>", "conditions": [24, 800, "v", 24000], "internal_node_id": "0.0-173.0", "trial": 7, "time_elapsed": 1189824, "serialpos": 4, "key_press": -1, "wordID": 1477, "type": "PRES_VIS", "trial_index": 245}, "uniqueid": "MTK3267:3LKC68YZ3BAIRBEG4QU0TRPR9VZOWK", "dateTime": 1520286212310}, {"current_trial": 246, "trialdata": {"rt": -1, "trial_type": "single-stim", "word": "velvet", "stimulus": "<p id=\"stim\">VELVET</p>", "conditions": [24, 800, "v", 24000], "internal_node_id": "0.0-174.0", "trial": 7, "time_elapsed": 1191772, "serialpos": 5, "key_press": -1, "wordID": 1554, "type": "PRES_VIS", "trial_index": 246}, "uniqueid": "MTK3267:3LKC68YZ3BAIRBEG4QU0TRPR9VZOWK", "dateTime": 1520286214257}, {"current_trial": 247, "trialdata": {"rt": -1, "trial_type": "single-stim", "word": "army", "stimulus": "<p id=\"stim\">ARMY</p>", "conditions": [24, 800, "v", 24000], "internal_node_id": "0.0-175.0", "trial": 7, "time_elapsed": 1193522, "serialpos": 6, "key_press": -1, "wordID": 38, "type": "PRES_VIS", "trial_index": 247}, "uniqueid": "MTK3267:3LKC68YZ3BAIRBEG4QU0TRPR9VZOWK", "dateTime": 1520286216008}, {"current_trial": 248, "trialdata": {"rt": -1, "trial_type": "single-stim", "word": "match", "stimulus": "<p id=\"stim\">MATCH</p>", "conditions": [24, 800, "v", 24000], "internal_node_id": "0.0-176.0", "trial": 7, "time_elapsed": 1195231, "serialpos": 7, "key_press": -1, "wordID": 877, "type": "PRES_VIS", "trial_index": 248}, "uniqueid": "MTK3267:3LKC68YZ3BAIRBEG4QU0TRPR9VZOWK", "dateTime": 1520286217716}, {"current_trial": 249, "trialdata": {"rt": -1, "trial_type": "single-stim", "word": "hand", "stimulus": "<p id=\"stim\">HAND</p>", "conditions": [24, 800, "v", 24000], "internal_node_id": "0.0-177.0", "trial": 7, "time_elapsed": 1197011, "serialpos": 8, "key_press": -1, "wordID": 682, "type": "PRES_VIS", "trial_index": 249}, "uniqueid": "MTK3267:3LKC68YZ3BAIRBEG4QU0TRPR9VZOWK", "dateTime": 1520286219497}, {"current_trial": 250, "trialdata": {"rt": -1, "trial_type": "single-stim", "word": "couch", "stimulus": "<p id=\"stim\">COUCH</p>", "conditions": [24, 800, "v", 24000], "internal_node_id": "0.0-178.0", "trial": 7, "time_elapsed": 1198926, "serialpos": 9, "key_press": -1, "wordID": 385, "type": "PRES_VIS", "trial_index": 250}, "uniqueid": "MTK3267:3LKC68YZ3BAIRBEG4QU0TRPR9VZOWK", "dateTime": 1520286221412}, {"current_trial": 251, "trialdata": {"rt": -1, "trial_type": "single-stim", "word": "kleenex", "stimulus": "<p id=\"stim\">KLEENEX</p>", "conditions": [24, 800, "v", 24000], "internal_node_id": "0.0-179.0", "trial": 7, "time_elapsed": 1200818, "serialpos": 10, "key_press": -1, "wordID": 781, "type": "PRES_VIS", "trial_index": 251}, "uniqueid": "MTK3267:3LKC68YZ3BAIRBEG4QU0TRPR9VZOWK", "dateTime": 1520286223303}, {"current_trial": 252, "trialdata": {"rt": -1, "trial_type": "single-stim", "word": "london", "stimulus": "<p id=\"stim\">LONDON</p>", "conditions": [24, 800, "v", 24000], "internal_node_id": "0.0-180.0", "trial": 7, "time_elapsed": 1202473, "serialpos": 11, "key_press": -1, "wordID": 842, "type": "PRES_VIS", "trial_index": 252}, "uniqueid": "MTK3267:3LKC68YZ3BAIRBEG4QU0TRPR9VZOWK", "dateTime": 1520286224959}, {"current_trial": 253, "trialdata": {"rt": -1, "trial_type": "single-stim", "word": "seagull", "stimulus": "<p id=\"stim\">SEAGULL</p>", "conditions": [24, 800, "v", 24000], "internal_node_id": "0.0-181.0", "trial": 7, "time_elapsed": 1204397, "serialpos": 12, "key_press": -1, "wordID": 1260, "type": "PRES_VIS", "trial_index": 253}, "uniqueid": "MTK3267:3LKC68YZ3BAIRBEG4QU0TRPR9VZOWK", "dateTime": 1520286226882}, {"current_trial": 254, "trialdata": {"rt": -1, "trial_type": "single-stim", "word": "machine", "stimulus": "<p id=\"stim\">MACHINE</p>", "conditions": [24, 800, "v", 24000], "internal_node_id": "0.0-182.0", "trial": 7, "time_elapsed": 1206096, "serialpos": 13, "key_press": -1, "wordID": 851, "type": "PRES_VIS", "trial_index": 254}, "uniqueid": "MTK3267:3LKC68YZ3BAIRBEG4QU0TRPR9VZOWK", "dateTime": 1520286228582}, {"current_trial": 255, "trialdata": {"rt": -1, "trial_type": "single-stim", "word": "sandwich", "stimulus": "<p id=\"stim\">SANDWICH</p>", "conditions": [24, 800, "v", 24000], "internal_node_id": "0.0-183.0", "trial": 7, "time_elapsed": 1207865, "serialpos": 14, "key_press": -1, "wordID": 1231, "type": "PRES_VIS", "trial_index": 255}, "uniqueid": "MTK3267:3LKC68YZ3BAIRBEG4QU0TRPR9VZOWK", "dateTime": 1520286230351}, {"current_trial": 256, "trialdata": {"rt": -1, "trial_type": "single-stim", "word": "sibling", "stimulus": "<p id=\"stim\">SIBLING</p>", "conditions": [24, 800, "v", 24000], "internal_node_id": "0.0-184.0", "trial": 7, "time_elapsed": 1209632, "serialpos": 15, "key_press": -1, "wordID": 1300, "type": "PRES_VIS", "trial_index": 256}, "uniqueid": "MTK3267:3LKC68YZ3BAIRBEG4QU0TRPR9VZOWK", "dateTime": 1520286232118}, {"current_trial": 257, "trialdata": {"rt": -1, "trial_type": "single-stim", "word": "space", "stimulus": "<p id=\"stim\">SPACE</p>", "conditions": [24, 800, "v", 24