{"assignmentId": "34V1S5K3GT8HQ9V4BJYEY7VPPLC69W", "workerId": "MTK3129", "questiondata": {"origin": "Egypt", "strat-rehearsal": "72", "marital": "Married/Domestic Partnership", "education": "Doctorate degree", "ethnicity": "Not Hispanic", "color_depth": 24, "distracted": "No", "wrote-notes": "Yes", "strat-other": "", "screen_width": 1600, "avail_screen_width": 1600, "avail_screen_height": 860, "strat-image": "99", "language": "Arabic", "gender": "Female", "age": "36", "gender_other": "", "race": ["White"], "strat-categorize": "100", "pixel_depth": 24, "strat-spatial": "86", "strat-story": "79", "race_other": "", "screen_height": 900}, "bonus": 0, "hitId": "37M4O367VJPYR5GQ57NCM3RP9YCM5M", "counterbalance": 787, "useragent": "Mozilla/5.0 (Windows NT 10.0; Win64; x64) AppleWebKit/537.36 (KHTML, like Gecko) Chrome/64.0.3282.186 Safari/537.36", "eventdata": [{"eventtype": "initialized", "interval": 0, "value": null, "timestamp": 1520028475665}, {"eventtype": "window_resize", "interval": 0, "value": [1600, 853], "timestamp": 1520028475665}, {"eventtype": "focus", "interval": 17327, "value": "off", "timestamp": 1520028492992}, {"eventtype": "focus", "interval": 166, "value": "on", "timestamp": 1520028493158}, {"eventtype": "focus", "interval": 48812, "value": "off", "timestamp": 1520028541970}, {"eventtype": "focus", "interval": 0, "value": "on", "timestamp": 1520028541970}, {"eventtype": "focus", "interval": 6439, "value": "off", "timestamp": 1520028548409}, {"eventtype": "focus", "interval": 4, "value": "on", "timestamp": 1520028548413}, {"eventtype": "focus", "interval": 29998, "value": "off", "timestamp": 1520028578411}, {"eventtype": "focus", "interval": 0, "value": "on", "timestamp": 1520028578411}, {"eventtype": "focus", "interval": 13286, "value": "off", "timestamp": 1520028591697}, {"eventtype": "focus", "interval": 0, "value": "on", "timestamp": 1520028591697}, {"eventtype": "window_resize", "interval": 45086, "value": [1600, 804], "timestamp": 1520028636783}, {"eventtype": "focus", "interval": 4751, "value": "off", "timestamp": 1520028641534}, {"eventtype": "focus", "interval": 90, "value": "on", "timestamp": 1520028641624}, {"eventtype": "window_resize", "interval": 37, "value": [1600, 853], "timestamp": 1520028641661}, {"eventtype": "focus", "interval": 610, "value": "off", "timestamp": 1520028642271}, {"eventtype": "focus", "interval": 18241, "value": "on", "timestamp": 1520028660512}], "data": [{"current_trial": 0, "trialdata": {"rt": 113, "trial_type": "text", "internal_node_id": "0.0-0.0", "time_elapsed": 116, "key_press": 175, "type": "INSTRUCTIONS", "trial_index": 0}, "uniqueid": "MTK3129:34V1S5K3GT8HQ9V4BJYEY7VPPLC69W", "dateTime": 1520028500916}, {"current_trial": 1, "trialdata": {"rt": 198, "trial_type": "text", "internal_node_id": "0.0-1.0", "time_elapsed": 319, "key_press": 175, "type": "INSTRUCTIONS", "trial_index": 1}, "uniqueid": "MTK3129:34V1S5K3GT8HQ9V4BJYEY7VPPLC69W", "dateTime": 1520028501117}, {"current_trial": 2, "trialdata": {"rt": [38191, 44371, 74673, 80847, 163974], "trial_type": "audio-test", "responses": ["up", "up", "up", "op", "ocean"], "internal_node_id": "0.0-2.0", "time_elapsed": 164316, "type": "AUDIO_TEST", "trial_index": 2}, "uniqueid": "MTK3129:34V1S5K3GT8HQ9V4BJYEY7VPPLC69W", "dateTime": 1520028665114}, {"current_trial": 3, "trialdata": {"rt": [23255], "trial_type": "audio-test", "responses": ["crystal"], "internal_node_id": "0.0-3.0", "time_elapsed": 187584, "type": "AUDIO_TEST", "trial_index": 3}, "uniqueid": "MTK3129:34V1S5K3GT8HQ9V4BJYEY7VPPLC69W", "dateTime": 1520028688382}, {"current_trial": 4, "trialdata": {"rt": [9548], "trial_type": "audio-test", "responses": ["spice"], "internal_node_id": "0.0-4.0", "time_elapsed": 197138, "type": "AUDIO_TEST", "trial_index": 4}, "uniqueid": "MTK3129:34V1S5K3GT8HQ9V4BJYEY7VPPLC69W", "dateTime": 1520028697936}, {"current_trial": 5, "trialdata": {"rt": 33484, "trial_type": "survey-text", "responses": "{\"Q0\":\"11 pm\",\"Q1\":\"8 am\",\"Q2\":\"5\"}", "internal_node_id": "0.0-5.0", "time_elapsed": 231379, "type": "SLEEP_SURVEY", "trial_index": 5}, "uniqueid": "MTK3129:34V1S5K3GT8HQ9V4BJYEY7VPPLC69W", "dateTime": 1520028732177}, {"current_trial": 6, "trialdata": {"rt": 6096, "trial_type": "text", "internal_node_id": "0.0-6.0", "time_elapsed": 238476, "key_press": 75, "type": "INSTRUCTIONS", "trial_index": 6}, "uniqueid": "MTK3129:34V1S5K3GT8HQ9V4BJYEY7VPPLC69W", "dateTime": 1520028739274}, {"current_trial": 7, "trialdata": {"rt": 26936, "trial_type": "text", "internal_node_id": "0.0-7.0", "time_elapsed": 265917, "key_press": 13, "type": "INSTRUCTIONS", "trial_index": 7}, "uniqueid": "MTK3129:34V1S5K3GT8HQ9V4BJYEY7VPPLC69W", "dateTime": 1520028766715}, {"current_trial": 8, "trialdata": {"rt": 10749, "trial_type": "text", "internal_node_id": "0.0-8.0", "time_elapsed": 277167, "key_press": 13, "type": "INSTRUCTIONS", "trial_index": 8}, "uniqueid": "MTK3129:34V1S5K3GT8HQ9V4BJYEY7VPPLC69W", "dateTime": 1520028777965}, {"current_trial": 9, "trialdata": {"rt": [9826, 14480, 17512], "trial_type": "math-distractor", "key_times": [8474, 8806, 9826, 13464, 13845, 14480, 16852, 17092, 17512], "responses": ["17", "19", "10"], "num2": [7, 5, 1, 8], "num3": [9, 8, 4, 6], "conditions": [18, 1200, "a", 18000], "internal_node_id": "0.0-9.0", "key_presses": [97, 103, 13, 97, 105, 13, 97, 96, 13], "trial": 0, "time_elapsed": 296177, "type": "DISTRACTOR", "trial_index": 9, "num1": [1, 6, 5, 1]}, "uniqueid": "MTK3129:34V1S5K3GT8HQ9V4BJYEY7VPPLC69W", "dateTime": 1520028796975}, {"current_trial": 10, "trialdata": {"rt": -1, "trial_type": "single-stim", "stimulus": "<p id=\"stim\">10</p>", "internal_node_id": "0.0-10.0-0.0", "time_elapsed": 299179, "key_press": -1, "trial_index": 10}, "uniqueid": "MTK3129:34V1S5K3GT8HQ9V4BJYEY7VPPLC69W", "dateTime": 1520028799977}, {"current_trial": 11, "trialdata": {"rt": -1, "trial_type": "single-stim", "stimulus": "<p id=\"stim\">9</p>", "internal_node_id": "0.0-10.0-1.0", "time_elapsed": 300181, "key_press": -1, "trial_index": 11}, "uniqueid": "MTK3129:34V1S5K3GT8HQ9V4BJYEY7VPPLC69W", "dateTime": 1520028800979}, {"current_trial": 12, "trialdata": {"rt": -1, "trial_type": "single-stim", "stimulus": "<p id=\"stim\">8</p>", "internal_node_id": "0.0-10.0-2.0", "time_elapsed": 301180, "key_press": -1, "trial_index": 12}, "uniqueid": "MTK3129:34V1S5K3GT8HQ9V4BJYEY7VPPLC69W", "dateTime": 1520028801978}, {"current_trial": 13, "trialdata": {"rt": -1, "trial_type": "single-stim", "stimulus": "<p id=\"stim\">7</p>", "internal_node_id": "0.0-10.0-3.0", "time_elapsed": 302180, "key_press": -1, "trial_index": 13}, "uniqueid": "MTK3129:34V1S5K3GT8HQ9V4BJYEY7VPPLC69W", "dateTime": 1520028802978}, {"current_trial": 14, "trialdata": {"rt": -1, "trial_type": "single-stim", "stimulus": "<p id=\"stim\">6</p>", "internal_node_id": "0.0-10.0-4.0", "time_elapsed": 303181, "key_press": -1, "trial_index": 14}, "uniqueid": "MTK3129:34V1S5K3GT8HQ9V4BJYEY7VPPLC69W", "dateTime": 1520028803979}, {"current_trial": 15, "trialdata": {"rt": -1, "trial_type": "single-stim", "stimulus": "<p id=\"stim\">5</p>", "internal_node_id": "0.0-10.0-5.0", "time_elapsed": 304183, "key_press": -1, "trial_index": 15}, "uniqueid": "MTK3129:34V1S5K3GT8HQ9V4BJYEY7VPPLC69W", "dateTime": 1520028804981}, {"current_trial": 16, "trialdata": {"rt": -1, "trial_type": "single-stim", "stimulus": "<p id=\"stim\">4</p>", "internal_node_id": "0.0-10.0-6.0", "time_elapsed": 305184, "key_press": -1, "trial_index": 16}, "uniqueid": "MTK3129:34V1S5K3GT8HQ9V4BJYEY7VPPLC69W", "dateTime": 1520028805982}, {"current_trial": 17, "trialdata": {"rt": -1, "trial_type": "single-stim", "stimulus": "<p id=\"stim\">3</p>", "internal_node_id": "0.0-10.0-7.0", "time_elapsed": 306185, "key_press": -1, "trial_index": 17}, "uniqueid": "MTK3129:34V1S5K3GT8HQ9V4BJYEY7VPPLC69W", "dateTime": 1520028806983}, {"current_trial": 18, "trialdata": {"rt": -1, "trial_type": "single-stim", "stimulus": "<p id=\"stim\">2</p>", "internal_node_id": "0.0-10.0-8.0", "time_elapsed": 307188, "key_press": -1, "trial_index": 18}, "uniqueid": "MTK3129:34V1S5K3GT8HQ9V4BJYEY7VPPLC69W", "dateTime": 1520028807986}, {"current_trial": 19, "trialdata": {"rt": -1, "trial_type": "single-stim", "stimulus": "<p id=\"stim\">1</p>", "internal_node_id": "0.0-10.0-9.0", "time_elapsed": 308190, "key_press": -1, "trial_index": 19}, "uniqueid": "MTK3129:34V1S5K3GT8HQ9V4BJYEY7VPPLC69W", "dateTime": 1520028808988}, {"current_trial": 20, "trialdata": {"rt": -1, "trial_type": "single-stim", "stimulus": "<p id=\"stim\">+</p>", "internal_node_id": "0.0-11.0-0.0", "time_elapsed": 309692, "key_press": -1, "type": "FIXATION", "trial_index": 20}, "uniqueid": "MTK3129:34V1S5K3GT8HQ9V4BJYEY7VPPLC69W", "dateTime": 1520028810490}, {"current_trial": 21, "trialdata": {"rt": -1000, "trial_type": "single-audio", "word": "cookbook", "stimulus": "/static/audio/wordpool/COOKBOOK.wav", "conditions": [18, 1200, "a", 18000], "internal_node_id": "0.0-12.0", "trial": 0, "time_elapsed": 311915, "serialpos": 0, "key_press": -1, "wordID": 372, "type": "PRES_AUD", "trial_index": 21}, "uniqueid": "MTK3129:34V1S5K3GT8HQ9V4BJYEY7VPPLC69W", "dateTime": 1520028812713}, {"current_trial": 22, "trialdata": {"rt": -1000, "trial_type": "single-audio", "word": "ox", "stimulus": "/static/audio/wordpool/OX.wav", "conditions": [18, 1200, "a", 18000], "internal_node_id": "0.0-13.0", "trial": 0, "time_elapsed": 314223, "serialpos": 1, "key_press": -1, "wordID": 993, "type": "PRES_AUD", "trial_index": 22}, "uniqueid": "MTK3129:34V1S5K3GT8HQ9V4BJYEY7VPPLC69W", "dateTime": 1520028815022}, {"current_trial": 23, "trialdata": {"rt": 1729.3333333333294, "trial_type": "single-audio", "word": "slope", "stimulus": "/static/audio/wordpool/SLOPE.wav", "conditions": [18, 1200, "a", 18000], "internal_node_id": "0.0-14.0", "trial": 0, "time_elapsed": 316420, "serialpos": 2, "key_press": 175, "wordID": 1327, "type": "PRES_AUD", "trial_index": 23}, "uniqueid": "MTK3129:34V1S5K3GT8HQ9V4BJYEY7VPPLC69W", "dateTime": 1520028817218}, {"current_trial": 24, "trialdata": {"rt": 41.33333333328437, "trial_type": "single-audio", "word": "quarter", "stimulus": "/static/audio/wordpool/QUARTER.wav", "conditions": [18, 1200, "a", 18000], "internal_node_id": "0.0-15.0", "trial": 0, "time_elapsed": 318698, "serialpos": 3, "key_press": 175, "wordID": 1147, "type": "PRES_AUD", "trial_index": 24}, "uniqueid": "MTK3129:34V1S5K3GT8HQ9V4BJYEY7VPPLC69W", "dateTime": 1520028819496}, {"current_trial": 25, "trialdata": {"rt": -1000, "trial_type": "single-audio", "word": "breast", "stimulus": "/static/audio/wordpool/BREAST.wav", "conditions": [18, 1200, "a", 18000], "internal_node_id": "0.0-16.0", "trial": 0, "time_elapsed": 320857, "serialpos": 4, "key_press": -1, "wordID": 170, "type": "PRES_AUD", "trial_index": 25}, "uniqueid": "MTK3129:34V1S5K3GT8HQ9V4BJYEY7VPPLC69W", "dateTime": 1520028821656}, {"current_trial": 26, "trialdata": {"rt": 1539.9999999999636, "trial_type": "single-audio", "word": "lamp", "stimulus": "/static/audio/wordpool/LAMP.wav", "conditions": [18, 1200, "a", 18000], "internal_node_id": "0.0-17.0", "trial": 0, "time_elapsed": 322926, "serialpos": 5, "key_press": 175, "wordID": 797, "type": "PRES_AUD", "trial_index": 26}, "uniqueid": "MTK3129:34V1S5K3GT8HQ9V4BJYEY7VPPLC69W", "dateTime": 1520028823724}, {"current_trial": 27, "trialdata": {"rt": 1049.3333333332657, "trial_type": "single-audio", "word": "gravel", "stimulus": "/static/audio/wordpool/GRAVEL.wav", "conditions": [18, 1200, "a", 18000], "internal_node_id": "0.0-18.0", "trial": 0, "time_elapsed": 324956, "serialpos": 6, "key_press": 175, "wordID": 658, "type": "PRES_AUD", "trial_index": 27}, "uniqueid": "MTK3129:34V1S5K3GT8HQ9V4BJYEY7VPPLC69W", "dateTime": 1520028825754}, {"current_trial": 28, "trialdata": {"rt": -81.33333333336168, "trial_type": "single-audio", "word": "casket", "stimulus": "/static/audio/wordpool/CASKET.wav", "conditions": [18, 1200, "a", 18000], "internal_node_id": "0.0-19.0", "trial": 0, "time_elapsed": 327089, "serialpos": 7, "key_press": 175, "wordID": 254, "type": "PRES_AUD", "trial_index": 28}, "uniqueid": "MTK3129:34V1S5K3GT8HQ9V4BJYEY7VPPLC69W", "dateTime": 1520028827887}, {"current_trial": 29, "trialdata": {"rt": -70.66666666668198, "trial_type": "single-audio", "word": "powder", "stimulus": "/static/audio/wordpool/POWDER.wav", "conditions": [18, 1200, "a", 18000], "internal_node_id": "0.0-20.0", "trial": 0, "time_elapsed": 329321, "serialpos": 8, "key_press": 175, "wordID": 1116, "type": "PRES_AUD", "trial_index": 29}, "uniqueid": "MTK3129:34V1S5K3GT8HQ9V4BJYEY7VPPLC69W", "dateTime": 1520028830119}, {"current_trial": 30, "trialdata": {"rt": 1339.999999999975, "trial_type": "single-audio", "word": "whiskers", "stimulus": "/static/audio/wordpool/WHISKERS.wav", "conditions": [18, 1200, "a", 18000], "internal_node_id": "0.0-21.0", "trial": 0, "time_elapsed": 331405, "serialpos": 9, "key_press": 175, "wordID": 1604, "type": "PRES_AUD", "trial_index": 30}, "uniqueid": "MTK3129:34V1S5K3GT8HQ9V4BJYEY7VPPLC69W", "dateTime": 1520028832203}, {"current_trial": 31, "trialdata": {"rt": 409.3333333333362, "trial_type": "single-audio", "word": "quail", "stimulus": "/static/audio/wordpool/QUAIL.wav", "conditions": [18, 1200, "a", 18000], "internal_node_id": "0.0-22.0", "trial": 0, "time_elapsed": 333419, "serialpos": 10, "key_press": 175, "wordID": 1146, "type": "PRES_AUD", "trial_index": 31}, "uniqueid": "MTK3129:34V1S5K3GT8HQ9V4BJYEY7VPPLC69W", "dateTime": 1520028834217}, {"current_trial": 32, "trialdata": {"rt": -1000, "trial_type": "single-audio", "word": "sausage", "stimulus": "/static/audio/wordpool/SAUSAGE.wav", "conditions": [18, 1200, "a", 18000], "internal_node_id": "0.0-23.0", "trial": 0, "time_elapsed": 335753, "serialpos": 11, "key_press": -1, "wordID": 1237, "type": "PRES_AUD", "trial_index": 32}, "uniqueid": "MTK3129:34V1S5K3GT8HQ9V4BJYEY7VPPLC69W", "dateTime": 1520028836551}, {"current_trial": 33, "trialdata": {"rt": -1000, "trial_type": "single-audio", "word": "fungus", "stimulus": "/static/audio/wordpool/FUNGUS.wav", "conditions": [18, 1200, "a", 18000], "internal_node_id": "0.0-24.0", "trial": 0, "time_elapsed": 338098, "serialpos": 12, "key_press": -1, "wordID": 613, "type": "PRES_AUD", "trial_index": 33}, "uniqueid": "MTK3129:34V1S5K3GT8HQ9V4BJYEY7VPPLC69W", "dateTime": 1520028838896}, {"current_trial": 34, "trialdata": {"rt": -1000, "trial_type": "single-audio", "word": "tribe", "stimulus": "/static/audio/wordpool/TRIBE.wav", "conditions": [18, 1200, "a", 18000], "internal_node_id": "0.0-25.0", "trial": 0, "time_elapsed": 340399, "serialpos": 13, "key_press": -1, "wordID": 1504, "type": "PRES_AUD", "trial_index": 34}, "uniqueid": "MTK3129:34V1S5K3GT8HQ9V4BJYEY7VPPLC69W", "dateTime": 1520028841197}, {"current_trial": 35, "trialdata": {"rt": -1000, "trial_type": "single-audio", "word": "compass", "stimulus": "/static/audio/wordpool/COMPASS.wav", "conditions": [18, 1200, "a", 18000], "internal_node_id": "0.0-26.0", "trial": 0, "time_elapsed": 342430, "serialpos": 14, "key_press": -1, "wordID": 357, "type": "PRES_AUD", "trial_index": 35}, "uniqueid": "MTK3129:34V1S5K3GT8HQ9V4BJYEY7VPPLC69W", "dateTime": 1520028843228}, {"current_trial": 36, "trialdata": {"rt": 1420.000000000016, "trial_type": "single-audio", "word": "london", "stimulus": "/static/audio/wordpool/LONDON.wav", "conditions": [18, 1200, "a", 18000], "internal_node_id": "0.0-27.0", "trial": 0, "time_elapsed": 344465, "serialpos": 15, "key_press": 175, "wordID": 842, "type": "PRES_AUD", "trial_index": 36}, "uniqueid": "MTK3129:34V1S5K3GT8HQ9V4BJYEY7VPPLC69W", "dateTime": 1520028845263}, {"current_trial": 37, "trialdata": {"rt": 899.9999999999773, "trial_type": "single-audio", "word": "harp", "stimulus": "/static/audio/wordpool/HARP.wav", "conditions": [18, 1200, "a", 18000], "internal_node_id": "0.0-28.0", "trial": 0, "time_elapsed": 346687, "serialpos": 16, "key_press": 175, "wordID": 688, "type": "PRES_AUD", "trial_index": 37}, "uniqueid": "MTK3129:34V1S5K3GT8HQ9V4BJYEY7VPPLC69W", "dateTime": 1520028847485}, {"current_trial": 38, "trialdata": {"rt": -1000, "trial_type": "single-audio", "word": "penguin", "stimulus": "/static/audio/wordpool/PENGUIN.wav", "conditions": [18, 1200, "a", 18000], "internal_node_id": "0.0-29.0", "trial": 0, "time_elapsed": 348853, "serialpos": 17, "key_press": -1, "wordID": 1043, "type": "PRES_AUD", "trial_index": 38}, "uniqueid": "MTK3129:34V1S5K3GT8HQ9V4BJYEY7VPPLC69W", "dateTime": 1520028849651}, {"current_trial": 39, "trialdata": {"rt": -1, "trial_type": "single-stim", "stimulus": "", "internal_node_id": "0.0-30.0-0.0", "time_elapsed": 350138, "key_press": -1, "type": "PRE_RECALL_DELAY", "trial_index": 39}, "uniqueid": "MTK3129:34V1S5K3GT8HQ9V4BJYEY7VPPLC69W", "dateTime": 1520028850936}, {"current_trial": 40, "trialdata": {"rt": -1000, "trial_type": "single-audio", "stimulus": "/static/audio/400Hz.wav", "internal_node_id": "0.0-31.0", "time_elapsed": 350641, "key_press": -1, "type": "PRE_RECALL_ALERT", "trial_index": 40}, "uniqueid": "MTK3129:34V1S5K3GT8HQ9V4BJYEY7VPPLC69W", "dateTime": 1520028851439}, {"current_trial": 41, "trialdata": {"rt": [22152, 31943, 47374], "recwords": ["london", "rust", "species"], "key_times": [19993, 20211, 20503, 20884, 21178, 21445, 22152, 27916, 28541, 28874, 29083, 31943, 44464, 44799, 45233, 45524, 45981, 46337, 46537, 47374, 54332, 54752], "trial_type": "free-recall", "conditions": [18, 1200, "a", 18000], "internal_node_id": "0.0-32.0-0.0", "key_presses": [76, 79, 78, 68, 79, 78, 13, 82, 85, 83, 84, 13, 83, 80, 69, 67, 73, 69, 83, 13, 175, 175], "trial": 0, "time_elapsed": 410646, "type": "FREE_RECALL", "trial_index": 41}, "uniqueid": "MTK3129:34V1S5K3GT8HQ9V4BJYEY7VPPLC69W", "dateTime": 1520028911453}, {"current_trial": 42, "trialdata": {"rt": 4125, "trial_type": "text", "internal_node_id": "0.0-33.0", "time_elapsed": 416782, "key_press": 13, "type": "INSTRUCTIONS", "trial_index": 42}, "uniqueid": "MTK3129:34V1S5K3GT8HQ9V4BJYEY7VPPLC69W", "dateTime": 1520028917580}, {"current_trial": 43, "trialdata": {"rt": [8878, 12567, 16692], "trial_type": "math-distractor", "key_times": [7822, 8207, 8878, 11878, 12083, 12567, 15107, 15335, 16692], "responses": ["19", "12", "21"], "num2": [8, 4, 6, 8], "num3": [6, 7, 6, 8], "conditions": [18, 1200, "a", 18000], "internal_node_id": "0.0-34.0", "key_presses": [97, 105, 13, 97, 98, 13, 98, 97, 13], "trial": 1, "time_elapsed": 436787, "type": "DISTRACTOR", "trial_index": 43, "num1": [5, 1, 9, 2]}, "uniqueid": "MTK3129:34V1S5K3GT8HQ9V4BJYEY7VPPLC69W", "dateTime": 1520028937585}, {"current_trial": 44, "trialdata": {"rt": -1, "trial_type": "single-stim", "stimulus": "<p id=\"stim\">10</p>", "internal_node_id": "0.0-35.0-0.0", "time_elapsed": 439791, "key_press": -1, "trial_index": 44}, "uniqueid": "MTK3129:34V1S5K3GT8HQ9V4BJYEY7VPPLC69W", "dateTime": 1520028940589}, {"current_trial": 45, "trialdata": {"rt": -1, "trial_type": "single-stim", "stimulus": "<p id=\"stim\">9</p>", "internal_node_id": "0.0-35.0-1.0", "time_elapsed": 440792, "key_press": -1, "trial_index": 45}, "uniqueid": "MTK3129:34V1S5K3GT8HQ9V4BJYEY7VPPLC69W", "dateTime": 1520028941590}, {"current_trial": 46, "trialdata": {"rt": -1, "trial_type": "single-stim", "stimulus": "<p id=\"stim\">8</p>", "internal_node_id": "0.0-35.0-2.0", "time_elapsed": 441796, "key_press": -1, "trial_index": 46}, "uniqueid": "MTK3129:34V1S5K3GT8HQ9V4BJYEY7VPPLC69W", "dateTime": 1520028942594}, {"current_trial": 47, "trialdata": {"rt": -1, "trial_type": "single-stim", "stimulus": "<p id=\"stim\">7</p>", "internal_node_id": "0.0-35.0-3.0", "time_elapsed": 442796, "key_press": -1, "trial_index": 47}, "uniqueid": "MTK3129:34V1S5K3GT8HQ9V4BJYEY7VPPLC69W", "dateTime": 1520028943594}, {"current_trial": 48, "trialdata": {"rt": -1, "trial_type": "single-stim", "stimulus": "<p id=\"stim\">6</p>", "internal_node_id": "0.0-35.0-4.0", "time_elapsed": 443798, "key_press": -1, "trial_index": 48}, "uniqueid": "MTK3129:34V1S5K3GT8HQ9V4BJYEY7VPPLC69W", "dateTime": 1520028944596}, {"current_trial": 49, "trialdata": {"rt": 180, "trial_type": "single-stim", "stimulus": "<p id=\"stim\">5</p>", "internal_node_id": "0.0-35.0-5.0", "time_elapsed": 444799, "key_press": 175, "trial_index": 49}, "uniqueid": "MTK3129:34V1S5K3GT8HQ9V4BJYEY7VPPLC69W", "dateTime": 1520028945597}, {"current_trial": 50, "trialdata": {"rt": 11, "trial_type": "single-stim", "stimulus": "<p id=\"stim\">4</p>", "internal_node_id": "0.0-35.0-6.0", "time_elapsed": 445801, "key_press": 175, "trial_index": 50}, "uniqueid": "MTK3129:34V1S5K3GT8HQ9V4BJYEY7VPPLC69W", "dateTime": 1520028946599}, {"current_trial": 51, "trialdata": {"rt": -1, "trial_type": "single-stim", "stimulus": "<p id=\"stim\">3</p>", "internal_node_id": "0.0-35.0-7.0", "time_elapsed": 446801, "key_press": -1, "trial_index": 51}, "uniqueid": "MTK3129:34V1S5K3GT8HQ9V4BJYEY7VPPLC69W", "dateTime": 1520028947599}, {"current_trial": 52, "trialdata": {"rt": -1, "trial_type": "single-stim", "stimulus": "<p id=\"stim\">2</p>", "internal_node_id": "0.0-35.0-8.0", "time_elapsed": 447803, "key_press": -1, "trial_index": 52}, "uniqueid": "MTK3129:34V1S5K3GT8HQ9V4BJYEY7VPPLC69W", "dateTime": 1520028948601}, {"current_trial": 53, "trialdata": {"rt": -1, "trial_type": "single-stim", "stimulus": "<p id=\"stim\">1</p>", "internal_node_id": "0.0-35.0-9.0", "time_elapsed": 448806, "key_press": -1, "trial_index": 53}, "uniqueid": "MTK3129:34V1S5K3GT8HQ9V4BJYEY7VPPLC69W", "dateTime": 1520028949604}, {"current_trial": 54, "trialdata": {"rt": -1, "trial_type": "single-stim", "stimulus": "<p id=\"stim\">+</p>", "internal_node_id": "0.0-36.0-0.0", "time_elapsed": 450308, "key_press": -1, "type": "FIXATION", "trial_index": 54}, "uniqueid": "MTK3129:34V1S5K3GT8HQ9V4BJYEY7VPPLC69W", "dateTime": 1520028951106}, {"current_trial": 55, "trialdata": {"rt": -1000, "trial_type": "single-audio", "word": "blockade", "stimulus": "/static/audio/wordpool/BLOCKADE.wav", "conditions": [18, 1200, "a", 18000], "internal_node_id": "0.0-37.0", "trial": 1, "time_elapsed": 452650, "serialpos": 0, "key_press": -1, "wordID": 136, "type": "PRES_AUD", "trial_index": 55}, "uniqueid": "MTK3129:34V1S5K3GT8HQ9V4BJYEY7VPPLC69W", "dateTime": 1520028953448}, {"current_trial": 56, "trialdata": {"rt": -1000, "trial_type": "single-audio", "word": "shark", "stimulus": "/static/audio/wordpool/SHARK.wav", "conditions": [18, 1200, "a", 18000], "internal_node_id": "0.0-38.0", "trial": 1, "time_elapsed": 454783, "serialpos": 1, "key_press": -1, "wordID": 1274, "type": "PRES_AUD", "trial_index": 56}, "uniqueid": "MTK3129:34V1S5K3GT8HQ9V4BJYEY7VPPLC69W", "dateTime": 1520028955581}, {"current_trial": 57, "trialdata": {"rt": -1000, "trial_type": "single-audio", "word": "stallion", "stimulus": "/static/audio/wordpool/STALLION.wav", "conditions": [18, 1200, "a", 18000], "internal_node_id": "0.0-39.0", "trial": 1, "time_elapsed": 457033, "serialpos": 2, "key_press": -1, "wordID": 1368, "type": "PRES_AUD", "trial_index": 57}, "uniqueid": "MTK3129:34V1S5K3GT8HQ9V4BJYEY7VPPLC69W", "dateTime": 1520028957831}, {"current_trial": 58, "trialdata": {"rt": -1000, "trial_type": "single-audio", "word": "fiddle", "stimulus": "/static/audio/wordpool/FIDDLE.wav", "conditions": [18, 1200, "a", 18000], "internal_node_id": "0.0-40.0", "trial": 1, "time_elapsed": 459371, "serialpos": 3, "key_press": -1, "wordID": 560, "type": "PRES_AUD", "trial_index": 58}, "uniqueid": "MTK3129:34V1S5K3GT8HQ9V4BJYEY7VPPLC69W", "dateTime": 1520028960169}, {"current_trial": 59, "trialdata": {"rt": -1000, "trial_type": "single-audio", "word": "blender", "stimulus": "/static/audio/wordpool/BLENDER.wav", "conditions": [18, 1200, "a", 18000], "internal_node_id": "0.0-41.0", "trial": 1, "time_elapsed": 461480, "serialpos": 4, "key_press": -1, "wordID": 135, "type": "PRES_AUD", "trial_index": 59}, "uniqueid": "MTK3129:34V1S5K3GT8HQ9V4BJYEY7VPPLC69W", "dateTime": 1520028962278}, {"current_trial": 60, "trialdata": {"rt": -1000, "trial_type": "single-audio", "word": "ozone", "stimulus": "/static/audio/wordpool/OZONE.wav", "conditions": [18, 1200, "a", 18000], "internal_node_id": "0.0-42.0", "trial": 1, "time_elapsed": 463636, "serialpos": 5, "key_press": -1, "wordID": 995, "type": "PRES_AUD", "trial_index": 60}, "uniqueid": "MTK3129:34V1S5K3GT8HQ9V4BJYEY7VPPLC69W", "dateTime": 1520028964434}, {"current_trial": 61, "trialdata": {"rt": -1000, "trial_type": "single-audio", "word": "glass", "stimulus": "/static/audio/wordpool/GLASS.wav", "conditions": [18, 1200, "a", 18000], "internal_node_id": "0.0-43.0", "trial": 1, "time_elapsed": 465765, "serialpos": 6, "key_press": -1, "wordID": 638, "type": "PRES_AUD", "trial_index": 61}, "uniqueid": "MTK3129:34V1S5K3GT8HQ9V4BJYEY7VPPLC69W", "dateTime": 1520028966563}, {"current_trial": 62, "trialdata": {"rt": -1000, "trial_type": "single-audio", "word": "ketchup", "stimulus": "/static/audio/wordpool/KETCHUP.wav", "conditions": [18, 1200, "a", 18000], "internal_node_id": "0.0-44.0", "trial": 1, "time_elapsed": 467975, "serialpos": 7, "key_press": -1, "wordID": 770, "type": "PRES_AUD", "trial_index": 62}, "uniqueid": "MTK3129:34V1S5K3GT8HQ9V4BJYEY7VPPLC69W", "dateTime": 1520028968773}, {"current_trial": 63, "trialdata": {"rt": -1000, "trial_type": "single-audio", "word": "chemist", "stimulus": "/static/audio/wordpool/CHEMIST.wav", "conditions": [18, 1200, "a", 18000], "internal_node_id": "0.0-45.0", "trial": 1, "time_elapsed": 470286, "serialpos": 8, "key_press": -1, "wordID": 291, "type": "PRES_AUD", "trial_index": 63}, "uniqueid": "MTK3129:34V1S5K3GT8HQ9V4BJYEY7VPPLC69W", "dateTime": 1520028971084}, {"current_trial": 64, "trialdata": {"rt": -1000, "trial_type": "single-audio", "word": "passage", "stimulus": "/static/audio/wordpool/PASSAGE.wav", "conditions": [18, 1200, "a", 18000], "internal_node_id": "0.0-46.0", "trial": 1, "time_elapsed": 472357, "serialpos": 9, "key_press": -1, "wordID": 1018, "type": "PRES_AUD", "trial_index": 64}, "uniqueid": "MTK3129:34V1S5K3GT8HQ9V4BJYEY7VPPLC69W", "dateTime": 1520028973155}, {"current_trial": 65, "trialdata": {"rt": -1000, "trial_type": "single-audio", "word": "iceberg", "stimulus": "/static/audio/wordpool/ICEBERG.wav", "conditions": [18, 1200, "a", 18000], "internal_node_id": "0.0-47.0", "trial": 1, "time_elapsed": 474673, "serialpos": 10, "key_press": -1, "wordID": 730, "type": "PRES_AUD", "trial_index": 65}, "uniqueid": "MTK3129:34V1S5K3GT8HQ9V4BJYEY7VPPLC69W", "dateTime": 1520028975471}, {"current_trial": 66, "trialdata": {"rt": -1000, "trial_type": "single-audio", "word": "county", "stimulus": "/static/audio/wordpool/COUNTY.wav", "conditions": [18, 1200, "a", 18000], "internal_node_id": "0.0-48.0", "trial": 1, "time_elapsed": 476929, "serialpos": 11, "key_press": -1, "wordID": 388, "type": "PRES_AUD", "trial_index": 66}, "uniqueid": "MTK3129:34V1S5K3GT8HQ9V4BJYEY7VPPLC69W", "dateTime": 1520028977728}, {"current_trial": 67, "trialdata": {"rt": -1000, "trial_type": "single-audio", "word": "chapel", "stimulus": "/static/audio/wordpool/CHAPEL.wav", "conditions": [18, 1200, "a", 18000], "internal_node_id": "0.0-49.0", "trial": 1, "time_elapsed": 479192, "serialpos": 12, "key_press": -1, "wordID": 279, "type": "PRES_AUD", "trial_index": 67}, "uniqueid": "MTK3129:34V1S5K3GT8HQ9V4BJYEY7VPPLC69W", "dateTime": 1520028979990}, {"current_trial": 68, "trialdata": {"rt": -1000, "trial_type": "single-audio", "word": "stomach", "stimulus": "/static/audio/wordpool/STOMACH.wav", "conditions": [18, 1200, "a", 18000], "internal_node_id": "0.0-50.0", "trial": 1, "time_elapsed": 481546, "serialpos": 13, "key_press": -1, "wordID": 1383, "type": "PRES_AUD", "trial_index": 68}, "uniqueid": "MTK3129:34V1S5K3GT8HQ9V4BJYEY7VPPLC69W", "dateTime": 1520028982350}, {"current_trial": 69, "trialdata": {"rt": -1000, "trial_type": "single-audio", "word": "asia", "stimulus": "/static/audio/wordpool/ASIA.wav", "conditions": [18, 1200, "a", 18000], "internal_node_id": "0.0-51.0", "trial": 1, "time_elapsed": 483756, "serialpos": 14, "key_press": -1, "wordID": 45, "type": "PRES_AUD", "trial_index": 69}, "uniqueid": "MTK3129:34V1S5K3GT8HQ9V4BJYEY7VPPLC69W", "dateTime": 1520028984554}, {"current_trial": 70, "trialdata": {"rt": -1000, "trial_type": "single-audio", "word": "hamper", "stimulus": "/static/audio/wordpool/HAMPER.wav", "conditions": [18, 1200, "a", 18000], "internal_node_id": "0.0-52.0", "trial": 1, "time_elapsed": 485778, "serialpos": 15, "key_press": -1, "wordID": 681, "type": "PRES_AUD", "trial_index": 70}, "uniqueid": "MTK3129:34V1S5K3GT8HQ9V4BJYEY7VPPLC69W", "dateTime": 1520028986577}, {"current_trial": 71, "trialdata": {"rt": -1000, "trial_type": "single-audio", "word": "donor", "stimulus": "/static/audio/wordpool/DONOR.wav", "conditions": [18, 1200, "a", 18000], "internal_node_id": "0.0-53.0", "trial": 1, "time_elapsed": 488086, "serialpos": 16, "key_press": -1, "wordID": 484, "type": "PRES_AUD", "trial_index": 71}, "uniqueid": "MTK3129:34V1S5K3GT8HQ9V4BJYEY7VPPLC69W", "dateTime": 1520028988884}, {"current_trial": 72, "trialdata": {"rt": -1000, "trial_type": "single-audio", "word": "world", "stimulus": "/static/audio/wordpool/WORLD.wav", "conditions": [18, 1200, "a", 18000], "internal_node_id": "0.0-54.0", "trial": 1, "time_elapsed": 490406, "serialpos": 17, "key_press": -1, "wordID": 1621, "type": "PRES_AUD", "trial_index": 72}, "uniqueid": "MTK3129:34V1S5K3GT8HQ9V4BJYEY7VPPLC69W", "dateTime": 1520028991204}, {"current_trial": 73, "trialdata": {"rt": -1, "trial_type": "single-stim", "stimulus": "", "internal_node_id": "0.0-55.0-0.0", "time_elapsed": 491713, "key_press": -1, "type": "PRE_RECALL_DELAY", "trial_index": 73}, "uniqueid": "MTK3129:34V1S5K3GT8HQ9V4BJYEY7VPPLC69W", "dateTime": 1520028992511}, {"current_trial": 74, "trialdata": {"rt": -1000, "trial_type": "single-audio", "stimulus": "/static/audio/400Hz.wav", "internal_node_id": "0.0-56.0", "time_elapsed": 492216, "key_press": -1, "type": "PRE_RECALL_ALERT", "trial_index": 74}, "uniqueid": "MTK3129:34V1S5K3GT8HQ9V4BJYEY7VPPLC69W", "dateTime": 1520028993014}, {"current_trial": 75, "trialdata": {"rt": [3525, 6031, 11858, 17551, 29735, 34879, 39219, 46457, 50419], "recwords": ["world", "glass", "kitchup", "stomach", "stallion", "aisha", "london", "crystal", "donut"], "key_times": [1205, 1478, 1832, 2402, 2776, 3525, 4267, 4712, 4958, 5188, 5371, 6031, 6693, 6884, 7193, 7435, 7857, 8276, 8684, 11858, 13660, 13945, 14409, 15593, 15834, 16001, 16498, 17551, 21405, 21764, 22997, 25950, 27314, 27632, 28116, 28502, 29735, 30742, 31101, 31467, 31990, 32576, 33417, 33569, 34879, 36345, 36529, 36897, 37465, 37861, 38219, 39219, 42694, 42926, 43383, 43668, 45228, 45467, 45921, 46457, 47978, 48492, 48784, 49028, 49361, 50419], "trial_type": "free-recall", "conditions": [18, 1200, "a", 18000], "internal_node_id": "0.0-57.0-0.0", "key_presses": [87, 79, 82, 76, 68, 13, 71, 76, 65, 83, 83, 13, 75, 73, 84, 67, 72, 85, 80, 13, 83, 84, 79, 77, 65, 67, 72, 13, 83, 84, 65, 76, 76, 73, 79, 78, 13, 65, 73, 83, 74, 8, 72, 65, 13, 76, 79, 78, 68, 79, 78, 13, 67, 82, 89, 83, 84, 65, 76, 13, 68, 79, 78, 85, 84, 13], "trial": 1, "time_elapsed": 552219, "type": "FREE_RECALL", "trial_index": 75}, "uniqueid": "MTK3129:34V1S5K3GT8HQ9V4BJYEY7VPPLC69W", "dateTime": 1520029053021}, {"current_trial": 76, "trialdata": {"rt": 13855, "trial_type": "text", "internal_node_id": "0.0-58.0", "time_elapsed": 568081, "key_press": 13, "type": "INSTRUCTIONS", "trial_index": 76}, "uniqueid": "MTK3129:34V1S5K3GT8HQ9V4BJYEY7VPPLC69W", "dateTime": 1520029068879}, {"current_trial": 77, "trialdata": {"rt": [4722, 7035, 9798, 12337, 14665, 16565, 19006, 23070], "trial_type": "math-distractor", "key_times": [3048, 3208, 4722, 6329, 6532, 7035, 9005, 9225, 9798, 11596, 11923, 12337, 14022, 14327, 14665, 16222, 16565, 18244, 18589, 19006, 22321, 22517, 23070], "responses": ["11", "12", "12", "16", "19", "7", "16", "21"], "num2": [3, 1, 3, 6, 9, 3, 1, 9, 4], "num3": [4, 4, 3, 5, 5, 3, 8, 4, 5], "conditions": [12, 1600, "a", 24000], "internal_node_id": "0.0-59.0", "key_presses": [97, 97, 13, 97, 98, 13, 97, 98, 13, 97, 102, 13, 97, 105, 13, 103, 13, 97, 102, 13, 98, 97, 13], "trial": 2, "time_elapsed": 593089, "type": "DISTRACTOR", "trial_index": 77, "num1": [4, 7, 6, 5, 5, 1, 7, 8, 3]}, "uniqueid": "MTK3129:34V1S5K3GT8HQ9V4BJYEY7VPPLC69W", "dateTime": 1520029093887}, {"current_trial": 78, "trialdata": {"rt": -1, "trial_type": "single-stim", "stimulus": "<p id=\"stim\">10</p>", "internal_node_id": "0.0-60.0-0.0", "time_elapsed": 596094, "key_press": -1, "trial_index": 78}, "uniqueid": "MTK3129:34V1S5K3GT8HQ9V4BJYEY7VPPLC69W", "dateTime": 1520029096892}, {"current_trial": 79, "trialdata": {"rt": -1, "trial_type": "single-stim", "stimulus": "<p id=\"stim\">9</p>", "internal_node_id": "0.0-60.0-1.0", "time_elapsed": 597095, "key_press": -1, "trial_index": 79}, "uniqueid": "MTK3129:34V1S5K3GT8HQ9V4BJYEY7VPPLC69W", "dateTime": 1520029097893}, {"current_trial": 80, "trialdata": {"rt": -1, "trial_type": "single-stim", "stimulus": "<p id=\"stim\">8</p>", "internal_node_id": "0.0-60.0-2.0", "time_elapsed": 598096, "key_press": -1, "trial_index": 80}, "uniqueid": "MTK3129:34V1S5K3GT8HQ9V4BJYEY7VPPLC69W", "dateTime": 1520029098894}, {"current_trial": 81, "trialdata": {"rt": -1, "trial_type": "single-stim", "stimulus": "<p id=\"stim\">7</p>", "internal_node_id": "0.0-60.0-3.0", "time_elapsed": 599098, "key_press": -1, "trial_index": 81}, "uniqueid": "MTK3129:34V1S5K3GT8HQ9V4BJYEY7VPPLC69W", "dateTime": 1520029099896}, {"current_trial": 82, "trialdata": {"rt": -1, "trial_type": "single-stim", "stimulus": "<p id=\"stim\">6</p>", "internal_node_id": "0.0-60.0-4.0", "time_elapsed": 600098, "key_press": -1, "trial_index": 82}, "uniqueid": "MTK3129:34V1S5K3GT8HQ9V4BJYEY7VPPLC69W", "dateTime": 1520029100896}, {"current_trial": 83, "trialdata": {"rt": -1, "trial_type": "single-stim", "stimulus": "<p id=\"stim\">5</p>", "internal_node_id": "0.0-60.0-5.0", "time_elapsed": 601099, "key_press": -1, "trial_index": 83}, "uniqueid": "MTK3129:34V1S5K3GT8HQ9V4BJYEY7VPPLC69W", "dateTime": 1520029101897}, {"current_trial": 84, "trialdata": {"rt": -1, "trial_type": "single-stim", "stimulus": "<p id=\"stim\">4</p>", "internal_node_id": "0.0-60.0-6.0", "time_elapsed": 602103, "key_press": -1, "trial_index": 84}, "uniqueid": "MTK3129:34V1S5K3GT8HQ9V4BJYEY7VPPLC69W", "dateTime": 1520029102901}, {"current_trial": 85, "trialdata": {"rt": -1, "trial_type": "single-stim", "stimulus": "<p id=\"stim\">3</p>", "internal_node_id": "0.0-60.0-7.0", "time_elapsed": 603105, "key_press": -1, "trial_index": 85}, "uniqueid": "MTK3129:34V1S5K3GT8HQ9V4BJYEY7VPPLC69W", "dateTime": 1520029103903}, {"current_trial": 86, "trialdata": {"rt": -1, "trial_type": "single-stim", "stimulus": "<p id=\"stim\">2</p>", "internal_node_id": "0.0-60.0-8.0", "time_elapsed": 604108, "key_press": -1, "trial_index": 86}, "uniqueid": "MTK3129:34V1S5K3GT8HQ9V4BJYEY7VPPLC69W", "dateTime": 1520029104906}, {"current_trial": 87, "trialdata": {"rt": -1, "trial_type": "single-stim", "stimulus": "<p id=\"stim\">1</p>", "internal_node_id": "0.0-60.0-9.0", "time_elapsed": 605109, "key_press": -1, "trial_index": 87}, "uniqueid": "MTK3129:34V1S5K3GT8HQ9V4BJYEY7VPPLC69W", "dateTime": 1520029105907}, {"current_trial": 88, "trialdata": {"rt": -1, "trial_type": "single-stim", "stimulus": "<p id=\"stim\">+</p>", "internal_node_id": "0.0-61.0-0.0", "time_elapsed": 606611, "key_press": -1, "type": "FIXATION", "trial_index": 88}, "uniqueid": "MTK3129:34V1S5K3GT8HQ9V4BJYEY7VPPLC69W", "dateTime": 1520029107409}, {"current_trial": 89, "trialdata": {"rt": -1000, "trial_type": "single-audio", "word": "crab", "stimulus": "/static/audio/wordpool/CRAB.wav", "conditions": [12, 1600, "a", 24000], "internal_node_id": "0.0-62.0", "trial": 2, "time_elapsed": 609207, "serialpos": 0, "key_press": -1, "wordID": 396, "type": "PRES_AUD", "trial_index": 89}, "uniqueid": "MTK3129:34V1S5K3GT8HQ9V4BJYEY7VPPLC69W", "dateTime": 1520029110005}, {"current_trial": 90, "trialdata": {"rt": -1000, "trial_type": "single-audio", "word": "scribble", "stimulus": "/static/audio/wordpool/SCRIBBLE.wav", "conditions": [12, 1600, "a", 24000], "internal_node_id": "0.0-63.0", "trial": 2, "time_elapsed": 611684, "serialpos": 1, "key_press": -1, "wordID": 1255, "type": "PRES_AUD", "trial_index": 90}, "uniqueid": "MTK3129:34V1S5K3GT8HQ9V4BJYEY7VPPLC69W", "dateTime": 1520029112482}, {"current_trial": 91, "trialdata": {"rt": -1000, "trial_type": "single-audio", "word": "freckle", "stimulus": "/static/audio/wordpool/FRECKLE.wav", "conditions": [12, 1600, "a", 24000], "internal_node_id": "0.0-64.0", "trial": 2, "time_elapsed": 614098, "serialpos": 2, "key_press": -1, "wordID": 601, "type": "PRES_AUD", "trial_index": 91}, "uniqueid": "MTK3129:34V1S5K3GT8HQ9V4BJYEY7VPPLC69W", "dateTime": 1520029114896}, {"current_trial": 92, "trialdata": {"rt": -1000, "trial_type": "single-audio", "word": "rocket", "stimulus": "/static/audio/wordpool/ROCKET.wav", "conditions": [12, 1600, "a", 24000], "internal_node_id": "0.0-65.0", "trial": 2, "time_elapsed": 616638, "serialpos": 3, "key_press": -1, "wordID": 1201, "type": "PRES_AUD", "trial_index": 92}, "uniqueid": "MTK3129:34V1S5K3GT8HQ9V4BJYEY7VPPLC69W", "dateTime": 1520029117436}, {"current_trial": 93, "trialdata": {"rt": -1000, "trial_type": "single-audio", "word": "eyelash", "stimulus": "/static/audio/wordpool/EYELASH.wav", "conditions": [12, 1600, "a", 24000], "internal_node_id": "0.0-66.0", "trial": 2, "time_elapsed": 619231, "serialpos": 4, "key_press": -1, "wordID": 545, "type": "PRES_AUD", "trial_index": 93}, "uniqueid": "MTK3129:34V1S5K3GT8HQ9V4BJYEY7VPPLC69W", "dateTime": 1520029120029}, {"current_trial": 94, "trialdata": {"rt": -1000, "trial_type": "single-audio", "word": "omelet", "stimulus": "/static/audio/wordpool/OMELET.wav", "conditions": [12, 1600, "a", 24000], "internal_node_id": "0.0-67.0", "trial": 2, "time_elapsed": 621659, "serialpos": 5, "key_press": -1, "wordID": 975, "type": "PRES_AUD", "trial_index": 94}, "uniqueid": "MTK3129:34V1S5K3GT8HQ9V4BJYEY7VPPLC69W", "dateTime": 1520029122457}, {"current_trial": 95, "trialdata": {"rt": -1000, "trial_type": "single-audio", "word": "pasta", "stimulus": "/static/audio/wordpool/PASTA.wav", "conditions": [12, 1600, "a", 24000], "internal_node_id": "0.0-68.0", "trial": 2, "time_elapsed": 624186, "serialpos": 6, "key_press": -1, "wordID": 1020, "type": "PRES_AUD", "trial_index": 95}, "uniqueid": "MTK3129:34V1S5K3GT8HQ9V4BJYEY7VPPLC69W", "dateTime": 1520029124984}, {"current_trial": 96, "trialdata": {"rt": -1000, "trial_type": "single-audio", "word": "cocoon", "stimulus": "/static/audio/wordpool/COCOON.wav", "conditions": [12, 1600, "a", 24000], "internal_node_id": "0.0-69.0", "trial": 2, "time_elapsed": 626775, "serialpos": 7, "key_press": -1, "wordID": 338, "type": "PRES_AUD", "trial_index": 96}, "uniqueid": "MTK3129:34V1S5K3GT8HQ9V4BJYEY7VPPLC69W", "dateTime": 1520029127573}, {"current_trial": 97, "trialdata": {"rt": -1000, "trial_type": "single-audio", "word": "rabbit", "stimulus": "/static/audio/wordpool/RABBIT.wav", "conditions": [12, 1600, "a", 24000], "internal_node_id": "0.0-70.0", "trial": 2, "time_elapsed": 629193, "serialpos": 8, "key_press": -1, "wordID": 1151, "type": "PRES_AUD", "trial_index": 97}, "uniqueid": "MTK3129:34V1S5K3GT8HQ9V4BJYEY7VPPLC69W", "dateTime": 1520029129991}, {"current_trial": 98, "trialdata": {"rt": -1000, "trial_type": "single-audio", "word": "lagoon", "stimulus": "/static/audio/wordpool/LAGOON.wav", "conditions": [12, 1600, "a", 24000], "internal_node_id": "0.0-71.0", "trial": 2, "time_elapsed": 631625, "serialpos": 9, "key_press": -1, "wordID": 794, "type": "PRES_AUD", "trial_index": 98}, "uniqueid": "MTK3129:34V1S5K3GT8HQ9V4BJYEY7VPPLC69W", "dateTime": 1520029132423}, {"current_trial": 99, "trialdata": {"rt": -1000, "trial_type": "single-audio", "word": "citrus", "stimulus": "/static/audio/wordpool/CITRUS.wav", "conditions": [12, 1600, "a", 24000], "internal_node_id": "0.0-72.0", "trial": 2, "time_elapsed": 634120, "serialpos": 10, "key_press": -1, "wordID": 312, "type": "PRES_AUD", "trial_index": 99}, "uniqueid": "MTK3129:34V1S5K3GT8HQ9V4BJYEY7VPPLC69W", "dateTime": 1520029134919}, {"current_trial": 100, "trialdata": {"rt": -1000, "trial_type": "single-audio", "word": "salmon", "stimulus": "/static/audio/wordpool/SALMON.wav", "conditions": [12, 1600, "a", 24000], "internal_node_id": "0.0-73.0", "trial": 2, "time_elapsed": 636611, "serialpos": 11, "key_press": -1, "wordID": 1226, "type": "PRES_AUD", "trial_index": 100}, "uniqueid": "MTK3129:34V1S5K3GT8HQ9V4BJYEY7VPPLC69W", "dateTime": 1520029137409}, {"current_trial": 101, "trialdata": {"rt": -1, "trial_type": "single-stim", "stimulus": "", "internal_node_id": "0.0-74.0-0.0", "time_elapsed": 637899, "key_press": -1, "type": "PRE_RECALL_DELAY", "trial_index": 101}, "uniqueid": "MTK3129:34V1S5K3GT8HQ9V4BJYEY7VPPLC69W", "dateTime": 1520029138697}, {"current_trial": 102, "trialdata": {"rt": -1000, "trial_type": "single-audio", "stimulus": "/static/audio/400Hz.wav", "internal_node_id": "0.0-75.0", "time_elapsed": 638403, "key_press": -1, "type": "PRE_RECALL_ALERT", "trial_index": 102}, "uniqueid": "MTK3129:34V1S5K3GT8HQ9V4BJYEY7VPPLC69W", "dateTime": 1520029139201}, {"current_trial": 103, "trialdata": {"rt": [3221, 7420, 9759, 14478, 21651, 29860, 32477, 50017, 59098], "recwords": ["salmon", "citrus", "pasta", "rocket", "lagoon", "cap", "crap", "scirrple", "eyelash"], "key_times": [1047, 1223, 1664, 1923, 2142, 2474, 3221, 3884, 4486, 4799, 4998, 5351, 5586, 5988, 7028, 7420, 8077, 8342, 8572, 8892, 9085, 9759, 10487, 11772, 12262, 12847, 13206, 13463, 14478, 15752, 15933, 16401, 17155, 17912, 19625, 19858, 20779, 20937, 21230, 21651, 25821, 26063, 26355, 27914, 29436, 29860, 30510, 30725, 30923, 31384, 32477, 36066, 36820, 37285, 42479, 43183, 43388, 45305, 46675, 46840, 48694, 48919, 49099, 50017, 55831, 56322, 56508, 56868, 57036, 57308, 57905, 59098], "trial_type": "free-recall", "conditions": [12, 1600, "a", 24000], "internal_node_id": "0.0-76.0-0.0", "key_presses": [83, 65, 76, 77, 79, 78, 13, 67, 73, 84, 82, 85, 83, 222, 8, 13, 80, 65, 83, 84, 65, 13, 82, 79, 67, 75, 69, 84, 13, 76, 65, 71, 79, 78, 8, 8, 79, 79, 78, 13, 67, 65, 80, 8, 80, 13, 67, 82, 65, 80, 13, 83, 8, 67, 8, 83, 67, 73, 82, 82, 80, 76, 69, 13, 69, 89, 69, 76, 65, 83, 72, 13], "trial": 2, "time_elapsed": 698410, "type": "FREE_RECALL", "trial_index": 103}, "uniqueid": "MTK3129:34V1S5K3GT8HQ9V4BJYEY7VPPLC69W", "dateTime": 1520029199208}, {"current_trial": 104, "trialdata": {"rt": 6667, "trial_type": "text", "internal_node_id": "0.0-77.0", "time_elapsed": 707080, "key_press": 13, "type": "INSTRUCTIONS", "trial_index": 104}, "uniqueid": "MTK3129:34V1S5K3GT8HQ9V4BJYEY7VPPLC69W", "dateTime": 1520029207878}, {"current_trial": 105, "trialdata": {"rt": [2120, 8089, 10517], "trial_type": "math-distractor", "key_times": [1675, 2120, 4434, 4660, 8089, 9872, 10064, 10517], "responses": ["9", "17", "14"], "num2": [7, 9, 7, 2], "num3": [1, 6, 5, 9], "conditions": [24, 1600, "a", 12000], "internal_node_id": "0.0-78.0", "key_presses": [105, 13, 97, 103, 13, 97, 100, 13], "trial": 3, "time_elapsed": 721083, "type": "DISTRACTOR", "trial_index": 105, "num1": [1, 2, 2, 4]}, "uniqueid": "MTK3129:34V1S5K3GT8HQ9V4BJYEY7VPPLC69W", "dateTime": 1520029221881}, {"current_trial": 106, "trialdata": {"rt": -1, "trial_type": "single-stim", "stimulus": "<p id=\"stim\">10</p>", "internal_node_id": "0.0-79.0-0.0", "time_elapsed": 724086, "key_press": -1, "trial_index": 106}, "uniqueid": "MTK3129:34V1S5K3GT8HQ9V4BJYEY7VPPLC69W", "dateTime": 1520029224884}, {"current_trial": 107, "trialdata": {"rt": -1, "trial_type": "single-stim", "stimulus": "<p id=\"stim\">9</p>", "internal_node_id": "0.0-79.0-1.0", "time_elapsed": 725088, "key_press": -1, "trial_index": 107}, "uniqueid": "MTK3129:34V1S5K3GT8HQ9V4BJYEY7VPPLC69W", "dateTime": 1520029225886}, {"current_trial": 108, "trialdata": {"rt": -1, "trial_type": "single-stim", "stimulus": "<p id=\"stim\">8</p>", "internal_node_id": "0.0-79.0-2.0", "time_elapsed": 726089, "key_press": -1, "trial_index": 108}, "uniqueid": "MTK3129:34V1S5K3GT8HQ9V4BJYEY7VPPLC69W", "dateTime": 1520029226887}, {"current_trial": 109, "trialdata": {"rt": -1, "trial_type": "single-stim", "stimulus": "<p id=\"stim\">7</p>", "internal_node_id": "0.0-79.0-3.0", "time_elapsed": 727093, "key_press": -1, "trial_index": 109}, "uniqueid": "MTK3129:34V1S5K3GT8HQ9V4BJYEY7VPPLC69W", "dateTime": 1520029227891}, {"current_trial": 110, "trialdata": {"rt": -1, "trial_type": "single-stim", "stimulus": "<p id=\"stim\">6</p>", "internal_node_id": "0.0-79.0-4.0", "time_elapsed": 728096, "key_press": -1, "trial_index": 110}, "uniqueid": "MTK3129:34V1S5K3GT8HQ9V4BJYEY7VPPLC69W", "dateTime": 1520029228894}, {"current_trial": 111, "trialdata": {"rt": -1, "trial_type": "single-stim", "stimulus": "<p id=\"stim\">5</p>", "internal_node_id": "0.0-79.0-5.0", "time_elapsed": 729098, "key_press": -1, "trial_index": 111}, "uniqueid": "MTK3129:34V1S5K3GT8HQ9V4BJYEY7VPPLC69W", "dateTime": 1520029229896}, {"current_trial": 112, "trialdata": {"rt": -1, "trial_type": "single-stim", "stimulus": "<p id=\"stim\">4</p>", "internal_node_id": "0.0-79.0-6.0", "time_elapsed": 730099, "key_press": -1, "trial_index": 112}, "uniqueid": "MTK3129:34V1S5K3GT8HQ9V4BJYEY7VPPLC69W", "dateTime": 1520029230897}, {"current_trial": 113, "trialdata": {"rt": -1, "trial_type": "single-stim", "stimulus": "<p id=\"stim\">3</p>", "internal_node_id": "0.0-79.0-7.0", "time_elapsed": 731100, "key_press": -1, "trial_index": 113}, "uniqueid": "MTK3129:34V1S5K3GT8HQ9V4BJYEY7VPPLC69W", "dateTime": 1520029231898}, {"current_trial": 114, "trialdata": {"rt": -1, "trial_type": "single-stim", "stimulus": "<p id=\"stim\">2</p>", "internal_node_id": "0.0-79.0-8.0", "time_elapsed": 732100, "key_press": -1, "trial_index": 114}, "uniqueid": "MTK3129:34V1S5K3GT8HQ9V4BJYEY7VPPLC69W", "dateTime": 1520029232898}, {"current_trial": 115, "trialdata": {"rt": -1, "trial_type": "single-stim", "stimulus": "<p id=\"stim\">1</p>", "internal_node_id": "0.0-79.0-9.0", "time_elapsed": 733101, "key_press": -1, "trial_index": 115}, "uniqueid": "MTK3129:34V1S5K3GT8HQ9V4BJYEY7VPPLC69W", "dateTime": 1520029233899}, {"current_trial": 116, "trialdata": {"rt": -1, "trial_type": "single-stim", "stimulus": "<p id=\"stim\">+</p>", "internal_node_id": "0.0-80.0-0.0", "time_elapsed": 734601, "key_press": -1, "type": "FIXATION", "trial_index": 116}, "uniqueid": "MTK3129:34V1S5K3GT8HQ9V4BJYEY7VPPLC69W", "dateTime": 1520029235399}, {"current_trial": 117, "trialdata": {"rt": -1000, "trial_type": "single-audio", "word": "truck", "stimulus": "/static/audio/wordpool/TRUCK.wav", "conditions": [24, 1600, "a", 12000], "internal_node_id": "0.0-81.0", "trial": 3, "time_elapsed": 737056, "serialpos": 0, "key_press": -1, "wordID": 1511, "type": "PRES_AUD", "trial_index": 117}, "uniqueid": "MTK3129:34V1S5K3GT8HQ9V4BJYEY7VPPLC69W", "dateTime": 1520029237854}, {"current_trial": 118, "trialdata": {"rt": -1000, "trial_type": "single-audio", "word": "donkey", "stimulus": "/static/audio/wordpool/DONKEY.wav", "conditions": [24, 1600, "a", 12000], "internal_node_id": "0.0-82.0", "trial": 3, "time_elapsed": 739787, "serialpos": 1, "key_press": -1, "wordID": 483, "type": "PRES_AUD", "trial_index": 118}, "uniqueid": "MTK3129:34V1S5K3GT8HQ9V4BJYEY7VPPLC69W", "dateTime": 1520029240585}, {"current_trial": 119, "trialdata": {"rt": -1000, "trial_type": "single-audio", "word": "parrot", "stimulus": "/static/audio/wordpool/PARROT.wav", "conditions": [24, 1600, "a", 12000], "internal_node_id": "0.0-83.0", "trial": 3, "time_elapsed": 742399, "serialpos": 2, "key_press": -1, "wordID": 1014, "type": "PRES_AUD", "trial_index": 119}, "uniqueid": "MTK3129:34V1S5K3GT8HQ9V4BJYEY7VPPLC69W", "dateTime": 1520029243197}, {"current_trial": 120, "trialdata": {"rt": -1000, "trial_type": "single-audio", "word": "waitress", "stimulus": "/static/audio/wordpool/WAITRESS.wav", "conditions": [24, 1600, "a", 12000], "internal_node_id": "0.0-84.0", "trial": 3, "time_elapsed": 744890, "serialpos": 3, "key_press": -1, "wordID": 1580, "type": "PRES_AUD", "trial_index": 120}, "uniqueid": "MTK3129:34V1S5K3GT8HQ9V4BJYEY7VPPLC69W", "dateTime": 1520029245688}, {"current_trial": 121, "trialdata": {"rt": -1000, "trial_type": "single-audio", "word": "dress", "stimulus": "/static/audio/wordpool/DRESS.wav", "conditions": [24, 1600, "a", 12000], "internal_node_id": "0.0-85.0", "trial": 3, "time_elapsed": 747568, "serialpos": 4, "key_press": -1, "wordID": 494, "type": "PRES_AUD", "trial_index": 121}, "uniqueid": "MTK3129:34V1S5K3GT8HQ9V4BJYEY7VPPLC69W", "dateTime": 1520029248393}, {"current_trial": 122, "trialdata": {"rt": -1000, "trial_type": "single-audio", "word": "tutu", "stimulus": "/static/audio/wordpool/TUTU.wav", "conditions": [24, 1600, "a", 12000], "internal_node_id": "0.0-86.0", "trial": 3, "time_elapsed": 750229, "serialpos": 5, "key_press": -1, "wordID": 1523, "type": "PRES_AUD", "trial_index": 122}, "uniqueid": "MTK3129:34V1S5K3GT8HQ9V4BJYEY7VPPLC69W", "dateTime": 1520029251027}, {"current_trial": 123, "trialdata": {"rt": -1000, "trial_type": "single-audio", "word": "piston", "stimulus": "/static/audio/wordpool/PISTON.wav", "conditions": [24, 1600, "a", 12000], "internal_node_id": "0.0-87.0", "trial": 3, "time_elapsed": 752693, "serialpos": 6, "key_press": -1, "wordID": 1075, "type": "PRES_AUD", "trial_index": 123}, "uniqueid": "MTK3129:34V1S5K3GT8HQ9V4BJYEY7VPPLC69W", "dateTime": 1520029253491}, {"current_trial": 124, "trialdata": {"rt": -1000, "trial_type": "single-audio", "word": "daughter", "stimulus": "/static/audio/wordpool/DAUGHTER.wav", "conditions": [24, 1600, "a", 12000], "internal_node_id": "0.0-88.0", "trial": 3, "time_elapsed": 755379, "serialpos": 7, "key_press": -1, "wordID": 441, "type": "PRES_AUD", "trial_index": 124}, "uniqueid": "MTK3129:34V1S5K3GT8HQ9V4BJYEY7VPPLC69W", "dateTime": 1520029256177}, {"current_trial": 125, "trialdata": {"rt": -1000, "trial_type": "single-audio", "word": "author", "stimulus": "/static/audio/wordpool/AUTHOR.wav", "conditions": [24, 1600, "a", 12000], "internal_node_id": "0.0-89.0", "trial": 3, "time_elapsed": 758148, "serialpos": 8, "key_press": -1, "wordID": 60, "type": "PRES_AUD", "trial_index": 125}, "uniqueid": "MTK3129:34V1S5K3GT8HQ9V4BJYEY7VPPLC69W", "dateTime": 1520029258946}, {"current_trial": 126, "trialdata": {"rt": -1000, "trial_type": "single-audio", "word": "custard", "stimulus": "/static/audio/wordpool/CUSTARD.wav", "conditions": [24, 1600, "a", 12000], "internal_node_id": "0.0-90.0", "trial": 3, "time_elapsed": 760857, "serialpos": 9, "key_press": -1, "wordID": 428, "type": "PRES_AUD", "trial_index": 126}, "uniqueid": "MTK3129:34V1S5K3GT8HQ9V4BJYEY7VPPLC69W", "dateTime": 1520029261655}, {"current_trial": 127, "trialdata": {"rt": -1000, "trial_type": "single-audio", "word": "child", "stimulus": "/static/audio/wordpool/CHILD.wav", "conditions": [24, 1600, "a", 12000], "internal_node_id": "0.0-91.0", "trial": 3, "time_elapsed": 763508, "serialpos": 10, "key_press": -1, "wordID": 298, "type": "PRES_AUD", "trial_index": 127}, "uniqueid": "MTK3129:34V1S5K3GT8HQ9V4BJYEY7VPPLC69W", "dateTime": 1520029264306}, {"current_trial": 128, "trialdata": {"rt": -1000, "trial_type": "single-audio", "word": "termite", "stimulus": "/static/audio/wordpool/TERMITE.wav", "conditions": [24, 1600, "a", 12000], "internal_node_id": "0.0-92.0", "trial": 3, "time_elapsed": 766188, "serialpos": 11, "key_press": -1, "wordID": 1450, "type": "PRES_AUD", "trial_index": 128}, "uniqueid": "MTK3129:34V1S5K3GT8HQ9V4BJYEY7VPPLC69W", "dateTime": 1520029266986}, {"current_trial": 129, "trialdata": {"rt": -1000, "trial_type": "single-audio", "word": "silk", "stimulus": "/static/audio/wordpool/SILK.wav", "conditions": [24, 1600, "a", 12000], "internal_node_id": "0.0-93.0", "trial": 3, "time_elapsed": 768630, "serialpos": 12, "key_press": -1, "wordID": 1306, "type": "PRES_AUD", "trial_index": 129}, "uniqueid": "MTK3129:34V1S5K3GT8HQ9V4BJYEY7VPPLC69W", "dateTime": 1520029269428}, {"current_trial": 130, "trialdata": {"rt": -1000, "trial_type": "single-audio", "word": "brother", "stimulus": "/static/audio/wordpool/BROTHER.wav", "conditions": [24, 1600, "a", 12000], "internal_node_id": "0.0-94.0", "trial": 3, "time_elapsed": 771242, "serialpos": 13, "key_press": -1, "wordID": 178, "type": "PRES_AUD", "trial_index": 130}, "uniqueid": "MTK3129:34V1S5K3GT8HQ9V4BJYEY7VPPLC69W", "dateTime": 1520029272040}, {"current_trial": 131, "trialdata": {"rt": -1000, "trial_type": "single-audio", "word": "uncle", "stimulus": "/static/audio/wordpool/UNCLE.wav", "conditions": [24, 1600, "a", 12000], "internal_node_id": "0.0-95.0", "trial": 3, "time_elapsed": 773700, "serialpos": 14, "key_press": -1, "wordID": 1535, "type": "PRES_AUD", "trial_index": 131}, "uniqueid": "MTK3129:34V1S5K3GT8HQ9V4BJYEY7VPPLC69W", "dateTime": 1520029274498}, {"current_trial": 132, "trialdata": {"rt": -1000, "trial_type": "single-audio", "word": "parent", "stimulus": "/static/audio/wordpool/PARENT.wav", "conditions": [24, 1600, "a", 12000], "internal_node_id": "0.0-96.0", "trial": 3, "time_elapsed": 776446, "serialpos": 15, "key_press": -1, "wordID": 1012, "type": "PRES_AUD", "trial_index": 132}, "uniqueid": "MTK3129:34V1S5K3GT8HQ9V4BJYEY7VPPLC69W", "dateTime": 1520029277245}, {"current_trial": 133, "trialdata": {"rt": -1000, "trial_type": "single-audio", "word": "pigeon", "stimulus": "/static/audio/wordpool/PIGEON.wav", "conditions": [24, 1600, "a", 12000], "internal_node_id": "0.0-97.0", "trial": 3, "time_elapsed": 779115, "serialpos": 16, "key_press": -1, "wordID": 1064, "type": "PRES_AUD", "trial_index": 133}, "uniqueid": "MTK3129:34V1S5K3GT8HQ9V4BJYEY7VPPLC69W", "dateTime": 1520029279914}, {"current_trial": 134, "trialdata": {"rt": -1000, "trial_type": "single-audio", "word": "queen", "stimulus": "/static/audio/wordpool/QUEEN.wav", "conditions": [24, 1600, "a", 12000], "internal_node_id": "0.0-98.0", "trial": 3, "time_elapsed": 781764, "serialpos": 17, "key_press": -1, "wordID": 1148, "type": "PRES_AUD", "trial_index": 134}, "uniqueid": "MTK3129:34V1S5K3GT8HQ9V4BJYEY7VPPLC69W", "dateTime": 1520029282562}, {"current_trial": 135, "trialdata": {"rt": -1000, "trial_type": "single-audio", "word": "shortcake", "stimulus": "/static/audio/wordpool/SHORTCAKE.wav", "conditions": [24, 1600, "a", 12000], "internal_node_id": "0.0-99.0", "trial": 3, "time_elapsed": 784197, "serialpos": 18, "key_press": -1, "wordID": 1291, "type": "PRES_AUD", "trial_index": 135}, "uniqueid": "MTK3129:34V1S5K3GT8HQ9V4BJYEY7VPPLC69W", "dateTime": 1520029284995}, {"current_trial": 136, "trialdata": {"rt": -1000, "trial_type": "single-audio", "word": "clothes", "stimulus": "/static/audio/wordpool/CLOTHES.wav", "conditions": [24, 1600, "a", 12000], "internal_node_id": "0.0-100.0", "trial": 3, "time_elapsed": 786698, "serialpos": 19, "key_press": -1, "wordID": 326, "type": "PRES_AUD", "trial_index": 136}, "uniqueid": "MTK3129:34V1S5K3GT8HQ9V4BJYEY7VPPLC69W", "dateTime": 1520029287496}, {"current_trial": 137, "trialdata": {"rt": -1000, "trial_type": "single-audio", "word": "snack", "stimulus": "/static/audio/wordpool/SNACK.wav", "conditions": [24, 1600, "a", 12000], "internal_node_id": "0.0-101.0", "trial": 3, "time_elapsed": 789446, "serialpos": 20, "key_press": -1, "wordID": 1330, "type": "PRES_AUD", "trial_index": 137}, "uniqueid": "MTK3129:34V1S5K3GT8HQ9V4BJYEY7VPPLC69W", "dateTime": 1520029290244}, {"current_trial": 138, "trialdata": {"rt": -1000, "trial_type": "single-audio", "word": "princess", "stimulus": "/static/audio/wordpool/PRINCESS.wav", "conditions": [24, 1600, "a", 12000], "internal_node_id": "0.0-102.0", "trial": 3, "time_elapsed": 791896, "serialpos": 21, "key_press": -1, "wordID": 1124, "type": "PRES_AUD", "trial_index": 138}, "uniqueid": "MTK3129:34V1S5K3GT8HQ9V4BJYEY7VPPLC69W", "dateTime": 1520029292694}, {"current_trial": 139, "trialdata": {"rt": -1000, "trial_type": "single-audio", "word": "butcher", "stimulus": "/static/audio/wordpool/BUTCHER.wav", "conditions": [24, 1600, "a", 12000], "internal_node_id": "0.0-103.0", "trial": 3, "time_elapsed": 794430, "serialpos": 22, "key_press": -1, "wordID": 202, "type": "PRES_AUD", "trial_index": 139}, "uniqueid": "MTK3129:34V1S5K3GT8HQ9V4BJYEY7VPPLC69W", "dateTime": 1520029295228}, {"current_trial": 140, "trialdata": {"rt": -1000, "trial_type": "single-audio", "word": "friend", "stimulus": "/static/audio/wordpool/FRIEND.wav", "conditions": [24, 1600, "a", 12000], "internal_node_id": "0.0-104.0", "trial": 3, "time_elapsed": 796977, "serialpos": 23, "key_press": -1, "wordID": 605, "type": "PRES_AUD", "trial_index": 140}, "uniqueid": "MTK3129:34V1S5K3GT8HQ9V4BJYEY7VPPLC69W", "dateTime": 1520029297775}, {"current_trial": 141, "trialdata": {"rt": -1, "trial_type": "single-stim", "stimulus": "", "internal_node_id": "0.0-105.0-0.0", "time_elapsed": 798348, "key_press": -1, "type": "PRE_RECALL_DELAY", "trial_index": 141}, "uniqueid": "MTK3129:34V1S5K3GT8HQ9V4BJYEY7VPPLC69W", "dateTime": 1520029299146}, {"current_trial": 142, "trialdata": {"rt": -1000, "trial_type": "single-audio", "stimulus": "/static/audio/400Hz.wav", "internal_node_id": "0.0-106.0", "time_elapsed": 798850, "key_press": -1, "type": "PRE_RECALL_ALERT", "trial_index": 142}, "uniqueid": "MTK3129:34V1S5K3GT8HQ9V4BJYEY7VPPLC69W", "dateTime": 1520029299648}, {"current_trial": 143, "trialdata": {"rt": [7005, 12548, 15811, 20462, 22956, 25594, 28783, 30873, 33833, 38090, 38459, 44358, 48989, 53582], "recwords": ["friend", "piston", "daughter", "brother", "uncle", "parent", "waitress", "dress", "girl", "queen", "", "princess", "custord", "wail"], "key_times": [794, 995, 1518, 1700, 1928, 2208, 2795, 3032, 3446, 3707, 4223, 4451, 5231, 5413, 5575, 5742, 5888, 6062, 7005, 10299, 10559, 10909, 11277, 11780, 12102, 12548, 13374, 13621, 13964, 14343, 14505, 14699, 14905, 15074, 15811, 17384, 17635, 18195, 18782, 18984, 19258, 19416, 20462, 20958, 21188, 21522, 22283, 22657, 22956, 23604, 23908, 24185, 24439, 24793, 25051, 25594, 26421, 26561, 27056, 27333, 27525, 27710, 27896, 28050, 28783, 29427, 29625, 29816, 30006, 30169, 30873, 31298, 31558, 32163, 32832, 33133, 33619, 33833, 35901, 36190, 36495, 37385, 37902, 38090, 38459, 39064, 39464, 39916, 40165, 40465, 40666, 40879, 41031, 41946, 43889, 44358, 44910, 45479, 45735, 45916, 46429, 46763, 47253, 48989, 52123, 52291, 52607, 52915, 53582, 56712, 56896, 57237, 57421, 57886, 59423], "trial_type": "free-recall", "conditions": [24, 1600, "a", 12000], "internal_node_id": "0.0-107.0-0.0", "key_presses": [70, 82, 73, 69, 78, 68, 80, 73, 83, 84, 79, 76, 8, 8, 8, 8, 8, 8, 13, 80, 73, 83, 84, 79, 78, 13, 68, 65, 85, 71, 72, 84, 69, 82, 13, 66, 82, 79, 84, 72, 69, 82, 13, 85, 78, 67, 76, 69, 32, 80, 65, 82, 69, 78, 84, 13, 87, 65, 73, 84, 82, 69, 83, 83, 13, 68, 82, 69, 83, 83, 13, 71, 84, 8, 73, 82, 76, 32, 81, 85, 69, 69, 78, 32, 13, 80, 82, 73, 78, 67, 69, 83, 83, 8, 83, 13, 67, 85, 83, 84, 79, 82, 68, 13, 87, 65, 73, 76, 13, 80, 65, 82, 69, 78, 84], "trial": 3, "time_elapsed": 858853, "type": "FREE_RECALL", "trial_index": 143}, "uniqueid": "MTK3129:34V1S5K3GT8HQ9V4BJYEY7VPPLC69W", "dateTime": 1520029359655}, {"current_trial": 144, "trialdata": {"rt": 10206, "trial_type": "text", "internal_node_id": "0.0-108.0", "time_elapsed": 871065, "key_press": 13, "type": "INSTRUCTIONS", "trial_index": 144}, "uniqueid": "MTK3129:34V1S5K3GT8HQ9V4BJYEY7VPPLC69W", "dateTime": 1520029371863}, {"current_trial": 145, "trialdata": {"rt": [2685, 4631, 6838, 9334], "trial_type": "math-distractor", "key_times": [2076, 2297, 2685, 4180, 4347, 4631, 6237, 6510, 6838, 8609, 8824, 9334, 11442, 11648], "responses": ["17", "14", "19", "10"], "num2": [8, 1, 9, 7, 9], "num3": [8, 5, 1, 1, 9], "conditions": [12, 800, "a", 12000], "internal_node_id": "0.0-109.0", "key_presses": [97, 103, 13, 97, 100, 13, 97, 105, 13, 97, 96, 13, 98, 100], "trial": 4, "time_elapsed": 885072, "type": "DISTRACTOR", "trial_index": 145, "num1": [1, 8, 9, 2, 6]}, "uniqueid": "MTK3129:34V1S5K3GT8HQ9V4BJYEY7VPPLC69W", "dateTime": 1520029385870}, {"current_trial": 146, "trialdata": {"rt": -1, "trial_type": "single-stim", "stimulus": "<p id=\"stim\">10</p>", "internal_node_id": "0.0-110.0-0.0", "time_elapsed": 888075, "key_press": -1, "trial_index": 146}, "uniqueid": "MTK3129:34V1S5K3GT8HQ9V4BJYEY7VPPLC69W", "dateTime": 1520029388873}, {"current_trial": 147, "trialdata": {"rt": -1, "trial_type": "single-stim", "stimulus": "<p id=\"stim\">9</p>", "internal_node_id": "0.0-110.0-1.0", "time_elapsed": 889076, "key_press": -1, "trial_index": 147}, "uniqueid": "MTK3129:34V1S5K3GT8HQ9V4BJYEY7VPPLC69W", "dateTime": 1520029389874}, {"current_trial": 148, "trialdata": {"rt": -1, "trial_type": "single-stim", "stimulus": "<p id=\"stim\">8</p>", "internal_node_id": "0.0-110.0-2.0", "time_elapsed": 890078, "key_press": -1, "trial_index": 148}, "uniqueid": "MTK3129:34V1S5K3GT8HQ9V4BJYEY7VPPLC69W", "dateTime": 1520029390876}, {"current_trial": 149, "trialdata": {"rt": -1, "trial_type": "single-stim", "stimulus": "<p id=\"stim\">7</p>", "internal_node_id": "0.0-110.0-3.0", "time_elapsed": 891078, "key_press": -1, "trial_index": 149}, "uniqueid": "MTK3129:34V1S5K3GT8HQ9V4BJYEY7VPPLC69W", "dateTime": 1520029391876}, {"current_trial": 150, "trialdata": {"rt": -1, "trial_type": "single-stim", "stimulus": "<p id=\"stim\">6</p>", "internal_node_id": "0.0-110.0-4.0", "time_elapsed": 892079, "key_press": -1, "trial_index": 150}, "uniqueid": "MTK3129:34V1S5K3GT8HQ9V4BJYEY7VPPLC69W", "dateTime": 1520029392877}, {"current_trial": 151, "trialdata": {"rt": -1, "trial_type": "single-stim", "stimulus": "<p id=\"stim\">5</p>", "internal_node_id": "0.0-110.0-5.0", "time_elapsed": 893081, "key_press": -1, "trial_index": 151}, "uniqueid": "MTK3129:34V1S5K3GT8HQ9V4BJYEY7VPPLC69W", "dateTime": 1520029393879}, {"current_trial": 152, "trialdata": {"rt": -1, "trial_type": "single-stim", "stimulus": "<p id=\"stim\">4</p>", "internal_node_id": "0.0-110.0-6.0", "time_elapsed": 894082, "key_press": -1, "trial_index": 152}, "uniqueid": "MTK3129:34V1S5K3GT8HQ9V4BJYEY7VPPLC69W", "dateTime": 1520029394880}, {"current_trial": 153, "trialdata": {"rt": -1, "trial_type": "single-stim", "stimulus": "<p id=\"stim\">3</p>", "internal_node_id": "0.0-110.0-7.0", "time_elapsed": 895085, "key_press": -1, "trial_index": 153}, "uniqueid": "MTK3129:34V1S5K3GT8HQ9V4BJYEY7VPPLC69W", "dateTime": 1520029395883}, {"current_trial": 154, "trialdata": {"rt": -1, "trial_type": "single-stim", "stimulus": "<p id=\"stim\">2</p>", "internal_node_id": "0.0-110.0-8.0", "time_elapsed": 896087, "key_press": -1, "trial_index": 154}, "uniqueid": "MTK3129:34V1S5K3GT8HQ9V4BJYEY7VPPLC69W", "dateTime": 1520029396885}, {"current_trial": 155, "trialdata": {"rt": -1, "trial_type": "single-stim", "stimulus": "<p id=\"stim\">1</p>", "internal_node_id": "0.0-110.0-9.0", "time_elapsed": 897088, "key_press": -1, "trial_index": 155}, "uniqueid": "MTK3129:34V1S5K3GT8HQ9V4BJYEY7VPPLC69W", "dateTime": 1520029397886}, {"current_trial": 156, "trialdata": {"rt": -1, "trial_type": "single-stim", "stimulus": "<p id=\"stim\">+</p>", "internal_node_id": "0.0-111.0-0.0", "time_elapsed": 898590, "key_press": -1, "type": "FIXATION", "trial_index": 156}, "uniqueid": "MTK3129:34V1S5K3GT8HQ9V4BJYEY7VPPLC69W", "dateTime": 1520029399388}, {"current_trial": 157, "trialdata": {"rt": -1000, "trial_type": "single-audio", "word": "radish", "stimulus": "/static/audio/wordpool/RADISH.wav", "conditions": [12, 800, "a", 12000], "internal_node_id": "0.0-112.0", "trial": 4, "time_elapsed": 900519, "serialpos": 0, "key_press": -1, "wordID": 1157, "type": "PRES_AUD", "trial_index": 157}, "uniqueid": "MTK3129:34V1S5K3GT8HQ9V4BJYEY7VPPLC69W", "dateTime": 1520029401317}, {"current_trial": 158, "trialdata": {"rt": -1000, "trial_type": "single-audio", "word": "turnip", "stimulus": "/static/audio/wordpool/TURNIP.wav", "conditions": [12, 800, "a", 12000], "internal_node_id": "0.0-113.0", "trial": 4, "time_elapsed": 902371, "serialpos": 1, "key_press": -1, "wordID": 1520, "type": "PRES_AUD", "trial_index": 158}, "uniqueid": "MTK3129:34V1S5K3GT8HQ9V4BJYEY7VPPLC69W", "dateTime": 1520029403169}, {"current_trial": 159, "trialdata": {"rt": -1000, "trial_type": "single-audio", "word": "france", "stimulus": "/static/audio/wordpool/FRANCE.wav", "conditions": [12, 800, "a", 12000], "internal_node_id": "0.0-114.0", "trial": 4, "time_elapsed": 904320, "serialpos": 2, "key_press": -1, "wordID": 600, "type": "PRES_AUD", "trial_index": 159}, "uniqueid": "MTK3129:34V1S5K3GT8HQ9V4BJYEY7VPPLC69W", "dateTime": 1520029405119}, {"current_trial": 160, "trialdata": {"rt": -1000, "trial_type": "single-audio", "word": "server", "stimulus": "/static/audio/wordpool/SERVER.wav", "conditions": [12, 800, "a", 12000], "internal_node_id": "0.0-115.0", "trial": 4, "time_elapsed": 906317, "serialpos": 3, "key_press": -1, "wordID": 1271, "type": "PRES_AUD", "trial_index": 160}, "uniqueid": "MTK3129:34V1S5K3GT8HQ9V4BJYEY7VPPLC69W", "dateTime": 1520029407115}, {"current_trial": 161, "trialdata": {"rt": -1000, "trial_type": "single-audio", "word": "temple", "stimulus": "/static/audio/wordpool/TEMPLE.wav", "conditions": [12, 800, "a", 12000], "internal_node_id": "0.0-116.0", "trial": 4, "time_elapsed": 907984, "serialpos": 4, "key_press": -1, "wordID": 1447, "type": "PRES_AUD", "trial_index": 161}, "uniqueid": "MTK3129:34V1S5K3GT8HQ9V4BJYEY7VPPLC69W", "dateTime": 1520029408782}, {"current_trial": 162, "trialdata": {"rt": 238.6666666667452, "trial_type": "single-audio", "word": "blackboard", "stimulus": "/static/audio/wordpool/BLACKBOARD.wav", "conditions": [12, 800, "a", 12000], "internal_node_id": "0.0-117.0", "trial": 4, "time_elapsed": 909785, "serialpos": 5, "key_press": 175, "wordID": 132, "type": "PRES_AUD", "trial_index": 162}, "uniqueid": "MTK3129:34V1S5K3GT8HQ9V4BJYEY7VPPLC69W", "dateTime": 1520029410583}, {"current_trial": 163, "trialdata": {"rt": -1000, "trial_type": "single-audio", "word": "pistol", "stimulus": "/static/audio/wordpool/PISTOL.wav", "conditions": [12, 800, "a", 12000], "internal_node_id": "0.0-118.0", "trial": 4, "time_elapsed": 911684, "serialpos": 6, "key_press": -1, "wordID": 1074, "type": "PRES_AUD", "trial_index": 163}, "uniqueid": "MTK3129:34V1S5K3GT8HQ9V4BJYEY7VPPLC69W", "dateTime": 1520029412482}, {"current_trial": 164, "trialdata": {"rt": -1000, "trial_type": "single-audio", "word": "japan", "stimulus": "/static/audio/wordpool/JAPAN.wav", "conditions": [12, 800, "a", 12000], "internal_node_id": "0.0-119.0", "trial": 4, "time_elapsed": 913475, "serialpos": 7, "key_press": -1, "wordID": 748, "type": "PRES_AUD", "trial_index": 164}, "uniqueid": "MTK3129:34V1S5K3GT8HQ9V4BJYEY7VPPLC69W", "dateTime": 1520029414273}, {"current_trial": 165, "trialdata": {"rt": -1000, "trial_type": "single-audio", "word": "toaster", "stimulus": "/static/audio/wordpool/TOASTER.wav", "conditions": [12, 800, "a", 12000], "internal_node_id": "0.0-120.0", "trial": 4, "time_elapsed": 915375, "serialpos": 8, "key_press": -1, "wordID": 1471, "type": "PRES_AUD", "trial_index": 165}, "uniqueid": "MTK3129:34V1S5K3GT8HQ9V4BJYEY7VPPLC69W", "dateTime": 1520029416173}, {"current_trial": 166, "trialdata": {"rt": -1000, "trial_type": "single-audio", "word": "dashboard", "stimulus": "/static/audio/wordpool/DASHBOARD.wav", "conditions": [12, 800, "a", 12000], "internal_node_id": "0.0-121.0", "trial": 4, "time_elapsed": 917151, "serialpos": 9, "key_press": -1, "wordID": 440, "type": "PRES_AUD", "trial_index": 166}, "uniqueid": "MTK3129:34V1S5K3GT8HQ9V4BJYEY7VPPLC69W", "dateTime": 1520029417949}, {"current_trial": 167, "trialdata": {"rt": -1000, "trial_type": "single-audio", "word": "scarf", "stimulus": "/static/audio/wordpool/SCARF.wav", "conditions": [12, 800, "a", 12000], "internal_node_id": "0.0-122.0", "trial": 4, "time_elapsed": 918915, "serialpos": 10, "key_press": -1, "wordID": 1245, "type": "PRES_AUD", "trial_index": 167}, "uniqueid": "MTK3129:34V1S5K3GT8HQ9V4BJYEY7VPPLC69W", "dateTime": 1520029419713}, {"current_trial": 168, "trialdata": {"rt": -1000, "trial_type": "single-audio", "word": "shovel", "stimulus": "/static/audio/wordpool/SHOVEL.wav", "conditions": [12, 800, "a", 12000], "internal_node_id": "0.0-123.0", "trial": 4, "time_elapsed": 920791, "serialpos": 11, "key_press": -1, "wordID": 1294, "type": "PRES_AUD", "trial_index": 168}, "uniqueid": "MTK3129:34V1S5K3GT8HQ9V4BJYEY7VPPLC69W", "dateTime": 1520029421589}, {"current_trial": 169, "trialdata": {"rt": -1, "trial_type": "single-stim", "stimulus": "", "internal_node_id": "0.0-124.0-0.0", "time_elapsed": 922095, "key_press": -1, "type": "PRE_RECALL_DELAY", "trial_index": 169}, "uniqueid": "MTK3129:34V1S5K3GT8HQ9V4BJYEY7VPPLC69W", "dateTime": 1520029422895}, {"current_trial": 170, "trialdata": {"rt": -1000, "trial_type": "single-audio", "stimulus": "/static/audio/400Hz.wav", "internal_node_id": "0.0-125.0", "time_elapsed": 922600, "key_press": -1, "type": "PRE_RECALL_ALERT", "trial_index": 170}, "uniqueid": "MTK3129:34V1S5K3GT8HQ9V4BJYEY7VPPLC69W", "dateTime": 1520029423398}, {"current_trial": 171, "trialdata": {"rt": [3120, 9225, 13818, 20396, 41489, 45574], "recwords": ["shovel", "pistol", "japan", "friend", "temple", "server"], "key_times": [720, 1130, 1538, 1854, 2125, 2634, 3120, 3954, 4230, 4580, 4811, 5409, 6826, 9225, 12011, 12275, 12609, 12754, 13061, 13818, 16813, 17015, 17538, 17751, 17949, 19912, 20396, 31400, 31864, 32317, 32546, 34596, 34801, 34992, 35166, 35834, 36166, 36480, 36907, 37220, 38097, 38602, 38635, 38666, 38698, 38730, 38763, 38798, 38826, 38859, 38896, 39363, 39576, 40078, 40480, 40689, 41048, 41489, 43556, 43735, 43935, 44224, 44412, 44533, 45574], "trial_type": "free-recall", "conditions": [12, 800, "a", 12000], "internal_node_id": "0.0-126.0-0.0", "key_presses": [83, 72, 79, 86, 69, 76, 13, 80, 73, 83, 84, 79, 76, 13, 74, 65, 80, 65, 78, 13, 70, 82, 73, 69, 78, 68, 13, 67, 73, 84, 82, 8, 8, 8, 8, 79, 67, 69, 65, 78, 8, 8, 8, 8, 8, 8, 8, 8, 8, 8, 8, 84, 69, 77, 80, 76, 69, 13, 83, 69, 82, 86, 69, 82, 13], "trial": 4, "time_elapsed": 982604, "type": "FREE_RECALL", "trial_index": 171}, "uniqueid": "MTK3129:34V1S5K3GT8HQ9V4BJYEY7VPPLC69W", "dateTime": 1520029483420}, {"current_trial": 172, "trialdata": {"rt": 2909, "trial_type": "text", "internal_node_id": "0.0-127.0", "time_elapsed": 987533, "key_press": 13, "type": "INSTRUCTIONS", "trial_index": 172}, "uniqueid": "MTK3129:34V1S5K3GT8HQ9V4BJYEY7VPPLC69W", "dateTime": 1520029488331}, {"current_trial": 173, "trialdata": {"rt": [2224, 5064, 9540, 12862, 15749, 18939, 21140], "trial_type": "math-distractor", "key_times": [1545, 1751, 2224, 4299, 4492, 5064, 8980, 9224, 9540, 12281, 12439, 12862, 15109, 15380, 15749, 18314, 18630, 18939, 20484, 20669, 21140, 23340, 23548], "responses": ["14", "22", "19", "11", "17", "19", "12"], "num2": [6, 9, 7, 4, 5, 5, 7, 7], "num3": [2, 5, 8, 3, 7, 8, 3, 5], "conditions": [24, 1600, "a", 24000], "internal_node_id": "0.0-128.0", "key_presses": [97, 100, 13, 98, 98, 13, 97, 105, 13, 97, 97, 13, 97, 103, 13, 97, 105, 13, 97, 98, 13, 97, 104], "trial": 5, "time_elapsed": 1013537, "type": "DISTRACTOR", "trial_index": 173, "num1": [6, 8, 4, 3, 5, 6, 2, 5]}, "uniqueid": "MTK3129:34V1S5K3GT8HQ9V4BJYEY7VPPLC69W", "dateTime": 1520029514335}, {"current_trial": 174, "trialdata": {"rt": -1, "trial_type": "single-stim", "stimulus": "<p id=\"stim\">10</p>", "internal_node_id": "0.0-129.0-0.0", "time_elapsed": 1016539, "key_press": -1, "trial_index": 174}, "uniqueid": "MTK3129:34V1S5K3GT8HQ9V4BJYEY7VPPLC69W", "dateTime": 1520029517337}, {"current_trial": 175, "trialdata": {"rt": -1, "trial_type": "single-stim", "stimulus": "<p id=\"stim\">9</p>", "internal_node_id": "0.0-129.0-1.0", "time_elapsed": 1017542, "key_press": -1, "trial_index": 175}, "uniqueid": "MTK3129:34V1S5K3GT8HQ9V4BJYEY7VPPLC69W", "dateTime": 1520029518340}, {"current_trial": 176, "trialdata": {"rt": -1, "trial_type": "single-stim", "stimulus": "<p id=\"stim\">8</p>", "internal_node_id": "0.0-129.0-2.0", "time_elapsed": 1018546, "key_press": -1, "trial_index": 176}, "uniqueid": "MTK3129:34V1S5K3GT8HQ9V4BJYEY7VPPLC69W", "dateTime": 1520029519344}, {"current_trial": 177, "trialdata": {"rt": -1, "trial_type": "single-stim", "stimulus": "<p id=\"stim\">7</p>", "internal_node_id": "0.0-129.0-3.0", "time_elapsed": 1019547, "key_press": -1, "trial_index": 177}, "uniqueid": "MTK3129:34V1S5K3GT8HQ9V4BJYEY7VPPLC69W", "dateTime": 1520029520345}, {"current_trial": 178, "trialdata": {"rt": -1, "trial_type": "single-stim", "stimulus": "<p id=\"stim\">6</p>", "internal_node_id": "0.0-129.0-4.0", "time_elapsed": 1020548, "key_press": -1, "trial_index": 178}, "uniqueid": "MTK3129:34V1S5K3GT8HQ9V4BJYEY7VPPLC69W", "dateTime": 1520029521346}, {"current_trial": 179, "trialdata": {"rt": -1, "trial_type": "single-stim", "stimulus": "<p id=\"stim\">5</p>", "internal_node_id": "0.0-129.0-5.0", "time_elapsed": 1021549, "key_press": -1, "trial_index": 179}, "uniqueid": "MTK3129:34V1S5K3GT8HQ9V4BJYEY7VPPLC69W", "dateTime": 1520029522347}, {"current_trial": 180, "trialdata": {"rt": -1, "trial_type": "single-stim", "stimulus": "<p id=\"stim\">4</p>", "internal_node_id": "0.0-129.0-6.0", "time_elapsed": 1022548, "key_press": -1, "trial_index": 180}, "uniqueid": "MTK3129:34V1S5K3GT8HQ9V4BJYEY7VPPLC69W", "dateTime": 1520029523346}, {"current_trial": 181, "trialdata": {"rt": -1, "trial_type": "single-stim", "stimulus": "<p id=\"stim\">3</p>", "internal_node_id": "0.0-129.0-7.0", "time_elapsed": 1023550, "key_press": -1, "trial_index": 181}, "uniqueid": "MTK3129:34V1S5K3GT8HQ9V4BJYEY7VPPLC69W", "dateTime": 1520029524348}, {"current_trial": 182, "trialdata": {"rt": -1, "trial_type": "single-stim", "stimulus": "<p id=\"stim\">2</p>", "internal_node_id": "0.0-129.0-8.0", "time_elapsed": 1024551, "key_press": -1, "trial_index": 182}, "uniqueid": "MTK3129:34V1S5K3GT8HQ9V4BJYEY7VPPLC69W", "dateTime": 1520029525349}, {"current_trial": 183, "trialdata": {"rt": -1, "trial_type": "single-stim", "stimulus": "<p id=\"stim\">1</p>", "internal_node_id": "0.0-129.0-9.0", "time_elapsed": 1025552, "key_press": -1, "trial_index": 183}, "uniqueid": "MTK3129:34V1S5K3GT8HQ9V4BJYEY7VPPLC69W", "dateTime": 1520029526350}, {"current_trial": 184, "trialdata": {"rt": -1, "trial_type": "single-stim", "stimulus": "<p id=\"stim\">+</p>", "internal_node_id": "0.0-130.0-0.0", "time_elapsed": 1027057, "key_press": -1, "type": "FIXATION", "trial_index": 184}, "uniqueid": "MTK3129:34V1S5K3GT8HQ9V4BJYEY7VPPLC69W", "dateTime": 1520029527855}, {"current_trial": 185, "trialdata": {"rt": -1000, "trial_type": "single-audio", "word": "wasp", "stimulus": "/static/audio/wordpool/WASP.wav", "conditions": [24, 1600, "a", 24000], "internal_node_id": "0.0-131.0", "trial": 5, "time_elapsed": 1029705, "serialpos": 0, "key_press": -1, "wordID": 1592, "type": "PRES_AUD", "trial_index": 185}, "uniqueid": "MTK3129:34V1S5K3GT8HQ9V4BJYEY7VPPLC69W", "dateTime": 1520029530503}, {"current_trial": 186, "trialdata": {"rt": -1000, "trial_type": "single-audio", "word": "shelter", "stimulus": "/static/audio/wordpool/SHELTER.wav", "conditions": [24, 1600, "a", 24000], "internal_node_id": "0.0-132.0", "trial": 5, "time_elapsed": 1032117, "serialpos": 1, "key_press": -1, "wordID": 1281, "type": "PRES_AUD", "trial_index": 186}, "uniqueid": "MTK3129:34V1S5K3GT8HQ9V4BJYEY7VPPLC69W", "dateTime": 1520029532915}, {"current_trial": 187, "trialdata": {"rt": -1000, "trial_type": "single-audio", "word": "statue", "stimulus": "/static/audio/wordpool/STATUE.wav", "conditions": [24, 1600, "a", 24000], "internal_node_id": "0.0-133.0", "trial": 5, "time_elapsed": 1034576, "serialpos": 2, "key_press": -1, "wordID": 1373, "type": "PRES_AUD", "trial_index": 187}, "uniqueid": "MTK3129:34V1S5K3GT8HQ9V4BJYEY7VPPLC69W", "dateTime": 1520029535374}, {"current_trial": 188, "trialdata": {"rt": -1000, "trial_type": "single-audio", "word": "bug", "stimulus": "/static/audio/wordpool/BUG.wav", "conditions": [24, 1600, "a", 24000], "internal_node_id": "0.0-134.0", "trial": 5, "time_elapsed": 1037014, "serialpos": 3, "key_press": -1, "wordID": 186, "type": "PRES_AUD", "trial_index": 188}, "uniqueid": "MTK3129:34V1S5K3GT8HQ9V4BJYEY7VPPLC69W", "dateTime": 1520029537812}, {"current_trial": 189, "trialdata": {"rt": -1000, "trial_type": "single-audio", "word": "soda", "stimulus": "/static/audio/wordpool/SODA.wav", "conditions": [24, 1600, "a", 24000], "internal_node_id": "0.0-135.0", "trial": 5, "time_elapsed": 1039789, "serialpos": 4, "key_press": -1, "wordID": 1340, "type": "PRES_AUD", "trial_index": 189}, "uniqueid": "MTK3129:34V1S5K3GT8HQ9V4BJYEY7VPPLC69W", "dateTime": 1520029540587}, {"current_trial": 190, "trialdata": {"rt": -1000, "trial_type": "single-audio", "word": "igloo", "stimulus": "/static/audio/wordpool/IGLOO.wav", "conditions": [24, 1600, "a", 24000], "internal_node_id": "0.0-136.0", "trial": 5, "time_elapsed": 1042575, "serialpos": 5, "key_press": -1, "wordID": 733, "type": "PRES_AUD", "trial_index": 190}, "uniqueid": "MTK3129:34V1S5K3GT8HQ9V4BJYEY7VPPLC69W", "dateTime": 1520029543374}, {"current_trial": 191, "trialdata": {"rt": -1000, "trial_type": "single-audio", "word": "blade", "stimulus": "/static/audio/wordpool/BLADE.wav", "conditions": [24, 1600, "a", 24000], "internal_node_id": "0.0-137.0", "trial": 5, "time_elapsed": 1045048, "serialpos": 6, "key_press": -1, "wordID": 133, "type": "PRES_AUD", "trial_index": 191}, "uniqueid": "MTK3129:34V1S5K3GT8HQ9V4BJYEY7VPPLC69W", "dateTime": 1520029545846}, {"current_trial": 192, "trialdata": {"rt": -1000, "trial_type": "single-audio", "word": "knife", "stimulus": "/static/audio/wordpool/KNIFE.wav", "conditions": [24, 1600, "a", 24000], "internal_node_id": "0.0-138.0", "trial": 5, "time_elapsed": 1047737, "serialpos": 7, "key_press": -1, "wordID": 784, "type": "PRES_AUD", "trial_index": 192}, "uniqueid": "MTK3129:34V1S5K3GT8HQ9V4BJYEY7VPPLC69W", "dateTime": 1520029548535}, {"current_trial": 193, "trialdata": {"rt": -1000, "trial_type": "single-audio", "word": "spider", "stimulus": "/static/audio/wordpool/SPIDER.wav", "conditions": [24, 1600, "a", 24000], "internal_node_id": "0.0-139.0", "trial": 5, "time_elapsed": 1050461, "serialpos": 8, "key_press": -1, "wordID": 1350, "type": "PRES_AUD", "trial_index": 193}, "uniqueid": "MTK3129:34V1S5K3GT8HQ9V4BJYEY7VPPLC69W", "dateTime": 1520029551259}, {"current_trial": 194, "trialdata": {"rt": -1000, "trial_type": "single-audio", "word": "thief", "stimulus": "/static/audio/wordpool/THIEF.wav", "conditions": [24, 1600, "a", 24000], "internal_node_id": "0.0-140.0", "trial": 5, "time_elapsed": 1053251, "serialpos": 9, "key_press": -1, "wordID": 1455, "type": "PRES_AUD", "trial_index": 194}, "uniqueid": "MTK3129:34V1S5K3GT8HQ9V4BJYEY7VPPLC69W", "dateTime": 1520029554049}, {"current_trial": 195, "trialdata": {"rt": -1000, "trial_type": "single-audio", "word": "gavel", "stimulus": "/static/audio/wordpool/GAVEL.wav", "conditions": [24, 1600, "a", 24000], "internal_node_id": "0.0-141.0", "trial": 5, "time_elapsed": 1055909, "serialpos": 10, "key_press": -1, "wordID": 626, "type": "PRES_AUD", "trial_index": 195}, "uniqueid": "MTK3129:34V1S5K3GT8HQ9V4BJYEY7VPPLC69W", "dateTime": 1520029556707}, {"current_trial": 196, "trialdata": {"rt": -1000, "trial_type": "single-audio", "word": "staple", "stimulus": "/static/audio/wordpool/STAPLE.wav", "conditions": [24, 1600, "a", 24000], "internal_node_id": "0.0-142.0", "trial": 5, "time_elapsed": 1058544, "serialpos": 11, "key_press": -1, "wordID": 1370, "type": "PRES_AUD", "trial_index": 196}, "uniqueid": "MTK3129:34V1S5K3GT8HQ9V4BJYEY7VPPLC69W", "dateTime": 1520029559342}, {"current_trial": 197, "trialdata": {"rt": -1000, "trial_type": "single-audio", "word": "apron", "stimulus": "/static/audio/wordpool/APRON.wav", "conditions": [24, 1600, "a", 24000], "internal_node_id": "0.0-143.0", "trial": 5, "time_elapsed": 1061178, "serialpos": 12, "key_press": -1, "wordID": 34, "type": "PRES_AUD", "trial_index": 197}, "uniqueid": "MTK3129:34V1S5K3GT8HQ9V4BJYEY7VPPLC69W", "dateTime": 1520029561976}, {"current_trial": 198, "trialdata": {"rt": -1000, "trial_type": "single-audio", "word": "beef", "stimulus": "/static/audio/wordpool/BEEF.wav", "conditions": [24, 1600, "a", 24000], "internal_node_id": "0.0-144.0", "trial": 5, "time_elapsed": 1063846, "serialpos": 13, "key_press": -1, "wordID": 112, "type": "PRES_AUD", "trial_index": 198}, "uniqueid": "MTK3129:34V1S5K3GT8HQ9V4BJYEY7VPPLC69W", "dateTime": 1520029564644}, {"current_trial": 199, "trialdata": {"rt": -1000, "trial_type": "single-audio", "word": "motor", "stimulus": "/static/audio/wordpool/MOTOR.wav", "conditions": [24, 1600, "a", 24000], "internal_node_id": "0.0-145.0", "trial": 5, "time_elapsed": 1066634, "serialpos": 14, "key_press": -1, "wordID": 921, "type": "PRES_AUD", "trial_index": 199}, "uniqueid": "MTK3129:34V1S5K3GT8HQ9V4BJYEY7VPPLC69W", "dateTime": 1520029567432}, {"current_trial": 200, "trialdata": {"rt": -1000, "trial_type": "single-audio", "word": "forest", "stimulus": "/static/audio/wordpool/FOREST.wav", "conditions": [24, 1600, "a", 24000], "internal_node_id": "0.0-146.0", "trial": 5, "time_elapsed": 1069047, "serialpos": 15, "key_press": -1, "wordID": 592, "type": "PRES_AUD", "trial_index": 200}, "uniqueid": "MTK3129:34V1S5K3GT8HQ9V4BJYEY7VPPLC69W", "dateTime": 1520029569845}, {"current_trial": 201, "trialdata": {"rt": -1000, "trial_type": "single-audio", "word": "flask", "stimulus": "/static/audio/wordpool/FLASK.wav", "conditions": [24, 1600, "a", 24000], "internal_node_id": "0.0-147.0", "trial": 5, "time_elapsed": 1071497, "serialpos": 16, "key_press": -1, "wordID": 575, "type": "PRES_AUD", "trial_index": 201}, "uniqueid": "MTK3129:34V1S5K3GT8HQ9V4BJYEY7VPPLC69W", "dateTime": 1520029572295}, {"current_trial": 202, "trialdata": {"rt": -1000, "trial_type": "single-audio", "word": "outlaw", "stimulus": "/static/audio/wordpool/OUTLAW.wav", "conditions": [24, 1600, "a", 24000], "internal_node_id": "0.0-148.0", "trial": 5, "time_elapsed": 1074008, "serialpos": 17, "key_press": -1, "wordID": 988, "type": "PRES_AUD", "trial_index": 202}, "uniqueid": "MTK3129:34V1S5K3GT8HQ9V4BJYEY7VPPLC69W", "dateTime": 1520029574806}, {"current_trial": 203, "trialdata": {"rt": -1000, "trial_type": "single-audio", "word": "lizard", "stimulus": "/static/audio/wordpool/LIZARD.wav", "conditions": [24, 1600, "a", 24000], "internal_node_id": "0.0-149.0", "trial": 5, "time_elapsed": 1076447, "serialpos": 18, "key_press": -1, "wordID": 833, "type": "PRES_AUD", "trial_index": 203}, "uniqueid": "MTK3129:34V1S5K3GT8HQ9V4BJYEY7VPPLC69W", "dateTime": 1520029577245}, {"current_trial": 204, "trialdata": {"rt": -1000, "trial_type": "single-audio", "word": "brook", "stimulus": "/static/audio/wordpool/BROOK.wav", "conditions": [24, 1600, "a", 24000], "internal_node_id": "0.0-150.0", "trial": 5, "time_elapsed": 1079197, "serialpos": 19, "key_press": -1, "wordID": 176, "type": "PRES_AUD", "trial_index": 204}, "uniqueid": "MTK3129:34V1S5K3GT8HQ9V4BJYEY7VPPLC69W", "dateTime": 1520029579995}, {"current_trial": 205, "trialdata": {"rt": -1000, "trial_type": "single-audio", "word": "river", "stimulus": "/static/audio/wordpool/RIVER.wav", "conditions": [24, 1600, "a", 24000], "internal_node_id": "0.0-151.0", "trial": 5, "time_elapsed": 1081972, "serialpos": 20, "key_press": -1, "wordID": 1193, "type": "PRES_AUD", "trial_index": 205}, "uniqueid": "MTK3129:34V1S5K3GT8HQ9V4BJYEY7VPPLC69W", "dateTime": 1520029582772}, {"current_trial": 206, "trialdata": {"rt": -1000, "trial_type": "single-audio", "word": "sandwich", "stimulus": "/static/audio/wordpool/SANDWICH.wav", "conditions": [24, 1600, "a", 24000], "internal_node_id": "0.0-152.0", "trial": 5, "time_elapsed": 1084643, "serialpos": 21, "key_press": -1, "wordID": 1231, "type": "PRES_AUD", "trial_index": 206}, "uniqueid": "MTK3129:34V1S5K3GT8HQ9V4BJYEY7VPPLC69W", "dateTime": 1520029585441}, {"current_trial": 207, "trialdata": {"rt": -1000, "trial_type": "single-audio", "word": "seafood", "stimulus": "/static/audio/wordpool/SEAFOOD.wav", "conditions": [24, 1600, "a", 24000], "internal_node_id": "0.0-153.0", "trial": 5, "time_elapsed": 1087293, "serialpos": 22, "key_press": -1, "wordID": 1259, "type": "PRES_AUD", "trial_index": 207}, "uniqueid": "MTK3129:34V1S5K3GT8HQ9V4BJYEY7VPPLC69W", "dateTime": 1520029588091}, {"current_trial": 208, "trialdata": {"rt": -1000, "trial_type": "single-audio", "word": "cattle", "stimulus": "/static/audio/wordpool/CATTLE.wav", "conditions": [24, 1600, "a", 24000], "internal_node_id": "0.0-154.0", "trial": 5, "time_elapsed": 1089968, "serialpos": 23, "key_press": -1, "wordID": 260, "type": "PRES_AUD", "trial_index": 208}, "uniqueid": "MTK3129:34V1S5K3GT8HQ9V4BJYEY7VPPLC69W", "dateTime": 1520029590766}, {"current_trial": 209, "trialdata": {"rt": -1, "trial_type": "single-stim", "stimulus": "", "internal_node_id": "0.0-155.0-0.0", "time_elapsed": 1091326, "key_press": -1, "type": "PRE_RECALL_DELAY", "trial_index": 209}, "uniqueid": "MTK3129:34V1S5K3GT8HQ9V4BJYEY7VPPLC69W", "dateTime": 1520029592124}, {"current_trial": 210, "trialdata": {"rt": -1000, "trial_type": "single-audio", "stimulus": "/static/audio/400Hz.wav", "internal_node_id": "0.0-156.0", "time_elapsed": 1091829, "key_press": -1, "type": "PRE_RECALL_ALERT", "trial_index": 210}, "uniqueid": "MTK3129:34V1S5K3GT8HQ9V4BJYEY7VPPLC69W", "dateTime": 1520029592627}, {"current_trial": 211, "trialdata": {"rt": [4237, 7588, 10615, 14752, 17752, 22021, 25382, 27564, 29810, 32354, 35072, 39822], "recwords": ["sandwitch", "seafood", "cattle", "shelter", "statue", "forest", "stabler", "knife", "theif", "blade", "spider", "lizar"], "key_times": [637, 806, 1218, 1565, 2058, 2380, 2708, 2947, 3278, 4237, 4782, 4971, 5107, 5620, 6141, 6280, 6649, 7588, 8051, 8270, 8489, 8649, 9139, 9322, 10615, 12444, 12703, 12974, 13391, 13749, 13971, 14154, 14752, 15267, 15542, 15683, 15852, 16341, 16662, 17752, 18571, 19291, 19969, 20364, 20707, 20911, 21078, 21348, 22021, 22941, 23181, 23287, 23648, 24134, 24486, 24659, 25382, 25922, 26136, 26365, 26686, 26864, 27564, 27960, 28164, 28274, 28553, 28973, 29810, 30576, 30964, 31149, 31434, 31553, 32354, 33107, 33479, 33726, 34093, 34274, 34455, 35072, 35974, 36367, 36789, 36989, 37377, 39822, 43241, 43474, 44669, 44862], "trial_type": "free-recall", "conditions": [24, 1600, "a", 24000], "internal_node_id": "0.0-157.0-0.0", "key_presses": [83, 65, 78, 68, 87, 73, 84, 67, 72, 13, 83, 69, 65, 70, 79, 79, 68, 13, 67, 65, 84, 84, 76, 69, 13, 83, 72, 69, 76, 84, 69, 82, 13, 83, 84, 65, 84, 85, 69, 13, 87, 8, 70, 79, 82, 69, 83, 84, 13, 83, 84, 65, 66, 76, 69, 82, 13, 75, 78, 73, 70, 69, 13, 84, 72, 69, 73, 70, 13, 66, 76, 65, 68, 69, 13, 83, 80, 73, 68, 69, 82, 13, 76, 73, 90, 65, 82, 13, 83, 65, 8, 8], "trial": 5, "time_elapsed": 1151835, "type": "FREE_RECALL", "trial_index": 211}, "uniqueid": "MTK3129:34V1S5K3GT8HQ9V4BJYEY7VPPLC69W", "dateTime": 1520029652637}, {"current_trial": 212, "trialdata": {"rt": 1101, "trial_type": "text", "internal_node_id": "0.0-158.0", "time_elapsed": 1154943, "key_press": 69, "type": "INSTRUCTIONS", "trial_index": 212}, "uniqueid": "MTK3129:34V1S5K3GT8HQ9V4BJYEY7VPPLC69W", "dateTime": 1520029655741}, {"current_trial": 213, "trialdata": {"rt": [3931, 7670, 10946, 13277, 16279, 18426, 20445, 23232], "trial_type": "math-distractor", "key_times": [3513, 3701, 3931, 5544, 6609, 7670, 10314, 10486, 10946, 12753, 12957, 13277, 15600, 15891, 16279, 17910, 18121, 18426, 19805, 19972, 20445, 22395, 22600, 23232], "responses": ["15", "11", "21", "14", "17", "18", "12", "20"], "num2": [4, 4, 3, 4, 5, 6, 1, 8, 2], "num3": [3, 4, 9, 4, 3, 8, 8, 9, 5], "conditions": [24, 800, "a", 24000], "internal_node_id": "0.0-159.0", "key_presses": [97, 101, 13, 97, 97, 13, 98, 97, 13, 97, 100, 13, 97, 103, 13, 97, 104, 13, 97, 98, 13, 98, 96, 13], "trial": 6, "time_elapsed": 1180976, "type": "DISTRACTOR", "trial_index": 213, "num1": [8, 3, 9, 6, 9, 4, 3, 3, 8]}, "uniqueid": "MTK3129:34V1S5K3GT8HQ9V4BJYEY7VPPLC69W", "dateTime": 1520029681774}, {"current_trial": 214, "trialdata": {"rt": -1, "trial_type": "single-stim", "stimulus": "<p id=\"stim\">10</p>", "internal_node_id": "0.0-160.0-0.0", "time_elapsed": 1183977, "key_press": -1, "trial_index": 214}, "uniqueid": "MTK3129:34V1S5K3GT8HQ9V4BJYEY7VPPLC69W", "dateTime": 1520029684775}, {"current_trial": 215, "trialdata": {"rt": -1, "trial_type": "single-stim", "stimulus": "<p id=\"stim\">9</p>", "internal_node_id": "0.0-160.0-1.0", "time_elapsed": 1184979, "key_press": -1, "trial_index": 215}, "uniqueid": "MTK3129:34V1S5K3GT8HQ9V4BJYEY7VPPLC69W", "dateTime": 1520029685777}, {"current_trial": 216, "trialdata": {"rt": -1, "trial_type": "single-stim", "stimulus": "<p id=\"stim\">8</p>", "internal_node_id": "0.0-160.0-2.0", "time_elapsed": 1185980, "key_press": -1, "trial_index": 216}, "uniqueid": "MTK3129:34V1S5K3GT8HQ9V4BJYEY7VPPLC69W", "dateTime": 1520029686778}, {"current_trial": 217, "trialdata": {"rt": -1, "trial_type": "single-stim", "stimulus": "<p id=\"stim\">7</p>", "internal_node_id": "0.0-160.0-3.0", "time_elapsed": 1186982, "key_press": -1, "trial_index": 217}, "uniqueid": "MTK3129:34V1S5K3GT8HQ9V4BJYEY7VPPLC69W", "dateTime": 1520029687780}, {"current_trial": 218, "trialdata": {"rt": -1, "trial_type": "single-stim", "stimulus": "<p id=\"stim\">6</p>", "internal_node_id": "0.0-160.0-4.0", "time_elapsed": 1187984, "key_press": -1, "trial_index": 218}, "uniqueid": "MTK3129:34V1S5K3GT8HQ9V4BJYEY7VPPLC69W", "dateTime": 1520029688782}, {"current_trial": 219, "trialdata": {"rt": -1, "trial_type": "single-stim", "stimulus": "<p id=\"stim\">5</p>", "internal_node_id": "0.0-160.0-5.0", "time_elapsed": 1188984, "key_press": -1, "trial_index": 219}, "uniqueid": "MTK3129:34V1S5K3GT8HQ9V4BJYEY7VPPLC69W", "dateTime": 1520029689782}, {"current_trial": 220, "trialdata": {"rt": -1, "trial_type": "single-stim", "stimulus": "<p id=\"stim\">4</p>", "internal_node_id": "0.0-160.0-6.0", "time_elapsed": 1189987, "key_press": -1, "trial_index": 220}, "uniqueid": "MTK3129:34V1S5K3GT8HQ9V4BJYEY7VPPLC69W", "dateTime": 1520029690785}, {"current_trial": 221, "trialdata": {"rt": -1, "trial_type": "single-stim", "stimulus": "<p id=\"stim\">3</p>", "internal_node_id": "0.0-160.0-7.0", "time_elapsed": 1190988, "key_press": -1, "trial_index": 221}, "uniqueid": "MTK3129:34V1S5K3GT8HQ9V4BJYEY7VPPLC69W", "dateTime": 1520029691786}, {"current_trial": 222, "trialdata": {"rt": -1, "trial_type": "single-stim", "stimulus": "<p id=\"stim\">2</p>", "internal_node_id": "0.0-160.0-8.0", "time_elapsed": 1191989, "key_press": -1, "trial_index": 222}, "uniqueid": "MTK3129:34V1S5K3GT8HQ9V4BJYEY7VPPLC69W", "dateTime": 1520029692787}, {"current_trial": 223, "trialdata": {"rt": -1, "trial_type": "single-stim", "stimulus": "<p id=\"stim\">1</p>", "internal_node_id": "0.0-160.0-9.0", "time_elapsed": 1192989, "key_press": -1, "trial_index": 223}, "uniqueid": "MTK3129:34V1S5K3GT8HQ9V4BJYEY7VPPLC69W", "dateTime": 1520029693787}, {"current_trial": 224, "trialdata": {"rt": -1, "trial_type": "single-stim", "stimulus": "<p id=\"stim\">+</p>", "internal_node_id": "0.0-161.0-0.0", "time_elapsed": 1194489, "key_press": -1, "type": "FIXATION", "trial_index": 224}, "uniqueid": "MTK3129:34V1S5K3GT8HQ9V4BJYEY7VPPLC69W", "dateTime": 1520029695287}, {"current_trial": 225, "trialdata": {"rt": -1000, "trial_type": "single-audio", "word": "forehead", "stimulus": "/static/audio/wordpool/FOREHEAD.wav", "conditions": [24, 800, "a", 24000], "internal_node_id": "0.0-162.0", "trial": 6, "time_elapsed": 1196461, "serialpos": 0, "key_press": -1, "wordID": 591, "type": "PRES_AUD", "trial_index": 225}, "uniqueid": "MTK3129:34V1S5K3GT8HQ9V4BJYEY7VPPLC69W", "dateTime": 1520029697259}, {"current_trial": 226, "trialdata": {"rt": -1000, "trial_type": "single-audio", "word": "muffin", "stimulus": "/static/audio/wordpool/MUFFIN.wav", "conditions": [24, 800, "a", 24000], "internal_node_id": "0.0-163.0", "trial": 6, "time_elapsed": 1198266, "serialpos": 1, "key_press": -1, "wordID": 928, "type": "PRES_AUD", "trial_index": 226}, "uniqueid": "MTK3129:34V1S5K3GT8HQ9V4BJYEY7VPPLC69W", "dateTime": 1520029699064}, {"current_trial": 227, "trialdata": {"rt": -1000, "trial_type": "single-audio", "word": "survey", "stimulus": "/static/audio/wordpool/SURVEY.wav", "conditions": [24, 800, "a", 24000], "internal_node_id": "0.0-164.0", "trial": 6, "time_elapsed": 1200240, "serialpos": 2, "key_press": -1, "wordID": 1413, "type": "PRES_AUD", "trial_index": 227}, "uniqueid": "MTK3129:34V1S5K3GT8HQ9V4BJYEY7VPPLC69W", "dateTime": 1520029701038}, {"current_trial": 228, "trialdata": {"rt": -1000, "trial_type": "single-audio", "word": "scissors", "stimulus": "/static/audio/wordpool/SCISSORS.wav", "conditions": [24, 800, "a", 24000], "internal_node_id": "0.0-165.0", "trial": 6, "time_elapsed": 1201978, "serialpos": 3, "key_press": -1, "wordID": 1249, "type": "PRES_AUD", "trial_index": 228}, "uniqueid": "MTK3129:34V1S5K3GT8HQ9V4BJYEY7VPPLC69W", "dateTime": 1520029702776}, {"current_trial": 229, "trialdata": {"rt": -1000, "trial_type": "single-audio", "word": "tweezers", "stimulus": "/static/audio/wordpool/TWEEZERS.wav", "conditions": [24, 800, "a", 24000], "internal_node_id": "0.0-166.0", "trial": 6, "time_elapsed": 1203739, "serialpos": 4, "key_press": -1, "wordID": 1525, "type": "PRES_AUD", "trial_index": 229}, "uniqueid": "MTK3129:34V1S5K3GT8HQ9V4BJYEY7VPPLC69W", "dateTime": 1520029704538}, {"current_trial": 230, "trialdata": {"rt": -1000, "trial_type": "single-audio", "word": "chest", "stimulus": "/static/audio/wordpool/CHEST.wav", "conditions": [24, 800, "a", 24000], "internal_node_id": "0.0-167.0", "trial": 6, "time_elapsed": 1205359, "serialpos": 5, "key_press": -1, "wordID": 294, "type": "PRES_AUD", "trial_index": 230}, "uniqueid": "MTK3129:34V1S5K3GT8HQ9V4BJYEY7VPPLC69W", "dateTime": 1520029706157}, {"current_trial": 231, "trialdata": {"rt": -1000, "trial_type": "single-audio", "word": "curtain", "stimulus": "/static/audio/wordpool/CURTAIN.wav", "conditions": [24, 800, "a", 24000], "internal_node_id": "0.0-168.0", "trial": 6, "time_elapsed": 1207153, "serialpos": 6, "key_press": -1, "wordID": 426, "type": "PRES_AUD", "trial_index": 231}, "uniqueid": "MTK3129:34V1S5K3GT8HQ9V4BJYEY7VPPLC69W", "dateTime": 1520029707951}, {"current_trial": 232, "trialdata": {"rt": -1000, "trial_type": "single-audio", "word": "window", "stimulus": "/static/audio/wordpool/WINDOW.wav", "conditions": [24, 800, "a", 24000], "internal_node_id": "0.0-169.0", "trial": 6, "time_elapsed": 1209074, "serialpos": 7, "key_press": -1, "wordID": 1610, "type": "PRES_AUD", "trial_index": 232}, "uniqueid": "MTK3129:34V1S5K3GT8HQ9V4BJYEY7VPPLC69W", "dateTime": 1520029709873}, {"current_trial": 233, "trialdata": {"rt": -1000, "trial_type": "single-audio", "word": "salad", "stimulus": "/static/audio/wordpool/SALAD.wav", "conditions": [24, 800, "a", 24000], "internal_node_id": "0.0-170.0", "trial": 6, "time_elapsed": 1210789, "serialpos": 8, "key_press": -1, "wordID": 1223, "type": "PRES_AUD", "trial_index": 233}, "uniqueid": "MTK3129:34V1S5K3GT8HQ9V4BJYEY7VPPLC69W", "dateTime": 1520029711587}, {"current_trial": 234, "trialdata": {"rt": -1000, "trial_type": "single-audio", "word": "transplant", "stimulus": "/static/audio/wordpool/TRANSPLANT.wav", "conditions": [24, 800, "a", 24000], "internal_node_id": "0.0-171.0", "trial": 6, "time_elapsed": 1212708, "serialpos": 9, "key_press": -1, "wordID": 1495, "type": "PRES_AUD", "trial_index": 234}, "uniqueid": "MTK3129:34V1S5K3GT8HQ9V4BJYEY7VPPLC69W", "dateTime": 1520029713506}, {"current_trial": 235, "trialdata": {"rt": -1000, "trial_type": "single-audio", "word": "crutch", "stimulus": "/static/audio/wordpool/CRUTCH.wav", "conditions": [24, 800, "a", 24000], "internal_node_id": "0.0-172.0", "trial": 6, "time_elapsed": 1214664, "serialpos": 10, "key_press": -1, "wordID": 416, "type": "PRES_AUD", "trial_index": 235}, "uniqueid": "MTK3129:34V1S5K3GT8HQ9V4BJYEY7VPPLC69W", "dateTime": 1520029715462}, {"current_trial": 236, "trialdata": {"rt": -1000, "trial_type": "single-audio", "word": "permit", "stimulus": "/static/audio/wordpool/PERMIT.wav", "conditions": [24, 800, "a", 24000], "internal_node_id": "0.0-173.0", "trial": 6, "time_elapsed": 1216620, "serialpos": 11, "key_press": -1, "wordID": 1050, "type": "PRES_AUD", "trial_index": 236}, "uniqueid": "MTK3129:34V1S5K3GT8HQ9V4BJYEY7VPPLC69W", "dateTime": 1520029717418}, {"current_trial": 237, "trialdata": {"rt": -1000, "trial_type": "single-audio", "word": "marsh", "stimulus": "/static/audio/wordpool/MARSH.wav", "conditions": [24, 800, "a", 24000], "internal_node_id": "0.0-174.0", "trial": 6, "time_elapsed": 1218544, "serialpos": 12, "key_press": -1, "wordID": 873, "type": "PRES_AUD", "trial_index": 237}, "uniqueid": "MTK3129:34V1S5K3GT8HQ9V4BJYEY7VPPLC69W", "dateTime": 1520029719342}, {"current_trial": 238, "trialdata": {"rt": -1000, "trial_type": "single-audio", "word": "handbag", "stimulus": "/static/audio/wordpool/HANDBAG.wav", "conditions": [24, 800, "a", 24000], "internal_node_id": "0.0-175.0", "trial": 6, "time_elapsed": 1220291, "serialpos": 13, "key_press": -1, "wordID": 683, "type": "PRES_AUD", "trial_index": 238}, "uniqueid": "MTK3129:34V1S5K3GT8HQ9V4BJYEY7VPPLC69W", "dateTime": 1520029721089}, {"current_trial": 239, "trialdata": {"rt": -1000, "trial_type": "single-audio", "word": "fruit", "stimulus": "/static/audio/wordpool/FRUIT.wav", "conditions": [24, 800, "a", 24000], "internal_node_id": "0.0-176.0", "trial": 6, "time_elapsed": 1222143, "serialpos": 14, "key_press": -1, "wordID": 609, "type": "PRES_AUD", "trial_index": 239}, "uniqueid": "MTK3129:34V1S5K3GT8HQ9V4BJYEY7VPPLC69W", "dateTime": 1520029722941}, {"current_trial": 240, "trialdata": {"rt": -1000, "trial_type": "single-audio", "word": "lake", "stimulus": "/static/audio/wordpool/LAKE.wav", "conditions": [24, 800, "a", 24000], "internal_node_id": "0.0-177.0", "trial": 6, "time_elapsed": 1224058, "serialpos": 15, "key_press": -1, "wordID": 795, "type": "PRES_AUD", "trial_index": 240}, "uniqueid": "MTK3129:34V1S5K3GT8HQ9V4BJYEY7VPPLC69W", "dateTime": 1520029724856}, {"current_trial": 241, "trialdata": {"rt": -1000, "trial_type": "single-audio", "word": "branch", "stimulus": "/static/audio/wordpool/BRANCH.wav", "conditions": [24, 800, "a", 24000], "internal_node_id": "0.0-178.0", "trial": 6, "time_elapsed": 1225740, "serialpos": 16, "key_press": -1, "wordID": 167, "type": "PRES_AUD", "trial_index": 241}, "uniqueid": "MTK3129:34V1S5K3GT8HQ9V4BJYEY7VPPLC69W", "dateTime": 1520029726538}, {"current_trial": 242, "trialdata": {"rt": -1000, "trial_type": "single-audio", "word": "zipper", "stimulus": "/static/audio/wordpool/ZIPPER.wav", "conditions": [24, 800, "a", 24000], "internal_node_id": "0.0-179.0", "trial": 6, "time_elapsed": 1227619, "serialpos": 17, "key_press": -1, "wordID": 1635, "type": "PRES_AUD", "trial_index": 242}, "uniqueid": "MTK3129:34V1S5K3GT8HQ9V4BJYEY7VPPLC69W", "dateTime": 1520029728418}, {"current_trial": 243, "trialdata": {"rt": -1000, "trial_type": "single-audio", "word": "dresser", "stimulus": "/static/audio/wordpool/DRESSER.wav", "conditions": [24, 800, "a", 24000], "internal_node_id": "0.0-180.0", "trial": 6, "time_elapsed": 1229418, "serialpos": 18, "key_press": -1, "wordID": 495, "type": "PRES_AUD", "trial_index": 243}, "uniqueid": "MTK3129:34V1S5K3GT8HQ9V4BJYEY7VPPLC69W", "dateTime": 1520029730216}, {"current_trial": 244, "trialdata": {"rt": -1000, "trial_type": "single-audio", "word": "crib", "stimulus": "/static/audio/wordpool/CRIB.wav", "conditions": [24, 800, "a", 24000], "internal_node_id": "0.0-181.0", "trial": 6, "time_elapsed": 1231197, "serialpos": 19, "key_press": -1, "wordID": 406, "type": "PRES_AUD", "trial_index": 244}, "uniqueid": "MTK3129:34V1S5K3GT8HQ9V4BJYEY7VPPLC69W", "dateTime": 1520029731995}, {"current_trial": 245, "trialdata": {"rt": -1000, "trial_type": "single-audio", "word": "tuba", "stimulus": "/static/audio/wordpool/TUBA.wav", "conditio