{"assignmentId": "3NQL1CS15SFH60IDK3Y29G4FGGKVYK", "workerId": "MTK3567", "questiondata": {"origin": "United States", "strat-rehearsal": "55", "marital": "Divorced", "education": "High school diploma", "ethnicity": "Not Hispanic", "color_depth": 24, "distracted": "No", "wrote-notes": "No", "strat-other": "no", "screen_width": 1366, "avail_screen_width": 1366, "avail_screen_height": 768, "strat-image": "5", "language": "english", "gender": "Female", "age": "55", "gender_other": "", "race": ["White"], "strat-categorize": "40", "pixel_depth": 24, "strat-spatial": "0", "strat-story": "0", "race_other": "", "screen_height": 768}, "bonus": 0, "hitId": "356ZPKYPUHO2EWNN8PK1E4JD9FWPYK", "counterbalance": 2637, "useragent": "Mozilla/5.0 (X11; CrOS x86_64 10176.76.0) AppleWebKit/537.36 (KHTML, like Gecko) Chrome/64.0.3282.190 Safari/537.36", "eventdata": [{"eventtype": "initialized", "interval": 0, "value": null, "timestamp": 1520790535808}, {"eventtype": "window_resize", "interval": 0, "value": [1346, 684], "timestamp": 1520790535808}, {"eventtype": "window_resize", "interval": 39139, "value": [1366, 711], "timestamp": 1520790574947}], "data": [{"current_trial": 0, "trialdata": {"rt": 1576, "trial_type": "text", "internal_node_id": "0.0-0.0", "time_elapsed": 1583, "key_press": 32, "type": "INSTRUCTIONS", "trial_index": 0}, "uniqueid": "MTK3567:3NQL1CS15SFH60IDK3Y29G4FGGKVYK", "dateTime": 1520790546264}, {"current_trial": 1, "trialdata": {"rt": 3447, "trial_type": "text", "internal_node_id": "0.0-1.0", "time_elapsed": 5035, "key_press": 86, "type": "INSTRUCTIONS", "trial_index": 1}, "uniqueid": "MTK3567:3NQL1CS15SFH60IDK3Y29G4FGGKVYK", "dateTime": 1520790549715}, {"current_trial": 2, "trialdata": {"rt": [11805], "trial_type": "audio-test", "responses": ["ocean"], "internal_node_id": "0.0-2.0", "time_elapsed": 16866, "type": "AUDIO_TEST", "trial_index": 2}, "uniqueid": "MTK3567:3NQL1CS15SFH60IDK3Y29G4FGGKVYK", "dateTime": 1520790561545}, {"current_trial": 3, "trialdata": {"rt": [8120], "trial_type": "audio-test", "responses": ["crystal"], "internal_node_id": "0.0-3.0", "time_elapsed": 25009, "type": "AUDIO_TEST", "trial_index": 3}, "uniqueid": "MTK3567:3NQL1CS15SFH60IDK3Y29G4FGGKVYK", "dateTime": 1520790569689}, {"current_trial": 4, "trialdata": {"rt": [11267], "trial_type": "audio-test", "responses": ["spice"], "internal_node_id": "0.0-4.0", "time_elapsed": 36296, "type": "AUDIO_TEST", "trial_index": 4}, "uniqueid": "MTK3567:3NQL1CS15SFH60IDK3Y29G4FGGKVYK", "dateTime": 1520790580975}, {"current_trial": 5, "trialdata": {"rt": 14854, "trial_type": "survey-text", "responses": "{\"Q0\":\"12am\",\"Q1\":\"5am\",\"Q2\":\"5\"}", "internal_node_id": "0.0-5.0", "time_elapsed": 51910, "type": "SLEEP_SURVEY", "trial_index": 5}, "uniqueid": "MTK3567:3NQL1CS15SFH60IDK3Y29G4FGGKVYK", "dateTime": 1520790596589}, {"current_trial": 6, "trialdata": {"rt": 11643, "trial_type": "text", "internal_node_id": "0.0-6.0", "time_elapsed": 64568, "key_press": 32, "type": "INSTRUCTIONS", "trial_index": 6}, "uniqueid": "MTK3567:3NQL1CS15SFH60IDK3Y29G4FGGKVYK", "dateTime": 1520790609249}, {"current_trial": 7, "trialdata": {"rt": 2831, "trial_type": "text", "internal_node_id": "0.0-7.0", "time_elapsed": 67904, "key_press": 32, "type": "INSTRUCTIONS", "trial_index": 7}, "uniqueid": "MTK3567:3NQL1CS15SFH60IDK3Y29G4FGGKVYK", "dateTime": 1520790612584}, {"current_trial": 8, "trialdata": {"rt": 2681, "trial_type": "text", "internal_node_id": "0.0-8.0", "time_elapsed": 71088, "key_press": 32, "type": "INSTRUCTIONS", "trial_index": 8}, "uniqueid": "MTK3567:3NQL1CS15SFH60IDK3Y29G4FGGKVYK", "dateTime": 1520790615769}, {"current_trial": 9, "trialdata": {"rt": [6108, 13595], "trial_type": "math-distractor", "key_times": [5477, 5628, 6108, 11827, 12568, 13595], "responses": ["11", "19"], "num2": [8, 8, 9], "num3": [1, 5, 3], "conditions": [18, 1200, "a", 18000], "internal_node_id": "0.0-9.0", "key_presses": [49, 49, 13, 49, 57, 13], "trial": 0, "time_elapsed": 90112, "type": "DISTRACTOR", "trial_index": 9, "num1": [2, 6, 6]}, "uniqueid": "MTK3567:3NQL1CS15SFH60IDK3Y29G4FGGKVYK", "dateTime": 1520790634792}, {"current_trial": 10, "trialdata": {"rt": -1, "trial_type": "single-stim", "stimulus": "<p id=\"stim\">10</p>", "internal_node_id": "0.0-10.0-0.0", "time_elapsed": 93136, "key_press": -1, "trial_index": 10}, "uniqueid": "MTK3567:3NQL1CS15SFH60IDK3Y29G4FGGKVYK", "dateTime": 1520790637819}, {"current_trial": 11, "trialdata": {"rt": -1, "trial_type": "single-stim", "stimulus": "<p id=\"stim\">9</p>", "internal_node_id": "0.0-10.0-1.0", "time_elapsed": 94148, "key_press": -1, "trial_index": 11}, "uniqueid": "MTK3567:3NQL1CS15SFH60IDK3Y29G4FGGKVYK", "dateTime": 1520790638831}, {"current_trial": 12, "trialdata": {"rt": -1, "trial_type": "single-stim", "stimulus": "<p id=\"stim\">8</p>", "internal_node_id": "0.0-10.0-2.0", "time_elapsed": 95168, "key_press": -1, "trial_index": 12}, "uniqueid": "MTK3567:3NQL1CS15SFH60IDK3Y29G4FGGKVYK", "dateTime": 1520790639849}, {"current_trial": 13, "trialdata": {"rt": -1, "trial_type": "single-stim", "stimulus": "<p id=\"stim\">7</p>", "internal_node_id": "0.0-10.0-3.0", "time_elapsed": 96179, "key_press": -1, "trial_index": 13}, "uniqueid": "MTK3567:3NQL1CS15SFH60IDK3Y29G4FGGKVYK", "dateTime": 1520790640860}, {"current_trial": 14, "trialdata": {"rt": -1, "trial_type": "single-stim", "stimulus": "<p id=\"stim\">6</p>", "internal_node_id": "0.0-10.0-4.0", "time_elapsed": 97202, "key_press": -1, "trial_index": 14}, "uniqueid": "MTK3567:3NQL1CS15SFH60IDK3Y29G4FGGKVYK", "dateTime": 1520790641882}, {"current_trial": 15, "trialdata": {"rt": -1, "trial_type": "single-stim", "stimulus": "<p id=\"stim\">5</p>", "internal_node_id": "0.0-10.0-5.0", "time_elapsed": 98221, "key_press": -1, "trial_index": 15}, "uniqueid": "MTK3567:3NQL1CS15SFH60IDK3Y29G4FGGKVYK", "dateTime": 1520790642901}, {"current_trial": 16, "trialdata": {"rt": -1, "trial_type": "single-stim", "stimulus": "<p id=\"stim\">4</p>", "internal_node_id": "0.0-10.0-6.0", "time_elapsed": 99228, "key_press": -1, "trial_index": 16}, "uniqueid": "MTK3567:3NQL1CS15SFH60IDK3Y29G4FGGKVYK", "dateTime": 1520790643907}, {"current_trial": 17, "trialdata": {"rt": -1, "trial_type": "single-stim", "stimulus": "<p id=\"stim\">3</p>", "internal_node_id": "0.0-10.0-7.0", "time_elapsed": 100234, "key_press": -1, "trial_index": 17}, "uniqueid": "MTK3567:3NQL1CS15SFH60IDK3Y29G4FGGKVYK", "dateTime": 1520790644913}, {"current_trial": 18, "trialdata": {"rt": -1, "trial_type": "single-stim", "stimulus": "<p id=\"stim\">2</p>", "internal_node_id": "0.0-10.0-8.0", "time_elapsed": 101248, "key_press": -1, "trial_index": 18}, "uniqueid": "MTK3567:3NQL1CS15SFH60IDK3Y29G4FGGKVYK", "dateTime": 1520790645933}, {"current_trial": 19, "trialdata": {"rt": -1, "trial_type": "single-stim", "stimulus": "<p id=\"stim\">1</p>", "internal_node_id": "0.0-10.0-9.0", "time_elapsed": 102260, "key_press": -1, "trial_index": 19}, "uniqueid": "MTK3567:3NQL1CS15SFH60IDK3Y29G4FGGKVYK", "dateTime": 1520790646939}, {"current_trial": 20, "trialdata": {"rt": -1, "trial_type": "single-stim", "stimulus": "<p id=\"stim\">+</p>", "internal_node_id": "0.0-11.0-0.0", "time_elapsed": 103766, "key_press": -1, "type": "FIXATION", "trial_index": 20}, "uniqueid": "MTK3567:3NQL1CS15SFH60IDK3Y29G4FGGKVYK", "dateTime": 1520790648446}, {"current_trial": 21, "trialdata": {"rt": -1000, "trial_type": "single-audio", "word": "frame", "stimulus": "/static/audio/wordpool/FRAME.wav", "conditions": [18, 1200, "a", 18000], "internal_node_id": "0.0-12.0", "trial": 0, "time_elapsed": 105948, "serialpos": 0, "key_press": -1, "wordID": 599, "type": "PRES_AUD", "trial_index": 21}, "uniqueid": "MTK3567:3NQL1CS15SFH60IDK3Y29G4FGGKVYK", "dateTime": 1520790650627}, {"current_trial": 22, "trialdata": {"rt": -1000, "trial_type": "single-audio", "word": "lily", "stimulus": "/static/audio/wordpool/LILY.wav", "conditions": [18, 1200, "a", 18000], "internal_node_id": "0.0-13.0", "trial": 0, "time_elapsed": 108300, "serialpos": 1, "key_press": -1, "wordID": 820, "type": "PRES_AUD", "trial_index": 22}, "uniqueid": "MTK3567:3NQL1CS15SFH60IDK3Y29G4FGGKVYK", "dateTime": 1520790652979}, {"current_trial": 23, "trialdata": {"rt": -1000, "trial_type": "single-audio", "word": "powder", "stimulus": "/static/audio/wordpool/POWDER.wav", "conditions": [18, 1200, "a", 18000], "internal_node_id": "0.0-14.0", "trial": 0, "time_elapsed": 110592, "serialpos": 2, "key_press": -1, "wordID": 1116, "type": "PRES_AUD", "trial_index": 23}, "uniqueid": "MTK3567:3NQL1CS15SFH60IDK3Y29G4FGGKVYK", "dateTime": 1520790655271}, {"current_trial": 24, "trialdata": {"rt": -1000, "trial_type": "single-audio", "word": "switch", "stimulus": "/static/audio/wordpool/SWITCH.wav", "conditions": [18, 1200, "a", 18000], "internal_node_id": "0.0-15.0", "trial": 0, "time_elapsed": 112691, "serialpos": 3, "key_press": -1, "wordID": 1421, "type": "PRES_AUD", "trial_index": 24}, "uniqueid": "MTK3567:3NQL1CS15SFH60IDK3Y29G4FGGKVYK", "dateTime": 1520790657371}, {"current_trial": 25, "trialdata": {"rt": -1000, "trial_type": "single-audio", "word": "rifle", "stimulus": "/static/audio/wordpool/RIFLE.wav", "conditions": [18, 1200, "a", 18000], "internal_node_id": "0.0-16.0", "trial": 0, "time_elapsed": 114782, "serialpos": 4, "key_press": -1, "wordID": 1191, "type": "PRES_AUD", "trial_index": 25}, "uniqueid": "MTK3567:3NQL1CS15SFH60IDK3Y29G4FGGKVYK", "dateTime": 1520790659461}, {"current_trial": 26, "trialdata": {"rt": -1000, "trial_type": "single-audio", "word": "cabin", "stimulus": "/static/audio/wordpool/CABIN.wav", "conditions": [18, 1200, "a", 18000], "internal_node_id": "0.0-17.0", "trial": 0, "time_elapsed": 117036, "serialpos": 5, "key_press": -1, "wordID": 210, "type": "PRES_AUD", "trial_index": 26}, "uniqueid": "MTK3567:3NQL1CS15SFH60IDK3Y29G4FGGKVYK", "dateTime": 1520790661715}, {"current_trial": 27, "trialdata": {"rt": -1000, "trial_type": "single-audio", "word": "poet", "stimulus": "/static/audio/wordpool/POET.wav", "conditions": [18, 1200, "a", 18000], "internal_node_id": "0.0-18.0", "trial": 0, "time_elapsed": 119045, "serialpos": 6, "key_press": -1, "wordID": 1094, "type": "PRES_AUD", "trial_index": 27}, "uniqueid": "MTK3567:3NQL1CS15SFH60IDK3Y29G4FGGKVYK", "dateTime": 1520790663725}, {"current_trial": 28, "trialdata": {"rt": -1000, "trial_type": "single-audio", "word": "flipper", "stimulus": "/static/audio/wordpool/FLIPPER.wav", "conditions": [18, 1200, "a", 18000], "internal_node_id": "0.0-19.0", "trial": 0, "time_elapsed": 121269, "serialpos": 7, "key_press": -1, "wordID": 579, "type": "PRES_AUD", "trial_index": 28}, "uniqueid": "MTK3567:3NQL1CS15SFH60IDK3Y29G4FGGKVYK", "dateTime": 1520790665949}, {"current_trial": 29, "trialdata": {"rt": -1000, "trial_type": "single-audio", "word": "pocket", "stimulus": "/static/audio/wordpool/POCKET.wav", "conditions": [18, 1200, "a", 18000], "internal_node_id": "0.0-20.0", "trial": 0, "time_elapsed": 123334, "serialpos": 8, "key_press": -1, "wordID": 1092, "type": "PRES_AUD", "trial_index": 29}, "uniqueid": "MTK3567:3NQL1CS15SFH60IDK3Y29G4FGGKVYK", "dateTime": 1520790668014}, {"current_trial": 30, "trialdata": {"rt": -1000, "trial_type": "single-audio", "word": "bug", "stimulus": "/static/audio/wordpool/BUG.wav", "conditions": [18, 1200, "a", 18000], "internal_node_id": "0.0-21.0", "trial": 0, "time_elapsed": 125629, "serialpos": 9, "key_press": -1, "wordID": 186, "type": "PRES_AUD", "trial_index": 30}, "uniqueid": "MTK3567:3NQL1CS15SFH60IDK3Y29G4FGGKVYK", "dateTime": 1520790670309}, {"current_trial": 31, "trialdata": {"rt": -1000, "trial_type": "single-audio", "word": "suitcase", "stimulus": "/static/audio/wordpool/SUITCASE.wav", "conditions": [18, 1200, "a", 18000], "internal_node_id": "0.0-22.0", "trial": 0, "time_elapsed": 127888, "serialpos": 10, "key_press": -1, "wordID": 1402, "type": "PRES_AUD", "trial_index": 31}, "uniqueid": "MTK3567:3NQL1CS15SFH60IDK3Y29G4FGGKVYK", "dateTime": 1520790672568}, {"current_trial": 32, "trialdata": {"rt": -1000, "trial_type": "single-audio", "word": "champagne", "stimulus": "/static/audio/wordpool/CHAMPAGNE.wav", "conditions": [18, 1200, "a", 18000], "internal_node_id": "0.0-23.0", "trial": 0, "time_elapsed": 130180, "serialpos": 11, "key_press": -1, "wordID": 277, "type": "PRES_AUD", "trial_index": 32}, "uniqueid": "MTK3567:3NQL1CS15SFH60IDK3Y29G4FGGKVYK", "dateTime": 1520790674859}, {"current_trial": 33, "trialdata": {"rt": -1000, "trial_type": "single-audio", "word": "puppy", "stimulus": "/static/audio/wordpool/PUPPY.wav", "conditions": [18, 1200, "a", 18000], "internal_node_id": "0.0-24.0", "trial": 0, "time_elapsed": 132240, "serialpos": 12, "key_press": -1, "wordID": 1143, "type": "PRES_AUD", "trial_index": 33}, "uniqueid": "MTK3567:3NQL1CS15SFH60IDK3Y29G4FGGKVYK", "dateTime": 1520790676920}, {"current_trial": 34, "trialdata": {"rt": -1000, "trial_type": "single-audio", "word": "garbage", "stimulus": "/static/audio/wordpool/GARBAGE.wav", "conditions": [18, 1200, "a", 18000], "internal_node_id": "0.0-25.0", "trial": 0, "time_elapsed": 134419, "serialpos": 13, "key_press": -1, "wordID": 621, "type": "PRES_AUD", "trial_index": 34}, "uniqueid": "MTK3567:3NQL1CS15SFH60IDK3Y29G4FGGKVYK", "dateTime": 1520790679099}, {"current_trial": 35, "trialdata": {"rt": -1000, "trial_type": "single-audio", "word": "handbag", "stimulus": "/static/audio/wordpool/HANDBAG.wav", "conditions": [18, 1200, "a", 18000], "internal_node_id": "0.0-26.0", "trial": 0, "time_elapsed": 136800, "serialpos": 14, "key_press": -1, "wordID": 683, "type": "PRES_AUD", "trial_index": 35}, "uniqueid": "MTK3567:3NQL1CS15SFH60IDK3Y29G4FGGKVYK", "dateTime": 1520790681479}, {"current_trial": 36, "trialdata": {"rt": -1000, "trial_type": "single-audio", "word": "backbone", "stimulus": "/static/audio/wordpool/BACKBONE.wav", "conditions": [18, 1200, "a", 18000], "internal_node_id": "0.0-27.0", "trial": 0, "time_elapsed": 139064, "serialpos": 15, "key_press": -1, "wordID": 65, "type": "PRES_AUD", "trial_index": 36}, "uniqueid": "MTK3567:3NQL1CS15SFH60IDK3Y29G4FGGKVYK", "dateTime": 1520790683743}, {"current_trial": 37, "trialdata": {"rt": -1000, "trial_type": "single-audio", "word": "headband", "stimulus": "/static/audio/wordpool/HEADBAND.wav", "conditions": [18, 1200, "a", 18000], "internal_node_id": "0.0-28.0", "trial": 0, "time_elapsed": 141311, "serialpos": 16, "key_press": -1, "wordID": 695, "type": "PRES_AUD", "trial_index": 37}, "uniqueid": "MTK3567:3NQL1CS15SFH60IDK3Y29G4FGGKVYK", "dateTime": 1520790685990}, {"current_trial": 38, "trialdata": {"rt": -1000, "trial_type": "single-audio", "word": "omelet", "stimulus": "/static/audio/wordpool/OMELET.wav", "conditions": [18, 1200, "a", 18000], "internal_node_id": "0.0-29.0", "trial": 0, "time_elapsed": 143631, "serialpos": 17, "key_press": -1, "wordID": 975, "type": "PRES_AUD", "trial_index": 38}, "uniqueid": "MTK3567:3NQL1CS15SFH60IDK3Y29G4FGGKVYK", "dateTime": 1520790688311}, {"current_trial": 39, "trialdata": {"rt": -1, "trial_type": "single-stim", "stimulus": "", "internal_node_id": "0.0-30.0-0.0", "time_elapsed": 144922, "key_press": -1, "type": "PRE_RECALL_DELAY", "trial_index": 39}, "uniqueid": "MTK3567:3NQL1CS15SFH60IDK3Y29G4FGGKVYK", "dateTime": 1520790689602}, {"current_trial": 40, "trialdata": {"rt": -1000, "trial_type": "single-audio", "stimulus": "/static/audio/400Hz.wav", "internal_node_id": "0.0-31.0", "time_elapsed": 145426, "key_press": -1, "type": "PRE_RECALL_ALERT", "trial_index": 40}, "uniqueid": "MTK3567:3NQL1CS15SFH60IDK3Y29G4FGGKVYK", "dateTime": 1520790690105}, {"current_trial": 41, "trialdata": {"rt": [4827, 8750, 15439, 20228, 23920, 30033, 35113, 41798, 46929, 53847], "recwords": ["omlet", "puppy", "champaign", "lilly", "poet", "garbage", "flipper", "cabin", "rifle", "bug"], "key_times": [2593, 2958, 3771, 3956, 4280, 4827, 6228, 6634, 7100, 7272, 8057, 8750, 9716, 10096, 10480, 10983, 13097, 13493, 13849, 14561, 14781, 15439, 18171, 18408, 18761, 18935, 19336, 20228, 22345, 22546, 22968, 23381, 23920, 26565, 26974, 27465, 28241, 28462, 29189, 29453, 30033, 32400, 32651, 32933, 33393, 33545, 34177, 34442, 35113, 38824, 39101, 39461, 40263, 41007, 41798, 43158, 44787, 45266, 45602, 46010, 46929, 52348, 52935, 53214, 53847], "trial_type": "free-recall", "conditions": [18, 1200, "a", 18000], "internal_node_id": "0.0-32.0-0.0", "key_presses": [79, 77, 76, 69, 84, 13, 80, 85, 80, 80, 89, 13, 67, 72, 65, 77, 80, 65, 73, 71, 78, 13, 76, 73, 76, 76, 89, 13, 80, 79, 69, 84, 13, 71, 65, 82, 66, 65, 71, 69, 13, 70, 76, 73, 80, 80, 69, 82, 13, 67, 65, 66, 73, 78, 13, 82, 73, 70, 76, 69, 13, 66, 85, 71, 13], "trial": 0, "time_elapsed": 205451, "type": "FREE_RECALL", "trial_index": 41}, "uniqueid": "MTK3567:3NQL1CS15SFH60IDK3Y29G4FGGKVYK", "dateTime": 1520790750145}, {"current_trial": 42, "trialdata": {"rt": 1243, "trial_type": "text", "internal_node_id": "0.0-33.0", "time_elapsed": 208715, "key_press": 32, "type": "INSTRUCTIONS", "trial_index": 42}, "uniqueid": "MTK3567:3NQL1CS15SFH60IDK3Y29G4FGGKVYK", "dateTime": 1520790753394}, {"current_trial": 43, "trialdata": {"rt": [4029, 10146, 12930, 16743], "trial_type": "math-distractor", "key_times": [3329, 4029, 9074, 9398, 10146, 12054, 12355, 12930, 15689, 16073, 16743], "responses": ["9", "18", "12", "18"], "num2": [1, 4, 3, 7, 4], "num3": [3, 5, 3, 7, 3], "conditions": [18, 1200, "a", 18000], "internal_node_id": "0.0-34.0", "key_presses": [57, 13, 49, 56, 13, 49, 50, 13, 49, 56, 13], "trial": 1, "time_elapsed": 228726, "type": "DISTRACTOR", "trial_index": 43, "num1": [5, 9, 6, 4, 1]}, "uniqueid": "MTK3567:3NQL1CS15SFH60IDK3Y29G4FGGKVYK", "dateTime": 1520790773405}, {"current_trial": 44, "trialdata": {"rt": -1, "trial_type": "single-stim", "stimulus": "<p id=\"stim\">10</p>", "internal_node_id": "0.0-35.0-0.0", "time_elapsed": 231732, "key_press": -1, "trial_index": 44}, "uniqueid": "MTK3567:3NQL1CS15SFH60IDK3Y29G4FGGKVYK", "dateTime": 1520790776412}, {"current_trial": 45, "trialdata": {"rt": -1, "trial_type": "single-stim", "stimulus": "<p id=\"stim\">9</p>", "internal_node_id": "0.0-35.0-1.0", "time_elapsed": 232737, "key_press": -1, "trial_index": 45}, "uniqueid": "MTK3567:3NQL1CS15SFH60IDK3Y29G4FGGKVYK", "dateTime": 1520790777417}, {"current_trial": 46, "trialdata": {"rt": -1, "trial_type": "single-stim", "stimulus": "<p id=\"stim\">8</p>", "internal_node_id": "0.0-35.0-2.0", "time_elapsed": 233743, "key_press": -1, "trial_index": 46}, "uniqueid": "MTK3567:3NQL1CS15SFH60IDK3Y29G4FGGKVYK", "dateTime": 1520790778423}, {"current_trial": 47, "trialdata": {"rt": -1, "trial_type": "single-stim", "stimulus": "<p id=\"stim\">7</p>", "internal_node_id": "0.0-35.0-3.0", "time_elapsed": 234750, "key_press": -1, "trial_index": 47}, "uniqueid": "MTK3567:3NQL1CS15SFH60IDK3Y29G4FGGKVYK", "dateTime": 1520790779430}, {"current_trial": 48, "trialdata": {"rt": -1, "trial_type": "single-stim", "stimulus": "<p id=\"stim\">6</p>", "internal_node_id": "0.0-35.0-4.0", "time_elapsed": 235756, "key_press": -1, "trial_index": 48}, "uniqueid": "MTK3567:3NQL1CS15SFH60IDK3Y29G4FGGKVYK", "dateTime": 1520790780436}, {"current_trial": 49, "trialdata": {"rt": -1, "trial_type": "single-stim", "stimulus": "<p id=\"stim\">5</p>", "internal_node_id": "0.0-35.0-5.0", "time_elapsed": 236761, "key_press": -1, "trial_index": 49}, "uniqueid": "MTK3567:3NQL1CS15SFH60IDK3Y29G4FGGKVYK", "dateTime": 1520790781441}, {"current_trial": 50, "trialdata": {"rt": -1, "trial_type": "single-stim", "stimulus": "<p id=\"stim\">4</p>", "internal_node_id": "0.0-35.0-6.0", "time_elapsed": 237769, "key_press": -1, "trial_index": 50}, "uniqueid": "MTK3567:3NQL1CS15SFH60IDK3Y29G4FGGKVYK", "dateTime": 1520790782448}, {"current_trial": 51, "trialdata": {"rt": -1, "trial_type": "single-stim", "stimulus": "<p id=\"stim\">3</p>", "internal_node_id": "0.0-35.0-7.0", "time_elapsed": 238775, "key_press": -1, "trial_index": 51}, "uniqueid": "MTK3567:3NQL1CS15SFH60IDK3Y29G4FGGKVYK", "dateTime": 1520790783455}, {"current_trial": 52, "trialdata": {"rt": -1, "trial_type": "single-stim", "stimulus": "<p id=\"stim\">2</p>", "internal_node_id": "0.0-35.0-8.0", "time_elapsed": 239783, "key_press": -1, "trial_index": 52}, "uniqueid": "MTK3567:3NQL1CS15SFH60IDK3Y29G4FGGKVYK", "dateTime": 1520790784463}, {"current_trial": 53, "trialdata": {"rt": -1, "trial_type": "single-stim", "stimulus": "<p id=\"stim\">1</p>", "internal_node_id": "0.0-35.0-9.0", "time_elapsed": 240790, "key_press": -1, "trial_index": 53}, "uniqueid": "MTK3567:3NQL1CS15SFH60IDK3Y29G4FGGKVYK", "dateTime": 1520790785469}, {"current_trial": 54, "trialdata": {"rt": -1, "trial_type": "single-stim", "stimulus": "<p id=\"stim\">+</p>", "internal_node_id": "0.0-36.0-0.0", "time_elapsed": 242296, "key_press": -1, "type": "FIXATION", "trial_index": 54}, "uniqueid": "MTK3567:3NQL1CS15SFH60IDK3Y29G4FGGKVYK", "dateTime": 1520790786976}, {"current_trial": 55, "trialdata": {"rt": -1000, "trial_type": "single-audio", "word": "cupboard", "stimulus": "/static/audio/wordpool/CUPBOARD.wav", "conditions": [18, 1200, "a", 18000], "internal_node_id": "0.0-37.0", "trial": 1, "time_elapsed": 244347, "serialpos": 0, "key_press": -1, "wordID": 424, "type": "PRES_AUD", "trial_index": 55}, "uniqueid": "MTK3567:3NQL1CS15SFH60IDK3Y29G4FGGKVYK", "dateTime": 1520790789026}, {"current_trial": 56, "trialdata": {"rt": -1000, "trial_type": "single-audio", "word": "cashew", "stimulus": "/static/audio/wordpool/CASHEW.wav", "conditions": [18, 1200, "a", 18000], "internal_node_id": "0.0-38.0", "trial": 1, "time_elapsed": 246457, "serialpos": 1, "key_press": -1, "wordID": 252, "type": "PRES_AUD", "trial_index": 56}, "uniqueid": "MTK3567:3NQL1CS15SFH60IDK3Y29G4FGGKVYK", "dateTime": 1520790791136}, {"current_trial": 57, "trialdata": {"rt": -1000, "trial_type": "single-audio", "word": "basement", "stimulus": "/static/audio/wordpool/BASEMENT.wav", "conditions": [18, 1200, "a", 18000], "internal_node_id": "0.0-39.0", "trial": 1, "time_elapsed": 248575, "serialpos": 2, "key_press": -1, "wordID": 93, "type": "PRES_AUD", "trial_index": 57}, "uniqueid": "MTK3567:3NQL1CS15SFH60IDK3Y29G4FGGKVYK", "dateTime": 1520790793255}, {"current_trial": 58, "trialdata": {"rt": -1000, "trial_type": "single-audio", "word": "diver", "stimulus": "/static/audio/wordpool/DIVER.wav", "conditions": [18, 1200, "a", 18000], "internal_node_id": "0.0-40.0", "trial": 1, "time_elapsed": 250653, "serialpos": 3, "key_press": -1, "wordID": 475, "type": "PRES_AUD", "trial_index": 58}, "uniqueid": "MTK3567:3NQL1CS15SFH60IDK3Y29G4FGGKVYK", "dateTime": 1520790795332}, {"current_trial": 59, "trialdata": {"rt": -1000, "trial_type": "single-audio", "word": "scarecrow", "stimulus": "/static/audio/wordpool/SCARECROW.wav", "conditions": [18, 1200, "a", 18000], "internal_node_id": "0.0-41.0", "trial": 1, "time_elapsed": 252775, "serialpos": 4, "key_press": -1, "wordID": 1244, "type": "PRES_AUD", "trial_index": 59}, "uniqueid": "MTK3567:3NQL1CS15SFH60IDK3Y29G4FGGKVYK", "dateTime": 1520790797455}, {"current_trial": 60, "trialdata": {"rt": -1000, "trial_type": "single-audio", "word": "bathtub", "stimulus": "/static/audio/wordpool/BATHTUB.wav", "conditions": [18, 1200, "a", 18000], "internal_node_id": "0.0-42.0", "trial": 1, "time_elapsed": 255107, "serialpos": 5, "key_press": -1, "wordID": 99, "type": "PRES_AUD", "trial_index": 60}, "uniqueid": "MTK3567:3NQL1CS15SFH60IDK3Y29G4FGGKVYK", "dateTime": 1520790799786}, {"current_trial": 61, "trialdata": {"rt": -1000, "trial_type": "single-audio", "word": "keeper", "stimulus": "/static/audio/wordpool/KEEPER.wav", "conditions": [18, 1200, "a", 18000], "internal_node_id": "0.0-43.0", "trial": 1, "time_elapsed": 257451, "serialpos": 6, "key_press": -1, "wordID": 768, "type": "PRES_AUD", "trial_index": 61}, "uniqueid": "MTK3567:3NQL1CS15SFH60IDK3Y29G4FGGKVYK", "dateTime": 1520790802130}, {"current_trial": 62, "trialdata": {"rt": -1000, "trial_type": "single-audio", "word": "hostess", "stimulus": "/static/audio/wordpool/HOSTESS.wav", "conditions": [18, 1200, "a", 18000], "internal_node_id": "0.0-44.0", "trial": 1, "time_elapsed": 259631, "serialpos": 7, "key_press": -1, "wordID": 722, "type": "PRES_AUD", "trial_index": 62}, "uniqueid": "MTK3567:3NQL1CS15SFH60IDK3Y29G4FGGKVYK", "dateTime": 1520790804310}, {"current_trial": 63, "trialdata": {"rt": -1000, "trial_type": "single-audio", "word": "statue", "stimulus": "/static/audio/wordpool/STATUE.wav", "conditions": [18, 1200, "a", 18000], "internal_node_id": "0.0-45.0", "trial": 1, "time_elapsed": 261713, "serialpos": 8, "key_press": -1, "wordID": 1373, "type": "PRES_AUD", "trial_index": 63}, "uniqueid": "MTK3567:3NQL1CS15SFH60IDK3Y29G4FGGKVYK", "dateTime": 1520790806393}, {"current_trial": 64, "trialdata": {"rt": -1000, "trial_type": "single-audio", "word": "apple", "stimulus": "/static/audio/wordpool/APPLE.wav", "conditions": [18, 1200, "a", 18000], "internal_node_id": "0.0-46.0", "trial": 1, "time_elapsed": 264099, "serialpos": 9, "key_press": -1, "wordID": 32, "type": "PRES_AUD", "trial_index": 64}, "uniqueid": "MTK3567:3NQL1CS15SFH60IDK3Y29G4FGGKVYK", "dateTime": 1520790808778}, {"current_trial": 65, "trialdata": {"rt": -1000, "trial_type": "single-audio", "word": "braces", "stimulus": "/static/audio/wordpool/BRACES.wav", "conditions": [18, 1200, "a", 18000], "internal_node_id": "0.0-47.0", "trial": 1, "time_elapsed": 266414, "serialpos": 10, "key_press": -1, "wordID": 163, "type": "PRES_AUD", "trial_index": 65}, "uniqueid": "MTK3567:3NQL1CS15SFH60IDK3Y29G4FGGKVYK", "dateTime": 1520790811093}, {"current_trial": 66, "trialdata": {"rt": -1000, "trial_type": "single-audio", "word": "robber", "stimulus": "/static/audio/wordpool/ROBBER.wav", "conditions": [18, 1200, "a", 18000], "internal_node_id": "0.0-48.0", "trial": 1, "time_elapsed": 268624, "serialpos": 11, "key_press": -1, "wordID": 1196, "type": "PRES_AUD", "trial_index": 66}, "uniqueid": "MTK3567:3NQL1CS15SFH60IDK3Y29G4FGGKVYK", "dateTime": 1520790813303}, {"current_trial": 67, "trialdata": {"rt": -1000, "trial_type": "single-audio", "word": "judge", "stimulus": "/static/audio/wordpool/JUDGE.wav", "conditions": [18, 1200, "a", 18000], "internal_node_id": "0.0-49.0", "trial": 1, "time_elapsed": 270796, "serialpos": 12, "key_press": -1, "wordID": 760, "type": "PRES_AUD", "trial_index": 67}, "uniqueid": "MTK3567:3NQL1CS15SFH60IDK3Y29G4FGGKVYK", "dateTime": 1520790815475}, {"current_trial": 68, "trialdata": {"rt": -1000, "trial_type": "single-audio", "word": "parrot", "stimulus": "/static/audio/wordpool/PARROT.wav", "conditions": [18, 1200, "a", 18000], "internal_node_id": "0.0-50.0", "trial": 1, "time_elapsed": 272923, "serialpos": 13, "key_press": -1, "wordID": 1014, "type": "PRES_AUD", "trial_index": 68}, "uniqueid": "MTK3567:3NQL1CS15SFH60IDK3Y29G4FGGKVYK", "dateTime": 1520790817609}, {"current_trial": 69, "trialdata": {"rt": -1000, "trial_type": "single-audio", "word": "jello", "stimulus": "/static/audio/wordpool/JELLO.wav", "conditions": [18, 1200, "a", 18000], "internal_node_id": "0.0-51.0", "trial": 1, "time_elapsed": 275075, "serialpos": 14, "key_press": -1, "wordID": 753, "type": "PRES_AUD", "trial_index": 69}, "uniqueid": "MTK3567:3NQL1CS15SFH60IDK3Y29G4FGGKVYK", "dateTime": 1520790819754}, {"current_trial": 70, "trialdata": {"rt": -1000, "trial_type": "single-audio", "word": "forest", "stimulus": "/static/audio/wordpool/FOREST.wav", "conditions": [18, 1200, "a", 18000], "internal_node_id": "0.0-52.0", "trial": 1, "time_elapsed": 277297, "serialpos": 15, "key_press": -1, "wordID": 592, "type": "PRES_AUD", "trial_index": 70}, "uniqueid": "MTK3567:3NQL1CS15SFH60IDK3Y29G4FGGKVYK", "dateTime": 1520790821977}, {"current_trial": 71, "trialdata": {"rt": -1000, "trial_type": "single-audio", "word": "popcorn", "stimulus": "/static/audio/wordpool/POPCORN.wav", "conditions": [18, 1200, "a", 18000], "internal_node_id": "0.0-53.0", "trial": 1, "time_elapsed": 279636, "serialpos": 16, "key_press": -1, "wordID": 1103, "type": "PRES_AUD", "trial_index": 71}, "uniqueid": "MTK3567:3NQL1CS15SFH60IDK3Y29G4FGGKVYK", "dateTime": 1520790824315}, {"current_trial": 72, "trialdata": {"rt": -1000, "trial_type": "single-audio", "word": "glove", "stimulus": "/static/audio/wordpool/GLOVE.wav", "conditions": [18, 1200, "a", 18000], "internal_node_id": "0.0-54.0", "trial": 1, "time_elapsed": 281941, "serialpos": 17, "key_press": -1, "wordID": 641, "type": "PRES_AUD", "trial_index": 72}, "uniqueid": "MTK3567:3NQL1CS15SFH60IDK3Y29G4FGGKVYK", "dateTime": 1520790826620}, {"current_trial": 73, "trialdata": {"rt": -1, "trial_type": "single-stim", "stimulus": "", "internal_node_id": "0.0-55.0-0.0", "time_elapsed": 283324, "key_press": -1, "type": "PRE_RECALL_DELAY", "trial_index": 73}, "uniqueid": "MTK3567:3NQL1CS15SFH60IDK3Y29G4FGGKVYK", "dateTime": 1520790828004}, {"current_trial": 74, "trialdata": {"rt": -1000, "trial_type": "single-audio", "stimulus": "/static/audio/400Hz.wav", "internal_node_id": "0.0-56.0", "time_elapsed": 283827, "key_press": -1, "type": "PRE_RECALL_ALERT", "trial_index": 74}, "uniqueid": "MTK3567:3NQL1CS15SFH60IDK3Y29G4FGGKVYK", "dateTime": 1520790828506}, {"current_trial": 75, "trialdata": {"rt": [3566, 8295, 13358, 18552, 22264, 28254, 33024, 40178, 48648], "recwords": ["glove", "popcorn", "braces", "statue", "apple", "jello", "diver", "bathtub", "hostess"], "key_times": [1667, 1943, 2190, 2533, 3082, 3566, 4722, 4980, 6134, 6539, 6843, 7330, 7669, 8295, 10452, 10734, 11218, 11758, 12370, 12796, 13358, 15462, 15942, 16191, 16405, 17270, 17971, 18552, 20787, 21172, 21308, 21516, 21821, 22264, 26359, 26593, 27104, 27247, 27414, 28254, 31367, 31563, 32016, 32350, 32557, 33024, 36496, 36753, 37531, 38030, 38868, 39120, 39457, 40178, 44554, 45365, 45841, 47117, 47483, 47904, 48137, 48648, 58516, 58967, 59193, 59573, 59806], "trial_type": "free-recall", "conditions": [18, 1200, "a", 18000], "internal_node_id": "0.0-57.0-0.0", "key_presses": [71, 76, 79, 86, 69, 13, 80, 79, 80, 67, 79, 82, 78, 13, 66, 82, 65, 67, 69, 83, 13, 83, 84, 65, 84, 85, 69, 13, 65, 80, 80, 76, 69, 13, 74, 69, 76, 76, 79, 13, 68, 73, 86, 69, 82, 13, 66, 65, 84, 72, 84, 85, 66, 13, 72, 79, 83, 84, 69, 83, 83, 13, 83, 67, 65, 82, 69], "trial": 1, "time_elapsed": 343842, "type": "FREE_RECALL", "trial_index": 75}, "uniqueid": "MTK3567:3NQL1CS15SFH60IDK3Y29G4FGGKVYK", "dateTime": 1520790888532}, {"current_trial": 76, "trialdata": {"rt": 2969, "trial_type": "text", "internal_node_id": "0.0-58.0", "time_elapsed": 348826, "key_press": 32, "type": "INSTRUCTIONS", "trial_index": 76}, "uniqueid": "MTK3567:3NQL1CS15SFH60IDK3Y29G4FGGKVYK", "dateTime": 1520790893505}, {"current_trial": 77, "trialdata": {"rt": [3209, 7767, 12691, 16611, 22080], "trial_type": "math-distractor", "key_times": [2754, 2934, 3209, 7437, 7767, 11516, 12349, 12691, 15581, 16307, 16611, 20883, 21558, 22080], "responses": ["11", "8", "18", "19", "20"], "num2": [4, 2, 9, 9, 6, 8], "num3": [4, 1, 5, 8, 6, 3], "conditions": [12, 800, "a", 24000], "internal_node_id": "0.0-59.0", "key_presses": [49, 49, 13, 56, 13, 49, 56, 13, 49, 57, 13, 50, 48, 13], "trial": 2, "time_elapsed": 373847, "type": "DISTRACTOR", "trial_index": 77, "num1": [3, 5, 4, 2, 8, 1]}, "uniqueid": "MTK3567:3NQL1CS15SFH60IDK3Y29G4FGGKVYK", "dateTime": 1520790918529}, {"current_trial": 78, "trialdata": {"rt": -1, "trial_type": "single-stim", "stimulus": "<p id=\"stim\">10</p>", "internal_node_id": "0.0-60.0-0.0", "time_elapsed": 376854, "key_press": -1, "trial_index": 78}, "uniqueid": "MTK3567:3NQL1CS15SFH60IDK3Y29G4FGGKVYK", "dateTime": 1520790921533}, {"current_trial": 79, "trialdata": {"rt": -1, "trial_type": "single-stim", "stimulus": "<p id=\"stim\">9</p>", "internal_node_id": "0.0-60.0-1.0", "time_elapsed": 377857, "key_press": -1, "trial_index": 79}, "uniqueid": "MTK3567:3NQL1CS15SFH60IDK3Y29G4FGGKVYK", "dateTime": 1520790922536}, {"current_trial": 80, "trialdata": {"rt": -1, "trial_type": "single-stim", "stimulus": "<p id=\"stim\">8</p>", "internal_node_id": "0.0-60.0-2.0", "time_elapsed": 378859, "key_press": -1, "trial_index": 80}, "uniqueid": "MTK3567:3NQL1CS15SFH60IDK3Y29G4FGGKVYK", "dateTime": 1520790923539}, {"current_trial": 81, "trialdata": {"rt": -1, "trial_type": "single-stim", "stimulus": "<p id=\"stim\">7</p>", "internal_node_id": "0.0-60.0-3.0", "time_elapsed": 379863, "key_press": -1, "trial_index": 81}, "uniqueid": "MTK3567:3NQL1CS15SFH60IDK3Y29G4FGGKVYK", "dateTime": 1520790924542}, {"current_trial": 82, "trialdata": {"rt": -1, "trial_type": "single-stim", "stimulus": "<p id=\"stim\">6</p>", "internal_node_id": "0.0-60.0-4.0", "time_elapsed": 380865, "key_press": -1, "trial_index": 82}, "uniqueid": "MTK3567:3NQL1CS15SFH60IDK3Y29G4FGGKVYK", "dateTime": 1520790925545}, {"current_trial": 83, "trialdata": {"rt": -1, "trial_type": "single-stim", "stimulus": "<p id=\"stim\">5</p>", "internal_node_id": "0.0-60.0-5.0", "time_elapsed": 381867, "key_press": -1, "trial_index": 83}, "uniqueid": "MTK3567:3NQL1CS15SFH60IDK3Y29G4FGGKVYK", "dateTime": 1520790926547}, {"current_trial": 84, "trialdata": {"rt": -1, "trial_type": "single-stim", "stimulus": "<p id=\"stim\">4</p>", "internal_node_id": "0.0-60.0-6.0", "time_elapsed": 382870, "key_press": -1, "trial_index": 84}, "uniqueid": "MTK3567:3NQL1CS15SFH60IDK3Y29G4FGGKVYK", "dateTime": 1520790927550}, {"current_trial": 85, "trialdata": {"rt": -1, "trial_type": "single-stim", "stimulus": "<p id=\"stim\">3</p>", "internal_node_id": "0.0-60.0-7.0", "time_elapsed": 383873, "key_press": -1, "trial_index": 85}, "uniqueid": "MTK3567:3NQL1CS15SFH60IDK3Y29G4FGGKVYK", "dateTime": 1520790928553}, {"current_trial": 86, "trialdata": {"rt": -1, "trial_type": "single-stim", "stimulus": "<p id=\"stim\">2</p>", "internal_node_id": "0.0-60.0-8.0", "time_elapsed": 384875, "key_press": -1, "trial_index": 86}, "uniqueid": "MTK3567:3NQL1CS15SFH60IDK3Y29G4FGGKVYK", "dateTime": 1520790929556}, {"current_trial": 87, "trialdata": {"rt": -1, "trial_type": "single-stim", "stimulus": "<p id=\"stim\">1</p>", "internal_node_id": "0.0-60.0-9.0", "time_elapsed": 385879, "key_press": -1, "trial_index": 87}, "uniqueid": "MTK3567:3NQL1CS15SFH60IDK3Y29G4FGGKVYK", "dateTime": 1520790930558}, {"current_trial": 88, "trialdata": {"rt": -1, "trial_type": "single-stim", "stimulus": "<p id=\"stim\">+</p>", "internal_node_id": "0.0-61.0-0.0", "time_elapsed": 387382, "key_press": -1, "type": "FIXATION", "trial_index": 88}, "uniqueid": "MTK3567:3NQL1CS15SFH60IDK3Y29G4FGGKVYK", "dateTime": 1520790932062}, {"current_trial": 89, "trialdata": {"rt": -1000, "trial_type": "single-audio", "word": "sparrow", "stimulus": "/static/audio/wordpool/SPARROW.wav", "conditions": [12, 800, "a", 24000], "internal_node_id": "0.0-62.0", "trial": 2, "time_elapsed": 389193, "serialpos": 0, "key_press": -1, "wordID": 1346, "type": "PRES_AUD", "trial_index": 89}, "uniqueid": "MTK3567:3NQL1CS15SFH60IDK3Y29G4FGGKVYK", "dateTime": 1520790933872}, {"current_trial": 90, "trialdata": {"rt": -1000, "trial_type": "single-audio", "word": "stone", "stimulus": "/static/audio/wordpool/STONE.wav", "conditions": [12, 800, "a", 24000], "internal_node_id": "0.0-63.0", "trial": 2, "time_elapsed": 391070, "serialpos": 1, "key_press": -1, "wordID": 1384, "type": "PRES_AUD", "trial_index": 90}, "uniqueid": "MTK3567:3NQL1CS15SFH60IDK3Y29G4FGGKVYK", "dateTime": 1520790935749}, {"current_trial": 91, "trialdata": {"rt": -1000, "trial_type": "single-audio", "word": "couch", "stimulus": "/static/audio/wordpool/COUCH.wav", "conditions": [12, 800, "a", 24000], "internal_node_id": "0.0-64.0", "trial": 2, "time_elapsed": 392682, "serialpos": 2, "key_press": -1, "wordID": 385, "type": "PRES_AUD", "trial_index": 91}, "uniqueid": "MTK3567:3NQL1CS15SFH60IDK3Y29G4FGGKVYK", "dateTime": 1520790937362}, {"current_trial": 92, "trialdata": {"rt": -1000, "trial_type": "single-audio", "word": "mattress", "stimulus": "/static/audio/wordpool/MATTRESS.wav", "conditions": [12, 800, "a", 24000], "internal_node_id": "0.0-65.0", "trial": 2, "time_elapsed": 394635, "serialpos": 3, "key_press": -1, "wordID": 878, "type": "PRES_AUD", "trial_index": 92}, "uniqueid": "MTK3567:3NQL1CS15SFH60IDK3Y29G4FGGKVYK", "dateTime": 1520790939314}, {"current_trial": 93, "trialdata": {"rt": -1000, "trial_type": "single-audio", "word": "helmet", "stimulus": "/static/audio/wordpool/HELMET.wav", "conditions": [12, 800, "a", 24000], "internal_node_id": "0.0-66.0", "trial": 2, "time_elapsed": 396636, "serialpos": 4, "key_press": -1, "wordID": 701, "type": "PRES_AUD", "trial_index": 93}, "uniqueid": "MTK3567:3NQL1CS15SFH60IDK3Y29G4FGGKVYK", "dateTime": 1520790941316}, {"current_trial": 94, "trialdata": {"rt": -1000, "trial_type": "single-audio", "word": "skirt", "stimulus": "/static/audio/wordpool/SKIRT.wav", "conditions": [12, 800, "a", 24000], "internal_node_id": "0.0-67.0", "trial": 2, "time_elapsed": 398484, "serialpos": 5, "key_press": -1, "wordID": 1318, "type": "PRES_AUD", "trial_index": 94}, "uniqueid": "MTK3567:3NQL1CS15SFH60IDK3Y29G4FGGKVYK", "dateTime": 1520790943164}, {"current_trial": 95, "trialdata": {"rt": -1000, "trial_type": "single-audio", "word": "banjo", "stimulus": "/static/audio/wordpool/BANJO.wav", "conditions": [12, 800, "a", 24000], "internal_node_id": "0.0-68.0", "trial": 2, "time_elapsed": 400235, "serialpos": 6, "key_press": -1, "wordID": 81, "type": "PRES_AUD", "trial_index": 95}, "uniqueid": "MTK3567:3NQL1CS15SFH60IDK3Y29G4FGGKVYK", "dateTime": 1520790944914}, {"current_trial": 96, "trialdata": {"rt": -1000, "trial_type": "single-audio", "word": "kleenex", "stimulus": "/static/audio/wordpool/KLEENEX.wav", "conditions": [12, 800, "a", 24000], "internal_node_id": "0.0-69.0", "trial": 2, "time_elapsed": 402136, "serialpos": 7, "key_press": -1, "wordID": 781, "type": "PRES_AUD", "trial_index": 96}, "uniqueid": "MTK3567:3NQL1CS15SFH60IDK3Y29G4FGGKVYK", "dateTime": 1520790946815}, {"current_trial": 97, "trialdata": {"rt": -1000, "trial_type": "single-audio", "word": "truck", "stimulus": "/static/audio/wordpool/TRUCK.wav", "conditions": [12, 800, "a", 24000], "internal_node_id": "0.0-70.0", "trial": 2, "time_elapsed": 404067, "serialpos": 8, "key_press": -1, "wordID": 1511, "type": "PRES_AUD", "trial_index": 97}, "uniqueid": "MTK3567:3NQL1CS15SFH60IDK3Y29G4FGGKVYK", "dateTime": 1520790948747}, {"current_trial": 98, "trialdata": {"rt": -1000, "trial_type": "single-audio", "word": "blockade", "stimulus": "/static/audio/wordpool/BLOCKADE.wav", "conditions": [12, 800, "a", 24000], "internal_node_id": "0.0-71.0", "trial": 2, "time_elapsed": 405850, "serialpos": 9, "key_press": -1, "wordID": 136, "type": "PRES_AUD", "trial_index": 98}, "uniqueid": "MTK3567:3NQL1CS15SFH60IDK3Y29G4FGGKVYK", "dateTime": 1520790950529}, {"current_trial": 99, "trialdata": {"rt": -1000, "trial_type": "single-audio", "word": "harp", "stimulus": "/static/audio/wordpool/HARP.wav", "conditions": [12, 800, "a", 24000], "internal_node_id": "0.0-72.0", "trial": 2, "time_elapsed": 407843, "serialpos": 10, "key_press": -1, "wordID": 688, "type": "PRES_AUD", "trial_index": 99}, "uniqueid": "MTK3567:3NQL1CS15SFH60IDK3Y29G4FGGKVYK", "dateTime": 1520790952522}, {"current_trial": 100, "trialdata": {"rt": -1000, "trial_type": "single-audio", "word": "hiker", "stimulus": "/static/audio/wordpool/HIKER.wav", "conditions": [12, 800, "a", 24000], "internal_node_id": "0.0-73.0", "trial": 2, "time_elapsed": 409700, "serialpos": 11, "key_press": -1, "wordID": 707, "type": "PRES_AUD", "trial_index": 100}, "uniqueid": "MTK3567:3NQL1CS15SFH60IDK3Y29G4FGGKVYK", "dateTime": 1520790954380}, {"current_trial": 101, "trialdata": {"rt": -1, "trial_type": "single-stim", "stimulus": "", "internal_node_id": "0.0-74.0-0.0", "time_elapsed": 411000, "key_press": -1, "type": "PRE_RECALL_DELAY", "trial_index": 101}, "uniqueid": "MTK3567:3NQL1CS15SFH60IDK3Y29G4FGGKVYK", "dateTime": 1520790955680}, {"current_trial": 102, "trialdata": {"rt": -1000, "trial_type": "single-audio", "stimulus": "/static/audio/400Hz.wav", "internal_node_id": "0.0-75.0", "time_elapsed": 411504, "key_press": -1, "type": "PRE_RECALL_ALERT", "trial_index": 102}, "uniqueid": "MTK3567:3NQL1CS15SFH60IDK3Y29G4FGGKVYK", "dateTime": 1520790956183}, {"current_trial": 103, "trialdata": {"rt": [7348, 12055, 17069, 21232, 25712, 30940, 36156, 40764], "recwords": ["sparrow", "stone", "matress", "harp", "truck", "hiker", "banjo", "skirt"], "key_times": [4032, 4359, 5141, 5901, 6139, 6474, 6783, 7348, 9769, 10302, 10719, 11154, 11702, 12055, 13875, 14417, 15148, 15446, 15764, 16346, 16601, 17069, 19452, 19879, 20439, 20773, 21232, 23379, 23867, 24132, 24775, 25078, 25712, 28636, 29222, 29998, 30231, 30494, 30940, 33069, 33592, 33891, 35009, 35632, 36156, 38990, 39366, 39650, 39950, 40179, 40764], "trial_type": "free-recall", "conditions": [12, 800, "a", 24000], "internal_node_id": "0.0-76.0-0.0", "key_presses": [83, 80, 65, 82, 82, 79, 87, 13, 83, 84, 79, 78, 69, 13, 77, 65, 84, 82, 69, 83, 83, 13, 72, 65, 82, 80, 13, 84, 82, 85, 67, 75, 13, 72, 73, 75, 69, 82, 13, 66, 65, 78, 74, 79, 13, 83, 75, 73, 82, 84, 13], "trial": 2, "time_elapsed": 471535, "type": "FREE_RECALL", "trial_index": 103}, "uniqueid": "MTK3567:3NQL1CS15SFH60IDK3Y29G4FGGKVYK", "dateTime": 1520791016243}, {"current_trial": 104, "trialdata": {"rt": 1538, "trial_type": "text", "internal_node_id": "0.0-77.0", "time_elapsed": 475115, "key_press": 32, "type": "INSTRUCTIONS", "trial_index": 104}, "uniqueid": "MTK3567:3NQL1CS15SFH60IDK3Y29G4FGGKVYK", "dateTime": 1520791019796}, {"current_trial": 105, "trialdata": {"rt": [5094, 10177], "trial_type": "math-distractor", "key_times": [4237, 4556, 5094, 9218, 9513, 10177], "responses": ["19", "18"], "num2": [5, 4, 9], "num3": [7, 9, 7], "conditions": [24, 800, "a", 12000], "internal_node_id": "0.0-78.0", "key_presses": [49, 57, 13, 49, 56, 13], "trial": 3, "time_elapsed": 489134, "type": "DISTRACTOR", "trial_index": 105, "num1": [7, 5, 5]}, "uniqueid": "MTK3567:3NQL1CS15SFH60IDK3Y29G4FGGKVYK", "dateTime": 1520791033813}, {"current_trial": 106, "trialdata": {"rt": -1, "trial_type": "single-stim", "stimulus": "<p id=\"stim\">10</p>", "internal_node_id": "0.0-79.0-0.0", "time_elapsed": 492142, "key_press": -1, "trial_index": 106}, "uniqueid": "MTK3567:3NQL1CS15SFH60IDK3Y29G4FGGKVYK", "dateTime": 1520791036822}, {"current_trial": 107, "trialdata": {"rt": -1, "trial_type": "single-stim", "stimulus": "<p id=\"stim\">9</p>", "internal_node_id": "0.0-79.0-1.0", "time_elapsed": 493145, "key_press": -1, "trial_index": 107}, "uniqueid": "MTK3567:3NQL1CS15SFH60IDK3Y29G4FGGKVYK", "dateTime": 1520791037825}, {"current_trial": 108, "trialdata": {"rt": -1, "trial_type": "single-stim", "stimulus": "<p id=\"stim\">8</p>", "internal_node_id": "0.0-79.0-2.0", "time_elapsed": 494149, "key_press": -1, "trial_index": 108}, "uniqueid": "MTK3567:3NQL1CS15SFH60IDK3Y29G4FGGKVYK", "dateTime": 1520791038829}, {"current_trial": 109, "trialdata": {"rt": -1, "trial_type": "single-stim", "stimulus": "<p id=\"stim\">7</p>", "internal_node_id": "0.0-79.0-3.0", "time_elapsed": 495154, "key_press": -1, "trial_index": 109}, "uniqueid": "MTK3567:3NQL1CS15SFH60IDK3Y29G4FGGKVYK", "dateTime": 1520791039833}, {"current_trial": 110, "trialdata": {"rt": -1, "trial_type": "single-stim", "stimulus": "<p id=\"stim\">6</p>", "internal_node_id": "0.0-79.0-4.0", "time_elapsed": 496157, "key_press": -1, "trial_index": 110}, "uniqueid": "MTK3567:3NQL1CS15SFH60IDK3Y29G4FGGKVYK", "dateTime": 1520791040836}, {"current_trial": 111, "trialdata": {"rt": -1, "trial_type": "single-stim", "stimulus": "<p id=\"stim\">5</p>", "internal_node_id": "0.0-79.0-5.0", "time_elapsed": 497162, "key_press": -1, "trial_index": 111}, "uniqueid": "MTK3567:3NQL1CS15SFH60IDK3Y29G4FGGKVYK", "dateTime": 1520791041841}, {"current_trial": 112, "trialdata": {"rt": -1, "trial_type": "single-stim", "stimulus": "<p id=\"stim\">4</p>", "internal_node_id": "0.0-79.0-6.0", "time_elapsed": 498165, "key_press": -1, "trial_index": 112}, "uniqueid": "MTK3567:3NQL1CS15SFH60IDK3Y29G4FGGKVYK", "dateTime": 1520791042845}, {"current_trial": 113, "trialdata": {"rt": -1, "trial_type": "single-stim", "stimulus": "<p id=\"stim\">3</p>", "internal_node_id": "0.0-79.0-7.0", "time_elapsed": 499168, "key_press": -1, "trial_index": 113}, "uniqueid": "MTK3567:3NQL1CS15SFH60IDK3Y29G4FGGKVYK", "dateTime": 1520791043847}, {"current_trial": 114, "trialdata": {"rt": -1, "trial_type": "single-stim", "stimulus": "<p id=\"stim\">2</p>", "internal_node_id": "0.0-79.0-8.0", "time_elapsed": 500172, "key_press": -1, "trial_index": 114}, "uniqueid": "MTK3567:3NQL1CS15SFH60IDK3Y29G4FGGKVYK", "dateTime": 1520791044851}, {"current_trial": 115, "trialdata": {"rt": -1, "trial_type": "single-stim", "stimulus": "<p id=\"stim\">1</p>", "internal_node_id": "0.0-79.0-9.0", "time_elapsed": 501177, "key_press": -1, "trial_index": 115}, "uniqueid": "MTK3567:3NQL1CS15SFH60IDK3Y29G4FGGKVYK", "dateTime": 1520791045857}, {"current_trial": 116, "trialdata": {"rt": -1, "trial_type": "single-stim", "stimulus": "<p id=\"stim\">+</p>", "internal_node_id": "0.0-80.0-0.0", "time_elapsed": 502685, "key_press": -1, "type": "FIXATION", "trial_index": 116}, "uniqueid": "MTK3567:3NQL1CS15SFH60IDK3Y29G4FGGKVYK", "dateTime": 1520791047365}, {"current_trial": 117, "trialdata": {"rt": -1000, "trial_type": "single-audio", "word": "lamp", "stimulus": "/static/audio/wordpool/LAMP.wav", "conditions": [24, 800, "a", 12000], "internal_node_id": "0.0-81.0", "trial": 3, "time_elapsed": 504513, "serialpos": 0, "key_press": -1, "wordID": 797, "type": "PRES_AUD", "trial_index": 117}, "uniqueid": "MTK3567:3NQL1CS15SFH60IDK3Y29G4FGGKVYK", "dateTime": 1520791049192}, {"current_trial": 118, "trialdata": {"rt": -1000, "trial_type": "single-audio", "word": "compass", "stimulus": "/static/audio/wordpool/COMPASS.wav", "conditions": [24, 800, "a", 12000], "internal_node_id": "0.0-82.0", "trial": 3, "time_elapsed": 506415, "serialpos": 1, "key_press": -1, "wordID": 357, "type": "PRES_AUD", "trial_index": 118}, "uniqueid": "MTK3567:3NQL1CS15SFH60IDK3Y29G4FGGKVYK", "dateTime": 1520791051094}, {"current_trial": 119, "trialdata": {"rt": -1000, "trial_type": "single-audio", "word": "ankle", "stimulus": "/static/audio/wordpool/ANKLE.wav", "conditions": [24, 800, "a", 12000], "internal_node_id": "0.0-83.0", "trial": 3, "time_elapsed": 508182, "serialpos": 2, "key_press": -1, "wordID": 23, "type": "PRES_AUD", "trial_index": 119}, "uniqueid": "MTK3567:3NQL1CS15SFH60IDK3Y29G4FGGKVYK", "dateTime": 1520791052862}, {"current_trial": 120, "trialdata": {"rt": -1000, "trial_type": "single-audio", "word": "padding", "stimulus": "/static/audio/wordpool/PADDING.wav", "conditions": [24, 800, "a", 12000], "internal_node_id": "0.0-84.0", "trial": 3, "time_elapsed": 510108, "serialpos": 3, "key_press": -1, "wordID": 998, "type": "PRES_AUD", "trial_index": 120}, "uniqueid": "MTK3567:3NQL1CS15SFH60IDK3Y29G4FGGKVYK", "dateTime": 1520791054787}, {"current_trial": 121, "trialdata": {"rt": -1000, "trial_type": "single-audio", "word": "scallop", "stimulus": "/static/audio/wordpool/SCALLOP.wav", "conditions": [24, 800, "a", 12000], "internal_node_id": "0.0-85.0", "trial": 3, "time_elapsed": 512033, "serialpos": 4, "key_press": -1, "wordID": 1241, "type": "PRES_AUD", "trial_index": 121}, "uniqueid": "MTK3567:3NQL1CS15SFH60IDK3Y29G4FGGKVYK", "dateTime": 1520791056712}, {"current_trial": 122, "trialdata": {"rt": -1000, "trial_type": "single-audio", "word": "cook", "stimulus": "/static/audio/wordpool/COOK.wav", "conditions": [24, 800, "a", 12000], "internal_node_id": "0.0-86.0", "trial": 3, "time_elapsed": 513807, "serialpos": 5, "key_press": -1, "wordID": 371, "type": "PRES_AUD", "trial_index": 122}, "uniqueid": "MTK3567:3NQL1CS15SFH60IDK3Y29G4FGGKVYK", "dateTime": 1520791058487}, {"current_trial": 123, "trialdata": {"rt": -1000, "trial_type": "single-audio", "word": "uncle", "stimulus": "/static/audio/wordpool/UNCLE.wav", "conditions": [24, 800, "a", 12000], "internal_node_id": "0.0-87.0", "trial": 3, "time_elapsed": 515514, "serialpos": 6, "key_press": -1, "wordID": 1535, "type": "PRES_AUD", "trial_index": 123}, "uniqueid": "MTK3567:3NQL1CS15SFH60IDK3Y29G4FGGKVYK", "dateTime": 1520791060193}, {"current_trial": 124, "trialdata": {"rt": -1000, "trial_type": "single-audio", "word": "author", "stimulus": "/static/audio/wordpool/AUTHOR.wav", "conditions": [24, 800, "a", 12000], "internal_node_id": "0.0-88.0", "trial": 3, "time_elapsed": 517288, "serialpos": 7, "key_press": -1, "wordID": 60, "type": "PRES_AUD", "trial_index": 124}, "uniqueid": "MTK3567:3NQL1CS15SFH60IDK3Y29G4FGGKVYK", "dateTime": 1520791061968}, {"current_trial": 125, "trialdata": {"rt": -1000, "trial_type": "single-audio", "word": "kitchen", "stimulus": "/static/audio/wordpool/KITCHEN.wav", "conditions": [24, 800, "a", 12000], "internal_node_id": "0.0-89.0", "trial": 3, "time_elapsed": 519236, "serialpos": 8, "key_press": -1, "wordID": 777, "type": "PRES_AUD", "trial_index": 125}, "uniqueid": "MTK3567:3NQL1CS15SFH60IDK3Y29G4FGGKVYK", "dateTime": 1520791063916}, {"current_trial": 126, "trialdata": {"rt": -1000, "trial_type": "single-audio", "word": "child", "stimulus": "/static/audio/wordpool/CHILD.wav", "conditions": [24, 800, "a", 12000], "internal_node_id": "0.0-90.0", "trial": 3, "time_elapsed": 521168, "serialpos": 9, "key_press": -1, "wordID": 298, "type": "PRES_AUD", "trial_index": 126}, "uniqueid": "MTK3567:3NQL1CS15SFH60IDK3Y29G4FGGKVYK", "dateTime": 1520791065848}, {"current_trial": 127, "trialdata": {"rt": -1000, "trial_type": "single-audio", "word": "infant", "stimulus": "/static/audio/wordpool/INFANT.wav", "conditions": [24, 800, "a", 12000], "internal_node_id": "0.0-91.0", "trial": 3, "time_elapsed": 523162, "serialpos": 10, "key_press": -1, "wordID": 736, "type": "PRES_AUD", "trial_index": 127}, "uniqueid": "MTK3567:3NQL1CS15SFH60IDK3Y29G4FGGKVYK", "dateTime": 1520791067841}, {"current_trial": 128, "trialdata": {"rt": -1000, "trial_type": "single-audio", "word": "teacher", "stimulus": "/static/audio/wordpool/TEACHER.wav", "conditions": [24, 800, "a", 12000], "internal_node_id": "0.0-92.0", "trial": 3, "time_elapsed": 524781, "serialpos": 11, "key_press": -1, "wordID": 1439, "type": "PRES_AUD", "trial_index": 128}, "uniqueid": "MTK3567:3NQL1CS15SFH60IDK3Y29G4FGGKVYK", "dateTime": 1520791069461}, {"current_trial": 129, "trialdata": {"rt": -1000, "trial_type": "single-audio", "word": "cabbage", "stimulus": "/static/audio/wordpool/CABBAGE.wav", "conditions": [24, 800, "a", 12000], "internal_node_id": "0.0-93.0", "trial": 3, "time_elapsed": 526506, "serialpos": 12, "key_press": -1, "wordID": 209, "type": "PRES_AUD", "trial_index": 129}, "uniqueid": "MTK3567:3NQL1CS15SFH60IDK3Y29G4FGGKVYK", "dateTime": 1520791071185}, {"current_trial": 130, "trialdata": {"rt": -1000, "trial_type": "single-audio", "word": "tutu", "stimulus": "/static/audio/wordpool/TUTU.wav", "conditions": [24, 800, "a", 12000], "internal_node_id": "0.0-94.0", "trial": 3, "time_elapsed": 528490, "serialpos": 13, "key_press": -1, "wordID": 1523, "type": "PRES_AUD", "trial_index": 130}, "uniqueid": "MTK3567:3NQL1CS15SFH60IDK3Y29G4FGGKVYK", "dateTime": 1520791073169}, {"current_trial": 131, "trialdata": {"rt": -1000, "trial_type": "single-audio", "word": "ketchup", "stimulus": "/static/audio/wordpool/KETCHUP.wav", "conditions": [24, 800, "a", 12000], "internal_node_id": "0.0-95.0", "trial": 3, "time_elapsed": 530192, "serialpos": 14, "key_press": -1, "wordID": 770, "type": "PRES_AUD", "trial_index": 131}, "uniqueid": "MTK3567:3NQL1CS15SFH60IDK3Y29G4FGGKVYK", "dateTime": 1520791074871}, {"current_trial": 132, "trialdata": {"rt": -1000, "trial_type": "single-audio", "word": "cobra", "stimulus": "/static/audio/wordpool/COBRA.wav", "conditions": [24, 800, "a", 12000], "internal_node_id": "0.0-96.0", "trial": 3, "time_elapsed": 531849, "serialpos": 15, "key_press": -1, "wordID": 335, "type": "PRES_AUD", "trial_index": 132}, "uniqueid": "MTK3567:3NQL1CS15SFH60IDK3Y29G4FGGKVYK", "dateTime": 1520791076528}, {"current_trial": 133, "trialdata": {"rt": -1000, "trial_type": "single-audio", "word": "drink", "stimulus": "/static/audio/wordpool/DRINK.wav", "conditions": [24, 800, "a", 12000], "internal_node_id": "0.0-97.0", "trial": 3, "time_elapsed": 533458, "serialpos": 16, "key_press": -1, "wordID": 497, "type": "PRES_AUD", "trial_index": 133}, "uniqueid": "MTK3567:3NQL1CS15SFH60IDK3Y29G4FGGKVYK", "dateTime": 1520791078138}, {"current_trial": 134, "trialdata": {"rt": -1000, "trial_type": "single-audio", "word": "fireplace", "stimulus": "/static/audio/wordpool/FIREPLACE.wav", "conditions": [24, 800, "a", 12000], "internal_node_id": "0.0-98.0", "trial": 3, "time_elapsed": 535228, "serialpos": 17, "key_press": -1, "wordID": 569, "type": "PRES_AUD", "trial_index": 134}, "uniqueid": "MTK3567:3NQL1CS15SFH60IDK3Y29G4FGGKVYK", "dateTime": 1520791079908}, {"current_trial": 135, "trialdata": {"rt": -1000, "trial_type": "single-audio", "word": "garden", "stimulus": "/static/audio/wordpool/GARDEN.wav", "conditions": [24, 800, "a", 12000], "internal_node_id": "0.0-99.0", "trial": 3, "time_elapsed": 537171, "serialpos": 18, "key_press": -1, "wordID": 622, "type": "PRES_AUD", "trial_index": 135}, "uniqueid": "MTK3567:3NQL1CS15SFH60IDK3Y29G4FGGKVYK", "dateTime": 1520791081851}, {"current_trial": 136, "trialdata": {"rt": -1000, "trial_type": "single-audio", "word": "shrub", "stimulus": "/static/audio/wordpool/SHRUB.wav", "conditions": [24, 800, "a", 12000], "internal_node_id": "0.0-100.0", "trial": 3, "time_elapsed": 539132, "serialpos": 19, "key_press": -1, "wordID": 1298, "type": "PRES_AUD", "trial_index": 136}, "uniqueid": "MTK3567:3NQL1CS15SFH60IDK3Y29G4FGGKVYK", "dateTime": 1520791083811}, {"current_trial": 137, "trialdata": {"rt": -1000, "trial_type": "single-audio", "word": "dustpan", "stimulus": "/static/audio/wordpool/DUSTPAN.wav", "conditions": [24, 800, "a", 12000], "internal_node_id": "0.0-101.0", "trial": 3, "time_elapsed": 541133, "serialpos": 20, "key_press": -1, "wordID": 508, "type": "PRES_AUD", "trial_index": 137}, "uniqueid": "MTK3567:3NQL1CS15SFH60IDK3Y29G4FGGKVYK", "dateTime": 1520791085812}, {"current_trial": 138, "trialdata": {"rt": -1000, "trial_type": "single-audio", "word": "salmon", "stimulus": "/static/audio/wordpool/SALMON.wav", "conditions": [24, 800, "a", 12000], "internal_node_id": "0.0-102.0", "trial": 3, "time_elapsed": 542908, "serialpos": 21, "key_press": -1, "wordID": 1226, "type": "PRES_AUD", "trial_index": 138}, "uniqueid": "MTK3567:3NQL1CS15SFH60IDK3Y29G4FGGKVYK", "dateTime": 1520791087588}, {"current_trial": 139, "trialdata": {"rt": -1000, "trial_type": "single-audio", "word": "zipper", "stimulus": "/static/audio/wordpool/ZIPPER.wav", "conditions": [24, 800, "a", 12000], "internal_node_id": "0.0-103.0", "trial": 3, "time_elapsed": 544702, "serialpos": 22, "key_press": -1, "wordID": 1635, "type": "PRES_AUD", "trial_index": 139}, "uniqueid": "MTK3567:3NQL1CS15SFH60IDK3Y29G4FGGKVYK", "dateTime": 1520791089381}, {"current_trial": 140, "trialdata": {"rt": -1000, "trial_type": "single-audio", "word": "stove", "stimulus": "/static/audio/wordpool/STOVE.wav", "conditions": [24, 800, "a", 12000], "internal_node_id": "0.0-104.0", "trial": 3, "time_elapsed": 546434, "serialpos": 23, "key_press": -1, "wordID": 1387, "type": "PRES_AUD", "trial_index": 140}, "uniqueid": "MTK3567:3NQL1CS15SFH60IDK3Y29G4FGGKVYK", "dateTime": 1520791091113}, {"current_trial": 141, "trialdata": {"rt": -1, "trial_type": "single-stim", "stimulus": "", "internal_node_id": "0.0-105.0-0.0", "time_elapsed": 547815, "key_press": -1, "type": "PRE_RECALL_DELAY", "trial_index": 141}, "uniqueid": "MTK3567:3NQL1CS15SFH60IDK3Y29G4FGGKVYK", "dateTime": 1520791092494}, {"current_trial": 142, "trialdata": {"rt": -1000, "trial_type": "single-audio", "stimulus": "/static/audio/400Hz.wav", "internal_node_id": "0.0-106.0", "time_elapsed": 548319, "key_press": -1, "type": "PRE_RECALL_ALERT", "trial_index": 142}, "uniqueid": "MTK3567:3NQL1CS15SFH60IDK3Y29G4FGGKVYK", "dateTime": 1520791092998}, {"current_trial": 143, "trialdata": {"rt": [3825, 7766, 14637, 17895, 23239, 26986, 31235, 35577, 39513, 46203, 54314], "recwords": ["stove", "zipper", "compas", "scallop", "kitchen", "infant", "child", "tutu", "cook", "ankle", "teacher"], "key_times": [1603, 2240, 2599, 2898, 3422, 3825, 5766, 6075, 6720, 6859, 7093, 7348, 7766, 12215, 12564, 12908, 13487, 13800, 14151, 14637, 15761, 16176, 16619, 16957, 17089, 17312, 17512, 17895, 19715, 19979, 20741, 21221, 21581, 21857, 22373, 23239, 24467, 24807, 25209, 25794, 25996, 26546, 26986, 28438, 28859, 29998, 30311, 30899, 31235, 33482, 33939, 34178, 34459, 35577, 37947, 38393, 38553, 38924, 39513, 43693, 43934, 44749, 45021, 45866, 46203, 50697, 50998, 51611, 52241, 52462, 53052, 53294, 54314], "trial_type": "free-recall", "conditions": [24, 800, "a", 12000], "internal_node_id": "0.0-107.0-0.0", "key_presses": [83, 84, 79, 86, 69, 13, 90, 73, 80, 80, 69, 82, 13, 67, 79, 77, 80, 65, 83, 13, 83, 67, 65, 76, 76, 79, 80, 13, 75, 73, 84, 67, 72, 69, 78, 13, 73, 78, 70, 65, 78, 84, 13, 67, 72, 73, 76, 68, 13, 84, 85, 84, 85, 13, 67, 79, 79, 75, 13, 65, 78, 75, 76, 69, 13, 84, 69, 65, 67, 72, 69, 82, 13], "trial": 3, "time_elapsed": 608338, "type": "FREE_RECALL", "trial_index": 143}, "uniqueid": "MTK3567:3NQL1CS15SFH60IDK3Y29G4FGGKVYK", "dateTime": 1520791153028}, {"current_trial": 144, "trialdata": {"rt": 2461, "trial_type": "text", "internal_node_id": "0.0-108.0", "time_elapsed": 612816, "key_press": 32, "type": "INSTRUCTIONS", "trial_index": 144}, "uniqueid": "MTK3567:3NQL1CS15SFH60IDK3Y29G4FGGKVYK", "dateTime": 1520791157495}, {"current_trial": 145, "trialdata": {"rt": [3572, 7468, 10393], "trial_type": "math-distractor", "key_times": [3326, 3572, 6401, 7139, 7468, 9602, 10083, 10393], "responses": ["6", "17", "15"], "num2": [3, 6, 5, 1], "num3": [2, 6, 9, 2], "conditions": [12, 800, "a", 12000], "internal_node_id": "0.0-109.0", "key_presses": [54, 13, 49, 55, 13, 49, 53, 13], "trial": 4, "time_elapsed": 626834, "type": "DISTRACTOR", "trial_index": 145, "num1": [1, 5, 1, 8]}, "uniqueid": "MTK3567:3NQL1CS15SFH60IDK3Y29G4FGGKVYK", "dateTime": 1520791171513}, {"current_trial": 146, "trialdata": {"rt": -1, "trial_type": "single-stim", "stimulus": "<p id=\"stim\">10</p>", "internal_node_id": "0.0-110.0-0.0", "time_elapsed": 629839, "key_press": -1, "trial_index": 146}, "uniqueid": "MTK3567:3NQL1CS15SFH60IDK3Y29G4FGGKVYK", "dateTime": 1520791174519}, {"current_trial": 147, "trialdata": {"rt": -1, "trial_type": "single-stim", "stimulus": "<p id=\"stim\">9</p>", "internal_node_id": "0.0-110.0-1.0", "time_elapsed": 630842, "key_press": -1, "trial_index": 147}, "uniqueid": "MTK3567:3NQL1CS15SFH60IDK3Y29G4FGGKVYK", "dateTime": 1520791175521}, {"current_trial": 148, "trialdata": {"rt": -1, "trial_type": "single-stim", "stimulus": "<p id=\"stim\">8</p>", "internal_node_id": "0.0-110.0-2.0", "time_elapsed": 631846, "key_press": -1, "trial_index": 148}, "uniqueid": "MTK3567:3NQL1CS15SFH60IDK3Y29G4FGGKVYK", "dateTime": 1520791176525}, {"current_trial": 149, "trialdata": {"rt": -1, "trial_type": "single-stim", "stimulus": "<p id=\"stim\">7</p>", "internal_node_id": "0.0-110.0-3.0", "time_elapsed": 632848, "key_press": -1, "trial_index": 149}, "uniqueid": "MTK3567:3NQL1CS15SFH60IDK3Y29G4FGGKVYK", "dateTime": 1520791177527}, {"current_trial": 150, "trialdata": {"rt": -1, "trial_type": "single-stim", "stimulus": "<p id=\"stim\">6</p>", "internal_node_id": "0.0-110.0-4.0", "time_elapsed": 633851, "key_press": -1, "trial_index": 150}, "uniqueid": "MTK3567:3NQL1CS15SFH60IDK3Y29G4FGGKVYK", "dateTime": 1520791178530}, {"current_trial": 151, "trialdata": {"rt": -1, "trial_type": "single-stim", "stimulus": "<p id=\"stim\">5</p>", "internal_node_id": "0.0-110.0-5.0", "time_elapsed": 634855, "key_press": -1, "trial_index": 151}, "uniqueid": "MTK3567:3NQL1CS15SFH60IDK3Y29G4FGGKVYK", "dateTime": 1520791179535}, {"current_trial": 152, "trialdata": {"rt": -1, "trial_type": "single-stim", "stimulus": "<p id=\"stim\">4</p>", "internal_node_id": "0.0-110.0-6.0", "time_elapsed": 635860, "key_press": -1, "trial_index": 152}, "uniqueid": "MTK3567:3NQL1CS15SFH60IDK3Y29G4FGGKVYK", "dateTime": 1520791180539}, {"current_trial": 153, "trialdata": {"rt": -1, "trial_type": "single-stim", "stimulus": "<p id=\"stim\">3</p>", "internal_node_id": "0.0-110.0-7.0", "time_elapsed": 636864, "key_press": -1, "trial_index": 153}, "uniqueid": "MTK3567:3NQL1CS15SFH60IDK3Y29G4FGGKVYK", "dateTime": 1520791181543}, {"current_trial": 154, "trialdata": {"rt": -1, "trial_type": "single-stim", "stimulus": "<p id=\"stim\">2</p>", "internal_node_id": "0.0-110.0-8.0", "time_elapsed": 637869, "key_press": -1, "trial_index": 154}, "uniqueid": "MTK3567:3NQL1CS15SFH60IDK3Y29G4FGGKVYK", "dateTime": 1520791182548}, {"current_trial": 155, "trialdata": {"rt": -1, "trial_type": "single-stim", "stimulus": "<p id=\"stim\">1</p>", "internal_node_id": "0.0-110.0-9.0", "time_elapsed": 638871, "key_press": -1, "trial_index": 155}, "uniqueid": "MTK3567:3NQL1CS15SFH60IDK3Y29G4FGGKVYK", "dateTime": 1520791183550}, {"current_trial": 156, "trialdata": {"rt": -1, "trial_type": "single-stim", "stimulus": "<p id=\"stim\">+</p>", "internal_node_id": "0.0-111.0-0.0", "time_elapsed": 640375, "key_press": -1, "type": "FIXATION", "trial_index": 156}, "uniqueid": "MTK3567:3NQL1CS15SFH60IDK3Y29G4FGGKVYK", "dateTime": 1520791185055}, {"current_trial": 157, "trialdata": {"rt": -1000, "trial_type": "single-audio", "word": "france", "stimulus": "/static/audio/wordpool/FRANCE.wav", "conditions": [12, 800, "a", 12000], "internal_node_id": "0.0-112.0", "trial": 4, "time_elapsed": 642039, "serialpos": 0, "key_press": -1, "wordID": 600, "type": "PRES_AUD", "trial_index": 157}, "uniqueid": "MTK3567:3NQL1CS15SFH60IDK3Y29G4FGGKVYK", "dateTime": 1520791186719}, {"current_trial": 158, "trialdata": {"rt": -1000, "trial_type": "single-audio", "word": "radish", "stimulus": "/static/audio/wordpool/RADISH.wav", "conditions": [12, 800, "a", 12000], "internal_node_id": "0.0-113.0", "trial": 4, "time_elapsed": 643839, "serialpos": 1, "key_press": -1, "wordID": 1157, "type": "PRES_AUD", "trial_index": 158}, "uniqueid": "MTK3567:3NQL1CS15SFH60IDK3Y29G4FGGKVYK", "dateTime": 1520791188519}, {"current_trial": 159, "trialdata": {"rt": -1000, "trial_type": "single-audio", "word": "turnip", "stimulus": "/static/audio/wordpool/TURNIP.wav", "conditions": [12, 800, "a", 12000], "internal_node_id": "0.0-114.0", "trial": 4, "time_elapsed": 645515, "serialpos": 2, "key_press": -1, "wordID": 1520, "type": "PRES_AUD", "trial_index": 159}, "uniqueid": "MTK3567:3NQL1CS15SFH60IDK3Y29G4FGGKVYK", "dateTime": 1520791190195}, {"current_trial": 160, "trialdata": {"rt": -1000, "trial_type": "single-audio", "word": "box", "stimulus": "/static/audio/wordpool/BOX.wav", "conditions": [12, 800, "a", 12000], "internal_node_id": "0.0-115.0", "trial": 4, "time_elapsed": 647342, "serialpos": 3, "key_press": -1, "wordID": 158, "type": "PRES_AUD", "trial_index": 160}, "uniqueid": "MTK3567:3NQL1CS15SFH60IDK3Y29G4FGGKVYK", "dateTime": 1520791192021}, {"current_trial": 161, "trialdata": {"rt": -1000, "trial_type": "single-audio", "word": "europe", "stimulus": "/static/audio/wordpool/EUROPE.wav", "conditions": [12, 800, "a", 12000], "internal_node_id": "0.0-116.0", "trial": 4, "time_elapsed": 649026, "serialpos": 4, "key_press": -1, "wordID": 540, "type": "PRES_AUD", "trial_index": 161}, "uniqueid": "MTK3567:3NQL1CS15SFH60IDK3Y29G4FGGKVYK", "dateTime": 1520791193705}, {"current_trial": 162, "trialdata": {"rt": -1000, "trial_type": "single-audio", "word": "mammal", "stimulus": "/static/audio/wordpool/MAMMAL.wav", "conditions": [12, 800, "a", 12000], "internal_node_id": "0.0-117.0", "trial": 4, "time_elapsed": 650928, "serialpos": 5, "key_press": -1, "wordID": 860, "type": "PRES_AUD", "trial_index": 162}, "uniqueid": "MTK3567:3NQL1CS15SFH60IDK3Y29G4FGGKVYK", "dateTime": 1520791195607}, {"current_trial": 163, "trialdata": {"rt": -1000, "trial_type": "single-audio", "word": "bouquet", "stimulus": "/static/audio/wordpool/BOUQUET.wav", "conditions": [12, 800, "a", 12000], "internal_node_id": "0.0-118.0", "trial": 4, "time_elapsed": 652837, "serialpos": 6, "key_press": -1, "wordID": 156, "type": "PRES_AUD", "trial_index": 163}, "uniqueid": "MTK3567:3NQL1CS15SFH60IDK3Y29G4FGGKVYK", "dateTime": 1520791197516}, {"current_trial": 164, "trialdata": {"rt": -1000, "trial_type": "single-audio", "word": "message", "stimulus": "/static/audio/wordpool/MESSAGE.wav", "conditions": [12, 800, "a", 12000], "internal_node_id": "0.0-119.0", "trial": 4, "time_elapsed": 654718, "serialpos": 7, "key_press": -1, "wordID": 887, "type": "PRES_AUD", "trial_index": 164}, "uniqueid": "MTK3567:3NQL1CS15SFH60IDK3Y29G4FGGKVYK", "dateTime": 1520791199397}, {"current_trial": 165, "trialdata": {"rt": -1000, "trial_type": "single-audio", "word": "liver", "stimulus": "/static/audio/wordpool/LIVER.wav", "conditions": [12, 800, "a", 12000], "internal_node_id": "0.0-120.0", "trial": 4, "time_elapsed": 656369, "serialpos": 8, "key_press": -1, "wordID": 832, "type": "PRES_AUD", "trial_index": 165}, "uniqueid": "MTK3567:3NQL1CS15SFH60IDK3Y29G4FGGKVYK", "dateTime": 1520791201048}, {"current_trial": 166, "trialdata": {"rt": -1000, "trial_type": "single-audio", "word": "tractor", "stimulus": "/static/audio/wordpool/TRACTOR.wav", "conditions": [12, 800, "a", 12000], "internal_node_id": "0.0-121.0", "trial": 4, "time_elapsed": 658168, "serialpos": 9, "key_press": -1, "wordID": 1492, "type": "PRES_AUD", "trial_index": 166}, "uniqueid": "MTK3567:3NQL1CS15SFH60IDK3Y29G4FGGKVYK", "dateTime": 1520791202847}, {"current_trial": 167, "trialdata": {"rt": -1000, "trial_type": "single-audio", "word": "elbow", "stimulus": "/static/audio/wordpool/ELBOW.wav", "conditions": [12, 800, "a", 12000], "internal_node_id": "0.0-122.0", "trial": 4, "time_elapsed": 660031, "serialpos": 10, "key_press": -1, "wordID": 519, "type": "PRES_AUD", "trial_index": 167}, "uniqueid": "MTK3567:3NQL1CS15SFH60IDK3Y29G4FGGKVYK", "dateTime": 1520791204710}, {"current_trial": 168, "trialdata": {"rt": -1000, "trial_type": "single-audio", "word": "plate", "stimulus": "/static/audio/wordpool/PLATE.wav", "conditions": [12, 800, "a", 12000], "internal_node_id": "0.0-123.0", "trial": 4, "time_elapsed": 661775, "serialpos": 11, "key_press": -1, "wordID": 1085, "type": "PRES_AUD", "trial_index": 168}, "uniqueid": "MTK3567:3NQL1CS15SFH60IDK3Y29G4FGGKVYK", "dateTime": 1520791206454}, {"current_trial": 169, "trialdata": {"rt": -1, "trial_type": "single-stim", "stimulus": "", "internal_node_id": "0.0-124.0-0.0", "time_elapsed": 663181, "key_press": -1, "type": "PRE_RECALL_DELAY", "trial_index": 169}, "uniqueid": "MTK3567:3NQL1CS15SFH60IDK3Y29G4FGGKVYK", "dateTime": 1520791207860}, {"current_trial": 170, "trialdata": {"rt": -1000, "trial_type": "single-audio", "stimulus": "/static/audio/400Hz.wav", "internal_node_id": "0.0-125.0", "time_elapsed": 663683, "key_press": -1, "type": "PRE_RECALL_ALERT", "trial_index": 170}, "uniqueid": "MTK3567:3NQL1CS15SFH60IDK3Y29G4FGGKVYK", "dateTime": 1520791208363}, {"current_trial": 171, "trialdata": {"rt": [4479, 8115, 11869, 17143, 19881, 25042, 28875, 34740, 40254], "recwords": ["plate", "elbow", "radish", "mammle", "fox", "europe", "liver", "tractor", "message"], "key_times": [2503, 2732, 3260, 3688, 4023, 4479, 5344, 5770, 6188, 6925, 7528, 8115, 9024, 9849, 10318, 10676, 10988, 11265, 11869, 14644, 14961, 15440, 15599, 16319, 16608, 17143, 18212, 18619, 19468, 19881, 21180, 21894, 22602, 23472, 23676, 24247, 25042, 26225, 26649, 27414, 28121, 28358, 28875, 31001, 31191, 31942, 32469, 33135, 33398, 34260, 34740, 36870, 37347, 37775, 38013, 38790, 39472, 39795, 40254], "trial_type": "free-recall", "conditions": [12, 800, "a", 12000], "internal_node_id": "0.0-126.0-0.0", "key_presses": [80, 76, 65, 84, 69, 13, 69, 76, 66, 79, 87, 13, 82, 65, 68, 73, 83, 72, 13, 77, 65, 77, 77, 76, 69, 13, 70, 79, 88, 13, 69, 85, 82, 79, 80, 69, 13, 76, 73, 86, 69, 82, 13, 84, 82, 65, 67, 84, 79, 82, 13, 77, 69, 83, 83, 65, 71, 69, 13], "trial": 4, "time_elapsed": 723719, "type": "FREE_RECALL", "trial_index": 171}, "uniqueid": "MTK3567:3NQL1CS15SFH60IDK3Y29G4FGGKVYK", "dateTime": 1520791268414}, {"current_trial": 172, "trialdata": {"rt": 1428, "trial_type": "text", "internal_node_id": "0.0-127.0", "time_elapsed": 727173, "key_press": 32, "type": "INSTRUCTIONS", "trial_index": 172}, "uniqueid": "MTK3567:3NQL1CS15SFH60IDK3Y29G4FGGKVYK", "dateTime": 1520791271852}, {"current_trial": 173, "trialdata": {"rt": [2952, 6298, 10137], "trial_type": "math-distractor", "key_times": [1849, 2263, 2952, 4760, 5699, 6298, 9073, 9295, 10137], "responses": ["19", "18", "20"], "num2": [1, 8, 8, 4], "num3": [5, 5, 4, 5], "conditions": [24, 1600, "a", 12000], "internal_node_id": "0.0-128.0", "key_presses": [49, 57, 13, 49, 56, 13, 50, 48, 13], "trial": 5, "time_elapsed": 741193, "type": "DISTRACTOR", "trial_index": 173, "num1": [9, 5, 8, 9]}, "uniqueid": "MTK3567:3NQL1CS15SFH60IDK3Y29G4FGGKVYK", "dateTime": 1520791285874}, {"current_trial": 174, "trialdata": {"rt": -1, "trial_type": "single-stim", "stimulus": "<p id=\"stim\">10</p>", "internal_node_id": "0.0-129.0-0.0", "time_elapsed": 744202, "key_press": -1, "trial_index": 174}, "uniqueid": "MTK3567:3NQL1CS15SFH60IDK3Y29G4FGGKVYK", "dateTime": 1520791288882}, {"current_trial": 175, "trialdata": {"rt": -1, "trial_type": "single-stim", "stimulus": "<p id=\"stim\">9</p>", "internal_node_id": "0.0-129.0-1.0", "time_elapsed": 745207, "key_press": -1, "trial_index": 175}, "uniqueid": "MTK3567:3NQL1CS15SFH60IDK3Y29G4FGGKVYK", "dateTime": 1520791289888}, {"current_trial": 176, "trialdata": {"rt": -1, "trial_type": "single-stim", "stimulus": "<p id=\"stim\">8</p>", "internal_node_id": "0.0-129.0-2.0", "time_elapsed": 746215, "key_press": -1, "trial_index": 176}, "uniqueid": "MTK3567:3NQL1CS15SFH60IDK3Y29G4FGGKVYK", "dateTime": 1520791290894}, {"current_trial": 177, "trialdata": {"rt": -1, "trial_type": "single-stim", "stimulus": "<p id=\"stim\">7</p>", "internal_node_id": "0.0-129.0-3.0", "time_elapsed": 747222, "key_press": -1, "trial_index": 177}, "uniqueid": "MTK3567:3NQL1CS15SFH60IDK3Y29G4FGGKVYK", "dateTime": 1520791291901}, {"current_trial": 178, "trialdata": {"rt": -1, "trial_type": "single-stim", "stimulus": "<p id=\"stim\">6</p>", "internal_node_id": "0.0-129.0-4.0", "time_elapsed": 748227, "key_press": -1, "trial_index": 178}, "uniqueid": "MTK3567:3NQL1CS15SFH60IDK3Y29G4FGGKVYK", "dateTime": 1520791292907}, {"current_trial": 179, "trialdata": {"rt": -1, "trial_type": "single-stim", "stimulus": "<p id=\"stim\">5</p>", "internal_node_id": "0.0-129.0-5.0", "time_elapsed": 749234, "key_press": -1, "trial_index": 179}, "uniqueid": "MTK3567:3NQL1CS15SFH60IDK3Y29G4FGGKVYK", "dateTime": 1520791293914}, {"current_trial": 180, "trialdata": {"rt": -1, "trial_type": "single-stim", "stimulus": "<p id=\"stim\">4</p>", "internal_node_id": "0.0-129.0-6.0", "time_elapsed": 750240, "key_press": -1, "trial_index": 180}, "uniqueid": "MTK3567:3NQL1CS15SFH60IDK3Y29G4FGGKVYK", "dateTime": 1520791294920}, {"current_trial": 181, "trialdata": {"rt": -1, "trial_type": "single-stim", "stimulus": "<p id=\"stim\">3</p>", "internal_node_id": "0.0-129.0-7.0", "time_elapsed": 751249, "key_press": -1, "trial_index": 181}, "uniqueid": "MTK3567:3NQL1CS15SFH60IDK3Y29G4FGGKVYK", "dateTime": 1520791295929}, {"current_trial": 182, "trialdata": {"rt": -1, "trial_type": "single-stim", "stimulus": "<p id=\"stim\">2</p>", "internal_node_id": "0.0-129.0-8.0", "time_elapsed": 752257, "key_press": -1, "trial_index": 182}, "uniqueid": "MTK3567:3NQL1CS15SFH60IDK3Y29G4FGGKVYK", "dateTime": 1520791296937}, {"current_trial": 183, "trialdata": {"rt": -1, "trial_type": "single-stim", "stimulus": "<p id=\"stim\">1</p>", "internal_node_id": "0.0-129.0-9.0", "time_elapsed": 753264, "key_press": -1, "trial_index": 183}, "uniqueid": "MTK3567:3NQL1CS15SFH60IDK3Y29G4FGGKVYK", "dateTime": 1520791297944}, {"current_trial": 184, "trialdata": {"rt": -1, "trial_type": "single-stim", "stimulus": "<p id=\"stim\">+</p>", "internal_node_id": "0.0-130.0-0.0", "time_elapsed": 754769, "key_press": -1, "type": "FIXATION", "trial_index": 184}, "uniqueid": "MTK3567:3NQL1CS15SFH60IDK3Y29G4FGGKVYK", "dateTime": 1520791299448}, {"current_trial": 185, "trialdata": {"rt": -1000, "trial_type": "single-audio", "word": "mildew", "stimulus": "/static/audio/wordpool/MILDEW.wav", "conditions": [24, 1600, "a", 12000], "internal_node_id": "0.0-131.0", "trial": 5, "time_elapsed": 757327, "serialpos": 0, "key_press": -1, "wordID": 892, "type": "PRES_AUD", "trial_index": 185}, "uniqueid": "MTK3567:3NQL1CS15SFH60IDK3Y29G4FGGKVYK", "dateTime": 1520791302008}, {"current_trial": 186, "trialdata": {"rt": -1000, "trial_type": "single-audio", "word": "worker", "stimulus": "/static/audio/wordpool/WORKER.wav", "conditions": [24, 1600, "a", 12000], "internal_node_id": "0.0-132.0", "trial": 5, "time_elapsed": 759856, "serialpos": 1, "key_press": -1, "wordID": 1620, "type": "PRES_AUD", "trial_index": 186}, "uniqueid": "MTK3567:3NQL1CS15SFH60IDK3Y29G4FGGKVYK", "dateTime": 1520791304535}, {"current_trial": 187, "trialdata": {"rt": -1000, "trial_type": "single-audio", "word": "dust", "stimulus": "/static/audio/wordpool/DUST.wav", "conditions": [24, 1600, "a", 12000], "internal_node_id": "0.0-133.0", "trial": 5, "time_elapsed": 762477, "serialpos": 2, "key_press": -1, "wordID": 507, "type": "PRES_AUD", "trial_index": 187}, "uniqueid": "MTK3567:3NQL1CS15SFH60IDK3Y29G4FGGKVYK", "dateTime": 1520791307157}, {"current_trial": 188, "trialdata": {"rt": -1000, "trial_type": "single-audio", "word": "apron", "stimulus": "/static/audio/wordpool/APRON.wav", "conditions": [24, 1600, "a", 12000], "internal_node_id": "0.0-134.0", "trial": 5, "time_elapsed": 765039, "serialpos": 3, "key_press": -1, "wordID": 34, "type": "PRES_AUD", "trial_index": 188}, "uniqueid": "MTK3567:3NQL1CS15SFH60IDK3Y29G4FGGKVYK", "dateTime": 1520791309718}, {"current_trial": 189, "trialdata": {"rt": -1000, "trial_type": "single-audio", "word": "custard", "stimulus": "/static/audio/wordpool/CUSTARD.wav", "conditions": [24, 1600, "a", 12000], "internal_node_id": "0.0-135.0", "trial": 5, "time_elapsed": 767532, "serialpos": 4, "key_press": -1, "wordID": 428, "type": "PRES_AUD", "trial_index": 189}, "uniqueid": "MTK3567:3NQL1CS15SFH60IDK3Y29G4FGGKVYK", "dateTime": 1520791312212}, {"current_trial": 190, "trialdata": {"rt": -1000, "trial_type": "single-audio", "word": "friend", "stimulus": "/static/audio/wordpool/FRIEND.wav", "conditions": [24, 1600, "a", 12000], "internal_node_id": "0.0-136.0", "trial": 5, "time_elapsed": 770190, "serialpos": 5, "key_press": -1, "wordID": 605, "type": "PRES_AUD", "trial_index": 190}, "uniqueid": "MTK3567:3NQL1CS15SFH60IDK3Y29G4FGGKVYK", "dateTime": 1520791314869}, {"current_trial": 191, "trialdata": {"rt": -1000, "trial_type": "single-audio", "word": "cousin", "stimulus": "/static/audio/wordpool/COUSIN.wav", "conditions": [24, 1600, "a", 12000], "internal_node_id": "0.0-137.0", "trial": 5, "time_elapsed": 772604, "serialpos": 6, "key_press": -1, "wordID": 391, "type": "PRES_AUD", "trial_index": 191}, "uniqueid": "MTK3567:3NQL1CS15SFH60IDK3Y29G4FGGKVYK", "dateTime": 1520791317283}, {"current_trial": 192, "trialdata": {"rt": -1000, "trial_type": "single-audio", "word": "shelf", "stimulus": "/static/audio/wordpool/SHELF.wav", "conditions": [24, 1600, "a", 12000], "internal_node_id": "0.0-138.0", "trial": 5, "time_elapsed": 775155, "serialpos": 7, "key_press": -1, "wordID": 1279, "type": "PRES_AUD", "trial_index": 192}, "uniqueid": "MTK3567:3NQL1CS15SFH60IDK3Y29G4FGGKVYK", "dateTime": 1520791319834}, {"current_trial": 193, "trialdata": {"rt": -1000, "trial_type": "single-audio", "word": "plaza", "stimulus": "/static/audio/wordpool/PLAZA.wav", "conditions": [24, 1600, "a", 12000], "internal_node_id": "0.0-139.0", "trial": 5, "time_elapsed": 777608, "serialpos": 8, "key_press": -1, "wordID": 1087, "type": "PRES_AUD", "trial_index": 193}, "uniqueid": "MTK3567:3NQL1CS15SFH60IDK3Y29G4FGGKVYK", "dateTime": 1520791322287}, {"current_trial": 194, "trialdata": {"rt": -1000, "trial_type": "single-audio", "word": "fungus", "stimulus": "/static/audio/wordpool/FUNGUS.wav", "conditions": [24, 1600, "a", 12000], "internal_node_id": "0.0-140.0", "trial": 5, "time_elapsed": 780285, "serialpos": 9, "key_press": -1, "wordID": 613, "type": "PRES_AUD", "trial_index": 194}, "uniqueid": "MTK3567:3NQL1CS15SFH60IDK3Y29G4FGGKVYK", "dateTime": 1520791324964}, {"current_trial": 195, "trialdata": {"rt": -1000, "trial_type": "single-audio", "word": "suspect", "stimulus": "/static/audio/wordpool/SUSPECT.wav", "conditions": [24, 1600, "a", 12000], "internal_node_id": "0.0-141.0", "trial": 5, "time_elapsed": 782991, "serialpos": 10, "key_press": -1, "wordID": 1414, "type": "PRES_AUD", "trial_index": 195}, "uniqueid": "MTK3567:3NQL1CS15SFH60IDK3Y29G4FGGKVYK", "dateTime": 1520791327672}, {"current_trial": 196, "trialdata": {"rt": -1000, "trial_type": "single-audio", "word": "highway", "stimulus": "/static/audio/wordpool/HIGHWAY.wav", "conditions": [24, 1600, "a", 12000], "internal_node_id": "0.0-142.0", "trial": 5, "time_elapsed": 785451, "serialpos": 11, "key_press": -1, "wordID": 706, "type": "PRES_AUD", "trial_index": 196}, "uniqueid": "MTK3567:3NQL1CS15SFH60IDK3Y29G4FGGKVYK", "dateTime": 1520791330130}, {"current_trial": 197, "trialdata": {"rt": -1000, "trial_type": "single-audio", "word": "record", "stimulus": "/static/audio/wordpool/RECORD.wav", "conditions": [24, 1600, "a", 12000], "internal_node_id": "0.0-143.0", "trial": 5, "time_elapsed": 788067, "serialpos": 12, "key_press": -1, "wordID": 1175, "type": "PRES_AUD", "trial_index": 197}, "uniqueid": "MTK3567:3NQL1CS15SFH60IDK3Y29G4FGGKVYK", "dateTime": 1520791332746}, {"current_trial": 198, "trialdata": {"rt": -1000, "trial_type": "single-audio", "word": "smog", "stimulus": "/static/audio/wordpool/SMOG.wav", "conditions": [24, 1600, "a", 12000], "internal_node_id": "0.0-144.0", "trial": 5, "time_elapsed": 790639, "serialpos": 13, "key_press": -1, "wordID": 1329, "type": "PRES_AUD", "trial_index": 198}, "uniqueid": "MTK3567:3NQL1CS15SFH60IDK3Y29G4FGGKVYK", "dateTime": 1520791335319}, {"current_trial": 199, "trialdata": {"rt": -1000, "trial_type": "single-audio", "word": "slime", "stimulus": "/static/audio/wordpool/SLIME.wav", "conditions": [24, 1600, "a", 12000], "internal_node_id": "0.0-145.0", "trial": 5, "time_elapsed": 793415, "serialpos": 14, "key_press": -1, "wordID": 1326, "type": "PRES_AUD", "trial_index": 199}, "uniqueid": "MTK3567:3NQL1CS15SFH60IDK3Y29G4FGGKVYK", "dateTime": 1520791338094}, {"current_trial": 200, "trialdata": {"rt": -1000, "trial_type": "single-audio", "word": "shovel", "stimulus": "/static/audio/wordpool/SHOVEL.wav", "conditions": [24, 1600, "a", 12000], "internal_node_id": "0.0-146.0", "trial": 5, "time_elapsed": 795910, "serialpos": 15, "key_press": -1, "wordID": 1294, "type": "PRES_AUD", "trial_index": 200}, "uniqueid": "MTK3567:3NQL1CS15SFH60IDK3Y29G4FGGKVYK", "dateTime": 1520791340589}, {"current_trial": 201, "trialdata": {"rt": -1000, "trial_type": "single-audio", "word": "shortcake", "stimulus": "/static/audio/wordpool/SHORTCAKE.wav", "conditions": [24, 1600, "a", 12000], "internal_node_id": "0.0-147.0", "trial": 5, "time_elapsed": 798662, "serialpos": 16, "key_press": -1, "wordID": 1291, "type": "PRES_AUD", "trial_index": 201}, "uniqueid": "MTK3567:3NQL1CS15SFH60IDK3Y29G4FGGKVYK", "dateTime": 1520791343341}, {"current_trial": 202, "trialdata": {"rt": -1000, "trial_type": "single-audio", "word": "seal", "stimulus": "/static/audio/wordpool/SEAL.wav", "conditions": [24, 1600, "a", 12000], "internal_node_id": "0.0-148.0", "trial": 5, "time_elapsed": 801144, "serialpos": 17, "key_press": -1, "wordID": 1261, "type": "PRES_AUD", "trial_index": 202}, "uniqueid": "MTK3567:3NQL1CS15SFH60IDK3Y29G4FGGKVYK", "dateTime": 1520791345824}, {"current_trial": 203, "trialdata": {"rt": -1000, "trial_type": "single-audio", "word": "valley", "stimulus": "/static/audio/wordpool/VALLEY.wav", "conditions": [24, 1600, "a", 12000], "internal_node_id": "0.0-149.0", "trial": 5, "time_elapsed": 803846, "serialpos": 18, "key_press": -1, "wordID": 1544, "type": "PRES_AUD", "trial_index": 203}, "uniqueid": "MTK3567:3NQL1CS15SFH60IDK3Y29G4FGGKVYK", "dateTime": 1520791348525}, {"current_trial": 204, "trialdata": {"rt": -1000, "trial_type": "single-audio", "word": "bison", "stimulus": "/static/audio/wordpool/BISON.wav", "conditions": [24, 1600, "a", 12000], "internal_node_id": "0.0-150.0", "trial": 5, "time_elapsed": 806271, "serialpos": 19, "key_press": -1, "wordID": 130, "type": "PRES_AUD", "trial_index": 204}, "uniqueid": "MTK3567:3NQL1CS15SFH60IDK3Y29G4FGGKVYK", "dateTime": 1520791350950}, {"current_trial": 205, "trialdata": {"rt": -1000, "trial_type": "single-audio", "word": "sponge", "stimulus": "/static/audio/wordpool/SPONGE.wav", "conditions": [24, 1600, "a", 12000], "internal_node_id": "0.0-151.0", "trial": 5, "time_elapsed": 808827, "serialpos": 20, "key_press": -1, "wordID": 1354, "type": "PRES_AUD", "trial_index": 205}, "uniqueid": "MTK3567:3NQL1CS15SFH60IDK3Y29G4FGGKVYK", "dateTime": 1520791353507}, {"current_trial": 206, "trialdata": {"rt": -1000, "trial_type": "single-audio", "word": "pastry", "stimulus": "/static/audio/wordpool/PASTRY.wav", "conditions": [24, 1600, "a", 12000], "internal_node_id": "0.0-152.0", "trial": 5, "time_elapsed": 811372, "serialpos": 21, "key_press": -1, "wordID": 1021, "type": "PRES_AUD", "trial_index": 206}, "uniqueid": "MTK3567:3NQL1CS15SFH60IDK3Y29G4FGGKVYK", "dateTime": 1520791356051}, {"current_trial": 207, "trialdata": {"rt": -1000, "trial_type": "single-audio", "word": "possum", "stimulus": "/static/audio/wordpool/POSSUM.wav", "conditions": [24, 1600, "a", 12000], "internal_node_id": "0.0-153.0", "trial": 5, "time_elapsed": 814151, "serialpos": 22, "key_press": -1, "wordID": 1111, "type": "PRES_AUD", "trial_index": 207}, "uniqueid": "MTK3567:3NQL1CS15SFH60IDK3Y29G4FGGKVYK", "dateTime": 1520791358830}, {"current_trial": 208, "trialdata": {"rt": -1000, "trial_type": "single-audio", "word": "rabbit", "stimulus": "/static/audio/wordpool/RABBIT.wav", "conditions": [24, 1600, "a", 12000], "internal_node_id": "0.0-154.0", "trial": 5, "time_elapsed": 816856, "serialpos": 23, "key_press": -1, "wordID": 1151, "type": "PRES_AUD", "trial_index": 208}, "uniqueid": "MTK3567:3NQL1CS15SFH60IDK3Y29G4FGGKVYK", "dateTime": 1520791361535}, {"current_trial": 209, "trialdata": {"rt": -1, "trial_type": "single-stim", "stimulus": "", "internal_node_id": "0.0-155.0-0.0", "time_elapsed": 818124, "key_press": -1, "type": "PRE_RECALL_DELAY", "trial_index": 209}, "uniqueid": "MTK3567:3NQL1CS15SFH60IDK3Y29G4FGGKVYK", "dateTime": 1520791362803}, {"current_trial": 210, "trialdata": {"rt": -1000, "trial_type": "single-audio", "stimulus": "/static/audio/400Hz.wav", "internal_node_id": "0.0-156.0", "time_elapsed": 818628, "key_press": -1, "type": "PRE_RECALL_ALERT", "trial_index": 210}, "uniqueid": "MTK3567:3NQL1CS15SFH60IDK3Y29G4FGGKVYK", "dateTime": 1520791363308}, {"current_trial": 211, "trialdata": {"rt": [6423, 10663, 16896, 21950, 26899, 32191, 38968, 45302, 51674, 58958], "recwords": ["rabbit", "opossum", "bison", "mildew", "dust", "apron", "fungus", "cousin", "shelf", "plaza"], "key_times": [2478, 3128, 3476, 3630, 4342, 5059, 6423, 7033, 7450, 7754, 8898, 9101, 9371, 9739, 10663, 14638, 14968, 15483, 15749, 16146, 16896, 18762, 19091, 19684, 20667, 21038, 21453, 21950, 25397, 25647, 25930, 26412, 26899, 29653, 30079, 30552, 30820, 31498, 32191, 36431, 36893, 37244, 37795, 38032, 38594, 38968, 42700, 43023, 43382, 44131, 44379, 44679, 45302, 49648, 49871, 50235, 50721, 51055, 51674, 54504, 54754, 55228, 55884, 56727, 57963, 58390, 58958], "trial_type": "free-recall", "conditions": [24, 1600, "a", 12000], "internal_node_id": "0.0-157.0-0.0", "key_presses": [82, 65, 66, 66, 73, 84, 13, 79, 80, 79, 83, 83, 85, 77, 13, 66, 73, 83, 79, 78, 13, 77, 73, 76, 68, 69, 87, 13, 68, 85, 83, 84, 13, 65, 80, 82, 79, 78, 13, 70, 85, 78, 71, 85, 83, 13, 67, 79, 85, 83, 73, 78, 13, 83, 72, 69, 76, 70, 13, 80, 76, 65, 90, 69, 8, 65, 13], "trial": 5, "time_elapsed": 878655, "type": "FREE_RECALL", "trial_index": 211}, "uniqueid": "MTK3567:3NQL1CS15SFH60IDK3Y29G4FGGKVYK", "dateTime": 1520791423359}, {"current_trial": 212, "trialdata": {"rt": 3061, "trial_type": "text", "internal_node_id": "0.0-158.0", "time_elapsed": 883794, "key_press": 32, "type": "INSTRUCTIONS", "trial_index": 212}, "uniqueid": "MTK3567:3NQL1CS15SFH60IDK3Y29G4FGGKVYK", "dateTime": 1520791428477}, {"current_trial": 213, "trialdata": {"rt": [6030, 6202, 11728], "trial_type": "math-distractor", "key_times": [5198, 5809, 6030, 6202, 10614, 11524, 11728], "responses": ["22", "", "18"], "num2": [6, 2, 9, 3], "num3": [8, 5, 4, 5], "conditions": [12, 1600, "a", 12000], "internal_node_id": "0.0-159.0", "key_presses": [50, 50, 13, 13, 49, 56, 13], "trial": 6, "time_elapsed": 897861, "type": "DISTRACTOR", "trial_index": 213, "num1": [8, 6, 5, 1]}, "uniqueid": "MTK3567:3NQL1CS15SFH60IDK3Y29G4FGGKVYK", "dateTime": 1520791442542}, {"current_trial": 214, "trialdata": {"rt": -1, "trial_type": "single-stim", "stimulus": "<p id=\"stim\">10</p>", "internal_node_id": "0.0-160.0-0.0", "time_elapsed": 900871, "key_press": -1, "trial_index": 214}, "uniqueid": "MTK3567:3NQL1CS15SFH60IDK3Y29G4FGGKVYK", "dateTime": 1520791445550}, {"current_trial": 215, "trialdata": {"rt": -1, "trial_type": "single-stim", "stimulus": "<p id=\"stim\">9</p>", "internal_node_id": "0.0-160.0-1.0", "time_elapsed": 901874, "key_press": -1, "trial_index": 215}, "uniqueid": "MTK3567:3NQL1CS15SFH60IDK3Y29G4FGGKVYK", "dateTime": 1520791446554}, {"current_trial": 216, "trialdata": {"rt": -1, "trial_type": "single-stim", "stimulus": "<p id=\"stim\">8</p>", "internal_node_id": "0.0-160.0-2.0", "time_elapsed": 902878, "key_press": -1, "trial_index": 216}, "uniqueid": "MTK3567:3NQL1CS15SFH60IDK3Y29G4FGGKVYK", "dateTime": 1520791447558}, {"current_trial": 217, "trialdata": {"rt": -1, "trial_type": "single-stim", "stimulus": "<p id=\"stim\">7</p>", "internal_node_id": "0.0-160.0-3.0", "time_elapsed": 903882, "key_press": -1, "trial_index": 217}, "uniqueid": "MTK3567:3NQL1CS15SFH60IDK3Y29G4FGGKVYK", "dateTime": 1520791448561}, {"current_trial": 218, "trialdata": {"rt": -1, "trial_type": "single-stim", "stimulus": "<p id=\"stim\">6</p>", "internal_node_id": "0.0-160.0-4.0", "time_elapsed": 904887, "key_press": -1, "trial_index": 218}, "uniqueid": "MTK3567:3NQL1CS15SFH60IDK3Y29G4FGGKVYK", "dateTime": 1520791449566}, {"current_trial": 219, "trialdata": {"rt": -1, "trial_type": "single-stim", "stimulus": "<p id=\"stim\">5</p>", "internal_node_id": "0.0-160.0-5.0", "time_elapsed": 905891, "key_press": -1, "trial_index": 219}, "uniqueid": "MTK3567:3NQL1CS15SFH60IDK3Y29G4FGGKVYK", "dateTime": 1520791450571}, {"current_trial": 220, "trialdata": {"rt": -1, "trial_type": "single-stim", "stimulus": "<p id=\"stim\">4</p>", "internal_node_id": "0.0-160.0-6.0", "time_elapsed": 906896, "key_press": -1, "trial_index": 220}, "uniqueid": "MTK3567:3NQL1CS15SFH60IDK3Y29G4FGGKVYK", "dateTime": 1520791451576}, {"current_trial": 221, "trialdata": {"rt": -1, "trial_type": "single-stim", "stimulus": "<p id=\"stim\">3</p>", "internal_node_id": "0.0-160.0-7.0", "time_elapsed": 907901, "key_press": -1, "trial_index": 221}, "uniqueid": "MTK3567:3NQL1CS15SFH60IDK3Y29G4FGGKVYK", "dateTime": 1520791452580}, {"current_trial": 222, "trialdata": {"rt": -1, "trial_type": "single-stim", "stimulus": "<p id=\"stim\">2</p>", "internal_node_id": "0.0-160.0-8.0", "time_elapsed": 908904, "key_press": -1, "trial_index": 222}, "uniqueid": "MTK3567:3NQL1CS15SFH60IDK3Y29G4FGGKVYK", "dateTime": 1520791453583}, {"current_trial": 223, "trialdata": {"rt": -1, "trial_type": "single-stim", "stimulus": "<p id=\"stim\">1</p>", "internal_node_id": "0.0-160.0-9.0", "time_elapsed": 909909, "key_press": -1, "trial_index": 223}, "uniqueid": "MTK3567:3NQL1CS15SFH60IDK3Y29G4FGGKVYK", "dateTime": 1520791454589}, {"current_trial": 224, "trialdata": {"rt": -1, "trial_type": "single-stim", "stimulus": "<p id=\"stim\">+</p>", "internal_node_id": "0.0-161.0-0.0", "time_elapsed": 911413, "key_press": -1, "type": "FIXATION", "trial_index": 224}, "uniqueid": "MTK3567:3NQL1CS15SFH60IDK3Y29G4FGGKVYK", "dateTime": 1520791456093}, {"current_trial": 225, "trialdata": {"rt": -1000, "trial_type": "single-audio", "word": "spoon", "stimulus": "/static/audio/wordpool/SPOON.wav", "conditions": [12, 1600, "a", 12000], "internal_node_id": "0.0-162.0", "trial": 6, "time_elapsed": 913829, "serialpos": 0, "key_press": -1, "wordID": 1356, "type": "PRES_AUD", "trial_index": 225}, "uniqueid": "MTK3567:3NQL1CS15SFH60IDK3Y29G4FGGKVYK", "dateTime": 1520791458509}, {"current_trial": 226, "trialdata": {"rt": -1000, "trial_type": "single-audio", "word": "scalpel", "stimulus": "/static/audio/wordpool/SCALPEL.wav", "conditions": [12, 1600, "a", 12000], "internal_node_id": "0.0-163.0", "trial": 6, "time_elapsed": 916620, "serialpos": 1, "key_press": -1, "wordID": 1242, "type": "PRES_AUD", "trial_index": 226}, "uniqueid": "MTK3567:3NQL1CS15SFH60IDK3Y29G4FGGKVYK", "dateTime": 1520791461300}, {"current_trial": 227, "trialdata": {"rt": -1000, "trial_type": "single-audio", "word": "staple", "stimulus": "/static/audio/wordpool/STAPLE.wav", "conditions": [12, 1600, "a", 12000], "internal_node_id": "0.0-164.0", "trial": 6, "time_elapsed": 919237, "serialpos": 2, "key_press": -1, "wordID": 1370, "type": "PRES_AUD", "trial_index": 227}, "uniqueid": "MTK3567:3NQL1CS15SFH60IDK3Y29G4FGGKVYK", "dateTime": 1520791463916}, {"current_trial": 228, "trialdata": {"rt": -1000, "trial_type": "single-audio", "word": "creature", "stimulus": "/static/audio/wordpool/CREATURE.wav", "conditions": [12, 1600, "a", 12000], "internal_node_id": "0.0-165.0", "trial": 6, "time_elapsed": 921826, "serialpos": 3, "key_press": -1, "wordID": 402, "type": "PRES_AUD", "trial_index": 228}, "uniqueid": "MTK3567:3NQL1CS15SFH60IDK3Y29G4FGGKVYK", "dateTime": 1520791466505}, {"current_trial": 229, "trialdata": {"rt": -1000, "trial_type": "single-audio", "word": "diner", "stimulus": "/static/audio/wordpool/DINER.wav", "conditions": [12, 1600, "a", 12000], "internal_node_id": "0.0-166.0", "trial": 6, "time_elapsed": 924376, "serialpos": 4, "key_press": -1, "wordID": 466, "type": "PRES_AUD", "trial_index": 229}, "uniqueid": "MTK3567:3NQL1CS15SFH60IDK3Y29G4FGGKVYK", "dateTime": 1520791469056}, {"current_trial": 230, "trialdata": {"rt": -1000, "trial_type": "single-audio", "word": "drill", "stimulus": "/static/audio/wordpool/DRILL.wav", "conditions": [12, 1600, "a", 12000], "internal_node_id": "0.0-167.0", "trial": 6, "time_elapsed": 927049, "serialpos": 5, "key_press": -1, "wordID": 496, "type": "PRES_AUD", "trial_index": 230}, "uniqueid": "MTK3567:3NQL1CS15SFH60IDK3Y29G4FGGKVYK", "dateTime": 1520791471728}, {"current_trial": 231, "trialdata": {"rt": -1000, "trial_type": "single-audio", "word": "market", "stimulus": "/static/audio/wordpool/MARKET.wav", "conditions": [12, 1600, "a", 12000], "internal_node_id": "0.0-168.0", "trial": 6, "time_elapsed": 929791, "serialpos": 6, "key_press": -1, "wordID": 870, "type": "PRES_AUD", "trial_index": 231}, "uniqueid": "MTK3567:3NQL1CS15SFH60IDK3Y29G4FGGKVYK", "dateTime": 1520791474471}, {"current_trial": 232, "trialdata": {"rt": -1000, "trial_type": "single-audio", "word": "cafe", "stimulus": "/static/audio/wordpool/CAFE.wav", "conditions": [12, 1600, "a", 12000], "internal_node_id": "0.0-169.0", "trial": 6, "time_elapsed": 932290, "serialpos": 7, "key_press": -1, "wordID": 215, "type": "PRES_AUD", "trial_index": 232}, "uniqueid": "MTK3567:3NQL1CS15SFH60IDK3Y29G4FGGKVYK", "dateTime": 1520791476969}, {"current_trial": 233, "trialdata": {"rt": -1000, "trial_type": "single-audio", "word": "pistol", "stimulus": "/static/audio/wordpool/PISTOL.wav", "conditions": [12, 1600, "a", 12000], "internal_node_id": "0.0-170.0", "trial": 6, "time_elapsed": 934778, "serialpos": 8, "key_press": -1, "wordID": 1074, "type": "PRES_AUD", "trial_index": 233}, "uniqueid": "MTK3567:3NQL1CS15SFH60IDK3Y29G4FGGKVYK", "dateTime": 1520791479458}, {"current_trial": 234, "trialdata": {"rt": -1000, "trial_type": "single-audio", "word": "snack", "stimulus": "/static/audio/wordpool/SNACK.wav", "conditions": [12, 1600, "a", 12000], "internal_node_id": "0.0-171.0", "trial": 6, "time_elapsed": 937313, "serialpos": 9, "key_press": -1, "wordID": 1330, "type": "PRES_AUD", "trial_index": 234}, "uniqueid": "MTK3567:3NQL1CS15SFH60IDK3Y29G4FGGKVYK", "dateTime": 1520791481992}, {"current_trial": 235, "trialdata": {"rt": -1000, "trial_type": "single-audio", "word": "soda", "stimulus": "/static/audio/wordpool/SODA.wav", "conditions": [12, 1600, "a", 12000], "internal_node_id": "0.0-172.0", "trial": 6, "time_elapsed": 939775, "serialpos": 10, "key_press": -1, "wordID": 1340, "type": "PRES_AUD", "trial_index": 235}, "uniqueid": "MTK3567:3NQL1CS15SFH60IDK3Y29G4FGGKVYK", "dateTime": 1520791484454}, {"current_trial": 236, "trialdata": {"rt": -1000, "trial_type": "single-audio", "word": "tombstone", "stimulus": "/static/audio/wordpool/TOMBSTONE.wav", "conditions": [12, 1600, "a", 12000], "internal_node_id": "0.0-173.0", "trial": 6, "time_elapsed": 942334, "serialpos": 11, "key_press": -1, "wordID": 1477, "type": "PRES_AUD", "trial_index": 236}, "uniqueid": "MTK3567:3NQL1CS15SFH60IDK3Y29G4FGGKVYK", "dateTime": 1520791487013}, {"current_trial": 237, "trialdata": {"rt": -1, "trial_type": "single-stim", "stimulus": "", "internal_node_id": "0.0-174.0-0.0", "time_elapsed": 943739, "key_press": -1, "type": "PRE_RECALL_DELAY", "trial_index": 237}, "uniqueid": "MTK3567:3NQL1CS15SFH60IDK3Y29G4FGGKVYK", "dateTime": 1520791488418}, {"current_trial": 238, "trialdata": {"rt": -1000, "trial_type": "single-audio", "stimulus": "/static/audio/400Hz.wav", "internal_node_id": "0.0-175.0", "time_elapsed": 944244, "key_press": -1, "type": "PRE_RECALL_ALERT", "trial_index": 238}, "uniqueid": "MTK3567:3NQL1CS15SFH60IDK3Y29G4FGGKVYK", "dateTime": 1520791488923}, {"current_trial": 239, "trialdata": {"rt": [8196, 11947, 15344, 20655, 27937, 33802, 38868], "recwords": ["tombstone", "soda", "snack", "spoon", "staple", "drill", "pistol"], "key_times": [3417, 3694, 5028, 5236, 5904, 6702, 7011, 7401, 7780, 8196, 10016, 10480, 10837, 11582, 11947, 12616, 13740, 13993, 14514, 14790, 15344, 18322, 18691, 19017, 19155, 19636, 20655, 25093, 25707, 26320, 26795, 27081, 27476, 27937, 31699, 32003, 32393, 32981, 33114, 33802, 36265, 36608, 37023, 37590, 37837, 38302, 38868], "trial_type": "free-recall", "conditions": [12, 1600, "a", 12000], "internal_node_id": "0.0-176.0-0.0", "key_presses": [84, 79, 77, 66, 83, 84, 79, 78, 69, 13, 83, 79, 68, 65, 13, 83, 78, 65, 67, 75, 13, 83, 80, 79, 79, 78, 13, 83, 84, 65, 80, 76, 69, 13, 68, 82, 73, 76, 76, 13, 80, 73, 83, 84, 79, 76, 13], "trial": 6, "time_elapsed": 1004279, "type": "FREE_RECALL", "trial_index": 239}, "uniqueid": "MTK3567:3NQL1CS15SFH60IDK3Y29G4FGGKVYK", "dateTime": 1520791548981}, {"current_trial": 240, "trialdata": {"rt": 5108, "trial_type": "text", "internal_node_id": "0.0-177.0", "time_elapsed": 1011416, "key_press": 32, "type": "INSTRUCTIONS", "trial_index": 240}, "uniqueid": "MTK3567:3NQL1CS15SFH60IDK3Y29G4FGGKVYK", "dateTime": 1520791556096}, {"current_trial": 241, "trialdata": {"rt": [3373, 8518], "trial_type": "math-distractor", "key_times": [3068, 3373, 7092, 8265, 8518, 11921], "responses": ["7", "19"], "num2": [1, 4, 8], "num3": [2, 6, 7], "conditions": [24, 1600, "a", 12000], "internal_node_id": "0.0-178.0", "key_presses": [55, 13, 49, 57, 13, 50], "trial": 7, "time_elapsed": 1025433, "type": "DISTRACTOR", "trial_index": 241, "num1": [4, 9, 8]}, "uniqueid": "MTK3567:3NQL1CS15SFH60IDK3Y29G4FGGKVYK", "dateTime": 1520791570113}, {"current_trial": 242, "trialdata": {"rt": -1, "trial_type": "single-stim", "stimulus": "<p id=\"stim\">10</p>", "internal_node_id": "0.0-179.0-0.0", "time_elapsed": 1028444, "key_press": -1, "trial_index": 242}, "uniqueid": "MTK3567:3NQL1CS15SFH60IDK3Y29G4FGGKVYK", "dateTime": 1520791573125}, {"current_trial": 243, "trialdata": {"rt": -1, "trial_type": "single-stim", "stimulus": "<p id=\"stim\">9</p>", "internal_node_id": "0.0-179.0-1.0", "time_elapsed": 1029450, "key_press": -1, "trial_index": 243}, "uniqueid": "MTK3567:3NQL1CS15SFH60IDK3Y29G4FGGKVYK", "dateTime": 1520791574131}, {"current_trial": 244, "trialdata": {"rt": -1, "trial_type": "single-stim", "stimulus": "<p id=\"stim\">8</p>", "internal_node_id": "0.0-179.0-2.0", "time_elapsed": 1030456, "key_press": -1, "trial_index": 244}, "uniqueid": "MTK3567:3NQL1CS15SFH60IDK3Y29G4FGGKVYK", "dateTime": 1520791575136}, {"current_trial": 245, "trialdata": {"rt": -1, "trial_type": "single-stim", "stimulus": "<p id=\"stim\">7</p>", "internal_node_id": "0.0-179.0-3.0", "time_elapsed": 1031460, "key_press": -1, "trial_index": 245}, "uniqueid": "MTK3567:3NQL1CS15SFH60IDK3Y29G4FGGKVYK", "dateTime": 1520791576139}, {"current_trial": 246, "trialdata": {"rt": -1, "trial_type": "single-stim", "stimulus": "<p id=\"stim\">6</p>", "internal_node_id": "0.0-179.0-4.0", "time_elapsed": 1032462, "key_press": -1, "trial_index": 246}, "uniqueid": "MTK3567:3NQL1CS15SFH60IDK3Y29G4FGGKVYK", "dateTime": 1520791577142}, {"current_trial": 247, "trialdata": {"rt": -1, "trial_type": "single-stim", "stimulus": "<p id=\"stim\">5</p>", "internal_node_id": "0.0-179.0-5.0", "time_elapsed": 1033465, "key_press": -1, "trial_index": 247}, "uniqueid": "MTK3567:3NQL1CS15SFH60IDK3Y29G4FGGKVYK", "dateTime": 1520791578144}, {"current_trial": 248, "trialdata": {"rt": -1, "trial_type": "single-stim", "stimulus": "<p id=\"stim\">4</p>", "internal_node_id": "0.0-179.0-6.0", "time_elapsed": 1034467, "key_press": -1, "trial_index": 248}, "uniqueid": "MTK3567:3NQL1CS15SFH60IDK3Y29G4FGGKVYK", "dateTime": 1520791579147}, {"current_trial": 249, "trialdata": {"rt": -1, "trial_type": "single-stim", "stimulus": "<p id=\"stim\">3</p>", "internal_node_id": "0.0-179.0-7.0", "time_elapsed": 1035472, "key_press": -1, "trial_index": 249}, "uniqueid": "MTK3567:3NQL1CS15SFH60IDK3Y29G4FGGKVYK", "dateTime": 1520791580152}, {"current_trial": 250, "trialdata": {"rt": -1, "trial_type": "single-stim", "stimulus": "<p id=\"stim\">2</p>", "internal_node_id": "0.0-179.0-8.0", "time_elapsed": 1036476, "key_press": -1, "trial_index": 250}, "uniqueid": "MTK3567:3NQL1CS15SFH60IDK3Y29G4FGGKVYK", "dateTime": 1520791581156}, {"current_trial": 251, "trialdata": {"rt": -1, "trial_type": "single-stim", "stimulus": "<p id=\"stim\">1</p>", "internal_node_id": "0.0-179.0-9.0", "time_elapsed": 1037483, "key_press": -1, "trial_index": 251}, "uniqueid": "MTK3567:3NQL1CS15SFH60IDK3Y29G4FGGKVYK", "dateTime": 1520791582163}, {"current_trial": 252, "trialdata": {"rt": -1, "trial_type": "single-stim", "stimulus": "<p id=\"stim\">+</p>", "internal_node_id": "0.0-180.0-0.0", "time_elapsed": 1038988, "key_press": -1, "type": "FIXATION", "trial_index": 252}, "uniqueid": "MTK3567:3NQL1CS15SFH60IDK3Y29G4FGGKVYK", "dateTime": 1520791583667}, {"current_trial": 253, "trialdata": {"rt": -1000, "trial_type": "single-audio", "word": "clothes", "stimulus": "/static/audio/wordpool/CLOTHES.wav", "conditions": [24, 1600, "a", 12000], "internal_node_id": "0.0-181.0", "trial": 7, "time_elapsed": 1041505, "serialpos": 0, "key_press": -1, "wordID": 326, "type": "PRES_AUD", "trial_index": 253}, "uniqueid": "MTK3567:3NQL1CS15SFH60IDK3Y29G4FGGKVYK", "dateTime": 1520791586184}, {"current_trial": 254, "trialdata": {"rt": -1000, "trial_type": "single-audio", "word": "napkin", "stimulus": "/static/audio/wordpool/NAPKIN.wav", "conditions": [24, 1600, "a", 12000], "internal_node_id": "0.0-182.0", "trial": 7, "time_elapsed": 1044263, "serialpos": 1, "key_press": -1, "wordID": 936, "type": "PRES_AUD", "trial_index": 254}, "uniqueid": "MTK3567:3NQL1CS15SFH60IDK3Y29G4FGGKVYK", "dateTime": 1520791588943}, {"current_