{"assignmentId": "3GD6L00D3T41Q7D1UMQ28XASJKQM1O", "workerId": "MTK3779", "questiondata": {"origin": "United States", "strat-rehearsal": "44", "marital": "Single", "education": "Bachelor's degree", "ethnicity": "Not Hispanic", "color_depth": 24, "distracted": "No", "wrote-notes": "No", "strat-other": "", "screen_width": 1600, "avail_screen_width": 1600, "avail_screen_height": 860, "strat-image": "40", "language": "English", "gender": "Female", "age": "27", "gender_other": "", "race": ["Black"], "strat-categorize": "100", "pixel_depth": 24, "strat-spatial": "52", "strat-story": "20", "race_other": "", "screen_height": 900}, "bonus": 0, "hitId": "3J9L0X0VDFTDX4CGCZ6G7HYIT8Z9W5", "counterbalance": 1066, "useragent": "Mozilla/5.0 (Windows NT 6.1; Win64; x64) AppleWebKit/537.36 (KHTML, like Gecko) Chrome/64.0.3282.186 Safari/537.36", "eventdata": [{"eventtype": "initialized", "interval": 0, "value": null, "timestamp": 1521386830388}, {"eventtype": "window_resize", "interval": 0, "value": [1600, 854], "timestamp": 1521386830388}], "data": [{"current_trial": 0, "trialdata": {"rt": 99653, "trial_type": "text", "internal_node_id": "0.0-0.0", "time_elapsed": 99661, "key_press": 32, "type": "INSTRUCTIONS", "trial_index": 0}, "uniqueid": "MTK3779:3GD6L00D3T41Q7D1UMQ28XASJKQM1O", "dateTime": 1521386954750}, {"current_trial": 1, "trialdata": {"rt": 8183, "trial_type": "text", "internal_node_id": "0.0-1.0", "time_elapsed": 107846, "key_press": 175, "type": "INSTRUCTIONS", "trial_index": 1}, "uniqueid": "MTK3779:3GD6L00D3T41Q7D1UMQ28XASJKQM1O", "dateTime": 1521386962934}, {"current_trial": 2, "trialdata": {"rt": [28635], "trial_type": "audio-test", "responses": ["ocean"], "internal_node_id": "0.0-2.0", "time_elapsed": 136499, "type": "AUDIO_TEST", "trial_index": 2}, "uniqueid": "MTK3779:3GD6L00D3T41Q7D1UMQ28XASJKQM1O", "dateTime": 1521386991587}, {"current_trial": 3, "trialdata": {"rt": [7503], "trial_type": "audio-test", "responses": ["crystal"], "internal_node_id": "0.0-3.0", "time_elapsed": 144012, "type": "AUDIO_TEST", "trial_index": 3}, "uniqueid": "MTK3779:3GD6L00D3T41Q7D1UMQ28XASJKQM1O", "dateTime": 1521386999100}, {"current_trial": 4, "trialdata": {"rt": [21064], "trial_type": "audio-test", "responses": ["spice"], "internal_node_id": "0.0-4.0", "time_elapsed": 165082, "type": "AUDIO_TEST", "trial_index": 4}, "uniqueid": "MTK3779:3GD6L00D3T41Q7D1UMQ28XASJKQM1O", "dateTime": 1521387020170}, {"current_trial": 5, "trialdata": {"rt": 42186, "trial_type": "survey-text", "responses": "{\"Q0\":\"2:00 am\",\"Q1\":\"08:30 am\",\"Q2\":\"5\"}", "internal_node_id": "0.0-5.0", "time_elapsed": 208019, "type": "SLEEP_SURVEY", "trial_index": 5}, "uniqueid": "MTK3779:3GD6L00D3T41Q7D1UMQ28XASJKQM1O", "dateTime": 1521387063107}, {"current_trial": 6, "trialdata": {"rt": 191493, "trial_type": "text", "internal_node_id": "0.0-6.0", "time_elapsed": 400514, "key_press": 32, "type": "INSTRUCTIONS", "trial_index": 6}, "uniqueid": "MTK3779:3GD6L00D3T41Q7D1UMQ28XASJKQM1O", "dateTime": 1521387255602}, {"current_trial": 7, "trialdata": {"rt": 20483, "trial_type": "text", "internal_node_id": "0.0-7.0", "time_elapsed": 421498, "key_press": 32, "type": "INSTRUCTIONS", "trial_index": 7}, "uniqueid": "MTK3779:3GD6L00D3T41Q7D1UMQ28XASJKQM1O", "dateTime": 1521387276586}, {"current_trial": 8, "trialdata": {"rt": 4963, "trial_type": "text", "internal_node_id": "0.0-8.0", "time_elapsed": 426961, "key_press": 32, "type": "INSTRUCTIONS", "trial_index": 8}, "uniqueid": "MTK3779:3GD6L00D3T41Q7D1UMQ28XASJKQM1O", "dateTime": 1521387282050}, {"current_trial": 9, "trialdata": {"rt": [6494, 10823, 14966], "trial_type": "math-distractor", "key_times": [5935, 6006, 6494, 10823, 13966, 14182, 14966], "responses": ["16", "", "19"], "num2": [6, 9, 9, 9], "num3": [1, 3, 1, 2], "conditions": [18, 1200, "a", 18000], "internal_node_id": "0.0-9.0", "key_presses": [97, 102, 13, 13, 97, 105, 13], "trial": 0, "time_elapsed": 445972, "type": "DISTRACTOR", "trial_index": 9, "num1": [9, 5, 9, 8]}, "uniqueid": "MTK3779:3GD6L00D3T41Q7D1UMQ28XASJKQM1O", "dateTime": 1521387301060}, {"current_trial": 10, "trialdata": {"rt": -1, "trial_type": "single-stim", "stimulus": "<p id=\"stim\">10</p>", "internal_node_id": "0.0-10.0-0.0", "time_elapsed": 448976, "key_press": -1, "trial_index": 10}, "uniqueid": "MTK3779:3GD6L00D3T41Q7D1UMQ28XASJKQM1O", "dateTime": 1521387304064}, {"current_trial": 11, "trialdata": {"rt": -1, "trial_type": "single-stim", "stimulus": "<p id=\"stim\">9</p>", "internal_node_id": "0.0-10.0-1.0", "time_elapsed": 449978, "key_press": -1, "trial_index": 11}, "uniqueid": "MTK3779:3GD6L00D3T41Q7D1UMQ28XASJKQM1O", "dateTime": 1521387305066}, {"current_trial": 12, "trialdata": {"rt": -1, "trial_type": "single-stim", "stimulus": "<p id=\"stim\">8</p>", "internal_node_id": "0.0-10.0-2.0", "time_elapsed": 450980, "key_press": -1, "trial_index": 12}, "uniqueid": "MTK3779:3GD6L00D3T41Q7D1UMQ28XASJKQM1O", "dateTime": 1521387306068}, {"current_trial": 13, "trialdata": {"rt": -1, "trial_type": "single-stim", "stimulus": "<p id=\"stim\">7</p>", "internal_node_id": "0.0-10.0-3.0", "time_elapsed": 451981, "key_press": -1, "trial_index": 13}, "uniqueid": "MTK3779:3GD6L00D3T41Q7D1UMQ28XASJKQM1O", "dateTime": 1521387307069}, {"current_trial": 14, "trialdata": {"rt": -1, "trial_type": "single-stim", "stimulus": "<p id=\"stim\">6</p>", "internal_node_id": "0.0-10.0-4.0", "time_elapsed": 452981, "key_press": -1, "trial_index": 14}, "uniqueid": "MTK3779:3GD6L00D3T41Q7D1UMQ28XASJKQM1O", "dateTime": 1521387308070}, {"current_trial": 15, "trialdata": {"rt": 82, "trial_type": "single-stim", "stimulus": "<p id=\"stim\">5</p>", "internal_node_id": "0.0-10.0-5.0", "time_elapsed": 453983, "key_press": 99, "trial_index": 15}, "uniqueid": "MTK3779:3GD6L00D3T41Q7D1UMQ28XASJKQM1O", "dateTime": 1521387309072}, {"current_trial": 16, "trialdata": {"rt": 9, "trial_type": "single-stim", "stimulus": "<p id=\"stim\">4</p>", "internal_node_id": "0.0-10.0-6.0", "time_elapsed": 454986, "key_press": 99, "trial_index": 16}, "uniqueid": "MTK3779:3GD6L00D3T41Q7D1UMQ28XASJKQM1O", "dateTime": 1521387310074}, {"current_trial": 17, "trialdata": {"rt": -1, "trial_type": "single-stim", "stimulus": "<p id=\"stim\">3</p>", "internal_node_id": "0.0-10.0-7.0", "time_elapsed": 455990, "key_press": -1, "trial_index": 17}, "uniqueid": "MTK3779:3GD6L00D3T41Q7D1UMQ28XASJKQM1O", "dateTime": 1521387311078}, {"current_trial": 18, "trialdata": {"rt": -1, "trial_type": "single-stim", "stimulus": "<p id=\"stim\">2</p>", "internal_node_id": "0.0-10.0-8.0", "time_elapsed": 456991, "key_press": -1, "trial_index": 18}, "uniqueid": "MTK3779:3GD6L00D3T41Q7D1UMQ28XASJKQM1O", "dateTime": 1521387312080}, {"current_trial": 19, "trialdata": {"rt": -1, "trial_type": "single-stim", "stimulus": "<p id=\"stim\">1</p>", "internal_node_id": "0.0-10.0-9.0", "time_elapsed": 457993, "key_press": -1, "trial_index": 19}, "uniqueid": "MTK3779:3GD6L00D3T41Q7D1UMQ28XASJKQM1O", "dateTime": 1521387313081}, {"current_trial": 20, "trialdata": {"rt": -1, "trial_type": "single-stim", "stimulus": "<p id=\"stim\">+</p>", "internal_node_id": "0.0-11.0-0.0", "time_elapsed": 459494, "key_press": -1, "type": "FIXATION", "trial_index": 20}, "uniqueid": "MTK3779:3GD6L00D3T41Q7D1UMQ28XASJKQM1O", "dateTime": 1521387314582}, {"current_trial": 21, "trialdata": {"rt": -1000, "trial_type": "single-audio", "word": "helmet", "stimulus": "/static/audio/wordpool/HELMET.wav", "conditions": [18, 1200, "a", 18000], "internal_node_id": "0.0-12.0", "trial": 0, "time_elapsed": 461780, "serialpos": 0, "key_press": -1, "wordID": 701, "type": "PRES_AUD", "trial_index": 21}, "uniqueid": "MTK3779:3GD6L00D3T41Q7D1UMQ28XASJKQM1O", "dateTime": 1521387316869}, {"current_trial": 22, "trialdata": {"rt": -1000, "trial_type": "single-audio", "word": "slope", "stimulus": "/static/audio/wordpool/SLOPE.wav", "conditions": [18, 1200, "a", 18000], "internal_node_id": "0.0-13.0", "trial": 0, "time_elapsed": 463833, "serialpos": 1, "key_press": -1, "wordID": 1327, "type": "PRES_AUD", "trial_index": 22}, "uniqueid": "MTK3779:3GD6L00D3T41Q7D1UMQ28XASJKQM1O", "dateTime": 1521387318921}, {"current_trial": 23, "trialdata": {"rt": -1000, "trial_type": "single-audio", "word": "relish", "stimulus": "/static/audio/wordpool/RELISH.wav", "conditions": [18, 1200, "a", 18000], "internal_node_id": "0.0-14.0", "trial": 0, "time_elapsed": 465840, "serialpos": 2, "key_press": -1, "wordID": 1182, "type": "PRES_AUD", "trial_index": 23}, "uniqueid": "MTK3779:3GD6L00D3T41Q7D1UMQ28XASJKQM1O", "dateTime": 1521387320928}, {"current_trial": 24, "trialdata": {"rt": -1000, "trial_type": "single-audio", "word": "lion", "stimulus": "/static/audio/wordpool/LION.wav", "conditions": [18, 1200, "a", 18000], "internal_node_id": "0.0-15.0", "trial": 0, "time_elapsed": 468188, "serialpos": 3, "key_press": -1, "wordID": 826, "type": "PRES_AUD", "trial_index": 24}, "uniqueid": "MTK3779:3GD6L00D3T41Q7D1UMQ28XASJKQM1O", "dateTime": 1521387323276}, {"current_trial": 25, "trialdata": {"rt": -1000, "trial_type": "single-audio", "word": "pigment", "stimulus": "/static/audio/wordpool/PIGMENT.wav", "conditions": [18, 1200, "a", 18000], "internal_node_id": "0.0-16.0", "trial": 0, "time_elapsed": 470270, "serialpos": 4, "key_press": -1, "wordID": 1065, "type": "PRES_AUD", "trial_index": 25}, "uniqueid": "MTK3779:3GD6L00D3T41Q7D1UMQ28XASJKQM1O", "dateTime": 1521387325359}, {"current_trial": 26, "trialdata": {"rt": -1000, "trial_type": "single-audio", "word": "thief", "stimulus": "/static/audio/wordpool/THIEF.wav", "conditions": [18, 1200, "a", 18000], "internal_node_id": "0.0-17.0", "trial": 0, "time_elapsed": 472630, "serialpos": 5, "key_press": -1, "wordID": 1455, "type": "PRES_AUD", "trial_index": 26}, "uniqueid": "MTK3779:3GD6L00D3T41Q7D1UMQ28XASJKQM1O", "dateTime": 1521387327718}, {"current_trial": 27, "trialdata": {"rt": -1000, "trial_type": "single-audio", "word": "crutch", "stimulus": "/static/audio/wordpool/CRUTCH.wav", "conditions": [18, 1200, "a", 18000], "internal_node_id": "0.0-18.0", "trial": 0, "time_elapsed": 474814, "serialpos": 6, "key_press": -1, "wordID": 416, "type": "PRES_AUD", "trial_index": 27}, "uniqueid": "MTK3779:3GD6L00D3T41Q7D1UMQ28XASJKQM1O", "dateTime": 1521387329902}, {"current_trial": 28, "trialdata": {"rt": -1000, "trial_type": "single-audio", "word": "rattle", "stimulus": "/static/audio/wordpool/RATTLE.wav", "conditions": [18, 1200, "a", 18000], "internal_node_id": "0.0-19.0", "trial": 0, "time_elapsed": 476907, "serialpos": 7, "key_press": -1, "wordID": 1169, "type": "PRES_AUD", "trial_index": 28}, "uniqueid": "MTK3779:3GD6L00D3T41Q7D1UMQ28XASJKQM1O", "dateTime": 1521387331996}, {"current_trial": 29, "trialdata": {"rt": -1000, "trial_type": "single-audio", "word": "arm", "stimulus": "/static/audio/wordpool/ARM.wav", "conditions": [18, 1200, "a", 18000], "internal_node_id": "0.0-20.0", "trial": 0, "time_elapsed": 479246, "serialpos": 8, "key_press": -1, "wordID": 37, "type": "PRES_AUD", "trial_index": 29}, "uniqueid": "MTK3779:3GD6L00D3T41Q7D1UMQ28XASJKQM1O", "dateTime": 1521387334334}, {"current_trial": 30, "trialdata": {"rt": -1000, "trial_type": "single-audio", "word": "liver", "stimulus": "/static/audio/wordpool/LIVER.wav", "conditions": [18, 1200, "a", 18000], "internal_node_id": "0.0-21.0", "trial": 0, "time_elapsed": 481418, "serialpos": 9, "key_press": -1, "wordID": 832, "type": "PRES_AUD", "trial_index": 30}, "uniqueid": "MTK3779:3GD6L00D3T41Q7D1UMQ28XASJKQM1O", "dateTime": 1521387336506}, {"current_trial": 31, "trialdata": {"rt": -1000, "trial_type": "single-audio", "word": "foot", "stimulus": "/static/audio/wordpool/FOOT.wav", "conditions": [18, 1200, "a", 18000], "internal_node_id": "0.0-22.0", "trial": 0, "time_elapsed": 483660, "serialpos": 10, "key_press": -1, "wordID": 589, "type": "PRES_AUD", "trial_index": 31}, "uniqueid": "MTK3779:3GD6L00D3T41Q7D1UMQ28XASJKQM1O", "dateTime": 1521387338748}, {"current_trial": 32, "trialdata": {"rt": -1000, "trial_type": "single-audio", "word": "plaster", "stimulus": "/static/audio/wordpool/PLASTER.wav", "conditions": [18, 1200, "a", 18000], "internal_node_id": "0.0-23.0", "trial": 0, "time_elapsed": 485862, "serialpos": 11, "key_press": -1, "wordID": 1084, "type": "PRES_AUD", "trial_index": 32}, "uniqueid": "MTK3779:3GD6L00D3T41Q7D1UMQ28XASJKQM1O", "dateTime": 1521387340950}, {"current_trial": 33, "trialdata": {"rt": -1000, "trial_type": "single-audio", "word": "author", "stimulus": "/static/audio/wordpool/AUTHOR.wav", "conditions": [18, 1200, "a", 18000], "internal_node_id": "0.0-24.0", "trial": 0, "time_elapsed": 487904, "serialpos": 12, "key_press": -1, "wordID": 60, "type": "PRES_AUD", "trial_index": 33}, "uniqueid": "MTK3779:3GD6L00D3T41Q7D1UMQ28XASJKQM1O", "dateTime": 1521387342992}, {"current_trial": 34, "trialdata": {"rt": -1000, "trial_type": "single-audio", "word": "tuba", "stimulus": "/static/audio/wordpool/TUBA.wav", "conditions": [18, 1200, "a", 18000], "internal_node_id": "0.0-25.0", "trial": 0, "time_elapsed": 490070, "serialpos": 13, "key_press": -1, "wordID": 1514, "type": "PRES_AUD", "trial_index": 34}, "uniqueid": "MTK3779:3GD6L00D3T41Q7D1UMQ28XASJKQM1O", "dateTime": 1521387345158}, {"current_trial": 35, "trialdata": {"rt": -1000, "trial_type": "single-audio", "word": "clamp", "stimulus": "/static/audio/wordpool/CLAMP.wav", "conditions": [18, 1200, "a", 18000], "internal_node_id": "0.0-26.0", "trial": 0, "time_elapsed": 492180, "serialpos": 14, "key_press": -1, "wordID": 315, "type": "PRES_AUD", "trial_index": 35}, "uniqueid": "MTK3779:3GD6L00D3T41Q7D1UMQ28XASJKQM1O", "dateTime": 1521387347268}, {"current_trial": 36, "trialdata": {"rt": -1000, "trial_type": "single-audio", "word": "bubble", "stimulus": "/static/audio/wordpool/BUBBLE.wav", "conditions": [18, 1200, "a", 18000], "internal_node_id": "0.0-27.0", "trial": 0, "time_elapsed": 494268, "serialpos": 15, "key_press": -1, "wordID": 182, "type": "PRES_AUD", "trial_index": 36}, "uniqueid": "MTK3779:3GD6L00D3T41Q7D1UMQ28XASJKQM1O", "dateTime": 1521387349356}, {"current_trial": 37, "trialdata": {"rt": -1000, "trial_type": "single-audio", "word": "powder", "stimulus": "/static/audio/wordpool/POWDER.wav", "conditions": [18, 1200, "a", 18000], "internal_node_id": "0.0-28.0", "trial": 0, "time_elapsed": 496663, "serialpos": 16, "key_press": -1, "wordID": 1116, "type": "PRES_AUD", "trial_index": 37}, "uniqueid": "MTK3779:3GD6L00D3T41Q7D1UMQ28XASJKQM1O", "dateTime": 1521387351751}, {"current_trial": 38, "trialdata": {"rt": -1000, "trial_type": "single-audio", "word": "island", "stimulus": "/static/audio/wordpool/ISLAND.wav", "conditions": [18, 1200, "a", 18000], "internal_node_id": "0.0-29.0", "trial": 0, "time_elapsed": 498745, "serialpos": 17, "key_press": -1, "wordID": 744, "type": "PRES_AUD", "trial_index": 38}, "uniqueid": "MTK3779:3GD6L00D3T41Q7D1UMQ28XASJKQM1O", "dateTime": 1521387353833}, {"current_trial": 39, "trialdata": {"rt": -1, "trial_type": "single-stim", "stimulus": "", "internal_node_id": "0.0-30.0-0.0", "time_elapsed": 500033, "key_press": -1, "type": "PRE_RECALL_DELAY", "trial_index": 39}, "uniqueid": "MTK3779:3GD6L00D3T41Q7D1UMQ28XASJKQM1O", "dateTime": 1521387355121}, {"current_trial": 40, "trialdata": {"rt": -1000, "trial_type": "single-audio", "stimulus": "/static/audio/400Hz.wav", "internal_node_id": "0.0-31.0", "time_elapsed": 500533, "key_press": -1, "type": "PRE_RECALL_ALERT", "trial_index": 40}, "uniqueid": "MTK3779:3GD6L00D3T41Q7D1UMQ28XASJKQM1O", "dateTime": 1521387355621}, {"current_trial": 41, "trialdata": {"rt": [4176, 6095, 7824, 9842, 12114, 15519, 19144, 21280, 22919, 24792, 27440, 31864, 36729, 39025, 44113, 50464, 53351], "recwords": ["liver", "food", "slope", "rilish", "lion", "pigment", "their", "island", "foot", "tuba", "raddle", "crutch", "helmet", "clamp", "bubble", "author", "arm"], "key_times": [2705, 2887, 3024, 3256, 3344, 4176, 4922, 5024, 5175, 5480, 6095, 6432, 6753, 6953, 7384, 7543, 7824, 8392, 8551, 8977, 9169, 9225, 9354, 9842, 10850, 11056, 11216, 11385, 12114, 13122, 13880, 14200, 14360, 14480, 14528, 15097, 15519, 16000, 17456, 18136, 18240, 18433, 19144, 19559, 19728, 19848, 20024, 20128, 20504, 21280, 21737, 21832, 21976, 22312, 22919, 23417, 23480, 23776, 23872, 24792, 26000, 26136, 26367, 26496, 26624, 26769, 27440, 27722, 28425, 28594, 28856, 29000, 29184, 29281, 30233, 30457, 30544, 31864, 34632, 34792, 34848, 35169, 35248, 35927, 36729, 37039, 37111, 37256, 37409, 38056, 39025, 41080, 41328, 41648, 41774, 41936, 42104, 44113, 46721, 46880, 47904, 48328, 48818, 48856, 49001, 49088, 50464, 52680, 52919, 53071, 53351], "trial_type": "free-recall", "conditions": [18, 1200, "a", 18000], "internal_node_id": "0.0-32.0-0.0", "key_presses": [76, 73, 86, 69, 82, 13, 70, 79, 79, 68, 13, 83, 76, 79, 80, 69, 13, 82, 73, 76, 73, 83, 72, 13, 76, 73, 79, 78, 13, 80, 73, 71, 77, 69, 78, 84, 13, 84, 72, 69, 73, 82, 13, 73, 83, 76, 65, 78, 68, 13, 70, 79, 79, 84, 13, 84, 85, 66, 65, 13, 82, 65, 68, 68, 76, 69, 13, 82, 8, 67, 82, 85, 84, 72, 8, 67, 72, 13, 72, 69, 76, 77, 69, 84, 13, 67, 76, 65, 77, 80, 13, 66, 85, 66, 66, 76, 69, 13, 65, 73, 8, 85, 84, 72, 79, 82, 13, 65, 82, 77, 13], "trial": 0, "time_elapsed": 560536, "type": "FREE_RECALL", "trial_index": 41}, "uniqueid": "MTK3779:3GD6L00D3T41Q7D1UMQ28XASJKQM1O", "dateTime": 1521387415626}, {"current_trial": 42, "trialdata": {"rt": 2278, "trial_type": "text", "internal_node_id": "0.0-33.0", "time_elapsed": 564817, "key_press": 32, "type": "INSTRUCTIONS", "trial_index": 42}, "uniqueid": "MTK3779:3GD6L00D3T41Q7D1UMQ28XASJKQM1O", "dateTime": 1521387419905}, {"current_trial": 43, "trialdata": {"rt": [4037, 6221, 9492, 15389], "trial_type": "math-distractor", "key_times": [3172, 3341, 4037, 5356, 5557, 6221, 9156, 9492, 14606, 14757, 15389], "responses": ["14", "17", "8", "19"], "num2": [1, 2, 4, 8, 7], "num3": [7, 7, 2, 6, 1], "conditions": [18, 1200, "a", 18000], "internal_node_id": "0.0-34.0", "key_presses": [97, 100, 13, 97, 103, 13, 104, 13, 97, 105, 13], "trial": 1, "time_elapsed": 584820, "type": "DISTRACTOR", "trial_index": 43, "num1": [6, 8, 2, 5, 8]}, "uniqueid": "MTK3779:3GD6L00D3T41Q7D1UMQ28XASJKQM1O", "dateTime": 1521387439909}, {"current_trial": 44, "trialdata": {"rt": -1, "trial_type": "single-stim", "stimulus": "<p id=\"stim\">10</p>", "internal_node_id": "0.0-35.0-0.0", "time_elapsed": 587828, "key_press": -1, "trial_index": 44}, "uniqueid": "MTK3779:3GD6L00D3T41Q7D1UMQ28XASJKQM1O", "dateTime": 1521387442916}, {"current_trial": 45, "trialdata": {"rt": -1, "trial_type": "single-stim", "stimulus": "<p id=\"stim\">9</p>", "internal_node_id": "0.0-35.0-1.0", "time_elapsed": 588829, "key_press": -1, "trial_index": 45}, "uniqueid": "MTK3779:3GD6L00D3T41Q7D1UMQ28XASJKQM1O", "dateTime": 1521387443917}, {"current_trial": 46, "trialdata": {"rt": -1, "trial_type": "single-stim", "stimulus": "<p id=\"stim\">8</p>", "internal_node_id": "0.0-35.0-2.0", "time_elapsed": 589830, "key_press": -1, "trial_index": 46}, "uniqueid": "MTK3779:3GD6L00D3T41Q7D1UMQ28XASJKQM1O", "dateTime": 1521387444918}, {"current_trial": 47, "trialdata": {"rt": -1, "trial_type": "single-stim", "stimulus": "<p id=\"stim\">7</p>", "internal_node_id": "0.0-35.0-3.0", "time_elapsed": 590832, "key_press": -1, "trial_index": 47}, "uniqueid": "MTK3779:3GD6L00D3T41Q7D1UMQ28XASJKQM1O", "dateTime": 1521387445920}, {"current_trial": 48, "trialdata": {"rt": -1, "trial_type": "single-stim", "stimulus": "<p id=\"stim\">6</p>", "internal_node_id": "0.0-35.0-4.0", "time_elapsed": 591832, "key_press": -1, "trial_index": 48}, "uniqueid": "MTK3779:3GD6L00D3T41Q7D1UMQ28XASJKQM1O", "dateTime": 1521387446920}, {"current_trial": 49, "trialdata": {"rt": -1, "trial_type": "single-stim", "stimulus": "<p id=\"stim\">5</p>", "internal_node_id": "0.0-35.0-5.0", "time_elapsed": 592833, "key_press": -1, "trial_index": 49}, "uniqueid": "MTK3779:3GD6L00D3T41Q7D1UMQ28XASJKQM1O", "dateTime": 1521387447921}, {"current_trial": 50, "trialdata": {"rt": -1, "trial_type": "single-stim", "stimulus": "<p id=\"stim\">4</p>", "internal_node_id": "0.0-35.0-6.0", "time_elapsed": 593834, "key_press": -1, "trial_index": 50}, "uniqueid": "MTK3779:3GD6L00D3T41Q7D1UMQ28XASJKQM1O", "dateTime": 1521387448922}, {"current_trial": 51, "trialdata": {"rt": -1, "trial_type": "single-stim", "stimulus": "<p id=\"stim\">3</p>", "internal_node_id": "0.0-35.0-7.0", "time_elapsed": 594835, "key_press": -1, "trial_index": 51}, "uniqueid": "MTK3779:3GD6L00D3T41Q7D1UMQ28XASJKQM1O", "dateTime": 1521387449923}, {"current_trial": 52, "trialdata": {"rt": -1, "trial_type": "single-stim", "stimulus": "<p id=\"stim\">2</p>", "internal_node_id": "0.0-35.0-8.0", "time_elapsed": 595836, "key_press": -1, "trial_index": 52}, "uniqueid": "MTK3779:3GD6L00D3T41Q7D1UMQ28XASJKQM1O", "dateTime": 1521387450924}, {"current_trial": 53, "trialdata": {"rt": -1, "trial_type": "single-stim", "stimulus": "<p id=\"stim\">1</p>", "internal_node_id": "0.0-35.0-9.0", "time_elapsed": 596836, "key_press": -1, "trial_index": 53}, "uniqueid": "MTK3779:3GD6L00D3T41Q7D1UMQ28XASJKQM1O", "dateTime": 1521387451925}, {"current_trial": 54, "trialdata": {"rt": -1, "trial_type": "single-stim", "stimulus": "<p id=\"stim\">+</p>", "internal_node_id": "0.0-36.0-0.0", "time_elapsed": 598339, "key_press": -1, "type": "FIXATION", "trial_index": 54}, "uniqueid": "MTK3779:3GD6L00D3T41Q7D1UMQ28XASJKQM1O", "dateTime": 1521387453427}, {"current_trial": 55, "trialdata": {"rt": -1000, "trial_type": "single-audio", "word": "yarn", "stimulus": "/static/audio/wordpool/YARN.wav", "conditions": [18, 1200, "a", 18000], "internal_node_id": "0.0-37.0", "trial": 1, "time_elapsed": 600449, "serialpos": 0, "key_press": -1, "wordID": 1630, "type": "PRES_AUD", "trial_index": 55}, "uniqueid": "MTK3779:3GD6L00D3T41Q7D1UMQ28XASJKQM1O", "dateTime": 1521387455537}, {"current_trial": 56, "trialdata": {"rt": -1000, "trial_type": "single-audio", "word": "champagne", "stimulus": "/static/audio/wordpool/CHAMPAGNE.wav", "conditions": [18, 1200, "a", 18000], "internal_node_id": "0.0-38.0", "trial": 1, "time_elapsed": 602575, "serialpos": 1, "key_press": -1, "wordID": 277, "type": "PRES_AUD", "trial_index": 56}, "uniqueid": "MTK3779:3GD6L00D3T41Q7D1UMQ28XASJKQM1O", "dateTime": 1521387457663}, {"current_trial": 57, "trialdata": {"rt": -1000, "trial_type": "single-audio", "word": "piano", "stimulus": "/static/audio/wordpool/PIANO.wav", "conditions": [18, 1200, "a", 18000], "internal_node_id": "0.0-39.0", "trial": 1, "time_elapsed": 604669, "serialpos": 2, "key_press": -1, "wordID": 1056, "type": "PRES_AUD", "trial_index": 57}, "uniqueid": "MTK3779:3GD6L00D3T41Q7D1UMQ28XASJKQM1O", "dateTime": 1521387459757}, {"current_trial": 58, "trialdata": {"rt": -1000, "trial_type": "single-audio", "word": "pistol", "stimulus": "/static/audio/wordpool/PISTOL.wav", "conditions": [18, 1200, "a", 18000], "internal_node_id": "0.0-40.0", "trial": 1, "time_elapsed": 607059, "serialpos": 3, "key_press": -1, "wordID": 1074, "type": "PRES_AUD", "trial_index": 58}, "uniqueid": "MTK3779:3GD6L00D3T41Q7D1UMQ28XASJKQM1O", "dateTime": 1521387462147}, {"current_trial": 59, "trialdata": {"rt": -1000, "trial_type": "single-audio", "word": "whistle", "stimulus": "/static/audio/wordpool/WHISTLE.wav", "conditions": [18, 1200, "a", 18000], "internal_node_id": "0.0-41.0", "trial": 1, "time_elapsed": 609288, "serialpos": 4, "key_press": -1, "wordID": 1605, "type": "PRES_AUD", "trial_index": 59}, "uniqueid": "MTK3779:3GD6L00D3T41Q7D1UMQ28XASJKQM1O", "dateTime": 1521387464376}, {"current_trial": 60, "trialdata": {"rt": -1000, "trial_type": "single-audio", "word": "tunnel", "stimulus": "/static/audio/wordpool/TUNNEL.wav", "conditions": [18, 1200, "a", 18000], "internal_node_id": "0.0-42.0", "trial": 1, "time_elapsed": 611352, "serialpos": 5, "key_press": -1, "wordID": 1518, "type": "PRES_AUD", "trial_index": 60}, "uniqueid": "MTK3779:3GD6L00D3T41Q7D1UMQ28XASJKQM1O", "dateTime": 1521387466440}, {"current_trial": 61, "trialdata": {"rt": -1000, "trial_type": "single-audio", "word": "onion", "stimulus": "/static/audio/wordpool/ONION.wav", "conditions": [18, 1200, "a", 18000], "internal_node_id": "0.0-43.0", "trial": 1, "time_elapsed": 613633, "serialpos": 6, "key_press": -1, "wordID": 976, "type": "PRES_AUD", "trial_index": 61}, "uniqueid": "MTK3779:3GD6L00D3T41Q7D1UMQ28XASJKQM1O", "dateTime": 1521387468721}, {"current_trial": 62, "trialdata": {"rt": -1000, "trial_type": "single-audio", "word": "orange", "stimulus": "/static/audio/wordpool/ORANGE.wav", "conditions": [18, 1200, "a", 18000], "internal_node_id": "0.0-44.0", "trial": 1, "time_elapsed": 616022, "serialpos": 7, "key_press": -1, "wordID": 979, "type": "PRES_AUD", "trial_index": 62}, "uniqueid": "MTK3779:3GD6L00D3T41Q7D1UMQ28XASJKQM1O", "dateTime": 1521387471110}, {"current_trial": 63, "trialdata": {"rt": -1000, "trial_type": "single-audio", "word": "beef", "stimulus": "/static/audio/wordpool/BEEF.wav", "conditions": [18, 1200, "a", 18000], "internal_node_id": "0.0-45.0", "trial": 1, "time_elapsed": 618272, "serialpos": 8, "key_press": -1, "wordID": 112, "type": "PRES_AUD", "trial_index": 63}, "uniqueid": "MTK3779:3GD6L00D3T41Q7D1UMQ28XASJKQM1O", "dateTime": 1521387473360}, {"current_trial": 64, "trialdata": {"rt": -1000, "trial_type": "single-audio", "word": "softball", "stimulus": "/static/audio/wordpool/SOFTBALL.wav", "conditions": [18, 1200, "a", 18000], "internal_node_id": "0.0-46.0", "trial": 1, "time_elapsed": 620322, "serialpos": 9, "key_press": -1, "wordID": 1342, "type": "PRES_AUD", "trial_index": 64}, "uniqueid": "MTK3779:3GD6L00D3T41Q7D1UMQ28XASJKQM1O", "dateTime": 1521387475410}, {"current_trial": 65, "trialdata": {"rt": -1000, "trial_type": "single-audio", "word": "outdoors", "stimulus": "/static/audio/wordpool/OUTDOORS.wav", "conditions": [18, 1200, "a", 18000], "internal_node_id": "0.0-47.0", "trial": 1, "time_elapsed": 622665, "serialpos": 10, "key_press": -1, "wordID": 986, "type": "PRES_AUD", "trial_index": 65}, "uniqueid": "MTK3779:3GD6L00D3T41Q7D1UMQ28XASJKQM1O", "dateTime": 1521387477753}, {"current_trial": 66, "trialdata": {"rt": -1000, "trial_type": "single-audio", "word": "cattle", "stimulus": "/static/audio/wordpool/CATTLE.wav", "conditions": [18, 1200, "a", 18000], "internal_node_id": "0.0-48.0", "trial": 1, "time_elapsed": 624673, "serialpos": 11, "key_press": -1, "wordID": 260, "type": "PRES_AUD", "trial_index": 66}, "uniqueid": "MTK3779:3GD6L00D3T41Q7D1UMQ28XASJKQM1O", "dateTime": 1521387479761}, {"current_trial": 67, "trialdata": {"rt": -1000, "trial_type": "single-audio", "word": "banquet", "stimulus": "/static/audio/wordpool/BANQUET.wav", "conditions": [18, 1200, "a", 18000], "internal_node_id": "0.0-49.0", "trial": 1, "time_elapsed": 626926, "serialpos": 12, "key_press": -1, "wordID": 85, "type": "PRES_AUD", "trial_index": 67}, "uniqueid": "MTK3779:3GD6L00D3T41Q7D1UMQ28XASJKQM1O", "dateTime": 1521387482014}, {"current_trial": 68, "trialdata": {"rt": -1000, "trial_type": "single-audio", "word": "igloo", "stimulus": "/static/audio/wordpool/IGLOO.wav", "conditions": [18, 1200, "a", 18000], "internal_node_id": "0.0-50.0", "trial": 1, "time_elapsed": 629076, "serialpos": 13, "key_press": -1, "wordID": 733, "type": "PRES_AUD", "trial_index": 68}, "uniqueid": "MTK3779:3GD6L00D3T41Q7D1UMQ28XASJKQM1O", "dateTime": 1521387484167}, {"current_trial": 69, "trialdata": {"rt": -1000, "trial_type": "single-audio", "word": "quarter", "stimulus": "/static/audio/wordpool/QUARTER.wav", "conditions": [18, 1200, "a", 18000], "internal_node_id": "0.0-51.0", "trial": 1, "time_elapsed": 631404, "serialpos": 14, "key_press": -1, "wordID": 1147, "type": "PRES_AUD", "trial_index": 69}, "uniqueid": "MTK3779:3GD6L00D3T41Q7D1UMQ28XASJKQM1O", "dateTime": 1521387486492}, {"current_trial": 70, "trialdata": {"rt": -1000, "trial_type": "single-audio", "word": "dime", "stimulus": "/static/audio/wordpool/DIME.wav", "conditions": [18, 1200, "a", 18000], "internal_node_id": "0.0-52.0", "trial": 1, "time_elapsed": 633752, "serialpos": 15, "key_press": -1, "wordID": 465, "type": "PRES_AUD", "trial_index": 70}, "uniqueid": "MTK3779:3GD6L00D3T41Q7D1UMQ28XASJKQM1O", "dateTime": 1521387488840}, {"current_trial": 71, "trialdata": {"rt": -1000, "trial_type": "single-audio", "word": "lizard", "stimulus": "/static/audio/wordpool/LIZARD.wav", "conditions": [18, 1200, "a", 18000], "internal_node_id": "0.0-53.0", "trial": 1, "time_elapsed": 635996, "serialpos": 16, "key_press": -1, "wordID": 833, "type": "PRES_AUD", "trial_index": 71}, "uniqueid": "MTK3779:3GD6L00D3T41Q7D1UMQ28XASJKQM1O", "dateTime": 1521387491084}, {"current_trial": 72, "trialdata": {"rt": -1000, "trial_type": "single-audio", "word": "bathtub", "stimulus": "/static/audio/wordpool/BATHTUB.wav", "conditions": [18, 1200, "a", 18000], "internal_node_id": "0.0-54.0", "trial": 1, "time_elapsed": 638376, "serialpos": 17, "key_press": -1, "wordID": 99, "type": "PRES_AUD", "trial_index": 72}, "uniqueid": "MTK3779:3GD6L00D3T41Q7D1UMQ28XASJKQM1O", "dateTime": 1521387493464}, {"current_trial": 73, "trialdata": {"rt": -1, "trial_type": "single-stim", "stimulus": "", "internal_node_id": "0.0-55.0-0.0", "time_elapsed": 639647, "key_press": -1, "type": "PRE_RECALL_DELAY", "trial_index": 73}, "uniqueid": "MTK3779:3GD6L00D3T41Q7D1UMQ28XASJKQM1O", "dateTime": 1521387494735}, {"current_trial": 74, "trialdata": {"rt": -1000, "trial_type": "single-audio", "stimulus": "/static/audio/400Hz.wav", "internal_node_id": "0.0-56.0", "time_elapsed": 640149, "key_press": -1, "type": "PRE_RECALL_ALERT", "trial_index": 74}, "uniqueid": "MTK3779:3GD6L00D3T41Q7D1UMQ28XASJKQM1O", "dateTime": 1521387495238}, {"current_trial": 75, "trialdata": {"rt": [3721, 6577, 9010, 10762, 13827, 16291, 19218, 21139, 25169, 30722, 34330, 36809, 38490, 42409, 45210, 49289, 53970], "recwords": ["igloo", "cattle", "orange", "beef", "bathtub", "lizard", "piano", "onion", "banquet", "quarter", "champagne", "dime", "cattle", "outdoors", "tunnel", "whistle", "softball"], "key_times": [2563, 2915, 3018, 3292, 3450, 3721, 4642, 4778, 5562, 5714, 5795, 5930, 6577, 7129, 7265, 7362, 7674, 7866, 8778, 9010, 9482, 9706, 9884, 10139, 10762, 11148, 11242, 11547, 11634, 11992, 12069, 13531, 13827, 14251, 14459, 14699, 14978, 15426, 15670, 16291, 17507, 17691, 17811, 18299, 18475, 19218, 19633, 19849, 20042, 20218, 20354, 21139, 22939, 23003, 23146, 23505, 23604, 23745, 24289, 25169, 25778, 26017, 27379, 27530, 27674, 28907, 29010, 29154, 29290, 29498, 29674, 29730, 30722, 30882, 30979, 31138, 31901, 32162, 32274, 33402, 33787, 33922, 34330, 35472, 35554, 35761, 35874, 36809, 37227, 37314, 37561, 37728, 37825, 37953, 38490, 39090, 39265, 39393, 39625, 39714, 39864, 40009, 40201, 42409, 42785, 42929, 43161, 43297, 43482, 43930, 45210, 45786, 45858, 45994, 46170, 46434, 46578, 46730, 49289, 52082, 52161, 52369, 52762, 53145, 53242, 53466, 53649, 53970, 57633, 57801, 58209, 58418, 58529, 58681, 58857, 59017], "trial_type": "free-recall", "conditions": [18, 1200, "a", 18000], "internal_node_id": "0.0-57.0-0.0", "key_presses": [73, 71, 76, 79, 79, 13, 67, 65, 84, 84, 76, 69, 13, 79, 82, 65, 78, 71, 69, 13, 66, 69, 69, 70, 13, 66, 65, 84, 72, 84, 85, 66, 13, 76, 73, 90, 65, 82, 68, 13, 80, 73, 65, 78, 79, 13, 79, 78, 73, 79, 78, 13, 66, 65, 78, 81, 85, 69, 84, 13, 65, 82, 8, 8, 8, 81, 85, 65, 82, 84, 69, 82, 32, 67, 72, 65, 77, 80, 65, 71, 78, 69, 13, 68, 73, 77, 69, 13, 67, 65, 84, 84, 76, 69, 13, 79, 85, 84, 68, 79, 79, 82, 83, 13, 84, 85, 78, 78, 69, 76, 13, 87, 72, 73, 83, 84, 76, 69, 13, 83, 79, 70, 84, 66, 65, 76, 76, 13, 79, 85, 84, 68, 79, 79, 82, 83], "trial": 1, "time_elapsed": 700151, "type": "FREE_RECALL", "trial_index": 75}, "uniqueid": "MTK3779:3GD6L00D3T41Q7D1UMQ28XASJKQM1O", "dateTime": 1521387555243}, {"current_trial": 76, "trialdata": {"rt": 5237, "trial_type": "text", "internal_node_id": "0.0-58.0", "time_elapsed": 707393, "key_press": 13, "type": "INSTRUCTIONS", "trial_index": 76}, "uniqueid": "MTK3779:3GD6L00D3T41Q7D1UMQ28XASJKQM1O", "dateTime": 1521387562481}, {"current_trial": 77, "trialdata": {"rt": [2933, 5477, 7917], "trial_type": "math-distractor", "key_times": [2165, 2285, 2933, 4782, 4917, 5477, 7453, 7591, 7917, 9390, 10676, 11270, 11438], "responses": ["18", "18", "11"], "num2": [9, 8, 6, 1], "num3": [8, 2, 2, 9], "conditions": [12, 800, "a", 12000], "internal_node_id": "0.0-59.0", "key_presses": [97, 104, 13, 97, 104, 13, 97, 97, 13, 98, 8, 97, 98], "trial": 2, "time_elapsed": 720396, "type": "DISTRACTOR", "trial_index": 77, "num1": [1, 8, 3, 2]}, "uniqueid": "MTK3779:3GD6L00D3T41Q7D1UMQ28XASJKQM1O", "dateTime": 1521387575484}, {"current_trial": 78, "trialdata": {"rt": -1, "trial_type": "single-stim", "stimulus": "<p id=\"stim\">10</p>", "internal_node_id": "0.0-60.0-0.0", "time_elapsed": 723397, "key_press": -1, "trial_index": 78}, "uniqueid": "MTK3779:3GD6L00D3T41Q7D1UMQ28XASJKQM1O", "dateTime": 1521387578485}, {"current_trial": 79, "trialdata": {"rt": -1, "trial_type": "single-stim", "stimulus": "<p id=\"stim\">9</p>", "internal_node_id": "0.0-60.0-1.0", "time_elapsed": 724398, "key_press": -1, "trial_index": 79}, "uniqueid": "MTK3779:3GD6L00D3T41Q7D1UMQ28XASJKQM1O", "dateTime": 1521387579486}, {"current_trial": 80, "trialdata": {"rt": -1, "trial_type": "single-stim", "stimulus": "<p id=\"stim\">8</p>", "internal_node_id": "0.0-60.0-2.0", "time_elapsed": 725400, "key_press": -1, "trial_index": 80}, "uniqueid": "MTK3779:3GD6L00D3T41Q7D1UMQ28XASJKQM1O", "dateTime": 1521387580488}, {"current_trial": 81, "trialdata": {"rt": -1, "trial_type": "single-stim", "stimulus": "<p id=\"stim\">7</p>", "internal_node_id": "0.0-60.0-3.0", "time_elapsed": 726401, "key_press": -1, "trial_index": 81}, "uniqueid": "MTK3779:3GD6L00D3T41Q7D1UMQ28XASJKQM1O", "dateTime": 1521387581489}, {"current_trial": 82, "trialdata": {"rt": -1, "trial_type": "single-stim", "stimulus": "<p id=\"stim\">6</p>", "internal_node_id": "0.0-60.0-4.0", "time_elapsed": 727403, "key_press": -1, "trial_index": 82}, "uniqueid": "MTK3779:3GD6L00D3T41Q7D1UMQ28XASJKQM1O", "dateTime": 1521387582491}, {"current_trial": 83, "trialdata": {"rt": -1, "trial_type": "single-stim", "stimulus": "<p id=\"stim\">5</p>", "internal_node_id": "0.0-60.0-5.0", "time_elapsed": 728403, "key_press": -1, "trial_index": 83}, "uniqueid": "MTK3779:3GD6L00D3T41Q7D1UMQ28XASJKQM1O", "dateTime": 1521387583491}, {"current_trial": 84, "trialdata": {"rt": -1, "trial_type": "single-stim", "stimulus": "<p id=\"stim\">4</p>", "internal_node_id": "0.0-60.0-6.0", "time_elapsed": 729405, "key_press": -1, "trial_index": 84}, "uniqueid": "MTK3779:3GD6L00D3T41Q7D1UMQ28XASJKQM1O", "dateTime": 1521387584493}, {"current_trial": 85, "trialdata": {"rt": -1, "trial_type": "single-stim", "stimulus": "<p id=\"stim\">3</p>", "internal_node_id": "0.0-60.0-7.0", "time_elapsed": 730405, "key_press": -1, "trial_index": 85}, "uniqueid": "MTK3779:3GD6L00D3T41Q7D1UMQ28XASJKQM1O", "dateTime": 1521387585493}, {"current_trial": 86, "trialdata": {"rt": -1, "trial_type": "single-stim", "stimulus": "<p id=\"stim\">2</p>", "internal_node_id": "0.0-60.0-8.0", "time_elapsed": 731406, "key_press": -1, "trial_index": 86}, "uniqueid": "MTK3779:3GD6L00D3T41Q7D1UMQ28XASJKQM1O", "dateTime": 1521387586494}, {"current_trial": 87, "trialdata": {"rt": -1, "trial_type": "single-stim", "stimulus": "<p id=\"stim\">1</p>", "internal_node_id": "0.0-60.0-9.0", "time_elapsed": 732407, "key_press": -1, "trial_index": 87}, "uniqueid": "MTK3779:3GD6L00D3T41Q7D1UMQ28XASJKQM1O", "dateTime": 1521387587495}, {"current_trial": 88, "trialdata": {"rt": -1, "trial_type": "single-stim", "stimulus": "<p id=\"stim\">+</p>", "internal_node_id": "0.0-61.0-0.0", "time_elapsed": 733908, "key_press": -1, "type": "FIXATION", "trial_index": 88}, "uniqueid": "MTK3779:3GD6L00D3T41Q7D1UMQ28XASJKQM1O", "dateTime": 1521387588996}, {"current_trial": 89, "trialdata": {"rt": -1000, "trial_type": "single-audio", "word": "sculpture", "stimulus": "/static/audio/wordpool/SCULPTURE.wav", "conditions": [12, 800, "a", 12000], "internal_node_id": "0.0-62.0", "trial": 2, "time_elapsed": 735703, "serialpos": 0, "key_press": -1, "wordID": 1257, "type": "PRES_AUD", "trial_index": 89}, "uniqueid": "MTK3779:3GD6L00D3T41Q7D1UMQ28XASJKQM1O", "dateTime": 1521387590794}, {"current_trial": 90, "trialdata": {"rt": -1000, "trial_type": "single-audio", "word": "possum", "stimulus": "/static/audio/wordpool/POSSUM.wav", "conditions": [12, 800, "a", 12000], "internal_node_id": "0.0-63.0", "trial": 2, "time_elapsed": 737327, "serialpos": 1, "key_press": -1, "wordID": 1111, "type": "PRES_AUD", "trial_index": 90}, "uniqueid": "MTK3779:3GD6L00D3T41Q7D1UMQ28XASJKQM1O", "dateTime": 1521387592415}, {"current_trial": 91, "trialdata": {"rt": -1000, "trial_type": "single-audio", "word": "tombstone", "stimulus": "/static/audio/wordpool/TOMBSTONE.wav", "conditions": [12, 800, "a", 12000], "internal_node_id": "0.0-64.0", "trial": 2, "time_elapsed": 739092, "serialpos": 2, "key_press": -1, "wordID": 1477, "type": "PRES_AUD", "trial_index": 91}, "uniqueid": "MTK3779:3GD6L00D3T41Q7D1UMQ28XASJKQM1O", "dateTime": 1521387594180}, {"current_trial": 92, "trialdata": {"rt": -1000, "trial_type": "single-audio", "word": "perfume", "stimulus": "/static/audio/wordpool/PERFUME.wav", "conditions": [12, 800, "a", 12000], "internal_node_id": "0.0-65.0", "trial": 2, "time_elapsed": 740819, "serialpos": 3, "key_press": -1, "wordID": 1048, "type": "PRES_AUD", "trial_index": 92}, "uniqueid": "MTK3779:3GD6L00D3T41Q7D1UMQ28XASJKQM1O", "dateTime": 1521387595907}, {"current_trial": 93, "trialdata": {"rt": -1000, "trial_type": "single-audio", "word": "slime", "stimulus": "/static/audio/wordpool/SLIME.wav", "conditions": [12, 800, "a", 12000], "internal_node_id": "0.0-66.0", "trial": 2, "time_elapsed": 742748, "serialpos": 4, "key_press": -1, "wordID": 1326, "type": "PRES_AUD", "trial_index": 93}, "uniqueid": "MTK3779:3GD6L00D3T41Q7D1UMQ28XASJKQM1O", "dateTime": 1521387597836}, {"current_trial": 94, "trialdata": {"rt": -1000, "trial_type": "single-audio", "word": "backbone", "stimulus": "/static/audio/wordpool/BACKBONE.wav", "conditions": [12, 800, "a", 12000], "internal_node_id": "0.0-67.0", "trial": 2, "time_elapsed": 744411, "serialpos": 5, "key_press": -1, "wordID": 65, "type": "PRES_AUD", "trial_index": 94}, "uniqueid": "MTK3779:3GD6L00D3T41Q7D1UMQ28XASJKQM1O", "dateTime": 1521387599499}, {"current_trial": 95, "trialdata": {"rt": -1000, "trial_type": "single-audio", "word": "skillet", "stimulus": "/static/audio/wordpool/SKILLET.wav", "conditions": [12, 800, "a", 12000], "internal_node_id": "0.0-68.0", "trial": 2, "time_elapsed": 746080, "serialpos": 6, "key_press": -1, "wordID": 1316, "type": "PRES_AUD", "trial_index": 95}, "uniqueid": "MTK3779:3GD6L00D3T41Q7D1UMQ28XASJKQM1O", "dateTime": 1521387601168}, {"current_trial": 96, "trialdata": {"rt": -1000, "trial_type": "single-audio", "word": "icing", "stimulus": "/static/audio/wordpool/ICING.wav", "conditions": [12, 800, "a", 12000], "internal_node_id": "0.0-69.0", "trial": 2, "time_elapsed": 747775, "serialpos": 7, "key_press": -1, "wordID": 731, "type": "PRES_AUD", "trial_index": 96}, "uniqueid": "MTK3779:3GD6L00D3T41Q7D1UMQ28XASJKQM1O", "dateTime": 1521387602864}, {"current_trial": 97, "trialdata": {"rt": -1000, "trial_type": "single-audio", "word": "cousin", "stimulus": "/static/audio/wordpool/COUSIN.wav", "conditions": [12, 800, "a", 12000], "internal_node_id": "0.0-70.0", "trial": 2, "time_elapsed": 749459, "serialpos": 8, "key_press": -1, "wordID": 391, "type": "PRES_AUD", "trial_index": 97}, "uniqueid": "MTK3779:3GD6L00D3T41Q7D1UMQ28XASJKQM1O", "dateTime": 1521387604547}, {"current_trial": 98, "trialdata": {"rt": -1000, "trial_type": "single-audio", "word": "friend", "stimulus": "/static/audio/wordpool/FRIEND.wav", "conditions": [12, 800, "a", 12000], "internal_node_id": "0.0-71.0", "trial": 2, "time_elapsed": 751295, "serialpos": 9, "key_press": -1, "wordID": 605, "type": "PRES_AUD", "trial_index": 98}, "uniqueid": "MTK3779:3GD6L00D3T41Q7D1UMQ28XASJKQM1O", "dateTime": 1521387606383}, {"current_trial": 99, "trialdata": {"rt": -1000, "trial_type": "single-audio", "word": "fragrance", "stimulus": "/static/audio/wordpool/FRAGRANCE.wav", "conditions": [12, 800, "a", 12000], "internal_node_id": "0.0-72.0", "trial": 2, "time_elapsed": 753221, "serialpos": 10, "key_press": -1, "wordID": 598, "type": "PRES_AUD", "trial_index": 99}, "uniqueid": "MTK3779:3GD6L00D3T41Q7D1UMQ28XASJKQM1O", "dateTime": 1521387608309}, {"current_trial": 100, "trialdata": {"rt": -1000, "trial_type": "single-audio", "word": "flesh", "stimulus": "/static/audio/wordpool/FLESH.wav", "conditions": [12, 800, "a", 12000], "internal_node_id": "0.0-73.0", "trial": 2, "time_elapsed": 755113, "serialpos": 11, "key_press": -1, "wordID": 578, "type": "PRES_AUD", "trial_index": 100}, "uniqueid": "MTK3779:3GD6L00D3T41Q7D1UMQ28XASJKQM1O", "dateTime": 1521387610201}, {"current_trial": 101, "trialdata": {"rt": -1, "trial_type": "single-stim", "stimulus": "", "internal_node_id": "0.0-74.0-0.0", "time_elapsed": 756314, "key_press": -1, "type": "PRE_RECALL_DELAY", "trial_index": 101}, "uniqueid": "MTK3779:3GD6L00D3T41Q7D1UMQ28XASJKQM1O", "dateTime": 1521387611402}, {"current_trial": 102, "trialdata": {"rt": -1000, "trial_type": "single-audio", "stimulus": "/static/audio/400Hz.wav", "internal_node_id": "0.0-75.0", "time_elapsed": 756815, "key_press": -1, "type": "PRE_RECALL_ALERT", "trial_index": 102}, "uniqueid": "MTK3779:3GD6L00D3T41Q7D1UMQ28XASJKQM1O", "dateTime": 1521387611903}, {"current_trial": 103, "trialdata": {"rt": [3575, 6552, 9151, 11008, 14952, 17041, 22072, 25033, 26927, 28719, 30783, 42832], "recwords": ["flesh", "cousin", "friend", "icing", "sculpture", "possum", "tombstone", "backbone", "skillet", "flesh", "slime", "icing"], "key_times": [2441, 2498, 2729, 2864, 3033, 3575, 3929, 4000, 4159, 4616, 5234, 5433, 5538, 5696, 6552, 7065, 7250, 7336, 7729, 7833, 8360, 9151, 9951, 10056, 10167, 10344, 10552, 11008, 11329, 11528, 11719, 11919, 12208, 12986, 13432, 13792, 13928, 14192, 14312, 14952, 15490, 15696, 15913, 16056, 16153, 16554, 17041, 17401, 17480, 17665, 18592, 18984, 19280, 19593, 19824, 20569, 20720, 20896, 21080, 21920, 22072, 22921, 23009, 23167, 23256, 23640, 23800, 24207, 24304, 25033, 25375, 25495, 25672, 25921, 26064, 26224, 26480, 26927, 27287, 27400, 27711, 27871, 28040, 28719, 28952, 29039, 29247, 29479, 29625, 30783, 41464, 41600, 41689, 42000, 42185, 42832], "trial_type": "free-recall", "conditions": [12, 800, "a", 12000], "internal_node_id": "0.0-76.0-0.0", "key_presses": [70, 76, 69, 83, 72, 13, 67, 79, 85, 78, 8, 83, 73, 78, 13, 70, 82, 73, 69, 78, 68, 13, 73, 67, 73, 78, 71, 13, 83, 67, 85, 76, 84, 8, 80, 84, 85, 82, 69, 13, 80, 79, 83, 83, 85, 77, 13, 84, 79, 66, 8, 77, 66, 83, 79, 8, 84, 79, 78, 69, 13, 66, 65, 67, 75, 66, 79, 78, 69, 13, 83, 75, 73, 76, 76, 69, 84, 13, 70, 76, 69, 83, 72, 13, 83, 76, 73, 77, 69, 13, 73, 67, 73, 78, 71, 13], "trial": 2, "time_elapsed": 816818, "type": "FREE_RECALL", "trial_index": 103}, "uniqueid": "MTK3779:3GD6L00D3T41Q7D1UMQ28XASJKQM1O", "dateTime": 1521387671911}, {"current_trial": 104, "trialdata": {"rt": 1547, "trial_type": "text", "internal_node_id": "0.0-77.0", "time_elapsed": 820370, "key_press": 32, "type": "INSTRUCTIONS", "trial_index": 104}, "uniqueid": "MTK3779:3GD6L00D3T41Q7D1UMQ28XASJKQM1O", "dateTime": 1521387675458}, {"current_trial": 105, "trialdata": {"rt": [2724, 8588, 10332], "trial_type": "math-distractor", "key_times": [2548, 2724, 7772, 8413, 8588, 10076, 10220, 10332], "responses": ["8", "17", "11"], "num2": [1, 4, 2, 5], "num3": [3, 5, 3, 7], "conditions": [12, 1600, "a", 12000], "internal_node_id": "0.0-78.0", "key_presses": [104, 13, 97, 103, 13, 97, 97, 13], "trial": 3, "time_elapsed": 834374, "type": "DISTRACTOR", "trial_index": 105, "num1": [4, 8, 6, 6]}, "uniqueid": "MTK3779:3GD6L00D3T41Q7D1UMQ28XASJKQM1O", "dateTime": 1521387689462}, {"current_trial": 106, "trialdata": {"rt": -1, "trial_type": "single-stim", "stimulus": "<p id=\"stim\">10</p>", "internal_node_id": "0.0-79.0-0.0", "time_elapsed": 837375, "key_press": -1, "trial_index": 106}, "uniqueid": "MTK3779:3GD6L00D3T41Q7D1UMQ28XASJKQM1O", "dateTime": 1521387692463}, {"current_trial": 107, "trialdata": {"rt": -1, "trial_type": "single-stim", "stimulus": "<p id=\"stim\">9</p>", "internal_node_id": "0.0-79.0-1.0", "time_elapsed": 838376, "key_press": -1, "trial_index": 107}, "uniqueid": "MTK3779:3GD6L00D3T41Q7D1UMQ28XASJKQM1O", "dateTime": 1521387693464}, {"current_trial": 108, "trialdata": {"rt": -1, "trial_type": "single-stim", "stimulus": "<p id=\"stim\">8</p>", "internal_node_id": "0.0-79.0-2.0", "time_elapsed": 839377, "key_press": -1, "trial_index": 108}, "uniqueid": "MTK3779:3GD6L00D3T41Q7D1UMQ28XASJKQM1O", "dateTime": 1521387694465}, {"current_trial": 109, "trialdata": {"rt": -1, "trial_type": "single-stim", "stimulus": "<p id=\"stim\">7</p>", "internal_node_id": "0.0-79.0-3.0", "time_elapsed": 840378, "key_press": -1, "trial_index": 109}, "uniqueid": "MTK3779:3GD6L00D3T41Q7D1UMQ28XASJKQM1O", "dateTime": 1521387695466}, {"current_trial": 110, "trialdata": {"rt": -1, "trial_type": "single-stim", "stimulus": "<p id=\"stim\">6</p>", "internal_node_id": "0.0-79.0-4.0", "time_elapsed": 841379, "key_press": -1, "trial_index": 110}, "uniqueid": "MTK3779:3GD6L00D3T41Q7D1UMQ28XASJKQM1O", "dateTime": 1521387696467}, {"current_trial": 111, "trialdata": {"rt": -1, "trial_type": "single-stim", "stimulus": "<p id=\"stim\">5</p>", "internal_node_id": "0.0-79.0-5.0", "time_elapsed": 842379, "key_press": -1, "trial_index": 111}, "uniqueid": "MTK3779:3GD6L00D3T41Q7D1UMQ28XASJKQM1O", "dateTime": 1521387697467}, {"current_trial": 112, "trialdata": {"rt": -1, "trial_type": "single-stim", "stimulus": "<p id=\"stim\">4</p>", "internal_node_id": "0.0-79.0-6.0", "time_elapsed": 843382, "key_press": -1, "trial_index": 112}, "uniqueid": "MTK3779:3GD6L00D3T41Q7D1UMQ28XASJKQM1O", "dateTime": 1521387698470}, {"current_trial": 113, "trialdata": {"rt": -1, "trial_type": "single-stim", "stimulus": "<p id=\"stim\">3</p>", "internal_node_id": "0.0-79.0-7.0", "time_elapsed": 844382, "key_press": -1, "trial_index": 113}, "uniqueid": "MTK3779:3GD6L00D3T41Q7D1UMQ28XASJKQM1O", "dateTime": 1521387699470}, {"current_trial": 114, "trialdata": {"rt": -1, "trial_type": "single-stim", "stimulus": "<p id=\"stim\">2</p>", "internal_node_id": "0.0-79.0-8.0", "time_elapsed": 845383, "key_press": -1, "trial_index": 114}, "uniqueid": "MTK3779:3GD6L00D3T41Q7D1UMQ28XASJKQM1O", "dateTime": 1521387700471}, {"current_trial": 115, "trialdata": {"rt": -1, "trial_type": "single-stim", "stimulus": "<p id=\"stim\">1</p>", "internal_node_id": "0.0-79.0-9.0", "time_elapsed": 846385, "key_press": -1, "trial_index": 115}, "uniqueid": "MTK3779:3GD6L00D3T41Q7D1UMQ28XASJKQM1O", "dateTime": 1521387701473}, {"current_trial": 116, "trialdata": {"rt": -1, "trial_type": "single-stim", "stimulus": "<p id=\"stim\">+</p>", "internal_node_id": "0.0-80.0-0.0", "time_elapsed": 847885, "key_press": -1, "type": "FIXATION", "trial_index": 116}, "uniqueid": "MTK3779:3GD6L00D3T41Q7D1UMQ28XASJKQM1O", "dateTime": 1521387702973}, {"current_trial": 117, "trialdata": {"rt": -1000, "trial_type": "single-audio", "word": "survey", "stimulus": "/static/audio/wordpool/SURVEY.wav", "conditions": [12, 1600, "a", 12000], "internal_node_id": "0.0-81.0", "trial": 3, "time_elapsed": 850507, "serialpos": 0, "key_press": -1, "wordID": 1413, "type": "PRES_AUD", "trial_index": 117}, "uniqueid": "MTK3779:3GD6L00D3T41Q7D1UMQ28XASJKQM1O", "dateTime": 1521387705595}, {"current_trial": 118, "trialdata": {"rt": -1000, "trial_type": "single-audio", "word": "fox", "stimulus": "/static/audio/wordpool/FOX.wav", "conditions": [12, 1600, "a", 12000], "internal_node_id": "0.0-82.0", "trial": 3, "time_elapsed": 853149, "serialpos": 1, "key_press": -1, "wordID": 597, "type": "PRES_AUD", "trial_index": 118}, "uniqueid": "MTK3779:3GD6L00D3T41Q7D1UMQ28XASJKQM1O", "dateTime": 1521387708237}, {"current_trial": 119, "trialdata": {"rt": -1000, "trial_type": "single-audio", "word": "headband", "stimulus": "/static/audio/wordpool/HEADBAND.wav", "conditions": [12, 1600, "a", 12000], "internal_node_id": "0.0-83.0", "trial": 3, "time_elapsed": 855827, "serialpos": 2, "key_press": -1, "wordID": 695, "type": "PRES_AUD", "trial_index": 119}, "uniqueid": "MTK3779:3GD6L00D3T41Q7D1UMQ28XASJKQM1O", "dateTime": 1521387710915}, {"current_trial": 120, "trialdata": {"rt": -1000, "trial_type": "single-audio", "word": "elbow", "stimulus": "/static/audio/wordpool/ELBOW.wav", "conditions": [12, 1600, "a", 12000], "internal_node_id": "0.0-84.0", "trial": 3, "time_elapsed": 858596, "serialpos": 3, "key_press": -1, "wordID": 519, "type": "PRES_AUD", "trial_index": 120}, "uniqueid": "MTK3779:3GD6L00D3T41Q7D1UMQ28XASJKQM1O", "dateTime": 1521387713684}, {"current_trial": 121, "trialdata": {"rt": -1000, "trial_type": "single-audio", "word": "ankle", "stimulus": "/static/audio/wordpool/ANKLE.wav", "conditions": [12, 1600, "a", 12000], "internal_node_id": "0.0-85.0", "trial": 3, "time_elapsed": 861130, "serialpos": 4, "key_press": -1, "wordID": 23, "type": "PRES_AUD", "trial_index": 121}, "uniqueid": "MTK3779:3GD6L00D3T41Q7D1UMQ28XASJKQM1O", "dateTime": 1521387716218}, {"current_trial": 122, "trialdata": {"rt": -1000, "trial_type": "single-audio", "word": "keeper", "stimulus": "/static/audio/wordpool/KEEPER.wav", "conditions": [12, 1600, "a", 12000], "internal_node_id": "0.0-86.0", "trial": 3, "time_elapsed": 863928, "serialpos": 5, "key_press": -1, "wordID": 768, "type": "PRES_AUD", "trial_index": 122}, "uniqueid": "MTK3779:3GD6L00D3T41Q7D1UMQ28XASJKQM1O", "dateTime": 1521387719016}, {"current_trial": 123, "trialdata": {"rt": -1000, "trial_type": "single-audio", "word": "mummy", "stimulus": "/static/audio/wordpool/MUMMY.wav", "conditions": [12, 1600, "a", 12000], "internal_node_id": "0.0-87.0", "trial": 3, "time_elapsed": 866443, "serialpos": 6, "key_press": -1, "wordID": 931, "type": "PRES_AUD", "trial_index": 123}, "uniqueid": "MTK3779:3GD6L00D3T41Q7D1UMQ28XASJKQM1O", "dateTime": 1521387721531}, {"current_trial": 124, "trialdata": {"rt": -1000, "trial_type": "single-audio", "word": "tortoise", "stimulus": "/static/audio/wordpool/TORTOISE.wav", "conditions": [12, 1600, "a", 12000], "internal_node_id": "0.0-88.0", "trial": 3, "time_elapsed": 868966, "serialpos": 7, "key_press": -1, "wordID": 1485, "type": "PRES_AUD", "trial_index": 124}, "uniqueid": "MTK3779:3GD6L00D3T41Q7D1UMQ28XASJKQM1O", "dateTime": 1521387724054}, {"current_trial": 125, "trialdata": {"rt": -1000, "trial_type": "single-audio", "word": "creature", "stimulus": "/static/audio/wordpool/CREATURE.wav", "conditions": [12, 1600, "a", 12000], "internal_node_id": "0.0-89.0", "trial": 3, "time_elapsed": 871403, "serialpos": 8, "key_press": -1, "wordID": 402, "type": "PRES_AUD", "trial_index": 125}, "uniqueid": "MTK3779:3GD6L00D3T41Q7D1UMQ28XASJKQM1O", "dateTime": 1521387726491}, {"current_trial": 126, "trialdata": {"rt": -1000, "trial_type": "single-audio", "word": "rooster", "stimulus": "/static/audio/wordpool/ROOSTER.wav", "conditions": [12, 1600, "a", 12000], "internal_node_id": "0.0-90.0", "trial": 3, "time_elapsed": 874055, "serialpos": 9, "key_press": -1, "wordID": 1208, "type": "PRES_AUD", "trial_index": 126}, "uniqueid": "MTK3779:3GD6L00D3T41Q7D1UMQ28XASJKQM1O", "dateTime": 1521387729143}, {"current_trial": 127, "trialdata": {"rt": -1000, "trial_type": "single-audio", "word": "treat", "stimulus": "/static/audio/wordpool/TREAT.wav", "conditions": [12, 1600, "a", 12000], "internal_node_id": "0.0-91.0", "trial": 3, "time_elapsed": 876601, "serialpos": 10, "key_press": -1, "wordID": 1500, "type": "PRES_AUD", "trial_index": 127}, "uniqueid": "MTK3779:3GD6L00D3T41Q7D1UMQ28XASJKQM1O", "dateTime": 1521387731689}, {"current_trial": 128, "trialdata": {"rt": -1000, "trial_type": "single-audio", "word": "panther", "stimulus": "/static/audio/wordpool/PANTHER.wav", "conditions": [12, 1600, "a", 12000], "internal_node_id": "0.0-92.0", "trial": 3, "time_elapsed": 879037, "serialpos": 11, "key_press": -1, "wordID": 1008, "type": "PRES_AUD", "trial_index": 128}, "uniqueid": "MTK3779:3GD6L00D3T41Q7D1UMQ28XASJKQM1O", "dateTime": 1521387734125}, {"current_trial": 129, "trialdata": {"rt": -1, "trial_type": "single-stim", "stimulus": "", "internal_node_id": "0.0-93.0-0.0", "time_elapsed": 880381, "key_press": -1, "type": "PRE_RECALL_DELAY", "trial_index": 129}, "uniqueid": "MTK3779:3GD6L00D3T41Q7D1UMQ28XASJKQM1O", "dateTime": 1521387735469}, {"current_trial": 130, "trialdata": {"rt": -1000, "trial_type": "single-audio", "stimulus": "/static/audio/400Hz.wav", "internal_node_id": "0.0-94.0", "time_elapsed": 880883, "key_press": -1, "type": "PRE_RECALL_ALERT", "trial_index": 130}, "uniqueid": "MTK3779:3GD6L00D3T41Q7D1UMQ28XASJKQM1O", "dateTime": 1521387735971}, {"current_trial": 131, "trialdata": {"rt": [3107, 5587, 6851, 8754, 14107, 16819, 18835, 20541, 22787, 25507, 29253, 34516, 37468], "recwords": ["rooster", "mummy", "fox", "survey", "tourist", "creature", "panther", "elbow", "ankle", "keeper", "headband", "keeper", "treat"], "key_times": [1820, 1922, 2075, 2387, 2563, 2852, 2939, 3107, 3699, 4027, 4579, 4707, 5034, 5587, 6155, 6308, 6707, 6851, 7163, 7314, 7578, 7876, 8090, 8210, 8754, 9019, 10811, 11002, 11066, 11210, 12115, 12290, 12467, 13018, 13259, 13299, 13468, 13884, 14107, 14612, 14843, 14940, 15029, 15300, 15571, 15707, 16660, 16819, 17387, 17515, 17635, 18165, 18237, 18372, 18453, 18835, 19019, 19155, 19875, 20044, 20341, 20541, 20867, 21091, 21499, 21859, 22043, 22787, 23683, 23858, 24002, 24411, 24547, 24619, 25507, 26155, 26234, 26323, 26562, 26906, 27036, 27178, 27755, 29253, 32660, 32941, 33091, 33203, 33388, 33476, 34516, 34939, 35132, 35259, 35420, 36915, 37468], "trial_type": "free-recall", "conditions": [12, 1600, "a", 12000], "internal_node_id": "0.0-95.0-0.0", "key_presses": [82, 79, 79, 83, 84, 69, 82, 13, 77, 85, 77, 77, 89, 13, 70, 79, 88, 13, 83, 85, 82, 86, 69, 89, 13, 84, 79, 82, 73, 83, 8, 8, 8, 85, 82, 73, 83, 84, 13, 67, 82, 69, 65, 84, 85, 82, 69, 13, 80, 65, 78, 84, 72, 69, 82, 13, 69, 76, 66, 79, 87, 13, 65, 78, 75, 76, 69, 13, 75, 69, 69, 80, 69, 82, 13, 72, 69, 65, 68, 66, 65, 78, 68, 13, 75, 69, 69, 80, 69, 82, 13, 84, 82, 69, 65, 84, 13], "trial": 3, "time_elapsed": 940886, "type": "FREE_RECALL", "trial_index": 131}, "uniqueid": "MTK3779:3GD6L00D3T41Q7D1UMQ28XASJKQM1O", "dateTime": 1521387795980}, {"current_trial": 132, "trialdata": {"rt": 1773, "trial_type": "text", "internal_node_id": "0.0-96.0", "time_elapsed": 944666, "key_press": 32, "type": "INSTRUCTIONS", "trial_index": 132}, "uniqueid": "MTK3779:3GD6L00D3T41Q7D1UMQ28XASJKQM1O", "dateTime": 1521387799754}, {"current_trial": 133, "trialdata": {"rt": [4208, 6383, 8264, 10991, 13111, 17641], "trial_type": "math-distractor", "key_times": [3767, 3928, 4208, 5896, 6088, 6383, 7607, 7751, 8264, 10571, 10735, 10991, 12535, 12679, 13111, 16991, 17183, 17641, 23624, 23743], "responses": ["17", "16", "18", "17", "14", "20"], "num2": [9, 8, 9, 5, 9, 8, 8], "num3": [6, 1, 8, 6, 2, 6, 5], "conditions": [24, 1600, "a", 24000], "internal_node_id": "0.0-97.0", "key_presses": [97, 103, 13, 97, 102, 13, 97, 104, 13, 97, 103, 13, 97, 100, 13, 98, 96, 13, 98, 96], "trial": 4, "time_elapsed": 970675, "type": "DISTRACTOR", "trial_index": 133, "num1": [4, 7, 1, 4, 3, 8, 7]}, "uniqueid": "MTK3779:3GD6L00D3T41Q7D1UMQ28XASJKQM1O", "dateTime": 1521387825763}, {"current_trial": 134, "trialdata": {"rt": -1, "trial_type": "single-stim", "stimulus": "<p id=\"stim\">10</p>", "internal_node_id": "0.0-98.0-0.0", "time_elapsed": 973675, "key_press": -1, "trial_index": 134}, "uniqueid": "MTK3779:3GD6L00D3T41Q7D1UMQ28XASJKQM1O", "dateTime": 1521387828763}, {"current_trial": 135, "trialdata": {"rt": -1, "trial_type": "single-stim", "stimulus": "<p id=\"stim\">9</p>", "internal_node_id": "0.0-98.0-1.0", "time_elapsed": 974676, "key_press": -1, "trial_index": 135}, "uniqueid": "MTK3779:3GD6L00D3T41Q7D1UMQ28XASJKQM1O", "dateTime": 1521387829764}, {"current_trial": 136, "trialdata": {"rt": -1, "trial_type": "single-stim", "stimulus": "<p id=\"stim\">8</p>", "internal_node_id": "0.0-98.0-2.0", "time_elapsed": 975677, "key_press": -1, "trial_index": 136}, "uniqueid": "MTK3779:3GD6L00D3T41Q7D1UMQ28XASJKQM1O", "dateTime": 1521387830765}, {"current_trial": 137, "trialdata": {"rt": -1, "trial_type": "single-stim", "stimulus": "<p id=\"stim\">7</p>", "internal_node_id": "0.0-98.0-3.0", "time_elapsed": 976679, "key_press": -1, "trial_index": 137}, "uniqueid": "MTK3779:3GD6L00D3T41Q7D1UMQ28XASJKQM1O", "dateTime": 1521387831767}, {"current_trial": 138, "trialdata": {"rt": -1, "trial_type": "single-stim", "stimulus": "<p id=\"stim\">6</p>", "internal_node_id": "0.0-98.0-4.0", "time_elapsed": 977679, "key_press": -1, "trial_index": 138}, "uniqueid": "MTK3779:3GD6L00D3T41Q7D1UMQ28XASJKQM1O", "dateTime": 1521387832770}, {"current_trial": 139, "trialdata": {"rt": -1, "trial_type": "single-stim", "stimulus": "<p id=\"stim\">5</p>", "internal_node_id": "0.0-98.0-5.0", "time_elapsed": 978683, "key_press": -1, "trial_index": 139}, "uniqueid": "MTK3779:3GD6L00D3T41Q7D1UMQ28XASJKQM1O", "dateTime": 1521387833771}, {"current_trial": 140, "trialdata": {"rt": -1, "trial_type": "single-stim", "stimulus": "<p id=\"stim\">4</p>", "internal_node_id": "0.0-98.0-6.0", "time_elapsed": 979683, "key_press": -1, "trial_index": 140}, "uniqueid": "MTK3779:3GD6L00D3T41Q7D1UMQ28XASJKQM1O", "dateTime": 1521387834772}, {"current_trial": 141, "trialdata": {"rt": -1, "trial_type": "single-stim", "stimulus": "<p id=\"stim\">3</p>", "internal_node_id": "0.0-98.0-7.0", "time_elapsed": 980684, "key_press": -1, "trial_index": 141}, "uniqueid": "MTK3779:3GD6L00D3T41Q7D1UMQ28XASJKQM1O", "dateTime": 1521387835772}, {"current_trial": 142, "trialdata": {"rt": -1, "trial_type": "single-stim", "stimulus": "<p id=\"stim\">2</p>", "internal_node_id": "0.0-98.0-8.0", "time_elapsed": 981688, "key_press": -1, "trial_index": 142}, "uniqueid": "MTK3779:3GD6L00D3T41Q7D1UMQ28XASJKQM1O", "dateTime": 1521387836776}, {"current_trial": 143, "trialdata": {"rt": -1, "trial_type": "single-stim", "stimulus": "<p id=\"stim\">1</p>", "internal_node_id": "0.0-98.0-9.0", "time_elapsed": 982689, "key_press": -1, "trial_index": 143}, "uniqueid": "MTK3779:3GD6L00D3T41Q7D1UMQ28XASJKQM1O", "dateTime": 1521387837777}, {"current_trial": 144, "trialdata": {"rt": -1, "trial_type": "single-stim", "stimulus": "<p id=\"stim\">+</p>", "internal_node_id": "0.0-99.0-0.0", "time_elapsed": 984190, "key_press": -1, "type": "FIXATION", "trial_index": 144}, "uniqueid": "MTK3779:3GD6L00D3T41Q7D1UMQ28XASJKQM1O", "dateTime": 1521387839278}, {"current_trial": 145, "trialdata": {"rt": -1000, "trial_type": "single-audio", "word": "swimmer", "stimulus": "/static/audio/wordpool/SWIMMER.wav", "conditions": [24, 1600, "a", 24000], "internal_node_id": "0.0-100.0", "trial": 4, "time_elapsed": 986591, "serialpos": 0, "key_press": -1, "wordID": 1419, "type": "PRES_AUD", "trial_index": 145}, "uniqueid": "MTK3779:3GD6L00D3T41Q7D1UMQ28XASJKQM1O", "dateTime": 1521387841679}, {"current_trial": 146, "trialdata": {"rt": -1000, "trial_type": "single-audio", "word": "donor", "stimulus": "/static/audio/wordpool/DONOR.wav", "conditions": [24, 1600, "a", 24000], "internal_node_id": "0.0-101.0", "trial": 4, "time_elapsed": 989275, "serialpos": 1, "key_press": -1, "wordID": 484, "type": "PRES_AUD", "trial_index": 146}, "uniqueid": "MTK3779:3GD6L00D3T41Q7D1UMQ28XASJKQM1O", "dateTime": 1521387844363}, {"current_trial": 147, "trialdata": {"rt": -1000, "trial_type": "single-audio", "word": "crater", "stimulus": "/static/audio/wordpool/CRATER.wav", "conditions": [24, 1600, "a", 24000], "internal_node_id": "0.0-102.0", "trial": 4, "time_elapsed": 991902, "serialpos": 2, "key_press": -1, "wordID": 399, "type": "PRES_AUD", "trial_index": 147}, "uniqueid": "MTK3779:3GD6L00D3T41Q7D1UMQ28XASJKQM1O", "dateTime": 1521387846990}, {"current_trial": 148, "trialdata": {"rt": -1000, "trial_type": "single-audio", "word": "trout", "stimulus": "/static/audio/wordpool/TROUT.wav", "conditions": [24, 1600, "a", 24000], "internal_node_id": "0.0-103.0", "trial": 4, "time_elapsed": 994439, "serialpos": 3, "key_press": -1, "wordID": 1510, "type": "PRES_AUD", "trial_index": 148}, "uniqueid": "MTK3779:3GD6L00D3T41Q7D1UMQ28XASJKQM1O", "dateTime": 1521387849527}, {"current_trial": 149, "trialdata": {"rt": -1000, "trial_type": "single-audio", "word": "salmon", "stimulus": "/static/audio/wordpool/SALMON.wav", "conditions": [24, 1600, "a", 24000], "internal_node_id": "0.0-104.0", "trial": 4, "time_elapsed": 997182, "serialpos": 4, "key_press": -1, "wordID": 1226, "type": "PRES_AUD", "trial_index": 149}, "uniqueid": "MTK3779:3GD6L00D3T41Q7D1UMQ28XASJKQM1O", "dateTime": 1521387852270}, {"current_trial": 150, "trialdata": {"rt": -1000, "trial_type": "single-audio", "word": "sponge", "stimulus": "/static/audio/wordpool/SPONGE.wav", "conditions": [24, 1600, "a", 24000], "internal_node_id": "0.0-105.0", "trial": 4, "time_elapsed": 999944, "serialpos": 5, "key_press": -1, "wordID": 1354, "type": "PRES_AUD", "trial_index": 150}, "uniqueid": "MTK3779:3GD6L00D3T41Q7D1UMQ28XASJKQM1O", "dateTime": 1521387855032}, {"current_trial": 151, "trialdata": {"rt": -1000, "trial_type": "single-audio", "word": "fireplace", "stimulus": "/static/audio/wordpool/FIREPLACE.wav", "conditions": [24, 1600, "a", 24000], "internal_node_id": "0.0-106.0", "trial": 4, "time_elapsed": 1002414, "serialpos": 6, "key_press": -1, "wordID": 569, "type": "PRES_AUD", "trial_index": 151}, "uniqueid": "MTK3779:3GD6L00D3T41Q7D1UMQ28XASJKQM1O", "dateTime": 1521387857502}, {"current_trial": 152, "trialdata": {"rt": -1000, "trial_type": "single-audio", "word": "blouse", "stimulus": "/static/audio/wordpool/BLOUSE.wav", "conditions": [24, 1600, "a", 24000], "internal_node_id": "0.0-107.0", "trial": 4, "time_elapsed": 1004870, "serialpos": 7, "key_press": -1, "wordID": 138, "type": "PRES_AUD", "trial_index": 152}, "uniqueid": "MTK3779:3GD6L00D3T41Q7D1UMQ28XASJKQM1O", "dateTime": 1521387859958}, {"current_trial": 153, "trialdata": {"rt": -1000, "trial_type": "single-audio", "word": "lava", "stimulus": "/static/audio/wordpool/LAVA.wav", "conditions": [24, 1600, "a", 24000], "internal_node_id": "0.0-108.0", "trial": 4, "time_elapsed": 1007507, "serialpos": 8, "key_press": -1, "wordID": 803, "type": "PRES_AUD", "trial_index": 153}, "uniqueid": "MTK3779:3GD6L00D3T41Q7D1UMQ28XASJKQM1O", "dateTime": 1521387862595}, {"current_trial": 154, "trialdata": {"rt": -1000, "trial_type": "single-audio", "word": "scribble", "stimulus": "/static/audio/wordpool/SCRIBBLE.wav", "conditions": [24, 1600, "a", 24000], "internal_node_id": "0.0-109.0", "trial": 4, "time_elapsed": 1010103, "serialpos": 9, "key_press": -1, "wordID": 1255, "type": "PRES_AUD", "trial_index": 154}, "uniqueid": "MTK3779:3GD6L00D3T41Q7D1UMQ28XASJKQM1O", "dateTime": 1521387865191}, {"current_trial": 155, "trialdata": {"rt": -1000, "trial_type": "single-audio", "word": "shirt", "stimulus": "/static/audio/wordpool/SHIRT.wav", "conditions": [24, 1600, "a", 24000], "internal_node_id": "0.0-110.0", "trial": 4, "time_elapsed": 1012741, "serialpos": 10, "key_press": -1, "wordID": 1286, "type": "PRES_AUD", "trial_index": 155}, "uniqueid": "MTK3779:3GD6L00D3T41Q7D1UMQ28XASJKQM1O", "dateTime": 1521387867829}, {"current_trial": 156, "trialdata": {"rt": -1000, "trial_type": "single-audio", "word": "baby", "stimulus": "/static/audio/wordpool/BABY.wav", "conditions": [24, 1600, "a", 24000], "internal_node_id": "0.0-111.0", "trial": 4, "time_elapsed": 1015298, "serialpos": 11, "key_press": -1, "wordID": 63, "type": "PRES_AUD", "trial_index": 156}, "uniqueid": "MTK3779:3GD6L00D3T41Q7D1UMQ28XASJKQM1O", "dateTime": 1521387870386}, {"current_trial": 157, "trialdata": {"rt": -1000, "trial_type": "single-audio", "word": "partner", "stimulus": "/static/audio/wordpool/PARTNER.wav", "conditions": [24, 1600, "a", 24000], "internal_node_id": "0.0-112.0", "trial": 4, "time_elapsed": 1017787, "serialpos": 12, "key_press": -1, "wordID": 1016, "type": "PRES_AUD", "trial_index": 157}, "uniqueid": "MTK3779:3GD6L00D3T41Q7D1UMQ28XASJKQM1O", "dateTime": 1521387872876}, {"current_trial": 158, "trialdata": {"rt": -1000, "trial_type": "single-audio", "word": "sibling", "stimulus": "/static/audio/wordpool/SIBLING.wav", "conditions": [24, 1600, "a", 24000], "internal_node_id": "0.0-113.0", "trial": 4, "time_elapsed": 1020220, "serialpos": 13, "key_press": -1, "wordID": 1300, "type": "PRES_AUD", "trial_index": 158}, "uniqueid": "MTK3779:3GD6L00D3T41Q7D1UMQ28XASJKQM1O", "dateTime": 1521387875308}, {"current_trial": 159, "trialdata": {"rt": -1000, "trial_type": "single-audio", "word": "police", "stimulus": "/static/audio/wordpool/POLICE.wav", "conditions": [24, 1600, "a", 24000], "internal_node_id": "0.0-114.0", "trial": 4, "time_elapsed": 1022787, "serialpos": 14, "key_press": -1, "wordID": 1097, "type": "PRES_AUD", "trial_index": 159}, "uniqueid": "MTK3779:3GD6L00D3T41Q7D1UMQ28XASJKQM1O", "dateTime": 1521387877875}, {"current_trial": 160, "trialdata": {"rt": -1000, "trial_type": "single-audio", "word": "scissors", "stimulus": "/static/audio/wordpool/SCISSORS.wav", "conditions": [24, 1600, "a", 24000], "internal_node_id": "0.0-115.0", "trial": 4, "time_elapsed": 1025457, "serialpos": 15, "key_press": -1, "wordID": 1249, "type": "PRES_AUD", "trial_index": 160}, "uniqueid": "MTK3779:3GD6L00D3T41Q7D1UMQ28XASJKQM1O", "dateTime": 1521387880545}, {"current_trial": 161, "trialdata": {"rt": -1000, "trial_type": "single-audio", "word": "mammal", "stimulus": "/static/audio/wordpool/MAMMAL.wav", "conditions": [24, 1600, "a", 24000], "internal_node_id": "0.0-116.0", "trial": 4, "time_elapsed": 1028231, "serialpos": 16, "key_press": -1, "wordID": 860, "type": "PRES_AUD", "trial_index": 161}, "uniqueid": "MTK3779:3GD6L00D3T41Q7D1UMQ28XASJKQM1O", "dateTime": 1521387883319}, {"current_trial": 162, "trialdata": {"rt": -1000, "trial_type": "single-audio", "word": "primate", "stimulus": "/static/audio/wordpool/PRIMATE.wav", "conditions": [24, 1600, "a", 24000], "internal_node_id": "0.0-117.0", "trial": 4, "time_elapsed": 1030632, "serialpos": 17, "key_press": -1, "wordID": 1122, "type": "PRES_AUD", "trial_index": 162}, "uniqueid": "MTK3779:3GD6L00D3T41Q7D1UMQ28XASJKQM1O", "dateTime": 1521387885720}, {"current_trial": 163, "trialdata": {"rt": -1000, "trial_type": "single-audio", "word": "comet", "stimulus": "/static/audio/wordpool/COMET.wav", "conditions": [24, 1600, "a", 24000], "internal_node_id": "0.0-118.0", "trial": 4, "time_elapsed": 1033261, "serialpos": 18, "key_press": -1, "wordID": 352, "type": "PRES_AUD", "trial_index": 163}, "uniqueid": "MTK3779:3GD6L00D3T41Q7D1UMQ28XASJKQM1O", "dateTime": 1521387888349}, {"current_trial": 164, "trialdata": {"rt": -1000, "trial_type": "single-audio", "word": "crevice", "stimulus": "/static/audio/wordpool/CREVICE.wav", "conditions": [24, 1600, "a", 24000], "internal_node_id": "0.0-119.0", "trial": 4, "time_elapsed": 1035908, "serialpos": 19, "key_press": -1, "wordID": 404, "type": "PRES_AUD", "trial_index": 164}, "uniqueid": "MTK3779:3GD6L00D3T41Q7D1UMQ28XASJKQM1O", "dateTime": 1521387890996}, {"current_trial": 165, "trialdata": {"rt": -1000, "trial_type": "single-audio", "word": "whiskers", "stimulus": "/static/audio/wordpool/WHISKERS.wav", "conditions": [24, 1600, "a", 24000], "internal_node_id": "0.0-120.0", "trial": 4, "time_elapsed": 1038533, "serialpos": 20, "key_press": -1, "wordID": 1604, "type": "PRES_AUD", "trial_index": 165}, "uniqueid": "MTK3779:3GD6L00D3T41Q7D1UMQ28XASJKQM1O", "dateTime": 1521387893621}, {"current_trial": 166, "trialdata": {"rt": -1000, "trial_type": "single-audio", "word": "honey", "stimulus": "/static/audio/wordpool/HONEY.wav", "conditions": [24, 1600, "a", 24000], "internal_node_id": "0.0-121.0", "trial": 4, "time_elapsed": 1041304, "serialpos": 21, "key_press": -1, "wordID": 712, "type": "PRES_AUD", "trial_index": 166}, "uniqueid": "MTK3779:3GD6L00D3T41Q7D1UMQ28XASJKQM1O", "dateTime": 1521387896392}, {"current_trial": 167, "trialdata": {"rt": -1000, "trial_type": "single-audio", "word": "milk", "stimulus": "/static/audio/wordpool/MILK.wav", "conditions": [24, 1600, "a", 24000], "internal_node_id": "0.0-122.0", "trial": 4, "time_elapsed": 1044057, "serialpos": 22, "key_press": -1, "wordID": 894, "type": "PRES_AUD", "trial_index": 167}, "uniqueid": "MTK3779:3GD6L00D3T41Q7D1UMQ28XASJKQM1O", "dateTime": 1521387899145}, {"current_trial": 168, "trialdata": {"rt": -1000, "trial_type": "single-audio", "word": "tweezers", "stimulus": "/static/audio/wordpool/TWEEZERS.wav", "conditions": [24, 1600, "a", 24000], "internal_node_id": "0.0-123.0", "trial": 4, "time_elapsed": 1046576, "serialpos": 23, "key_press": -1, "wordID": 1525, "type": "PRES_AUD", "trial_index": 168}, "uniqueid": "MTK3779:3GD6L00D3T41Q7D1UMQ28XASJKQM1O", "dateTime": 1521387901664}, {"current_trial": 169, "trialdata": {"rt": -1, "trial_type": "single-stim", "stimulus": "", "internal_node_id": "0.0-124.0-0.0", "time_elapsed": 1047942, "key_press": -1, "type": "PRE_RECALL_DELAY", "trial_index": 169}, "uniqueid": "MTK3779:3GD6L00D3T41Q7D1UMQ28XASJKQM1O", "dateTime": 1521387903033}, {"current_trial": 170, "trialdata": {"rt": -1000, "trial_type": "single-audio", "stimulus": "/static/audio/400Hz.wav", "internal_node_id": "0.0-125.0", "time_elapsed": 1048445, "key_press": -1, "type": "PRE_RECALL_ALERT", "trial_index": 170}, "uniqueid": "MTK3779:3GD6L00D3T41Q7D1UMQ28XASJKQM1O", "dateTime": 1521387903533}, {"current_trial": 171, "trialdata": {"rt": [3898, 6089, 9692, 13697, 17432, 18873, 20634, 25098, 26289, 28473, 31265, 34017, 37395, 40401, 43787, 47041, 49376, 51056, 54083, 59553], "recwords": ["mammal", "trout", "salmon", "swimmer", "baby", "lava", "police", "blouse", "comet", "honey", "tweezers", "partner", "fireplace", "primate", "whiskers", "crevice", "donor", "crater", "shirt", "scribble"], "key_times": [1418, 1554, 2529, 2683, 2808, 2850, 3898, 5001, 5185, 5242, 5410, 5586, 6089, 6369, 6554, 6730, 7457, 7626, 7929, 8643, 8898, 9050, 9257, 9692, 11089, 11802, 11897, 12464, 12611, 12858, 13185, 13697, 13882, 15178, 15810, 15944, 16010, 16568, 17432, 17850, 17961, 18161, 18488, 18873, 19449, 19736, 19912, 20090, 20233, 20449, 20634, 21996, 22426, 23177, 23593, 23826, 23954, 24369, 24810, 25098, 25418, 25490, 25689, 25818, 26129, 26289, 26786, 26962, 27257, 27634, 27762, 28473, 29297, 29507, 29746, 29882, 30120, 30352, 30451, 30754, 31265, 32442, 32576, 32729, 32976, 33416, 33552, 33649, 34017, 35081, 35192, 35521, 35922, 36169, 36392, 36513, 36673, 36859, 37395, 37881, 38034, 38170, 38403, 38514, 38913, 39441, 40401, 41129, 41241, 41434, 41538, 42105, 42533, 42616, 43066, 43787, 44537, 44785, 45185, 45417, 45505, 45849, 46041, 47041, 47640, 47744, 47944, 48089, 48241, 49376, 49648, 49905, 50000, 50584, 50720, 50769, 51056, 51400, 51568, 51744, 52264, 52521, 54083, 56273, 56497, 56730, 56817, 57049, 57201, 57425, 57577, 59553], "trial_type": "free-recall", "conditions": [24, 1600, "a", 24000], "internal_node_id": "0.0-126.0-0.0", "key_presses": [77, 65, 77, 77, 65, 76, 13, 84, 82, 79, 85, 84, 13, 83, 76, 65, 8, 8, 65, 76, 77, 79, 78, 13, 83, 87, 73, 77, 77, 69, 82, 32, 83, 8, 66, 65, 66, 89, 13, 76, 65, 86, 65, 13, 80, 79, 76, 73, 67, 69, 13, 66, 79, 8, 76, 79, 85, 83, 69, 13, 67, 79, 77, 69, 84, 13, 72, 79, 78, 69, 89, 13, 84, 87, 69, 69, 90, 69, 82, 83, 13, 80, 65, 82, 84, 78, 69, 82, 13, 70, 73, 82, 69, 80, 76, 65, 67, 69, 13, 80, 82, 73, 77, 65, 84, 69, 32, 87, 72, 73, 83, 75, 69, 82, 83, 13, 67, 82, 69, 86, 73, 67, 69, 13, 68, 79, 78, 79, 82, 13, 67, 82, 65, 84, 69, 82, 13, 83, 72, 73, 82, 84, 13, 83, 67, 82, 73, 66, 66, 76, 69, 13], "trial": 4, "time_elapsed": 1108447, "type": "FREE_RECALL", "trial_index": 171}, "uniqueid": "MTK3779:3GD6L00D3T41Q7D1UMQ28XASJKQM1O", "dateTime": 1521387963541}, {"current_trial": 172, "trialdata": {"rt": 1987, "trial_type": "text", "internal_node_id": "0.0-127.0", "time_elapsed": 1112440, "key_press": 32, "type": "INSTRUCTIONS", "trial_index": 172}, "uniqueid": "MTK3779:3GD6L00D3T41Q7D1UMQ28XASJKQM1O", "dateTime": 1521387967529}, {"current_trial": 173, "trialdata": {"rt": [3853, 5694, 7262, 8870, 11478, 13399, 16213, 18941, 20688], "trial_type": "math-distractor", "key_times": [3286, 3437, 3853, 5269, 5413, 5694, 6845, 7006, 7262, 8438, 8576, 8870, 10910, 11119, 11478, 12902, 13102, 13399, 15806, 15981, 16213, 18518, 18678, 18941, 20006, 20197, 20207, 20688, 22565, 22725], "responses": ["16", "11", "14", "11", "19", "16", "14", "12", "17"], "num2": [6, 4, 6, 2, 6, 9, 6, 4, 5, 5], "num3": [4, 3, 2, 1, 8, 1, 5, 6, 7, 1], "conditions": [24, 800, "a", 24000], "internal_node_id": "0.0-128.0", "key_presses": [97, 102, 13, 97, 97, 13, 97, 100, 13, 97, 97, 13, 97, 105, 13, 97, 102, 13, 97, 100, 13, 97, 98, 13, 97, 103, 144, 13, 35, 40], "trial": 5, "time_elapsed": 1138451, "type": "DISTRACTOR", "trial_index": 173, "num1": [6, 4, 6, 8, 5, 6, 3, 2, 5, 6]}, "uniqueid": "MTK3779:3GD6L00D3T41Q7D1UMQ28XASJKQM1O", "dateTime": 1521387993539}, {"current_trial": 174, "trialdata": {"rt": -1, "trial_type": "single-stim", "stimulus": "<p id=\"stim\">10</p>", "internal_node_id": "0.0-129.0-0.0", "time_elapsed": 1141458, "key_press": -1, "trial_index": 174}, "uniqueid": "MTK3779:3GD6L00D3T41Q7D1UMQ28XASJKQM1O", "dateTime": 1521387996547}, {"current_trial": 175, "trialdata": {"rt": -1, "trial_type": "single-stim", "stimulus": "<p id=\"stim\">9</p>", "internal_node_id": "0.0-129.0-1.0", "time_elapsed": 1142459, "key_press": -1, "trial_index": 175}, "uniqueid": "MTK3779:3GD6L00D3T41Q7D1UMQ28XASJKQM1O", "dateTime": 1521387997547}, {"current_trial": 176, "trialdata": {"rt": -1, "trial_type": "single-stim", "stimulus": "<p id=\"stim\">8</p>", "internal_node_id": "0.0-129.0-2.0", "time_elapsed": 1143462, "key_press": -1, "trial_index": 176}, "uniqueid": "MTK3779:3GD6L00D3T41Q7D1UMQ28XASJKQM1O", "dateTime": 1521387998550}, {"current_trial": 177, "trialdata": {"rt": -1, "trial_type": "single-stim", "stimulus": "<p id=\"stim\">7</p>", "internal_node_id": "0.0-129.0-3.0", "time_elapsed": 1144462, "key_press": -1, "trial_index": 177}, "uniqueid": "MTK3779:3GD6L00D3T41Q7D1UMQ28XASJKQM1O", "dateTime": 1521387999551}, {"current_trial": 178, "trialdata": {"rt": -1, "trial_type": "single-stim", "stimulus": "<p id=\"stim\">6</p>", "internal_node_id": "0.0-129.0-4.0", "time_elapsed": 1145463, "key_press": -1, "trial_index": 178}, "uniqueid": "MTK3779:3GD6L00D3T41Q7D1UMQ28XASJKQM1O", "dateTime": 1521388000552}, {"current_trial": 179, "trialdata": {"rt": -1, "trial_type": "single-stim", "stimulus": "<p id=\"stim\">5</p>", "internal_node_id": "0.0-129.0-5.0", "time_elapsed": 1146465, "key_press": -1, "trial_index": 179}, "uniqueid": "MTK3779:3GD6L00D3T41Q7D1UMQ28XASJKQM1O", "dateTime": 1521388001553}, {"current_trial": 180, "trialdata": {"rt": -1, "trial_type": "single-stim", "stimulus": "<p id=\"stim\">4</p>", "internal_node_id": "0.0-129.0-6.0", "time_elapsed": 1147465, "key_press": -1, "trial_index": 180}, "uniqueid": "MTK3779:3GD6L00D3T41Q7D1UMQ28XASJKQM1O", "dateTime": 1521388002554}, {"current_trial": 181, "trialdata": {"rt": -1, "trial_type": "single-stim", "stimulus": "<p id=\"stim\">3</p>", "internal_node_id": "0.0-129.0-7.0", "time_elapsed": 1148466, "key_press": -1, "trial_index": 181}, "uniqueid": "MTK3779:3GD6L00D3T41Q7D1UMQ28XASJKQM1O", "dateTime": 1521388003556}, {"current_trial": 182, "trialdata": {"rt": -1, "trial_type": "single-stim", "stimulus": "<p id=\"stim\">2</p>", "internal_node_id": "0.0-129.0-8.0", "time_elapsed": 1149467, "key_press": -1, "trial_index": 182}, "uniqueid": "MTK3779:3GD6L00D3T41Q7D1UMQ28XASJKQM1O", "dateTime": 1521388004555}, {"current_trial": 183, "trialdata": {"rt": -1, "trial_type": "single-stim", "stimulus": "<p id=\"stim\">1</p>", "internal_node_id": "0.0-129.0-9.0", "time_elapsed": 1150470, "key_press": -1, "trial_index": 183}, "uniqueid": "MTK3779:3GD6L00D3T41Q7D1UMQ28XASJKQM1O", "dateTime": 1521388005558}, {"current_trial": 184, "trialdata": {"rt": -1, "trial_type": "single-stim", "stimulus": "<p id=\"stim\">+</p>", "internal_node_id": "0.0-130.0-0.0", "time_elapsed": 1151971, "key_press": -1, "type": "FIXATION", "trial_index": 184}, "uniqueid": "MTK3779:3GD6L00D3T41Q7D1UMQ28XASJKQM1O", "dateTime": 1521388007059}, {"current_trial": 185, "trialdata": {"rt": -1000, "trial_type": "single-audio", "word": "gazelle", "stimulus": "/static/audio/wordpool/GAZELLE.wav", "conditions": [24, 800, "a", 24000], "internal_node_id": "0.0-131.0", "trial": 5, "time_elapsed": 1153913, "serialpos": 0, "key_press": -1, "wordID": 627, "type": "PRES_AUD", "trial_index": 185}, "uniqueid": "MTK3779:3GD6L00D3T41Q7D1UMQ28XASJKQM1O", "dateTime": 1521388009001}, {"current_trial": 186, "trialdata": {"rt": -1000, "trial_type": "single-audio", "word": "mailman", "stimulus": "/static/audio/wordpool/MAILMAN.wav", "conditions": [24, 800, "a", 24000], "internal_node_id": "0.0-132.0", "trial": 5, "time_elapsed": 1155685, "serialpos": 1, "key_press": -1, "wordID": 857, "type": "PRES_AUD", "trial_index": 186}, "uniqueid": "MTK3779:3GD6L00D3T41Q7D1UMQ28XASJKQM1O", "dateTime": 1521388010774}, {"current_trial": 187, "trialdata": {"rt": -1000, "trial_type": "single-audio", "word": "poison", "stimulus": "/static/audio/wordpool/POISON.wav", "conditions": [24, 800, "a", 24000], "internal_node_id": "0.0-133.0", "trial": 5, "time_elapsed": 1157656, "serialpos": 2, "key_press": -1, "wordID": 1095, "type": "PRES_AUD", "trial_index": 187}, "uniqueid": "MTK3779:3GD6L00D3T41Q7D1UMQ28XASJKQM1O", "dateTime": 1521388012744}, {"current_trial": 188, "trialdata": {"rt": -1000, "trial_type": "single-audio", "word": "leader", "stimulus": "/static/audio/wordpool/LEADER.wav", "conditions": [24, 800, "a", 24000], "internal_node_id": "0.0-134.0", "trial": 5, "time_elapsed": 1159522, "serialpos": 3, "key_press": -1, "wordID": 806, "type": "PRES_AUD", "trial_index": 188}, "uniqueid": "MTK3779:3GD6L00D3T41Q7D1UMQ28XASJKQM1O", "dateTime": 1521388014610}, {"current_trial": 189, "trialdata": {"rt": -1000, "trial_type": "single-audio", "word": "lamp", "stimulus": "/static/audio/wordpool/LAMP.wav", "conditions": [24, 800, "a", 24000], "internal_node_id": "0.0-135.0", "trial": 5, "time_elapsed": 1161258, "serialpos": 4, "key_press": -1, "wordID": 797, "type": "PRES_AUD", "trial_index": 189}, "uniqueid": "MTK3779:3GD6L00D3T41Q7D1UMQ28XASJKQM1O", "dateTime": 1521388016346}, {"current_trial": 190, "trialdata": {"rt": -1000, "trial_type": "single-audio", "word": "barley", "stimulus": "/static/audio/wordpool/BARLEY.wav", "conditions": [24, 800, "a", 24000], "internal_node_id": "0.0-136.0", "trial": 5, "time_elapsed": 1163014, "serialpos": 5, "key_press": -1, "wordID": 87, "type": "PRES_AUD", "trial_index": 190}, "uniqueid": "MTK3779:3GD6L00D3T41Q7D1UMQ28XASJKQM1O", "dateTime": 1521388018102}, {"current_trial": 191, "trialdata": {"rt": -1000, "trial_type": "single-audio", "word": "racket", "stimulus": "/static/audio/wordpool/RACKET.wav", "conditions": [24, 800, "a", 24000], "internal_node_id": "0.0-137.0", "trial": 5, "time_elapsed": 1164799, "serialpos": 6, "key_press": -1, "wordID": 1154, "type": "PRES_AUD", "trial_index": 191}, "uniqueid": "MTK3779:3GD6L00D3T41Q7D1UMQ28XASJKQM1O", "dateTime": 1521388019887}, {"current_trial": 192, "trialdata": {"rt": -1000, "trial_type": "single-audio", "word": "match", "stimulus": "/static/audio/wordpool/MATCH.wav", "conditions": [24, 800, "a", 24000], "internal_node_id": "0.0-138.0", "trial": 5, "time_elapsed": 1166524, "serialpos": 7, "key_press": -1, "wordID": 877, "type": "PRES_AUD", "trial_index": 192}, "uniqueid": "MTK3779:3GD6L00D3T41Q7D1UMQ28XASJKQM1O", "dateTime": 1521388021612}, {"current_trial": 193, "trialdata": {"rt": -1000, "trial_type": "single-audio", "word": "mailbox", "stimulus": "/static/audio/wordpool/MAILBOX.wav", "conditions": [24, 800, "a", 24000], "internal_node_id": "0.0-139.0", "trial": 5, "time_elapsed": 1168281, "serialpos": 8, "key_press": -1, "wordID": 856, "type": "PRES_AUD", "trial_index": 193}, "uniqueid": "MTK3779:3GD6L00D3T41Q7D1UMQ28XASJKQM1O", "dateTime": 1521388023369}, {"current_trial": 194, "trialdata": {"rt": -1000, "trial_type": "single-audio", "word": "flute", "stimulus": "/static/audio/wordpool/FLUTE.wav", "conditions": [24, 800, "a", 24000], "internal_node_id": "0.0-140.0", "trial": 5, "time_elapsed": 1169956, "serialpos": 9, "key_press": -1, "wordID": 584, "type": "PRES_AUD", "trial_index": 194}, "uniqueid": "MTK3779:3GD6L00D3T41Q7D1UMQ28XASJKQM1O", "dateTime": 1521388025044}, {"current_trial": 195, "trialdata": {"rt": -1000, "trial_type": "single-audio", "word": "fiddle", "stimulus": "/static/audio/wordpool/FIDDLE.wav", "conditions": [24, 800, "a", 24000], "internal_node_id": "0.0-141.0", "trial": 5, "time_elapsed": 1171556, "serialpos": 10, "key_press": -1, "wordID": 560, "type": "PRES_AUD", "trial_index": 195}, "uniqueid": "MTK3779:3GD6L00D3T41Q7D1UMQ28XASJKQM1O", "dateTime": 1521388026644}, {"current_trial": 196, "trialdata": {"rt": -1000, "trial_type": "single-audio", "word": "virus", "stimulus": "/static/audio/wordpool/VIRUS.wav", "conditions": [24, 800, "a", 24000], "internal_node_id": "0.0-142.0", "trial": 5, "time_elapsed": 1173470, "serialpos": 11, "key_press": -1, "wordID": 1571, "type": "PRES_AUD", "trial_index": 196}, "uniqueid": "MTK3779:3GD6L00D3T41Q7D1UMQ28XASJKQM1O", "dateTime": 1521388028558}, {"current_trial": 197, "trialdata": {"rt": -1000, "trial_type": "single-audio", "word": "garden", "stimulus": "/static/audio/wordpool/GARDEN.wav", "conditions": [24, 800, "a", 24000], "internal_node_id": "0.0-143.0", "trial": 5, "time_elapsed": 1175278, "serialpos": 12, "key_press": -1, "wordID": 622, "type": "PRES_AUD", "trial_index": 197}, "uniqueid": "MTK3779:3GD6L00D3T41Q7D1UMQ28XASJKQM1O", "dateTime": 1521388030366}, {"current_trial": 198, "trialdata": {"rt": -1000, "trial_type": "single-audio", "word": "rabbit", "stimulus": "/static/audio/wordpool/RABBIT.wav", "conditions": [24, 800, "a", 24000], "internal_node_id": "0.0-144.0", "trial": 5, "time_elapsed": 1177136, "serialpos": 13, "key_press": -1, "wordID": 1151, "type": "PRES_AUD", "trial_index": 198}, "uniqueid": "MTK3779:3GD6L00D3T41Q7D1UMQ28XASJKQM1O", "dateTime": 1521388032225}, {"current_trial": 199, "trialdata": {"rt": -1000, "trial_type": "single-audio", "word": "diner", "stimulus": "/static/audio/wordpool/DINER.wav", "conditions": [24, 800, "a", 24000], "internal_node_id": "0.0-145.0", "trial": 5, "time_elapsed": 1179053, "serialpos": 14, "key_press": -1, "wordID": 466, "type": "PRES_AUD", "trial_index": 199}, "uniqueid": "MTK3779:3GD6L00D3T41Q7D1UMQ28XASJKQM1O", "dateTime": 1521388034141}, {"current_trial": 200, "trialdata": {"rt": -1000, "trial_type": "single-audio", "word": "cafe", "stimulus": "/static/audio/wordpool/CAFE.wav", "conditions": [24, 800, "a", 24000], "internal_node_id": "0.0-146.0", "trial": 5, "time_elapsed": 1181002, "serialpos": 15, "key_press": -1, "wordID": 215, "type": "PRES_AUD", "trial_index": 200}, "uniqueid": "MTK3779:3GD6L00D3T41Q7D1UMQ28XASJKQM1O", "dateTime": 1521388036090}, {"current_trial": 201, "trialdata": {"rt": -1000, "trial_type": "single-audio", "word": "quail", "stimulus": "/static/audio/wordpool/QUAIL.wav", "conditions": [24, 800, "a", 24000], "internal_node_id": "0.0-147.0", "trial": 5, "time_elapsed": 1182984, "serialpos": 16, "key_press": -1, "wordID": 1146, "type": "PRES_AUD", "trial_index": 201}, "uniqueid": "MTK3779:3GD6L00D3T41Q7D1UMQ28XASJKQM1O", "dateTime": 1521388038072}, {"current_trial": 202, "trialdata": {"rt": -1000, "trial_type": "single-audio", "word": "butcher", "stimulus": "/static/audio/wordpool/BUTCHER.wav", "conditions": [24, 800, "a", 24000], "internal_node_id": "0.0-148.0", "trial": 5, "time_elapsed": 1184778, "serialpos": 17, "key_press": -1, "wordID": 202, "type": "PRES_AUD", "trial_index": 202}, "uniqueid": "MTK3779:3GD6L00D3T41Q7D1UMQ28XASJKQM1O", "dateTime": 1521388039866}, {"current_trial": 203, "trialdata": {"rt": -1000, "trial_type": "single-audio", "word": "garlic", "stimulus": "/static/audio/wordpool/GARLIC.wav", "conditions": [24, 800, "a", 24000], "internal_node_id": "0.0-149.0", "trial": 5, "time_elapsed": 1186552, "serialpos": 18, "key_press": -1, "wordID": 623, "type": "PRES_AUD", "trial_index": 203}, "uniqueid": "MTK3779:3GD6L00D3T41Q7D1UMQ28XASJKQM1O", "dateTime": 1521388041640}, {"current_trial": 204, "trialdata": {"rt": -1000, "trial_type": "single-audio", "word": "candy", "stimulus": "/static/audio/wordpool/CANDY.wav", "conditions": [24, 800, "a", 24000], "internal_node_id": "0.0-150.0", "trial": 5, "time_elapsed": 1188309, "serialpos": 19, "key_press": -1, "wordID": 229, "type": "PRES_AUD", "trial_index": 204}, "uniqueid": "MTK3779:3GD6L00D3T41Q7D1UMQ28XASJKQM1O", "dateTime": 1521388043397}, {"current_trial": 205, "trialdata": {"rt": -1000, "trial_type": "single-audio", "word": "turkey", "stimulus": "/static/audio/wordpool/TURKEY.wav", "conditions": [24, 800, "a", 24000], "internal_node_id": "0.0-151.0", "trial": 5, "time_elapsed": 1190105, "serialpos": 20, "key_press": -1, "wordID": 1519, "type": "PRES_AUD", "trial_index": 205}, "uniqueid": "MTK3779:3GD6L00D3T41Q7D1UMQ28XASJKQM1O", "dateTime": 1521388045193}, {"current_trial": 206, "trialdata": {"rt": -1000, "trial_type": "single-audio", "word": "cowboy", "stimulus": "/static/audio/wordpool/COWBOY.wav", "conditions": [24, 800, "a", 24000], "internal_node_id": "0.0-152.0", "trial": 5, "time_elapsed": 1191907, "serialpos": 21, "key_press": -1, "wordID": 394, "type": "PRES_AUD", "trial_index": 206}, "uniqueid": "MTK3779:3GD6L00D3T41Q7D1UMQ28XASJKQM1O", "dateTime": 1521388046995}, {"current_trial": 207, "trialdata": {"rt": -1000, "trial_type": "single-audio", "word": "slug", "stimulus": "/static/audio/wordpool/SLUG.wav", "conditions": [24, 800, "a", 24000], "internal_node_id": "0.0-153.0", "trial": 5, "time_elapsed": 1193688, "serialpos": 22, "key_press": -1, "wordID": 1328, "type": "PRES_AUD", "trial_index": 207}, "uniqueid": "MTK3779:3GD6L00D3T41Q7D1UMQ28XASJKQM1O", "dateTime": 1521388048776}, {"current_trial": 208, "trialdata": {"rt": -1000, "trial_type": "single-audio", "word": "luggage", "stimulus": "/static/audio/wordpool/LUGGAGE.wav", "conditions": [24, 800, "a", 24000], "internal_node_id": "0.0-154.0", "trial": 5, "time_elapsed": 1195385, "serialpos": 23, "key_press": -1, "wordID": 846, "type": "PRES_AUD", "trial_index": 208}, "uniqueid": "MTK3779:3GD6L00D3T41Q7D1UMQ28XASJKQM1O", "dateTime": 1521388050473}, {"current_trial": 209, "trialdata": {"rt": -1, "trial_type": "single-stim", "stimulus": "", "internal_node_id": "0.0-155.0-0.0", "time_elapsed": 1196618, "key_press": -1, "type": "PRE_RECALL_DELAY", "trial_index": 209}, "uniqueid": "MTK3779:3GD6L00D3T41Q7D1UMQ28XASJKQM1O", "dateTime": 1521388051706}, {"current_trial": 210, "trialdata": {"rt": -1000, "trial_type": "single-audio", "stimulus": "/static/audio/400Hz.wav", "internal_node_id": "0.0-156.0", "time_elapsed": 1197119, "key_press": -1, "type": "PRE_RECALL_ALERT", "trial_index": 210}, "uniqueid": "MTK3779:3GD6L00D3T41Q7D1UMQ28XASJKQM1O", "dateTime": 1521388052207}, {"current_trial": 211, "trialdata": {"rt": [3976, 7577, 11825, 14834, 16369, 18129, 21464, 24193, 25952, 29337, 31305, 33122, 35233, 37473, 41840, 45640, 47889, 50649, 54257], "recwords": ["lamp", "fiddle", "flute", "rabbit", "match", "racket", "trick", "garden", "candy", "butcher", "garlic", "leader", "rabbit", "quail", "trick", "mailman", "gazel", "poison", "cowboy"], "key_times": [2899, 3010, 3177, 3761, 3976, 4192, 4336, 5177, 5321, 5488, 5640, 7577, 8408, 8505, 8728, 9592, 10024, 11825, 12217, 12329, 13266, 13440, 13718, 13961, 14834, 15345, 15457, 15673, 16006, 16057, 16369, 17081, 17193, 17393, 17488, 17632, 17849, 18129, 18433, 19825, 20209, 20385, 20497, 20792, 20897, 21464, 21745, 21872, 22008, 22305, 22512, 23641, 24193, 24496, 24600, 24832, 25040, 25224, 25952, 27536, 27800, 27976, 28240, 28336, 28481, 28569, 29337, 29641, 29769, 29873, 30049, 30257, 30442, 31305, 31641, 31777, 31825, 32138, 32353, 32433, 33122, 33770, 33913, 34241, 34385, 34569, 34746, 35233, 35920, 36040, 36209, 36489, 36713, 37473, 40000, 40191, 40257, 40568, 40640, 41840, 42336, 42640, 43392, 43560, 43777, 43960, 44408, 44559, 44904, 45640, 46400, 46552, 46801, 47049, 47377, 47889, 48377, 48850, 49033, 49321, 49513, 49745, 50649, 51297, 51369, 51521, 52168, 52321, 52785, 54257, 58407, 58601, 58848, 59105, 59208, 59553], "trial_type": "free-recall", "conditions": [24, 800, "a", 24000], "internal_node_id": "0.0-157.0-0.0", "key_presses": [76, 65, 77, 80, 32, 70, 73, 68, 68, 76, 69, 13, 70, 76, 85, 84, 69, 13, 82, 65, 66, 66, 73, 84, 13, 77, 65, 84, 67, 72, 13, 82, 65, 67, 75, 69, 84, 13, 82, 8, 84, 82, 73, 67, 75, 13, 71, 65, 82, 68, 69, 78, 13, 67, 65, 78, 68, 89, 32, 66, 85, 84, 67, 72, 69, 82, 13, 71, 65, 82, 76, 73, 67, 13, 76, 69, 65, 68, 69, 82, 13, 82, 65, 66, 66, 73, 84, 13, 81, 85, 65, 73, 76, 13, 84, 82, 73, 67, 75, 13, 77, 73, 8, 65, 73, 76, 77, 65, 78, 13, 71, 65, 90, 69, 76, 13, 80, 79, 73, 83, 79, 78, 13, 67, 79, 87, 66, 79, 89, 13, 66, 65, 82, 76, 69, 89], "trial": 5, "time_elapsed": 1257120, "type": "FREE_RECALL", "trial_index": 211}, "uniqueid": "MTK3779:3GD6L00D3T41Q7D1UMQ28XASJKQM1O", "dateTime": 1521388112215}, {"current_trial": 212, "trialdata": {"rt": 31410, "trial_type": "text", "internal_node_id": "0.0-158.0", "time_elapsed": 1290537, "key_press": 13, "type": "INSTRUCTIONS", "trial_index": 212}, "uniqueid": "MTK3779:3GD6L00D3T41Q7D1UMQ28XASJKQM1O", "dateTime": 1521388145625}, {"current_trial": 213, "trialdata": {"rt": [2307, 4484, 6420, 9891, 12556, 14915, 17267, 21924, 23756], "trial_type": "math-distractor", "key_times": [1970, 2307, 4091, 4260, 4484, 6004, 6148, 6420, 9405, 9540, 9891, 12196, 12556, 14524, 14643, 14915, 16850, 16986, 17267, 21203, 21259, 21924, 23299, 23436, 23756], "responses": ["9", "17", "16", "21", "7", "12", "12", "21", "16"], "num2": [1, 6, 6, 4, 1, 2, 8, 4, 3, 5], "num3": [2, 9, 6, 9, 2, 7, 3, 9, 6, 9], "conditions": [12, 800, "a", 24000], "internal_node_id": "0.0-159.0", "key_presses": [105, 13, 97, 103, 13, 97, 102, 13, 98, 97, 13, 103, 13, 97, 98, 13, 97, 98, 13, 98, 97, 13, 97, 102, 13], "trial": 6, "time_elapsed": 1316540, "type": "DISTRACTOR", "trial_index": 213, "num1": [6, 2, 4, 9, 4, 3, 1, 8, 7, 3]}, "uniqueid": "MTK3779:3GD6L00D3T41Q7D1UMQ28XASJKQM1O", "dateTime": 1521388171629}, {"current_trial": 214, "trialdata": {"rt": -1, "trial_type": "single-stim", "stimulus": "<p id=\"stim\">10</p>", "internal_node_id": "0.0-160.0-0.0", "time_elapsed": 1319543, "key_press": -1, "trial_index": 214}, "uniqueid": "MTK3779:3GD6L00D3T41Q7D1UMQ28XASJKQM1O", "dateTime": 1521388174631}, {"current_trial": 215, "trialdata": {"rt": -1, "trial_type": "single-stim", "stimulus": "<p id=\"stim\">9</p>", "internal_node_id": "0.0-160.0-1.0", "time_elapsed": 1320543, "key_press": -1, "trial_index": 215}, "uniqueid": "MTK3779:3GD6L00D3T41Q7D1UMQ28XASJKQM1O", "dateTime": 1521388175631}, {"current_trial": 216, "trialdata": {"rt": -1, "trial_type": "single-stim", "stimulus": "<p id=\"stim\">8</p>", "internal_node_id": "0.0-160.0-2.0", "time_elapsed": 1321543, "key_press": -1, "trial_index": 216}, "uniqueid": "MTK3779:3GD6L00D3T41Q7D1UMQ28XASJKQM1O", "dateTime": 1521388176632}, {"current_trial": 217, "trialdata": {"rt": -1, "trial_type": "single-stim", "stimulus": "<p id=\"stim\">7</p>", "internal_node_id": "0.0-160.0-3.0", "time_elapsed": 1322545, "key_press": -1, "trial_index": 217}, "uniqueid": "MTK3779:3GD6L00D3T41Q7D1UMQ28XASJKQM1O", "dateTime": 1521388177633}, {"current_trial": 218, "trialdata": {"rt": -1, "trial_type": "single-stim", "stimulus": "<p id=\"stim\">6</p>", "internal_node_id": "0.0-160.0-4.0", "time_elapsed": 1323545, "key_press": -1, "trial_index": 218}, "uniqueid": "MTK3779:3GD6L00D3T41Q7D1UMQ28XASJKQM1O", "dateTime": 1521388178633}, {"current_trial": 219, "trialdata": {"rt": -1, "trial_type": "single-stim", "stimulus": "<p id=\"stim\">5</p>", "internal_node_id": "0.0-160.0-5.0", "time_elapsed": 1324546, "key_press": -1, "trial_index": 219}, "uniqueid": "MTK3779:3GD6L00D3T41Q7D1UMQ28XASJKQM1O", "dateTime": 1521388179635}, {"current_trial": 220, "trialdata": {"rt": -1, "trial_type": "single-stim", "stimulus": "<p id=\"stim\">4</p>", "internal_node_id": "0.0-160.0-6.0", "time_elapsed": 1325547, "key_press": -1, "trial_index": 220}, "uniqueid": "MTK3779:3GD6L00D3T41Q7D1UMQ28XASJKQM1O", "dateTime": 1521388180635}, {"current_trial": 221, "trialdata": {"rt": -1, "trial_type": "single-stim", "stimulus": "<p id=\"stim\">3</p>", "internal_node_id": "0.0-160.0-7.0", "time_elapsed": 1326548, "key_press": -1, "trial_index": 221}, "uniqueid": "MTK3779:3GD6L00D3T41Q7D1UMQ28XASJKQM1O", "dateTime": 1521388181636}, {"current_trial": 222, "trialdata": {"rt": -1, "trial_type": "single-stim", "stimulus": "<p id=\"stim\">2</p>", "internal_node_id": "0.0-160.0-8.0", "time_elapsed": 1327549, "key_press": -1, "trial_index": 222}, "uniqueid": "MTK3779:3GD6L00D3T41Q7D1UMQ28XASJKQM1O", "dateTime": 1521388182638}, {"current_trial": 223, "trialdata": {"rt": -1, "trial_type": "single-stim", "stimulus": "<p id=\"stim\">1</p>", "internal_node_id": "0.0-160.0-9.0", "time_elapsed": 1328551, "key_press": -1, "trial_index": 223}, "uniqueid": "MTK3779:3GD6L00D3T41Q7D1UMQ28XASJKQM1O", "dateTime": 1521388183639}, {"current_trial": 224, "trialdata": {"rt": -1, "trial_type": "single-stim", "stimulus": "<p id=\"stim\">+</p>", "internal_node_id": "0.0-161.0-0.0", "time_elapsed": 1330052, "key_press": -1, "type": "FIXATION", "trial_index": 224}, "uniqueid": "MTK3779:3GD6L00D3T41Q7D1UMQ28XASJKQM1O", "dateTime": 1521388185141}, {"current_trial": 225, "trialdata": {"rt": -1000, "trial_type": "single-audio", "word": "suitcase", "stimulus": "/static/audio/wordpool/SUITCASE.wav", "conditions": [12, 800, "a", 24000], "internal_node_id": "0.0-162.0", "trial": 6, "time_elapsed": 1331944, "serialpos": 0, "key_press": -1, "wordID": 1402, "type": "PRES_AUD", "trial_index": 225}, "uniqueid": "MTK3779:3GD6L00D3T41Q7D1UMQ28XASJKQM1O", "dateTime": 1521388187032}, {"current_trial": 226, "trialdata": {"rt": -1000, "trial_type": "single-audio", "word": "costume", "stimulus": "/static/audio/wordpool/COSTUME.wav", "conditions": [12, 800, "a", 24000], "internal_node_id": "0.0-163.0", "trial": 6, "time_elapsed": 1333717, "serialpos": 1, "key_press": -1, "wordID": 382, "type": "PRES_AUD", "trial_index": 226}, "uniqueid": "MTK3779:3GD6L00D3T41Q7D1UMQ28XASJKQM1O", "dateTime": 1521388188806}, {"current_trial": 227, "trialdata": {"rt": -1000, "trial_type": "single-audio", "word": "beaver", "stimulus": "/static/audio/wordpool/BEAVER.wav", "conditions": [12, 800, "a", 24000], "internal_node_id": "0.0-164.0", "trial": 6, "time_elapsed": 1335395, "serialpos": 2, "key_press": -1, "wordID": 108, "type": "PRES_AUD", "trial_index": 227}, "uniqueid": "MTK3779:3GD6L00D3T41Q7D1UMQ28XASJKQM1O", "dateTime": 1521388190483}, {"current_trial": 228, "trialdata": {"rt": -1000, "trial_type": "single-audio", "word": "ketchup", "stimulus": "/static/audio/wordpool/KETCHUP.wav", "conditions": [12, 800, "a", 24000], "internal_node_id": "0.0-165.0", "trial": 6, "time_elapsed": 1337017, "serialpos": 3, "key_press": -1, "wordID": 770, "type": "PRES_AUD", "trial_index": 228}, "uniqueid": "MTK3779:3GD6L00D3T41Q7D1UMQ28XASJKQM1O", "dateTime": 1521388192105}, {"current_trial": 229, "trialdata": {"rt": -1000, "trial_type": "single-audio", "word": "contract", "stimulus": "/static/audio/wordpool/CONTRACT.wav", "conditions": [12, 800, "a", 24000], "internal_node_id": "0.0-166.0", "trial": 6, "time_elapsed": 1338973, "serialpos": 4, "key_press": -1, "wordID": 367, "type": "PRES_AUD", "trial_index": 229}, "uniqueid": "MTK3779:3GD6L00D3T41Q7D1UMQ28XASJKQM1O", "dateTime": 1521388194061}, {"current_trial": 230, "trialdata": {"rt": -1000, "trial_type": "single-audio", "word": "scallop", "stimulus": "/static/audio/wordpool/SCALLOP.wav", "conditions": [12, 800, "a", 24000], "internal_node_id": "0.0-167.0", "trial": 6, "time_elapsed": 1340755, "serialpos": 5, "key_press": -1, "wordID": 1241, "type": "PRES_AUD", "trial_index": 230}, "uniqueid": "MTK3779:3GD6L00D3T41Q7D1UMQ28XASJKQM1O", "dateTime": 1521388195843}, {"current_trial": 231, "trialdata": {"rt": -1000, "trial_type": "single-audio", "word": "cod", "stimulus": "/static/audio/wordpool/COD.wav", "conditions": [12, 800, "a", 24000], "internal_node_id": "0.0-168.0", "trial": 6, "time_elapsed": 1342627, "serialpos": 6, "key_press": -1, "wordID": 339, "type": "PRES_AUD", "trial_index": 231}, "uniqueid": "MTK3779:3GD6L00D3T41Q7D1UMQ28XASJKQM1O", "dateTime": 1521388197715}, {"current_trial": 232, "trialdata": {"rt": -1000, "trial_type": "single-audio", "word": "beast", "stimulus": "/static/audio/wordpool/BEAST.wav", "conditions": [12, 800, "a", 24000], "internal_node_id": "0.0-169.0", "trial": 6, "time_elapsed": 1344435, "serialpos": 7, "key_press": -1, "wordID": 107, "type": "PRES_AUD", "trial_index": 232}, "uniqueid": "MTK3779:3GD6L00D3T41Q7D1UMQ28XASJKQM1O", "dateTime": 1521388199523}, {"current_trial": 233, "trialdata": {"rt": -1000, "trial_type": "single-audio", "word": "perch", "stimulus": "/static/audio/wordpool/PERCH.wav", "conditions": [12, 800, "a", 24000], "internal_node_id": "0.0-170.0", "trial": 6, "time_elapsed": 1346274, "serialpos": 8, "key_press": -1, "wordID": 1047, "type": "PRES_AUD", "trial_index": 233}, "uniqueid": "MTK3779:3GD6L00D3T41Q7D1UMQ28XASJKQM1O", "dateTime": 1521388201362}, {"current_trial": 234, "trialdata": {"rt": -1000, "trial_type": "single-audio", "word": "briefcase", "stimulus": "/static/audio/wordpool/BRIEFCASE.wav", "conditions": [12, 800, "a", 24000], "internal_node_id": "0.0-171.0", "trial": 6, "time_elapsed": 1348121, "serialpos": 9, "key_press": -1, "wordID": 174, "type": "PRES_AUD", "trial_index": 234}, "uniqueid": "MTK3779:3GD6L00D3T41Q7D1UMQ28XASJKQM1O", "dateTime": 1521388203209}, {"current_trial": 235, "trialdata": {"rt": -1000, "trial_type": "single-audio", "word": "sketch", "stimulus": "/static/audio/wordpool/SKETCH.wav", "conditions": [12, 800, "a", 24000], "internal_node_id": "0.0-172.0", "trial": 6, "time_elapsed": 1349781, "serialpos": 10, "key_press": -1, "wordID": 1314, "type": "PRES_AUD", "trial_index": 235}, "uniqueid": "MTK3779:3GD6L00D3T41Q7D1UMQ28XASJKQM1O", "dateTime": 1521388204869}, {"current_trial": 236, "trialdata": {"rt": -1000, "trial_type": "single-audio", "word": "piston", "stimulus": "/static/audio/wordpool/PISTON.wav", "conditions": [12, 800, "a", 24000], "internal_node_id": "0.0-173.0", "trial": 6, "time_elapsed": 1351717, "serialpos": 11, "key_press": -1, "wordID": 1075, "type": "PRES_AUD", "trial_index": 236}, "uniqueid": "MTK3779:3GD6L00D3T41Q7D1UMQ28XASJKQM1O", "dateTime": 1521388206805}, {"current_trial": 237, "trialdata": {"rt": -1, "trial_type": "single-stim", "stimulus": "", "internal_node_id": "0.0-174.0-0.0", "time_elapsed": 1353069, "key_press": -1, "type": "PRE_RECALL_DELAY", "trial_index": 237}, "uniqueid": "MTK3779:3GD6L00D3T41Q7D1UMQ28XASJKQM1O", "dateTime": 1521388208157}, {"current_trial": 238, "trialdata": {"rt": -1000, "trial_type": "single-audio", "stimulus": "/static/audio/400Hz.wav", "internal_node_id": "0.0-175.0", "time_elapsed": 1353571, "key_press": -1, "type": "PRE_RECALL_ALERT", "trial_index": 238}, "uniqueid": "MTK3779:3GD6L00D3T41Q7D1UMQ28XASJKQM1O", "dateTime": 1521388208659}, {"current_trial": 239, "trialdata": {"rt": [5548, 7587, 9003, 10956, 14204, 18701, 21252, 25179, 28315, 34381, 55875, 58675], "recwords": ["briefcase", "suitcase", "beaver", "ketchup", "scallup", "sketch", "beast", "contract", "perch", "costume", "beaver", "ketchup"], "key_times": [2902, 3012, 3396, 3515, 3723, 4308, 4627, 4867, 5027, 5548, 6051, 6147, 6340, 6515, 6891, 6987, 7147, 7332, 7587, 8084, 8227, 8323, 8547, 8731, 8795, 9003, 9346, 9459, 9619, 9875, 9931, 10163, 10380, 10956, 11708, 1185