{"assignmentId": "3K9FOBBF2IQKYW25ZXNL5R86K71NL7", "workerId": "MTK3131", "questiondata": {"origin": "United States", "strat-rehearsal": "60", "marital": "Married/Domestic Partnership", "education": "High school diploma", "ethnicity": "Not Hispanic", "color_depth": 24, "distracted": "No", "wrote-notes": "No", "strat-other": "thought of and remembered most words that i can relate to something in my life", "screen_width": 1920, "avail_screen_width": 1920, "avail_screen_height": 1040, "strat-image": "61", "language": "English", "gender": "Female", "age": "38", "gender_other": "", "race": ["Asian"], "strat-categorize": "77", "pixel_depth": 24, "strat-spatial": "13", "strat-story": "67", "race_other": "", "screen_height": 1080}, "bonus": 0, "hitId": "3VMV5CHJZ8M0KXVUV07FCED6TFMGTZ", "counterbalance": 2261, "useragent": "Mozilla/5.0 (Windows NT 10.0; Win64; x64) AppleWebKit/537.36 (KHTML, like Gecko) Chrome/64.0.3282.186 Safari/537.36", "eventdata": [{"eventtype": "initialized", "interval": 0, "value": null, "timestamp": 1520038043278}, {"eventtype": "window_resize", "interval": 1, "value": [1920, 974], "timestamp": 1520038043279}, {"eventtype": "focus", "interval": 5315, "value": "off", "timestamp": 1520038048594}, {"eventtype": "focus", "interval": 32708, "value": "on", "timestamp": 1520038081302}, {"eventtype": "focus", "interval": 107468, "value": "off", "timestamp": 1520038188770}, {"eventtype": "focus", "interval": 6011, "value": "on", "timestamp": 1520038194781}, {"eventtype": "focus", "interval": 2610, "value": "off", "timestamp": 1520038197391}, {"eventtype": "focus", "interval": 3461, "value": "on", "timestamp": 1520038200852}, {"eventtype": "focus", "interval": 4363, "value": "off", "timestamp": 1520038205215}, {"eventtype": "focus", "interval": 1771, "value": "on", "timestamp": 1520038206986}, {"eventtype": "focus", "interval": 1877, "value": "off", "timestamp": 1520038208863}, {"eventtype": "focus", "interval": 3928, "value": "on", "timestamp": 1520038212791}, {"eventtype": "focus", "interval": 1296, "value": "off", "timestamp": 1520038214087}, {"eventtype": "focus", "interval": 4699, "value": "on", "timestamp": 1520038218786}, {"eventtype": "focus", "interval": 991089, "value": "off", "timestamp": 1520039209875}, {"eventtype": "focus", "interval": 78, "value": "on", "timestamp": 1520039209953}, {"eventtype": "window_resize", "interval": 265, "value": [1884, 927], "timestamp": 1520039210218}, {"eventtype": "window_resize", "interval": 759, "value": [1920, 974], "timestamp": 1520039210977}, {"eventtype": "focus", "interval": 13259, "value": "off", "timestamp": 1520039224236}, {"eventtype": "focus", "interval": 6759, "value": "on", "timestamp": 1520039230995}], "data": [{"current_trial": 0, "trialdata": {"rt": 6133, "trial_type": "text", "internal_node_id": "0.0-0.0", "time_elapsed": 6135, "key_press": 13, "type": "INSTRUCTIONS", "trial_index": 0}, "uniqueid": "MTK3131:3K9FOBBF2IQKYW25ZXNL5R86K71NL7", "dateTime": 1520038083063}, {"current_trial": 1, "trialdata": {"rt": 1157, "trial_type": "text", "internal_node_id": "0.0-1.0", "time_elapsed": 7296, "key_press": 13, "type": "INSTRUCTIONS", "trial_index": 1}, "uniqueid": "MTK3131:3K9FOBBF2IQKYW25ZXNL5R86K71NL7", "dateTime": 1520038084224}, {"current_trial": 2, "trialdata": {"rt": [5553], "trial_type": "audio-test", "responses": ["ocean"], "internal_node_id": "0.0-2.0", "time_elapsed": 12861, "type": "AUDIO_TEST", "trial_index": 2}, "uniqueid": "MTK3131:3K9FOBBF2IQKYW25ZXNL5R86K71NL7", "dateTime": 1520038089789}, {"current_trial": 3, "trialdata": {"rt": [6553], "trial_type": "audio-test", "responses": ["crystal"], "internal_node_id": "0.0-3.0", "time_elapsed": 19417, "type": "AUDIO_TEST", "trial_index": 3}, "uniqueid": "MTK3131:3K9FOBBF2IQKYW25ZXNL5R86K71NL7", "dateTime": 1520038096345}, {"current_trial": 4, "trialdata": {"rt": [5941], "trial_type": "audio-test", "responses": ["spice"], "internal_node_id": "0.0-4.0", "time_elapsed": 25361, "type": "AUDIO_TEST", "trial_index": 4}, "uniqueid": "MTK3131:3K9FOBBF2IQKYW25ZXNL5R86K71NL7", "dateTime": 1520038102289}, {"current_trial": 5, "trialdata": {"rt": 21659, "trial_type": "survey-text", "responses": "{\"Q0\":\"1am\",\"Q1\":\"7:30am\",\"Q2\":\"4\"}", "internal_node_id": "0.0-5.0", "time_elapsed": 47774, "type": "SLEEP_SURVEY", "trial_index": 5}, "uniqueid": "MTK3131:3K9FOBBF2IQKYW25ZXNL5R86K71NL7", "dateTime": 1520038124702}, {"current_trial": 6, "trialdata": {"rt": 48779, "trial_type": "text", "internal_node_id": "0.0-6.0", "time_elapsed": 97554, "key_press": 13, "type": "INSTRUCTIONS", "trial_index": 6}, "uniqueid": "MTK3131:3K9FOBBF2IQKYW25ZXNL5R86K71NL7", "dateTime": 1520038174482}, {"current_trial": 7, "trialdata": {"rt": 22350, "trial_type": "text", "internal_node_id": "0.0-7.0", "time_elapsed": 120405, "key_press": 18, "type": "INSTRUCTIONS", "trial_index": 7}, "uniqueid": "MTK3131:3K9FOBBF2IQKYW25ZXNL5R86K71NL7", "dateTime": 1520038197333}, {"current_trial": 8, "trialdata": {"rt": 3896, "trial_type": "text", "internal_node_id": "0.0-8.0", "time_elapsed": 124805, "key_press": 13, "type": "INSTRUCTIONS", "trial_index": 8}, "uniqueid": "MTK3131:3K9FOBBF2IQKYW25ZXNL5R86K71NL7", "dateTime": 1520038201733}, {"current_trial": 9, "trialdata": {"rt": [5100, 10653, 16628], "trial_type": "math-distractor", "key_times": [2429, 4773, 4829, 5100, 6068, 10340, 10421, 10653, 11300, 16237, 16372, 16628], "responses": ["23", "21", "19"], "num2": [8, 7, 9, 2], "num3": [7, 6, 3, 4], "conditions": [18, 1200, "a", 18000], "internal_node_id": "0.0-9.0", "key_presses": [18, 98, 99, 13, 18, 98, 97, 13, 18, 97, 105, 13], "trial": 0, "time_elapsed": 143809, "type": "DISTRACTOR", "trial_index": 9, "num1": [8, 8, 7, 4]}, "uniqueid": "MTK3131:3K9FOBBF2IQKYW25ZXNL5R86K71NL7", "dateTime": 1520038220737}, {"current_trial": 10, "trialdata": {"rt": -1, "trial_type": "single-stim", "stimulus": "<p id=\"stim\">10</p>", "internal_node_id": "0.0-10.0-0.0", "time_elapsed": 146814, "key_press": -1, "trial_index": 10}, "uniqueid": "MTK3131:3K9FOBBF2IQKYW25ZXNL5R86K71NL7", "dateTime": 1520038223742}, {"current_trial": 11, "trialdata": {"rt": -1, "trial_type": "single-stim", "stimulus": "<p id=\"stim\">9</p>", "internal_node_id": "0.0-10.0-1.0", "time_elapsed": 147816, "key_press": -1, "trial_index": 11}, "uniqueid": "MTK3131:3K9FOBBF2IQKYW25ZXNL5R86K71NL7", "dateTime": 1520038224744}, {"current_trial": 12, "trialdata": {"rt": -1, "trial_type": "single-stim", "stimulus": "<p id=\"stim\">8</p>", "internal_node_id": "0.0-10.0-2.0", "time_elapsed": 148816, "key_press": -1, "trial_index": 12}, "uniqueid": "MTK3131:3K9FOBBF2IQKYW25ZXNL5R86K71NL7", "dateTime": 1520038225744}, {"current_trial": 13, "trialdata": {"rt": -1, "trial_type": "single-stim", "stimulus": "<p id=\"stim\">7</p>", "internal_node_id": "0.0-10.0-3.0", "time_elapsed": 149818, "key_press": -1, "trial_index": 13}, "uniqueid": "MTK3131:3K9FOBBF2IQKYW25ZXNL5R86K71NL7", "dateTime": 1520038226746}, {"current_trial": 14, "trialdata": {"rt": -1, "trial_type": "single-stim", "stimulus": "<p id=\"stim\">6</p>", "internal_node_id": "0.0-10.0-4.0", "time_elapsed": 150819, "key_press": -1, "trial_index": 14}, "uniqueid": "MTK3131:3K9FOBBF2IQKYW25ZXNL5R86K71NL7", "dateTime": 1520038227747}, {"current_trial": 15, "trialdata": {"rt": -1, "trial_type": "single-stim", "stimulus": "<p id=\"stim\">5</p>", "internal_node_id": "0.0-10.0-5.0", "time_elapsed": 151820, "key_press": -1, "trial_index": 15}, "uniqueid": "MTK3131:3K9FOBBF2IQKYW25ZXNL5R86K71NL7", "dateTime": 1520038228749}, {"current_trial": 16, "trialdata": {"rt": -1, "trial_type": "single-stim", "stimulus": "<p id=\"stim\">4</p>", "internal_node_id": "0.0-10.0-6.0", "time_elapsed": 152821, "key_press": -1, "trial_index": 16}, "uniqueid": "MTK3131:3K9FOBBF2IQKYW25ZXNL5R86K71NL7", "dateTime": 1520038229749}, {"current_trial": 17, "trialdata": {"rt": -1, "trial_type": "single-stim", "stimulus": "<p id=\"stim\">3</p>", "internal_node_id": "0.0-10.0-7.0", "time_elapsed": 153822, "key_press": -1, "trial_index": 17}, "uniqueid": "MTK3131:3K9FOBBF2IQKYW25ZXNL5R86K71NL7", "dateTime": 1520038230750}, {"current_trial": 18, "trialdata": {"rt": -1, "trial_type": "single-stim", "stimulus": "<p id=\"stim\">2</p>", "internal_node_id": "0.0-10.0-8.0", "time_elapsed": 154824, "key_press": -1, "trial_index": 18}, "uniqueid": "MTK3131:3K9FOBBF2IQKYW25ZXNL5R86K71NL7", "dateTime": 1520038231752}, {"current_trial": 19, "trialdata": {"rt": -1, "trial_type": "single-stim", "stimulus": "<p id=\"stim\">1</p>", "internal_node_id": "0.0-10.0-9.0", "time_elapsed": 155825, "key_press": -1, "trial_index": 19}, "uniqueid": "MTK3131:3K9FOBBF2IQKYW25ZXNL5R86K71NL7", "dateTime": 1520038232753}, {"current_trial": 20, "trialdata": {"rt": -1, "trial_type": "single-stim", "stimulus": "<p id=\"stim\">+</p>", "internal_node_id": "0.0-11.0-0.0", "time_elapsed": 157325, "key_press": -1, "type": "FIXATION", "trial_index": 20}, "uniqueid": "MTK3131:3K9FOBBF2IQKYW25ZXNL5R86K71NL7", "dateTime": 1520038234254}, {"current_trial": 21, "trialdata": {"rt": -1000, "trial_type": "single-audio", "word": "trout", "stimulus": "/static/audio/wordpool/TROUT.wav", "conditions": [18, 1200, "a", 18000], "internal_node_id": "0.0-12.0", "trial": 0, "time_elapsed": 159463, "serialpos": 0, "key_press": -1, "wordID": 1510, "type": "PRES_AUD", "trial_index": 21}, "uniqueid": "MTK3131:3K9FOBBF2IQKYW25ZXNL5R86K71NL7", "dateTime": 1520038236391}, {"current_trial": 22, "trialdata": {"rt": -1000, "trial_type": "single-audio", "word": "clothes", "stimulus": "/static/audio/wordpool/CLOTHES.wav", "conditions": [18, 1200, "a", 18000], "internal_node_id": "0.0-13.0", "trial": 0, "time_elapsed": 161737, "serialpos": 1, "key_press": -1, "wordID": 326, "type": "PRES_AUD", "trial_index": 22}, "uniqueid": "MTK3131:3K9FOBBF2IQKYW25ZXNL5R86K71NL7", "dateTime": 1520038238665}, {"current_trial": 23, "trialdata": {"rt": -1000, "trial_type": "single-audio", "word": "knapsack", "stimulus": "/static/audio/wordpool/KNAPSACK.wav", "conditions": [18, 1200, "a", 18000], "internal_node_id": "0.0-14.0", "trial": 0, "time_elapsed": 164071, "serialpos": 2, "key_press": -1, "wordID": 782, "type": "PRES_AUD", "trial_index": 23}, "uniqueid": "MTK3131:3K9FOBBF2IQKYW25ZXNL5R86K71NL7", "dateTime": 1520038240999}, {"current_trial": 24, "trialdata": {"rt": -1000, "trial_type": "single-audio", "word": "snail", "stimulus": "/static/audio/wordpool/SNAIL.wav", "conditions": [18, 1200, "a", 18000], "internal_node_id": "0.0-15.0", "trial": 0, "time_elapsed": 166182, "serialpos": 3, "key_press": -1, "wordID": 1331, "type": "PRES_AUD", "trial_index": 24}, "uniqueid": "MTK3131:3K9FOBBF2IQKYW25ZXNL5R86K71NL7", "dateTime": 1520038243110}, {"current_trial": 25, "trialdata": {"rt": -1000, "trial_type": "single-audio", "word": "swimmer", "stimulus": "/static/audio/wordpool/SWIMMER.wav", "conditions": [18, 1200, "a", 18000], "internal_node_id": "0.0-16.0", "trial": 0, "time_elapsed": 168279, "serialpos": 4, "key_press": -1, "wordID": 1419, "type": "PRES_AUD", "trial_index": 25}, "uniqueid": "MTK3131:3K9FOBBF2IQKYW25ZXNL5R86K71NL7", "dateTime": 1520038245207}, {"current_trial": 26, "trialdata": {"rt": -1000, "trial_type": "single-audio", "word": "ulcer", "stimulus": "/static/audio/wordpool/ULCER.wav", "conditions": [18, 1200, "a", 18000], "internal_node_id": "0.0-17.0", "trial": 0, "time_elapsed": 170343, "serialpos": 5, "key_press": -1, "wordID": 1532, "type": "PRES_AUD", "trial_index": 26}, "uniqueid": "MTK3131:3K9FOBBF2IQKYW25ZXNL5R86K71NL7", "dateTime": 1520038247271}, {"current_trial": 27, "trialdata": {"rt": -1000, "trial_type": "single-audio", "word": "zebra", "stimulus": "/static/audio/wordpool/ZEBRA.wav", "conditions": [18, 1200, "a", 18000], "internal_node_id": "0.0-18.0", "trial": 0, "time_elapsed": 172385, "serialpos": 6, "key_press": -1, "wordID": 1634, "type": "PRES_AUD", "trial_index": 27}, "uniqueid": "MTK3131:3K9FOBBF2IQKYW25ZXNL5R86K71NL7", "dateTime": 1520038249313}, {"current_trial": 28, "trialdata": {"rt": -1000, "trial_type": "single-audio", "word": "daughter", "stimulus": "/static/audio/wordpool/DAUGHTER.wav", "conditions": [18, 1200, "a", 18000], "internal_node_id": "0.0-19.0", "trial": 0, "time_elapsed": 174402, "serialpos": 7, "key_press": -1, "wordID": 441, "type": "PRES_AUD", "trial_index": 28}, "uniqueid": "MTK3131:3K9FOBBF2IQKYW25ZXNL5R86K71NL7", "dateTime": 1520038251330}, {"current_trial": 29, "trialdata": {"rt": -1000, "trial_type": "single-audio", "word": "frame", "stimulus": "/static/audio/wordpool/FRAME.wav", "conditions": [18, 1200, "a", 18000], "internal_node_id": "0.0-20.0", "trial": 0, "time_elapsed": 176457, "serialpos": 8, "key_press": -1, "wordID": 599, "type": "PRES_AUD", "trial_index": 29}, "uniqueid": "MTK3131:3K9FOBBF2IQKYW25ZXNL5R86K71NL7", "dateTime": 1520038253386}, {"current_trial": 30, "trialdata": {"rt": -1000, "trial_type": "single-audio", "word": "sphinx", "stimulus": "/static/audio/wordpool/SPHINX.wav", "conditions": [18, 1200, "a", 18000], "internal_node_id": "0.0-21.0", "trial": 0, "time_elapsed": 178666, "serialpos": 9, "key_press": -1, "wordID": 1348, "type": "PRES_AUD", "trial_index": 30}, "uniqueid": "MTK3131:3K9FOBBF2IQKYW25ZXNL5R86K71NL7", "dateTime": 1520038255594}, {"current_trial": 31, "trialdata": {"rt": -1000, "trial_type": "single-audio", "word": "binder", "stimulus": "/static/audio/wordpool/BINDER.wav", "conditions": [18, 1200, "a", 18000], "internal_node_id": "0.0-22.0", "trial": 0, "time_elapsed": 180800, "serialpos": 10, "key_press": -1, "wordID": 126, "type": "PRES_AUD", "trial_index": 31}, "uniqueid": "MTK3131:3K9FOBBF2IQKYW25ZXNL5R86K71NL7", "dateTime": 1520038257728}, {"current_trial": 32, "trialdata": {"rt": -1000, "trial_type": "single-audio", "word": "scallop", "stimulus": "/static/audio/wordpool/SCALLOP.wav", "conditions": [18, 1200, "a", 18000], "internal_node_id": "0.0-23.0", "trial": 0, "time_elapsed": 183021, "serialpos": 11, "key_press": -1, "wordID": 1241, "type": "PRES_AUD", "trial_index": 32}, "uniqueid": "MTK3131:3K9FOBBF2IQKYW25ZXNL5R86K71NL7", "dateTime": 1520038259949}, {"current_trial": 33, "trialdata": {"rt": -1000, "trial_type": "single-audio", "word": "forehead", "stimulus": "/static/audio/wordpool/FOREHEAD.wav", "conditions": [18, 1200, "a", 18000], "internal_node_id": "0.0-24.0", "trial": 0, "time_elapsed": 185389, "serialpos": 12, "key_press": -1, "wordID": 591, "type": "PRES_AUD", "trial_index": 33}, "uniqueid": "MTK3131:3K9FOBBF2IQKYW25ZXNL5R86K71NL7", "dateTime": 1520038262317}, {"current_trial": 34, "trialdata": {"rt": -1000, "trial_type": "single-audio", "word": "cottage", "stimulus": "/static/audio/wordpool/COTTAGE.wav", "conditions": [18, 1200, "a", 18000], "internal_node_id": "0.0-25.0", "trial": 0, "time_elapsed": 187687, "serialpos": 13, "key_press": -1, "wordID": 383, "type": "PRES_AUD", "trial_index": 34}, "uniqueid": "MTK3131:3K9FOBBF2IQKYW25ZXNL5R86K71NL7", "dateTime": 1520038264615}, {"current_trial": 35, "trialdata": {"rt": -1000, "trial_type": "single-audio", "word": "cod", "stimulus": "/static/audio/wordpool/COD.wav", "conditions": [18, 1200, "a", 18000], "internal_node_id": "0.0-26.0", "trial": 0, "time_elapsed": 189874, "serialpos": 14, "key_press": -1, "wordID": 339, "type": "PRES_AUD", "trial_index": 35}, "uniqueid": "MTK3131:3K9FOBBF2IQKYW25ZXNL5R86K71NL7", "dateTime": 1520038266802}, {"current_trial": 36, "trialdata": {"rt": -1000, "trial_type": "single-audio", "word": "cocoon", "stimulus": "/static/audio/wordpool/COCOON.wav", "conditions": [18, 1200, "a", 18000], "internal_node_id": "0.0-27.0", "trial": 0, "time_elapsed": 191909, "serialpos": 15, "key_press": -1, "wordID": 338, "type": "PRES_AUD", "trial_index": 36}, "uniqueid": "MTK3131:3K9FOBBF2IQKYW25ZXNL5R86K71NL7", "dateTime": 1520038268837}, {"current_trial": 37, "trialdata": {"rt": -1000, "trial_type": "single-audio", "word": "carrot", "stimulus": "/static/audio/wordpool/CARROT.wav", "conditions": [18, 1200, "a", 18000], "internal_node_id": "0.0-28.0", "trial": 0, "time_elapsed": 194283, "serialpos": 16, "key_press": -1, "wordID": 248, "type": "PRES_AUD", "trial_index": 37}, "uniqueid": "MTK3131:3K9FOBBF2IQKYW25ZXNL5R86K71NL7", "dateTime": 1520038271211}, {"current_trial": 38, "trialdata": {"rt": -1000, "trial_type": "single-audio", "word": "grill", "stimulus": "/static/audio/wordpool/GRILL.wav", "conditions": [18, 1200, "a", 18000], "internal_node_id": "0.0-29.0", "trial": 0, "time_elapsed": 196502, "serialpos": 17, "key_press": -1, "wordID": 660, "type": "PRES_AUD", "trial_index": 38}, "uniqueid": "MTK3131:3K9FOBBF2IQKYW25ZXNL5R86K71NL7", "dateTime": 1520038273430}, {"current_trial": 39, "trialdata": {"rt": -1, "trial_type": "single-stim", "stimulus": "", "internal_node_id": "0.0-30.0-0.0", "time_elapsed": 197726, "key_press": -1, "type": "PRE_RECALL_DELAY", "trial_index": 39}, "uniqueid": "MTK3131:3K9FOBBF2IQKYW25ZXNL5R86K71NL7", "dateTime": 1520038274654}, {"current_trial": 40, "trialdata": {"rt": -1000, "trial_type": "single-audio", "stimulus": "/static/audio/400Hz.wav", "internal_node_id": "0.0-31.0", "time_elapsed": 198228, "key_press": -1, "type": "PRE_RECALL_ALERT", "trial_index": 40}, "uniqueid": "MTK3131:3K9FOBBF2IQKYW25ZXNL5R86K71NL7", "dateTime": 1520038275157}, {"current_trial": 41, "trialdata": {"rt": [5925, 8652, 11050, 12441, 14978, 20014, 25126, 44318, 58138], "recwords": ["trout", "ulcer", "cacoon", "grill", "zebra", "ostritch", "swim", "", "fish"], "key_times": [4885, 5085, 5198, 5301, 5437, 5925, 7636, 7821, 8045, 8278, 8341, 8652, 9461, 9598, 9725, 10109, 10253, 10446, 11050, 11617, 11793, 11889, 12066, 12193, 12441, 14045, 14266, 14529, 14674, 14856, 14978, 18130, 18241, 18314, 18497, 18657, 19398, 19609, 19714, 20014, 24085, 24494, 24629, 24822, 25126, 44318, 55994, 56193, 56625, 56728, 58138], "trial_type": "free-recall", "conditions": [18, 1200, "a", 18000], "internal_node_id": "0.0-32.0-0.0", "key_presses": [84, 82, 79, 85, 84, 13, 85, 76, 67, 69, 82, 13, 67, 65, 67, 79, 79, 78, 13, 71, 82, 73, 76, 76, 13, 90, 69, 66, 82, 65, 13, 79, 83, 84, 82, 73, 84, 67, 72, 13, 83, 87, 73, 77, 13, 13, 70, 73, 83, 72, 13], "trial": 0, "time_elapsed": 258234, "type": "FREE_RECALL", "trial_index": 41}, "uniqueid": "MTK3131:3K9FOBBF2IQKYW25ZXNL5R86K71NL7", "dateTime": 1520038335162}, {"current_trial": 42, "trialdata": {"rt": 5484, "trial_type": "text", "internal_node_id": "0.0-33.0", "time_elapsed": 265721, "key_press": 13, "type": "INSTRUCTIONS", "trial_index": 42}, "uniqueid": "MTK3131:3K9FOBBF2IQKYW25ZXNL5R86K71NL7", "dateTime": 1520038342649}, {"current_trial": 43, "trialdata": {"rt": [2677, 4309, 6621, 9913, 11645, 13964], "trial_type": "math-distractor", "key_times": [1797, 1909, 2677, 4045, 4309, 6285, 6397, 6621, 8541, 8806, 9913, 11206, 11413, 11645, 13589, 13774, 13964], "responses": ["13", "9", "18", "17", "14", "20"], "num2": [6, 1, 6, 6, 2, 2, 8], "num3": [6, 4, 4, 7, 6, 9, 5], "conditions": [18, 1200, "a", 18000], "internal_node_id": "0.0-34.0", "key_presses": [97, 99, 13, 105, 13, 97, 104, 13, 97, 103, 13, 97, 100, 13, 98, 96, 13], "trial": 1, "time_elapsed": 285724, "type": "DISTRACTOR", "trial_index": 43, "num1": [1, 4, 8, 4, 6, 9, 6]}, "uniqueid": "MTK3131:3K9FOBBF2IQKYW25ZXNL5R86K71NL7", "dateTime": 1520038362652}, {"current_trial": 44, "trialdata": {"rt": -1, "trial_type": "single-stim", "stimulus": "<p id=\"stim\">10</p>", "internal_node_id": "0.0-35.0-0.0", "time_elapsed": 288726, "key_press": -1, "trial_index": 44}, "uniqueid": "MTK3131:3K9FOBBF2IQKYW25ZXNL5R86K71NL7", "dateTime": 1520038365654}, {"current_trial": 45, "trialdata": {"rt": -1, "trial_type": "single-stim", "stimulus": "<p id=\"stim\">9</p>", "internal_node_id": "0.0-35.0-1.0", "time_elapsed": 289727, "key_press": -1, "trial_index": 45}, "uniqueid": "MTK3131:3K9FOBBF2IQKYW25ZXNL5R86K71NL7", "dateTime": 1520038366655}, {"current_trial": 46, "trialdata": {"rt": -1, "trial_type": "single-stim", "stimulus": "<p id=\"stim\">8</p>", "internal_node_id": "0.0-35.0-2.0", "time_elapsed": 290729, "key_press": -1, "trial_index": 46}, "uniqueid": "MTK3131:3K9FOBBF2IQKYW25ZXNL5R86K71NL7", "dateTime": 1520038367657}, {"current_trial": 47, "trialdata": {"rt": -1, "trial_type": "single-stim", "stimulus": "<p id=\"stim\">7</p>", "internal_node_id": "0.0-35.0-3.0", "time_elapsed": 291731, "key_press": -1, "trial_index": 47}, "uniqueid": "MTK3131:3K9FOBBF2IQKYW25ZXNL5R86K71NL7", "dateTime": 1520038368659}, {"current_trial": 48, "trialdata": {"rt": -1, "trial_type": "single-stim", "stimulus": "<p id=\"stim\">6</p>", "internal_node_id": "0.0-35.0-4.0", "time_elapsed": 292732, "key_press": -1, "trial_index": 48}, "uniqueid": "MTK3131:3K9FOBBF2IQKYW25ZXNL5R86K71NL7", "dateTime": 1520038369660}, {"current_trial": 49, "trialdata": {"rt": -1, "trial_type": "single-stim", "stimulus": "<p id=\"stim\">5</p>", "internal_node_id": "0.0-35.0-5.0", "time_elapsed": 293733, "key_press": -1, "trial_index": 49}, "uniqueid": "MTK3131:3K9FOBBF2IQKYW25ZXNL5R86K71NL7", "dateTime": 1520038370661}, {"current_trial": 50, "trialdata": {"rt": -1, "trial_type": "single-stim", "stimulus": "<p id=\"stim\">4</p>", "internal_node_id": "0.0-35.0-6.0", "time_elapsed": 294735, "key_press": -1, "trial_index": 50}, "uniqueid": "MTK3131:3K9FOBBF2IQKYW25ZXNL5R86K71NL7", "dateTime": 1520038371663}, {"current_trial": 51, "trialdata": {"rt": -1, "trial_type": "single-stim", "stimulus": "<p id=\"stim\">3</p>", "internal_node_id": "0.0-35.0-7.0", "time_elapsed": 295736, "key_press": -1, "trial_index": 51}, "uniqueid": "MTK3131:3K9FOBBF2IQKYW25ZXNL5R86K71NL7", "dateTime": 1520038372664}, {"current_trial": 52, "trialdata": {"rt": -1, "trial_type": "single-stim", "stimulus": "<p id=\"stim\">2</p>", "internal_node_id": "0.0-35.0-8.0", "time_elapsed": 296738, "key_press": -1, "trial_index": 52}, "uniqueid": "MTK3131:3K9FOBBF2IQKYW25ZXNL5R86K71NL7", "dateTime": 1520038373667}, {"current_trial": 53, "trialdata": {"rt": -1, "trial_type": "single-stim", "stimulus": "<p id=\"stim\">1</p>", "internal_node_id": "0.0-35.0-9.0", "time_elapsed": 297739, "key_press": -1, "trial_index": 53}, "uniqueid": "MTK3131:3K9FOBBF2IQKYW25ZXNL5R86K71NL7", "dateTime": 1520038374667}, {"current_trial": 54, "trialdata": {"rt": -1, "trial_type": "single-stim", "stimulus": "<p id=\"stim\">+</p>", "internal_node_id": "0.0-36.0-0.0", "time_elapsed": 299244, "key_press": -1, "type": "FIXATION", "trial_index": 54}, "uniqueid": "MTK3131:3K9FOBBF2IQKYW25ZXNL5R86K71NL7", "dateTime": 1520038376173}, {"current_trial": 55, "trialdata": {"rt": -1000, "trial_type": "single-audio", "word": "pastry", "stimulus": "/static/audio/wordpool/PASTRY.wav", "conditions": [18, 1200, "a", 18000], "internal_node_id": "0.0-37.0", "trial": 1, "time_elapsed": 301576, "serialpos": 0, "key_press": -1, "wordID": 1021, "type": "PRES_AUD", "trial_index": 55}, "uniqueid": "MTK3131:3K9FOBBF2IQKYW25ZXNL5R86K71NL7", "dateTime": 1520038378504}, {"current_trial": 56, "trialdata": {"rt": -1000, "trial_type": "single-audio", "word": "gavel", "stimulus": "/static/audio/wordpool/GAVEL.wav", "conditions": [18, 1200, "a", 18000], "internal_node_id": "0.0-38.0", "trial": 1, "time_elapsed": 303623, "serialpos": 1, "key_press": -1, "wordID": 626, "type": "PRES_AUD", "trial_index": 56}, "uniqueid": "MTK3131:3K9FOBBF2IQKYW25ZXNL5R86K71NL7", "dateTime": 1520038380551}, {"current_trial": 57, "trialdata": {"rt": -1000, "trial_type": "single-audio", "word": "fireplace", "stimulus": "/static/audio/wordpool/FIREPLACE.wav", "conditions": [18, 1200, "a", 18000], "internal_node_id": "0.0-39.0", "trial": 1, "time_elapsed": 305966, "serialpos": 2, "key_press": -1, "wordID": 569, "type": "PRES_AUD", "trial_index": 57}, "uniqueid": "MTK3131:3K9FOBBF2IQKYW25ZXNL5R86K71NL7", "dateTime": 1520038382894}, {"current_trial": 58, "trialdata": {"rt": -1000, "trial_type": "single-audio", "word": "finger", "stimulus": "/static/audio/wordpool/FINGER.wav", "conditions": [18, 1200, "a", 18000], "internal_node_id": "0.0-40.0", "trial": 1, "time_elapsed": 308307, "serialpos": 3, "key_press": -1, "wordID": 566, "type": "PRES_AUD", "trial_index": 58}, "uniqueid": "MTK3131:3K9FOBBF2IQKYW25ZXNL5R86K71NL7", "dateTime": 1520038385235}, {"current_trial": 59, "trialdata": {"rt": -1000, "trial_type": "single-audio", "word": "donor", "stimulus": "/static/audio/wordpool/DONOR.wav", "conditions": [18, 1200, "a", 18000], "internal_node_id": "0.0-41.0", "trial": 1, "time_elapsed": 310671, "serialpos": 4, "key_press": -1, "wordID": 484, "type": "PRES_AUD", "trial_index": 59}, "uniqueid": "MTK3131:3K9FOBBF2IQKYW25ZXNL5R86K71NL7", "dateTime": 1520038387599}, {"current_trial": 60, "trialdata": {"rt": -1000, "trial_type": "single-audio", "word": "passage", "stimulus": "/static/audio/wordpool/PASSAGE.wav", "conditions": [18, 1200, "a", 18000], "internal_node_id": "0.0-42.0", "trial": 1, "time_elapsed": 312852, "serialpos": 5, "key_press": -1, "wordID": 1018, "type": "PRES_AUD", "trial_index": 60}, "uniqueid": "MTK3131:3K9FOBBF2IQKYW25ZXNL5R86K71NL7", "dateTime": 1520038389780}, {"current_trial": 61, "trialdata": {"rt": -1000, "trial_type": "single-audio", "word": "hound", "stimulus": "/static/audio/wordpool/HOUND.wav", "conditions": [18, 1200, "a", 18000], "internal_node_id": "0.0-43.0", "trial": 1, "time_elapsed": 315008, "serialpos": 6, "key_press": -1, "wordID": 723, "type": "PRES_AUD", "trial_index": 61}, "uniqueid": "MTK3131:3K9FOBBF2IQKYW25ZXNL5R86K71NL7", "dateTime": 1520038391936}, {"current_trial": 62, "trialdata": {"rt": -1000, "trial_type": "single-audio", "word": "pocket", "stimulus": "/static/audio/wordpool/POCKET.wav", "conditions": [18, 1200, "a", 18000], "internal_node_id": "0.0-44.0", "trial": 1, "time_elapsed": 317082, "serialpos": 7, "key_press": -1, "wordID": 1092, "type": "PRES_AUD", "trial_index": 62}, "uniqueid": "MTK3131:3K9FOBBF2IQKYW25ZXNL5R86K71NL7", "dateTime": 1520038394010}, {"current_trial": 63, "trialdata": {"rt": -1000, "trial_type": "single-audio", "word": "denim", "stimulus": "/static/audio/wordpool/DENIM.wav", "conditions": [18, 1200, "a", 18000], "internal_node_id": "0.0-45.0", "trial": 1, "time_elapsed": 319434, "serialpos": 8, "key_press": -1, "wordID": 445, "type": "PRES_AUD", "trial_index": 63}, "uniqueid": "MTK3131:3K9FOBBF2IQKYW25ZXNL5R86K71NL7", "dateTime": 1520038396362}, {"current_trial": 64, "trialdata": {"rt": -1000, "trial_type": "single-audio", "word": "crib", "stimulus": "/static/audio/wordpool/CRIB.wav", "conditions": [18, 1200, "a", 18000], "internal_node_id": "0.0-46.0", "trial": 1, "time_elapsed": 321637, "serialpos": 9, "key_press": -1, "wordID": 406, "type": "PRES_AUD", "trial_index": 64}, "uniqueid": "MTK3131:3K9FOBBF2IQKYW25ZXNL5R86K71NL7", "dateTime": 1520038398565}, {"current_trial": 65, "trialdata": {"rt": -1000, "trial_type": "single-audio", "word": "waiter", "stimulus": "/static/audio/wordpool/WAITER.wav", "conditions": [18, 1200, "a", 18000], "internal_node_id": "0.0-47.0", "trial": 1, "time_elapsed": 323727, "serialpos": 10, "key_press": -1, "wordID": 1579, "type": "PRES_AUD", "trial_index": 65}, "uniqueid": "MTK3131:3K9FOBBF2IQKYW25ZXNL5R86K71NL7", "dateTime": 1520038400655}, {"current_trial": 66, "trialdata": {"rt": -1000, "trial_type": "single-audio", "word": "gangster", "stimulus": "/static/audio/wordpool/GANGSTER.wav", "conditions": [18, 1200, "a", 18000], "internal_node_id": "0.0-48.0", "trial": 1, "time_elapsed": 325967, "serialpos": 11, "key_press": -1, "wordID": 619, "type": "PRES_AUD", "trial_index": 66}, "uniqueid": "MTK3131:3K9FOBBF2IQKYW25ZXNL5R86K71NL7", "dateTime": 1520038402895}, {"current_trial": 67, "trialdata": {"rt": -1000, "trial_type": "single-audio", "word": "termite", "stimulus": "/static/audio/wordpool/TERMITE.wav", "conditions": [18, 1200, "a", 18000], "internal_node_id": "0.0-49.0", "trial": 1, "time_elapsed": 328166, "serialpos": 12, "key_press": -1, "wordID": 1450, "type": "PRES_AUD", "trial_index": 67}, "uniqueid": "MTK3131:3K9FOBBF2IQKYW25ZXNL5R86K71NL7", "dateTime": 1520038405094}, {"current_trial": 68, "trialdata": {"rt": -1000, "trial_type": "single-audio", "word": "juggler", "stimulus": "/static/audio/wordpool/JUGGLER.wav", "conditions": [18, 1200, "a", 18000], "internal_node_id": "0.0-50.0", "trial": 1, "time_elapsed": 330488, "serialpos": 13, "key_press": -1, "wordID": 762, "type": "PRES_AUD", "trial_index": 68}, "uniqueid": "MTK3131:3K9FOBBF2IQKYW25ZXNL5R86K71NL7", "dateTime": 1520038407417}, {"current_trial": 69, "trialdata": {"rt": -1000, "trial_type": "single-audio", "word": "film", "stimulus": "/static/audio/wordpool/FILM.wav", "conditions": [18, 1200, "a", 18000], "internal_node_id": "0.0-51.0", "trial": 1, "time_elapsed": 332799, "serialpos": 14, "key_press": -1, "wordID": 564, "type": "PRES_AUD", "trial_index": 69}, "uniqueid": "MTK3131:3K9FOBBF2IQKYW25ZXNL5R86K71NL7", "dateTime": 1520038409727}, {"current_trial": 70, "trialdata": {"rt": -1000, "trial_type": "single-audio", "word": "salmon", "stimulus": "/static/audio/wordpool/SALMON.wav", "conditions": [18, 1200, "a", 18000], "internal_node_id": "0.0-52.0", "trial": 1, "time_elapsed": 334813, "serialpos": 15, "key_press": -1, "wordID": 1226, "type": "PRES_AUD", "trial_index": 70}, "uniqueid": "MTK3131:3K9FOBBF2IQKYW25ZXNL5R86K71NL7", "dateTime": 1520038411741}, {"current_trial": 71, "trialdata": {"rt": -1000, "trial_type": "single-audio", "word": "shorts", "stimulus": "/static/audio/wordpool/SHORTS.wav", "conditions": [18, 1200, "a", 18000], "internal_node_id": "0.0-53.0", "trial": 1, "time_elapsed": 336837, "serialpos": 16, "key_press": -1, "wordID": 1292, "type": "PRES_AUD", "trial_index": 71}, "uniqueid": "MTK3131:3K9FOBBF2IQKYW25ZXNL5R86K71NL7", "dateTime": 1520038413765}, {"current_trial": 72, "trialdata": {"rt": -1000, "trial_type": "single-audio", "word": "shark", "stimulus": "/static/audio/wordpool/SHARK.wav", "conditions": [18, 1200, "a", 18000], "internal_node_id": "0.0-54.0", "trial": 1, "time_elapsed": 339063, "serialpos": 17, "key_press": -1, "wordID": 1274, "type": "PRES_AUD", "trial_index": 72}, "uniqueid": "MTK3131:3K9FOBBF2IQKYW25ZXNL5R86K71NL7", "dateTime": 1520038415992}, {"current_trial": 73, "trialdata": {"rt": -1, "trial_type": "single-stim", "stimulus": "", "internal_node_id": "0.0-55.0-0.0", "time_elapsed": 340372, "key_press": -1, "type": "PRE_RECALL_DELAY", "trial_index": 73}, "uniqueid": "MTK3131:3K9FOBBF2IQKYW25ZXNL5R86K71NL7", "dateTime": 1520038417300}, {"current_trial": 74, "trialdata": {"rt": -1000, "trial_type": "single-audio", "stimulus": "/static/audio/400Hz.wav", "internal_node_id": "0.0-56.0", "time_elapsed": 340873, "key_press": -1, "type": "PRE_RECALL_ALERT", "trial_index": 74}, "uniqueid": "MTK3131:3K9FOBBF2IQKYW25ZXNL5R86K71NL7", "dateTime": 1520038417801}, {"current_trial": 75, "trialdata": {"rt": [5158, 6471, 8294, 11783, 14259, 16987, 22571, 25834, 26971, 30756, 33665, 35714, 37147, 39394, 41497, 43778, 56878], "recwords": ["pastry", "gavel", "fireplce", "finger", "donor", "hound", "pocket", "denim", "crib", "water", "gangster", "termite", "film", "salmon", "shorts", "shark", "juggler"], "key_times": [3543, 3646, 3975, 4166, 4334, 4470, 5158, 5575, 5742, 5870, 6014, 6142, 6471, 6990, 7158, 7255, 7334, 7615, 7839, 8027, 8142, 8294, 10062, 10134, 10322, 10423, 10574, 10643, 11783, 12426, 12491, 12646, 12719, 12862, 14259, 15858, 15986, 16082, 16298, 16426, 16987, 20026, 20227, 20498, 20690, 21514, 21594, 22571, 25003, 25178, 25323, 25443, 25626, 25834, 26140, 26330, 26402, 26593, 26971, 28307, 28514, 28713, 28850, 29890, 30026, 30266, 30482, 30578, 30756, 31355, 31482, 31586, 32099, 32298, 32394, 32610, 32698, 33665, 34810, 34994, 35058, 35218, 35354, 35458, 35546, 35714, 36550, 36627, 36786, 36971, 37147, 37626, 37746, 37875, 38066, 38171, 38345, 39394, 40562, 40658, 40794, 40914, 41090, 41322, 41497, 41918, 42130, 42514, 43131, 43242, 43307, 43526, 43778, 55862, 56039, 56150, 56303, 56430, 56606, 56686, 56878], "trial_type": "free-recall", "conditions": [18, 1200, "a", 18000], "internal_node_id": "0.0-57.0-0.0", "key_presses": [80, 65, 83, 84, 82, 89, 13, 71, 65, 86, 69, 76, 13, 70, 73, 82, 69, 80, 76, 67, 69, 13, 70, 73, 78, 71, 69, 82, 13, 68, 79, 78, 79, 82, 13, 72, 79, 85, 78, 68, 13, 80, 79, 67, 75, 69, 84, 13, 68, 69, 78, 73, 77, 13, 67, 82, 73, 66, 13, 87, 65, 78, 84, 8, 8, 84, 69, 82, 13, 71, 65, 78, 71, 83, 84, 69, 82, 13, 84, 69, 82, 77, 73, 84, 69, 13, 70, 73, 76, 77, 13, 83, 65, 76, 77, 79, 78, 13, 83, 72, 79, 82, 84, 83, 13, 83, 65, 8, 72, 65, 82, 75, 13, 74, 85, 71, 71, 76, 69, 82, 13], "trial": 1, "time_elapsed": 400875, "type": "FREE_RECALL", "trial_index": 75}, "uniqueid": "MTK3131:3K9FOBBF2IQKYW25ZXNL5R86K71NL7", "dateTime": 1520038477803}, {"current_trial": 76, "trialdata": {"rt": 17592, "trial_type": "text", "internal_node_id": "0.0-58.0", "time_elapsed": 420469, "key_press": 13, "type": "INSTRUCTIONS", "trial_index": 76}, "uniqueid": "MTK3131:3K9FOBBF2IQKYW25ZXNL5R86K71NL7", "dateTime": 1520038497397}, {"current_trial": 77, "trialdata": {"rt": [3927, 5911, 10535], "trial_type": "math-distractor", "key_times": [3575, 3760, 3927, 5559, 5671, 5911, 10151, 10279, 10535], "responses": ["10", "16", "18"], "num2": [6, 5, 9, 8], "num3": [3, 6, 5, 1], "conditions": [24, 800, "a", 12000], "internal_node_id": "0.0-59.0", "key_presses": [97, 96, 13, 97, 102, 13, 97, 104, 13], "trial": 2, "time_elapsed": 433470, "type": "DISTRACTOR", "trial_index": 77, "num1": [1, 5, 4, 5]}, "uniqueid": "MTK3131:3K9FOBBF2IQKYW25ZXNL5R86K71NL7", "dateTime": 1520038510398}, {"current_trial": 78, "trialdata": {"rt": -1, "trial_type": "single-stim", "stimulus": "<p id=\"stim\">10</p>", "internal_node_id": "0.0-60.0-0.0", "time_elapsed": 436473, "key_press": -1, "trial_index": 78}, "uniqueid": "MTK3131:3K9FOBBF2IQKYW25ZXNL5R86K71NL7", "dateTime": 1520038513401}, {"current_trial": 79, "trialdata": {"rt": -1, "trial_type": "single-stim", "stimulus": "<p id=\"stim\">9</p>", "internal_node_id": "0.0-60.0-1.0", "time_elapsed": 437474, "key_press": -1, "trial_index": 79}, "uniqueid": "MTK3131:3K9FOBBF2IQKYW25ZXNL5R86K71NL7", "dateTime": 1520038514402}, {"current_trial": 80, "trialdata": {"rt": -1, "trial_type": "single-stim", "stimulus": "<p id=\"stim\">8</p>", "internal_node_id": "0.0-60.0-2.0", "time_elapsed": 438475, "key_press": -1, "trial_index": 80}, "uniqueid": "MTK3131:3K9FOBBF2IQKYW25ZXNL5R86K71NL7", "dateTime": 1520038515403}, {"current_trial": 81, "trialdata": {"rt": -1, "trial_type": "single-stim", "stimulus": "<p id=\"stim\">7</p>", "internal_node_id": "0.0-60.0-3.0", "time_elapsed": 439479, "key_press": -1, "trial_index": 81}, "uniqueid": "MTK3131:3K9FOBBF2IQKYW25ZXNL5R86K71NL7", "dateTime": 1520038516407}, {"current_trial": 82, "trialdata": {"rt": -1, "trial_type": "single-stim", "stimulus": "<p id=\"stim\">6</p>", "internal_node_id": "0.0-60.0-4.0", "time_elapsed": 440481, "key_press": -1, "trial_index": 82}, "uniqueid": "MTK3131:3K9FOBBF2IQKYW25ZXNL5R86K71NL7", "dateTime": 1520038517409}, {"current_trial": 83, "trialdata": {"rt": -1, "trial_type": "single-stim", "stimulus": "<p id=\"stim\">5</p>", "internal_node_id": "0.0-60.0-5.0", "time_elapsed": 441482, "key_press": -1, "trial_index": 83}, "uniqueid": "MTK3131:3K9FOBBF2IQKYW25ZXNL5R86K71NL7", "dateTime": 1520038518410}, {"current_trial": 84, "trialdata": {"rt": -1, "trial_type": "single-stim", "stimulus": "<p id=\"stim\">4</p>", "internal_node_id": "0.0-60.0-6.0", "time_elapsed": 442484, "key_press": -1, "trial_index": 84}, "uniqueid": "MTK3131:3K9FOBBF2IQKYW25ZXNL5R86K71NL7", "dateTime": 1520038519412}, {"current_trial": 85, "trialdata": {"rt": -1, "trial_type": "single-stim", "stimulus": "<p id=\"stim\">3</p>", "internal_node_id": "0.0-60.0-7.0", "time_elapsed": 443485, "key_press": -1, "trial_index": 85}, "uniqueid": "MTK3131:3K9FOBBF2IQKYW25ZXNL5R86K71NL7", "dateTime": 1520038520413}, {"current_trial": 86, "trialdata": {"rt": -1, "trial_type": "single-stim", "stimulus": "<p id=\"stim\">2</p>", "internal_node_id": "0.0-60.0-8.0", "time_elapsed": 444486, "key_press": -1, "trial_index": 86}, "uniqueid": "MTK3131:3K9FOBBF2IQKYW25ZXNL5R86K71NL7", "dateTime": 1520038521414}, {"current_trial": 87, "trialdata": {"rt": -1, "trial_type": "single-stim", "stimulus": "<p id=\"stim\">1</p>", "internal_node_id": "0.0-60.0-9.0", "time_elapsed": 445487, "key_press": -1, "trial_index": 87}, "uniqueid": "MTK3131:3K9FOBBF2IQKYW25ZXNL5R86K71NL7", "dateTime": 1520038522415}, {"current_trial": 88, "trialdata": {"rt": -1, "trial_type": "single-stim", "stimulus": "<p id=\"stim\">+</p>", "internal_node_id": "0.0-61.0-0.0", "time_elapsed": 446989, "key_press": -1, "type": "FIXATION", "trial_index": 88}, "uniqueid": "MTK3131:3K9FOBBF2IQKYW25ZXNL5R86K71NL7", "dateTime": 1520038523917}, {"current_trial": 89, "trialdata": {"rt": -1000, "trial_type": "single-audio", "word": "label", "stimulus": "/static/audio/wordpool/LABEL.wav", "conditions": [24, 800, "a", 12000], "internal_node_id": "0.0-62.0", "trial": 2, "time_elapsed": 448912, "serialpos": 0, "key_press": -1, "wordID": 789, "type": "PRES_AUD", "trial_index": 89}, "uniqueid": "MTK3131:3K9FOBBF2IQKYW25ZXNL5R86K71NL7", "dateTime": 1520038525841}, {"current_trial": 90, "trialdata": {"rt": -1000, "trial_type": "single-audio", "word": "jelly", "stimulus": "/static/audio/wordpool/JELLY.wav", "conditions": [24, 800, "a", 12000], "internal_node_id": "0.0-63.0", "trial": 2, "time_elapsed": 450768, "serialpos": 1, "key_press": -1, "wordID": 754, "type": "PRES_AUD", "trial_index": 90}, "uniqueid": "MTK3131:3K9FOBBF2IQKYW25ZXNL5R86K71NL7", "dateTime": 1520038527696}, {"current_trial": 91, "trialdata": {"rt": -1000, "trial_type": "single-audio", "word": "jello", "stimulus": "/static/audio/wordpool/JELLO.wav", "conditions": [24, 800, "a", 12000], "internal_node_id": "0.0-64.0", "trial": 2, "time_elapsed": 452446, "serialpos": 2, "key_press": -1, "wordID": 753, "type": "PRES_AUD", "trial_index": 91}, "uniqueid": "MTK3131:3K9FOBBF2IQKYW25ZXNL5R86K71NL7", "dateTime": 1520038529374}, {"current_trial": 92, "trialdata": {"rt": -1000, "trial_type": "single-audio", "word": "beast", "stimulus": "/static/audio/wordpool/BEAST.wav", "conditions": [24, 800, "a", 12000], "internal_node_id": "0.0-65.0", "trial": 2, "time_elapsed": 454275, "serialpos": 3, "key_press": -1, "wordID": 107, "type": "PRES_AUD", "trial_index": 92}, "uniqueid": "MTK3131:3K9FOBBF2IQKYW25ZXNL5R86K71NL7", "dateTime": 1520038531203}, {"current_trial": 93, "trialdata": {"rt": -1000, "trial_type": "single-audio", "word": "beef", "stimulus": "/static/audio/wordpool/BEEF.wav", "conditions": [24, 800, "a", 12000], "internal_node_id": "0.0-66.0", "trial": 2, "time_elapsed": 455978, "serialpos": 4, "key_press": -1, "wordID": 112, "type": "PRES_AUD", "trial_index": 93}, "uniqueid": "MTK3131:3K9FOBBF2IQKYW25ZXNL5R86K71NL7", "dateTime": 1520038532906}, {"current_trial": 94, "trialdata": {"rt": -1000, "trial_type": "single-audio", "word": "cobra", "stimulus": "/static/audio/wordpool/COBRA.wav", "conditions": [24, 800, "a", 12000], "internal_node_id": "0.0-67.0", "trial": 2, "time_elapsed": 457608, "serialpos": 5, "key_press": -1, "wordID": 335, "type": "PRES_AUD", "trial_index": 94}, "uniqueid": "MTK3131:3K9FOBBF2IQKYW25ZXNL5R86K71NL7", "dateTime": 1520038534536}, {"current_trial": 95, "trialdata": {"rt": -1000, "trial_type": "single-audio", "word": "captive", "stimulus": "/static/audio/wordpool/CAPTIVE.wav", "conditions": [24, 800, "a", 12000], "internal_node_id": "0.0-68.0", "trial": 2, "time_elapsed": 459285, "serialpos": 6, "key_press": -1, "wordID": 239, "type": "PRES_AUD", "trial_index": 95}, "uniqueid": "MTK3131:3K9FOBBF2IQKYW25ZXNL5R86K71NL7", "dateTime": 1520038536213}, {"current_trial": 96, "trialdata": {"rt": -1000, "trial_type": "single-audio", "word": "elbow", "stimulus": "/static/audio/wordpool/ELBOW.wav", "conditions": [24, 800, "a", 12000], "internal_node_id": "0.0-69.0", "trial": 2, "time_elapsed": 461200, "serialpos": 7, "key_press": -1, "wordID": 519, "type": "PRES_AUD", "trial_index": 96}, "uniqueid": "MTK3131:3K9FOBBF2IQKYW25ZXNL5R86K71NL7", "dateTime": 1520038538128}, {"current_trial": 97, "trialdata": {"rt": -1000, "trial_type": "single-audio", "word": "monster", "stimulus": "/static/audio/wordpool/MONSTER.wav", "conditions": [24, 800, "a", 12000], "internal_node_id": "0.0-70.0", "trial": 2, "time_elapsed": 463034, "serialpos": 8, "key_press": -1, "wordID": 911, "type": "PRES_AUD", "trial_index": 97}, "uniqueid": "MTK3131:3K9FOBBF2IQKYW25ZXNL5R86K71NL7", "dateTime": 1520038539963}, {"current_trial": 98, "trialdata": {"rt": -1000, "trial_type": "single-audio", "word": "comet", "stimulus": "/static/audio/wordpool/COMET.wav", "conditions": [24, 800, "a", 12000], "internal_node_id": "0.0-71.0", "trial": 2, "time_elapsed": 464797, "serialpos": 9, "key_press": -1, "wordID": 352, "type": "PRES_AUD", "trial_index": 98}, "uniqueid": "MTK3131:3K9FOBBF2IQKYW25ZXNL5R86K71NL7", "dateTime": 1520038541725}, {"current_trial": 99, "trialdata": {"rt": -1000, "trial_type": "single-audio", "word": "woman", "stimulus": "/static/audio/wordpool/WOMAN.wav", "conditions": [24, 800, "a", 12000], "internal_node_id": "0.0-72.0", "trial": 2, "time_elapsed": 466509, "serialpos": 10, "key_press": -1, "wordID": 1619, "type": "PRES_AUD", "trial_index": 99}, "uniqueid": "MTK3131:3K9FOBBF2IQKYW25ZXNL5R86K71NL7", "dateTime": 1520038543437}, {"current_trial": 100, "trialdata": {"rt": -1000, "trial_type": "single-audio", "word": "shirt", "stimulus": "/static/audio/wordpool/SHIRT.wav", "conditions": [24, 800, "a", 12000], "internal_node_id": "0.0-73.0", "trial": 2, "time_elapsed": 468408, "serialpos": 11, "key_press": -1, "wordID": 1286, "type": "PRES_AUD", "trial_index": 100}, "uniqueid": "MTK3131:3K9FOBBF2IQKYW25ZXNL5R86K71NL7", "dateTime": 1520038545336}, {"current_trial": 101, "trialdata": {"rt": -1000, "trial_type": "single-audio", "word": "sunrise", "stimulus": "/static/audio/wordpool/SUNRISE.wav", "conditions": [24, 800, "a", 12000], "internal_node_id": "0.0-74.0", "trial": 2, "time_elapsed": 470307, "serialpos": 12, "key_press": -1, "wordID": 1406, "type": "PRES_AUD", "trial_index": 101}, "uniqueid": "MTK3131:3K9FOBBF2IQKYW25ZXNL5R86K71NL7", "dateTime": 1520038547235}, {"current_trial": 102, "trialdata": {"rt": -1000, "trial_type": "single-audio", "word": "possum", "stimulus": "/static/audio/wordpool/POSSUM.wav", "conditions": [24, 800, "a", 12000], "internal_node_id": "0.0-75.0", "trial": 2, "time_elapsed": 472072, "serialpos": 13, "key_press": -1, "wordID": 1111, "type": "PRES_AUD", "trial_index": 102}, "uniqueid": "MTK3131:3K9FOBBF2IQKYW25ZXNL5R86K71NL7", "dateTime": 1520038549000}, {"current_trial": 103, "trialdata": {"rt": -1000, "trial_type": "single-audio", "word": "fox", "stimulus": "/static/audio/wordpool/FOX.wav", "conditions": [24, 800, "a", 12000], "internal_node_id": "0.0-76.0", "trial": 2, "time_elapsed": 474062, "serialpos": 14, "key_press": -1, "wordID": 597, "type": "PRES_AUD", "trial_index": 103}, "uniqueid": "MTK3131:3K9FOBBF2IQKYW25ZXNL5R86K71NL7", "dateTime": 1520038550990}, {"current_trial": 104, "trialdata": {"rt": -1000, "trial_type": "single-audio", "word": "convict", "stimulus": "/static/audio/wordpool/CONVICT.wav", "conditions": [24, 800, "a", 12000], "internal_node_id": "0.0-77.0", "trial": 2, "time_elapsed": 475994, "serialpos": 15, "key_press": -1, "wordID": 370, "type": "PRES_AUD", "trial_index": 104}, "uniqueid": "MTK3131:3K9FOBBF2IQKYW25ZXNL5R86K71NL7", "dateTime": 1520038552922}, {"current_trial": 105, "trialdata": {"rt": -1000, "trial_type": "single-audio", "word": "fragrance", "stimulus": "/static/audio/wordpool/FRAGRANCE.wav", "conditions": [24, 800, "a", 12000], "internal_node_id": "0.0-78.0", "trial": 2, "time_elapsed": 477712, "serialpos": 16, "key_press": -1, "wordID": 598, "type": "PRES_AUD", "trial_index": 105}, "uniqueid": "MTK3131:3K9FOBBF2IQKYW25ZXNL5R86K71NL7", "dateTime": 1520038554640}, {"current_trial": 106, "trialdata": {"rt": -1000, "trial_type": "single-audio", "word": "sunset", "stimulus": "/static/audio/wordpool/SUNSET.wav", "conditions": [24, 800, "a", 12000], "internal_node_id": "0.0-79.0", "trial": 2, "time_elapsed": 479702, "serialpos": 17, "key_press": -1, "wordID": 1407, "type": "PRES_AUD", "trial_index": 106}, "uniqueid": "MTK3131:3K9FOBBF2IQKYW25ZXNL5R86K71NL7", "dateTime": 1520038556630}, {"current_trial": 107, "trialdata": {"rt": -1000, "trial_type": "single-audio", "word": "bacon", "stimulus": "/static/audio/wordpool/BACON.wav", "conditions": [24, 800, "a", 12000], "internal_node_id": "0.0-80.0", "trial": 2, "time_elapsed": 481437, "serialpos": 18, "key_press": -1, "wordID": 66, "type": "PRES_AUD", "trial_index": 107}, "uniqueid": "MTK3131:3K9FOBBF2IQKYW25ZXNL5R86K71NL7", "dateTime": 1520038558365}, {"current_trial": 108, "trialdata": {"rt": -1000, "trial_type": "single-audio", "word": "scalpel", "stimulus": "/static/audio/wordpool/SCALPEL.wav", "conditions": [24, 800, "a", 12000], "internal_node_id": "0.0-81.0", "trial": 2, "time_elapsed": 483084, "serialpos": 19, "key_press": -1, "wordID": 1242, "type": "PRES_AUD", "trial_index": 108}, "uniqueid": "MTK3131:3K9FOBBF2IQKYW25ZXNL5R86K71NL7", "dateTime": 1520038560012}, {"current_trial": 109, "trialdata": {"rt": -1000, "trial_type": "single-audio", "word": "servant", "stimulus": "/static/audio/wordpool/SERVANT.wav", "conditions": [24, 800, "a", 12000], "internal_node_id": "0.0-82.0", "trial": 2, "time_elapsed": 485084, "serialpos": 20, "key_press": -1, "wordID": 1270, "type": "PRES_AUD", "trial_index": 109}, "uniqueid": "MTK3131:3K9FOBBF2IQKYW25ZXNL5R86K71NL7", "dateTime": 1520038562012}, {"current_trial": 110, "trialdata": {"rt": -1000, "trial_type": "single-audio", "word": "jungle", "stimulus": "/static/audio/wordpool/JUNGLE.wav", "conditions": [24, 800, "a", 12000], "internal_node_id": "0.0-83.0", "trial": 2, "time_elapsed": 487004, "serialpos": 21, "key_press": -1, "wordID": 763, "type": "PRES_AUD", "trial_index": 110}, "uniqueid": "MTK3131:3K9FOBBF2IQKYW25ZXNL5R86K71NL7", "dateTime": 1520038563933}, {"current_trial": 111, "trialdata": {"rt": -1000, "trial_type": "single-audio", "word": "guitar", "stimulus": "/static/audio/wordpool/GUITAR.wav", "conditions": [24, 800, "a", 12000], "internal_node_id": "0.0-84.0", "trial": 2, "time_elapsed": 488696, "serialpos": 22, "key_press": -1, "wordID": 669, "type": "PRES_AUD", "trial_index": 111}, "uniqueid": "MTK3131:3K9FOBBF2IQKYW25ZXNL5R86K71NL7", "dateTime": 1520038565624}, {"current_trial": 112, "trialdata": {"rt": -1000, "trial_type": "single-audio", "word": "cafe", "stimulus": "/static/audio/wordpool/CAFE.wav", "conditions": [24, 800, "a", 12000], "internal_node_id": "0.0-85.0", "trial": 2, "time_elapsed": 490441, "serialpos": 23, "key_press": -1, "wordID": 215, "type": "PRES_AUD", "trial_index": 112}, "uniqueid": "MTK3131:3K9FOBBF2IQKYW25ZXNL5R86K71NL7", "dateTime": 1520038567369}, {"current_trial": 113, "trialdata": {"rt": -1, "trial_type": "single-stim", "stimulus": "", "internal_node_id": "0.0-86.0-0.0", "time_elapsed": 491662, "key_press": -1, "type": "PRE_RECALL_DELAY", "trial_index": 113}, "uniqueid": "MTK3131:3K9FOBBF2IQKYW25ZXNL5R86K71NL7", "dateTime": 1520038568590}, {"current_trial": 114, "trialdata": {"rt": -1000, "trial_type": "single-audio", "stimulus": "/static/audio/400Hz.wav", "internal_node_id": "0.0-87.0", "time_elapsed": 492163, "key_press": -1, "type": "PRE_RECALL_ALERT", "trial_index": 114}, "uniqueid": "MTK3131:3K9FOBBF2IQKYW25ZXNL5R86K71NL7", "dateTime": 1520038569091}, {"current_trial": 115, "trialdata": {"rt": [6287, 8800, 12223, 15808, 17056, 20056, 23487, 25220, 30235, 31949, 34548, 37372, 40332, 43555, 45572, 48004, 49828, 52965, 55959], "recwords": ["label", "jelly", "jello", "beast", "beef", "captive", "elbow", "monster", "comet", "woman", "shirt", "sunrise", "sunset", "convict", "fragrance", "fox", "possum", "servant", "guitar"], "key_times": [5217, 5337, 5465, 5600, 5689, 6287, 6865, 6960, 7120, 7239, 7391, 8800, 9704, 9855, 9952, 10096, 10272, 10512, 11505, 12223, 12760, 12816, 13183, 13503, 13704, 15808, 16064, 16200, 16335, 16496, 17056, 18817, 19008, 19223, 19416, 19520, 19687, 19849, 20056, 21888, 21960, 22120, 22264, 22808, 23487, 23600, 23719, 23880, 24024, 24112, 24552, 24623, 25220, 28133, 28672, 28880, 29003, 29096, 30235, 31100, 31284, 31516, 31692, 31772, 31949, 32659, 32740, 32932, 33372, 33581, 34548, 34964, 35117, 35292, 35411, 35518, 35859, 36044, 37372, 38883, 38998, 39164, 39307, 39396, 39588, 40332, 42428, 42509, 42652, 42749, 42845, 42971, 43189, 43555, 44036, 44220, 44396, 44619, 44812, 44980, 45067, 45195, 45332, 45572, 47500, 47637, 47749, 48004, 48836, 49036, 49164, 49300, 49420, 49652, 49828, 51684, 51780, 51916, 52196, 52436, 52636, 52749, 52965, 53611, 53692, 53755, 53949, 54235, 54371, 55959], "trial_type": "free-recall", "conditions": [24, 800, "a", 12000], "internal_node_id": "0.0-88.0-0.0", "key_presses": [76, 65, 66, 69, 76, 13, 74, 69, 76, 76, 89, 13, 74, 69, 76, 76, 79, 222, 8, 13, 66, 69, 65, 83, 84, 32, 66, 69, 69, 70, 32, 67, 65, 80, 84, 73, 86, 69, 32, 69, 76, 66, 79, 87, 32, 77, 79, 78, 83, 84, 69, 82, 32, 67, 79, 77, 69, 84, 32, 87, 79, 77, 65, 78, 32, 83, 72, 73, 82, 84, 32, 83, 85, 78, 82, 73, 83, 69, 32, 83, 85, 78, 83, 69, 84, 32, 67, 79, 78, 86, 73, 67, 84, 32, 70, 82, 65, 71, 82, 65, 78, 67, 69, 32, 70, 79, 88, 32, 80, 79, 83, 83, 85, 77, 32, 83, 69, 82, 86, 65, 78, 84, 32, 71, 85, 73, 84, 65, 82, 13], "trial": 2, "time_elapsed": 552165, "type": "FREE_RECALL", "trial_index": 115}, "uniqueid": "MTK3131:3K9FOBBF2IQKYW25ZXNL5R86K71NL7", "dateTime": 1520038629095}, {"current_trial": 116, "trialdata": {"rt": 2044, "trial_type": "text", "internal_node_id": "0.0-89.0", "time_elapsed": 556214, "key_press": 13, "type": "INSTRUCTIONS", "trial_index": 116}, "uniqueid": "MTK3131:3K9FOBBF2IQKYW25ZXNL5R86K71NL7", "dateTime": 1520038633142}, {"current_trial": 117, "trialdata": {"rt": [5151, 6949, 11285, 13006, 15645, 18221, 20742, 22566], "trial_type": "math-distractor", "key_times": [4789, 4878, 5151, 6525, 6710, 6949, 10967, 11101, 11285, 12783, 13006, 15374, 15645, 17990, 18221, 20430, 20517, 20742, 22242, 22446, 22566], "responses": ["16", "18", "12", "7", "8", "7", "15", "10"], "num2": [3, 8, 2, 1, 2, 3, 6, 4, 2], "num3": [5, 1, 5, 1, 4, 3, 3, 4, 2], "conditions": [24, 800, "a", 24000], "internal_node_id": "0.0-90.0", "key_presses": [97, 102, 13, 97, 104, 13, 97, 98, 13, 103, 13, 104, 13, 103, 13, 97, 101, 13, 97, 96, 13], "trial": 3, "time_elapsed": 582216, "type": "DISTRACTOR", "trial_index": 117, "num1": [8, 9, 4, 5, 2, 1, 6, 2, 2]}, "uniqueid": "MTK3131:3K9FOBBF2IQKYW25ZXNL5R86K71NL7", "dateTime": 1520038659144}, {"current_trial": 118, "trialdata": {"rt": -1, "trial_type": "single-stim", "stimulus": "<p id=\"stim\">10</p>", "internal_node_id": "0.0-91.0-0.0", "time_elapsed": 585217, "key_press": -1, "trial_index": 118}, "uniqueid": "MTK3131:3K9FOBBF2IQKYW25ZXNL5R86K71NL7", "dateTime": 1520038662145}, {"current_trial": 119, "trialdata": {"rt": -1, "trial_type": "single-stim", "stimulus": "<p id=\"stim\">9</p>", "internal_node_id": "0.0-91.0-1.0", "time_elapsed": 586219, "key_press": -1, "trial_index": 119}, "uniqueid": "MTK3131:3K9FOBBF2IQKYW25ZXNL5R86K71NL7", "dateTime": 1520038663147}, {"current_trial": 120, "trialdata": {"rt": -1, "trial_type": "single-stim", "stimulus": "<p id=\"stim\">8</p>", "internal_node_id": "0.0-91.0-2.0", "time_elapsed": 587219, "key_press": -1, "trial_index": 120}, "uniqueid": "MTK3131:3K9FOBBF2IQKYW25ZXNL5R86K71NL7", "dateTime": 1520038664147}, {"current_trial": 121, "trialdata": {"rt": -1, "trial_type": "single-stim", "stimulus": "<p id=\"stim\">7</p>", "internal_node_id": "0.0-91.0-3.0", "time_elapsed": 588221, "key_press": -1, "trial_index": 121}, "uniqueid": "MTK3131:3K9FOBBF2IQKYW25ZXNL5R86K71NL7", "dateTime": 1520038665149}, {"current_trial": 122, "trialdata": {"rt": -1, "trial_type": "single-stim", "stimulus": "<p id=\"stim\">6</p>", "internal_node_id": "0.0-91.0-4.0", "time_elapsed": 589221, "key_press": -1, "trial_index": 122}, "uniqueid": "MTK3131:3K9FOBBF2IQKYW25ZXNL5R86K71NL7", "dateTime": 1520038666149}, {"current_trial": 123, "trialdata": {"rt": -1, "trial_type": "single-stim", "stimulus": "<p id=\"stim\">5</p>", "internal_node_id": "0.0-91.0-5.0", "time_elapsed": 590222, "key_press": -1, "trial_index": 123}, "uniqueid": "MTK3131:3K9FOBBF2IQKYW25ZXNL5R86K71NL7", "dateTime": 1520038667150}, {"current_trial": 124, "trialdata": {"rt": -1, "trial_type": "single-stim", "stimulus": "<p id=\"stim\">4</p>", "internal_node_id": "0.0-91.0-6.0", "time_elapsed": 591223, "key_press": -1, "trial_index": 124}, "uniqueid": "MTK3131:3K9FOBBF2IQKYW25ZXNL5R86K71NL7", "dateTime": 1520038668152}, {"current_trial": 125, "trialdata": {"rt": -1, "trial_type": "single-stim", "stimulus": "<p id=\"stim\">3</p>", "internal_node_id": "0.0-91.0-7.0", "time_elapsed": 592225, "key_press": -1, "trial_index": 125}, "uniqueid": "MTK3131:3K9FOBBF2IQKYW25ZXNL5R86K71NL7", "dateTime": 1520038669154}, {"current_trial": 126, "trialdata": {"rt": -1, "trial_type": "single-stim", "stimulus": "<p id=\"stim\">2</p>", "internal_node_id": "0.0-91.0-8.0", "time_elapsed": 593228, "key_press": -1, "trial_index": 126}, "uniqueid": "MTK3131:3K9FOBBF2IQKYW25ZXNL5R86K71NL7", "dateTime": 1520038670157}, {"current_trial": 127, "trialdata": {"rt": -1, "trial_type": "single-stim", "stimulus": "<p id=\"stim\">1</p>", "internal_node_id": "0.0-91.0-9.0", "time_elapsed": 594231, "key_press": -1, "trial_index": 127}, "uniqueid": "MTK3131:3K9FOBBF2IQKYW25ZXNL5R86K71NL7", "dateTime": 1520038671159}, {"current_trial": 128, "trialdata": {"rt": -1, "trial_type": "single-stim", "stimulus": "<p id=\"stim\">+</p>", "internal_node_id": "0.0-92.0-0.0", "time_elapsed": 595732, "key_press": -1, "type": "FIXATION", "trial_index": 128}, "uniqueid": "MTK3131:3K9FOBBF2IQKYW25ZXNL5R86K71NL7", "dateTime": 1520038672660}, {"current_trial": 129, "trialdata": {"rt": -1000, "trial_type": "single-audio", "word": "citrus", "stimulus": "/static/audio/wordpool/CITRUS.wav", "conditions": [24, 800, "a", 24000], "internal_node_id": "0.0-93.0", "trial": 3, "time_elapsed": 597648, "serialpos": 0, "key_press": -1, "wordID": 312, "type": "PRES_AUD", "trial_index": 129}, "uniqueid": "MTK3131:3K9FOBBF2IQKYW25ZXNL5R86K71NL7", "dateTime": 1520038674576}, {"current_trial": 130, "trialdata": {"rt": -1000, "trial_type": "single-audio", "word": "brick", "stimulus": "/static/audio/wordpool/BRICK.wav", "conditions": [24, 800, "a", 24000], "internal_node_id": "0.0-94.0", "trial": 3, "time_elapsed": 599635, "serialpos": 1, "key_press": -1, "wordID": 171, "type": "PRES_AUD", "trial_index": 130}, "uniqueid": "MTK3131:3K9FOBBF2IQKYW25ZXNL5R86K71NL7", "dateTime": 1520038676564}, {"current_trial": 131, "trialdata": {"rt": -1000, "trial_type": "single-audio", "word": "server", "stimulus": "/static/audio/wordpool/SERVER.wav", "conditions": [24, 800, "a", 24000], "internal_node_id": "0.0-95.0", "trial": 3, "time_elapsed": 601281, "serialpos": 2, "key_press": -1, "wordID": 1271, "type": "PRES_AUD", "trial_index": 131}, "uniqueid": "MTK3131:3K9FOBBF2IQKYW25ZXNL5R86K71NL7", "dateTime": 1520038678209}, {"current_trial": 132, "trialdata": {"rt": -1000, "trial_type": "single-audio", "word": "ankle", "stimulus": "/static/audio/wordpool/ANKLE.wav", "conditions": [24, 800, "a", 24000], "internal_node_id": "0.0-96.0", "trial": 3, "time_elapsed": 603145, "serialpos": 3, "key_press": -1, "wordID": 23, "type": "PRES_AUD", "trial_index": 132}, "uniqueid": "MTK3131:3K9FOBBF2IQKYW25ZXNL5R86K71NL7", "dateTime": 1520038680073}, {"current_trial": 133, "trialdata": {"rt": -1000, "trial_type": "single-audio", "word": "dolphin", "stimulus": "/static/audio/wordpool/DOLPHIN.wav", "conditions": [24, 800, "a", 24000], "internal_node_id": "0.0-97.0", "trial": 3, "time_elapsed": 605032, "serialpos": 4, "key_press": -1, "wordID": 482, "type": "PRES_AUD", "trial_index": 133}, "uniqueid": "MTK3131:3K9FOBBF2IQKYW25ZXNL5R86K71NL7", "dateTime": 1520038681960}, {"current_trial": 134, "trialdata": {"rt": -1000, "trial_type": "single-audio", "word": "sheriff", "stimulus": "/static/audio/wordpool/SHERIFF.wav", "conditions": [24, 800, "a", 24000], "internal_node_id": "0.0-98.0", "trial": 3, "time_elapsed": 606825, "serialpos": 5, "key_press": -1, "wordID": 1283, "type": "PRES_AUD", "trial_index": 134}, "uniqueid": "MTK3131:3K9FOBBF2IQKYW25ZXNL5R86K71NL7", "dateTime": 1520038683753}, {"current_trial": 135, "trialdata": {"rt": -1000, "trial_type": "single-audio", "word": "county", "stimulus": "/static/audio/wordpool/COUNTY.wav", "conditions": [24, 800, "a", 24000], "internal_node_id": "0.0-99.0", "trial": 3, "time_elapsed": 608712, "serialpos": 6, "key_press": -1, "wordID": 388, "type": "PRES_AUD", "trial_index": 135}, "uniqueid": "MTK3131:3K9FOBBF2IQKYW25ZXNL5R86K71NL7", "dateTime": 1520038685640}, {"current_trial": 136, "trialdata": {"rt": -1000, "trial_type": "single-audio", "word": "liver", "stimulus": "/static/audio/wordpool/LIVER.wav", "conditions": [24, 800, "a", 24000], "internal_node_id": "0.0-100.0", "trial": 3, "time_elapsed": 610597, "serialpos": 7, "key_press": -1, "wordID": 832, "type": "PRES_AUD", "trial_index": 136}, "uniqueid": "MTK3131:3K9FOBBF2IQKYW25ZXNL5R86K71NL7", "dateTime": 1520038687525}, {"current_trial": 137, "trialdata": {"rt": -1000, "trial_type": "single-audio", "word": "pecan", "stimulus": "/static/audio/wordpool/PECAN.wav", "conditions": [24, 800, "a", 24000], "internal_node_id": "0.0-101.0", "trial": 3, "time_elapsed": 612297, "serialpos": 8, "key_press": -1, "wordID": 1035, "type": "PRES_AUD", "trial_index": 137}, "uniqueid": "MTK3131:3K9FOBBF2IQKYW25ZXNL5R86K71NL7", "dateTime": 1520038689225}, {"current_trial": 138, "trialdata": {"rt": -1000, "trial_type": "single-audio", "word": "penguin", "stimulus": "/static/audio/wordpool/PENGUIN.wav", "conditions": [24, 800, "a", 24000], "internal_node_id": "0.0-102.0", "trial": 3, "time_elapsed": 614097, "serialpos": 9, "key_press": -1, "wordID": 1043, "type": "PRES_AUD", "trial_index": 138}, "uniqueid": "MTK3131:3K9FOBBF2IQKYW25ZXNL5R86K71NL7", "dateTime": 1520038691025}, {"current_trial": 139, "trialdata": {"rt": -1000, "trial_type": "single-audio", "word": "igloo", "stimulus": "/static/audio/wordpool/IGLOO.wav", "conditions": [24, 800, "a", 24000], "internal_node_id": "0.0-103.0", "trial": 3, "time_elapsed": 615751, "serialpos": 10, "key_press": -1, "wordID": 733, "type": "PRES_AUD", "trial_index": 139}, "uniqueid": "MTK3131:3K9FOBBF2IQKYW25ZXNL5R86K71NL7", "dateTime": 1520038692679}, {"current_trial": 140, "trialdata": {"rt": -1000, "trial_type": "single-audio", "word": "uncle", "stimulus": "/static/audio/wordpool/UNCLE.wav", "conditions": [24, 800, "a", 24000], "internal_node_id": "0.0-104.0", "trial": 3, "time_elapsed": 617638, "serialpos": 11, "key_press": -1, "wordID": 1535, "type": "PRES_AUD", "trial_index": 140}, "uniqueid": "MTK3131:3K9FOBBF2IQKYW25ZXNL5R86K71NL7", "dateTime": 1520038694566}, {"current_trial": 141, "trialdata": {"rt": -1000, "trial_type": "single-audio", "word": "skillet", "stimulus": "/static/audio/wordpool/SKILLET.wav", "conditions": [24, 800, "a", 24000], "internal_node_id": "0.0-105.0", "trial": 3, "time_elapsed": 619448, "serialpos": 12, "key_press": -1, "wordID": 1316, "type": "PRES_AUD", "trial_index": 141}, "uniqueid": "MTK3131:3K9FOBBF2IQKYW25ZXNL5R86K71NL7", "dateTime": 1520038696376}, {"current_trial": 142, "trialdata": {"rt": -1000, "trial_type": "single-audio", "word": "flipper", "stimulus": "/static/audio/wordpool/FLIPPER.wav", "conditions": [24, 800, "a", 24000], "internal_node_id": "0.0-106.0", "trial": 3, "time_elapsed": 621267, "serialpos": 13, "key_press": -1, "wordID": 579, "type": "PRES_AUD", "trial_index": 142}, "uniqueid": "MTK3131:3K9FOBBF2IQKYW25ZXNL5R86K71NL7", "dateTime": 1520038698195}, {"current_trial": 143, "trialdata": {"rt": -1000, "trial_type": "single-audio", "word": "sidewalk", "stimulus": "/static/audio/wordpool/SIDEWALK.wav", "conditions": [24, 800, "a", 24000], "internal_node_id": "0.0-107.0", "trial": 3, "time_elapsed": 623251, "serialpos": 14, "key_press": -1, "wordID": 1302, "type": "PRES_AUD", "trial_index": 143}, "uniqueid": "MTK3131:3K9FOBBF2IQKYW25ZXNL5R86K71NL7", "dateTime": 1520038700180}, {"current_trial": 144, "trialdata": {"rt": -1000, "trial_type": "single-audio", "word": "twig", "stimulus": "/static/audio/wordpool/TWIG.wav", "conditions": [24, 800, "a", 24000], "internal_node_id": "0.0-108.0", "trial": 3, "time_elapsed": 624873, "serialpos": 15, "key_press": -1, "wordID": 1526, "type": "PRES_AUD", "trial_index": 144}, "uniqueid": "MTK3131:3K9FOBBF2IQKYW25ZXNL5R86K71NL7", "dateTime": 1520038701801}, {"current_trial": 145, "trialdata": {"rt": -1000, "trial_type": "single-audio", "word": "wardrobe", "stimulus": "/static/audio/wordpool/WARDROBE.wav", "conditions": [24, 800, "a", 24000], "internal_node_id": "0.0-109.0", "trial": 3, "time_elapsed": 626508, "serialpos": 16, "key_press": -1, "wordID": 1586, "type": "PRES_AUD", "trial_index": 145}, "uniqueid": "MTK3131:3K9FOBBF2IQKYW25ZXNL5R86K71NL7", "dateTime": 1520038703436}, {"current_trial": 146, "trialdata": {"rt": -1000, "trial_type": "single-audio", "word": "necklace", "stimulus": "/static/audio/wordpool/NECKLACE.wav", "conditions": [24, 800, "a", 24000], "internal_node_id": "0.0-110.0", "trial": 3, "time_elapsed": 628205, "serialpos": 17, "key_press": -1, "wordID": 939, "type": "PRES_AUD", "trial_index": 146}, "uniqueid": "MTK3131:3K9FOBBF2IQKYW25ZXNL5R86K71NL7", "dateTime": 1520038705133}, {"current_trial": 147, "trialdata": {"rt": -1000, "trial_type": "single-audio", "word": "kidney", "stimulus": "/static/audio/wordpool/KIDNEY.wav", "conditions": [24, 800, "a", 24000], "internal_node_id": "0.0-111.0", "trial": 3, "time_elapsed": 629939, "serialpos": 18, "key_press": -1, "wordID": 775, "type": "PRES_AUD", "trial_index": 147}, "uniqueid": "MTK3131:3K9FOBBF2IQKYW25ZXNL5R86K71NL7", "dateTime": 1520038706867}, {"current_trial": 148, "trialdata": {"rt": -1000, "trial_type": "single-audio", "word": "lunch", "stimulus": "/static/audio/wordpool/LUNCH.wav", "conditions": [24, 800, "a", 24000], "internal_node_id": "0.0-112.0", "trial": 3, "time_elapsed": 631705, "serialpos": 19, "key_press": -1, "wordID": 848, "type": "PRES_AUD", "trial_index": 148}, "uniqueid": "MTK3131:3K9FOBBF2IQKYW25ZXNL5R86K71NL7", "dateTime": 1520038708633}, {"current_trial": 149, "trialdata": {"rt": -1000, "trial_type": "single-audio", "word": "blouse", "stimulus": "/static/audio/wordpool/BLOUSE.wav", "conditions": [24, 800, "a", 24000], "internal_node_id": "0.0-113.0", "trial": 3, "time_elapsed": 633448, "serialpos": 20, "key_press": -1, "wordID": 138, "type": "PRES_AUD", "trial_index": 149}, "uniqueid": "MTK3131:3K9FOBBF2IQKYW25ZXNL5R86K71NL7", "dateTime": 1520038710376}, {"current_trial": 150, "trialdata": {"rt": -1000, "trial_type": "single-audio", "word": "tuba", "stimulus": "/static/audio/wordpool/TUBA.wav", "conditions": [24, 800, "a", 24000], "internal_node_id": "0.0-114.0", "trial": 3, "time_elapsed": 635128, "serialpos": 21, "key_press": -1, "wordID": 1514, "type": "PRES_AUD", "trial_index": 150}, "uniqueid": "MTK3131:3K9FOBBF2IQKYW25ZXNL5R86K71NL7", "dateTime": 1520038712056}, {"current_trial": 151, "trialdata": {"rt": -1000, "trial_type": "single-audio", "word": "flute", "stimulus": "/static/audio/wordpool/FLUTE.wav", "conditions": [24, 800, "a", 24000], "internal_node_id": "0.0-115.0", "trial": 3, "time_elapsed": 636923, "serialpos": 22, "key_press": -1, "wordID": 584, "type": "PRES_AUD", "trial_index": 151}, "uniqueid": "MTK3131:3K9FOBBF2IQKYW25ZXNL5R86K71NL7", "dateTime": 1520038713852}, {"current_trial": 152, "trialdata": {"rt": -1000, "trial_type": "single-audio", "word": "whiskers", "stimulus": "/static/audio/wordpool/WHISKERS.wav", "conditions": [24, 800, "a", 24000], "internal_node_id": "0.0-116.0", "trial": 3, "time_elapsed": 638546, "serialpos": 23, "key_press": -1, "wordID": 1604, "type": "PRES_AUD", "trial_index": 152}, "uniqueid": "MTK3131:3K9FOBBF2IQKYW25ZXNL5R86K71NL7", "dateTime": 1520038715474}, {"current_trial": 153, "trialdata": {"rt": -1, "trial_type": "single-stim", "stimulus": "", "internal_node_id": "0.0-117.0-0.0", "time_elapsed": 639938, "key_press": -1, "type": "PRE_RECALL_DELAY", "trial_index": 153}, "uniqueid": "MTK3131:3K9FOBBF2IQKYW25ZXNL5R86K71NL7", "dateTime": 1520038716866}, {"current_trial": 154, "trialdata": {"rt": -1000, "trial_type": "single-audio", "stimulus": "/static/audio/400Hz.wav", "internal_node_id": "0.0-118.0", "time_elapsed": 640440, "key_press": -1, "type": "PRE_RECALL_ALERT", "trial_index": 154}, "uniqueid": "MTK3131:3K9FOBBF2IQKYW25ZXNL5R86K71NL7", "dateTime": 1520038717368}, {"current_trial": 155, "trialdata": {"rt": [6019, 11955, 13362, 16715, 19472, 23975, 25815, 27567, 29775, 31647, 33823, 39275, 42247, 45398, 47240], "recwords": ["brick", "servers", "ankle", "dolphin", "flipper", "sheriff", "county", "pecan", "penquin", "igloo", "uncle", "sidewalk", "lunch", "tuba", "flute"], "key_times": [4563, 4667, 4795, 5115, 5219, 6019, 10043, 10195, 10299, 10643, 10931, 11019, 11291, 11955, 12355, 12427, 12595, 12779, 12915, 13362, 13800, 13915, 14088, 14567, 14740, 14859, 15075, 16715, 18143, 18295, 18382, 18567, 18719, 18840, 18904, 19472, 21439, 21535, 21678, 22015, 22167, 22272, 22920, 23062, 23528, 23663, 23815, 23975, 24327, 24415, 24488, 24905, 25023, 25159, 25815, 26640, 26783, 26990, 27119, 27247, 27567, 27912, 28031, 28191, 28743, 28887, 28968, 29199, 29775, 30118, 30472, 30631, 30943, 31088, 31647, 33079, 33311, 33456, 33511, 33671, 33823, 35575, 35656, 35775, 35951, 36935, 37151, 37239, 37472, 39275, 39751, 39927, 40223, 40399, 40503, 42247, 44640, 44735, 44975, 45272, 45398, 45599, 45775, 45927, 46135, 46288, 47240], "trial_type": "free-recall", "conditions": [24, 800, "a", 24000], "internal_node_id": "0.0-119.0-0.0", "key_presses": [66, 82, 73, 67, 75, 13, 83, 69, 82, 86, 69, 82, 83, 32, 65, 78, 75, 76, 69, 32, 68, 79, 76, 80, 72, 73, 78, 32, 70, 76, 73, 80, 80, 69, 82, 32, 83, 72, 69, 82, 82, 73, 8, 8, 73, 70, 70, 32, 67, 79, 85, 78, 84, 89, 32, 80, 69, 67, 65, 78, 32, 80, 69, 78, 81, 85, 73, 78, 32, 73, 71, 76, 79, 79, 32, 85, 78, 67, 76, 69, 32, 83, 73, 68, 69, 87, 65, 76, 75, 32, 76, 85, 78, 67, 72, 32, 84, 85, 66, 65, 32, 70, 76, 85, 84, 69, 32], "trial": 3, "time_elapsed": 700443, "type": "FREE_RECALL", "trial_index": 155}, "uniqueid": "MTK3131:3K9FOBBF2IQKYW25ZXNL5R86K71NL7", "dateTime": 1520038777374}, {"current_trial": 156, "trialdata": {"rt": 1397, "trial_type": "text", "internal_node_id": "0.0-120.0", "time_elapsed": 703847, "key_press": 13, "type": "INSTRUCTIONS", "trial_index": 156}, "uniqueid": "MTK3131:3K9FOBBF2IQKYW25ZXNL5R86K71NL7", "dateTime": 1520038780775}, {"current_trial": 157, "trialdata": {"rt": [4212, 6133, 9685, 12740, 15244, 21496, 23640], "trial_type": "math-distractor", "key_times": [1572, 1732, 4212, 5708, 5852, 6133, 9259, 9381, 9685, 12060, 12740, 14828, 14972, 15244, 21208, 21312, 21496, 23416, 23640], "responses": ["18", "18", "18", "9", "19", "21", "8"], "num2": [8, 9, 2, 2, 6, 9, 1, 8], "num3": [4, 2, 9, 1, 9, 6, 5, 8], "conditions": [12, 1600, "a", 24000], "internal_node_id": "0.0-121.0", "key_presses": [97, 104, 13, 97, 104, 13, 97, 104, 13, 105, 13, 97, 105, 13, 98, 97, 13, 104, 13], "trial": 4, "time_elapsed": 729850, "type": "DISTRACTOR", "trial_index": 157, "num1": [6, 7, 7, 6, 4, 6, 2, 1]}, "uniqueid": "MTK3131:3K9FOBBF2IQKYW25ZXNL5R86K71NL7", "dateTime": 1520038806778}, {"current_trial": 158, "trialdata": {"rt": -1, "trial_type": "single-stim", "stimulus": "<p id=\"stim\">10</p>", "internal_node_id": "0.0-122.0-0.0", "time_elapsed": 732852, "key_press": -1, "trial_index": 158}, "uniqueid": "MTK3131:3K9FOBBF2IQKYW25ZXNL5R86K71NL7", "dateTime": 1520038809780}, {"current_trial": 159, "trialdata": {"rt": -1, "trial_type": "single-stim", "stimulus": "<p id=\"stim\">9</p>", "internal_node_id": "0.0-122.0-1.0", "time_elapsed": 733852, "key_press": -1, "trial_index": 159}, "uniqueid": "MTK3131:3K9FOBBF2IQKYW25ZXNL5R86K71NL7", "dateTime": 1520038810780}, {"current_trial": 160, "trialdata": {"rt": -1, "trial_type": "single-stim", "stimulus": "<p id=\"stim\">8</p>", "internal_node_id": "0.0-122.0-2.0", "time_elapsed": 734854, "key_press": -1, "trial_index": 160}, "uniqueid": "MTK3131:3K9FOBBF2IQKYW25ZXNL5R86K71NL7", "dateTime": 1520038811782}, {"current_trial": 161, "trialdata": {"rt": -1, "trial_type": "single-stim", "stimulus": "<p id=\"stim\">7</p>", "internal_node_id": "0.0-122.0-3.0", "time_elapsed": 735855, "key_press": -1, "trial_index": 161}, "uniqueid": "MTK3131:3K9FOBBF2IQKYW25ZXNL5R86K71NL7", "dateTime": 1520038812783}, {"current_trial": 162, "trialdata": {"rt": -1, "trial_type": "single-stim", "stimulus": "<p id=\"stim\">6</p>", "internal_node_id": "0.0-122.0-4.0", "time_elapsed": 736856, "key_press": -1, "trial_index": 162}, "uniqueid": "MTK3131:3K9FOBBF2IQKYW25ZXNL5R86K71NL7", "dateTime": 1520038813785}, {"current_trial": 163, "trialdata": {"rt": -1, "trial_type": "single-stim", "stimulus": "<p id=\"stim\">5</p>", "internal_node_id": "0.0-122.0-5.0", "time_elapsed": 737858, "key_press": -1, "trial_index": 163}, "uniqueid": "MTK3131:3K9FOBBF2IQKYW25ZXNL5R86K71NL7", "dateTime": 1520038814786}, {"current_trial": 164, "trialdata": {"rt": -1, "trial_type": "single-stim", "stimulus": "<p id=\"stim\">4</p>", "internal_node_id": "0.0-122.0-6.0", "time_elapsed": 738859, "key_press": -1, "trial_index": 164}, "uniqueid": "MTK3131:3K9FOBBF2IQKYW25ZXNL5R86K71NL7", "dateTime": 1520038815787}, {"current_trial": 165, "trialdata": {"rt": -1, "trial_type": "single-stim", "stimulus": "<p id=\"stim\">3</p>", "internal_node_id": "0.0-122.0-7.0", "time_elapsed": 739863, "key_press": -1, "trial_index": 165}, "uniqueid": "MTK3131:3K9FOBBF2IQKYW25ZXNL5R86K71NL7", "dateTime": 1520038816791}, {"current_trial": 166, "trialdata": {"rt": -1, "trial_type": "single-stim", "stimulus": "<p id=\"stim\">2</p>", "internal_node_id": "0.0-122.0-8.0", "time_elapsed": 740865, "key_press": -1, "trial_index": 166}, "uniqueid": "MTK3131:3K9FOBBF2IQKYW25ZXNL5R86K71NL7", "dateTime": 1520038817793}, {"current_trial": 167, "trialdata": {"rt": -1, "trial_type": "single-stim", "stimulus": "<p id=\"stim\">1</p>", "internal_node_id": "0.0-122.0-9.0", "time_elapsed": 741866, "key_press": -1, "trial_index": 167}, "uniqueid": "MTK3131:3K9FOBBF2IQKYW25ZXNL5R86K71NL7", "dateTime": 1520038818794}, {"current_trial": 168, "trialdata": {"rt": -1, "trial_type": "single-stim", "stimulus": "<p id=\"stim\">+</p>", "internal_node_id": "0.0-123.0-0.0", "time_elapsed": 743367, "key_press": -1, "type": "FIXATION", "trial_index": 168}, "uniqueid": "MTK3131:3K9FOBBF2IQKYW25ZXNL5R86K71NL7", "dateTime": 1520038820295}, {"current_trial": 169, "trialdata": {"rt": -1000, "trial_type": "single-audio", "word": "parrot", "stimulus": "/static/audio/wordpool/PARROT.wav", "conditions": [12, 1600, "a", 24000], "internal_node_id": "0.0-124.0", "trial": 4, "time_elapsed": 745980, "serialpos": 0, "key_press": -1, "wordID": 1014, "type": "PRES_AUD", "trial_index": 169}, "uniqueid": "MTK3131:3K9FOBBF2IQKYW25ZXNL5R86K71NL7", "dateTime": 1520038822908}, {"current_trial": 170, "trialdata": {"rt": -1000, "trial_type": "single-audio", "word": "river", "stimulus": "/static/audio/wordpool/RIVER.wav", "conditions": [12, 1600, "a", 24000], "internal_node_id": "0.0-125.0", "trial": 4, "time_elapsed": 748731, "serialpos": 1, "key_press": -1, "wordID": 1193, "type": "PRES_AUD", "trial_index": 170}, "uniqueid": "MTK3131:3K9FOBBF2IQKYW25ZXNL5R86K71NL7", "dateTime": 1520038825659}, {"current_trial": 171, "trialdata": {"rt": -1000, "trial_type": "single-audio", "word": "brook", "stimulus": "/static/audio/wordpool/BROOK.wav", "conditions": [12, 1600, "a", 24000], "internal_node_id": "0.0-126.0", "trial": 4, "time_elapsed": 751333, "serialpos": 2, "key_press": -1, "wordID": 176, "type": "PRES_AUD", "trial_index": 171}, "uniqueid": "MTK3131:3K9FOBBF2IQKYW25ZXNL5R86K71NL7", "dateTime": 1520038828261}, {"current_trial": 172, "trialdata": {"rt": -1000, "trial_type": "single-audio", "word": "waitress", "stimulus": "/static/audio/wordpool/WAITRESS.wav", "conditions": [12, 1600, "a", 24000], "internal_node_id": "0.0-127.0", "trial": 4, "time_elapsed": 754121, "serialpos": 3, "key_press": -1, "wordID": 1580, "type": "PRES_AUD", "trial_index": 172}, "uniqueid": "MTK3131:3K9FOBBF2IQKYW25ZXNL5R86K71NL7", "dateTime": 1520038831049}, {"current_trial": 173, "trialdata": {"rt": -1000, "trial_type": "single-audio", "word": "spouse", "stimulus": "/static/audio/wordpool/SPOUSE.wav", "conditions": [12, 1600, "a", 24000], "internal_node_id": "0.0-128.0", "trial": 4, "time_elapsed": 756710, "serialpos": 4, "key_press": -1, "wordID": 1357, "type": "PRES_AUD", "trial_index": 173}, "uniqueid": "MTK3131:3K9FOBBF2IQKYW25ZXNL5R86K71NL7", "dateTime": 1520038833638}, {"current_trial": 174, "trialdata": {"rt": -1000, "trial_type": "single-audio", "word": "orchid", "stimulus": "/static/audio/wordpool/ORCHID.wav", "conditions": [12, 1600, "a", 24000], "internal_node_id": "0.0-129.0", "trial": 4, "time_elapsed": 759368, "serialpos": 5, "key_press": -1, "wordID": 981, "type": "PRES_AUD", "trial_index": 174}, "uniqueid": "MTK3131:3K9FOBBF2IQKYW25ZXNL5R86K71NL7", "dateTime": 1520038836296}, {"current_trial": 175, "trialdata": {"rt": -1000, "trial_type": "single-audio", "word": "slug", "stimulus": "/static/audio/wordpool/SLUG.wav", "conditions": [12, 1600, "a", 24000], "internal_node_id": "0.0-130.0", "trial": 4, "time_elapsed": 762040, "serialpos": 6, "key_press": -1, "wordID": 1328, "type": "PRES_AUD", "trial_index": 175}, "uniqueid": "MTK3131:3K9FOBBF2IQKYW25ZXNL5R86K71NL7", "dateTime": 1520038838968}, {"current_trial": 176, "trialdata": {"rt": -1000, "trial_type": "single-audio", "word": "proton", "stimulus": "/static/audio/wordpool/PROTON.wav", "conditions": [12, 1600, "a", 24000], "internal_node_id": "0.0-131.0", "trial": 4, "time_elapsed": 764637, "serialpos": 7, "key_press": -1, "wordID": 1131, "type": "PRES_AUD", "trial_index": 176}, "uniqueid": "MTK3131:3K9FOBBF2IQKYW25ZXNL5R86K71NL7", "dateTime": 1520038841565}, {"current_trial": 177, "trialdata": {"rt": -1000, "trial_type": "single-audio", "word": "bullet", "stimulus": "/static/audio/wordpool/BULLET.wav", "conditions": [12, 1600, "a", 24000], "internal_node_id": "0.0-132.0", "trial": 4, "time_elapsed": 767369, "serialpos": 8, "key_press": -1, "wordID": 193, "type": "PRES_AUD", "trial_index": 177}, "uniqueid": "MTK3131:3K9FOBBF2IQKYW25ZXNL5R86K71NL7", "dateTime": 1520038844297}, {"current_trial": 178, "trialdata": {"rt": -1000, "trial_type": "single-audio", "word": "wife", "stimulus": "/static/audio/wordpool/WIFE.wav", "conditions": [12, 1600, "a", 24000], "internal_node_id": "0.0-133.0", "trial": 4, "time_elapsed": 770080, "serialpos": 9, "key_press": -1, "wordID": 1608, "type": "PRES_AUD", "trial_index": 178}, "uniqueid": "MTK3131:3K9FOBBF2IQKYW25ZXNL5R86K71NL7", "dateTime": 1520038847008}, {"current_trial": 179, "trialdata": {"rt": -1000, "trial_type": "single-audio", "word": "pigment", "stimulus": "/static/audio/wordpool/PIGMENT.wav", "conditions": [12, 1600, "a", 24000], "internal_node_id": "0.0-134.0", "trial": 4, "time_elapsed": 772803, "serialpos": 10, "key_press": -1, "wordID": 1065, "type": "PRES_AUD", "trial_index": 179}, "uniqueid": "MTK3131:3K9FOBBF2IQKYW25ZXNL5R86K71NL7", "dateTime": 1520038849731}, {"current_trial": 180, "trialdata": {"rt": -1000, "trial_type": "single-audio", "word": "chemist", "stimulus": "/static/audio/wordpool/CHEMIST.wav", "conditions": [12, 1600, "a", 24000], "internal_node_id": "0.0-135.0", "trial": 4, "time_elapsed": 775333, "serialpos": 11, "key_press": -1, "wordID": 291, "type": "PRES_AUD", "trial_index": 180}, "uniqueid": "MTK3131:3K9FOBBF2IQKYW25ZXNL5R86K71NL7", "dateTime": 1520038852262}, {"current_trial": 181, "trialdata": {"rt": -1, "trial_type": "single-stim", "stimulus": "", "internal_node_id": "0.0-136.0-0.0", "time_elapsed": 776610, "key_press": -1, "type": "PRE_RECALL_DELAY", "trial_index": 181}, "uniqueid": "MTK3131:3K9FOBBF2IQKYW25ZXNL5R86K71NL7", "dateTime": 1520038853538}, {"current_trial": 182, "trialdata": {"rt": -1000, "trial_type": "single-audio", "stimulus": "/static/audio/400Hz.wav", "internal_node_id": "0.0-137.0", "time_elapsed": 777113, "key_press": -1, "type": "PRE_RECALL_ALERT", "trial_index": 182}, "uniqueid": "MTK3131:3K9FOBBF2IQKYW25ZXNL5R86K71NL7", "dateTime": 1520038854041}, {"current_trial": 183, "trialdata": {"rt": [4890, 8810, 11962, 15026, 17757, 20062, 21399, 22854, 25062, 34431], "recwords": ["carrot", "brook", "waitress", "spouse", "wife", "bullet", "orchid", "chemist", "pigment", "river"], "key_times": [3490, 3699, 3874, 4009, 4130, 4242, 4890, 7395, 7537, 7754, 8290, 8490, 8810, 10123, 10291, 10395, 10515, 10730, 10834, 11185, 11330, 11962, 13114, 13222, 13330, 13621, 13717, 13986, 14115, 14258, 14474, 14605, 14705, 14806, 15026, 15734, 15838, 15917, 16238, 17757, 18966, 19206, 19429, 19550, 19637, 19742, 20062, 20502, 20606, 20854, 20910, 21022, 21182, 21399, 22030, 22062, 22150, 22309, 22438, 22582, 22654, 22854, 23303, 23478, 23693, 24054, 24189, 24294, 24399, 25062, 33693, 33782, 34015, 34199, 34261, 34431], "trial_type": "free-recall", "conditions": [12, 1600, "a", 24000], "internal_node_id": "0.0-138.0-0.0", "key_presses": [67, 65, 82, 82, 79, 84, 13, 66, 82, 79, 79, 75, 13, 87, 65, 73, 84, 82, 69, 83, 83, 13, 83, 80, 85, 83, 69, 8, 8, 8, 79, 85, 83, 69, 13, 87, 73, 70, 69, 13, 66, 85, 76, 76, 69, 84, 13, 79, 82, 67, 72, 73, 68, 13, 67, 72, 69, 77, 73, 83, 84, 13, 80, 73, 71, 77, 69, 78, 84, 13, 82, 73, 86, 69, 82, 13], "trial": 4, "time_elapsed": 837116, "type": "FREE_RECALL", "trial_index": 183}, "uniqueid": "MTK3131:3K9FOBBF2IQKYW25ZXNL5R86K71NL7", "dateTime": 1520038914045}, {"current_trial": 184, "trialdata": {"rt": 2399, "trial_type": "text", "internal_node_id": "0.0-139.0", "time_elapsed": 841516, "key_press": 13, "type": "INSTRUCTIONS", "trial_index": 184}, "uniqueid": "MTK3131:3K9FOBBF2IQKYW25ZXNL5R86K71NL7", "dateTime": 1520038918444}, {"current_trial": 185, "trialdata": {"rt": [3845, 7014, 9294, 11365, 14164, 15713, 17421, 19267, 23185], "trial_type": "math-distractor", "key_times": [3429, 3630, 3845, 6479, 6573, 7014, 8981, 9073, 9294, 11021, 11130, 11365, 13837, 13942, 14164, 15337, 15498, 15713, 17021, 17241, 17421, 18905, 18978, 19267, 22865, 23057, 23185], "responses": ["17", "13", "15", "16", "15", "18", "17", "12", "20"], "num2": [8, 2, 8, 7, 3, 8, 2, 4, 4, 6], "num3": [7, 9, 6, 2, 3, 4, 7, 3, 9, 6], "conditions": [24, 1600, "a", 24000], "internal_node_id": "0.0-140.0", "key_presses": [97, 103, 13, 97, 99, 13, 97, 101, 13, 97, 102, 13, 97, 101, 13, 97, 104, 13, 97, 103, 13, 97, 98, 13, 98, 96, 13], "trial": 5, "time_elapsed": 867519, "type": "DISTRACTOR", "trial_index": 185, "num1": [2, 2, 1, 7, 9, 6, 8, 5, 7, 8]}, "uniqueid": "MTK3131:3K9FOBBF2IQKYW25ZXNL5R86K71NL7", "dateTime": 1520038944447}, {"current_trial": 186, "trialdata": {"rt": -1, "trial_type": "single-stim", "stimulus": "<p id=\"stim\">10</p>", "internal_node_id": "0.0-141.0-0.0", "time_elapsed": 870522, "key_press": -1, "trial_index": 186}, "uniqueid": "MTK3131:3K9FOBBF2IQKYW25ZXNL5R86K71NL7", "dateTime": 1520038947450}, {"current_trial": 187, "trialdata": {"rt": -1, "trial_type": "single-stim", "stimulus": "<p id=\"stim\">9</p>", "internal_node_id": "0.0-141.0-1.0", "time_elapsed": 871524, "key_press": -1, "trial_index": 187}, "uniqueid": "MTK3131:3K9FOBBF2IQKYW25ZXNL5R86K71NL7", "dateTime": 1520038948452}, {"current_trial": 188, "trialdata": {"rt": -1, "trial_type": "single-stim", "stimulus": "<p id=\"stim\">8</p>", "internal_node_id": "0.0-141.0-2.0", "time_elapsed": 872524, "key_press": -1, "trial_index": 188}, "uniqueid": "MTK3131:3K9FOBBF2IQKYW25ZXNL5R86K71NL7", "dateTime": 1520038949453}, {"current_trial": 189, "trialdata": {"rt": -1, "trial_type": "single-stim", "stimulus": "<p id=\"stim\">7</p>", "internal_node_id": "0.0-141.0-3.0", "time_elapsed": 873528, "key_press": -1, "trial_index": 189}, "uniqueid": "MTK3131:3K9FOBBF2IQKYW25ZXNL5R86K71NL7", "dateTime": 1520038950456}, {"current_trial": 190, "trialdata": {"rt": -1, "trial_type": "single-stim", "stimulus": "<p id=\"stim\">6</p>", "internal_node_id": "0.0-141.0-4.0", "time_elapsed": 874530, "key_press": -1, "trial_index": 190}, "uniqueid": "MTK3131:3K9FOBBF2IQKYW25ZXNL5R86K71NL7", "dateTime": 1520038951458}, {"current_trial": 191, "trialdata": {"rt": -1, "trial_type": "single-stim", "stimulus": "<p id=\"stim\">5</p>", "internal_node_id": "0.0-141.0-5.0", "time_elapsed": 875530, "key_press": -1, "trial_index": 191}, "uniqueid": "MTK3131:3K9FOBBF2IQKYW25ZXNL5R86K71NL7", "dateTime": 1520038952458}, {"current_trial": 192, "trialdata": {"rt": -1, "trial_type": "single-stim", "stimulus": "<p id=\"stim\">4</p>", "internal_node_id": "0.0-141.0-6.0", "time_elapsed": 876532, "key_press": -1, "trial_index": 192}, "uniqueid": "MTK3131:3K9FOBBF2IQKYW25ZXNL5R86K71NL7", "dateTime": 1520038953460}, {"current_trial": 193, "trialdata": {"rt": -1, "trial_type": "single-stim", "stimulus": "<p id=\"stim\">3</p>", "internal_node_id": "0.0-141.0-7.0", "time_elapsed": 877534, "key_press": -1, "trial_index": 193}, "uniqueid": "MTK3131:3K9FOBBF2IQKYW25ZXNL5R86K71NL7", "dateTime": 1520038954462}, {"current_trial": 194, "trialdata": {"rt": -1, "trial_type": "single-stim", "stimulus": "<p id=\"stim\">2</p>", "internal_node_id": "0.0-141.0-8.0", "time_elapsed": 878535, "key_press": -1, "trial_index": 194}, "uniqueid": "MTK3131:3K9FOBBF2IQKYW25ZXNL5R86K71NL7", "dateTime": 1520038955463}, {"current_trial": 195, "trialdata": {"rt": -1, "trial_type": "single-stim", "stimulus": "<p id=\"stim\">1</p>", "internal_node_id": "0.0-141.0-9.0", "time_elapsed": 879536, "key_press": -1, "trial_index": 195}, "uniqueid": "MTK3131:3K9FOBBF2IQKYW25ZXNL5R86K71NL7", "dateTime": 1520038956464}, {"current_trial": 196, "trialdata": {"rt": -1, "trial_type": "single-stim", "stimulus": "<p id=\"stim\">+</p>", "internal_node_id": "0.0-142.0-0.0", "time_elapsed": 881038, "key_press": -1, "type": "FIXATION", "trial_index": 196}, "uniqueid": "MTK3131:3K9FOBBF2IQKYW25ZXNL5R86K71NL7", "dateTime": 1520038957966}, {"current_trial": 197, "trialdata": {"rt": -1000, "trial_type": "single-audio", "word": "cousin", "stimulus": "/static/audio/wordpool/COUSIN.wav", "conditions": [24, 1600, "a", 24000], "internal_node_id": "0.0-143.0", "trial": 5, "time_elapsed": 883685, "serialpos": 0, "key_press": -1, "wordID": 391, "type": "PRES_AUD", "trial_index": 197}, "uniqueid": "MTK3131:3K9FOBBF2IQKYW25ZXNL5R86K71NL7", "dateTime": 1520038960613}, {"current_trial": 198, "trialdata": {"rt": -1000, "trial_type": "single-audio", "word": "contract", "stimulus": "/static/audio/wordpool/CONTRACT.wav", "conditions": [24, 1600, "a", 24000], "internal_node_id": "0.0-144.0", "trial": 5, "time_elapsed": 886146, "serialpos": 1, "key_press": -1, "wordID": 367, "type": "PRES_AUD", "trial_index": 198}, "uniqueid": "MTK3131:3K9FOBBF2IQKYW25ZXNL5R86K71NL7", "dateTime": 1520038963074}, {"current_trial": 199, "trialdata": {"rt": -1000, "trial_type": "single-audio", "word": "sculpture", "stimulus": "/static/audio/wordpool/SCULPTURE.wav", "conditions": [24, 1600, "a", 24000], "internal_node_id": "0.0-145.0", "trial": 5, "time_elapsed": 888621, "serialpos": 2, "key_press": -1, "wordID": 1257, "type": "PRES_AUD", "trial_index": 199}, "uniqueid": "MTK3131:3K9FOBBF2IQKYW25ZXNL5R86K71NL7", "dateTime": 1520038965549}, {"current_trial": 200, "trialdata": {"rt": -1000, "trial_type": "single-audio", "word": "lake", "stimulus": "/static/audio/wordpool/LAKE.wav", "conditions": [24, 1600, "a", 24000], "internal_node_id": "0.0-146.0", "trial": 5, "time_elapsed": 891221, "serialpos": 3, "key_press": -1, "wordID": 795, "type": "PRES_AUD", "trial_index": 200}, "uniqueid": "MTK3131:3K9FOBBF2IQKYW25ZXNL5R86K71NL7", "dateTime": 1520038968149}, {"current_trial": 201, "trialdata": {"rt": -1000, "trial_type": "single-audio", "word": "spider", "stimulus": "/static/audio/wordpool/SPIDER.wav", "conditions": [24, 1600, "a", 24000], "internal_node_id": "0.0-147.0", "trial": 5, "time_elapsed": 893635, "serialpos": 4, "key_press": -1, "wordID": 1350, "type": "PRES_AUD", "trial_index": 201}, "uniqueid": "MTK3131:3K9FOBBF2IQKYW25ZXNL5R86K71NL7", "dateTime": 1520038970564}, {"current_trial": 202, "trialdata": {"rt": -1000, "trial_type": "single-audio", "word": "brother", "stimulus": "/static/audio/wordpool/BROTHER.wav", "conditions": [24, 1600, "a", 24000], "internal_node_id": "0.0-148.0", "trial": 5, "time_elapsed": 896242, "serialpos": 5, "key_press": -1, "wordID": 178, "type": "PRES_AUD", "trial_index": 202}, "uniqueid": "MTK3131:3K9FOBBF2IQKYW25ZXNL5R86K71NL7", "dateTime": 1520038973170}, {"current_trial": 203, "trialdata": {"rt": -1000, "trial_type": "single-audio", "word": "trench", "stimulus": "/static/audio/wordpool/TRENCH.wav", "conditions": [24, 1600, "a", 24000], "internal_node_id": "0.0-149.0", "trial": 5, "time_elapsed": 898916, "serialpos": 6, "key_press": -1, "wordID": 1502, "type": "PRES_AUD", "trial_index": 203}, "uniqueid": "MTK3131:3K9FOBBF2IQKYW25ZXNL5R86K71NL7", "dateTime": 1520038975844}, {"current_trial": 204, "trialdata": {"rt": -1000, "trial_type": "single-audio", "word": "basement", "stimulus": "/static/audio/wordpool/BASEMENT.wav", "conditions": [24, 1600, "a", 24000], "internal_node_id": "0.0-150.0", "trial": 5, "time_elapsed": 901533, "serialpos": 7, "key_press": -1, "wordID": 93, "type": "PRES_AUD", "trial_index": 204}, "uniqueid": "MTK3131:3K9FOBBF2IQKYW25ZXNL5R86K71NL7", "dateTime": 1520038978461}, {"current_trial": 205, "trialdata": {"rt": -1000, "trial_type": "single-audio", "word": "scissors", "stimulus": "/static/audio/wordpool/SCISSORS.wav", "conditions": [24, 1600, "a", 24000], "internal_node_id": "0.0-151.0", "trial": 5, "time_elapsed": 904055, "serialpos": 8, "key_press": -1, "wordID": 1249, "type": "PRES_AUD", "trial_index": 205}, "uniqueid": "MTK3131:3K9FOBBF2IQKYW25ZXNL5R86K71NL7", "dateTime": 1520038980983}, {"current_trial": 206, "trialdata": {"rt": -1000, "trial_type": "single-audio", "word": "scotch", "stimulus": "/static/audio/wordpool/SCOTCH.wav", "conditions": [24, 1600, "a", 24000], "internal_node_id": "0.0-152.0", "trial": 5, "time_elapsed": 906491, "serialpos": 9, "key_press": -1, "wordID": 1250, "type": "PRES_AUD", "trial_index": 206}, "uniqueid": "MTK3131:3K9FOBBF2IQKYW25ZXNL5R86K71NL7", "dateTime": 1520038983419}, {"current_trial": 207, "trialdata": {"rt": -1000, "trial_type": "single-audio", "word": "brandy", "stimulus": "/static/audio/wordpool/BRANDY.wav", "conditions": [24, 1600, "a", 24000], "internal_node_id": "0.0-153.0", "trial": 5, "time_elapsed": 909058, "serialpos": 10, "key_press": -1, "wordID": 168, "type": "PRES_AUD", "trial_index": 207}, "uniqueid": "MTK3131:3K9FOBBF2IQKYW25ZXNL5R86K71NL7", "dateTime": 1520038985986}, {"current_trial": 208, "trialdata": {"rt": -1000, "trial_type": "single-audio", "word": "badge", "stimulus": "/static/audio/wordpool/BADGE.wav", "conditions": [24, 1600, "a", 24000], "internal_node_id": "0.0-154.0", "trial": 5, "time_elapsed": 911466, "serialpos": 11, "key_press": -1, "wordID": 67, "type": "PRES_AUD", "trial_index": 208}, "uniqueid": "MTK3131:3K9FOBBF2IQKYW25ZXNL5R86K71NL7", "dateTime": 1520038988394}, {"current_trial": 209, "trialdata": {"rt": -1000, "trial_type": "single-audio", "word": "orange", "stimulus": "/static/audio/wordpool/ORANGE.wav", "conditions": [24, 1600, "a", 24000], "internal_node_id": "0.0-155.0", "trial": 5, "time_elapsed": 914162, "serialpos": 12, "key_press": -1, "wordID": 979, "type": "PRES_AUD", "trial_index": 209}, "uniqueid": "MTK3131:3K9FOBBF2IQKYW25ZXNL5R86K71NL7", "dateTime": 1520038991090}, {"current_trial": 210, "trialdata": {"rt": -1000, "trial_type": "single-audio", "word": "honey", "stimulus": "/static/audio/wordpool/HONEY.wav", "conditions": [24, 1600, "a", 24000], "internal_node_id": "0.0-156.0", "trial": 5, "time_elapsed": 916901, "serialpos": 13, "key_press": -1, "wordID": 712, "type": "PRES_AUD", "trial_index": 210}, "uniqueid": "MTK3131:3K9FOBBF2IQKYW25ZXNL5R86K71NL7", "dateTime": 1520038993829}, {"current_trial": 211, "trialdata": {"rt": -1000, "trial_type": "single-audio", "word": "nurse", "stimulus": "/static/audio/wordpool/NURSE.wav", "conditions": [24, 1600, "a", 24000], "internal_node_id": "0.0-157.0", "trial": 5, "time_elapsed": 919419, "serialpos": 14, "key_press": -1, "wordID": 962, "type": "PRES_AUD", "trial_index": 211}, "uniqueid": "MTK3131:3K9FOBBF2IQKYW25ZXNL5R86K71NL7", "dateTime": 1520038996347}, {"current_trial": 212, "trialdata": {"rt": -1000, "trial_type": "single-audio", "word": "pimple", "stimulus": "/static/audio/wordpool/PIMPLE.wav", "conditions": [24, 1600, "a", 24000], "internal_node_id": "0.0-158.0", "trial": 5, "time_elapsed": 922067, "serialpos": 15, "key_press": -1, "wordID": 1070, "type": "PRES_AUD", "trial_index": 212}, "uniqueid": "MTK3131:3K9FOBBF2IQKYW25ZXNL5R86K71NL7", "dateTime": 1520038998995}, {"current_trial": 213, "trialdata": {"rt": -1000, "trial_type": "single-audio", "word": "empire", "stimulus": "/static/audio/wordpool/EMPIRE.wav", "conditions": [24, 1600, "a", 24000], "internal_node_id": "0.0-159.0", "trial": 5, "time_elapsed": 924488, "serialpos": 16, "key_press": -1, "wordID": 529, "type": "PRES_AUD", "trial_index": 213}, "uniqueid": "MTK3131:3K9FOBBF2IQKYW25ZXNL5R86K71NL7", "dateTime": 1520039001416}, {"current_trial": 214, "trialdata": {"rt": -1000, "trial_type": "single-audio", "word": "shelf", "stimulus": "/static/audio/wordpool/SHELF.wav", "conditions": [24, 1600, "a", 24000], "internal_node_id": "0.0-160.0", "trial": 5, "time_elapsed": 927275, "serialpos": 17, "key_press": -1, "wordID": 1279, "type": "PRES_AUD", "trial_index": 214}, "uniqueid": "MTK3131:3K9FOBBF2IQKYW25ZXNL5R86K71NL7", "dateTime": 1520039004203}, {"current_trial": 215, "trialdata": {"rt": -1000, "trial_type": "single-audio", "word": "farmer", "stimulus": "/static/audio/wordpool/FARMER.wav", "conditions": [24, 1600, "a", 24000], "internal_node_id": "0.0-161.0", "trial": 5, "time_elapsed": 929807, "serialpos": 18, "key_press": -1, "wordID": 552, "type": "PRES_AUD", "trial_index": 215}, "uniqueid": "MTK3131:3K9FOBBF2IQKYW25ZXNL5R86K71NL7", "dateTime": 1520039006735}, {"current_trial": 216, "trialdata": {"rt": -1000, "trial_type": "single-audio", "word": "patient", "stimulus": "/static/audio/wordpool/PATIENT.wav", "conditions": [24, 1600, "a", 24000], "internal_node_id": "0.0-162.0", "trial": 5, "time_elapsed": 932513, "serialpos": 19, "key_press": -1, "wordID": 1023, "type": "PRES_AUD", "trial_index": 216}, "uniqueid": "MTK3131:3K9FOBBF2IQKYW25ZXNL5R86K71NL7", "dateTime": 1520039009441}, {"current_trial": 217, "trialdata": {"rt": -1000, "trial_type": "single-audio", "word": "lettuce", "stimulus": "/static/audio/wordpool/LETTUCE.wav", "conditions": [24, 1600, "a", 24000], "internal_node_id": "0.0-163.0", "trial": 5, "time_elapsed": 934949, "serialpos": 20, "key_press": -1, "wordID": 813, "type": "PRES_AUD", "trial_index": 217}, "uniqueid": "MTK3131:3K9FOBBF2IQKYW25ZXNL5R86K71NL7", "dateTime": 1520039011877}, {"current_trial": 218, "trialdata": {"rt": -1000, "trial_type": "single-audio", "word": "pepper", "stimulus": "/static/audio/wordpool/PEPPER.wav", "conditions": [24, 1600, "a", 24000], "internal_node_id": "0.0-164.0", "trial": 5, "time_elapsed": 937351, "serialpos": 21, "key_press": -1, "wordID": 1046, "type": "PRES_AUD", "trial_index": 218}, "uniqueid": "MTK3131:3K9FOBBF2IQKYW25ZXNL5R86K71NL7", "dateTime": 1520039014279}, {"current_trial": 219, "trialdata": {"rt": -1000, "trial_type": "single-audio", "word": "garden", "stimulus": "/static/audio/wordpool/GARDEN.wav", "conditions": [24, 1600, "a", 24000], "internal_node_id": "0.0-165.0", "trial": 5, "time_elapsed": 939765, "serialpos": 22, "key_press": -1, "wordID": 622, "type": "PRES_AUD", "trial_index": 219}, "uniqueid": "MTK3131:3K9FOBBF2IQKYW25ZXNL5R86K71NL7", "dateTime": 1520039016693}, {"current_trial": 220, "trialdata": {"rt": -1000, "trial_type": "single-audio", "word": "shrub", "stimulus": "/static/audio/wordpool/SHRUB.wav", "conditions": [24, 1600, "a", 24000], "internal_node_id": "0.0-166.0", "trial": 5, "time_elapsed": 942173, "serialpos": 23, "key_press": -1, "wordID": 1298, "type": "PRES_AUD", "trial_index": 220}, "uniqueid": "MTK3131:3K9FOBBF2IQKYW25ZXNL5R86K71NL7", "dateTime": 1520039019101}, {"current_trial": 221, "trialdata": {"rt": -1, "trial_type": "single-stim", "stimulus": "", "internal_node_id": "0.0-167.0-0.0", "time_elapsed": 943481, "key_press": -1, "type": "PRE_RECALL_DELAY", "trial_index": 221}, "uniqueid": "MTK3131:3K9FOBBF2IQKYW25ZXNL5R86K71NL7", "dateTime": 1520039020410}, {"current_trial": 222, "trialdata": {"rt": -1000, "trial_type": "single-audio", "stimulus": "/static/audio/400Hz.wav", "internal_node_id": "0.0-168.0", "time_elapsed": 943983, "key_press": -1, "type": "PRE_RECALL_ALERT", "trial_index": 222}, "uniqueid": "MTK3131:3K9FOBBF2IQKYW25ZXNL5R86K71NL7", "dateTime": 1520039020911}, {"current_trial": 223, "trialdata": {"rt": [4088, 8081, 10969, 14240, 16365, 18649, 20524, 23437, 27165, 29653, 32980, 34381, 35604, 38205, 43998, 47645, 49793, 54449], "recwords": ["cousin", "brother", "contract", "trench", "basement", "lake", "spider", "lettuce", "pimple", "brandy", "nurse", "empire", "shelf", "shrub", "patient", "honey", "orange", "scissors"], "key_times": [3152, 3240, 3345, 3552, 3648, 3809, 4088, 6009, 6129, 6264, 6530, 6640, 6768, 6832, 8081, 9816, 9893, 10032, 10113, 10281, 10497, 10588, 10804, 10969, 12809, 12984, 13072, 13513, 13720, 13816, 14240, 14956, 15061, 15273, 15348, 15530, 15748, 15933, 16093, 16365, 18125, 18252, 18372, 18481, 18649, 19100, 19189, 19365, 19589, 20030, 20076, 20237, 20324, 20524, 22477, 22621, 22773, 22885, 23021, 23164, 23285, 23437, 25940, 26173, 26476, 26645, 26852, 27005, 27165, 27613, 28020, 28533, 28605, 28749, 28853, 29101, 29269, 29653, 32205, 32372, 32508, 32732, 32813, 32980, 33372, 33508, 33652, 33948, 34109, 34197, 34381, 34901, 35005, 35124, 35268, 35397, 35604, 36414, 36533, 36636, 36764, 37069, 38205, 40229, 40316, 40430, 40588, 40646, 40702, 41357, 41857, 41890, 41923, 41957, 41989, 42021, 42055, 42087, 42121, 42154, 42187, 42219, 42253, 42813, 42917, 43116, 43388, 43597, 43685, 43773, 43998, 46479, 46605, 46789, 46933, 47373, 47645, 48036, 48173, 48604, 48724, 49245, 49437, 49501, 49645, 49793, 53013, 53069, 53136, 53504, 53760, 53897, 54009, 54337, 54449], "trial_type": "free-recall", "conditions": [24, 1600, "a", 24000], "internal_node_id": "0.0-169.0-0.0", "key_presses": [67, 79, 85, 83, 73, 78, 13, 66, 82, 79, 84, 72, 69, 82, 13, 67, 79, 78, 84, 82, 65, 67, 84, 13, 84, 82, 69, 78, 67, 72, 13, 66, 65, 83, 69, 77, 69, 78, 84, 13, 76, 65, 75, 69, 13, 83, 80, 73, 75, 8, 68, 69, 82, 13, 76, 69, 84, 84, 85, 67, 69, 13, 80, 73, 77, 80, 76, 69, 13, 82, 8, 66, 82, 65, 78, 68, 89, 13, 78, 85, 82, 83, 69, 13, 69, 77, 80, 73, 82, 69, 13, 83, 72, 69, 76, 70, 13, 83, 72, 82, 85, 66, 13, 80, 69, 80, 80, 69, 82, 8, 8, 8, 8, 8, 8, 8, 8, 8, 8, 8, 8, 8, 8, 80, 65, 84, 73, 69, 78, 84, 13, 72, 79, 78, 69, 89, 13, 79, 82, 65, 71, 8, 78, 71, 69, 13, 83, 67, 73, 83, 83, 79, 82, 83, 13], "trial": 5, "time_elapsed": 1003985, "type": "FREE_RECALL", "trial_index": 223}, "uniqueid": "MTK3131:3K9FOBBF2IQKYW25ZXNL5R86K71NL7", "dateTime": 1520039080917}, {"current_trial": 224, "trialdata": {"rt": 9587, "trial_type": "text", "internal_node_id": "0.0-170.0", "time_elapsed": 1015578, "key_press": 13, "type": "INSTRUCTIONS", "trial_index": 224}, "uniqueid": "MTK3131:3K9FOBBF2IQKYW25ZXNL5R86K71NL7", "dateTime": 1520039092506}, {"current_trial": 225, "trialdata": {"rt": [1996, 7804, 9368], "trial_type": "math-distractor", "key_times": [1707, 1844, 1996, 7135, 7612, 7804, 9084, 9368], "responses": ["11", "22", "9"], "num2": [8, 5, 4, 4], "num3": [2, 9, 4, 7], "conditions": [24, 800, "a", 12000], "internal_node_id": "0.0-171.0", "key_presses": [97, 97, 13, 98, 98, 13, 105, 13], "trial": 6, "time_elapsed": 1029581, "type": "DISTRACTOR", "trial_index": 225, "num1": [1, 8, 1, 1]}, "uniqueid": "MTK3131:3K9FOBBF2IQKYW25ZXNL5R86K71NL7", "dateTime": 1520039106509}, {"current_trial": 226, "trialdata": {"rt": -1, "trial_type": "single-stim", "stimulus": "<p id=\"stim\">10</p>", "internal_node_id": "0.0-172.0-0.0", "time_elapsed": 1032583, "key_press": -1, "trial_index": 226}, "uniqueid": "MTK3131:3K9FOBBF2IQKYW25ZXNL5R86K71NL7", "dateTime": 1520039109511}, {"current_trial": 227, "trialdata": {"rt": -1, "trial_type": "single-stim", "stimulus": "<p id=\"stim\">9</p>", "internal_node_id": "0.0-172.0-1.0", "time_elapsed": 1033583, "key_press": -1, "trial_index": 227}, "uniqueid": "MTK3131:3K9FOBBF2IQKYW25ZXNL5R86K71NL7", "dateTime": 1520039110511}, {"current_trial": 228, "trialdata": {"rt": -1, "trial_type": "single-stim", "stimulus": "<p id=\"stim\">8</p>", "internal_node_id": "0.0-172.0-2.0", "time_elapsed": 1034586, "key_press": -1, "trial_index": 228}, "uniqueid": "MTK3131:3K9FOBBF2IQKYW25ZXNL5R86K71NL7", "dateTime": 1520039111514}, {"current_trial": 229, "trialdata": {"rt": -1, "trial_type": "single-stim", "stimulus": "<p id=\"stim\">7</p>", "internal_node_id": "0.0-172.0-3.0", "time_elapsed": 1035587, "key_press": -1, "trial_index": 229}, "uniqueid": "MTK3131:3K9FOBBF2IQKYW25ZXNL5R86K71NL7", "dateTime": 1520039112515}, {"current_trial": 230, "trialdata": {"rt": -1, "trial_type": "single-stim", "stimulus": "<p id=\"stim\">6</p>", "internal_node_id": "0.0-172.0-4.0", "time_elapsed": 1036588, "key_press": -1, "trial_index": 230}, "uniqueid": "MTK3131:3K9FOBBF2IQKYW25ZXNL5R86K71NL7", "dateTime": 1520039113516}, {"current_trial": 231, "trialdata": {"rt": -1, "trial_type": "single-stim", "stimulus": "<p id=\"stim\">5</p>", "internal_node_id": "0.0-172.0-5.0", "time_elapsed": 1037590, "key_press": -1, "trial_index": 231}, "uniqueid": "MTK3131:3K9FOBBF2IQKYW25ZXNL5R86K71NL7", "dateTime": 1520039114518}, {"current_trial": 232, "trialdata": {"rt": -1, "trial_type": "single-stim", "stimulus": "<p id=\"stim\">4</p>", "internal_node_id": "0.0-172.0-6.0", "time_elapsed": 1038592, "key_press": -1, "trial_index": 232}, "uniqueid": "MTK3131:3K9FOBBF2IQKYW25ZXNL5R86K71NL7", "dateTime": 1520039115520}, {"current_trial": 233, "trialdata": {"rt": -1, "trial_type": "single-stim", "stimulus": "<p id=\"stim\">3</p>", "internal_node_id": "0.0-172.0-7.0", "time_elapsed": 1039595, "key_press": -1, "trial_index": 233}, "uniqueid": "MTK3131:3K9FOBBF2IQKYW25ZXNL5R86K71NL7", "dateTime": 1520039116523}, {"current_trial": 234, "trialdata": {"rt": -1, "trial_type": "single-stim", "stimulus": "<p id=\"stim\">2</p>", "internal_node_id": "0.0-172.0-8.0", "time_elapsed": 1040598, "key_press": -1, "trial_index": 234}, "uniqueid": "MTK3131:3K9FOBBF2IQKYW25ZXNL5R86K71NL7", "dateTime": 1520039117526}, {"current_trial": 235, "trialdata": {"rt": -1, "trial_type": "single-stim", "stimulus": "<p id=\"stim\">1</p>", "internal_node_id": "0.0-172.0-9.0", "time_elapsed": 1041601, "key_press": -1, "trial_index": 235}, "uniqueid": "MTK3131:3K9FOBBF2IQKYW25ZXNL5R86K71NL7", "dateTime": 1520039118529}, {"current_trial": 236, "trialdata": {"rt": -1, "trial_type": "single-stim", "stimulus": "<p id=\"stim\">+</p>", "internal_node_id": "0.0-173.0-0.0", "time_elapsed": 1043103, "key_press": -1, "type": "FIXATION", "trial_index": 236}, "uniqueid": "MTK3131:3K9FOBBF2IQKYW25ZXNL5R86K71NL7", "dateTime": 1520039120031}, {"current_trial": 237, "trialdata": {"rt": -1000, "trial_type": "single-audio", "word": "hostess", "stimulus": "/static/audio/wordpool/HOSTESS.wav", "conditions": [24, 800, "a", 12000], "internal_node_id": "0.0-174.0", "trial": 6, "time_elapsed": 1045026, "serialpos": 0, "key_press": -1, "wordID": 722, "type": "PRES_AUD", "trial_index": 237}, "uniqueid": "MTK3131:3K9FOBBF2IQKYW25ZXNL5R86K71NL7", "dateTime": 1520039121954}, {"current_trial": 238, "trialdata": {"rt": -1000, "trial_type": "single-audio", "word": "braces", "stimulus": "/static/audio/wordpool/BRACES.wav", "conditions": [24, 800, "a"