{"assignmentId": "34T446B1C1LOAWGSLESORWM6JYTC09", "workerId": "MTK3633", "questiondata": {"origin": "United States", "strat-rehearsal": "28", "marital": "Married/Domestic Partnership", "education": "Some college", "ethnicity": "Not Hispanic", "color_depth": 24, "distracted": "No", "wrote-notes": "No", "strat-other": "n/a", "screen_width": 1600, "avail_screen_width": 1600, "avail_screen_height": 860, "strat-image": "31", "language": "English", "gender": "Male", "age": "54", "gender_other": "", "race": ["White"], "strat-categorize": "73", "pixel_depth": 24, "strat-spatial": "6", "strat-story": "52", "race_other": "", "screen_height": 900}, "bonus": 0, "hitId": "34ZTTGSNJXV1SDYDY2V2S9EKOGXHQY", "counterbalance": 1363, "useragent": "Mozilla/5.0 (Windows NT 10.0; Win64; x64) AppleWebKit/537.36 (KHTML, like Gecko) Chrome/64.0.3282.186 Safari/537.36", "eventdata": [{"eventtype": "initialized", "interval": 0, "value": null, "timestamp": 1520876273785}, {"eventtype": "window_resize", "interval": 0, "value": [1600, 860], "timestamp": 1520876273785}, {"eventtype": "focus", "interval": 459153, "value": "off", "timestamp": 1520876732938}, {"eventtype": "focus", "interval": 54025, "value": "on", "timestamp": 1520876786963}, {"eventtype": "focus", "interval": 195231, "value": "off", "timestamp": 1520876982194}, {"eventtype": "focus", "interval": 20750, "value": "on", "timestamp": 1520877002944}, {"eventtype": "focus", "interval": 124017, "value": "off", "timestamp": 1520877126961}, {"eventtype": "focus", "interval": 28848, "value": "on", "timestamp": 1520877155809}, {"eventtype": "focus", "interval": 393969, "value": "off", "timestamp": 1520877549778}, {"eventtype": "focus", "interval": 32363, "value": "on", "timestamp": 1520877582141}, {"eventtype": "focus", "interval": 113075, "value": "off", "timestamp": 1520877695216}, {"eventtype": "focus", "interval": 28573, "value": "on", "timestamp": 1520877723789}, {"eventtype": "focus", "interval": 841567, "value": "off", "timestamp": 1520878565356}, {"eventtype": "focus", "interval": 42072, "value": "on", "timestamp": 1520878607428}, {"eventtype": "focus", "interval": 842419, "value": "off", "timestamp": 1520879449847}, {"eventtype": "focus", "interval": 43726, "value": "on", "timestamp": 1520879493573}, {"eventtype": "focus", "interval": 16294, "value": "off", "timestamp": 1520879509867}, {"eventtype": "focus", "interval": 5760, "value": "on", "timestamp": 1520879515627}], "data": [{"current_trial": 0, "trialdata": {"rt": 3274, "trial_type": "text", "internal_node_id": "0.0-0.0", "time_elapsed": 3279, "key_press": 76, "type": "INSTRUCTIONS", "trial_index": 0}, "uniqueid": "MTK3633:34T446B1C1LOAWGSLESORWM6JYTC09", "dateTime": 1520876277600}, {"current_trial": 1, "trialdata": {"rt": 28790, "trial_type": "text", "internal_node_id": "0.0-1.0", "time_elapsed": 32071, "key_press": 76, "type": "INSTRUCTIONS", "trial_index": 1}, "uniqueid": "MTK3633:34T446B1C1LOAWGSLESORWM6JYTC09", "dateTime": 1520876306391}, {"current_trial": 2, "trialdata": {"rt": [20990], "trial_type": "audio-test", "responses": ["ocean"], "internal_node_id": "0.0-2.0", "time_elapsed": 53417, "type": "AUDIO_TEST", "trial_index": 2}, "uniqueid": "MTK3633:34T446B1C1LOAWGSLESORWM6JYTC09", "dateTime": 1520876327737}, {"current_trial": 3, "trialdata": {"rt": [12176], "trial_type": "audio-test", "responses": ["crystal"], "internal_node_id": "0.0-3.0", "time_elapsed": 65601, "type": "AUDIO_TEST", "trial_index": 3}, "uniqueid": "MTK3633:34T446B1C1LOAWGSLESORWM6JYTC09", "dateTime": 1520876339922}, {"current_trial": 4, "trialdata": {"rt": [6953], "trial_type": "audio-test", "responses": ["spice"], "internal_node_id": "0.0-4.0", "time_elapsed": 72560, "type": "AUDIO_TEST", "trial_index": 4}, "uniqueid": "MTK3633:34T446B1C1LOAWGSLESORWM6JYTC09", "dateTime": 1520876346886}, {"current_trial": 5, "trialdata": {"rt": 23488, "trial_type": "survey-text", "responses": "{\"Q0\":\"11\",\"Q1\":\"5:30\",\"Q2\":\"5\"}", "internal_node_id": "0.0-5.0", "time_elapsed": 96807, "type": "SLEEP_SURVEY", "trial_index": 5}, "uniqueid": "MTK3633:34T446B1C1LOAWGSLESORWM6JYTC09", "dateTime": 1520876371127}, {"current_trial": 6, "trialdata": {"rt": 37331, "trial_type": "text", "internal_node_id": "0.0-6.0", "time_elapsed": 135139, "key_press": 75, "type": "INSTRUCTIONS", "trial_index": 6}, "uniqueid": "MTK3633:34T446B1C1LOAWGSLESORWM6JYTC09", "dateTime": 1520876409459}, {"current_trial": 7, "trialdata": {"rt": 20577, "trial_type": "text", "internal_node_id": "0.0-7.0", "time_elapsed": 156219, "key_press": 72, "type": "INSTRUCTIONS", "trial_index": 7}, "uniqueid": "MTK3633:34T446B1C1LOAWGSLESORWM6JYTC09", "dateTime": 1520876430540}, {"current_trial": 8, "trialdata": {"rt": 12482, "trial_type": "text", "internal_node_id": "0.0-8.0", "time_elapsed": 169204, "key_press": 72, "type": "INSTRUCTIONS", "trial_index": 8}, "uniqueid": "MTK3633:34T446B1C1LOAWGSLESORWM6JYTC09", "dateTime": 1520876443524}, {"current_trial": 9, "trialdata": {"rt": [3113, 7355, 10073, 16401], "trial_type": "math-distractor", "key_times": [2274, 3113, 6393, 6777, 7355, 9203, 9577, 10073, 15286, 15546, 16401], "responses": ["8", "12", "10", "21"], "num2": [2, 7, 4, 7, 4], "num3": [5, 3, 4, 9, 5], "conditions": [18, 1200, "v", 18000], "internal_node_id": "0.0-9.0", "key_presses": [104, 13, 97, 98, 13, 97, 96, 13, 98, 97, 13], "trial": 0, "time_elapsed": 188237, "type": "DISTRACTOR", "trial_index": 9, "num1": [1, 2, 2, 5, 6]}, "uniqueid": "MTK3633:34T446B1C1LOAWGSLESORWM6JYTC09", "dateTime": 1520876462557}, {"current_trial": 10, "trialdata": {"rt": -1, "trial_type": "single-stim", "stimulus": "<p id=\"stim\">10</p>", "internal_node_id": "0.0-10.0-0.0", "time_elapsed": 191241, "key_press": -1, "trial_index": 10}, "uniqueid": "MTK3633:34T446B1C1LOAWGSLESORWM6JYTC09", "dateTime": 1520876465561}, {"current_trial": 11, "trialdata": {"rt": -1, "trial_type": "single-stim", "stimulus": "<p id=\"stim\">9</p>", "internal_node_id": "0.0-10.0-1.0", "time_elapsed": 192243, "key_press": -1, "trial_index": 11}, "uniqueid": "MTK3633:34T446B1C1LOAWGSLESORWM6JYTC09", "dateTime": 1520876466563}, {"current_trial": 12, "trialdata": {"rt": -1, "trial_type": "single-stim", "stimulus": "<p id=\"stim\">8</p>", "internal_node_id": "0.0-10.0-2.0", "time_elapsed": 193245, "key_press": -1, "trial_index": 12}, "uniqueid": "MTK3633:34T446B1C1LOAWGSLESORWM6JYTC09", "dateTime": 1520876467565}, {"current_trial": 13, "trialdata": {"rt": -1, "trial_type": "single-stim", "stimulus": "<p id=\"stim\">7</p>", "internal_node_id": "0.0-10.0-3.0", "time_elapsed": 194245, "key_press": -1, "trial_index": 13}, "uniqueid": "MTK3633:34T446B1C1LOAWGSLESORWM6JYTC09", "dateTime": 1520876468566}, {"current_trial": 14, "trialdata": {"rt": -1, "trial_type": "single-stim", "stimulus": "<p id=\"stim\">6</p>", "internal_node_id": "0.0-10.0-4.0", "time_elapsed": 195250, "key_press": -1, "trial_index": 14}, "uniqueid": "MTK3633:34T446B1C1LOAWGSLESORWM6JYTC09", "dateTime": 1520876469570}, {"current_trial": 15, "trialdata": {"rt": -1, "trial_type": "single-stim", "stimulus": "<p id=\"stim\">5</p>", "internal_node_id": "0.0-10.0-5.0", "time_elapsed": 196252, "key_press": -1, "trial_index": 15}, "uniqueid": "MTK3633:34T446B1C1LOAWGSLESORWM6JYTC09", "dateTime": 1520876470572}, {"current_trial": 16, "trialdata": {"rt": -1, "trial_type": "single-stim", "stimulus": "<p id=\"stim\">4</p>", "internal_node_id": "0.0-10.0-6.0", "time_elapsed": 197254, "key_press": -1, "trial_index": 16}, "uniqueid": "MTK3633:34T446B1C1LOAWGSLESORWM6JYTC09", "dateTime": 1520876471574}, {"current_trial": 17, "trialdata": {"rt": -1, "trial_type": "single-stim", "stimulus": "<p id=\"stim\">3</p>", "internal_node_id": "0.0-10.0-7.0", "time_elapsed": 198259, "key_press": -1, "trial_index": 17}, "uniqueid": "MTK3633:34T446B1C1LOAWGSLESORWM6JYTC09", "dateTime": 1520876472579}, {"current_trial": 18, "trialdata": {"rt": -1, "trial_type": "single-stim", "stimulus": "<p id=\"stim\">2</p>", "internal_node_id": "0.0-10.0-8.0", "time_elapsed": 199261, "key_press": -1, "trial_index": 18}, "uniqueid": "MTK3633:34T446B1C1LOAWGSLESORWM6JYTC09", "dateTime": 1520876473581}, {"current_trial": 19, "trialdata": {"rt": -1, "trial_type": "single-stim", "stimulus": "<p id=\"stim\">1</p>", "internal_node_id": "0.0-10.0-9.0", "time_elapsed": 200263, "key_press": -1, "trial_index": 19}, "uniqueid": "MTK3633:34T446B1C1LOAWGSLESORWM6JYTC09", "dateTime": 1520876474583}, {"current_trial": 20, "trialdata": {"rt": -1, "trial_type": "single-stim", "stimulus": "<p id=\"stim\">+</p>", "internal_node_id": "0.0-11.0-0.0", "time_elapsed": 201765, "key_press": -1, "type": "FIXATION", "trial_index": 20}, "uniqueid": "MTK3633:34T446B1C1LOAWGSLESORWM6JYTC09", "dateTime": 1520876476085}, {"current_trial": 21, "trialdata": {"rt": -1, "trial_type": "single-stim", "word": "maple", "stimulus": "<p id=\"stim\">MAPLE</p>", "conditions": [18, 1200, "v", 18000], "internal_node_id": "0.0-12.0", "trial": 0, "time_elapsed": 202970, "serialpos": 0, "key_press": -1, "wordID": 865, "type": "PRES_VIS", "trial_index": 21}, "uniqueid": "MTK3633:34T446B1C1LOAWGSLESORWM6JYTC09", "dateTime": 1520876477290}, {"current_trial": 22, "trialdata": {"rt": -1, "trial_type": "single-stim", "word": "apron", "stimulus": "<p id=\"stim\">APRON</p>", "conditions": [18, 1200, "v", 18000], "internal_node_id": "0.0-13.0", "trial": 0, "time_elapsed": 205371, "serialpos": 1, "key_press": -1, "wordID": 34, "type": "PRES_VIS", "trial_index": 22}, "uniqueid": "MTK3633:34T446B1C1LOAWGSLESORWM6JYTC09", "dateTime": 1520876479691}, {"current_trial": 23, "trialdata": {"rt": -1, "trial_type": "single-stim", "word": "flipper", "stimulus": "<p id=\"stim\">FLIPPER</p>", "conditions": [18, 1200, "v", 18000], "internal_node_id": "0.0-14.0", "trial": 0, "time_elapsed": 207702, "serialpos": 2, "key_press": -1, "wordID": 579, "type": "PRES_VIS", "trial_index": 23}, "uniqueid": "MTK3633:34T446B1C1LOAWGSLESORWM6JYTC09", "dateTime": 1520876482022}, {"current_trial": 24, "trialdata": {"rt": -1, "trial_type": "single-stim", "word": "sword", "stimulus": "<p id=\"stim\">SWORD</p>", "conditions": [18, 1200, "v", 18000], "internal_node_id": "0.0-15.0", "trial": 0, "time_elapsed": 209789, "serialpos": 3, "key_press": -1, "wordID": 1422, "type": "PRES_VIS", "trial_index": 24}, "uniqueid": "MTK3633:34T446B1C1LOAWGSLESORWM6JYTC09", "dateTime": 1520876484109}, {"current_trial": 25, "trialdata": {"rt": -1, "trial_type": "single-stim", "word": "casket", "stimulus": "<p id=\"stim\">CASKET</p>", "conditions": [18, 1200, "v", 18000], "internal_node_id": "0.0-16.0", "trial": 0, "time_elapsed": 211835, "serialpos": 4, "key_press": -1, "wordID": 254, "type": "PRES_VIS", "trial_index": 25}, "uniqueid": "MTK3633:34T446B1C1LOAWGSLESORWM6JYTC09", "dateTime": 1520876486155}, {"current_trial": 26, "trialdata": {"rt": -1, "trial_type": "single-stim", "word": "suspect", "stimulus": "<p id=\"stim\">SUSPECT</p>", "conditions": [18, 1200, "v", 18000], "internal_node_id": "0.0-17.0", "trial": 0, "time_elapsed": 214081, "serialpos": 5, "key_press": -1, "wordID": 1414, "type": "PRES_VIS", "trial_index": 26}, "uniqueid": "MTK3633:34T446B1C1LOAWGSLESORWM6JYTC09", "dateTime": 1520876488401}, {"current_trial": 27, "trialdata": {"rt": -1, "trial_type": "single-stim", "word": "farmer", "stimulus": "<p id=\"stim\">FARMER</p>", "conditions": [18, 1200, "v", 18000], "internal_node_id": "0.0-18.0", "trial": 0, "time_elapsed": 216137, "serialpos": 6, "key_press": -1, "wordID": 552, "type": "PRES_VIS", "trial_index": 27}, "uniqueid": "MTK3633:34T446B1C1LOAWGSLESORWM6JYTC09", "dateTime": 1520876490457}, {"current_trial": 28, "trialdata": {"rt": -1, "trial_type": "single-stim", "word": "vagrant", "stimulus": "<p id=\"stim\">VAGRANT</p>", "conditions": [18, 1200, "v", 18000], "internal_node_id": "0.0-19.0", "trial": 0, "time_elapsed": 218492, "serialpos": 7, "key_press": -1, "wordID": 1543, "type": "PRES_VIS", "trial_index": 28}, "uniqueid": "MTK3633:34T446B1C1LOAWGSLESORWM6JYTC09", "dateTime": 1520876492812}, {"current_trial": 29, "trialdata": {"rt": -1, "trial_type": "single-stim", "word": "scalpel", "stimulus": "<p id=\"stim\">SCALPEL</p>", "conditions": [18, 1200, "v", 18000], "internal_node_id": "0.0-20.0", "trial": 0, "time_elapsed": 220790, "serialpos": 8, "key_press": -1, "wordID": 1242, "type": "PRES_VIS", "trial_index": 29}, "uniqueid": "MTK3633:34T446B1C1LOAWGSLESORWM6JYTC09", "dateTime": 1520876495110}, {"current_trial": 30, "trialdata": {"rt": -1, "trial_type": "single-stim", "word": "elbow", "stimulus": "<p id=\"stim\">ELBOW</p>", "conditions": [18, 1200, "v", 18000], "internal_node_id": "0.0-21.0", "trial": 0, "time_elapsed": 222871, "serialpos": 9, "key_press": -1, "wordID": 519, "type": "PRES_VIS", "trial_index": 30}, "uniqueid": "MTK3633:34T446B1C1LOAWGSLESORWM6JYTC09", "dateTime": 1520876497191}, {"current_trial": 31, "trialdata": {"rt": -1, "trial_type": "single-stim", "word": "mammal", "stimulus": "<p id=\"stim\">MAMMAL</p>", "conditions": [18, 1200, "v", 18000], "internal_node_id": "0.0-22.0", "trial": 0, "time_elapsed": 224986, "serialpos": 10, "key_press": -1, "wordID": 860, "type": "PRES_VIS", "trial_index": 31}, "uniqueid": "MTK3633:34T446B1C1LOAWGSLESORWM6JYTC09", "dateTime": 1520876499308}, {"current_trial": 32, "trialdata": {"rt": -1, "trial_type": "single-stim", "word": "donor", "stimulus": "<p id=\"stim\">DONOR</p>", "conditions": [18, 1200, "v", 18000], "internal_node_id": "0.0-23.0", "trial": 0, "time_elapsed": 227236, "serialpos": 11, "key_press": -1, "wordID": 484, "type": "PRES_VIS", "trial_index": 32}, "uniqueid": "MTK3633:34T446B1C1LOAWGSLESORWM6JYTC09", "dateTime": 1520876501556}, {"current_trial": 33, "trialdata": {"rt": -1, "trial_type": "single-stim", "word": "grave", "stimulus": "<p id=\"stim\">GRAVE</p>", "conditions": [18, 1200, "v", 18000], "internal_node_id": "0.0-24.0", "trial": 0, "time_elapsed": 229280, "serialpos": 12, "key_press": -1, "wordID": 657, "type": "PRES_VIS", "trial_index": 33}, "uniqueid": "MTK3633:34T446B1C1LOAWGSLESORWM6JYTC09", "dateTime": 1520876503600}, {"current_trial": 34, "trialdata": {"rt": -1, "trial_type": "single-stim", "word": "switch", "stimulus": "<p id=\"stim\">SWITCH</p>", "conditions": [18, 1200, "v", 18000], "internal_node_id": "0.0-25.0", "trial": 0, "time_elapsed": 231504, "serialpos": 13, "key_press": -1, "wordID": 1421, "type": "PRES_VIS", "trial_index": 34}, "uniqueid": "MTK3633:34T446B1C1LOAWGSLESORWM6JYTC09", "dateTime": 1520876505825}, {"current_trial": 35, "trialdata": {"rt": -1, "trial_type": "single-stim", "word": "quarter", "stimulus": "<p id=\"stim\">QUARTER</p>", "conditions": [18, 1200, "v", 18000], "internal_node_id": "0.0-26.0", "trial": 0, "time_elapsed": 233514, "serialpos": 14, "key_press": -1, "wordID": 1147, "type": "PRES_VIS", "trial_index": 35}, "uniqueid": "MTK3633:34T446B1C1LOAWGSLESORWM6JYTC09", "dateTime": 1520876507834}, {"current_trial": 36, "trialdata": {"rt": -1, "trial_type": "single-stim", "word": "judge", "stimulus": "<p id=\"stim\">JUDGE</p>", "conditions": [18, 1200, "v", 18000], "internal_node_id": "0.0-27.0", "trial": 0, "time_elapsed": 235851, "serialpos": 15, "key_press": -1, "wordID": 760, "type": "PRES_VIS", "trial_index": 36}, "uniqueid": "MTK3633:34T446B1C1LOAWGSLESORWM6JYTC09", "dateTime": 1520876510171}, {"current_trial": 37, "trialdata": {"rt": -1, "trial_type": "single-stim", "word": "jelly", "stimulus": "<p id=\"stim\">JELLY</p>", "conditions": [18, 1200, "v", 18000], "internal_node_id": "0.0-28.0", "trial": 0, "time_elapsed": 237942, "serialpos": 16, "key_press": -1, "wordID": 754, "type": "PRES_VIS", "trial_index": 37}, "uniqueid": "MTK3633:34T446B1C1LOAWGSLESORWM6JYTC09", "dateTime": 1520876512262}, {"current_trial": 38, "trialdata": {"rt": -1, "trial_type": "single-stim", "word": "wrist", "stimulus": "<p id=\"stim\">WRIST</p>", "conditions": [18, 1200, "v", 18000], "internal_node_id": "0.0-29.0", "trial": 0, "time_elapsed": 239946, "serialpos": 17, "key_press": -1, "wordID": 1625, "type": "PRES_VIS", "trial_index": 38}, "uniqueid": "MTK3633:34T446B1C1LOAWGSLESORWM6JYTC09", "dateTime": 1520876514266}, {"current_trial": 39, "trialdata": {"rt": -1, "trial_type": "single-stim", "stimulus": "", "internal_node_id": "0.0-30.0-0.0", "time_elapsed": 242356, "key_press": -1, "type": "PRE_RECALL_DELAY", "trial_index": 39}, "uniqueid": "MTK3633:34T446B1C1LOAWGSLESORWM6JYTC09", "dateTime": 1520876516676}, {"current_trial": 40, "trialdata": {"rt": -1000, "trial_type": "single-audio", "stimulus": "/static/audio/400Hz.wav", "internal_node_id": "0.0-31.0", "time_elapsed": 242860, "key_press": -1, "type": "PRE_RECALL_ALERT", "trial_index": 40}, "uniqueid": "MTK3633:34T446B1C1LOAWGSLESORWM6JYTC09", "dateTime": 1520876517180}, {"current_trial": 41, "trialdata": {"rt": [3110, 8053, 11118, 14461, 23470, 27109, 37037, 42165, 50061], "recwords": ["wrist", "suspect", "maple", "jelly", "scapel", "elbow", "donor", "judge", "casket"], "key_times": [1550, 1718, 1917, 2062, 2220, 3110, 5301, 5509, 5741, 6039, 6218, 6533, 6845, 8053, 9084, 9257, 9439, 9737, 9917, 11118, 12301, 12500, 12662, 12863, 13216, 14461, 19823, 20429, 20732, 20957, 21199, 21677, 23470, 25230, 25501, 25796, 26046, 26252, 27109, 31574, 31948, 32565, 33518, 33728, 34593, 34933, 35189, 35407, 37037, 39861, 40126, 40293, 40517, 40685, 42165, 47126, 47429, 47669, 48117, 48301, 48685, 50061], "trial_type": "free-recall", "conditions": [18, 1200, "v", 18000], "internal_node_id": "0.0-32.0-0.0", "key_presses": [87, 82, 73, 83, 84, 13, 83, 85, 83, 80, 69, 67, 84, 13, 77, 65, 80, 76, 69, 13, 74, 69, 76, 76, 89, 13, 83, 67, 65, 80, 69, 76, 13, 69, 76, 66, 79, 87, 13, 68, 80, 78, 8, 8, 79, 78, 79, 82, 13, 74, 85, 68, 71, 69, 13, 67, 65, 83, 75, 69, 84, 13], "trial": 0, "time_elapsed": 302864, "type": "FREE_RECALL", "trial_index": 41}, "uniqueid": "MTK3633:34T446B1C1LOAWGSLESORWM6JYTC09", "dateTime": 1520876577196}, {"current_trial": 42, "trialdata": {"rt": 4078, "trial_type": "text", "internal_node_id": "0.0-33.0", "time_elapsed": 308955, "key_press": 13, "type": "INSTRUCTIONS", "trial_index": 42}, "uniqueid": "MTK3633:34T446B1C1LOAWGSLESORWM6JYTC09", "dateTime": 1520876583275}, {"current_trial": 43, "trialdata": {"rt": [4363, 8915, 14268, 17046], "trial_type": "math-distractor", "key_times": [3355, 3739, 4363, 8131, 8466, 8915, 13452, 13746, 14268, 16332, 16610, 17046], "responses": ["18", "16", "19", "10"], "num2": [9, 3, 8, 2, 1], "num3": [7, 5, 5, 3, 9], "conditions": [18, 1200, "v", 18000], "internal_node_id": "0.0-34.0", "key_presses": [97, 104, 13, 97, 102, 13, 97, 105, 13, 97, 96, 13], "trial": 1, "time_elapsed": 328961, "type": "DISTRACTOR", "trial_index": 43, "num1": [2, 8, 6, 5, 7]}, "uniqueid": "MTK3633:34T446B1C1LOAWGSLESORWM6JYTC09", "dateTime": 1520876603282}, {"current_trial": 44, "trialdata": {"rt": -1, "trial_type": "single-stim", "stimulus": "<p id=\"stim\">10</p>", "internal_node_id": "0.0-35.0-0.0", "time_elapsed": 331965, "key_press": -1, "trial_index": 44}, "uniqueid": "MTK3633:34T446B1C1LOAWGSLESORWM6JYTC09", "dateTime": 1520876606287}, {"current_trial": 45, "trialdata": {"rt": -1, "trial_type": "single-stim", "stimulus": "<p id=\"stim\">9</p>", "internal_node_id": "0.0-35.0-1.0", "time_elapsed": 332969, "key_press": -1, "trial_index": 45}, "uniqueid": "MTK3633:34T446B1C1LOAWGSLESORWM6JYTC09", "dateTime": 1520876607289}, {"current_trial": 46, "trialdata": {"rt": -1, "trial_type": "single-stim", "stimulus": "<p id=\"stim\">8</p>", "internal_node_id": "0.0-35.0-2.0", "time_elapsed": 333972, "key_press": -1, "trial_index": 46}, "uniqueid": "MTK3633:34T446B1C1LOAWGSLESORWM6JYTC09", "dateTime": 1520876608292}, {"current_trial": 47, "trialdata": {"rt": -1, "trial_type": "single-stim", "stimulus": "<p id=\"stim\">7</p>", "internal_node_id": "0.0-35.0-3.0", "time_elapsed": 334973, "key_press": -1, "trial_index": 47}, "uniqueid": "MTK3633:34T446B1C1LOAWGSLESORWM6JYTC09", "dateTime": 1520876609293}, {"current_trial": 48, "trialdata": {"rt": -1, "trial_type": "single-stim", "stimulus": "<p id=\"stim\">6</p>", "internal_node_id": "0.0-35.0-4.0", "time_elapsed": 335976, "key_press": -1, "trial_index": 48}, "uniqueid": "MTK3633:34T446B1C1LOAWGSLESORWM6JYTC09", "dateTime": 1520876610296}, {"current_trial": 49, "trialdata": {"rt": -1, "trial_type": "single-stim", "stimulus": "<p id=\"stim\">5</p>", "internal_node_id": "0.0-35.0-5.0", "time_elapsed": 336977, "key_press": -1, "trial_index": 49}, "uniqueid": "MTK3633:34T446B1C1LOAWGSLESORWM6JYTC09", "dateTime": 1520876611297}, {"current_trial": 50, "trialdata": {"rt": -1, "trial_type": "single-stim", "stimulus": "<p id=\"stim\">4</p>", "internal_node_id": "0.0-35.0-6.0", "time_elapsed": 337978, "key_press": -1, "trial_index": 50}, "uniqueid": "MTK3633:34T446B1C1LOAWGSLESORWM6JYTC09", "dateTime": 1520876612298}, {"current_trial": 51, "trialdata": {"rt": -1, "trial_type": "single-stim", "stimulus": "<p id=\"stim\">3</p>", "internal_node_id": "0.0-35.0-7.0", "time_elapsed": 338979, "key_press": -1, "trial_index": 51}, "uniqueid": "MTK3633:34T446B1C1LOAWGSLESORWM6JYTC09", "dateTime": 1520876613299}, {"current_trial": 52, "trialdata": {"rt": -1, "trial_type": "single-stim", "stimulus": "<p id=\"stim\">2</p>", "internal_node_id": "0.0-35.0-8.0", "time_elapsed": 339980, "key_press": -1, "trial_index": 52}, "uniqueid": "MTK3633:34T446B1C1LOAWGSLESORWM6JYTC09", "dateTime": 1520876614301}, {"current_trial": 53, "trialdata": {"rt": -1, "trial_type": "single-stim", "stimulus": "<p id=\"stim\">1</p>", "internal_node_id": "0.0-35.0-9.0", "time_elapsed": 340981, "key_press": -1, "trial_index": 53}, "uniqueid": "MTK3633:34T446B1C1LOAWGSLESORWM6JYTC09", "dateTime": 1520876615301}, {"current_trial": 54, "trialdata": {"rt": -1, "trial_type": "single-stim", "stimulus": "<p id=\"stim\">+</p>", "internal_node_id": "0.0-36.0-0.0", "time_elapsed": 342484, "key_press": -1, "type": "FIXATION", "trial_index": 54}, "uniqueid": "MTK3633:34T446B1C1LOAWGSLESORWM6JYTC09", "dateTime": 1520876616804}, {"current_trial": 55, "trialdata": {"rt": -1, "trial_type": "single-stim", "word": "robber", "stimulus": "<p id=\"stim\">ROBBER</p>", "conditions": [18, 1200, "v", 18000], "internal_node_id": "0.0-37.0", "trial": 1, "time_elapsed": 343689, "serialpos": 0, "key_press": -1, "wordID": 1196, "type": "PRES_VIS", "trial_index": 55}, "uniqueid": "MTK3633:34T446B1C1LOAWGSLESORWM6JYTC09", "dateTime": 1520876618009}, {"current_trial": 56, "trialdata": {"rt": -1, "trial_type": "single-stim", "word": "brook", "stimulus": "<p id=\"stim\">BROOK</p>", "conditions": [18, 1200, "v", 18000], "internal_node_id": "0.0-38.0", "trial": 1, "time_elapsed": 345884, "serialpos": 1, "key_press": -1, "wordID": 176, "type": "PRES_VIS", "trial_index": 56}, "uniqueid": "MTK3633:34T446B1C1LOAWGSLESORWM6JYTC09", "dateTime": 1520876620204}, {"current_trial": 57, "trialdata": {"rt": -1, "trial_type": "single-stim", "word": "tile", "stimulus": "<p id=\"stim\">TILE</p>", "conditions": [18, 1200, "v", 18000], "internal_node_id": "0.0-39.0", "trial": 1, "time_elapsed": 348160, "serialpos": 2, "key_press": -1, "wordID": 1467, "type": "PRES_VIS", "trial_index": 57}, "uniqueid": "MTK3633:34T446B1C1LOAWGSLESORWM6JYTC09", "dateTime": 1520876622480}, {"current_trial": 58, "trialdata": {"rt": -1, "trial_type": "single-stim", "word": "chemist", "stimulus": "<p id=\"stim\">CHEMIST</p>", "conditions": [18, 1200, "v", 18000], "internal_node_id": "0.0-40.0", "trial": 1, "time_elapsed": 350324, "serialpos": 3, "key_press": -1, "wordID": 291, "type": "PRES_VIS", "trial_index": 58}, "uniqueid": "MTK3633:34T446B1C1LOAWGSLESORWM6JYTC09", "dateTime": 1520876624644}, {"current_trial": 59, "trialdata": {"rt": -1, "trial_type": "single-stim", "word": "uncle", "stimulus": "<p id=\"stim\">UNCLE</p>", "conditions": [18, 1200, "v", 18000], "internal_node_id": "0.0-41.0", "trial": 1, "time_elapsed": 352527, "serialpos": 4, "key_press": -1, "wordID": 1535, "type": "PRES_VIS", "trial_index": 59}, "uniqueid": "MTK3633:34T446B1C1LOAWGSLESORWM6JYTC09", "dateTime": 1520876626847}, {"current_trial": 60, "trialdata": {"rt": -1, "trial_type": "single-stim", "word": "cashier", "stimulus": "<p id=\"stim\">CASHIER</p>", "conditions": [18, 1200, "v", 18000], "internal_node_id": "0.0-42.0", "trial": 1, "time_elapsed": 354592, "serialpos": 5, "key_press": -1, "wordID": 253, "type": "PRES_VIS", "trial_index": 60}, "uniqueid": "MTK3633:34T446B1C1LOAWGSLESORWM6JYTC09", "dateTime": 1520876628912}, {"current_trial": 61, "trialdata": {"rt": -1, "trial_type": "single-stim", "word": "pluto", "stimulus": "<p id=\"stim\">PLUTO</p>", "conditions": [18, 1200, "v", 18000], "internal_node_id": "0.0-43.0", "trial": 1, "time_elapsed": 356713, "serialpos": 6, "key_press": -1, "wordID": 1091, "type": "PRES_VIS", "trial_index": 61}, "uniqueid": "MTK3633:34T446B1C1LOAWGSLESORWM6JYTC09", "dateTime": 1520876631033}, {"current_trial": 62, "trialdata": {"rt": -1, "trial_type": "single-stim", "word": "breast", "stimulus": "<p id=\"stim\">BREAST</p>", "conditions": [18, 1200, "v", 18000], "internal_node_id": "0.0-44.0", "trial": 1, "time_elapsed": 359030, "serialpos": 7, "key_press": -1, "wordID": 170, "type": "PRES_VIS", "trial_index": 62}, "uniqueid": "MTK3633:34T446B1C1LOAWGSLESORWM6JYTC09", "dateTime": 1520876633350}, {"current_trial": 63, "trialdata": {"rt": -1, "trial_type": "single-stim", "word": "eyelash", "stimulus": "<p id=\"stim\">EYELASH</p>", "conditions": [18, 1200, "v", 18000], "internal_node_id": "0.0-45.0", "trial": 1, "time_elapsed": 361155, "serialpos": 8, "key_press": -1, "wordID": 545, "type": "PRES_VIS", "trial_index": 63}, "uniqueid": "MTK3633:34T446B1C1LOAWGSLESORWM6JYTC09", "dateTime": 1520876635475}, {"current_trial": 64, "trialdata": {"rt": -1, "trial_type": "single-stim", "word": "ketchup", "stimulus": "<p id=\"stim\">KETCHUP</p>", "conditions": [18, 1200, "v", 18000], "internal_node_id": "0.0-46.0", "trial": 1, "time_elapsed": 363399, "serialpos": 9, "key_press": -1, "wordID": 770, "type": "PRES_VIS", "trial_index": 64}, "uniqueid": "MTK3633:34T446B1C1LOAWGSLESORWM6JYTC09", "dateTime": 1520876637719}, {"current_trial": 65, "trialdata": {"rt": -1, "trial_type": "single-stim", "word": "machine", "stimulus": "<p id=\"stim\">MACHINE</p>", "conditions": [18, 1200, "v", 18000], "internal_node_id": "0.0-47.0", "trial": 1, "time_elapsed": 365462, "serialpos": 10, "key_press": -1, "wordID": 851, "type": "PRES_VIS", "trial_index": 65}, "uniqueid": "MTK3633:34T446B1C1LOAWGSLESORWM6JYTC09", "dateTime": 1520876639782}, {"current_trial": 66, "trialdata": {"rt": -1, "trial_type": "single-stim", "word": "cottage", "stimulus": "<p id=\"stim\">COTTAGE</p>", "conditions": [18, 1200, "v", 18000], "internal_node_id": "0.0-48.0", "trial": 1, "time_elapsed": 367525, "serialpos": 11, "key_press": -1, "wordID": 383, "type": "PRES_VIS", "trial_index": 66}, "uniqueid": "MTK3633:34T446B1C1LOAWGSLESORWM6JYTC09", "dateTime": 1520876641845}, {"current_trial": 67, "trialdata": {"rt": -1, "trial_type": "single-stim", "word": "egypt", "stimulus": "<p id=\"stim\">EGYPT</p>", "conditions": [18, 1200, "v", 18000], "internal_node_id": "0.0-49.0", "trial": 1, "time_elapsed": 369607, "serialpos": 12, "key_press": -1, "wordID": 518, "type": "PRES_VIS", "trial_index": 67}, "uniqueid": "MTK3633:34T446B1C1LOAWGSLESORWM6JYTC09", "dateTime": 1520876643927}, {"current_trial": 68, "trialdata": {"rt": -1, "trial_type": "single-stim", "word": "message", "stimulus": "<p id=\"stim\">MESSAGE</p>", "conditions": [18, 1200, "v", 18000], "internal_node_id": "0.0-50.0", "trial": 1, "time_elapsed": 371797, "serialpos": 13, "key_press": -1, "wordID": 887, "type": "PRES_VIS", "trial_index": 68}, "uniqueid": "MTK3633:34T446B1C1LOAWGSLESORWM6JYTC09", "dateTime": 1520876646121}, {"current_trial": 69, "trialdata": {"rt": -1, "trial_type": "single-stim", "word": "fragrance", "stimulus": "<p id=\"stim\">FRAGRANCE</p>", "conditions": [18, 1200, "v", 18000], "internal_node_id": "0.0-51.0", "trial": 1, "time_elapsed": 374190, "serialpos": 14, "key_press": -1, "wordID": 598, "type": "PRES_VIS", "trial_index": 69}, "uniqueid": "MTK3633:34T446B1C1LOAWGSLESORWM6JYTC09", "dateTime": 1520876648510}, {"current_trial": 70, "trialdata": {"rt": -1, "trial_type": "single-stim", "word": "cabin", "stimulus": "<p id=\"stim\">CABIN</p>", "conditions": [18, 1200, "v", 18000], "internal_node_id": "0.0-52.0", "trial": 1, "time_elapsed": 376201, "serialpos": 15, "key_press": -1, "wordID": 210, "type": "PRES_VIS", "trial_index": 70}, "uniqueid": "MTK3633:34T446B1C1LOAWGSLESORWM6JYTC09", "dateTime": 1520876650521}, {"current_trial": 71, "trialdata": {"rt": -1, "trial_type": "single-stim", "word": "princess", "stimulus": "<p id=\"stim\">PRINCESS</p>", "conditions": [18, 1200, "v", 18000], "internal_node_id": "0.0-53.0", "trial": 1, "time_elapsed": 378506, "serialpos": 16, "key_press": -1, "wordID": 1124, "type": "PRES_VIS", "trial_index": 71}, "uniqueid": "MTK3633:34T446B1C1LOAWGSLESORWM6JYTC09", "dateTime": 1520876652826}, {"current_trial": 72, "trialdata": {"rt": -1, "trial_type": "single-stim", "word": "chauffeur", "stimulus": "<p id=\"stim\">CHAUFFEUR</p>", "conditions": [18, 1200, "v", 18000], "internal_node_id": "0.0-54.0", "trial": 1, "time_elapsed": 380607, "serialpos": 17, "key_press": -1, "wordID": 282, "type": "PRES_VIS", "trial_index": 72}, "uniqueid": "MTK3633:34T446B1C1LOAWGSLESORWM6JYTC09", "dateTime": 1520876654928}, {"current_trial": 73, "trialdata": {"rt": -1, "trial_type": "single-stim", "stimulus": "", "internal_node_id": "0.0-55.0-0.0", "time_elapsed": 382977, "key_press": -1, "type": "PRE_RECALL_DELAY", "trial_index": 73}, "uniqueid": "MTK3633:34T446B1C1LOAWGSLESORWM6JYTC09", "dateTime": 1520876657297}, {"current_trial": 74, "trialdata": {"rt": -1000, "trial_type": "single-audio", "stimulus": "/static/audio/400Hz.wav", "internal_node_id": "0.0-56.0", "time_elapsed": 383480, "key_press": -1, "type": "PRE_RECALL_ALERT", "trial_index": 74}, "uniqueid": "MTK3633:34T446B1C1LOAWGSLESORWM6JYTC09", "dateTime": 1520876657803}, {"current_trial": 75, "trialdata": {"rt": [7365, 10594, 13537, 17680, 22441, 25845, 29541, 39294, 54629], "recwords": ["breast", "tile", "cabin", "egypt", "brook", "robber", "ketchup", "princess", "cashier"], "key_times": [5794, 5795, 5796, 5797, 5797, 5798, 7365, 8805, 9056, 9287, 9535, 10594, 11471, 11685, 11839, 12090, 12398, 13537, 14709, 14894, 15293, 15781, 16406, 16584, 17680, 20461, 20671, 20877, 21107, 21349, 22441, 24245, 24429, 24677, 24841, 24981, 25129, 25845, 26630, 26758, 26886, 27229, 27358, 27937, 28137, 29541, 36782, 36981, 37134, 37414, 38045, 38293, 38637, 38845, 39294, 52398, 52696, 52917, 53093, 53262, 53422, 53629, 54629], "trial_type": "free-recall", "conditions": [18, 1200, "v", 18000], "internal_node_id": "0.0-57.0-0.0", "key_presses": [66, 82, 69, 65, 83, 84, 13, 84, 73, 76, 69, 13, 67, 65, 66, 73, 78, 13, 16, 69, 71, 89, 80, 84, 13, 66, 82, 79, 79, 75, 13, 82, 79, 66, 66, 69, 82, 13, 75, 69, 84, 67, 72, 85, 80, 13, 80, 82, 73, 78, 67, 69, 83, 83, 13, 67, 65, 83, 72, 73, 69, 82, 13], "trial": 1, "time_elapsed": 443485, "type": "FREE_RECALL", "trial_index": 75}, "uniqueid": "MTK3633:34T446B1C1LOAWGSLESORWM6JYTC09", "dateTime": 1520876717809}, {"current_trial": 76, "trialdata": {"rt": 160168, "trial_type": "text", "internal_node_id": "0.0-58.0", "time_elapsed": 605659, "key_press": 13, "type": "INSTRUCTIONS", "trial_index": 76}, "uniqueid": "MTK3633:34T446B1C1LOAWGSLESORWM6JYTC09", "dateTime": 1520876879979}, {"current_trial": 77, "trialdata": {"rt": [4225, 10128], "trial_type": "math-distractor", "key_times": [3696, 3936, 4225, 9640, 9892, 10128, 11864], "responses": ["16", "21"], "num2": [8, 4, 1], "num3": [3, 9, 1], "conditions": [12, 800, "v", 12000], "internal_node_id": "0.0-59.0", "key_presses": [97, 102, 13, 98, 97, 13, 101], "trial": 2, "time_elapsed": 618675, "type": "DISTRACTOR", "trial_index": 77, "num1": [5, 8, 3]}, "uniqueid": "MTK3633:34T446B1C1LOAWGSLESORWM6JYTC09", "dateTime": 1520876892996}, {"current_trial": 78, "trialdata": {"rt": -1, "trial_type": "single-stim", "stimulus": "<p id=\"stim\">10</p>", "internal_node_id": "0.0-60.0-0.0", "time_elapsed": 621679, "key_press": -1, "trial_index": 78}, "uniqueid": "MTK3633:34T446B1C1LOAWGSLESORWM6JYTC09", "dateTime": 1520876895999}, {"current_trial": 79, "trialdata": {"rt": -1, "trial_type": "single-stim", "stimulus": "<p id=\"stim\">9</p>", "internal_node_id": "0.0-60.0-1.0", "time_elapsed": 622680, "key_press": -1, "trial_index": 79}, "uniqueid": "MTK3633:34T446B1C1LOAWGSLESORWM6JYTC09", "dateTime": 1520876897000}, {"current_trial": 80, "trialdata": {"rt": -1, "trial_type": "single-stim", "stimulus": "<p id=\"stim\">8</p>", "internal_node_id": "0.0-60.0-2.0", "time_elapsed": 623682, "key_press": -1, "trial_index": 80}, "uniqueid": "MTK3633:34T446B1C1LOAWGSLESORWM6JYTC09", "dateTime": 1520876898002}, {"current_trial": 81, "trialdata": {"rt": -1, "trial_type": "single-stim", "stimulus": "<p id=\"stim\">7</p>", "internal_node_id": "0.0-60.0-3.0", "time_elapsed": 624684, "key_press": -1, "trial_index": 81}, "uniqueid": "MTK3633:34T446B1C1LOAWGSLESORWM6JYTC09", "dateTime": 1520876899004}, {"current_trial": 82, "trialdata": {"rt": -1, "trial_type": "single-stim", "stimulus": "<p id=\"stim\">6</p>", "internal_node_id": "0.0-60.0-4.0", "time_elapsed": 625684, "key_press": -1, "trial_index": 82}, "uniqueid": "MTK3633:34T446B1C1LOAWGSLESORWM6JYTC09", "dateTime": 1520876900004}, {"current_trial": 83, "trialdata": {"rt": -1, "trial_type": "single-stim", "stimulus": "<p id=\"stim\">5</p>", "internal_node_id": "0.0-60.0-5.0", "time_elapsed": 626686, "key_press": -1, "trial_index": 83}, "uniqueid": "MTK3633:34T446B1C1LOAWGSLESORWM6JYTC09", "dateTime": 1520876901006}, {"current_trial": 84, "trialdata": {"rt": -1, "trial_type": "single-stim", "stimulus": "<p id=\"stim\">4</p>", "internal_node_id": "0.0-60.0-6.0", "time_elapsed": 627687, "key_press": -1, "trial_index": 84}, "uniqueid": "MTK3633:34T446B1C1LOAWGSLESORWM6JYTC09", "dateTime": 1520876902008}, {"current_trial": 85, "trialdata": {"rt": -1, "trial_type": "single-stim", "stimulus": "<p id=\"stim\">3</p>", "internal_node_id": "0.0-60.0-7.0", "time_elapsed": 628689, "key_press": -1, "trial_index": 85}, "uniqueid": "MTK3633:34T446B1C1LOAWGSLESORWM6JYTC09", "dateTime": 1520876903009}, {"current_trial": 86, "trialdata": {"rt": -1, "trial_type": "single-stim", "stimulus": "<p id=\"stim\">2</p>", "internal_node_id": "0.0-60.0-8.0", "time_elapsed": 629692, "key_press": -1, "trial_index": 86}, "uniqueid": "MTK3633:34T446B1C1LOAWGSLESORWM6JYTC09", "dateTime": 1520876904012}, {"current_trial": 87, "trialdata": {"rt": -1, "trial_type": "single-stim", "stimulus": "<p id=\"stim\">1</p>", "internal_node_id": "0.0-60.0-9.0", "time_elapsed": 630692, "key_press": -1, "trial_index": 87}, "uniqueid": "MTK3633:34T446B1C1LOAWGSLESORWM6JYTC09", "dateTime": 1520876905012}, {"current_trial": 88, "trialdata": {"rt": -1, "trial_type": "single-stim", "stimulus": "<p id=\"stim\">+</p>", "internal_node_id": "0.0-61.0-0.0", "time_elapsed": 632195, "key_press": -1, "type": "FIXATION", "trial_index": 88}, "uniqueid": "MTK3633:34T446B1C1LOAWGSLESORWM6JYTC09", "dateTime": 1520876906515}, {"current_trial": 89, "trialdata": {"rt": -1, "trial_type": "single-stim", "word": "beaver", "stimulus": "<p id=\"stim\">BEAVER</p>", "conditions": [12, 800, "v", 12000], "internal_node_id": "0.0-62.0", "trial": 2, "time_elapsed": 632996, "serialpos": 0, "key_press": -1, "wordID": 108, "type": "PRES_VIS", "trial_index": 89}, "uniqueid": "MTK3633:34T446B1C1LOAWGSLESORWM6JYTC09", "dateTime": 1520876907316}, {"current_trial": 90, "trialdata": {"rt": -1, "trial_type": "single-stim", "word": "twig", "stimulus": "<p id=\"stim\">TWIG</p>", "conditions": [12, 800, "v", 12000], "internal_node_id": "0.0-63.0", "trial": 2, "time_elapsed": 634753, "serialpos": 1, "key_press": -1, "wordID": 1526, "type": "PRES_VIS", "trial_index": 90}, "uniqueid": "MTK3633:34T446B1C1LOAWGSLESORWM6JYTC09", "dateTime": 1520876909073}, {"current_trial": 91, "trialdata": {"rt": -1, "trial_type": "single-stim", "word": "lizard", "stimulus": "<p id=\"stim\">LIZARD</p>", "conditions": [12, 800, "v", 12000], "internal_node_id": "0.0-64.0", "trial": 2, "time_elapsed": 636646, "serialpos": 2, "key_press": -1, "wordID": 833, "type": "PRES_VIS", "trial_index": 91}, "uniqueid": "MTK3633:34T446B1C1LOAWGSLESORWM6JYTC09", "dateTime": 1520876910966}, {"current_trial": 92, "trialdata": {"rt": -1, "trial_type": "single-stim", "word": "lady", "stimulus": "<p id=\"stim\">LADY</p>", "conditions": [12, 800, "v", 12000], "internal_node_id": "0.0-65.0", "trial": 2, "time_elapsed": 638616, "serialpos": 3, "key_press": -1, "wordID": 793, "type": "PRES_VIS", "trial_index": 92}, "uniqueid": "MTK3633:34T446B1C1LOAWGSLESORWM6JYTC09", "dateTime": 1520876912938}, {"current_trial": 93, "trialdata": {"rt": -1, "trial_type": "single-stim", "word": "tourist", "stimulus": "<p id=\"stim\">TOURIST</p>", "conditions": [12, 800, "v", 12000], "internal_node_id": "0.0-66.0", "trial": 2, "time_elapsed": 640620, "serialpos": 4, "key_press": -1, "wordID": 1487, "type": "PRES_VIS", "trial_index": 93}, "uniqueid": "MTK3633:34T446B1C1LOAWGSLESORWM6JYTC09", "dateTime": 1520876914940}, {"current_trial": 94, "trialdata": {"rt": -1, "trial_type": "single-stim", "word": "chipmunk", "stimulus": "<p id=\"stim\">CHIPMUNK</p>", "conditions": [12, 800, "v", 12000], "internal_node_id": "0.0-67.0", "trial": 2, "time_elapsed": 642533, "serialpos": 5, "key_press": -1, "wordID": 303, "type": "PRES_VIS", "trial_index": 94}, "uniqueid": "MTK3633:34T446B1C1LOAWGSLESORWM6JYTC09", "dateTime": 1520876916854}, {"current_trial": 95, "trialdata": {"rt": -1, "trial_type": "single-stim", "word": "sheriff", "stimulus": "<p id=\"stim\">SHERIFF</p>", "conditions": [12, 800, "v", 12000], "internal_node_id": "0.0-68.0", "trial": 2, "time_elapsed": 644254, "serialpos": 6, "key_press": -1, "wordID": 1283, "type": "PRES_VIS", "trial_index": 95}, "uniqueid": "MTK3633:34T446B1C1LOAWGSLESORWM6JYTC09", "dateTime": 1520876918574}, {"current_trial": 96, "trialdata": {"rt": -1, "trial_type": "single-stim", "word": "toaster", "stimulus": "<p id=\"stim\">TOASTER</p>", "conditions": [12, 800, "v", 12000], "internal_node_id": "0.0-69.0", "trial": 2, "time_elapsed": 646089, "serialpos": 7, "key_press": -1, "wordID": 1471, "type": "PRES_VIS", "trial_index": 96}, "uniqueid": "MTK3633:34T446B1C1LOAWGSLESORWM6JYTC09", "dateTime": 1520876920411}, {"current_trial": 97, "trialdata": {"rt": -1, "trial_type": "single-stim", "word": "stove", "stimulus": "<p id=\"stim\">STOVE</p>", "conditions": [12, 800, "v", 12000], "internal_node_id": "0.0-70.0", "trial": 2, "time_elapsed": 647796, "serialpos": 8, "key_press": -1, "wordID": 1387, "type": "PRES_VIS", "trial_index": 97}, "uniqueid": "MTK3633:34T446B1C1LOAWGSLESORWM6JYTC09", "dateTime": 1520876922116}, {"current_trial": 98, "trialdata": {"rt": -1, "trial_type": "single-stim", "word": "cupboard", "stimulus": "<p id=\"stim\">CUPBOARD</p>", "conditions": [12, 800, "v", 12000], "internal_node_id": "0.0-71.0", "trial": 2, "time_elapsed": 649419, "serialpos": 9, "key_press": -1, "wordID": 424, "type": "PRES_VIS", "trial_index": 98}, "uniqueid": "MTK3633:34T446B1C1LOAWGSLESORWM6JYTC09", "dateTime": 1520876923739}, {"current_trial": 99, "trialdata": {"rt": -1, "trial_type": "single-stim", "word": "cross", "stimulus": "<p id=\"stim\">CROSS</p>", "conditions": [12, 800, "v", 12000], "internal_node_id": "0.0-72.0", "trial": 2, "time_elapsed": 651332, "serialpos": 10, "key_press": -1, "wordID": 412, "type": "PRES_VIS", "trial_index": 99}, "uniqueid": "MTK3633:34T446B1C1LOAWGSLESORWM6JYTC09", "dateTime": 1520876925652}, {"current_trial": 100, "trialdata": {"rt": -1, "trial_type": "single-stim", "word": "husband", "stimulus": "<p id=\"stim\">HUSBAND</p>", "conditions": [12, 800, "v", 12000], "internal_node_id": "0.0-73.0", "trial": 2, "time_elapsed": 653182, "serialpos": 11, "key_press": -1, "wordID": 727, "type": "PRES_VIS", "trial_index": 100}, "uniqueid": "MTK3633:34T446B1C1LOAWGSLESORWM6JYTC09", "dateTime": 1520876927502}, {"current_trial": 101, "trialdata": {"rt": -1, "trial_type": "single-stim", "stimulus": "", "internal_node_id": "0.0-74.0-0.0", "time_elapsed": 655351, "key_press": -1, "type": "PRE_RECALL_DELAY", "trial_index": 101}, "uniqueid": "MTK3633:34T446B1C1LOAWGSLESORWM6JYTC09", "dateTime": 1520876929671}, {"current_trial": 102, "trialdata": {"rt": -1000, "trial_type": "single-audio", "stimulus": "/static/audio/400Hz.wav", "internal_node_id": "0.0-75.0", "time_elapsed": 655855, "key_press": -1, "type": "PRE_RECALL_ALERT", "trial_index": 102}, "uniqueid": "MTK3633:34T446B1C1LOAWGSLESORWM6JYTC09", "dateTime": 1520876930175}, {"current_trial": 103, "trialdata": {"rt": [3703, 6483, 10404, 18011, 29842], "recwords": ["cross", "lady", "twig", "beaver", "husband"], "key_times": [2042, 2330, 2554, 2867, 3099, 3703, 4499, 4666, 4890, 5114, 6483, 7971, 8314, 8643, 8898, 10404, 15842, 16019, 16235, 16394, 16564, 16726, 18011, 27674, 27907, 28074, 28458, 28667, 28858, 29051, 29842], "trial_type": "free-recall", "conditions": [12, 800, "v", 12000], "internal_node_id": "0.0-76.0-0.0", "key_presses": [67, 82, 79, 83, 83, 13, 76, 65, 68, 89, 13, 84, 87, 73, 71, 13, 66, 69, 65, 86, 69, 82, 13, 72, 85, 83, 66, 65, 78, 68, 13], "trial": 2, "time_elapsed": 715857, "type": "FREE_RECALL", "trial_index": 103}, "uniqueid": "MTK3633:34T446B1C1LOAWGSLESORWM6JYTC09", "dateTime": 1520876990180}, {"current_trial": 104, "trialdata": {"rt": 11597, "trial_type": "text", "internal_node_id": "0.0-77.0", "time_elapsed": 729459, "key_press": 13, "type": "INSTRUCTIONS", "trial_index": 104}, "uniqueid": "MTK3633:34T446B1C1LOAWGSLESORWM6JYTC09", "dateTime": 1520877003779}, {"current_trial": 105, "trialdata": {"rt": [3696, 12176, 15112, 19200, 21496], "trial_type": "math-distractor", "key_times": [2844, 3107, 3696, 6392, 7592, 11632, 11872, 12176, 14616, 14808, 15112, 18401, 18640, 19200, 20911, 21144, 21496, 23776, 23992], "responses": ["17", "21", "22", "21", "16"], "num2": [4, 8, 9, 9, 9, 3], "num3": [6, 4, 4, 8, 1, 5], "conditions": [24, 800, "v", 24000], "internal_node_id": "0.0-78.0", "key_presses": [97, 103, 13, 97, 8, 98, 97, 13, 98, 98, 13, 98, 97, 13, 97, 102, 13, 97, 100], "trial": 3, "time_elapsed": 755474, "type": "DISTRACTOR", "trial_index": 105, "num1": [7, 9, 9, 4, 6, 6]}, "uniqueid": "MTK3633:34T446B1C1LOAWGSLESORWM6JYTC09", "dateTime": 1520877029794}, {"current_trial": 106, "trialdata": {"rt": -1, "trial_type": "single-stim", "stimulus": "<p id=\"stim\">10</p>", "internal_node_id": "0.0-79.0-0.0", "time_elapsed": 758479, "key_press": -1, "trial_index": 106}, "uniqueid": "MTK3633:34T446B1C1LOAWGSLESORWM6JYTC09", "dateTime": 1520877032799}, {"current_trial": 107, "trialdata": {"rt": -1, "trial_type": "single-stim", "stimulus": "<p id=\"stim\">9</p>", "internal_node_id": "0.0-79.0-1.0", "time_elapsed": 759481, "key_press": -1, "trial_index": 107}, "uniqueid": "MTK3633:34T446B1C1LOAWGSLESORWM6JYTC09", "dateTime": 1520877033801}, {"current_trial": 108, "trialdata": {"rt": -1, "trial_type": "single-stim", "stimulus": "<p id=\"stim\">8</p>", "internal_node_id": "0.0-79.0-2.0", "time_elapsed": 760483, "key_press": -1, "trial_index": 108}, "uniqueid": "MTK3633:34T446B1C1LOAWGSLESORWM6JYTC09", "dateTime": 1520877034803}, {"current_trial": 109, "trialdata": {"rt": -1, "trial_type": "single-stim", "stimulus": "<p id=\"stim\">7</p>", "internal_node_id": "0.0-79.0-3.0", "time_elapsed": 761483, "key_press": -1, "trial_index": 109}, "uniqueid": "MTK3633:34T446B1C1LOAWGSLESORWM6JYTC09", "dateTime": 1520877035803}, {"current_trial": 110, "trialdata": {"rt": -1, "trial_type": "single-stim", "stimulus": "<p id=\"stim\">6</p>", "internal_node_id": "0.0-79.0-4.0", "time_elapsed": 762485, "key_press": -1, "trial_index": 110}, "uniqueid": "MTK3633:34T446B1C1LOAWGSLESORWM6JYTC09", "dateTime": 1520877036805}, {"current_trial": 111, "trialdata": {"rt": -1, "trial_type": "single-stim", "stimulus": "<p id=\"stim\">5</p>", "internal_node_id": "0.0-79.0-5.0", "time_elapsed": 763487, "key_press": -1, "trial_index": 111}, "uniqueid": "MTK3633:34T446B1C1LOAWGSLESORWM6JYTC09", "dateTime": 1520877037807}, {"current_trial": 112, "trialdata": {"rt": -1, "trial_type": "single-stim", "stimulus": "<p id=\"stim\">4</p>", "internal_node_id": "0.0-79.0-6.0", "time_elapsed": 764489, "key_press": -1, "trial_index": 112}, "uniqueid": "MTK3633:34T446B1C1LOAWGSLESORWM6JYTC09", "dateTime": 1520877038809}, {"current_trial": 113, "trialdata": {"rt": -1, "trial_type": "single-stim", "stimulus": "<p id=\"stim\">3</p>", "internal_node_id": "0.0-79.0-7.0", "time_elapsed": 765491, "key_press": -1, "trial_index": 113}, "uniqueid": "MTK3633:34T446B1C1LOAWGSLESORWM6JYTC09", "dateTime": 1520877039811}, {"current_trial": 114, "trialdata": {"rt": -1, "trial_type": "single-stim", "stimulus": "<p id=\"stim\">2</p>", "internal_node_id": "0.0-79.0-8.0", "time_elapsed": 766492, "key_press": -1, "trial_index": 114}, "uniqueid": "MTK3633:34T446B1C1LOAWGSLESORWM6JYTC09", "dateTime": 1520877040812}, {"current_trial": 115, "trialdata": {"rt": -1, "trial_type": "single-stim", "stimulus": "<p id=\"stim\">1</p>", "internal_node_id": "0.0-79.0-9.0", "time_elapsed": 767493, "key_press": -1, "trial_index": 115}, "uniqueid": "MTK3633:34T446B1C1LOAWGSLESORWM6JYTC09", "dateTime": 1520877041813}, {"current_trial": 116, "trialdata": {"rt": -1, "trial_type": "single-stim", "stimulus": "<p id=\"stim\">+</p>", "internal_node_id": "0.0-80.0-0.0", "time_elapsed": 768995, "key_press": -1, "type": "FIXATION", "trial_index": 116}, "uniqueid": "MTK3633:34T446B1C1LOAWGSLESORWM6JYTC09", "dateTime": 1520877043315}, {"current_trial": 117, "trialdata": {"rt": -1, "trial_type": "single-stim", "word": "scarf", "stimulus": "<p id=\"stim\">SCARF</p>", "conditions": [24, 800, "v", 24000], "internal_node_id": "0.0-81.0", "trial": 3, "time_elapsed": 769797, "serialpos": 0, "key_press": -1, "wordID": 1245, "type": "PRES_VIS", "trial_index": 117}, "uniqueid": "MTK3633:34T446B1C1LOAWGSLESORWM6JYTC09", "dateTime": 1520877044117}, {"current_trial": 118, "trialdata": {"rt": -1, "trial_type": "single-stim", "word": "motel", "stimulus": "<p id=\"stim\">MOTEL</p>", "conditions": [24, 800, "v", 24000], "internal_node_id": "0.0-82.0", "trial": 3, "time_elapsed": 771525, "serialpos": 1, "key_press": -1, "wordID": 918, "type": "PRES_VIS", "trial_index": 118}, "uniqueid": "MTK3633:34T446B1C1LOAWGSLESORWM6JYTC09", "dateTime": 1520877045845}, {"current_trial": 119, "trialdata": {"rt": -1, "trial_type": "single-stim", "word": "lake", "stimulus": "<p id=\"stim\">LAKE</p>", "conditions": [24, 800, "v", 24000], "internal_node_id": "0.0-83.0", "trial": 3, "time_elapsed": 773379, "serialpos": 2, "key_press": -1, "wordID": 795, "type": "PRES_VIS", "trial_index": 119}, "uniqueid": "MTK3633:34T446B1C1LOAWGSLESORWM6JYTC09", "dateTime": 1520877047699}, {"current_trial": 120, "trialdata": {"rt": -1, "trial_type": "single-stim", "word": "supper", "stimulus": "<p id=\"stim\">SUPPER</p>", "conditions": [24, 800, "v", 24000], "internal_node_id": "0.0-84.0", "trial": 3, "time_elapsed": 775133, "serialpos": 3, "key_press": -1, "wordID": 1410, "type": "PRES_VIS", "trial_index": 120}, "uniqueid": "MTK3633:34T446B1C1LOAWGSLESORWM6JYTC09", "dateTime": 1520877049453}, {"current_trial": 121, "trialdata": {"rt": -1, "trial_type": "single-stim", "word": "dresser", "stimulus": "<p id=\"stim\">DRESSER</p>", "conditions": [24, 800, "v", 24000], "internal_node_id": "0.0-85.0", "trial": 3, "time_elapsed": 776833, "serialpos": 4, "key_press": -1, "wordID": 495, "type": "PRES_VIS", "trial_index": 121}, "uniqueid": "MTK3633:34T446B1C1LOAWGSLESORWM6JYTC09", "dateTime": 1520877051153}, {"current_trial": 122, "trialdata": {"rt": -1, "trial_type": "single-stim", "word": "tombstone", "stimulus": "<p id=\"stim\">TOMBSTONE</p>", "conditions": [24, 800, "v", 24000], "internal_node_id": "0.0-86.0", "trial": 3, "time_elapsed": 778616, "serialpos": 5, "key_press": -1, "wordID": 1477, "type": "PRES_VIS", "trial_index": 122}, "uniqueid": "MTK3633:34T446B1C1LOAWGSLESORWM6JYTC09", "dateTime": 1520877052936}, {"current_trial": 123, "trialdata": {"rt": -1, "trial_type": "single-stim", "word": "poet", "stimulus": "<p id=\"stim\">POET</p>", "conditions": [24, 800, "v", 24000], "internal_node_id": "0.0-87.0", "trial": 3, "time_elapsed": 780257, "serialpos": 6, "key_press": -1, "wordID": 1094, "type": "PRES_VIS", "trial_index": 123}, "uniqueid": "MTK3633:34T446B1C1LOAWGSLESORWM6JYTC09", "dateTime": 1520877054577}, {"current_trial": 124, "trialdata": {"rt": -1, "trial_type": "single-stim", "word": "actor", "stimulus": "<p id=\"stim\">ACTOR</p>", "conditions": [24, 800, "v", 24000], "internal_node_id": "0.0-88.0", "trial": 3, "time_elapsed": 782183, "serialpos": 7, "key_press": -1, "wordID": 4, "type": "PRES_VIS", "trial_index": 124}, "uniqueid": "MTK3633:34T446B1C1LOAWGSLESORWM6JYTC09", "dateTime": 1520877056503}, {"current_trial": 125, "trialdata": {"rt": -1, "trial_type": "single-stim", "word": "wagon", "stimulus": "<p id=\"stim\">WAGON</p>", "conditions": [24, 800, "v", 24000], "internal_node_id": "0.0-89.0", "trial": 3, "time_elapsed": 784071, "serialpos": 8, "key_press": -1, "wordID": 1577, "type": "PRES_VIS", "trial_index": 125}, "uniqueid": "MTK3633:34T446B1C1LOAWGSLESORWM6JYTC09", "dateTime": 1520877058391}, {"current_trial": 126, "trialdata": {"rt": -1, "trial_type": "single-stim", "word": "truck", "stimulus": "<p id=\"stim\">TRUCK</p>", "conditions": [24, 800, "v", 24000], "internal_node_id": "0.0-90.0", "trial": 3, "time_elapsed": 786006, "serialpos": 9, "key_press": -1, "wordID": 1511, "type": "PRES_VIS", "trial_index": 126}, "uniqueid": "MTK3633:34T446B1C1LOAWGSLESORWM6JYTC09", "dateTime": 1520877060326}, {"current_trial": 127, "trialdata": {"rt": -1, "trial_type": "single-stim", "word": "swamp", "stimulus": "<p id=\"stim\">SWAMP</p>", "conditions": [24, 800, "v", 24000], "internal_node_id": "0.0-91.0", "trial": 3, "time_elapsed": 787996, "serialpos": 10, "key_press": -1, "wordID": 1415, "type": "PRES_VIS", "trial_index": 127}, "uniqueid": "MTK3633:34T446B1C1LOAWGSLESORWM6JYTC09", "dateTime": 1520877062316}, {"current_trial": 128, "trialdata": {"rt": -1, "trial_type": "single-stim", "word": "blouse", "stimulus": "<p id=\"stim\">BLOUSE</p>", "conditions": [24, 800, "v", 24000], "internal_node_id": "0.0-92.0", "trial": 3, "time_elapsed": 790008, "serialpos": 11, "key_press": -1, "wordID": 138, "type": "PRES_VIS", "trial_index": 128}, "uniqueid": "MTK3633:34T446B1C1LOAWGSLESORWM6JYTC09", "dateTime": 1520877064328}, {"current_trial": 129, "trialdata": {"rt": -1, "trial_type": "single-stim", "word": "butcher", "stimulus": "<p id=\"stim\">BUTCHER</p>", "conditions": [24, 800, "v", 24000], "internal_node_id": "0.0-93.0", "trial": 3, "time_elapsed": 791722, "serialpos": 12, "key_press": -1, "wordID": 202, "type": "PRES_VIS", "trial_index": 129}, "uniqueid": "MTK3633:34T446B1C1LOAWGSLESORWM6JYTC09", "dateTime": 1520877066043}, {"current_trial": 130, "trialdata": {"rt": -1, "trial_type": "single-stim", "word": "army", "stimulus": "<p id=\"stim\">ARMY</p>", "conditions": [24, 800, "v", 24000], "internal_node_id": "0.0-94.0", "trial": 3, "time_elapsed": 793399, "serialpos": 13, "key_press": -1, "wordID": 38, "type": "PRES_VIS", "trial_index": 130}, "uniqueid": "MTK3633:34T446B1C1LOAWGSLESORWM6JYTC09", "dateTime": 1520877067719}, {"current_trial": 131, "trialdata": {"rt": -1, "trial_type": "single-stim", "word": "apple", "stimulus": "<p id=\"stim\">APPLE</p>", "conditions": [24, 800, "v", 24000], "internal_node_id": "0.0-95.0", "trial": 3, "time_elapsed": 795153, "serialpos": 14, "key_press": -1, "wordID": 32, "type": "PRES_VIS", "trial_index": 131}, "uniqueid": "MTK3633:34T446B1C1LOAWGSLESORWM6JYTC09", "dateTime": 1520877069474}, {"current_trial": 132, "trialdata": {"rt": -1, "trial_type": "single-stim", "word": "seafood", "stimulus": "<p id=\"stim\">SEAFOOD</p>", "conditions": [24, 800, "v", 24000], "internal_node_id": "0.0-96.0", "trial": 3, "time_elapsed": 796897, "serialpos": 15, "key_press": -1, "wordID": 1259, "type": "PRES_VIS", "trial_index": 132}, "uniqueid": "MTK3633:34T446B1C1LOAWGSLESORWM6JYTC09", "dateTime": 1520877071217}, {"current_trial": 133, "trialdata": {"rt": -1, "trial_type": "single-stim", "word": "baby", "stimulus": "<p id=\"stim\">BABY</p>", "conditions": [24, 800, "v", 24000], "internal_node_id": "0.0-97.0", "trial": 3, "time_elapsed": 798571, "serialpos": 16, "key_press": -1, "wordID": 63, "type": "PRES_VIS", "trial_index": 133}, "uniqueid": "MTK3633:34T446B1C1LOAWGSLESORWM6JYTC09", "dateTime": 1520877072891}, {"current_trial": 134, "trialdata": {"rt": -1, "trial_type": "single-stim", "word": "powder", "stimulus": "<p id=\"stim\">POWDER</p>", "conditions": [24, 800, "v", 24000], "internal_node_id": "0.0-98.0", "trial": 3, "time_elapsed": 800511, "serialpos": 17, "key_press": -1, "wordID": 1116, "type": "PRES_VIS", "trial_index": 134}, "uniqueid": "MTK3633:34T446B1C1LOAWGSLESORWM6JYTC09", "dateTime": 1520877074831}, {"current_trial": 135, "trialdata": {"rt": -1, "trial_type": "single-stim", "word": "napkin", "stimulus": "<p id=\"stim\">NAPKIN</p>", "conditions": [24, 800, "v", 24000], "internal_node_id": "0.0-99.0", "trial": 3, "time_elapsed": 802237, "serialpos": 18, "key_press": -1, "wordID": 936, "type": "PRES_VIS", "trial_index": 135}, "uniqueid": "MTK3633:34T446B1C1LOAWGSLESORWM6JYTC09", "dateTime": 1520877076557}, {"current_trial": 136, "trialdata": {"rt": -1, "trial_type": "single-stim", "word": "sidewalk", "stimulus": "<p id=\"stim\">SIDEWALK</p>", "conditions": [24, 800, "v", 24000], "internal_node_id": "0.0-100.0", "trial": 3, "time_elapsed": 803991, "serialpos": 19, "key_press": -1, "wordID": 1302, "type": "PRES_VIS", "trial_index": 136}, "uniqueid": "MTK3633:34T446B1C1LOAWGSLESORWM6JYTC09", "dateTime": 1520877078312}, {"current_trial": 137, "trialdata": {"rt": -1, "trial_type": "single-stim", "word": "plaza", "stimulus": "<p id=\"stim\">PLAZA</p>", "conditions": [24, 800, "v", 24000], "internal_node_id": "0.0-101.0", "trial": 3, "time_elapsed": 805763, "serialpos": 20, "key_press": -1, "wordID": 1087, "type": "PRES_VIS", "trial_index": 137}, "uniqueid": "MTK3633:34T446B1C1LOAWGSLESORWM6JYTC09", "dateTime": 1520877080083}, {"current_trial": 138, "trialdata": {"rt": -1, "trial_type": "single-stim", "word": "mildew", "stimulus": "<p id=\"stim\">MILDEW</p>", "conditions": [24, 800, "v", 24000], "internal_node_id": "0.0-102.0", "trial": 3, "time_elapsed": 807622, "serialpos": 21, "key_press": -1, "wordID": 892, "type": "PRES_VIS", "trial_index": 138}, "uniqueid": "MTK3633:34T446B1C1LOAWGSLESORWM6JYTC09", "dateTime": 1520877081942}, {"current_trial": 139, "trialdata": {"rt": -1, "trial_type": "single-stim", "word": "puppy", "stimulus": "<p id=\"stim\">PUPPY</p>", "conditions": [24, 800, "v", 24000], "internal_node_id": "0.0-103.0", "trial": 3, "time_elapsed": 809525, "serialpos": 22, "key_press": -1, "wordID": 1143, "type": "PRES_VIS", "trial_index": 139}, "uniqueid": "MTK3633:34T446B1C1LOAWGSLESORWM6JYTC09", "dateTime": 1520877083845}, {"current_trial": 140, "trialdata": {"rt": -1, "trial_type": "single-stim", "word": "whistle", "stimulus": "<p id=\"stim\">WHISTLE</p>", "conditions": [24, 800, "v", 24000], "internal_node_id": "0.0-104.0", "trial": 3, "time_elapsed": 811352, "serialpos": 23, "key_press": -1, "wordID": 1605, "type": "PRES_VIS", "trial_index": 140}, "uniqueid": "MTK3633:34T446B1C1LOAWGSLESORWM6JYTC09", "dateTime": 1520877085672}, {"current_trial": 141, "trialdata": {"rt": -1, "trial_type": "single-stim", "stimulus": "", "internal_node_id": "0.0-105.0-0.0", "time_elapsed": 813620, "key_press": -1, "type": "PRE_RECALL_DELAY", "trial_index": 141}, "uniqueid": "MTK3633:34T446B1C1LOAWGSLESORWM6JYTC09", "dateTime": 1520877087940}, {"current_trial": 142, "trialdata": {"rt": -1000, "trial_type": "single-audio", "stimulus": "/static/audio/400Hz.wav", "internal_node_id": "0.0-106.0", "time_elapsed": 814120, "key_press": -1, "type": "PRE_RECALL_ALERT", "trial_index": 142}, "uniqueid": "MTK3633:34T446B1C1LOAWGSLESORWM6JYTC09", "dateTime": 1520877088440}, {"current_trial": 143, "trialdata": {"rt": [4065, 6451, 8535, 11896, 14960, 17184, 19648, 22048, 24583, 34656], "recwords": ["whistle", "puppy", "baby", "powder", "scarf", "actor", "lake", "motel", "poet", "wagon"], "key_times": [1697, 1960, 2248, 2520, 2752, 2961, 3177, 4065, 4648, 4960, 5208, 5392, 5696, 6451, 7041, 7223, 7384, 7696, 8535, 9328, 9599, 9800, 10264, 10576, 10783, 11896, 13232, 13496, 13656, 13856, 14154, 14960, 15615, 15848, 16134, 16351, 16536, 17184, 17959, 18144, 18720, 18880, 19648, 20408, 20584, 20728, 20968, 21160, 22048, 23008, 23272, 23504, 23703, 24583, 32447, 32703, 33016, 33311, 33584, 34656], "trial_type": "free-recall", "conditions": [24, 800, "v", 24000], "internal_node_id": "0.0-107.0-0.0", "key_presses": [87, 72, 73, 83, 84, 76, 69, 13, 80, 85, 80, 80, 89, 13, 66, 65, 66, 89, 13, 80, 79, 87, 68, 69, 82, 13, 83, 67, 65, 82, 70, 13, 65, 67, 84, 79, 82, 13, 76, 65, 75, 69, 13, 77, 79, 84, 69, 76, 13, 80, 79, 69, 84, 13, 87, 65, 71, 79, 78, 13], "trial": 3, "time_elapsed": 874133, "type": "FREE_RECALL", "trial_index": 143}, "uniqueid": "MTK3633:34T446B1C1LOAWGSLESORWM6JYTC09", "dateTime": 1520877148459}, {"current_trial": 144, "trialdata": {"rt": 6271, "trial_type": "text", "internal_node_id": "0.0-108.0", "time_elapsed": 882412, "key_press": 13, "type": "INSTRUCTIONS", "trial_index": 144}, "uniqueid": "MTK3633:34T446B1C1LOAWGSLESORWM6JYTC09", "dateTime": 1520877156732}, {"current_trial": 145, "trialdata": {"rt": [3227, 6826, 11234], "trial_type": "math-distractor", "key_times": [2619, 2882, 3227, 6091, 6354, 6826, 10563, 10810, 11234], "responses": ["16", "20", "12"], "num2": [5, 8, 4, 1], "num3": [9, 8, 1, 4], "conditions": [24, 1600, "v", 12000], "internal_node_id": "0.0-109.0", "key_presses": [97, 102, 13, 98, 96, 13, 97, 98, 13], "trial": 4, "time_elapsed": 896434, "type": "DISTRACTOR", "trial_index": 145, "num1": [2, 4, 7, 7]}, "uniqueid": "MTK3633:34T446B1C1LOAWGSLESORWM6JYTC09", "dateTime": 1520877170754}, {"current_trial": 146, "trialdata": {"rt": -1, "trial_type": "single-stim", "stimulus": "<p id=\"stim\">10</p>", "internal_node_id": "0.0-110.0-0.0", "time_elapsed": 899435, "key_press": -1, "trial_index": 146}, "uniqueid": "MTK3633:34T446B1C1LOAWGSLESORWM6JYTC09", "dateTime": 1520877173756}, {"current_trial": 147, "trialdata": {"rt": -1, "trial_type": "single-stim", "stimulus": "<p id=\"stim\">9</p>", "internal_node_id": "0.0-110.0-1.0", "time_elapsed": 900437, "key_press": -1, "trial_index": 147}, "uniqueid": "MTK3633:34T446B1C1LOAWGSLESORWM6JYTC09", "dateTime": 1520877174757}, {"current_trial": 148, "trialdata": {"rt": -1, "trial_type": "single-stim", "stimulus": "<p id=\"stim\">8</p>", "internal_node_id": "0.0-110.0-2.0", "time_elapsed": 901439, "key_press": -1, "trial_index": 148}, "uniqueid": "MTK3633:34T446B1C1LOAWGSLESORWM6JYTC09", "dateTime": 1520877175759}, {"current_trial": 149, "trialdata": {"rt": -1, "trial_type": "single-stim", "stimulus": "<p id=\"stim\">7</p>", "internal_node_id": "0.0-110.0-3.0", "time_elapsed": 902456, "key_press": -1, "trial_index": 149}, "uniqueid": "MTK3633:34T446B1C1LOAWGSLESORWM6JYTC09", "dateTime": 1520877176776}, {"current_trial": 150, "trialdata": {"rt": -1, "trial_type": "single-stim", "stimulus": "<p id=\"stim\">6</p>", "internal_node_id": "0.0-110.0-4.0", "time_elapsed": 903458, "key_press": -1, "trial_index": 150}, "uniqueid": "MTK3633:34T446B1C1LOAWGSLESORWM6JYTC09", "dateTime": 1520877177778}, {"current_trial": 151, "trialdata": {"rt": -1, "trial_type": "single-stim", "stimulus": "<p id=\"stim\">5</p>", "internal_node_id": "0.0-110.0-5.0", "time_elapsed": 904460, "key_press": -1, "trial_index": 151}, "uniqueid": "MTK3633:34T446B1C1LOAWGSLESORWM6JYTC09", "dateTime": 1520877178780}, {"current_trial": 152, "trialdata": {"rt": -1, "trial_type": "single-stim", "stimulus": "<p id=\"stim\">4</p>", "internal_node_id": "0.0-110.0-6.0", "time_elapsed": 905461, "key_press": -1, "trial_index": 152}, "uniqueid": "MTK3633:34T446B1C1LOAWGSLESORWM6JYTC09", "dateTime": 1520877179781}, {"current_trial": 153, "trialdata": {"rt": -1, "trial_type": "single-stim", "stimulus": "<p id=\"stim\">3</p>", "internal_node_id": "0.0-110.0-7.0", "time_elapsed": 906464, "key_press": -1, "trial_index": 153}, "uniqueid": "MTK3633:34T446B1C1LOAWGSLESORWM6JYTC09", "dateTime": 1520877180784}, {"current_trial": 154, "trialdata": {"rt": -1, "trial_type": "single-stim", "stimulus": "<p id=\"stim\">2</p>", "internal_node_id": "0.0-110.0-8.0", "time_elapsed": 907465, "key_press": -1, "trial_index": 154}, "uniqueid": "MTK3633:34T446B1C1LOAWGSLESORWM6JYTC09", "dateTime": 1520877181786}, {"current_trial": 155, "trialdata": {"rt": -1, "trial_type": "single-stim", "stimulus": "<p id=\"stim\">1</p>", "internal_node_id": "0.0-110.0-9.0", "time_elapsed": 908468, "key_press": -1, "trial_index": 155}, "uniqueid": "MTK3633:34T446B1C1LOAWGSLESORWM6JYTC09", "dateTime": 1520877182788}, {"current_trial": 156, "trialdata": {"rt": -1, "trial_type": "single-stim", "stimulus": "<p id=\"stim\">+</p>", "internal_node_id": "0.0-111.0-0.0", "time_elapsed": 909968, "key_press": -1, "type": "FIXATION", "trial_index": 156}, "uniqueid": "MTK3633:34T446B1C1LOAWGSLESORWM6JYTC09", "dateTime": 1520877184288}, {"current_trial": 157, "trialdata": {"rt": -1, "trial_type": "single-stim", "word": "subway", "stimulus": "<p id=\"stim\">SUBWAY</p>", "conditions": [24, 1600, "v", 12000], "internal_node_id": "0.0-112.0", "trial": 4, "time_elapsed": 911578, "serialpos": 0, "key_press": -1, "wordID": 1399, "type": "PRES_VIS", "trial_index": 157}, "uniqueid": "MTK3633:34T446B1C1LOAWGSLESORWM6JYTC09", "dateTime": 1520877185898}, {"current_trial": 158, "trialdata": {"rt": -1, "trial_type": "single-stim", "word": "turkey", "stimulus": "<p id=\"stim\">TURKEY</p>", "conditions": [24, 1600, "v", 12000], "internal_node_id": "0.0-113.0", "trial": 4, "time_elapsed": 914223, "serialpos": 1, "key_press": -1, "wordID": 1519, "type": "PRES_VIS", "trial_index": 158}, "uniqueid": "MTK3633:34T446B1C1LOAWGSLESORWM6JYTC09", "dateTime": 1520877188543}, {"current_trial": 159, "trialdata": {"rt": -1, "trial_type": "single-stim", "word": "stone", "stimulus": "<p id=\"stim\">STONE</p>", "conditions": [24, 1600, "v", 12000], "internal_node_id": "0.0-114.0", "trial": 4, "time_elapsed": 917016, "serialpos": 2, "key_press": -1, "wordID": 1384, "type": "PRES_VIS", "trial_index": 159}, "uniqueid": "MTK3633:34T446B1C1LOAWGSLESORWM6JYTC09", "dateTime": 1520877191336}, {"current_trial": 160, "trialdata": {"rt": -1, "trial_type": "single-stim", "word": "spider", "stimulus": "<p id=\"stim\">SPIDER</p>", "conditions": [24, 1600, "v", 12000], "internal_node_id": "0.0-115.0", "trial": 4, "time_elapsed": 919795, "serialpos": 3, "key_press": -1, "wordID": 1350, "type": "PRES_VIS", "trial_index": 160}, "uniqueid": "MTK3633:34T446B1C1LOAWGSLESORWM6JYTC09", "dateTime": 1520877194115}, {"current_trial": 161, "trialdata": {"rt": -1, "trial_type": "single-stim", "word": "dress", "stimulus": "<p id=\"stim\">DRESS</p>", "conditions": [24, 1600, "v", 12000], "internal_node_id": "0.0-116.0", "trial": 4, "time_elapsed": 922300, "serialpos": 4, "key_press": -1, "wordID": 494, "type": "PRES_VIS", "trial_index": 161}, "uniqueid": "MTK3633:34T446B1C1LOAWGSLESORWM6JYTC09", "dateTime": 1520877196620}, {"current_trial": 162, "trialdata": {"rt": -1, "trial_type": "single-stim", "word": "burglar", "stimulus": "<p id=\"stim\">BURGLAR</p>", "conditions": [24, 1600, "v", 12000], "internal_node_id": "0.0-117.0", "trial": 4, "time_elapsed": 925001, "serialpos": 5, "key_press": -1, "wordID": 199, "type": "PRES_VIS", "trial_index": 162}, "uniqueid": "MTK3633:34T446B1C1LOAWGSLESORWM6JYTC09", "dateTime": 1520877199321}, {"current_trial": 163, "trialdata": {"rt": -1, "trial_type": "single-stim", "word": "palace", "stimulus": "<p id=\"stim\">PALACE</p>", "conditions": [24, 1600, "v", 12000], "internal_node_id": "0.0-118.0", "trial": 4, "time_elapsed": 927652, "serialpos": 6, "key_press": -1, "wordID": 1005, "type": "PRES_VIS", "trial_index": 163}, "uniqueid": "MTK3633:34T446B1C1LOAWGSLESORWM6JYTC09", "dateTime": 1520877201972}, {"current_trial": 164, "trialdata": {"rt": -1, "trial_type": "single-stim", "word": "donkey", "stimulus": "<p id=\"stim\">DONKEY</p>", "conditions": [24, 1600, "v", 12000], "internal_node_id": "0.0-119.0", "trial": 4, "time_elapsed": 930366, "serialpos": 7, "key_press": -1, "wordID": 483, "type": "PRES_VIS", "trial_index": 164}, "uniqueid": "MTK3633:34T446B1C1LOAWGSLESORWM6JYTC09", "dateTime": 1520877204686}, {"current_trial": 165, "trialdata": {"rt": -1, "trial_type": "single-stim", "word": "river", "stimulus": "<p id=\"stim\">RIVER</p>", "conditions": [24, 1600, "v", 12000], "internal_node_id": "0.0-120.0", "trial": 4, "time_elapsed": 933085, "serialpos": 8, "key_press": -1, "wordID": 1193, "type": "PRES_VIS", "trial_index": 165}, "uniqueid": "MTK3633:34T446B1C1LOAWGSLESORWM6JYTC09", "dateTime": 1520877207405}, {"current_trial": 166, "trialdata": {"rt": -1, "trial_type": "single-stim", "word": "canal", "stimulus": "<p id=\"stim\">CANAL</p>", "conditions": [24, 1600, "v", 12000], "internal_node_id": "0.0-121.0", "trial": 4, "time_elapsed": 935655, "serialpos": 9, "key_press": -1, "wordID": 225, "type": "PRES_VIS", "trial_index": 166}, "uniqueid": "MTK3633:34T446B1C1LOAWGSLESORWM6JYTC09", "dateTime": 1520877209976}, {"current_trial": 167, "trialdata": {"rt": -1, "trial_type": "single-stim", "word": "juggler", "stimulus": "<p id=\"stim\">JUGGLER</p>", "conditions": [24, 1600, "v", 12000], "internal_node_id": "0.0-122.0", "trial": 4, "time_elapsed": 938213, "serialpos": 10, "key_press": -1, "wordID": 762, "type": "PRES_VIS", "trial_index": 167}, "uniqueid": "MTK3633:34T446B1C1LOAWGSLESORWM6JYTC09", "dateTime": 1520877212534}, {"current_trial": 168, "trialdata": {"rt": -1, "trial_type": "single-stim", "word": "thief", "stimulus": "<p id=\"stim\">THIEF</p>", "conditions": [24, 1600, "v", 12000], "internal_node_id": "0.0-123.0", "trial": 4, "time_elapsed": 940851, "serialpos": 11, "key_press": -1, "wordID": 1455, "type": "PRES_VIS", "trial_index": 168}, "uniqueid": "MTK3633:34T446B1C1LOAWGSLESORWM6JYTC09", "dateTime": 1520877215171}, {"current_trial": 169, "trialdata": {"rt": -1, "trial_type": "single-stim", "word": "survey", "stimulus": "<p id=\"stim\">SURVEY</p>", "conditions": [24, 1600, "v", 12000], "internal_node_id": "0.0-124.0", "trial": 4, "time_elapsed": 943278, "serialpos": 12, "key_press": -1, "wordID": 1413, "type": "PRES_VIS", "trial_index": 169}, "uniqueid": "MTK3633:34T446B1C1LOAWGSLESORWM6JYTC09", "dateTime": 1520877217599}, {"current_trial": 170, "trialdata": {"rt": -1, "trial_type": "single-stim", "word": "possum", "stimulus": "<p id=\"stim\">POSSUM</p>", "conditions": [24, 1600, "v", 12000], "internal_node_id": "0.0-125.0", "trial": 4, "time_elapsed": 946037, "serialpos": 13, "key_press": -1, "wordID": 1111, "type": "PRES_VIS", "trial_index": 170}, "uniqueid": "MTK3633:34T446B1C1LOAWGSLESORWM6JYTC09", "dateTime": 1520877220357}, {"current_trial": 171, "trialdata": {"rt": -1, "trial_type": "single-stim", "word": "shortcake", "stimulus": "<p id=\"stim\">SHORTCAKE</p>", "conditions": [24, 1600, "v", 12000], "internal_node_id": "0.0-126.0", "trial": 4, "time_elapsed": 948458, "serialpos": 14, "key_press": -1, "wordID": 1291, "type": "PRES_VIS", "trial_index": 171}, "uniqueid": "MTK3633:34T446B1C1LOAWGSLESORWM6JYTC09", "dateTime": 1520877222778}, {"current_trial": 172, "trialdata": {"rt": -1, "trial_type": "single-stim", "word": "spool", "stimulus": "<p id=\"stim\">SPOOL</p>", "conditions": [24, 1600, "v", 12000], "internal_node_id": "0.0-127.0", "trial": 4, "time_elapsed": 951048, "serialpos": 15, "key_press": -1, "wordID": 1355, "type": "PRES_VIS", "trial_index": 172}, "uniqueid": "MTK3633:34T446B1C1LOAWGSLESORWM6JYTC09", "dateTime": 1520877225368}, {"current_trial": 173, "trialdata": {"rt": -1, "trial_type": "single-stim", "word": "snake", "stimulus": "<p id=\"stim\">SNAKE</p>", "conditions": [24, 1600, "v", 12000], "internal_node_id": "0.0-128.0", "trial": 4, "time_elapsed": 953532, "serialpos": 16, "key_press": -1, "wordID": 1332, "type": "PRES_VIS", "trial_index": 173}, "uniqueid": "MTK3633:34T446B1C1LOAWGSLESORWM6JYTC09", "dateTime": 1520877227852}, {"current_trial": 174, "trialdata": {"rt": -1, "trial_type": "single-stim", "word": "mask", "stimulus": "<p id=\"stim\">MASK</p>", "conditions": [24, 1600, "v", 12000], "internal_node_id": "0.0-129.0", "trial": 4, "time_elapsed": 956121, "serialpos": 17, "key_press": -1, "wordID": 875, "type": "PRES_VIS", "trial_index": 174}, "uniqueid": "MTK3633:34T446B1C1LOAWGSLESORWM6JYTC09", "dateTime": 1520877230441}, {"current_trial": 175, "trialdata": {"rt": -1, "trial_type": "single-stim", "word": "necklace", "stimulus": "<p id=\"stim\">NECKLACE</p>", "conditions": [24, 1600, "v", 12000], "internal_node_id": "0.0-130.0", "trial": 4, "time_elapsed": 958747, "serialpos": 18, "key_press": -1, "wordID": 939, "type": "PRES_VIS", "trial_index": 175}, "uniqueid": "MTK3633:34T446B1C1LOAWGSLESORWM6JYTC09", "dateTime": 1520877233067}, {"current_trial": 176, "trialdata": {"rt": -1, "trial_type": "single-stim", "word": "handbag", "stimulus": "<p id=\"stim\">HANDBAG</p>", "conditions": [24, 1600, "v", 12000], "internal_node_id": "0.0-131.0", "trial": 4, "time_elapsed": 961480, "serialpos": 19, "key_press": -1, "wordID": 683, "type": "PRES_VIS", "trial_index": 176}, "uniqueid": "MTK3633:34T446B1C1LOAWGSLESORWM6JYTC09", "dateTime": 1520877235800}, {"current_trial": 177, "trialdata": {"rt": -1, "trial_type": "single-stim", "word": "quail", "stimulus": "<p id=\"stim\">QUAIL</p>", "conditions": [24, 1600, "v", 12000], "internal_node_id": "0.0-132.0", "trial": 4, "time_elapsed": 964061, "serialpos": 20, "key_press": -1, "wordID": 1146, "type": "PRES_VIS", "trial_index": 177}, "uniqueid": "MTK3633:34T446B1C1LOAWGSLESORWM6JYTC09", "dateTime": 1520877238381}, {"current_trial": 178, "trialdata": {"rt": -1, "trial_type": "single-stim", "word": "buggy", "stimulus": "<p id=\"stim\">BUGGY</p>", "conditions": [24, 1600, "v", 12000], "internal_node_id": "0.0-133.0", "trial": 4, "time_elapsed": 966629, "serialpos": 21, "key_press": -1, "wordID": 187, "type": "PRES_VIS", "trial_index": 178}, "uniqueid": "MTK3633:34T446B1C1LOAWGSLESORWM6JYTC09", "dateTime": 1520877240949}, {"current_trial": 179, "trialdata": {"rt": -1, "trial_type": "single-stim", "word": "lapel", "stimulus": "<p id=\"stim\">LAPEL</p>", "conditions": [24, 1600, "v", 12000], "internal_node_id": "0.0-134.0", "trial": 4, "time_elapsed": 969259, "serialpos": 22, "key_press": -1, "wordID": 799, "type": "PRES_VIS", "trial_index": 179}, "uniqueid": "MTK3633:34T446B1C1LOAWGSLESORWM6JYTC09", "dateTime": 1520877243580}, {"current_trial": 180, "trialdata": {"rt": -1, "trial_type": "single-stim", "word": "atlas", "stimulus": "<p id=\"stim\">ATLAS</p>", "conditions": [24, 1600, "v", 12000], "internal_node_id": "0.0-135.0", "trial": 4, "time_elapsed": 971808, "serialpos": 23, "key_press": -1, "wordID": 52, "type": "PRES_VIS", "trial_index": 180}, "uniqueid": "MTK3633:34T446B1C1LOAWGSLESORWM6JYTC09", "dateTime": 1520877246128}, {"current_trial": 181, "trialdata": {"rt": -1, "trial_type": "single-stim", "stimulus": "", "internal_node_id": "0.0-136.0-0.0", "time_elapsed": 973939, "key_press": -1, "type": "PRE_RECALL_DELAY", "trial_index": 181}, "uniqueid": "MTK3633:34T446B1C1LOAWGSLESORWM6JYTC09", "dateTime": 1520877248259}, {"current_trial": 182, "trialdata": {"rt": -1000, "trial_type": "single-audio", "stimulus": "/static/audio/400Hz.wav", "internal_node_id": "0.0-137.0", "time_elapsed": 974440, "key_press": -1, "type": "PRE_RECALL_ALERT", "trial_index": 182}, "uniqueid": "MTK3633:34T446B1C1LOAWGSLESORWM6JYTC09", "dateTime": 1520877248760}, {"current_trial": 183, "trialdata": {"rt": [3663, 6871, 10095, 12392, 14712, 16504, 18376, 21584], "recwords": ["stlas", "buggy", "subway", "stone", "river", "spider", "dress", "survey"], "key_times": [1791, 2031, 2271, 2428, 2671, 3663, 5136, 5416, 5688, 5863, 6063, 6871, 8103, 8311, 8608, 8824, 9063, 9225, 10095, 10920, 11104, 11303, 11544, 11728, 12392, 13416, 13592, 13760, 14009, 14144, 14712, 15031, 15247, 15447, 15609, 15912, 16080, 16504, 16977, 17215, 17367, 17768, 17992, 18376, 19024, 19232, 19367, 19632, 19887, 20049, 21584], "trial_type": "free-recall", "conditions": [24, 1600, "v", 12000], "internal_node_id": "0.0-138.0-0.0", "key_presses": [83, 84, 76, 65, 83, 13, 66, 85, 71, 71, 89, 13, 83, 85, 66, 87, 65, 89, 13, 83, 84, 79, 78, 69, 13, 82, 73, 86, 69, 82, 13, 83, 80, 73, 68, 69, 82, 13, 68, 82, 69, 83, 83, 13, 83, 85, 82, 86, 69, 89, 13], "trial": 4, "time_elapsed": 1034443, "type": "FREE_RECALL", "trial_index": 183}, "uniqueid": "MTK3633:34T446B1C1LOAWGSLESORWM6JYTC09", "dateTime": 1520877308773}, {"current_trial": 184, "trialdata": {"rt": 2315, "trial_type": "text", "internal_node_id": "0.0-139.0", "time_elapsed": 1038771, "key_press": 13, "type": "INSTRUCTIONS", "trial_index": 184}, "uniqueid": "MTK3633:34T446B1C1LOAWGSLESORWM6JYTC09", "dateTime": 1520877313091}, {"current_trial": 185, "trialdata": {"rt": [2915, 6882, 10706], "trial_type": "math-distractor", "key_times": [2291, 2419, 2915, 6418, 6611, 6882, 9868, 10068, 10706], "responses": ["11", "13", "12"], "num2": [2, 1, 4, 4], "num3": [7, 4, 2, 4], "conditions": [12, 1600, "v", 12000], "internal_node_id": "0.0-140.0", "key_presses": [97, 97, 13, 97, 99, 13, 97, 98, 13], "trial": 5, "time_elapsed": 1052785, "type": "DISTRACTOR", "trial_index": 185, "num1": [2, 8, 6, 7]}, "uniqueid": "MTK3633:34T446B1C1LOAWGSLESORWM6JYTC09", "dateTime": 1520877327106}, {"current_trial": 186, "trialdata": {"rt": -1, "trial_type": "single-stim", "stimulus": "<p id=\"stim\">10</p>", "internal_node_id": "0.0-141.0-0.0", "time_elapsed": 1055788, "key_press": -1, "trial_index": 186}, "uniqueid": "MTK3633:34T446B1C1LOAWGSLESORWM6JYTC09", "dateTime": 1520877330108}, {"current_trial": 187, "trialdata": {"rt": -1, "trial_type": "single-stim", "stimulus": "<p id=\"stim\">9</p>", "internal_node_id": "0.0-141.0-1.0", "time_elapsed": 1056789, "key_press": -1, "trial_index": 187}, "uniqueid": "MTK3633:34T446B1C1LOAWGSLESORWM6JYTC09", "dateTime": 1520877331111}, {"current_trial": 188, "trialdata": {"rt": -1, "trial_type": "single-stim", "stimulus": "<p id=\"stim\">8</p>", "internal_node_id": "0.0-141.0-2.0", "time_elapsed": 1057793, "key_press": -1, "trial_index": 188}, "uniqueid": "MTK3633:34T446B1C1LOAWGSLESORWM6JYTC09", "dateTime": 1520877332113}, {"current_trial": 189, "trialdata": {"rt": -1, "trial_type": "single-stim", "stimulus": "<p id=\"stim\">7</p>", "internal_node_id": "0.0-141.0-3.0", "time_elapsed": 1058804, "key_press": -1, "trial_index": 189}, "uniqueid": "MTK3633:34T446B1C1LOAWGSLESORWM6JYTC09", "dateTime": 1520877333124}, {"current_trial": 190, "trialdata": {"rt": -1, "trial_type": "single-stim", "stimulus": "<p id=\"stim\">6</p>", "internal_node_id": "0.0-141.0-4.0", "time_elapsed": 1059806, "key_press": -1, "trial_index": 190}, "uniqueid": "MTK3633:34T446B1C1LOAWGSLESORWM6JYTC09", "dateTime": 1520877334126}, {"current_trial": 191, "trialdata": {"rt": -1, "trial_type": "single-stim", "stimulus": "<p id=\"stim\">5</p>", "internal_node_id": "0.0-141.0-5.0", "time_elapsed": 1060808, "key_press": -1, "trial_index": 191}, "uniqueid": "MTK3633:34T446B1C1LOAWGSLESORWM6JYTC09", "dateTime": 1520877335128}, {"current_trial": 192, "trialdata": {"rt": -1, "trial_type": "single-stim", "stimulus": "<p id=\"stim\">4</p>", "internal_node_id": "0.0-141.0-6.0", "time_elapsed": 1061810, "key_press": -1, "trial_index": 192}, "uniqueid": "MTK3633:34T446B1C1LOAWGSLESORWM6JYTC09", "dateTime": 1520877336130}, {"current_trial": 193, "trialdata": {"rt": -1, "trial_type": "single-stim", "stimulus": "<p id=\"stim\">3</p>", "internal_node_id": "0.0-141.0-7.0", "time_elapsed": 1062812, "key_press": -1, "trial_index": 193}, "uniqueid": "MTK3633:34T446B1C1LOAWGSLESORWM6JYTC09", "dateTime": 1520877337132}, {"current_trial": 194, "trialdata": {"rt": -1, "trial_type": "single-stim", "stimulus": "<p id=\"stim\">2</p>", "internal_node_id": "0.0-141.0-8.0", "time_elapsed": 1063813, "key_press": -1, "trial_index": 194}, "uniqueid": "MTK3633:34T446B1C1LOAWGSLESORWM6JYTC09", "dateTime": 1520877338134}, {"current_trial": 195, "trialdata": {"rt": -1, "trial_type": "single-stim", "stimulus": "<p id=\"stim\">1</p>", "internal_node_id": "0.0-141.0-9.0", "time_elapsed": 1064816, "key_press": -1, "trial_index": 195}, "uniqueid": "MTK3633:34T446B1C1LOAWGSLESORWM6JYTC09", "dateTime": 1520877339136}, {"current_trial": 196, "trialdata": {"rt": -1, "trial_type": "single-stim", "stimulus": "<p id=\"stim\">+</p>", "internal_node_id": "0.0-142.0-0.0", "time_elapsed": 1066320, "key_press": -1, "type": "FIXATION", "trial_index": 196}, "uniqueid": "MTK3633:34T446B1C1LOAWGSLESORWM6JYTC09", "dateTime": 1520877340640}, {"current_trial": 197, "trialdata": {"rt": -1, "trial_type": "single-stim", "word": "knapsack", "stimulus": "<p id=\"stim\">KNAPSACK</p>", "conditions": [12, 1600, "v", 12000], "internal_node_id": "0.0-143.0", "trial": 5, "time_elapsed": 1067921, "serialpos": 0, "key_press": -1, "wordID": 782, "type": "PRES_VIS", "trial_index": 197}, "uniqueid": "MTK3633:34T446B1C1LOAWGSLESORWM6JYTC09", "dateTime": 1520877342241}, {"current_trial": 198, "trialdata": {"rt": -1, "trial_type": "single-stim", "word": "marker", "stimulus": "<p id=\"stim\">MARKER</p>", "conditions": [12, 1600, "v", 12000], "internal_node_id": "0.0-144.0", "trial": 5, "time_elapsed": 1070636, "serialpos": 1, "key_press": -1, "wordID": 869, "type": "PRES_VIS", "trial_index": 198}, "uniqueid": "MTK3633:34T446B1C1LOAWGSLESORWM6JYTC09", "dateTime": 1520877344956}, {"current_trial": 199, "trialdata": {"rt": -1, "trial_type": "single-stim", "word": "xerox", "stimulus": "<p id=\"stim\">XEROX</p>", "conditions": [12, 1600, "v", 12000], "internal_node_id": "0.0-145.0", "trial": 5, "time_elapsed": 1073409, "serialpos": 2, "key_press": -1, "wordID": 1627, "type": "PRES_VIS", "trial_index": 199}, "uniqueid": "MTK3633:34T446B1C1LOAWGSLESORWM6JYTC09", "dateTime": 1520877347729}, {"current_trial": 200, "trialdata": {"rt": -1, "trial_type": "single-stim", "word": "rug", "stimulus": "<p id=\"stim\">RUG</p>", "conditions": [12, 1600, "v", 12000], "internal_node_id": "0.0-146.0", "trial": 5, "time_elapsed": 1075963, "serialpos": 3, "key_press": -1, "wordID": 1214, "type": "PRES_VIS", "trial_index": 200}, "uniqueid": "MTK3633:34T446B1C1LOAWGSLESORWM6JYTC09", "dateTime": 1520877350283}, {"current_trial": 201, "trialdata": {"rt": -1, "trial_type": "single-stim", "word": "fungus", "stimulus": "<p id=\"stim\">FUNGUS</p>", "conditions": [12, 1600, "v", 12000], "internal_node_id": "0.0-147.0", "trial": 5, "time_elapsed": 1078670, "serialpos": 4, "key_press": -1, "wordID": 613, "type": "PRES_VIS", "trial_index": 201}, "uniqueid": "MTK3633:34T446B1C1LOAWGSLESORWM6JYTC09", "dateTime": 1520877352990}, {"current_trial": 202, "trialdata": {"rt": -1, "trial_type": "single-stim", "word": "mailman", "stimulus": "<p id=\"stim\">MAILMAN</p>", "conditions": [12, 1600, "v", 12000], "internal_node_id": "0.0-148.0", "trial": 5, "time_elapsed": 1081356, "serialpos": 5, "key_press": -1, "wordID": 857, "type": "PRES_VIS", "trial_index": 202}, "uniqueid": "MTK3633:34T446B1C1LOAWGSLESORWM6JYTC09", "dateTime": 1520877355676}, {"current_trial": 203, "trialdata": {"rt": -1, "trial_type": "single-stim", "word": "mailbox", "stimulus": "<p id=\"stim\">MAILBOX</p>", "conditions": [12, 1600, "v", 12000], "internal_node_id": "0.0-149.0", "trial": 5, "time_elapsed": 1084002, "serialpos": 6, "key_press": -1, "wordID": 856, "type": "PRES_VIS", "trial_index": 203}, "uniqueid": "MTK3633:34T446B1C1LOAWGSLESORWM6JYTC09", "dateTime": 1520877358323}, {"current_trial": 204, "trialdata": {"rt": -1, "trial_type": "single-stim", "word": "termite", "stimulus": "<p id=\"stim\">TERMITE</p>", "conditions": [12, 1600, "v", 12000], "internal_node_id": "0.0-150.0", "trial": 5, "time_elapsed": 1086489, "serialpos": 7, "key_press": -1, "wordID": 1450, "type": "PRES_VIS", "trial_index": 204}, "uniqueid": "MTK3633:34T446B1C1LOAWGSLESORWM6JYTC09", "dateTime": 1520877360809}, {"current_trial": 205, "trialdata": {"rt": -1, "trial_type": "single-stim", "word": "thread", "stimulus": "<p id=\"stim\">THREAD</p>", "conditions": [12, 1600, "v", 12000], "internal_node_id": "0.0-151.0", "trial": 5, "time_elapsed": 1089061, "serialpos": 8, "key_press": -1, "wordID": 1459, "type": "PRES_VIS", "trial_index": 205}, "uniqueid": "MTK3633:34T446B1C1LOAWGSLESORWM6JYTC09", "dateTime": 1520877363381}, {"current_trial": 206, "trialdata": {"rt": -1, "trial_type": "single-stim", "word": "tablet", "stimulus": "<p id=\"stim\">TABLET</p>", "conditions": [12, 1600, "v", 12000], "internal_node_id": "0.0-152.0", "trial": 5, "time_elapsed": 1091860, "serialpos": 9, "key_press": -1, "wordID": 1426, "type": "PRES_VIS", "trial_index": 206}, "uniqueid": "MTK3633:34T446B1C1LOAWGSLESORWM6JYTC09", "dateTime": 1520877366180}, {"current_trial": 207, "trialdata": {"rt": -1, "trial_type": "single-stim", "word": "seagull", "stimulus": "<p id=\"stim\">SEAGULL</p>", "conditions": [12, 1600, "v", 12000], "internal_node_id": "0.0-153.0", "trial": 5, "time_elapsed": 1094295, "serialpos": 10, "key_press": -1, "wordID": 1260, "type": "PRES_VIS", "trial_index": 207}, "uniqueid": "MTK3633:34T446B1C1LOAWGSLESORWM6JYTC09", "dateTime": 1520877368615}, {"current_trial": 208, "trialdata": {"rt": -1, "trial_type": "single-stim", "word": "racket", "stimulus": "<p id=\"stim\">RACKET</p>", "conditions": [12, 1600, "v", 12000], "internal_node_id": "0.0-154.0", "trial": 5, "time_elapsed": 1096745, "serialpos": 11, "key_press": -1, "wordID": 1154, "type": "PRES_VIS", "trial_index": 208}, "uniqueid": "MTK3633:34T446B1C1LOAWGSLESORWM6JYTC09", "dateTime": 1520877371065}, {"current_trial": 209, "trialdata": {"rt": -1, "trial_type": "single-stim", "stimulus": "", "internal_node_id": "0.0-155.0-0.0", "time_elapsed": 1099060, "key_press": -1, "type": "PRE_RECALL_DELAY", "trial_index": 209}, "uniqueid": "MTK3633:34T446B1C1LOAWGSLESORWM6JYTC09", "dateTime": 1520877373381}, {"current_trial": 210, "trialdata": {"rt": -1000, "trial_type": "single-audio", "stimulus": "/static/audio/400Hz.wav", "internal_node_id": "0.0-156.0", "time_elapsed": 1099567, "key_press": -1, "type": "PRE_RECALL_ALERT", "trial_index": 210}, "uniqueid": "MTK3633:34T446B1C1LOAWGSLESORWM6JYTC09", "dateTime": 1520877373887}, {"current_trial": 211, "trialdata": {"rt": [4256, 11889, 14817, 17752, 23929], "recwords": ["racket", "marker", "rug", "mailbox", "thread"], "key_times": [1729, 1937, 2640, 2912, 3097, 3320, 4256, 9720, 9905, 10105, 10296, 10481, 10608, 11889, 13392, 13624, 13872, 14817, 15649, 15817, 15961, 16208, 16482, 16656, 17146, 17752, 21624, 21801, 22009, 22240, 22520, 23089, 23929], "trial_type": "free-recall", "conditions": [12, 1600, "v", 12000], "internal_node_id": "0.0-157.0-0.0", "key_presses": [82, 65, 67, 75, 69, 84, 13, 77, 65, 82, 75, 69, 82, 13, 82, 85, 71, 13, 77, 65, 73, 76, 66, 79, 88, 13, 84, 72, 82, 69, 65, 68, 13], "trial": 5, "time_elapsed": 1159577, "type": "FREE_RECALL", "trial_index": 211}, "uniqueid": "MTK3633:34T446B1C1LOAWGSLESORWM6JYTC09", "dateTime": 1520877433908}, {"current_trial": 212, "trialdata": {"rt": 18982, "trial_type": "text", "internal_node_id": "0.0-158.0", "time_elapsed": 1180572, "key_press": 13, "type": "INSTRUCTIONS", "trial_index": 212}, "uniqueid": "MTK3633:34T446B1C1LOAWGSLESORWM6JYTC09", "dateTime": 1520877454892}, {"current_trial": 213, "trialdata": {"rt": [4202, 6483, 9386, 12331, 15355, 18522, 22402], "trial_type": "math-distractor", "key_times": [3290, 3747, 4202, 5690, 5980, 6483, 8603, 8874, 9386, 11778, 12010, 12331, 14835, 15074, 15355, 17947, 18162, 18522, 21840, 22106, 22402], "responses": ["13", "18", "17", "15", "12", "15", "13"], "num2": [4, 2, 7, 4, 4, 7, 2, 2], "num3": [8, 8, 8, 8, 7, 4, 6, 5], "conditions": [12, 800, "v", 24000], "internal_node_id": "0.0-159.0", "key_presses": [97, 99, 13, 97, 104, 13, 97, 103, 13, 97, 101, 13, 97, 98, 13, 97, 101, 13, 97, 99, 13], "trial": 6, "time_elapsed": 1206609, "type": "DISTRACTOR", "trial_index": 213, "num1": [1, 8, 2, 3, 1, 4, 5, 3]}, "uniqueid": "MTK3633:34T446B1C1LOAWGSLESORWM6JYTC09", "dateTime": 1520877480929}, {"current_trial": 214, "trialdata": {"rt": -1, "trial_type": "single-stim", "stimulus": "<p id=\"stim\">10</p>", "internal_node_id": "0.0-160.0-0.0", "time_elapsed": 1209612, "key_press": -1, "trial_index": 214}, "uniqueid": "MTK3633:34T446B1C1LOAWGSLESORWM6JYTC09", "dateTime": 1520877483932}, {"current_trial": 215, "trialdata": {"rt": -1, "trial_type": "single-stim", "stimulus": "<p id=\"stim\">9</p>", "internal_node_id": "0.0-160.0-1.0", "time_elapsed": 1210613, "key_press": -1, "trial_index": 215}, "uniqueid": "MTK3633:34T446B1C1LOAWGSLESORWM6JYTC09", "dateTime": 1520877484933}, {"current_trial": 216, "trialdata": {"rt": -1, "trial_type": "single-stim", "stimulus": "<p id=\"stim\">8</p>", "internal_node_id": "0.0-160.0-2.0", "time_elapsed": 1211614, "key_press": -1, "trial_index": 216}, "uniqueid": "MTK3633:34T446B1C1LOAWGSLESORWM6JYTC09", "dateTime": 1520877485934}, {"current_trial": 217, "trialdata": {"rt": -1, "trial_type": "single-stim", "stimulus": "<p id=\"stim\">7</p>", "internal_node_id": "0.0-160.0-3.0", "time_elapsed": 1212621, "key_press": -1, "trial_index": 217}, "uniqueid": "MTK3633:34T446B1C1LOAWGSLESORWM6JYTC09", "dateTime": 1520877486941}, {"current_trial": 218, "trialdata": {"rt": -1, "trial_type": "single-stim", "stimulus": "<p id=\"stim\">6</p>", "internal_node_id": "0.0-160.0-4.0", "time_elapsed": 1213622, "key_press": -1, "trial_index": 218}, "uniqueid": "MTK3633:34T446B1C1LOAWGSLESORWM6JYTC09", "dateTime": 1520877487942}, {"current_trial": 219, "trialdata": {"rt": -1, "trial_type": "single-stim", "stimulus": "<p id=\"stim\">5</p>", "internal_node_id": "0.0-160.0-5.0", "time_elapsed": 1214625, "key_press": -1, "trial_index": 219}, "uniqueid": "MTK3633:34T446B1C1LOAWGSLESORWM6JYTC09", "dateTime": 1520877488945}, {"current_trial": 220, "trialdata": {"rt": -1, "trial_type": "single-stim", "stimulus": "<p id=\"stim\">4</p>", "internal_node_id": "0.0-160.0-6.0", "time_elapsed": 1215627, "key_press": -1, "trial_index": 220}, "uniqueid": "MTK3633:34T446B1C1LOAWGSLESORWM6JYTC09", "dateTime": 1520877489947}, {"current_trial": 221, "trialdata": {"rt": -1, "trial_type": "single-stim", "stimulus": "<p id=\"stim\">3</p>", "internal_node_id": "0.0-160.0-7.0", "time_elapsed": 1216628, "key_press": -1, "trial_index": 221}, "uniqueid": "MTK3633:34T446B1C1LOAWGSLESORWM6JYTC09", "dateTime": 1520877490948}, {"current_trial": 222, "trialdata": {"rt": -1, "trial_type": "single-stim", "stimulus": "<p id=\"stim\">2</p>", "internal_node_id": "0.0-160.0-8.0", "time_elapsed": 1217630, "key_press": -1, "trial_index": 222}, "uniqueid": "MTK3633:34T446B1C1LOAWGSLESORWM6JYTC09", "dateTime": 1520877491950}, {"current_trial": 223, "trialdata": {"rt": -1, "trial_type": "single-stim", "stimulus": "<p id=\"stim\">1</p>", "internal_node_id": "0.0-160.0-9.0", "time_elapsed": 1218631, "key_press": -1, "trial_index": 223}, "uniqueid": "MTK3633:34T446B1C1LOAWGSLESORWM6JYTC09", "dateTime": 1520877492951}, {"current_trial": 224, "trialdata": {"rt": -1, "trial_type": "single-stim", "stimulus": "<p id=\"stim\">+</p>", "internal_node_id": "0.0-161.0-0.0", "time_elapsed": 1220133, "key_press": -1, "type": "FIXATION", "trial_index": 224}, "uniqueid": "MTK3633:34T446B1C1LOAWGSLESORWM6JYTC09", "dateTime": 1520877494454}, {"current_trial": 225, "trialdata": {"rt": -1, "trial_type": "single-stim", "word": "item", "stimulus": "<p id=\"stim\">ITEM</p>", "conditions": [12, 800, "v", 24000], "internal_node_id": "0.0-162.0", "trial": 6, "time_elapsed": 1220934, "serialpos": 0, "key_press": -1, "wordID": 745, "type": "PRES_VIS", "trial_index": 225}, "uniqueid": "MTK3633:34T446B1C1LOAWGSLESORWM6JYTC09", "dateTime": 1520877495255}, {"current_trial": 226, "trialdata": {"rt": -1, "trial_type": "single-stim", "word": "blackboard", "stimulus": "<p id=\"stim\">BLACKBOARD</p>", "conditions": [12, 800, "v", 24000], "internal_node_id": "0.0-163.0", "trial": 6, "time_elapsed": 1222823, "serialpos": 1, "key_press": -1, "wordID": 132, "type": "PRES_VIS", "trial_index": 226}, "uniqueid": "MTK3633:34T446B1C1LOAWGSLESORWM6JYTC09", "dateTime": 1520877497144}, {"current_trial": 227, "trialdata": {"rt": -1, "trial_type": "single-stim", "word": "drawing", "stimulus": "<p id=\"stim\">DRAWING</p>", "conditions": [12, 800, "v", 24000], "internal_node_id": "0.0-164.0", "trial": 6, "time_elapsed": 1224615, "serialpos": 2, "key_press": -1, "wordID": 493, "type": "PRES_VIS", "trial_index": 227}, "uniqueid": "MTK3633:34T446B1C1LOAWGSLESORWM6JYTC09", "dateTime": 1520877498935}, {"current_trial": 228, "trialdata": {"rt": -1, "trial_type": "single-stim", "word": "lover", "stimulus": "<p id=\"stim\">LOVER</p>", "conditions": [12, 800, "v", 24000], "internal_node_id": "0.0-165.0", "trial": 6, "time_elapsed": 1226577, "serialpos": 3, "key_press": -1, "wordID": 845, "type": "PRES_VIS", "trial_index": 228}, "uniqueid": "MTK3633:34T446B1C1LOAWGSLESORWM6JYTC09", "dateTime": 1520877500897}, {"current_trial": 229, "trialdata": {"rt": -1, "trial_type": "single-stim", "word": "boyfriend", "stimulus": "<p id=\"stim\">BOYFRIEND</p>", "conditions": [12, 800, "v", 24000], "internal_node_id": "0.0-166.0", "trial": 6, "time_elapsed": 1228255, "serialpos": 4, "key_press": -1, "wordID": 161, "type": "PRES_VIS", "trial_index": 229}, "uniqueid": "MTK3633:34T446B1C1LOAWGSLESORWM6JYTC09", "dateTime": 1520877502575}, {"current_trial": 230, "trialdata": {"rt": -1, "trial_type": "single-stim", "word": "orange", "stimulus": "<p id=\"stim\">ORANGE</p>", "conditions": [12, 800, "v", 24000], "internal_node_id": "0.0-167.0", "trial": 6, "time_elapsed": 1230124, "serialpos": 5, "key_press": -1, "wordID": 979, "type": "PRES_VIS", "trial_index": 230}, "uniqueid": "MTK3633:34T446B1C1LOAWGSLESORWM6JYTC09", "dateTime": 1520877504444}, {"current_trial": 231, "trialdata": {"rt": -1, "trial_type": "single-stim", "word": "bunny", "stimulus": "<p id=\"stim\">BUNNY</p>", "conditions": [12, 800, "v", 24000], "internal_node_id": "0.0-168.0", "trial": 6, "time_elapsed": 1231976, "serialpos": 6, "key_press": -1, "wordID": 197, "type": "PRES_VIS", "trial_index": 231}, "uniqueid": "MTK3633:34T446B1C1LOAWGSLESORWM6JYTC09", "dateTime": 1520877506296}, {"current_trial": 232, "trialdata": {"rt": -1, "trial_type": "single-stim", "word": "slug", "stimulus": "<p id=\"stim\">SLUG</p>", "conditions": [12, 800, "v", 24000], "internal_node_id": "0.0-169.0", "trial": 6, "time_elapsed": 1233761, "serialpos": 7, "key_press": -1, "wordID": 1328, "type": "PRES_VIS", "trial_index": 232}, "uniqueid": "MTK3633:34T446B1C1LOAWGSLESORWM6JYTC09", "dateTime": 1520877508081}, {"current_trial": 233, "trialdata": {"rt": -1, "trial_type": "single-stim", "word": "helmet", "stimulus": "<p id=\"stim\">HELMET</p>", "conditions": [12, 800, "v", 24000], "internal_node_id": "0.0-170.0", "trial": 6, "time_elapsed": 1235530, "serialpos": 8, "key_press": -1, "wordID": 701, "type": "PRES_VIS", "trial_index": 233}, "uniqueid": "MTK3633:34T446B1C1LOAWGSLESORWM6JYTC09", "dateTime": 1520877509851}, {"current_trial": 234, "trialdata": {"rt": -1, "trial_type": "single-stim", "word": "scallop", "stimulus": "<p id=\"stim\">SCALLOP</p>", "conditions": [12, 800, "v", 24000], "internal_node_id": "0.0-171.0", "trial": 6, "time_elapsed": 1237481, "serialpos": 9, "key_press": -1, "wordID": 1241, "type": "PRES_VIS", "trial_index": 234}, "uniqueid": "MTK3633:34T446B1C1LOAWGSLESORWM6JYTC09", "dateTime": 1520877511801}, {"current_trial": 235, "trialdata": {"rt": -1, "trial_type": "single-stim", "word": "penguin", "stimulus": "<p id=\"stim\">PENGUIN</p>", "conditions": [12, 800, "v", 24000], "internal_node_id": "0.0-172.0", "trial": 6, "time_elapsed": 1239206, "serialpos": 10, "key_press": -1, "wordID": 1043, "type": "PRES_VIS", "trial_index": 235}, "uniqueid": "MTK3633:34T446B1C1LOAWGSLESORWM6JYTC09", "dateTime": 1520877513527}, {"current_trial": 236, "trialdata": {"rt": -1, "trial_type": "single-stim", "word": "headband", "stimulus": "<p id=\"stim\">HEADBAND</p>", "conditions": [12, 800, "v", 24000], "internal_node_id": "0.0-173.0", "trial": 6, "time_elapsed": 1241086, "serialpos": 11, "key_press": -1, "wordID": 695, "type": "PRES_VIS", "trial_index": 236}, "uniqueid": "MTK3633:34T446B1C1LOAWGSLESORWM6JYTC09", "dateTime": 1520877515407}, {"current_trial": 237, "trialdata": {"rt": -1, "trial_type": "single-stim", "stimulus": "", "internal_node_id": "0.0-174.0-0.0", "time_elapsed": 1243527, "key_press": -1, "type": "PRE_RECALL_DELAY", "trial_index": 237}, "uniqueid": "MTK3633:34T446B1C1LOAWGSLESORWM6JYTC09", "dateTime": 1520877517847}, {"current_trial": 238, "trialdata": {"rt": -1000, "trial_type": "single-audio", "stimulus": "/static/audio/400Hz.wav", "internal_node_id": "0.0-175.0", "time_elapsed": 1244028, "key_press": -1, "type": "PRE_RECALL_ALERT", "trial_index": 238}, "uniqueid": "MTK3633:34T446B1C1LOAWGSLESORWM6JYTC09", "dateTime": 1520877518348}, {"current_trial": 239, "trialdata": {"rt": [3820, 7428, 10517, 13147, 15549, 19029], "recwords": ["penguin", "boyfriend", "headband", "item", "orange", "blackboard"], "key_times": [1177, 1396, 1612, 2316, 2636, 2796, 3036, 3820, 4516, 5029, 5269, 5486, 5732, 5886, 6085, 6236, 6812, 7428, 8188, 8381, 8588, 8693, 8916, 9053, 9212, 9397, 10517, 11724, 11900, 12140, 12332, 13147, 13996, 14125, 14316, 14523, 14669, 15092, 15549, 16461, 16891, 17029, 17286, 17420, 17693, 17941, 18124, 18325, 18619, 19029], "trial_type": "free-recall", "conditions": [12, 800, "v", 24000], "internal_node_id": "0.0-176.0-0.0", "key_presses": [80, 69, 78, 71, 85, 73, 78, 13, 66, 79, 89, 70, 82, 73, 69, 78, 68, 13, 72, 69, 65, 68, 66, 65, 78, 68, 13, 73, 84, 69, 77, 13, 79, 82, 65, 78, 71, 69, 13, 66, 76, 65, 67, 75, 66, 79, 65, 82, 68, 13], "trial": 6, "time_elapsed": 1304061, "type": "FREE_RECALL", "trial_index": 239}, "uniqueid": "MTK3633:34T446B1C1LOAWGSLESORWM6JYTC09", "dateTime": 1520877578391}, {"current_trial": 240, "trialdata": {"rt": 2880, "trial_type": "text", "internal_node_id": "0.0-177.0", "time_elapsed": 1308950, "key_press": 13, "type": "INSTRUCTIONS", "trial_index": 240}, "uniqueid": "MTK3633:34T446B1C1LOAWGSLESORWM6JYTC09", "dateTime": 1520877583272}, {"current_trial": 241, "trialdata": {"rt": [3513, 6232, 9649], "trial_type": "math-distractor", "key_times": [2857, 3186, 3513, 5672, 5930, 6232, 9137, 9410, 9649, 11665, 11856], "responses": ["19", "12", "23"], "num2": [8, 5, 8, 9], "num3": [9, 6, 7, 9], "conditions": [24, 800, "v", 12000], "internal_node_id": "0.0-178.0", "key_presses": [97, 105, 13, 97, 98, 13, 98, 99, 13, 98, 97], "trial": 7, "time_elapsed": 1322966, "type": "DISTRACTOR", "trial_index": 241, "num1": [2, 1, 8, 3]}, "uniqueid": "MTK3633:34T446B1C1LOAWGSLESORWM6JYTC09", "dateTime": 1520877597287}, {"current_trial": 242, "trialdata": {"rt": -1, "trial_type": "single-stim", "stimulus": "<p id=\"stim\">10</p>", "internal_node_id": "0.0-179.0-0.0", "time_elapsed": 1325968, "key_press": -1, "trial_index": 242}, "uniqueid": "MTK3633:34T446B1C1LOAWGSLESORWM6JYTC09", "dateTime": 1520877600288}, {"current_trial": 243, "trialdata": {"rt": -1, "trial_type": "single-stim", "stimulus": "<p id=\"stim\">9</p>", "internal_node_id": "0.0-179.0-1.0", "time_elapsed": 1326970, "key_press": -1, "trial_index": 243}, "uniqueid": "MTK3633:34T446B1C1LOAWGSLESORWM6JYTC09", "dateTime": 1520877601291}, {"current_trial": 244, "trialdata": {"rt": -1, "trial_type": "single-stim", "stimulus": "<p id=\"stim\">8</p>", "internal_node_id": "0.0-179.0-2.0", "time_elapsed": 1327971, "key_press": -1, "trial_index": 244}, "uniqueid": "MTK3633:34T446B1C1LOAWGSLESORWM6JYTC09", "dateTime": 1520877602291}, {"current_trial": 245, "trialdata": {"rt": -1, "trial_type": "single-stim", "stimulus": "<p id=\"stim\">7</p>", "internal_node_id": "0.0-179.0-3.0", "time_elapsed": 1328973, "key_press": -1, "trial_index": 245}, "uniqueid": "MTK3633:34T446B1C1LOAWGSLESORWM6JYTC09", "dateTime": 1520877603293}, {"current_trial": 246, "trialdata": {"rt": -1, "trial_type": "single-stim", "stimulus": "<p id=\"stim\">6</p>", "internal_node_id": "0.0-179.0-4.0", "time_elapsed": 1329976, "key_press": -1, "trial_index": 246}, "uniqueid": "MTK3633:34T446B1C1LOAWGSLESORWM6JYTC09", "dateTime": 1520877604296}, {"current_trial": 247, "trialdata": {"rt": -1, "trial_type": "single-stim", "stimulus": "<p id=\"stim\">5</p>", "internal_node_id": "0.0-179.0-5.0", "time_elapsed": 1330977, "key_press": -1, "trial_index": 247}, "uniqueid": "MTK3633:34T446B1C1LOAWGSLESORWM6JYTC09", "dateTime": 1520877605297}, {"current_trial": 248, "trialdata": {"rt": -1, "trial_type": "single-stim", "stimulus": "<p id=\"stim\">4</p>", "internal_node_id": "0.0-179.0-6.0", "time_elapsed": 1331978, "key_press": -1, "trial_index": 248}, "uniqueid": "MTK3633:34T446B1C1LOAWGSLESORWM6JYTC09", "dateTime": 1520877606298}, {"current_trial": 249, "trialdata": {"rt": -1, "trial_type": "single-stim", "stimulus": "<p id=\"stim\">3</p>", "internal_node_id": "0.0-179.0-7.0", "time_elapsed": 1332980, "key_press": -1, "trial_index": 249}, "uniqueid": "MTK3633:34T446B1C1LOAWGSLESORWM6JYTC09", "dateTime": 1520877607300}, {"current_trial": 250, "trialdata": {"rt": -1, "trial_type": "single-stim", "stimulus": "<p id=\"stim\">2</p>", "internal_node_id": "0.0-179.0-8.0", "time_elapsed": 1333981, "key_press": -1, "trial_index": 250}, "uniqueid": "MTK3633:34T446B1C1LOAWGSLESORWM6JYTC09", "dateTime": 1520877608301}, {"current_trial": 251, "trialdata": {"rt": -1, "trial_type": "single-stim", "stimulus": "<p id=\"stim\">1</p>", "internal_node_id": "0.0-179.0-9.0", "time_elapsed": 1334984, "key_press": -1, "trial_index": 251}, "uniqueid": "MTK3633:34T446B1C1LOAWGSLESORWM6JYTC09", "dateTime": 1520877609304}, {"current_trial": 252, "trialdata": {"rt": -1, "trial_type": "single-stim", "stimulus": "<p id=\"stim\">+</p>", "internal_node_id": "0.0-180.0-0.0", "time_elapsed": 1336484, "key_press": -1, "type": "FIXATION", "trial_index": 252}, "uniqueid": "MTK3633:34T446B1C1LOAWGSLESORWM6JYTC09", "dateTime": 1520877610804}, {"current_trial": 253, "trialdata": {"rt": -1, "trial_type": "single-stim", "word": "girl", "stimulus": "<p id=\"stim\">GIRL</p>", "conditions": [24, 800, "v", 12000], "internal_node_id": "0.0-181.0", "trial": 7, "time_elapsed": 1337284, "serialpos": 0, "key_press": -1, "wordID": 636, "type": "PRES_VIS", "trial_index": 253}, "uniqueid": "MTK3633:34T446B1C1LOAWGSLESORWM6JYTC09", "dateTime": 1520877611604}, {"current_trial": 254, "trialdata": {"rt": -1, "trial_type": "single-stim", "word": "lettuce", "stimulus": "<p id=\"stim\">LETTUCE</p>", "conditions": [24, 800, "v", 12000], "internal_node_id": "0.0-182.0", "trial": 7, "time_elapsed": 1338919, "serialpos": 1, "key_press": -1, "wordID": 813, "type": "PRES_VIS", "trial_index": 254}, "uniqueid": "MTK3633:34T446B1C1LOAWGSLESORWM6JYTC09", "dateTime": 1520877613239}, {"current_trial": 255, "trialdata": {"rt": -1, "trial_type": "single-stim", "word": "mister", "stimulus": "<p id=\"stim\">MISTER</p>", "conditions": [24, 800, "v", 12000], "internal_node_id": "0.0-183.0", "trial": 7, "time_elapsed": 1340584, "serialpos": 2, "key_press": -1, "wordID": 900, "type": "PRES_VIS", "trial_index": 255}, "uniqueid": "MTK3633:34T446B1C1LOAWGSLESORWM6JYTC09", "dateTime": 1520877614904}, {"current_trial": 256, "trialdata": {"rt": -1, "trial_type": "single-stim", "word": "crayon", "stimulus": "<p id=\"stim\">CRAYON</p>", "conditions": [24, 800, "v", 12000], "internal_node_id": "0.0-184.0", "trial": 7, "time_elapsed": 1342381, "serialpos": 3, "key_