{"assignmentId": "31Z0PCVWULMJEOINSZ8NVLWXFW37TN", "workerId": "MTK3580", "questiondata": {"origin": "United States", "strat-rehearsal": "20", "marital": "Single", "education": "Bachelor's degree", "ethnicity": "Not Hispanic", "color_depth": 24, "distracted": "No", "wrote-notes": "No", "strat-other": "Tried grouping words after the first couple times and once I noticed there were groups.  Also, tried to picture the things around me or where they are located nearby.", "screen_width": 1366, "avail_screen_width": 1366, "avail_screen_height": 728, "strat-image": "95", "language": "english", "gender": "Female", "age": "38", "gender_other": "", "race": ["White"], "strat-categorize": "90", "pixel_depth": 24, "strat-spatial": "80", "strat-story": "50", "race_other": "", "screen_height": 768}, "bonus": 0, "hitId": "37G6BXQPLQSP837B81NW76H7W0EQE0", "counterbalance": 2523, "useragent": "Mozilla/5.0 (Windows NT 10.0; Win64; x64) AppleWebKit/537.36 (KHTML, like Gecko) Chrome/52.0.2743.116 Safari/537.36 Edge/15.15063", "eventdata": [{"eventtype": "initialized", "interval": 0, "value": null, "timestamp": 1520793834388}, {"eventtype": "window_resize", "interval": 0, "value": [1366, 652], "timestamp": 1520793834388}, {"eventtype": "focus", "interval": 499, "value": "on", "timestamp": 1520793834887}, {"eventtype": "focus", "interval": 6627, "value": "off", "timestamp": 1520793841514}, {"eventtype": "focus", "interval": 5137, "value": "on", "timestamp": 1520793846651}, {"eventtype": "focus", "interval": 37391, "value": "off", "timestamp": 1520793884042}, {"eventtype": "focus", "interval": 4535, "value": "on", "timestamp": 1520793888577}, {"eventtype": "focus", "interval": 2138339, "value": "off", "timestamp": 1520796026916}, {"eventtype": "focus", "interval": 9741, "value": "on", "timestamp": 1520796036657}, {"eventtype": "focus", "interval": 2839, "value": "off", "timestamp": 1520796039496}, {"eventtype": "focus", "interval": 4747, "value": "on", "timestamp": 1520796044243}, {"eventtype": "focus", "interval": 42506, "value": "off", "timestamp": 1520796086749}, {"eventtype": "focus", "interval": 5462, "value": "on", "timestamp": 1520796092211}, {"eventtype": "focus", "interval": 197645, "value": "off", "timestamp": 1520796289856}, {"eventtype": "focus", "interval": 265, "value": "on", "timestamp": 1520796290121}], "data": [{"current_trial": 0, "trialdata": {"rt": 2422, "trial_type": "text", "internal_node_id": "0.0-0.0", "time_elapsed": 2430, "key_press": 72, "type": "INSTRUCTIONS", "trial_index": 0}, "uniqueid": "MTK3580:31Z0PCVWULMJEOINSZ8NVLWXFW37TN", "dateTime": 1520793854907}, {"current_trial": 1, "trialdata": {"rt": 38918, "trial_type": "text", "internal_node_id": "0.0-1.0", "time_elapsed": 41355, "key_press": 74, "type": "INSTRUCTIONS", "trial_index": 1}, "uniqueid": "MTK3580:31Z0PCVWULMJEOINSZ8NVLWXFW37TN", "dateTime": 1520793893828}, {"current_trial": 2, "trialdata": {"rt": [14001], "trial_type": "audio-test", "responses": ["ocean"], "internal_node_id": "0.0-2.0", "time_elapsed": 55389, "type": "AUDIO_TEST", "trial_index": 2}, "uniqueid": "MTK3580:31Z0PCVWULMJEOINSZ8NVLWXFW37TN", "dateTime": 1520793907862}, {"current_trial": 3, "trialdata": {"rt": [8613], "trial_type": "audio-test", "responses": ["crystal"], "internal_node_id": "0.0-3.0", "time_elapsed": 64019, "type": "AUDIO_TEST", "trial_index": 3}, "uniqueid": "MTK3580:31Z0PCVWULMJEOINSZ8NVLWXFW37TN", "dateTime": 1520793916492}, {"current_trial": 4, "trialdata": {"rt": [8730], "trial_type": "audio-test", "responses": ["spice"], "internal_node_id": "0.0-4.0", "time_elapsed": 72774, "type": "AUDIO_TEST", "trial_index": 4}, "uniqueid": "MTK3580:31Z0PCVWULMJEOINSZ8NVLWXFW37TN", "dateTime": 1520793925248}, {"current_trial": 5, "trialdata": {"rt": 18255, "trial_type": "survey-text", "responses": "{\"Q0\":\"1am\",\"Q1\":\"8am\",\"Q2\":\"4\"}", "internal_node_id": "0.0-5.0", "time_elapsed": 91812, "type": "SLEEP_SURVEY", "trial_index": 5}, "uniqueid": "MTK3580:31Z0PCVWULMJEOINSZ8NVLWXFW37TN", "dateTime": 1520793944285}, {"current_trial": 6, "trialdata": {"rt": 49839, "trial_type": "text", "internal_node_id": "0.0-6.0", "time_elapsed": 142674, "key_press": 75, "type": "INSTRUCTIONS", "trial_index": 6}, "uniqueid": "MTK3580:31Z0PCVWULMJEOINSZ8NVLWXFW37TN", "dateTime": 1520793995147}, {"current_trial": 7, "trialdata": {"rt": 28344, "trial_type": "text", "internal_node_id": "0.0-7.0", "time_elapsed": 171530, "key_press": 13, "type": "INSTRUCTIONS", "trial_index": 7}, "uniqueid": "MTK3580:31Z0PCVWULMJEOINSZ8NVLWXFW37TN", "dateTime": 1520794024003}, {"current_trial": 8, "trialdata": {"rt": 9942, "trial_type": "text", "internal_node_id": "0.0-8.0", "time_elapsed": 181989, "key_press": 13, "type": "INSTRUCTIONS", "trial_index": 8}, "uniqueid": "MTK3580:31Z0PCVWULMJEOINSZ8NVLWXFW37TN", "dateTime": 1520794034463}, {"current_trial": 9, "trialdata": {"rt": [7642, 10619, 12925, 15756], "trial_type": "math-distractor", "key_times": [6488, 6777, 7642, 9764, 10004, 10619, 12129, 12322, 12925, 14894, 15093, 15756], "responses": ["15", "15", "12", "15"], "num2": [8, 2, 5, 6, 8], "num3": [3, 3, 5, 5, 9], "conditions": [18, 1200, "a", 18000], "internal_node_id": "0.0-9.0", "key_presses": [97, 101, 13, 97, 101, 13, 97, 98, 13, 97, 101, 13], "trial": 0, "time_elapsed": 201036, "type": "DISTRACTOR", "trial_index": 9, "num1": [3, 9, 2, 3, 1]}, "uniqueid": "MTK3580:31Z0PCVWULMJEOINSZ8NVLWXFW37TN", "dateTime": 1520794053510}, {"current_trial": 10, "trialdata": {"rt": -1, "trial_type": "single-stim", "stimulus": "<p id=\"stim\">10</p>", "internal_node_id": "0.0-10.0-0.0", "time_elapsed": 204078, "key_press": -1, "trial_index": 10}, "uniqueid": "MTK3580:31Z0PCVWULMJEOINSZ8NVLWXFW37TN", "dateTime": 1520794056551}, {"current_trial": 11, "trialdata": {"rt": -1, "trial_type": "single-stim", "stimulus": "<p id=\"stim\">9</p>", "internal_node_id": "0.0-10.0-1.0", "time_elapsed": 205062, "key_press": -1, "trial_index": 11}, "uniqueid": "MTK3580:31Z0PCVWULMJEOINSZ8NVLWXFW37TN", "dateTime": 1520794057536}, {"current_trial": 12, "trialdata": {"rt": -1, "trial_type": "single-stim", "stimulus": "<p id=\"stim\">8</p>", "internal_node_id": "0.0-10.0-2.0", "time_elapsed": 206078, "key_press": -1, "trial_index": 12}, "uniqueid": "MTK3580:31Z0PCVWULMJEOINSZ8NVLWXFW37TN", "dateTime": 1520794058551}, {"current_trial": 13, "trialdata": {"rt": -1, "trial_type": "single-stim", "stimulus": "<p id=\"stim\">7</p>", "internal_node_id": "0.0-10.0-3.0", "time_elapsed": 207062, "key_press": -1, "trial_index": 13}, "uniqueid": "MTK3580:31Z0PCVWULMJEOINSZ8NVLWXFW37TN", "dateTime": 1520794059535}, {"current_trial": 14, "trialdata": {"rt": -1, "trial_type": "single-stim", "stimulus": "<p id=\"stim\">6</p>", "internal_node_id": "0.0-10.0-4.0", "time_elapsed": 208073, "key_press": -1, "trial_index": 14}, "uniqueid": "MTK3580:31Z0PCVWULMJEOINSZ8NVLWXFW37TN", "dateTime": 1520794060546}, {"current_trial": 15, "trialdata": {"rt": -1, "trial_type": "single-stim", "stimulus": "<p id=\"stim\">5</p>", "internal_node_id": "0.0-10.0-5.0", "time_elapsed": 209062, "key_press": -1, "trial_index": 15}, "uniqueid": "MTK3580:31Z0PCVWULMJEOINSZ8NVLWXFW37TN", "dateTime": 1520794061535}, {"current_trial": 16, "trialdata": {"rt": -1, "trial_type": "single-stim", "stimulus": "<p id=\"stim\">4</p>", "internal_node_id": "0.0-10.0-6.0", "time_elapsed": 210069, "key_press": -1, "trial_index": 16}, "uniqueid": "MTK3580:31Z0PCVWULMJEOINSZ8NVLWXFW37TN", "dateTime": 1520794062543}, {"current_trial": 17, "trialdata": {"rt": -1, "trial_type": "single-stim", "stimulus": "<p id=\"stim\">3</p>", "internal_node_id": "0.0-10.0-7.0", "time_elapsed": 211068, "key_press": -1, "trial_index": 17}, "uniqueid": "MTK3580:31Z0PCVWULMJEOINSZ8NVLWXFW37TN", "dateTime": 1520794063542}, {"current_trial": 18, "trialdata": {"rt": -1, "trial_type": "single-stim", "stimulus": "<p id=\"stim\">2</p>", "internal_node_id": "0.0-10.0-8.0", "time_elapsed": 212054, "key_press": -1, "trial_index": 18}, "uniqueid": "MTK3580:31Z0PCVWULMJEOINSZ8NVLWXFW37TN", "dateTime": 1520794064527}, {"current_trial": 19, "trialdata": {"rt": -1, "trial_type": "single-stim", "stimulus": "<p id=\"stim\">1</p>", "internal_node_id": "0.0-10.0-9.0", "time_elapsed": 213084, "key_press": -1, "trial_index": 19}, "uniqueid": "MTK3580:31Z0PCVWULMJEOINSZ8NVLWXFW37TN", "dateTime": 1520794065558}, {"current_trial": 20, "trialdata": {"rt": -1, "trial_type": "single-stim", "stimulus": "<p id=\"stim\">+</p>", "internal_node_id": "0.0-11.0-0.0", "time_elapsed": 214608, "key_press": -1, "type": "FIXATION", "trial_index": 20}, "uniqueid": "MTK3580:31Z0PCVWULMJEOINSZ8NVLWXFW37TN", "dateTime": 1520794067082}, {"current_trial": 21, "trialdata": {"rt": -1000, "trial_type": "single-audio", "word": "basement", "stimulus": "/static/audio/wordpool/BASEMENT.wav", "conditions": [18, 1200, "a", 18000], "internal_node_id": "0.0-12.0", "trial": 0, "time_elapsed": 216798, "serialpos": 0, "key_press": -1, "wordID": 93, "type": "PRES_AUD", "trial_index": 21}, "uniqueid": "MTK3580:31Z0PCVWULMJEOINSZ8NVLWXFW37TN", "dateTime": 1520794069271}, {"current_trial": 22, "trialdata": {"rt": -1000, "trial_type": "single-audio", "word": "sidewalk", "stimulus": "/static/audio/wordpool/SIDEWALK.wav", "conditions": [18, 1200, "a", 18000], "internal_node_id": "0.0-13.0", "trial": 0, "time_elapsed": 219142, "serialpos": 1, "key_press": -1, "wordID": 1302, "type": "PRES_AUD", "trial_index": 22}, "uniqueid": "MTK3580:31Z0PCVWULMJEOINSZ8NVLWXFW37TN", "dateTime": 1520794071615}, {"current_trial": 23, "trialdata": {"rt": -1000, "trial_type": "single-audio", "word": "zebra", "stimulus": "/static/audio/wordpool/ZEBRA.wav", "conditions": [18, 1200, "a", 18000], "internal_node_id": "0.0-14.0", "trial": 0, "time_elapsed": 221449, "serialpos": 2, "key_press": -1, "wordID": 1634, "type": "PRES_AUD", "trial_index": 23}, "uniqueid": "MTK3580:31Z0PCVWULMJEOINSZ8NVLWXFW37TN", "dateTime": 1520794073922}, {"current_trial": 24, "trialdata": {"rt": -1000, "trial_type": "single-audio", "word": "catcher", "stimulus": "/static/audio/wordpool/CATCHER.wav", "conditions": [18, 1200, "a", 18000], "internal_node_id": "0.0-15.0", "trial": 0, "time_elapsed": 223745, "serialpos": 3, "key_press": -1, "wordID": 257, "type": "PRES_AUD", "trial_index": 24}, "uniqueid": "MTK3580:31Z0PCVWULMJEOINSZ8NVLWXFW37TN", "dateTime": 1520794076218}, {"current_trial": 25, "trialdata": {"rt": -1000, "trial_type": "single-audio", "word": "package", "stimulus": "/static/audio/wordpool/PACKAGE.wav", "conditions": [18, 1200, "a", 18000], "internal_node_id": "0.0-16.0", "trial": 0, "time_elapsed": 225770, "serialpos": 4, "key_press": -1, "wordID": 996, "type": "PRES_AUD", "trial_index": 25}, "uniqueid": "MTK3580:31Z0PCVWULMJEOINSZ8NVLWXFW37TN", "dateTime": 1520794078244}, {"current_trial": 26, "trialdata": {"rt": -1000, "trial_type": "single-audio", "word": "puddle", "stimulus": "/static/audio/wordpool/PUDDLE.wav", "conditions": [18, 1200, "a", 18000], "internal_node_id": "0.0-17.0", "trial": 0, "time_elapsed": 228010, "serialpos": 5, "key_press": -1, "wordID": 1139, "type": "PRES_AUD", "trial_index": 26}, "uniqueid": "MTK3580:31Z0PCVWULMJEOINSZ8NVLWXFW37TN", "dateTime": 1520794080484}, {"current_trial": 27, "trialdata": {"rt": -1000, "trial_type": "single-audio", "word": "slide", "stimulus": "/static/audio/wordpool/SLIDE.wav", "conditions": [18, 1200, "a", 18000], "internal_node_id": "0.0-18.0", "trial": 0, "time_elapsed": 230218, "serialpos": 6, "key_press": -1, "wordID": 1325, "type": "PRES_AUD", "trial_index": 27}, "uniqueid": "MTK3580:31Z0PCVWULMJEOINSZ8NVLWXFW37TN", "dateTime": 1520794082692}, {"current_trial": 28, "trialdata": {"rt": -1000, "trial_type": "single-audio", "word": "tablet", "stimulus": "/static/audio/wordpool/TABLET.wav", "conditions": [18, 1200, "a", 18000], "internal_node_id": "0.0-19.0", "trial": 0, "time_elapsed": 232331, "serialpos": 7, "key_press": -1, "wordID": 1426, "type": "PRES_AUD", "trial_index": 28}, "uniqueid": "MTK3580:31Z0PCVWULMJEOINSZ8NVLWXFW37TN", "dateTime": 1520794084805}, {"current_trial": 29, "trialdata": {"rt": -1000, "trial_type": "single-audio", "word": "pastry", "stimulus": "/static/audio/wordpool/PASTRY.wav", "conditions": [18, 1200, "a", 18000], "internal_node_id": "0.0-20.0", "trial": 0, "time_elapsed": 234344, "serialpos": 8, "key_press": -1, "wordID": 1021, "type": "PRES_AUD", "trial_index": 29}, "uniqueid": "MTK3580:31Z0PCVWULMJEOINSZ8NVLWXFW37TN", "dateTime": 1520794086817}, {"current_trial": 30, "trialdata": {"rt": -1000, "trial_type": "single-audio", "word": "lagoon", "stimulus": "/static/audio/wordpool/LAGOON.wav", "conditions": [18, 1200, "a", 18000], "internal_node_id": "0.0-21.0", "trial": 0, "time_elapsed": 236587, "serialpos": 9, "key_press": -1, "wordID": 794, "type": "PRES_AUD", "trial_index": 30}, "uniqueid": "MTK3580:31Z0PCVWULMJEOINSZ8NVLWXFW37TN", "dateTime": 1520794089060}, {"current_trial": 31, "trialdata": {"rt": -1000, "trial_type": "single-audio", "word": "fungus", "stimulus": "/static/audio/wordpool/FUNGUS.wav", "conditions": [18, 1200, "a", 18000], "internal_node_id": "0.0-22.0", "trial": 0, "time_elapsed": 238819, "serialpos": 10, "key_press": -1, "wordID": 613, "type": "PRES_AUD", "trial_index": 31}, "uniqueid": "MTK3580:31Z0PCVWULMJEOINSZ8NVLWXFW37TN", "dateTime": 1520794091292}, {"current_trial": 32, "trialdata": {"rt": -1000, "trial_type": "single-audio", "word": "mars", "stimulus": "/static/audio/wordpool/MARS.wav", "conditions": [18, 1200, "a", 18000], "internal_node_id": "0.0-23.0", "trial": 0, "time_elapsed": 241036, "serialpos": 11, "key_press": -1, "wordID": 872, "type": "PRES_AUD", "trial_index": 32}, "uniqueid": "MTK3580:31Z0PCVWULMJEOINSZ8NVLWXFW37TN", "dateTime": 1520794093510}, {"current_trial": 33, "trialdata": {"rt": -1000, "trial_type": "single-audio", "word": "clamp", "stimulus": "/static/audio/wordpool/CLAMP.wav", "conditions": [18, 1200, "a", 18000], "internal_node_id": "0.0-24.0", "trial": 0, "time_elapsed": 243451, "serialpos": 12, "key_press": -1, "wordID": 315, "type": "PRES_AUD", "trial_index": 33}, "uniqueid": "MTK3580:31Z0PCVWULMJEOINSZ8NVLWXFW37TN", "dateTime": 1520794095925}, {"current_trial": 34, "trialdata": {"rt": -1000, "trial_type": "single-audio", "word": "leader", "stimulus": "/static/audio/wordpool/LEADER.wav", "conditions": [18, 1200, "a", 18000], "internal_node_id": "0.0-25.0", "trial": 0, "time_elapsed": 245775, "serialpos": 13, "key_press": -1, "wordID": 806, "type": "PRES_AUD", "trial_index": 34}, "uniqueid": "MTK3580:31Z0PCVWULMJEOINSZ8NVLWXFW37TN", "dateTime": 1520794098248}, {"current_trial": 35, "trialdata": {"rt": -1000, "trial_type": "single-audio", "word": "country", "stimulus": "/static/audio/wordpool/COUNTRY.wav", "conditions": [18, 1200, "a", 18000], "internal_node_id": "0.0-26.0", "trial": 0, "time_elapsed": 248065, "serialpos": 14, "key_press": -1, "wordID": 387, "type": "PRES_AUD", "trial_index": 35}, "uniqueid": "MTK3580:31Z0PCVWULMJEOINSZ8NVLWXFW37TN", "dateTime": 1520794100538}, {"current_trial": 36, "trialdata": {"rt": -1000, "trial_type": "single-audio", "word": "hamper", "stimulus": "/static/audio/wordpool/HAMPER.wav", "conditions": [18, 1200, "a", 18000], "internal_node_id": "0.0-27.0", "trial": 0, "time_elapsed": 250226, "serialpos": 15, "key_press": -1, "wordID": 681, "type": "PRES_AUD", "trial_index": 36}, "uniqueid": "MTK3580:31Z0PCVWULMJEOINSZ8NVLWXFW37TN", "dateTime": 1520794102699}, {"current_trial": 37, "trialdata": {"rt": -1000, "trial_type": "single-audio", "word": "gangster", "stimulus": "/static/audio/wordpool/GANGSTER.wav", "conditions": [18, 1200, "a", 18000], "internal_node_id": "0.0-28.0", "trial": 0, "time_elapsed": 252324, "serialpos": 16, "key_press": -1, "wordID": 619, "type": "PRES_AUD", "trial_index": 37}, "uniqueid": "MTK3580:31Z0PCVWULMJEOINSZ8NVLWXFW37TN", "dateTime": 1520794104797}, {"current_trial": 38, "trialdata": {"rt": -1000, "trial_type": "single-audio", "word": "report", "stimulus": "/static/audio/wordpool/REPORT.wav", "conditions": [18, 1200, "a", 18000], "internal_node_id": "0.0-29.0", "trial": 0, "time_elapsed": 254599, "serialpos": 17, "key_press": -1, "wordID": 1183, "type": "PRES_AUD", "trial_index": 38}, "uniqueid": "MTK3580:31Z0PCVWULMJEOINSZ8NVLWXFW37TN", "dateTime": 1520794107073}, {"current_trial": 39, "trialdata": {"rt": -1, "trial_type": "single-stim", "stimulus": "", "internal_node_id": "0.0-30.0-0.0", "time_elapsed": 255969, "key_press": -1, "type": "PRE_RECALL_DELAY", "trial_index": 39}, "uniqueid": "MTK3580:31Z0PCVWULMJEOINSZ8NVLWXFW37TN", "dateTime": 1520794108443}, {"current_trial": 40, "trialdata": {"rt": -1000, "trial_type": "single-audio", "stimulus": "/static/audio/400Hz.wav", "internal_node_id": "0.0-31.0", "time_elapsed": 256492, "key_press": -1, "type": "PRE_RECALL_ALERT", "trial_index": 40}, "uniqueid": "MTK3580:31Z0PCVWULMJEOINSZ8NVLWXFW37TN", "dateTime": 1520794108966}, {"current_trial": 41, "trialdata": {"rt": [3514, 5536, 7264, 8692, 11194, 12882, 14679, 16228, 24270, 28789, 38361, 45357], "recwords": ["gangster", "basement", "tablet", "liter", "sidewalk", "package", "puddle", "slide", "package", "zebra", "liter", "fungus"], "key_times": [1166, 1309, 1395, 1514, 1808, 2364, 2836, 2987, 3514, 4229, 4304, 4427, 4555, 4727, 4848, 4983, 5119, 5536, 6013, 6135, 6269, 6459, 6522, 6779, 7264, 7730, 7839, 7987, 8133, 8246, 8692, 9676, 9786, 9911, 10119, 10367, 10510, 10619, 10695, 11194, 11722, 11788, 11993, 12089, 12192, 12305, 12484, 12882, 13653, 13789, 13886, 14057, 14189, 14332, 14679, 15024, 15137, 15249, 15378, 15636, 16228, 23175, 23324, 23514, 23620, 23714, 23788, 24070, 24270, 27992, 28194, 28412, 28527, 28615, 28789, 36590, 36702, 36982, 37883, 38035, 38361, 44478, 44664, 44864, 44956, 45067, 45133, 45357], "trial_type": "free-recall", "conditions": [18, 1200, "a", 18000], "internal_node_id": "0.0-32.0-0.0", "key_presses": [71, 65, 78, 71, 83, 84, 69, 82, 13, 66, 65, 83, 69, 77, 69, 78, 84, 13, 84, 65, 66, 76, 69, 84, 13, 76, 73, 84, 69, 82, 13, 83, 73, 68, 69, 87, 65, 76, 75, 13, 80, 65, 67, 75, 65, 71, 69, 13, 80, 85, 68, 68, 76, 69, 13, 83, 76, 73, 68, 69, 13, 80, 65, 67, 75, 65, 71, 69, 13, 90, 69, 66, 82, 65, 13, 76, 73, 84, 69, 82, 13, 70, 85, 78, 71, 85, 83, 13], "trial": 0, "time_elapsed": 316523, "type": "FREE_RECALL", "trial_index": 41}, "uniqueid": "MTK3580:31Z0PCVWULMJEOINSZ8NVLWXFW37TN", "dateTime": 1520794169016}, {"current_trial": 42, "trialdata": {"rt": 11900, "trial_type": "text", "internal_node_id": "0.0-33.0", "time_elapsed": 330471, "key_press": 13, "type": "INSTRUCTIONS", "trial_index": 42}, "uniqueid": "MTK3580:31Z0PCVWULMJEOINSZ8NVLWXFW37TN", "dateTime": 1520794182944}, {"current_trial": 43, "trialdata": {"rt": [3840, 5950, 8415, 10084, 11541, 12921, 15092], "trial_type": "math-distractor", "key_times": [3471, 3561, 3840, 5421, 5950, 7885, 7961, 8415, 9843, 10084, 11305, 11541, 12713, 12921, 14788, 14878, 15092, 17779, 17947], "responses": ["16", "7", "15", "8", "6", "5", "20"], "num2": [6, 4, 4, 2, 1, 3, 9, 3], "num3": [9, 2, 9, 5, 4, 1, 8, 9], "conditions": [18, 1200, "a", 18000], "internal_node_id": "0.0-34.0", "key_presses": [97, 102, 13, 103, 13, 97, 101, 13, 104, 13, 102, 13, 101, 13, 98, 96, 13, 97, 102], "trial": 1, "time_elapsed": 350508, "type": "DISTRACTOR", "trial_index": 43, "num1": [1, 1, 2, 1, 1, 1, 3, 4]}, "uniqueid": "MTK3580:31Z0PCVWULMJEOINSZ8NVLWXFW37TN", "dateTime": 1520794202982}, {"current_trial": 44, "trialdata": {"rt": -1, "trial_type": "single-stim", "stimulus": "<p id=\"stim\">10</p>", "internal_node_id": "0.0-35.0-0.0", "time_elapsed": 353540, "key_press": -1, "trial_index": 44}, "uniqueid": "MTK3580:31Z0PCVWULMJEOINSZ8NVLWXFW37TN", "dateTime": 1520794206013}, {"current_trial": 45, "trialdata": {"rt": -1, "trial_type": "single-stim", "stimulus": "<p id=\"stim\">9</p>", "internal_node_id": "0.0-35.0-1.0", "time_elapsed": 354541, "key_press": -1, "trial_index": 45}, "uniqueid": "MTK3580:31Z0PCVWULMJEOINSZ8NVLWXFW37TN", "dateTime": 1520794207015}, {"current_trial": 46, "trialdata": {"rt": -1, "trial_type": "single-stim", "stimulus": "<p id=\"stim\">8</p>", "internal_node_id": "0.0-35.0-2.0", "time_elapsed": 355540, "key_press": -1, "trial_index": 46}, "uniqueid": "MTK3580:31Z0PCVWULMJEOINSZ8NVLWXFW37TN", "dateTime": 1520794208014}, {"current_trial": 47, "trialdata": {"rt": -1, "trial_type": "single-stim", "stimulus": "<p id=\"stim\">7</p>", "internal_node_id": "0.0-35.0-3.0", "time_elapsed": 356538, "key_press": -1, "trial_index": 47}, "uniqueid": "MTK3580:31Z0PCVWULMJEOINSZ8NVLWXFW37TN", "dateTime": 1520794209011}, {"current_trial": 48, "trialdata": {"rt": -1, "trial_type": "single-stim", "stimulus": "<p id=\"stim\">6</p>", "internal_node_id": "0.0-35.0-4.0", "time_elapsed": 357543, "key_press": -1, "trial_index": 48}, "uniqueid": "MTK3580:31Z0PCVWULMJEOINSZ8NVLWXFW37TN", "dateTime": 1520794210016}, {"current_trial": 49, "trialdata": {"rt": -1, "trial_type": "single-stim", "stimulus": "<p id=\"stim\">5</p>", "internal_node_id": "0.0-35.0-5.0", "time_elapsed": 358545, "key_press": -1, "trial_index": 49}, "uniqueid": "MTK3580:31Z0PCVWULMJEOINSZ8NVLWXFW37TN", "dateTime": 1520794211018}, {"current_trial": 50, "trialdata": {"rt": -1, "trial_type": "single-stim", "stimulus": "<p id=\"stim\">4</p>", "internal_node_id": "0.0-35.0-6.0", "time_elapsed": 359538, "key_press": -1, "trial_index": 50}, "uniqueid": "MTK3580:31Z0PCVWULMJEOINSZ8NVLWXFW37TN", "dateTime": 1520794212011}, {"current_trial": 51, "trialdata": {"rt": -1, "trial_type": "single-stim", "stimulus": "<p id=\"stim\">3</p>", "internal_node_id": "0.0-35.0-7.0", "time_elapsed": 360545, "key_press": -1, "trial_index": 51}, "uniqueid": "MTK3580:31Z0PCVWULMJEOINSZ8NVLWXFW37TN", "dateTime": 1520794213019}, {"current_trial": 52, "trialdata": {"rt": -1, "trial_type": "single-stim", "stimulus": "<p id=\"stim\">2</p>", "internal_node_id": "0.0-35.0-8.0", "time_elapsed": 361534, "key_press": -1, "trial_index": 52}, "uniqueid": "MTK3580:31Z0PCVWULMJEOINSZ8NVLWXFW37TN", "dateTime": 1520794214007}, {"current_trial": 53, "trialdata": {"rt": -1, "trial_type": "single-stim", "stimulus": "<p id=\"stim\">1</p>", "internal_node_id": "0.0-35.0-9.0", "time_elapsed": 362542, "key_press": -1, "trial_index": 53}, "uniqueid": "MTK3580:31Z0PCVWULMJEOINSZ8NVLWXFW37TN", "dateTime": 1520794215016}, {"current_trial": 54, "trialdata": {"rt": -1, "trial_type": "single-stim", "stimulus": "<p id=\"stim\">+</p>", "internal_node_id": "0.0-36.0-0.0", "time_elapsed": 364051, "key_press": -1, "type": "FIXATION", "trial_index": 54}, "uniqueid": "MTK3580:31Z0PCVWULMJEOINSZ8NVLWXFW37TN", "dateTime": 1520794216525}, {"current_trial": 55, "trialdata": {"rt": -1000, "trial_type": "single-audio", "word": "mildew", "stimulus": "/static/audio/wordpool/MILDEW.wav", "conditions": [18, 1200, "a", 18000], "internal_node_id": "0.0-37.0", "trial": 1, "time_elapsed": 366366, "serialpos": 0, "key_press": -1, "wordID": 892, "type": "PRES_AUD", "trial_index": 55}, "uniqueid": "MTK3580:31Z0PCVWULMJEOINSZ8NVLWXFW37TN", "dateTime": 1520794218839}, {"current_trial": 56, "trialdata": {"rt": -1000, "trial_type": "single-audio", "word": "critic", "stimulus": "/static/audio/wordpool/CRITIC.wav", "conditions": [18, 1200, "a", 18000], "internal_node_id": "0.0-38.0", "trial": 1, "time_elapsed": 368520, "serialpos": 1, "key_press": -1, "wordID": 409, "type": "PRES_AUD", "trial_index": 56}, "uniqueid": "MTK3580:31Z0PCVWULMJEOINSZ8NVLWXFW37TN", "dateTime": 1520794220994}, {"current_trial": 57, "trialdata": {"rt": -1000, "trial_type": "single-audio", "word": "fleet", "stimulus": "/static/audio/wordpool/FLEET.wav", "conditions": [18, 1200, "a", 18000], "internal_node_id": "0.0-39.0", "trial": 1, "time_elapsed": 370907, "serialpos": 2, "key_press": -1, "wordID": 577, "type": "PRES_AUD", "trial_index": 57}, "uniqueid": "MTK3580:31Z0PCVWULMJEOINSZ8NVLWXFW37TN", "dateTime": 1520794223381}, {"current_trial": 58, "trialdata": {"rt": -1000, "trial_type": "single-audio", "word": "cyclone", "stimulus": "/static/audio/wordpool/CYCLONE.wav", "conditions": [18, 1200, "a", 18000], "internal_node_id": "0.0-40.0", "trial": 1, "time_elapsed": 373123, "serialpos": 3, "key_press": -1, "wordID": 430, "type": "PRES_AUD", "trial_index": 58}, "uniqueid": "MTK3580:31Z0PCVWULMJEOINSZ8NVLWXFW37TN", "dateTime": 1520794225597}, {"current_trial": 59, "trialdata": {"rt": -1000, "trial_type": "single-audio", "word": "eagle", "stimulus": "/static/audio/wordpool/EAGLE.wav", "conditions": [18, 1200, "a", 18000], "internal_node_id": "0.0-41.0", "trial": 1, "time_elapsed": 375420, "serialpos": 4, "key_press": -1, "wordID": 511, "type": "PRES_AUD", "trial_index": 59}, "uniqueid": "MTK3580:31Z0PCVWULMJEOINSZ8NVLWXFW37TN", "dateTime": 1520794227893}, {"current_trial": 60, "trialdata": {"rt": -1000, "trial_type": "single-audio", "word": "nurse", "stimulus": "/static/audio/wordpool/NURSE.wav", "conditions": [18, 1200, "a", 18000], "internal_node_id": "0.0-42.0", "trial": 1, "time_elapsed": 377830, "serialpos": 5, "key_press": -1, "wordID": 962, "type": "PRES_AUD", "trial_index": 60}, "uniqueid": "MTK3580:31Z0PCVWULMJEOINSZ8NVLWXFW37TN", "dateTime": 1520794230304}, {"current_trial": 61, "trialdata": {"rt": -1000, "trial_type": "single-audio", "word": "pepper", "stimulus": "/static/audio/wordpool/PEPPER.wav", "conditions": [18, 1200, "a", 18000], "internal_node_id": "0.0-43.0", "trial": 1, "time_elapsed": 380203, "serialpos": 6, "key_press": -1, "wordID": 1046, "type": "PRES_AUD", "trial_index": 61}, "uniqueid": "MTK3580:31Z0PCVWULMJEOINSZ8NVLWXFW37TN", "dateTime": 1520794232677}, {"current_trial": 62, "trialdata": {"rt": -1000, "trial_type": "single-audio", "word": "sunrise", "stimulus": "/static/audio/wordpool/SUNRISE.wav", "conditions": [18, 1200, "a", 18000], "internal_node_id": "0.0-44.0", "trial": 1, "time_elapsed": 382539, "serialpos": 7, "key_press": -1, "wordID": 1406, "type": "PRES_AUD", "trial_index": 62}, "uniqueid": "MTK3580:31Z0PCVWULMJEOINSZ8NVLWXFW37TN", "dateTime": 1520794235012}, {"current_trial": 63, "trialdata": {"rt": -1000, "trial_type": "single-audio", "word": "trench", "stimulus": "/static/audio/wordpool/TRENCH.wav", "conditions": [18, 1200, "a", 18000], "internal_node_id": "0.0-45.0", "trial": 1, "time_elapsed": 384740, "serialpos": 8, "key_press": -1, "wordID": 1502, "type": "PRES_AUD", "trial_index": 63}, "uniqueid": "MTK3580:31Z0PCVWULMJEOINSZ8NVLWXFW37TN", "dateTime": 1520794237213}, {"current_trial": 64, "trialdata": {"rt": -1000, "trial_type": "single-audio", "word": "drill", "stimulus": "/static/audio/wordpool/DRILL.wav", "conditions": [18, 1200, "a", 18000], "internal_node_id": "0.0-46.0", "trial": 1, "time_elapsed": 386817, "serialpos": 9, "key_press": -1, "wordID": 496, "type": "PRES_AUD", "trial_index": 64}, "uniqueid": "MTK3580:31Z0PCVWULMJEOINSZ8NVLWXFW37TN", "dateTime": 1520794239290}, {"current_trial": 65, "trialdata": {"rt": -1000, "trial_type": "single-audio", "word": "umpire", "stimulus": "/static/audio/wordpool/UMPIRE.wav", "conditions": [18, 1200, "a", 18000], "internal_node_id": "0.0-47.0", "trial": 1, "time_elapsed": 388909, "serialpos": 10, "key_press": -1, "wordID": 1534, "type": "PRES_AUD", "trial_index": 65}, "uniqueid": "MTK3580:31Z0PCVWULMJEOINSZ8NVLWXFW37TN", "dateTime": 1520794241383}, {"current_trial": 66, "trialdata": {"rt": -1000, "trial_type": "single-audio", "word": "girl", "stimulus": "/static/audio/wordpool/GIRL.wav", "conditions": [18, 1200, "a", 18000], "internal_node_id": "0.0-48.0", "trial": 1, "time_elapsed": 391109, "serialpos": 11, "key_press": -1, "wordID": 636, "type": "PRES_AUD", "trial_index": 66}, "uniqueid": "MTK3580:31Z0PCVWULMJEOINSZ8NVLWXFW37TN", "dateTime": 1520794243583}, {"current_trial": 67, "trialdata": {"rt": -1000, "trial_type": "single-audio", "word": "friend", "stimulus": "/static/audio/wordpool/FRIEND.wav", "conditions": [18, 1200, "a", 18000], "internal_node_id": "0.0-49.0", "trial": 1, "time_elapsed": 393436, "serialpos": 12, "key_press": -1, "wordID": 605, "type": "PRES_AUD", "trial_index": 67}, "uniqueid": "MTK3580:31Z0PCVWULMJEOINSZ8NVLWXFW37TN", "dateTime": 1520794245910}, {"current_trial": 68, "trialdata": {"rt": -1000, "trial_type": "single-audio", "word": "lake", "stimulus": "/static/audio/wordpool/LAKE.wav", "conditions": [18, 1200, "a", 18000], "internal_node_id": "0.0-50.0", "trial": 1, "time_elapsed": 395806, "serialpos": 13, "key_press": -1, "wordID": 795, "type": "PRES_AUD", "trial_index": 68}, "uniqueid": "MTK3580:31Z0PCVWULMJEOINSZ8NVLWXFW37TN", "dateTime": 1520794248280}, {"current_trial": 69, "trialdata": {"rt": -1000, "trial_type": "single-audio", "word": "fireman", "stimulus": "/static/audio/wordpool/FIREMAN.wav", "conditions": [18, 1200, "a", 18000], "internal_node_id": "0.0-51.0", "trial": 1, "time_elapsed": 398056, "serialpos": 14, "key_press": -1, "wordID": 568, "type": "PRES_AUD", "trial_index": 69}, "uniqueid": "MTK3580:31Z0PCVWULMJEOINSZ8NVLWXFW37TN", "dateTime": 1520794250530}, {"current_trial": 70, "trialdata": {"rt": -1000, "trial_type": "single-audio", "word": "backbone", "stimulus": "/static/audio/wordpool/BACKBONE.wav", "conditions": [18, 1200, "a", 18000], "internal_node_id": "0.0-52.0", "trial": 1, "time_elapsed": 400319, "serialpos": 15, "key_press": -1, "wordID": 65, "type": "PRES_AUD", "trial_index": 70}, "uniqueid": "MTK3580:31Z0PCVWULMJEOINSZ8NVLWXFW37TN", "dateTime": 1520794252793}, {"current_trial": 71, "trialdata": {"rt": -1000, "trial_type": "single-audio", "word": "peach", "stimulus": "/static/audio/wordpool/PEACH.wav", "conditions": [18, 1200, "a", 18000], "internal_node_id": "0.0-53.0", "trial": 1, "time_elapsed": 402371, "serialpos": 16, "key_press": -1, "wordID": 1030, "type": "PRES_AUD", "trial_index": 71}, "uniqueid": "MTK3580:31Z0PCVWULMJEOINSZ8NVLWXFW37TN", "dateTime": 1520794254845}, {"current_trial": 72, "trialdata": {"rt": -1000, "trial_type": "single-audio", "word": "relish", "stimulus": "/static/audio/wordpool/RELISH.wav", "conditions": [18, 1200, "a", 18000], "internal_node_id": "0.0-54.0", "trial": 1, "time_elapsed": 404754, "serialpos": 17, "key_press": -1, "wordID": 1182, "type": "PRES_AUD", "trial_index": 72}, "uniqueid": "MTK3580:31Z0PCVWULMJEOINSZ8NVLWXFW37TN", "dateTime": 1520794257228}, {"current_trial": 73, "trialdata": {"rt": -1, "trial_type": "single-stim", "stimulus": "", "internal_node_id": "0.0-55.0-0.0", "time_elapsed": 406001, "key_press": -1, "type": "PRE_RECALL_DELAY", "trial_index": 73}, "uniqueid": "MTK3580:31Z0PCVWULMJEOINSZ8NVLWXFW37TN", "dateTime": 1520794258475}, {"current_trial": 74, "trialdata": {"rt": -1000, "trial_type": "single-audio", "stimulus": "/static/audio/400Hz.wav", "internal_node_id": "0.0-56.0", "time_elapsed": 406519, "key_press": -1, "type": "PRE_RECALL_ALERT", "trial_index": 74}, "uniqueid": "MTK3580:31Z0PCVWULMJEOINSZ8NVLWXFW37TN", "dateTime": 1520794258993}, {"current_trial": 75, "trialdata": {"rt": [3972, 7472, 9980, 12846, 15317, 17443, 19360, 22510, 28624, 34642], "recwords": ["mildew", "fireman", "fleet", "pepper", "drill", "girl", "friend", "peach", "eagle", "relish"], "key_times": [1372, 1683, 1907, 2062, 2547, 2664, 3972, 4526, 4605, 4740, 4819, 5001, 5138, 5242, 6514, 6702, 6957, 7123, 7472, 8353, 8469, 8601, 8779, 8956, 9980, 12010, 12113, 12239, 12367, 12470, 12581, 12846, 14493, 14681, 14786, 14977, 15134, 15317, 16852, 16958, 17098, 17192, 17443, 17936, 18128, 18191, 18337, 18447, 18641, 19360, 20304, 20445, 21025, 21518, 21633, 21903, 22016, 22510, 26474, 26603, 26836, 26967, 27099, 28624, 33840, 33934, 33998, 34072, 34177, 34267, 34642], "trial_type": "free-recall", "conditions": [18, 1200, "a", 18000], "internal_node_id": "0.0-57.0-0.0", "key_presses": [77, 73, 76, 68, 69, 87, 13, 70, 73, 82, 69, 77, 69, 78, 8, 8, 65, 78, 13, 70, 76, 69, 69, 84, 13, 80, 69, 80, 80, 69, 82, 13, 68, 82, 73, 76, 76, 13, 71, 73, 82, 76, 13, 70, 82, 73, 69, 78, 68, 13, 80, 65, 8, 69, 65, 67, 72, 13, 69, 65, 71, 76, 69, 13, 82, 69, 76, 73, 83, 72, 13], "trial": 1, "time_elapsed": 466548, "type": "FREE_RECALL", "trial_index": 75}, "uniqueid": "MTK3580:31Z0PCVWULMJEOINSZ8NVLWXFW37TN", "dateTime": 1520794319032}, {"current_trial": 76, "trialdata": {"rt": 2817, "trial_type": "text", "internal_node_id": "0.0-58.0", "time_elapsed": 471395, "key_press": 13, "type": "INSTRUCTIONS", "trial_index": 76}, "uniqueid": "MTK3580:31Z0PCVWULMJEOINSZ8NVLWXFW37TN", "dateTime": 1520794323868}, {"current_trial": 77, "trialdata": {"rt": [2480, 4187, 5715, 7405, 9831, 11644, 14554, 17233, 19145, 20458, 22966], "trial_type": "math-distractor", "key_times": [1774, 1817, 2480, 3770, 3862, 4187, 5309, 5715, 7073, 7155, 7405, 9391, 9587, 9831, 11248, 11428, 11644, 14240, 14304, 14554, 16526, 16967, 17233, 18833, 18907, 19145, 20224, 20458, 22540, 22744, 22966], "responses": ["12", "19", "6", "16", "17", "14", "15", "24", "13", "4", "14"], "num2": [2, 1, 4, 6, 5, 3, 5, 9, 2, 1, 8, 3], "num3": [5, 9, 1, 9, 9, 2, 4, 7, 3, 1, 4, 3], "conditions": [12, 1600, "a", 24000], "internal_node_id": "0.0-59.0", "key_presses": [97, 98, 13, 97, 105, 13, 102, 13, 97, 102, 13, 97, 103, 13, 97, 100, 13, 97, 101, 13, 98, 100, 13, 97, 99, 13, 100, 13, 97, 100, 13], "trial": 2, "time_elapsed": 496437, "type": "DISTRACTOR", "trial_index": 77, "num1": [5, 9, 1, 1, 3, 9, 6, 8, 8, 2, 2, 2]}, "uniqueid": "MTK3580:31Z0PCVWULMJEOINSZ8NVLWXFW37TN", "dateTime": 1520794348911}, {"current_trial": 78, "trialdata": {"rt": -1, "trial_type": "single-stim", "stimulus": "<p id=\"stim\">10</p>", "internal_node_id": "0.0-60.0-0.0", "time_elapsed": 499474, "key_press": -1, "trial_index": 78}, "uniqueid": "MTK3580:31Z0PCVWULMJEOINSZ8NVLWXFW37TN", "dateTime": 1520794351948}, {"current_trial": 79, "trialdata": {"rt": -1, "trial_type": "single-stim", "stimulus": "<p id=\"stim\">9</p>", "internal_node_id": "0.0-60.0-1.0", "time_elapsed": 500474, "key_press": -1, "trial_index": 79}, "uniqueid": "MTK3580:31Z0PCVWULMJEOINSZ8NVLWXFW37TN", "dateTime": 1520794352947}, {"current_trial": 80, "trialdata": {"rt": -1, "trial_type": "single-stim", "stimulus": "<p id=\"stim\">8</p>", "internal_node_id": "0.0-60.0-2.0", "time_elapsed": 501474, "key_press": -1, "trial_index": 80}, "uniqueid": "MTK3580:31Z0PCVWULMJEOINSZ8NVLWXFW37TN", "dateTime": 1520794353947}, {"current_trial": 81, "trialdata": {"rt": -1, "trial_type": "single-stim", "stimulus": "<p id=\"stim\">7</p>", "internal_node_id": "0.0-60.0-3.0", "time_elapsed": 502475, "key_press": -1, "trial_index": 81}, "uniqueid": "MTK3580:31Z0PCVWULMJEOINSZ8NVLWXFW37TN", "dateTime": 1520794354949}, {"current_trial": 82, "trialdata": {"rt": -1, "trial_type": "single-stim", "stimulus": "<p id=\"stim\">6</p>", "internal_node_id": "0.0-60.0-4.0", "time_elapsed": 503472, "key_press": -1, "trial_index": 82}, "uniqueid": "MTK3580:31Z0PCVWULMJEOINSZ8NVLWXFW37TN", "dateTime": 1520794355946}, {"current_trial": 83, "trialdata": {"rt": -1, "trial_type": "single-stim", "stimulus": "<p id=\"stim\">5</p>", "internal_node_id": "0.0-60.0-5.0", "time_elapsed": 504481, "key_press": -1, "trial_index": 83}, "uniqueid": "MTK3580:31Z0PCVWULMJEOINSZ8NVLWXFW37TN", "dateTime": 1520794356955}, {"current_trial": 84, "trialdata": {"rt": -1, "trial_type": "single-stim", "stimulus": "<p id=\"stim\">4</p>", "internal_node_id": "0.0-60.0-6.0", "time_elapsed": 505470, "key_press": -1, "trial_index": 84}, "uniqueid": "MTK3580:31Z0PCVWULMJEOINSZ8NVLWXFW37TN", "dateTime": 1520794357944}, {"current_trial": 85, "trialdata": {"rt": -1, "trial_type": "single-stim", "stimulus": "<p id=\"stim\">3</p>", "internal_node_id": "0.0-60.0-7.0", "time_elapsed": 506471, "key_press": -1, "trial_index": 85}, "uniqueid": "MTK3580:31Z0PCVWULMJEOINSZ8NVLWXFW37TN", "dateTime": 1520794358945}, {"current_trial": 86, "trialdata": {"rt": -1, "trial_type": "single-stim", "stimulus": "<p id=\"stim\">2</p>", "internal_node_id": "0.0-60.0-8.0", "time_elapsed": 507476, "key_press": -1, "trial_index": 86}, "uniqueid": "MTK3580:31Z0PCVWULMJEOINSZ8NVLWXFW37TN", "dateTime": 1520794359949}, {"current_trial": 87, "trialdata": {"rt": -1, "trial_type": "single-stim", "stimulus": "<p id=\"stim\">1</p>", "internal_node_id": "0.0-60.0-9.0", "time_elapsed": 508476, "key_press": -1, "trial_index": 87}, "uniqueid": "MTK3580:31Z0PCVWULMJEOINSZ8NVLWXFW37TN", "dateTime": 1520794360949}, {"current_trial": 88, "trialdata": {"rt": -1, "trial_type": "single-stim", "stimulus": "<p id=\"stim\">+</p>", "internal_node_id": "0.0-61.0-0.0", "time_elapsed": 509998, "key_press": -1, "type": "FIXATION", "trial_index": 88}, "uniqueid": "MTK3580:31Z0PCVWULMJEOINSZ8NVLWXFW37TN", "dateTime": 1520794362472}, {"current_trial": 89, "trialdata": {"rt": -1000, "trial_type": "single-audio", "word": "space", "stimulus": "/static/audio/wordpool/SPACE.wav", "conditions": [12, 1600, "a", 24000], "internal_node_id": "0.0-62.0", "trial": 2, "time_elapsed": 512664, "serialpos": 0, "key_press": -1, "wordID": 1344, "type": "PRES_AUD", "trial_index": 89}, "uniqueid": "MTK3580:31Z0PCVWULMJEOINSZ8NVLWXFW37TN", "dateTime": 1520794365137}, {"current_trial": 90, "trialdata": {"rt": -1000, "trial_type": "single-audio", "word": "market", "stimulus": "/static/audio/wordpool/MARKET.wav", "conditions": [12, 1600, "a", 24000], "internal_node_id": "0.0-63.0", "trial": 2, "time_elapsed": 515429, "serialpos": 1, "key_press": -1, "wordID": 870, "type": "PRES_AUD", "trial_index": 90}, "uniqueid": "MTK3580:31Z0PCVWULMJEOINSZ8NVLWXFW37TN", "dateTime": 1520794367903}, {"current_trial": 91, "trialdata": {"rt": -1000, "trial_type": "single-audio", "word": "stove", "stimulus": "/static/audio/wordpool/STOVE.wav", "conditions": [12, 1600, "a", 24000], "internal_node_id": "0.0-64.0", "trial": 2, "time_elapsed": 517986, "serialpos": 2, "key_press": -1, "wordID": 1387, "type": "PRES_AUD", "trial_index": 91}, "uniqueid": "MTK3580:31Z0PCVWULMJEOINSZ8NVLWXFW37TN", "dateTime": 1520794370460}, {"current_trial": 92, "trialdata": {"rt": -1000, "trial_type": "single-audio", "word": "doughnut", "stimulus": "/static/audio/wordpool/DOUGHNUT.wav", "conditions": [12, 1600, "a", 24000], "internal_node_id": "0.0-65.0", "trial": 2, "time_elapsed": 520585, "serialpos": 3, "key_press": -1, "wordID": 489, "type": "PRES_AUD", "trial_index": 92}, "uniqueid": "MTK3580:31Z0PCVWULMJEOINSZ8NVLWXFW37TN", "dateTime": 1520794373059}, {"current_trial": 93, "trialdata": {"rt": -1000, "trial_type": "single-audio", "word": "vagrant", "stimulus": "/static/audio/wordpool/VAGRANT.wav", "conditions": [12, 1600, "a", 24000], "internal_node_id": "0.0-66.0", "trial": 2, "time_elapsed": 523183, "serialpos": 4, "key_press": -1, "wordID": 1543, "type": "PRES_AUD", "trial_index": 93}, "uniqueid": "MTK3580:31Z0PCVWULMJEOINSZ8NVLWXFW37TN", "dateTime": 1520794375657}, {"current_trial": 94, "trialdata": {"rt": -1000, "trial_type": "single-audio", "word": "subway", "stimulus": "/static/audio/wordpool/SUBWAY.wav", "conditions": [12, 1600, "a", 24000], "internal_node_id": "0.0-67.0", "trial": 2, "time_elapsed": 525842, "serialpos": 5, "key_press": -1, "wordID": 1399, "type": "PRES_AUD", "trial_index": 94}, "uniqueid": "MTK3580:31Z0PCVWULMJEOINSZ8NVLWXFW37TN", "dateTime": 1520794378316}, {"current_trial": 95, "trialdata": {"rt": -1000, "trial_type": "single-audio", "word": "fiddle", "stimulus": "/static/audio/wordpool/FIDDLE.wav", "conditions": [12, 1600, "a", 24000], "internal_node_id": "0.0-68.0", "trial": 2, "time_elapsed": 528628, "serialpos": 6, "key_press": -1, "wordID": 560, "type": "PRES_AUD", "trial_index": 95}, "uniqueid": "MTK3580:31Z0PCVWULMJEOINSZ8NVLWXFW37TN", "dateTime": 1520794381101}, {"current_trial": 96, "trialdata": {"rt": -1000, "trial_type": "single-audio", "word": "world", "stimulus": "/static/audio/wordpool/WORLD.wav", "conditions": [12, 1600, "a", 24000], "internal_node_id": "0.0-69.0", "trial": 2, "time_elapsed": 531305, "serialpos": 7, "key_press": -1, "wordID": 1621, "type": "PRES_AUD", "trial_index": 96}, "uniqueid": "MTK3580:31Z0PCVWULMJEOINSZ8NVLWXFW37TN", "dateTime": 1520794383779}, {"current_trial": 97, "trialdata": {"rt": -1000, "trial_type": "single-audio", "word": "globe", "stimulus": "/static/audio/wordpool/GLOBE.wav", "conditions": [12, 1600, "a", 24000], "internal_node_id": "0.0-70.0", "trial": 2, "time_elapsed": 533769, "serialpos": 8, "key_press": -1, "wordID": 640, "type": "PRES_AUD", "trial_index": 97}, "uniqueid": "MTK3580:31Z0PCVWULMJEOINSZ8NVLWXFW37TN", "dateTime": 1520794386242}, {"current_trial": 98, "trialdata": {"rt": -1000, "trial_type": "single-audio", "word": "lunch", "stimulus": "/static/audio/wordpool/LUNCH.wav", "conditions": [12, 1600, "a", 24000], "internal_node_id": "0.0-71.0", "trial": 2, "time_elapsed": 536197, "serialpos": 9, "key_press": -1, "wordID": 848, "type": "PRES_AUD", "trial_index": 98}, "uniqueid": "MTK3580:31Z0PCVWULMJEOINSZ8NVLWXFW37TN", "dateTime": 1520794388670}, {"current_trial": 99, "trialdata": {"rt": -1000, "trial_type": "single-audio", "word": "robber", "stimulus": "/static/audio/wordpool/ROBBER.wav", "conditions": [12, 1600, "a", 24000], "internal_node_id": "0.0-72.0", "trial": 2, "time_elapsed": 538644, "serialpos": 10, "key_press": -1, "wordID": 1196, "type": "PRES_AUD", "trial_index": 99}, "uniqueid": "MTK3580:31Z0PCVWULMJEOINSZ8NVLWXFW37TN", "dateTime": 1520794391118}, {"current_trial": 100, "trialdata": {"rt": -1000, "trial_type": "single-audio", "word": "toaster", "stimulus": "/static/audio/wordpool/TOASTER.wav", "conditions": [12, 1600, "a", 24000], "internal_node_id": "0.0-73.0", "trial": 2, "time_elapsed": 541274, "serialpos": 11, "key_press": -1, "wordID": 1471, "type": "PRES_AUD", "trial_index": 100}, "uniqueid": "MTK3580:31Z0PCVWULMJEOINSZ8NVLWXFW37TN", "dateTime": 1520794393748}, {"current_trial": 101, "trialdata": {"rt": -1, "trial_type": "single-stim", "stimulus": "", "internal_node_id": "0.0-74.0-0.0", "time_elapsed": 542597, "key_press": -1, "type": "PRE_RECALL_DELAY", "trial_index": 101}, "uniqueid": "MTK3580:31Z0PCVWULMJEOINSZ8NVLWXFW37TN", "dateTime": 1520794395071}, {"current_trial": 102, "trialdata": {"rt": -1000, "trial_type": "single-audio", "stimulus": "/static/audio/400Hz.wav", "internal_node_id": "0.0-75.0", "time_elapsed": 543113, "key_press": -1, "type": "PRE_RECALL_ALERT", "trial_index": 102}, "uniqueid": "MTK3580:31Z0PCVWULMJEOINSZ8NVLWXFW37TN", "dateTime": 1520794395586}, {"current_trial": 103, "trialdata": {"rt": [2373, 3861, 4841, 6395, 8392, 9989, 14558, 17050, 19952], "recwords": ["toaster", "space", "market", "globe", "lunch", "robber", "vagrant", "subway", "donut"], "key_times": [566, 705, 828, 988, 1130, 1304, 1429, 2373, 3050, 3164, 3300, 3494, 3735, 3861, 4108, 4195, 4252, 4353, 4479, 4604, 4841, 5716, 5808, 5964, 6154, 6232, 6395, 7598, 7755, 7984, 8117, 8187, 8392, 9329, 9416, 9595, 9717, 9816, 9866, 9989, 11085, 12351, 12627, 12744, 12914, 13145, 13260, 13418, 13526, 14558, 15950, 16078, 16281, 16506, 16618, 16765, 17050, 19055, 19128, 19306, 19575, 19694, 19952], "trial_type": "free-recall", "conditions": [12, 1600, "a", 24000], "internal_node_id": "0.0-76.0-0.0", "key_presses": [84, 79, 65, 83, 84, 69, 82, 13, 83, 80, 65, 67, 69, 13, 77, 65, 82, 75, 69, 84, 13, 71, 76, 79, 66, 69, 13, 76, 85, 78, 67, 72, 13, 82, 79, 66, 66, 69, 82, 13, 66, 8, 86, 65, 71, 82, 65, 78, 84, 13, 83, 85, 66, 87, 65, 89, 13, 68, 79, 78, 85, 84, 13], "trial": 2, "time_elapsed": 603150, "type": "FREE_RECALL", "trial_index": 103}, "uniqueid": "MTK3580:31Z0PCVWULMJEOINSZ8NVLWXFW37TN", "dateTime": 1520794455636}, {"current_trial": 104, "trialdata": {"rt": 2042, "trial_type": "text", "internal_node_id": "0.0-77.0", "time_elapsed": 607233, "key_press": 13, "type": "INSTRUCTIONS", "trial_index": 104}, "uniqueid": "MTK3580:31Z0PCVWULMJEOINSZ8NVLWXFW37TN", "dateTime": 1520794459707}, {"current_trial": 105, "trialdata": {"rt": [1966, 5094, 7330, 9772, 12207, 15293, 16811, 18484, 19847, 21381, 22933], "trial_type": "math-distractor", "key_times": [1718, 1966, 4687, 4845, 5094, 6963, 7054, 7330, 9380, 9461, 9772, 11853, 12035, 12207, 14771, 14890, 15293, 16505, 16587, 16811, 18100, 18283, 18484, 19632, 19847, 21054, 21131, 21381, 22573, 22659, 22933], "responses": ["9", "21", "15", "18", "23", "15", "10", "14", "5", "12", "10"], "num2": [6, 7, 7, 5, 9, 3, 5, 6, 1, 4, 1, 6], "num3": [1, 8, 4, 7, 5, 3, 4, 1, 1, 6, 8, 2], "conditions": [24, 800, "a", 24000], "internal_node_id": "0.0-78.0", "key_presses": [105, 13, 98, 97, 13, 97, 101, 13, 97, 104, 13, 98, 99, 13, 97, 101, 13, 97, 96, 13, 97, 100, 13, 101, 13, 97, 98, 13, 97, 96, 13], "trial": 3, "time_elapsed": 633264, "type": "DISTRACTOR", "trial_index": 105, "num1": [2, 6, 4, 6, 9, 9, 1, 7, 3, 2, 1, 9]}, "uniqueid": "MTK3580:31Z0PCVWULMJEOINSZ8NVLWXFW37TN", "dateTime": 1520794485738}, {"current_trial": 106, "trialdata": {"rt": -1, "trial_type": "single-stim", "stimulus": "<p id=\"stim\">10</p>", "internal_node_id": "0.0-79.0-0.0", "time_elapsed": 636291, "key_press": -1, "trial_index": 106}, "uniqueid": "MTK3580:31Z0PCVWULMJEOINSZ8NVLWXFW37TN", "dateTime": 1520794488765}, {"current_trial": 107, "trialdata": {"rt": -1, "trial_type": "single-stim", "stimulus": "<p id=\"stim\">9</p>", "internal_node_id": "0.0-79.0-1.0", "time_elapsed": 637291, "key_press": -1, "trial_index": 107}, "uniqueid": "MTK3580:31Z0PCVWULMJEOINSZ8NVLWXFW37TN", "dateTime": 1520794489765}, {"current_trial": 108, "trialdata": {"rt": -1, "trial_type": "single-stim", "stimulus": "<p id=\"stim\">8</p>", "internal_node_id": "0.0-79.0-2.0", "time_elapsed": 638297, "key_press": -1, "trial_index": 108}, "uniqueid": "MTK3580:31Z0PCVWULMJEOINSZ8NVLWXFW37TN", "dateTime": 1520794490771}, {"current_trial": 109, "trialdata": {"rt": -1, "trial_type": "single-stim", "stimulus": "<p id=\"stim\">7</p>", "internal_node_id": "0.0-79.0-3.0", "time_elapsed": 639298, "key_press": -1, "trial_index": 109}, "uniqueid": "MTK3580:31Z0PCVWULMJEOINSZ8NVLWXFW37TN", "dateTime": 1520794491771}, {"current_trial": 110, "trialdata": {"rt": -1, "trial_type": "single-stim", "stimulus": "<p id=\"stim\">6</p>", "internal_node_id": "0.0-79.0-4.0", "time_elapsed": 640283, "key_press": -1, "trial_index": 110}, "uniqueid": "MTK3580:31Z0PCVWULMJEOINSZ8NVLWXFW37TN", "dateTime": 1520794492757}, {"current_trial": 111, "trialdata": {"rt": -1, "trial_type": "single-stim", "stimulus": "<p id=\"stim\">5</p>", "internal_node_id": "0.0-79.0-5.0", "time_elapsed": 641291, "key_press": -1, "trial_index": 111}, "uniqueid": "MTK3580:31Z0PCVWULMJEOINSZ8NVLWXFW37TN", "dateTime": 1520794493765}, {"current_trial": 112, "trialdata": {"rt": -1, "trial_type": "single-stim", "stimulus": "<p id=\"stim\">4</p>", "internal_node_id": "0.0-79.0-6.0", "time_elapsed": 642292, "key_press": -1, "trial_index": 112}, "uniqueid": "MTK3580:31Z0PCVWULMJEOINSZ8NVLWXFW37TN", "dateTime": 1520794494766}, {"current_trial": 113, "trialdata": {"rt": -1, "trial_type": "single-stim", "stimulus": "<p id=\"stim\">3</p>", "internal_node_id": "0.0-79.0-7.0", "time_elapsed": 643300, "key_press": -1, "trial_index": 113}, "uniqueid": "MTK3580:31Z0PCVWULMJEOINSZ8NVLWXFW37TN", "dateTime": 1520794495774}, {"current_trial": 114, "trialdata": {"rt": -1, "trial_type": "single-stim", "stimulus": "<p id=\"stim\">2</p>", "internal_node_id": "0.0-79.0-8.0", "time_elapsed": 644290, "key_press": -1, "trial_index": 114}, "uniqueid": "MTK3580:31Z0PCVWULMJEOINSZ8NVLWXFW37TN", "dateTime": 1520794496764}, {"current_trial": 115, "trialdata": {"rt": -1, "trial_type": "single-stim", "stimulus": "<p id=\"stim\">1</p>", "internal_node_id": "0.0-79.0-9.0", "time_elapsed": 645290, "key_press": -1, "trial_index": 115}, "uniqueid": "MTK3580:31Z0PCVWULMJEOINSZ8NVLWXFW37TN", "dateTime": 1520794497764}, {"current_trial": 116, "trialdata": {"rt": -1, "trial_type": "single-stim", "stimulus": "<p id=\"stim\">+</p>", "internal_node_id": "0.0-80.0-0.0", "time_elapsed": 646815, "key_press": -1, "type": "FIXATION", "trial_index": 116}, "uniqueid": "MTK3580:31Z0PCVWULMJEOINSZ8NVLWXFW37TN", "dateTime": 1520794499289}, {"current_trial": 117, "trialdata": {"rt": -1000, "trial_type": "single-audio", "word": "lava", "stimulus": "/static/audio/wordpool/LAVA.wav", "conditions": [24, 800, "a", 24000], "internal_node_id": "0.0-81.0", "trial": 3, "time_elapsed": 648831, "serialpos": 0, "key_press": -1, "wordID": 803, "type": "PRES_AUD", "trial_index": 117}, "uniqueid": "MTK3580:31Z0PCVWULMJEOINSZ8NVLWXFW37TN", "dateTime": 1520794501305}, {"current_trial": 118, "trialdata": {"rt": -1000, "trial_type": "single-audio", "word": "ozone", "stimulus": "/static/audio/wordpool/OZONE.wav", "conditions": [24, 800, "a", 24000], "internal_node_id": "0.0-82.0", "trial": 3, "time_elapsed": 650539, "serialpos": 1, "key_press": -1, "wordID": 995, "type": "PRES_AUD", "trial_index": 118}, "uniqueid": "MTK3580:31Z0PCVWULMJEOINSZ8NVLWXFW37TN", "dateTime": 1520794503012}, {"current_trial": 119, "trialdata": {"rt": -1000, "trial_type": "single-audio", "word": "stream", "stimulus": "/static/audio/wordpool/STREAM.wav", "conditions": [24, 800, "a", 24000], "internal_node_id": "0.0-83.0", "trial": 3, "time_elapsed": 652349, "serialpos": 2, "key_press": -1, "wordID": 1391, "type": "PRES_AUD", "trial_index": 119}, "uniqueid": "MTK3580:31Z0PCVWULMJEOINSZ8NVLWXFW37TN", "dateTime": 1520794504822}, {"current_trial": 120, "trialdata": {"rt": -1000, "trial_type": "single-audio", "word": "valley", "stimulus": "/static/audio/wordpool/VALLEY.wav", "conditions": [24, 800, "a", 24000], "internal_node_id": "0.0-84.0", "trial": 3, "time_elapsed": 654333, "serialpos": 3, "key_press": -1, "wordID": 1544, "type": "PRES_AUD", "trial_index": 120}, "uniqueid": "MTK3580:31Z0PCVWULMJEOINSZ8NVLWXFW37TN", "dateTime": 1520794506808}, {"current_trial": 121, "trialdata": {"rt": -1000, "trial_type": "single-audio", "word": "swamp", "stimulus": "/static/audio/wordpool/SWAMP.wav", "conditions": [24, 800, "a", 24000], "internal_node_id": "0.0-85.0", "trial": 3, "time_elapsed": 656208, "serialpos": 4, "key_press": -1, "wordID": 1415, "type": "PRES_AUD", "trial_index": 121}, "uniqueid": "MTK3580:31Z0PCVWULMJEOINSZ8NVLWXFW37TN", "dateTime": 1520794508682}, {"current_trial": 122, "trialdata": {"rt": -1000, "trial_type": "single-audio", "word": "smog", "stimulus": "/static/audio/wordpool/SMOG.wav", "conditions": [24, 800, "a", 24000], "internal_node_id": "0.0-86.0", "trial": 3, "time_elapsed": 658142, "serialpos": 5, "key_press": -1, "wordID": 1329, "type": "PRES_AUD", "trial_index": 122}, "uniqueid": "MTK3580:31Z0PCVWULMJEOINSZ8NVLWXFW37TN", "dateTime": 1520794510615}, {"current_trial": 123, "trialdata": {"rt": -1000, "trial_type": "single-audio", "word": "crevice", "stimulus": "/static/audio/wordpool/CREVICE.wav", "conditions": [24, 800, "a", 24000], "internal_node_id": "0.0-87.0", "trial": 3, "time_elapsed": 660126, "serialpos": 6, "key_press": -1, "wordID": 404, "type": "PRES_AUD", "trial_index": 123}, "uniqueid": "MTK3580:31Z0PCVWULMJEOINSZ8NVLWXFW37TN", "dateTime": 1520794512599}, {"current_trial": 124, "trialdata": {"rt": -1000, "trial_type": "single-audio", "word": "swimmer", "stimulus": "/static/audio/wordpool/SWIMMER.wav", "conditions": [24, 800, "a", 24000], "internal_node_id": "0.0-88.0", "trial": 3, "time_elapsed": 661970, "serialpos": 7, "key_press": -1, "wordID": 1419, "type": "PRES_AUD", "trial_index": 124}, "uniqueid": "MTK3580:31Z0PCVWULMJEOINSZ8NVLWXFW37TN", "dateTime": 1520794514444}, {"current_trial": 125, "trialdata": {"rt": -1000, "trial_type": "single-audio", "word": "diver", "stimulus": "/static/audio/wordpool/DIVER.wav", "conditions": [24, 800, "a", 24000], "internal_node_id": "0.0-89.0", "trial": 3, "time_elapsed": 663675, "serialpos": 8, "key_press": -1, "wordID": 475, "type": "PRES_AUD", "trial_index": 125}, "uniqueid": "MTK3580:31Z0PCVWULMJEOINSZ8NVLWXFW37TN", "dateTime": 1520794516149}, {"current_trial": 126, "trialdata": {"rt": -1000, "trial_type": "single-audio", "word": "pliers", "stimulus": "/static/audio/wordpool/PLIERS.wav", "conditions": [24, 800, "a", 24000], "internal_node_id": "0.0-90.0", "trial": 3, "time_elapsed": 665552, "serialpos": 9, "key_press": -1, "wordID": 1088, "type": "PRES_AUD", "trial_index": 126}, "uniqueid": "MTK3580:31Z0PCVWULMJEOINSZ8NVLWXFW37TN", "dateTime": 1520794518026}, {"current_trial": 127, "trialdata": {"rt": -1000, "trial_type": "single-audio", "word": "cocoon", "stimulus": "/static/audio/wordpool/COCOON.wav", "conditions": [24, 800, "a", 24000], "internal_node_id": "0.0-91.0", "trial": 3, "time_elapsed": 667207, "serialpos": 10, "key_press": -1, "wordID": 338, "type": "PRES_AUD", "trial_index": 127}, "uniqueid": "MTK3580:31Z0PCVWULMJEOINSZ8NVLWXFW37TN", "dateTime": 1520794519681}, {"current_trial": 128, "trialdata": {"rt": -1000, "trial_type": "single-audio", "word": "child", "stimulus": "/static/audio/wordpool/CHILD.wav", "conditions": [24, 800, "a", 24000], "internal_node_id": "0.0-92.0", "trial": 3, "time_elapsed": 668892, "serialpos": 11, "key_press": -1, "wordID": 298, "type": "PRES_AUD", "trial_index": 128}, "uniqueid": "MTK3580:31Z0PCVWULMJEOINSZ8NVLWXFW37TN", "dateTime": 1520794521366}, {"current_trial": 129, "trialdata": {"rt": -1000, "trial_type": "single-audio", "word": "pocket", "stimulus": "/static/audio/wordpool/POCKET.wav", "conditions": [24, 800, "a", 24000], "internal_node_id": "0.0-93.0", "trial": 3, "time_elapsed": 670556, "serialpos": 12, "key_press": -1, "wordID": 1092, "type": "PRES_AUD", "trial_index": 129}, "uniqueid": "MTK3580:31Z0PCVWULMJEOINSZ8NVLWXFW37TN", "dateTime": 1520794523030}, {"current_trial": 130, "trialdata": {"rt": -1000, "trial_type": "single-audio", "word": "gazelle", "stimulus": "/static/audio/wordpool/GAZELLE.wav", "conditions": [24, 800, "a", 24000], "internal_node_id": "0.0-94.0", "trial": 3, "time_elapsed": 672506, "serialpos": 13, "key_press": -1, "wordID": 627, "type": "PRES_AUD", "trial_index": 130}, "uniqueid": "MTK3580:31Z0PCVWULMJEOINSZ8NVLWXFW37TN", "dateTime": 1520794524980}, {"current_trial": 131, "trialdata": {"rt": -1000, "trial_type": "single-audio", "word": "beef", "stimulus": "/static/audio/wordpool/BEEF.wav", "conditions": [24, 800, "a", 24000], "internal_node_id": "0.0-95.0", "trial": 3, "time_elapsed": 674338, "serialpos": 14, "key_press": -1, "wordID": 112, "type": "PRES_AUD", "trial_index": 131}, "uniqueid": "MTK3580:31Z0PCVWULMJEOINSZ8NVLWXFW37TN", "dateTime": 1520794526812}, {"current_trial": 132, "trialdata": {"rt": -1000, "trial_type": "single-audio", "word": "cricket", "stimulus": "/static/audio/wordpool/CRICKET.wav", "conditions": [24, 800, "a", 24000], "internal_node_id": "0.0-96.0", "trial": 3, "time_elapsed": 676168, "serialpos": 15, "key_press": -1, "wordID": 407, "type": "PRES_AUD", "trial_index": 132}, "uniqueid": "MTK3580:31Z0PCVWULMJEOINSZ8NVLWXFW37TN", "dateTime": 1520794528642}, {"current_trial": 133, "trialdata": {"rt": -1000, "trial_type": "single-audio", "word": "pasta", "stimulus": "/static/audio/wordpool/PASTA.wav", "conditions": [24, 800, "a", 24000], "internal_node_id": "0.0-97.0", "trial": 3, "time_elapsed": 678087, "serialpos": 16, "key_press": -1, "wordID": 1020, "type": "PRES_AUD", "trial_index": 133}, "uniqueid": "MTK3580:31Z0PCVWULMJEOINSZ8NVLWXFW37TN", "dateTime": 1520794530561}, {"current_trial": 134, "trialdata": {"rt": -1000, "trial_type": "single-audio", "word": "shortcake", "stimulus": "/static/audio/wordpool/SHORTCAKE.wav", "conditions": [24, 800, "a", 24000], "internal_node_id": "0.0-98.0", "trial": 3, "time_elapsed": 679868, "serialpos": 17, "key_press": -1, "wordID": 1291, "type": "PRES_AUD", "trial_index": 134}, "uniqueid": "MTK3580:31Z0PCVWULMJEOINSZ8NVLWXFW37TN", "dateTime": 1520794532342}, {"current_trial": 135, "trialdata": {"rt": -1000, "trial_type": "single-audio", "word": "message", "stimulus": "/static/audio/wordpool/MESSAGE.wav", "conditions": [24, 800, "a", 24000], "internal_node_id": "0.0-99.0", "trial": 3, "time_elapsed": 681815, "serialpos": 18, "key_press": -1, "wordID": 887, "type": "PRES_AUD", "trial_index": 135}, "uniqueid": "MTK3580:31Z0PCVWULMJEOINSZ8NVLWXFW37TN", "dateTime": 1520794534289}, {"current_trial": 136, "trialdata": {"rt": -1000, "trial_type": "single-audio", "word": "ankle", "stimulus": "/static/audio/wordpool/ANKLE.wav", "conditions": [24, 800, "a", 24000], "internal_node_id": "0.0-100.0", "trial": 3, "time_elapsed": 683706, "serialpos": 19, "key_press": -1, "wordID": 23, "type": "PRES_AUD", "trial_index": 136}, "uniqueid": "MTK3580:31Z0PCVWULMJEOINSZ8NVLWXFW37TN", "dateTime": 1520794536180}, {"current_trial": 137, "trialdata": {"rt": -1000, "trial_type": "single-audio", "word": "knife", "stimulus": "/static/audio/wordpool/KNIFE.wav", "conditions": [24, 800, "a", 24000], "internal_node_id": "0.0-101.0", "trial": 3, "time_elapsed": 685589, "serialpos": 20, "key_press": -1, "wordID": 784, "type": "PRES_AUD", "trial_index": 137}, "uniqueid": "MTK3580:31Z0PCVWULMJEOINSZ8NVLWXFW37TN", "dateTime": 1520794538063}, {"current_trial": 138, "trialdata": {"rt": -1000, "trial_type": "single-audio", "word": "sunset", "stimulus": "/static/audio/wordpool/SUNSET.wav", "conditions": [24, 800, "a", 24000], "internal_node_id": "0.0-102.0", "trial": 3, "time_elapsed": 687245, "serialpos": 21, "key_press": -1, "wordID": 1407, "type": "PRES_AUD", "trial_index": 138}, "uniqueid": "MTK3580:31Z0PCVWULMJEOINSZ8NVLWXFW37TN", "dateTime": 1520794539719}, {"current_trial": 139, "trialdata": {"rt": -1000, "trial_type": "single-audio", "word": "supper", "stimulus": "/static/audio/wordpool/SUPPER.wav", "conditions": [24, 800, "a", 24000], "internal_node_id": "0.0-103.0", "trial": 3, "time_elapsed": 689234, "serialpos": 22, "key_press": -1, "wordID": 1410, "type": "PRES_AUD", "trial_index": 139}, "uniqueid": "MTK3580:31Z0PCVWULMJEOINSZ8NVLWXFW37TN", "dateTime": 1520794541707}, {"current_trial": 140, "trialdata": {"rt": -1000, "trial_type": "single-audio", "word": "leg", "stimulus": "/static/audio/wordpool/LEG.wav", "conditions": [24, 800, "a", 24000], "internal_node_id": "0.0-104.0", "trial": 3, "time_elapsed": 691122, "serialpos": 23, "key_press": -1, "wordID": 808, "type": "PRES_AUD", "trial_index": 140}, "uniqueid": "MTK3580:31Z0PCVWULMJEOINSZ8NVLWXFW37TN", "dateTime": 1520794543596}, {"current_trial": 141, "trialdata": {"rt": -1, "trial_type": "single-stim", "stimulus": "", "internal_node_id": "0.0-105.0-0.0", "time_elapsed": 692358, "key_press": -1, "type": "PRE_RECALL_DELAY", "trial_index": 141}, "uniqueid": "MTK3580:31Z0PCVWULMJEOINSZ8NVLWXFW37TN", "dateTime": 1520794544832}, {"current_trial": 142, "trialdata": {"rt": -1000, "trial_type": "single-audio", "stimulus": "/static/audio/400Hz.wav", "internal_node_id": "0.0-106.0", "time_elapsed": 692874, "key_press": -1, "type": "PRE_RECALL_ALERT", "trial_index": 142}, "uniqueid": "MTK3580:31Z0PCVWULMJEOINSZ8NVLWXFW37TN", "dateTime": 1520794545348}, {"current_trial": 143, "trialdata": {"rt": [982, 2490, 3746, 5093, 6603, 8180, 11464, 24769, 39656, 46819, 50065, 51179], "recwords": ["leg", "ankle", "sunset", "swamp", "crevis", "child", "supper", "ozone", "shortcake", "stream", "swimmer", "diver"], "key_times": [395, 484, 653, 982, 1478, 1607, 1760, 2138, 2341, 2490, 2749, 2865, 3061, 3153, 3260, 3467, 3746, 4131, 4354, 4477, 4641, 4809, 5093, 5527, 5760, 5887, 6138, 6293, 6416, 6603, 7211, 7279, 7361, 7839, 8007, 8180, 9147, 9286, 9615, 9980, 10722, 11012, 11076, 11172, 11464, 23995, 24125, 24291, 24492, 24628, 24769, 38345, 38461, 38527, 38656, 38830, 39089, 39261, 39347, 39491, 39656, 44354, 44479, 45426, 45574, 45816, 46096, 46297, 46353, 46463, 46616, 46819, 47194, 47399, 48763, 48871, 49398, 49630, 49777, 49873, 49938, 50065, 50494, 50604, 50731, 50957, 51057, 51179], "trial_type": "free-recall", "conditions": [24, 800, "a", 24000], "internal_node_id": "0.0-107.0-0.0", "key_presses": [76, 69, 71, 13, 65, 78, 75, 76, 69, 13, 83, 85, 78, 83, 69, 84, 13, 83, 87, 65, 77, 80, 13, 67, 82, 69, 86, 73, 83, 13, 67, 72, 73, 76, 68, 13, 83, 85, 80, 69, 8, 80, 69, 82, 13, 79, 90, 79, 78, 69, 13, 83, 72, 79, 82, 84, 67, 65, 75, 69, 13, 68, 73, 8, 8, 83, 84, 82, 69, 65, 77, 13, 83, 69, 8, 87, 73, 77, 77, 69, 82, 13, 68, 73, 86, 69, 82, 13], "trial": 3, "time_elapsed": 752916, "type": "FREE_RECALL", "trial_index": 143}, "uniqueid": "MTK3580:31Z0PCVWULMJEOINSZ8NVLWXFW37TN", "dateTime": 1520794605403}, {"current_trial": 144, "trialdata": {"rt": 1528, "trial_type": "text", "internal_node_id": "0.0-108.0", "time_elapsed": 756483, "key_press": 13, "type": "INSTRUCTIONS", "trial_index": 144}, "uniqueid": "MTK3580:31Z0PCVWULMJEOINSZ8NVLWXFW37TN", "dateTime": 1520794608957}, {"current_trial": 145, "trialdata": {"rt": [3103, 5088, 7216, 8977, 10708], "trial_type": "math-distractor", "key_times": [2311, 2417, 3103, 4684, 4824, 5088, 6893, 6948, 7216, 8684, 8764, 8977, 10262, 10426, 10708], "responses": ["21", "19", "15", "20", "17"], "num2": [9, 7, 4, 4, 6, 1], "num3": [7, 9, 3, 8, 9, 5], "conditions": [24, 800, "a", 12000], "internal_node_id": "0.0-109.0", "key_presses": [98, 97, 13, 97, 105, 13, 97, 101, 13, 98, 96, 13, 97, 103, 13], "trial": 4, "time_elapsed": 770509, "type": "DISTRACTOR", "trial_index": 145, "num1": [5, 3, 8, 8, 2, 8]}, "uniqueid": "MTK3580:31Z0PCVWULMJEOINSZ8NVLWXFW37TN", "dateTime": 1520794622983}, {"current_trial": 146, "trialdata": {"rt": -1, "trial_type": "single-stim", "stimulus": "<p id=\"stim\">10</p>", "internal_node_id": "0.0-110.0-0.0", "time_elapsed": 773536, "key_press": -1, "trial_index": 146}, "uniqueid": "MTK3580:31Z0PCVWULMJEOINSZ8NVLWXFW37TN", "dateTime": 1520794626010}, {"current_trial": 147, "trialdata": {"rt": -1, "trial_type": "single-stim", "stimulus": "<p id=\"stim\">9</p>", "internal_node_id": "0.0-110.0-1.0", "time_elapsed": 774536, "key_press": -1, "trial_index": 147}, "uniqueid": "MTK3580:31Z0PCVWULMJEOINSZ8NVLWXFW37TN", "dateTime": 1520794627010}, {"current_trial": 148, "trialdata": {"rt": -1, "trial_type": "single-stim", "stimulus": "<p id=\"stim\">8</p>", "internal_node_id": "0.0-110.0-2.0", "time_elapsed": 775529, "key_press": -1, "trial_index": 148}, "uniqueid": "MTK3580:31Z0PCVWULMJEOINSZ8NVLWXFW37TN", "dateTime": 1520794628003}, {"current_trial": 149, "trialdata": {"rt": -1, "trial_type": "single-stim", "stimulus": "<p id=\"stim\">7</p>", "internal_node_id": "0.0-110.0-3.0", "time_elapsed": 776544, "key_press": -1, "trial_index": 149}, "uniqueid": "MTK3580:31Z0PCVWULMJEOINSZ8NVLWXFW37TN", "dateTime": 1520794629018}, {"current_trial": 150, "trialdata": {"rt": -1, "trial_type": "single-stim", "stimulus": "<p id=\"stim\">6</p>", "internal_node_id": "0.0-110.0-4.0", "time_elapsed": 777547, "key_press": -1, "trial_index": 150}, "uniqueid": "MTK3580:31Z0PCVWULMJEOINSZ8NVLWXFW37TN", "dateTime": 1520794630020}, {"current_trial": 151, "trialdata": {"rt": -1, "trial_type": "single-stim", "stimulus": "<p id=\"stim\">5</p>", "internal_node_id": "0.0-110.0-5.0", "time_elapsed": 778524, "key_press": -1, "trial_index": 151}, "uniqueid": "MTK3580:31Z0PCVWULMJEOINSZ8NVLWXFW37TN", "dateTime": 1520794630997}, {"current_trial": 152, "trialdata": {"rt": -1, "trial_type": "single-stim", "stimulus": "<p id=\"stim\">4</p>", "internal_node_id": "0.0-110.0-6.0", "time_elapsed": 779522, "key_press": -1, "trial_index": 152}, "uniqueid": "MTK3580:31Z0PCVWULMJEOINSZ8NVLWXFW37TN", "dateTime": 1520794631996}, {"current_trial": 153, "trialdata": {"rt": -1, "trial_type": "single-stim", "stimulus": "<p id=\"stim\">3</p>", "internal_node_id": "0.0-110.0-7.0", "time_elapsed": 780548, "key_press": -1, "trial_index": 153}, "uniqueid": "MTK3580:31Z0PCVWULMJEOINSZ8NVLWXFW37TN", "dateTime": 1520794633021}, {"current_trial": 154, "trialdata": {"rt": -1, "trial_type": "single-stim", "stimulus": "<p id=\"stim\">2</p>", "internal_node_id": "0.0-110.0-8.0", "time_elapsed": 781550, "key_press": -1, "trial_index": 154}, "uniqueid": "MTK3580:31Z0PCVWULMJEOINSZ8NVLWXFW37TN", "dateTime": 1520794634024}, {"current_trial": 155, "trialdata": {"rt": -1, "trial_type": "single-stim", "stimulus": "<p id=\"stim\">1</p>", "internal_node_id": "0.0-110.0-9.0", "time_elapsed": 782535, "key_press": -1, "trial_index": 155}, "uniqueid": "MTK3580:31Z0PCVWULMJEOINSZ8NVLWXFW37TN", "dateTime": 1520794635009}, {"current_trial": 156, "trialdata": {"rt": -1, "trial_type": "single-stim", "stimulus": "<p id=\"stim\">+</p>", "internal_node_id": "0.0-111.0-0.0", "time_elapsed": 784043, "key_press": -1, "type": "FIXATION", "trial_index": 156}, "uniqueid": "MTK3580:31Z0PCVWULMJEOINSZ8NVLWXFW37TN", "dateTime": 1520794636517}, {"current_trial": 157, "trialdata": {"rt": -1000, "trial_type": "single-audio", "word": "cigar", "stimulus": "/static/audio/wordpool/CIGAR.wav", "conditions": [24, 800, "a", 12000], "internal_node_id": "0.0-112.0", "trial": 4, "time_elapsed": 785702, "serialpos": 0, "key_press": -1, "wordID": 307, "type": "PRES_AUD", "trial_index": 157}, "uniqueid": "MTK3580:31Z0PCVWULMJEOINSZ8NVLWXFW37TN", "dateTime": 1520794638175}, {"current_trial": 158, "trialdata": {"rt": -1000, "trial_type": "single-audio", "word": "student", "stimulus": "/static/audio/wordpool/STUDENT.wav", "conditions": [24, 800, "a", 12000], "internal_node_id": "0.0-113.0", "trial": 4, "time_elapsed": 787706, "serialpos": 1, "key_press": -1, "wordID": 1394, "type": "PRES_AUD", "trial_index": 158}, "uniqueid": "MTK3580:31Z0PCVWULMJEOINSZ8NVLWXFW37TN", "dateTime": 1520794640180}, {"current_trial": 159, "trialdata": {"rt": -1000, "trial_type": "single-audio", "word": "college", "stimulus": "/static/audio/wordpool/COLLEGE.wav", "conditions": [24, 800, "a", 12000], "internal_node_id": "0.0-114.0", "trial": 4, "time_elapsed": 789435, "serialpos": 2, "key_press": -1, "wordID": 345, "type": "PRES_AUD", "trial_index": 159}, "uniqueid": "MTK3580:31Z0PCVWULMJEOINSZ8NVLWXFW37TN", "dateTime": 1520794641908}, {"current_trial": 160, "trialdata": {"rt": -1000, "trial_type": "single-audio", "word": "skillet", "stimulus": "/static/audio/wordpool/SKILLET.wav", "conditions": [24, 800, "a", 12000], "internal_node_id": "0.0-115.0", "trial": 4, "time_elapsed": 791406, "serialpos": 3, "key_press": -1, "wordID": 1316, "type": "PRES_AUD", "trial_index": 160}, "uniqueid": "MTK3580:31Z0PCVWULMJEOINSZ8NVLWXFW37TN", "dateTime": 1520794643880}, {"current_trial": 161, "trialdata": {"rt": -1000, "trial_type": "single-audio", "word": "juggler", "stimulus": "/static/audio/wordpool/JUGGLER.wav", "conditions": [24, 800, "a", 12000], "internal_node_id": "0.0-116.0", "trial": 4, "time_elapsed": 793407, "serialpos": 4, "key_press": -1, "wordID": 762, "type": "PRES_AUD", "trial_index": 161}, "uniqueid": "MTK3580:31Z0PCVWULMJEOINSZ8NVLWXFW37TN", "dateTime": 1520794645881}, {"current_trial": 162, "trialdata": {"rt": -1000, "trial_type": "single-audio", "word": "pilot", "stimulus": "/static/audio/wordpool/PILOT.wav", "conditions": [24, 800, "a", 12000], "internal_node_id": "0.0-117.0", "trial": 4, "time_elapsed": 795146, "serialpos": 5, "key_press": -1, "wordID": 1069, "type": "PRES_AUD", "trial_index": 162}, "uniqueid": "MTK3580:31Z0PCVWULMJEOINSZ8NVLWXFW37TN", "dateTime": 1520794647620}, {"current_trial": 163, "trialdata": {"rt": -1000, "trial_type": "single-audio", "word": "xerox", "stimulus": "/static/audio/wordpool/XEROX.wav", "conditions": [24, 800, "a", 12000], "internal_node_id": "0.0-118.0", "trial": 4, "time_elapsed": 797153, "serialpos": 6, "key_press": -1, "wordID": 1627, "type": "PRES_AUD", "trial_index": 163}, "uniqueid": "MTK3580:31Z0PCVWULMJEOINSZ8NVLWXFW37TN", "dateTime": 1520794649627}, {"current_trial": 164, "trialdata": {"rt": -1000, "trial_type": "single-audio", "word": "europe", "stimulus": "/static/audio/wordpool/EUROPE.wav", "conditions": [24, 800, "a", 12000], "internal_node_id": "0.0-119.0", "trial": 4, "time_elapsed": 798924, "serialpos": 7, "key_press": -1, "wordID": 540, "type": "PRES_AUD", "trial_index": 164}, "uniqueid": "MTK3580:31Z0PCVWULMJEOINSZ8NVLWXFW37TN", "dateTime": 1520794651398}, {"current_trial": 165, "trialdata": {"rt": -1000, "trial_type": "single-audio", "word": "igloo", "stimulus": "/static/audio/wordpool/IGLOO.wav", "conditions": [24, 800, "a", 12000], "internal_node_id": "0.0-120.0", "trial": 4, "time_elapsed": 800877, "serialpos": 8, "key_press": -1, "wordID": 733, "type": "PRES_AUD", "trial_index": 165}, "uniqueid": "MTK3580:31Z0PCVWULMJEOINSZ8NVLWXFW37TN", "dateTime": 1520794653351}, {"current_trial": 166, "trialdata": {"rt": -1000, "trial_type": "single-audio", "word": "cafe", "stimulus": "/static/audio/wordpool/CAFE.wav", "conditions": [24, 800, "a", 12000], "internal_node_id": "0.0-121.0", "trial": 4, "time_elapsed": 802753, "serialpos": 9, "key_press": -1, "wordID": 215, "type": "PRES_AUD", "trial_index": 166}, "uniqueid": "MTK3580:31Z0PCVWULMJEOINSZ8NVLWXFW37TN", "dateTime": 1520794655227}, {"current_trial": 167, "trialdata": {"rt": -1000, "trial_type": "single-audio", "word": "spoon", "stimulus": "/static/audio/wordpool/SPOON.wav", "conditions": [24, 800, "a", 12000], "internal_node_id": "0.0-122.0", "trial": 4, "time_elapsed": 804629, "serialpos": 10, "key_press": -1, "wordID": 1356, "type": "PRES_AUD", "trial_index": 167}, "uniqueid": "MTK3580:31Z0PCVWULMJEOINSZ8NVLWXFW37TN", "dateTime": 1520794657103}, {"current_trial": 168, "trialdata": {"rt": -1000, "trial_type": "single-audio", "word": "dragon", "stimulus": "/static/audio/wordpool/DRAGON.wav", "conditions": [24, 800, "a", 12000], "internal_node_id": "0.0-123.0", "trial": 4, "time_elapsed": 806631, "serialpos": 11, "key_press": -1, "wordID": 491, "type": "PRES_AUD", "trial_index": 168}, "uniqueid": "MTK3580:31Z0PCVWULMJEOINSZ8NVLWXFW37TN", "dateTime": 1520794659105}, {"current_trial": 169, "trialdata": {"rt": -1000, "trial_type": "single-audio", "word": "grave", "stimulus": "/static/audio/wordpool/GRAVE.wav", "conditions": [24, 800, "a", 12000], "internal_node_id": "0.0-124.0", "trial": 4, "time_elapsed": 808337, "serialpos": 12, "key_press": -1, "wordID": 657, "type": "PRES_AUD", "trial_index": 169}, "uniqueid": "MTK3580:31Z0PCVWULMJEOINSZ8NVLWXFW37TN", "dateTime": 1520794660812}, {"current_trial": 170, "trialdata": {"rt": -1000, "trial_type": "single-audio", "word": "cook", "stimulus": "/static/audio/wordpool/COOK.wav", "conditions": [24, 800, "a", 12000], "internal_node_id": "0.0-125.0", "trial": 4, "time_elapsed": 810101, "serialpos": 13, "key_press": -1, "wordID": 371, "type": "PRES_AUD", "trial_index": 170}, "uniqueid": "MTK3580:31Z0PCVWULMJEOINSZ8NVLWXFW37TN", "dateTime": 1520794662574}, {"current_trial": 171, "trialdata": {"rt": -1000, "trial_type": "single-audio", "word": "actress", "stimulus": "/static/audio/wordpool/ACTRESS.wav", "conditions": [24, 800, "a", 12000], "internal_node_id": "0.0-126.0", "trial": 4, "time_elapsed": 811717, "serialpos": 14, "key_press": -1, "wordID": 5, "type": "PRES_AUD", "trial_index": 171}, "uniqueid": "MTK3580:31Z0PCVWULMJEOINSZ8NVLWXFW37TN", "dateTime": 1520794664191}, {"current_trial": 172, "trialdata": {"rt": -1000, "trial_type": "single-audio", "word": "barley", "stimulus": "/static/audio/wordpool/BARLEY.wav", "conditions": [24, 800, "a", 12000], "internal_node_id": "0.0-127.0", "trial": 4, "time_elapsed": 813682, "serialpos": 15, "key_press": -1, "wordID": 87, "type": "PRES_AUD", "trial_index": 172}, "uniqueid": "MTK3580:31Z0PCVWULMJEOINSZ8NVLWXFW37TN", "dateTime": 1520794666156}, {"current_trial": 173, "trialdata": {"rt": -1000, "trial_type": "single-audio", "word": "county", "stimulus": "/static/audio/wordpool/COUNTY.wav", "conditions": [24, 800, "a", 12000], "internal_node_id": "0.0-128.0", "trial": 4, "time_elapsed": 815667, "serialpos": 16, "key_press": -1, "wordID": 388, "type": "PRES_AUD", "trial_index": 173}, "uniqueid": "MTK3580:31Z0PCVWULMJEOINSZ8NVLWXFW37TN", "dateTime": 1520794668141}, {"current_trial": 174, "trialdata": {"rt": -1000, "trial_type": "single-audio", "word": "handbag", "stimulus": "/static/audio/wordpool/HANDBAG.wav", "conditions": [24, 800, "a", 12000], "internal_node_id": "0.0-129.0", "trial": 4, "time_elapsed": 817388, "serialpos": 17, "key_press": -1, "wordID": 683, "type": "PRES_AUD", "trial_index": 174}, "uniqueid": "MTK3580:31Z0PCVWULMJEOINSZ8NVLWXFW37TN", "dateTime": 1520794669862}, {"current_trial": 175, "trialdata": {"rt": -1000, "trial_type": "single-audio", "word": "elbow", "stimulus": "/static/audio/wordpool/ELBOW.wav", "conditions": [24, 800, "a", 12000], "internal_node_id": "0.0-130.0", "trial": 4, "time_elapsed": 819199, "serialpos": 18, "key_press": -1, "wordID": 519, "type": "PRES_AUD", "trial_index": 175}, "uniqueid": "MTK3580:31Z0PCVWULMJEOINSZ8NVLWXFW37TN", "dateTime": 1520794671673}, {"current_trial": 176, "trialdata": {"rt": -1000, "trial_type": "single-audio", "word": "shoulder", "stimulus": "/static/audio/wordpool/SHOULDER.wav", "conditions": [24, 800, "a", 12000], "internal_node_id": "0.0-131.0", "trial": 4, "time_elapsed": 821042, "serialpos": 19, "key_press": -1, "wordID": 1293, "type": "PRES_AUD", "trial_index": 176}, "uniqueid": "MTK3580:31Z0PCVWULMJEOINSZ8NVLWXFW37TN", "dateTime": 1520794673516}, {"current_trial": 177, "trialdata": {"rt": -1000, "trial_type": "single-audio", "word": "lady", "stimulus": "/static/audio/wordpool/LADY.wav", "conditions": [24, 800, "a", 12000], "internal_node_id": "0.0-132.0", "trial": 4, "time_elapsed": 822783, "serialpos": 20, "key_press": -1, "wordID": 793, "type": "PRES_AUD", "trial_index": 177}, "uniqueid": "MTK3580:31Z0PCVWULMJEOINSZ8NVLWXFW37TN", "dateTime": 1520794675257}, {"current_trial": 178, "trialdata": {"rt": -1000, "trial_type": "single-audio", "word": "notebook", "stimulus": "/static/audio/wordpool/NOTEBOOK.wav", "conditions": [24, 800, "a", 12000], "internal_node_id": "0.0-133.0", "trial": 4, "time_elapsed": 824433, "serialpos": 21, "key_press": -1, "wordID": 958, "type": "PRES_AUD", "trial_index": 178}, "uniqueid": "MTK3580:31Z0PCVWULMJEOINSZ8NVLWXFW37TN", "dateTime": 1520794676907}, {"current_trial": 179, "trialdata": {"rt": -1000, "trial_type": "single-audio", "word": "binder", "stimulus": "/static/audio/wordpool/BINDER.wav", "conditions": [24, 800, "a", 12000], "internal_node_id": "0.0-134.0", "trial": 4, "time_elapsed": 826164, "serialpos": 22, "key_press": -1, "wordID": 126, "type": "PRES_AUD", "trial_index": 179}, "uniqueid": "MTK3580:31Z0PCVWULMJEOINSZ8NVLWXFW37TN", "dateTime": 1520794678639}, {"current_trial": 180, "trialdata": {"rt": -1000, "trial_type": "single-audio", "word": "kitchen", "stimulus": "/static/audio/wordpool/KITCHEN.wav", "conditions": [24, 800, "a", 12000], "internal_node_id": "0.0-135.0", "trial": 4, "time_elapsed": 828003, "serialpos": 23, "key_press": -1, "wordID": 777, "type": "PRES_AUD", "trial_index": 180}, "uniqueid": "MTK3580:31Z0PCVWULMJEOINSZ8NVLWXFW37TN", "dateTime": 1520794680477}, {"current_trial": 181, "trialdata": {"rt": -1, "trial_type": "single-stim", "stimulus": "", "internal_node_id": "0.0-136.0-0.0", "time_elapsed": 829403, "key_press": -1, "type": "PRE_RECALL_DELAY", "trial_index": 181}, "uniqueid": "MTK3580:31Z0PCVWULMJEOINSZ8NVLWXFW37TN", "dateTime": 1520794681877}, {"current_trial": 182, "trialdata": {"rt": -1000, "trial_type": "single-audio", "stimulus": "/static/audio/400Hz.wav", "internal_node_id": "0.0-137.0", "time_elapsed": 829916, "key_press": -1, "type": "PRE_RECALL_ALERT", "trial_index": 182}, "uniqueid": "MTK3580:31Z0PCVWULMJEOINSZ8NVLWXFW37TN", "dateTime": 1520794682390}, {"current_trial": 183, "trialdata": {"rt": [1728, 3411, 5879, 7042, 8512, 12741, 14603, 18144, 19913, 23674, 26609, 34738, 41838, 57543, 59727], "recwords": ["kitchen", "binder", "elbow", "kady", "shoulder", "grave", "skillet", "handbag", "lady", "skillet", "barley", "dragon", "europe", "college", "student"], "key_times": [305, 460, 690, 946, 1048, 1181, 1292, 1728, 2386, 2487, 2691, 2783, 3112, 3215, 3411, 4897, 4987, 5188, 5316, 5512, 5879, 6354, 6500, 6661, 6781, 7042, 7488, 7547, 7651, 7778, 7971, 8060, 8286, 8372, 8512, 11968, 12183, 12271, 12431, 12596, 12741, 13156, 13322, 13497, 13674, 13786, 14235, 14333, 14603, 15870, 16000, 16097, 17359, 17710, 17785, 17907, 18144, 19046, 19116, 19311, 19443, 19913, 20305, 20976, 21173, 21371, 21491, 21571, 21670, 23674, 25850, 25913, 25985, 26106, 26230, 26362, 26609, 33705, 33918, 34042, 34196, 34319, 34534, 34738, 38852, 39135, 39269, 39413, 39536, 40101, 40239, 41170, 41365, 41470, 41838, 56328, 56444, 56669, 56822, 56930, 57179, 57354, 57543, 57888, 58133, 58267, 58558, 58672, 58820, 59027, 59161, 59380, 59500, 59599, 59727], "trial_type": "free-recall", "conditions": [24, 800, "a", 12000], "internal_node_id": "0.0-138.0-0.0", "key_presses": [75, 73, 84, 67, 72, 69, 78, 13, 66, 73, 78, 68, 69, 82, 13, 69, 76, 66, 79, 87, 13, 75, 65, 68, 89, 13, 83, 72, 79, 85, 76, 68, 69, 82, 13, 71, 82, 65, 86, 69, 13, 83, 75, 73, 76, 76, 69, 84, 13, 72, 65, 78, 68, 66, 65, 71, 13, 76, 65, 68, 89, 13, 83, 75, 73, 76, 76, 69, 84, 13, 66, 65, 82, 76, 69, 89, 13, 68, 82, 65, 71, 79, 78, 13, 69, 85, 82, 80, 79, 8, 8, 79, 80, 69, 13, 67, 79, 76, 76, 69, 71, 69, 13, 83, 85, 84, 8, 8, 84, 85, 68, 69, 78, 84, 13], "trial": 4, "time_elapsed": 889936, "type": "FREE_RECALL", "trial_index": 183}, "uniqueid": "MTK3580:31Z0PCVWULMJEOINSZ8NVLWXFW37TN", "dateTime": 1520794742424}, {"current_trial": 184, "trialdata": {"rt": 811, "trial_type": "text", "internal_node_id": "0.0-139.0", "time_elapsed": 892776, "key_press": 13, "type": "INSTRUCTIONS", "trial_index": 184}, "uniqueid": "MTK3580:31Z0PCVWULMJEOINSZ8NVLWXFW37TN", "dateTime": 1520794745250}, {"current_trial": 185, "trialdata": {"rt": [2272, 5033, 6567, 8741, 10634], "trial_type": "math-distractor", "key_times": [1802, 1913, 2272, 4660, 4768, 5033, 6217, 6283, 6567, 8309, 8450, 8741, 10252, 10325, 10634], "responses": ["18", "18", "15", "17", "21"], "num2": [9, 5, 6, 4, 7, 7], "num3": [3, 6, 1, 4, 7, 9], "conditions": [12, 1600, "a", 12000], "internal_node_id": "0.0-140.0", "key_presses": [97, 104, 13, 97, 104, 13, 97, 101, 13, 97, 103, 13, 98, 97, 13], "trial": 5, "time_elapsed": 906808, "type": "DISTRACTOR", "trial_index": 185, "num1": [6, 7, 8, 9, 7, 2]}, "uniqueid": "MTK3580:31Z0PCVWULMJEOINSZ8NVLWXFW37TN", "dateTime": 1520794759282}, {"current_trial": 186, "trialdata": {"rt": -1, "trial_type": "single-stim", "stimulus": "<p id=\"stim\">10</p>", "internal_node_id": "0.0-141.0-0.0", "time_elapsed": 909845, "key_press": -1, "trial_index": 186}, "uniqueid": "MTK3580:31Z0PCVWULMJEOINSZ8NVLWXFW37TN", "dateTime": 1520794762319}, {"current_trial": 187, "trialdata": {"rt": -1, "trial_type": "single-stim", "stimulus": "<p id=\"stim\">9</p>", "internal_node_id": "0.0-141.0-1.0", "time_elapsed": 910858, "key_press": -1, "trial_index": 187}, "uniqueid": "MTK3580:31Z0PCVWULMJEOINSZ8NVLWXFW37TN", "dateTime": 1520794763332}, {"current_trial": 188, "trialdata": {"rt": -1, "trial_type": "single-stim", "stimulus": "<p id=\"stim\">8</p>", "internal_node_id": "0.0-141.0-2.0", "time_elapsed": 911852, "key_press": -1, "trial_index": 188}, "uniqueid": "MTK3580:31Z0PCVWULMJEOINSZ8NVLWXFW37TN", "dateTime": 1520794764325}, {"current_trial": 189, "trialdata": {"rt": -1, "trial_type": "single-stim", "stimulus": "<p id=\"stim\">7</p>", "internal_node_id": "0.0-141.0-3.0", "time_elapsed": 912859, "key_press": -1, "trial_index": 189}, "uniqueid": "MTK3580:31Z0PCVWULMJEOINSZ8NVLWXFW37TN", "dateTime": 1520794765333}, {"current_trial": 190, "trialdata": {"rt": -1, "trial_type": "single-stim", "stimulus": "<p id=\"stim\">6</p>", "internal_node_id": "0.0-141.0-4.0", "time_elapsed": 913845, "key_press": -1, "trial_index": 190}, "uniqueid": "MTK3580:31Z0PCVWULMJEOINSZ8NVLWXFW37TN", "dateTime": 1520794766319}, {"current_trial": 191, "trialdata": {"rt": -1, "trial_type": "single-stim", "stimulus": "<p id=\"stim\">5</p>", "internal_node_id": "0.0-141.0-5.0", "time_elapsed": 914849, "key_press": -1, "trial_index": 191}, "uniqueid": "MTK3580:31Z0PCVWULMJEOINSZ8NVLWXFW37TN", "dateTime": 1520794767323}, {"current_trial": 192, "trialdata": {"rt": -1, "trial_type": "single-stim", "stimulus": "<p id=\"stim\">4</p>", "internal_node_id": "0.0-141.0-6.0", "time_elapsed": 915863, "key_press": -1, "trial_index": 192}, "uniqueid": "MTK3580:31Z0PCVWULMJEOINSZ8NVLWXFW37TN", "dateTime": 1520794768337}, {"current_trial": 193, "trialdata": {"rt": -1, "trial_type": "single-stim", "stimulus": "<p id=\"stim\">3</p>", "internal_node_id": "0.0-141.0-7.0", "time_elapsed": 916847, "key_press": -1, "trial_index": 193}, "uniqueid": "MTK3580:31Z0PCVWULMJEOINSZ8NVLWXFW37TN", "dateTime": 1520794769321}, {"current_trial": 194, "trialdata": {"rt": -1, "trial_type": "single-stim", "stimulus": "<p id=\"stim\">2</p>", "internal_node_id": "0.0-141.0-8.0", "time_elapsed": 917856, "key_press": -1, "trial_index": 194}, "uniqueid": "MTK3580:31Z0PCVWULMJEOINSZ8NVLWXFW37TN", "dateTime": 1520794770330}, {"current_trial": 195, "trialdata": {"rt": -1, "trial_type": "single-stim", "stimulus": "<p id=\"stim\">1</p>", "internal_node_id": "0.0-141.0-9.0", "time_elapsed": 918842, "key_press": -1, "trial_index": 195}, "uniqueid": "MTK3580:31Z0PCVWULMJEOINSZ8NVLWXFW37TN", "dateTime": 1520794771315}, {"current_trial": 196, "trialdata": {"rt": -1, "trial_type": "single-stim", "stimulus": "<p id=\"stim\">+</p>", "internal_node_id": "0.0-142.0-0.0", "time_elapsed": 920362, "key_press": -1, "type": "FIXATION", "trial_index": 196}, "uniqueid": "MTK3580:31Z0PCVWULMJEOINSZ8NVLWXFW37TN", "dateTime": 1520794772836}, {"current_trial": 197, "trialdata": {"rt": -1000, "trial_type": "single-audio", "word": "cabbage", "stimulus": "/static/audio/wordpool/CABBAGE.wav", "conditions": [12, 1600, "a", 12000], "internal_node_id": "0.0-143.0", "trial": 5, "time_elapsed": 923181, "serialpos": 0, "key_press": -1, "wordID": 209, "type": "PRES_AUD", "trial_index": 197}, "uniqueid": "MTK3580:31Z0PCVWULMJEOINSZ8NVLWXFW37TN", "dateTime": 1520794775655}, {"current_trial": 198, "trialdata": {"rt": -1000, "trial_type": "single-audio", "word": "turnip", "stimulus": "/static/audio/wordpool/TURNIP.wav", "conditions": [12, 1600, "a", 12000], "internal_node_id": "0.0-144.0", "trial": 5, "time_elapsed": 926000, "serialpos": 1, "key_press": -1, "wordID": 1520, "type": "PRES_AUD", "trial_index": 198}, "uniqueid": "MTK3580:31Z0PCVWULMJEOINSZ8NVLWXFW37TN", "dateTime": 1520794778474}, {"current_trial": 199, "trialdata": {"rt": -1000, "trial_type": "single-audio", "word": "apple", "stimulus": "/static/audio/wordpool/APPLE.wav", "conditions": [12, 1600, "a", 12000], "internal_node_id": "0.0-145.0", "trial": 5, "time_elapsed": 928795, "serialpos": 2, "key_press": -1, "wordID": 32, "type": "PRES_AUD", "trial_index": 199}, "uniqueid": "MTK3580:31Z0PCVWULMJEOINSZ8NVLWXFW37TN", "dateTime": 1520794781269}, {"current_trial": 200, "trialdata": {"rt": -1000, "trial_type": "single-audio", "word": "truck", "stimulus": "/static/audio/wordpool/TRUCK.wav", "conditions": [12, 1600, "a", 12000], "internal_node_id": "0.0-146.0", "trial": 5, "time_elapsed": 931559, "serialpos": 3, "key_press": -1, "wordID": 1511, "type": "PRES_AUD", "trial_index": 200}, "uniqueid": "MTK3580:31Z0PCVWULMJEOINSZ8NVLWXFW37TN", "dateTime": 1520794784033}, {"current_trial": 201, "trialdata": {"rt": -1000, "trial_type": "single-audio", "word": "knapsack", "stimulus": "/static/audio/wordpool/KNAPSACK.wav", "conditions": [12, 1600, "a", 12000], "internal_node_id": "0.0-147.0", "trial": 5, "time_elapsed": 933987, "serialpos": 4, "key_press": -1, "wordID": 782, "type": "PRES_AUD", "trial_index": 201}, "uniqueid": "MTK3580:31Z0PCVWULMJEOINSZ8NVLWXFW37TN", "dateTime": 1520794786461}, {"current_trial": 202, "trialdata": {"rt": -1000, "trial_type": "single-audio", "word": "fruit", "stimulus": "/static/audio/wordpool/FRUIT.wav", "conditions": [12, 1600, "a", 12000], "internal_node_id": "0.0-148.0", "trial": 5, "time_elapsed": 936654, "serialpos": 5, "key_press": -1, "wordID": 609, "type": "PRES_AUD", "trial_index": 202}, "uniqueid": "MTK3580:31Z0PCVWULMJEOINSZ8NVLWXFW37TN", "dateTime": 1520794789128}, {"current_trial": 203, "trialdata": {"rt": -1000, "trial_type": "single-audio", "word": "rooster", "stimulus": "/static/audio/wordpool/ROOSTER.wav", "conditions": [12, 1600, "a", 12000], "internal_node_id": "0.0-149.0", "trial": 5, "time_elapsed": 939347, "serialpos": 6, "key_press": -1, "wordID": 1208, "type": "PRES_AUD", "trial_index": 203}, "uniqueid": "MTK3580:31Z0PCVWULMJEOINSZ8NVLWXFW37TN", "dateTime": 1520794791821}, {"current_trial": 204, "trialdata": {"rt": -1000, "trial_type": "single-audio", "word": "author", "stimulus": "/static/audio/wordpool/AUTHOR.wav", "conditions": [12, 1600, "a", 12000], "internal_node_id": "0.0-150.0", "trial": 5, "time_elapsed": 941776, "serialpos": 7, "key_press": -1, "wordID": 60, "type": "PRES_AUD", "trial_index": 204}, "uniqueid": "MTK3580:31Z0PCVWULMJEOINSZ8NVLWXFW37TN", "dateTime": 1520794794250}, {"current_trial": 205, "trialdata": {"rt": -1000, "trial_type": "single-audio", "word": "poison", "stimulus": "/static/audio/wordpool/POISON.wav", "conditions": [12, 1600, "a", 12000], "internal_node_id": "0.0-151.0", "trial": 5, "time_elapsed": 944499, "serialpos": 8, "key_press": -1, "wordID": 1095, "type": "PRES_AUD", "trial_index": 205}, "uniqueid": "MTK3580:31Z0PCVWULMJEOINSZ8NVLWXFW37TN", "dateTime": 1520794796973}, {"current_trial": 206, "trialdata": {"rt": -1000, "trial_type": "single-audio", "word": "farmer", "stimulus": "/static/audio/wordpool/FARMER.wav", "conditions": [12, 1600, "a", 12000], "internal_node_id": "0.0-152.0", "trial": 5, "time_elapsed": 947086, "serialpos": 9, "key_press": -1, "wordID": 552, "type": "PRES_AUD", "trial_index": 206}, "uniqueid": "MTK3580:31Z0PCVWULMJEOINSZ8NVLWXFW37TN", "dateTime": 1520794799560}, {"current_trial": 207, "trialdata": {"rt": -1000, "trial_type": "single-audio", "word": "teacher", "stimulus": "/static/audio/wordpool/TEACHER.wav", "conditions": [12, 1600, "a", 12000], "internal_node_id": "0.0-153.0", "trial": 5, "time_elapsed": 949612, "serialpos": 10, "key_press": -1, "wordID": 1439, "type": "PRES_AUD", "trial_index": 207}, "uniqueid": "MTK3580:31Z0PCVWULMJEOINSZ8NVLWXFW37TN", "dateTime": 1520794802086}, {"current_trial": 208, "trialdata": {"rt": -1000, "trial_type": "single-audio", "word": "heart", "stimulus": "/static/audio/wordpool/HEART.wav", "conditions": [12, 1600, "a", 12000], "internal_node_id": "0.0-154.0", "trial": 5, "time_elapsed": 952032, "serialpos": 11, "key_press": -1, "wordID": 696, "type": "PRES_AUD", "trial_index": 208}, "uniqueid": "MTK3580:31Z0PCVWULMJEOINSZ8NVLWXFW37TN", "dateTime": 1520794804506}, {"current_trial": 209, "trialdata": {"rt": -1, "trial_type": "single-stim", "stimulus": "", "internal_node_id": "0.0-155.0-0.0", "time_elapsed": 953314, "key_press": -1, "type": "PRE_RECALL_DELAY", "trial_index": 209}, "uniqueid": "MTK3580:31Z0PCVWULMJEOINSZ8NVLWXFW37TN", "dateTime": 1520794805788}, {"current_trial": 210, "trialdata": {"rt": -1000, "trial_type": "single-audio", "stimulus": "/static/audio/400Hz.wav", "internal_node_id": "0.0-156.0", "time_elapsed": 953838, "key_press": -1, "type": "PRE_RECALL_ALERT", "trial_index": 210}, "uniqueid": "MTK3580:31Z0PCVWULMJEOINSZ8NVLWXFW37TN", "dateTime": 1520794806312}, {"current_trial": 211, "trialdata": {"rt": [1295, 2519, 6542, 7772, 8799, 11783, 14704, 21607], "recwords": ["heart", "teacher", "napsack", "apple", "fruit", "cabbage", "turnip", "farmer"], "key_times": [537, 648, 768, 900, 1088, 1295, 1643, 1750, 1834, 2052, 2120, 2281, 2363, 2519, 2984, 3091, 3420, 4404, 4541, 4805, 4934, 6542, 7151, 7243, 7391, 7560, 7648, 7772, 8115, 8314, 8415, 8465, 8684, 8799, 9096, 9953, 10080, 10298, 10480, 10619, 10736, 10841, 11007, 11783, 13067, 13159, 13259, 13509, 13664, 13931, 14704, 20808, 20924, 21035, 21166, 21265, 21348, 21607], "trial_type": "free-recall", "conditions": [12, 1600, "a", 12000], "internal_node_id": "0.0-157.0-0.0", "key_presses": [72, 69, 65, 82, 84, 13, 84, 69, 65, 67, 72, 69, 82, 13, 78, 65, 80, 83, 65, 67, 75, 13, 65, 80, 80, 76, 69, 13, 70, 82, 85, 73, 84, 13, 65, 8, 67, 65, 66, 66, 65, 71, 69, 13, 84, 85, 82, 78, 73, 80, 13, 70, 65, 82, 77, 69, 82, 13], "trial": 5, "time_elapsed": 1013862, "type": "FREE_RECALL", "trial_index": 211}, "uniqueid": "MTK3580:31Z0PCVWULMJEOINSZ8NVLWXFW37TN", "dateTime": 1520794866353}, {"current_trial": 212, "trialdata": {"rt": 1177, "trial_type": "text", "internal_node_id": "0.0-158.0", "time_elapsed": 1017084, "key_press": 13, "type": "INSTRUCTIONS", "trial_index": 212}, "uniqueid": "MTK3580:31Z0PCVWULMJEOINSZ8NVLWXFW37TN", "dateTime": 1520794869558}, {"current_trial": 213, "trialdata": {"rt": [1734, 3423, 5218, 6857, 9105, 11032, 14275, 16758, 20719, 22554], "trial_type": "math-distractor", "key_times": [1322, 1485, 1734, 3157, 3423, 4746, 4912, 5218, 6528, 6667, 6857, 8711, 8798, 9105, 10675, 10772, 11032, 13712, 13956, 14275, 15706, 16316, 16758, 18945, 19743, 20336, 20502, 20719, 22146, 22282, 22554], "responses": ["11", "7", "12", "11", "10", "20", "22", "12", "22", "19"], "num2": [3, 1, 1, 1, 4, 9, 8, 4, 6, 8, 9], "num3": [1, 2, 9, 7, 4, 5, 7, 1, 7, 2, 8], "conditions": [12, 800, "a", 24000], "internal_node_id": "0.0-159.0", "key_presses": [97, 97, 13, 103, 13, 97, 98, 13, 97, 97, 13, 97, 96, 13, 98, 96, 13, 98, 98, 13, 97, 98, 13, 97, 8, 98, 98, 13, 97, 105, 13], "trial": 6, "time_elapsed": 1043123, "type": "DISTRACTOR", "trial_index": 213, "num1": [7, 4, 2, 3, 2, 6, 7, 7, 9, 9, 1]}, "uniqueid": "MTK3580:31Z0PCVWULMJEOINSZ8NVLWXFW37TN", "dateTime": 1520794895598}, {"current_trial": 214, "trialdata": {"rt": -1, "trial_type": "single-stim", "stimulus": "<p id=\"stim\">10</p>", "internal_node_id": "0.0-160.0-0.0", "time_elapsed": 1046146, "key_press": -1, "trial_index": 214}, "uniqueid": "MTK3580:31Z0PCVWULMJEOINSZ8NVLWXFW37TN", "dateTime": 1520794898620}, {"current_trial": 215, "trialdata": {"rt": -1, "trial_type": "single-stim", "stimulus": "<p id=\"stim\">9</p>", "internal_node_id": "0.0-160.0-1.0", "time_elapsed": 1047157, "key_press": -1, "trial_index": 215}, "uniqueid": "MTK3580:31Z0PCVWULMJEOINSZ8NVLWXFW37TN", "dateTime": 1520794899631}, {"current_trial": 216, "trialdata": {"rt": -1, "trial_type": "single-stim", "stimulus": "<p id=\"stim\">8</p>", "internal_node_id": "0.0-160.0-2.0", "time_elapsed": 1048158, "key_press": -1, "trial_index": 216}, "uniqueid": "MTK3580:31Z0PCVWULMJEOINSZ8NVLWXFW37TN", "dateTime": 1520794900632}, {"current_trial": 217, "trialdata": {"rt": -1, "trial_type": "single-stim", "stimulus": "<p id=\"stim\">7</p>", "internal_node_id": "0.0-160.0-3.0", "time_elapsed": 1049157, "key_press": -1, "trial_index": 217}, "uniqueid": "MTK3580:31Z0PCVWULMJEOINSZ8NVLWXFW37TN", "dateTime": 1520794901631}, {"current_trial": 218, "trialdata": {"rt": -1, "trial_type": "single-stim", "stimulus": "<p id=\"stim\">6</p>", "internal_node_id": "0.0-160.0-4.0", "time_elapsed": 1050174, "key_press": -1, "trial_index": 218}, "uniqueid": "MTK3580:31Z0PCVWULMJEOINSZ8NVLWXFW37TN", "dateTime": 1520794902648}, {"current_trial": 219, "trialdata": {"rt": -1, "trial_type": "single-stim", "stimulus": "<p id=\"stim\">5</p>", "internal_node_id": "0.0-160.0-5.0", "time_elapsed": 1051161, "key_press": -1, "trial_index": 219}, "uniqueid": "MTK3580:31Z0PCVWULMJEOINSZ8NVLWXFW37TN", "dateTime": 1520794903635}, {"current_trial": 220, "trialdata": {"rt": -1, "trial_type": "single-stim", "stimulus": "<p id=\"stim\">4</p>", "internal_node_id": "0.0-160.0-6.0", "time_elapsed": 1052164, "key_press": -1, "trial_index": 220}, "uniqueid": "MTK3580:31Z0PCVWULMJEOINSZ8NVLWXFW37TN", "dateTime": 1520794904638}, {"current_trial": 221, "trialdata": {"rt": -1, "trial_type": "single-stim", "stimulus": "<p id=\"stim\">3</p>", "internal_node_id": "0.0-160.0-7.0", "time_elapsed": 1053164, "key_press": -1, "trial_index": 221}, "uniqueid": "MTK3580:31Z0PCVWULMJEOINSZ8NVLWXFW37TN", "dateTime": 1520794905638}, {"current_trial": 222, "trialdata": {"rt": -1, "trial_type": "single-stim", "stimulus": "<p id=\"stim\">2</p>", "internal_node_id": "0.0-160.0-8.0", "time_elapsed": 1054167, "key_press": -1, "trial_index": 222}, "uniqueid": "MTK3580:31Z0PCVWULMJEOINSZ8NVLWXFW37TN", "dateTime": 1520794906641}, {"current_trial": 223, "trialdata": {"rt": -1, "trial_type": "single-stim", "stimulus": "<p id=\"stim\">1</p>", "internal_node_id": "0.0-160.0-9.0", "time_elapsed": 1055166, "key_press": -1, "trial_index": 223}, "uniqueid": "MTK3580:31Z0PCVWULMJEOINSZ8NVLWXFW37TN", "dateTime": 1520794907640}, {"current_trial": 224, "trialdata": {"rt": -1, "trial_type": "single-stim", "stimulus": "<p id=\"stim\">+</p>", "internal_node_id": "0.0-161.0-0.0", "time_elapsed": 1056688, "key_press": -1, "type": "FIXATION", "trial_index": 224}, "uniqueid": "MTK3580:31Z0PCVWULMJEOINSZ8NVLWXFW37TN", "dateTime": 1520794909162}, {"current_trial": 225, "trialdata": {"rt": -1000, "trial_type": "single-audio", "word": "snake", "stimulus": "/static/audio/wordpool/SNAKE.wav", "conditions": [12, 800, "a", 24000], "internal_node_id": "0.0-162.0", "trial": 6, "time_elapsed": 1058642, "serialpos": 0, "key_press": -1, "wordID": 1332, "type": "PRES_AUD", "trial_index": 225}, "uniqueid": "MTK3580:31Z0PCVWULMJEOINSZ8NVLWXFW37TN", "dateTime": 1520794911116}, {"current_trial": 226, "trialdata": {"rt": -1000, "trial_type": "single-audio", "word": "tortoise", "stimulus": "/static/audio/wordpool/TORTOISE.wav", "conditions": [12, 800, "a", 24000], "internal_node_id": "0.0-163.0", "trial": 6, "time_elapsed": 1060581, "serialpos": 1, "key_press": -1, "wordID": 1485, "type": "PRES_AUD", "trial_index": 226}, "uniqueid": "MTK3580:31Z0PCVWULMJEOINSZ8NVLWXFW37TN", "dateTime": 1520794913055}, {"current_trial": 227, "trialdata": {"rt": -1000, "trial_type": "single-audio", "word": "husband", "stimulus": "/static/audio/wordpool/HUSBAND.wav", "conditions": [12, 800, "a", 24000], "internal_node_id": "0.0-164.0", "trial": 6, "time_elapsed": 1062599, "serialpos": 2, "key_press": -1, "wordID": 727, "type": "PRES_AUD", "trial_index": 227}, "uniqueid": "MTK3580:31Z0PCVWULMJEOINSZ8NVLWXFW37TN", "dateTime": 1520794915073}, {"current_trial": 228, "trialdata": {"rt": -1000, "trial_type": "single-audio", "word": "antler", "stimulus": "/static/audio/wordpool/ANTLER.wav", "conditions": [12, 800, "a", 24000], "internal_node_id": "0.0-165.0", "trial": 6, "time_elapsed": 1064258, "serialpos": 3, "key_press": -1, "wordID": 28, "type": "PRES_AUD", "trial_index": 228}, "uniqueid": "MTK3580:31Z0PCVWULMJEOINSZ8NVLWXFW37TN", "dateTime": 1520794916732}, {"current_trial": 229, "trialdata": {"rt": -1000, "trial_type": "single-audio", "word": "spool", "stimulus": "/static/audio/wordpool/SPOOL.wav", "conditions": [12, 800, "a", 24000], "internal_node_id": "0.0-166.0", "trial": 6, "time_elapsed": 1065966, "serialpos": 4, "key_press": -1, "wordID": 1355, "type": "PRES_AUD", "trial_index": 229}, "uniqueid": "MTK3580:31Z0PCVWULMJEOINSZ8NVLWXFW37TN", "dateTime": 1520794918440}, {"current_trial": 230, "trialdata": {"rt": -1000, "trial_type": "single-audio", "word": "paper", "stimulus": "/static/audio/wordpool/PAPER.wav", "conditions": [12, 800, "a", 24000], "internal_node_id": "0.0-167.0", "trial": 6, "time_elapsed": 1067925, "serialpos": 5, "key_press": -1, "wordID": 1010, "type": "PRES_AUD", "trial_index": 230}, "uniqueid": "MTK3580:31Z0PCVWULMJEOINSZ8NVLWXFW37TN", "dateTime": 1520794920399}, {"current_trial": 231, "trialdata": {"rt": -1000, "trial_type": "single-audio", "word": "bouquet", "stimulus": "/static/audio/wordpool/BOUQUET.wav", "conditions": [12, 800, "a", 24000], "internal_node_id": "0.0-168.0", "trial": 6, "time_elapsed": 1069555, "serialpos": 6, "key_press": -1, "wordID": 156, "type": "PRES_AUD", "trial_index": 231}, "uniqueid": "MTK3580:31Z0PCVWULMJEOINSZ8NVLWXFW37TN", "dateTime": 1520794922029}, {"current_trial": 232, "trialdata": {"rt": -1000, "trial_type": "single-audio", "word": "popcorn", "stimulus": "/static/audio/wordpool/POPCORN.wav", "conditions": [12, 800, "a", 24000], "internal_node_id": "0.0-169.0", "trial": 6, "time_elapsed": 1071353, "serialpos": 7, "key_press": -1, "wordID": 1103, "type": "PRES_AUD", "trial_index": 232}, "uniqueid": "MTK3580:31Z0PCVWULMJEOINSZ8NVLWXFW37TN", "dateTime": 1520794923829}, {"current_trial": 233, "trialdata": {"rt": -1000, "trial_type": "single-audio", "word": "stone", "stimulus": "/static/audio/wordpool/STONE.wav", "conditions": [12, 800, "a", 24000], "internal_node_id": "0.0-170.0", "trial": 6, "time_elapsed": 1073353, "serialpos": 8, "key_press": -1, "wordID": 1384, "type": "PRES_AUD", "trial_index": 233}, "uniqueid": "MTK3580:31Z0PCVWULMJEOINSZ8NVLWXFW37TN", "dateTime": 1520794925826}, {"current_trial": 234, "trialdata": {"rt": -1000, "trial_type": "single-audio", "word": "keeper", "stimulus": "/static/audio/wordpool/KEEPER.wav", "conditions": [12, 800, "a", 24000], "internal_node_id": "0.0-171.0", "trial": 6, "time_elapsed": 1075198, "serialpos": 9, "key_press": -1, "wordID": 768, "type": "PRES_AUD", "trial_index": 234}, "uniqueid": "MTK3580:31Z0PCVWULMJEOINSZ8NVLWXFW37TN", "dateTime": 1520794927672}, {"current_trial": 235, "trialdata": {"rt": -1000, "trial_type": "single-audio", "word": "spouse", "stimulus": "/static/audio/wordpool/SPOUSE.wav", "conditions": [12, 800, "a", 24000], "internal_node_id": "0.0-172.0", "trial": 6, "time_elapsed": 1076998, "serialpos": 10, "key_press": -1, "wordID": 1357, "type": "PRES_AUD", "trial_index": 235}, "uniqueid": "MTK3580:31Z0PCVWULMJEOINSZ8NVLWXFW37TN", "dateTime": 1520794929472}, {"current_trial": 236, "trialdata": {"rt": -1000, "trial_type": "single-audio", "word": "citrus", "stimulus": "/static/audio/wordpool/CITRUS.wav", "conditions": [12, 800, "a", 24000], "internal_node_id": "0.0-173.0", "trial": 6, "time_elapsed": 1078735, "serialpos": 11, "key_press": -1, "wordID": 312, "type": "PRES_AUD", "trial_index": 236}, "uniqueid": "MTK3580:31Z0PCVWULMJEOINSZ8NVLWXFW37TN", "dateTime": 1520794931209}, {"current_trial": 237, "trialdata": {"rt": -1, "trial_type": "single-stim", "stimulus": "", "internal_node_id": "0.0-174.0-0.0", "time_elapsed": 1080011, "key_press": -1, "type": "PRE_RECALL_DELAY", "trial_index": 237}, "uniqueid": "MTK3580:31Z0PCVWULMJEOINSZ8NVLWXFW37TN", "dateTime": 1520794932486}, {"current_trial": 238, "trialdata": {"rt": -1000, "trial_type": "single-audio", "stimulus": "/static/audio/400Hz.wav", "internal_node_id": "0.0-175.0", "time_elapsed": 1080527, "key_press": -1, "type": "PRE_RECALL_ALERT", "trial_index": 238}, "uniqueid": "MTK3580:31Z0PCVWULMJEOINSZ8NVLWXFW37TN", "dateTime": 1520794933002}, {"current_trial": 239, "trialdata": {"rt": [1605, 4086, 7386, 9837, 13256, 16187, 17365, 27998, 37120, 43972], "recwords": ["citruss", "citrus", "spouse", "keeper", "husband", "tortoise", "snake", "rock", "antler", "citrus"], "key_times": [534, 707, 919, 1086, 1184, 1270, 1303, 1605, 3011, 3156, 3284, 3489, 3636, 3854, 4086, 4523, 4930, 5674, 5986, 6409, 6609, 6766, 6864, 7386, 7977, 8052, 8192, 8337, 9268, 9418, 9837, 10310, 10372, 10456, 10640, 10891, 11348, 11571, 12211, 12355, 12500, 12843, 13027, 13123, 13256, 14191, 14326, 14506, 14754, 15328, 15525, 15676, 15811, 16187, 16662, 16812, 16936, 17016, 17168, 17365, 25613, 25798, 25967, 26125, 27998, 31473, 31606, 31720, 31879, 31983, 32086, 37120, 41901, 42034, 42239, 42721, 43245, 43425, 43561, 43681, 43972], "trial_type": "free-recall", "conditions": [12, 800, "a", 24000], "internal_node_id": "0.0-176.0-0.0", "key_presses": [67, 73, 84, 82, 85, 83, 83, 13, 67, 73, 84, 82, 85, 83, 13, 83, 79, 8, 80, 79, 85, 83, 69, 13, 75, 69, 69, 80, 69, 82, 13, 72, 85, 83, 66, 78, 187, 65, 8, 8, 8, 65, 78, 68, 13, 84, 79, 82, 84, 79, 73, 83, 69, 13, 83, 78, 65, 75, 69, 13, 82, 79, 67, 75, 13, 65, 78, 84, 76, 69, 82, 13, 67, 73, 84, 85, 8, 82, 85, 83, 13], "trial": 6, "time_elapsed": 1140557, "type": "FREE_RECALL", "trial_index": 239}, "uniqueid": "MTK3580:31Z0PCVWULMJEOINSZ8NVLWXFW37TN", "dateTime": 1520794993058}, {"current_trial": 240, "trialdata": {"rt": 837, "trial_type": "text", "internal_node_id": "0.0-177.0", "time_elapsed": 1143423, "key_press": 13, "type": "INSTRUCTIONS", "trial_index": 240}, "uniqueid": "MTK3580:31Z0PCVWULMJEOINSZ8NVLWXFW37TN", "dateTime": 1520794995897}, {"current_trial": 241, "trialdata": {"rt": [1763, 4097, 7849, 9506], "trial_type": "math-distractor", "key_times": [1504, 1763, 3496, 3862, 4097, 7413, 7589, 7849, 9155, 9325, 9506, 11116], "responses": ["8", "13", "24", "11"]