{"assignmentId": "392CY0QWG2YWMNKTWPBCE2AEDDM4I8", "workerId": "MTK3533", "questiondata": {"origin": "United States", "strat-rehearsal": "73", "marital": "Married/Domestic Partnership", "education": "Some college", "ethnicity": "Not Hispanic", "color_depth": 24, "distracted": "No", "wrote-notes": "No", "strat-other": "", "screen_width": 1536, "avail_screen_width": 1536, "avail_screen_height": 922, "strat-image": "55", "language": "English", "gender": "Male", "age": "68", "gender_other": "", "race": ["White"], "strat-categorize": "65", "pixel_depth": 24, "strat-spatial": "22", "strat-story": "44", "race_other": "", "screen_height": 960}, "bonus": 0, "hitId": "378G7J1SJL5US03XKAM2ZVZTK0UEWP", "counterbalance": 2317, "useragent": "Mozilla/5.0 (Windows NT 6.1; Win64; x64) AppleWebKit/537.36 (KHTML, like Gecko) Chrome/65.0.3325.146 Safari/537.36", "eventdata": [{"eventtype": "initialized", "interval": 0, "value": null, "timestamp": 1520786029052}, {"eventtype": "window_resize", "interval": 0, "value": [1536, 914], "timestamp": 1520786029052}, {"eventtype": "focus", "interval": 648444, "value": "off", "timestamp": 1520786677496}, {"eventtype": "focus", "interval": 12293, "value": "on", "timestamp": 1520786689789}], "data": [{"current_trial": 0, "trialdata": {"rt": 7574, "trial_type": "text", "internal_node_id": "0.0-0.0", "time_elapsed": 7580, "key_press": 13, "type": "INSTRUCTIONS", "trial_index": 0}, "uniqueid": "MTK3533:392CY0QWG2YWMNKTWPBCE2AEDDM4I8", "dateTime": 1520786037098}, {"current_trial": 1, "trialdata": {"rt": 30802, "trial_type": "text", "internal_node_id": "0.0-1.0", "time_elapsed": 38386, "key_press": 13, "type": "INSTRUCTIONS", "trial_index": 1}, "uniqueid": "MTK3533:392CY0QWG2YWMNKTWPBCE2AEDDM4I8", "dateTime": 1520786067903}, {"current_trial": 2, "trialdata": {"rt": [17332], "trial_type": "audio-test", "responses": ["ocean"], "internal_node_id": "0.0-2.0", "time_elapsed": 55747, "type": "AUDIO_TEST", "trial_index": 2}, "uniqueid": "MTK3533:392CY0QWG2YWMNKTWPBCE2AEDDM4I8", "dateTime": 1520786085264}, {"current_trial": 3, "trialdata": {"rt": [9030], "trial_type": "audio-test", "responses": ["crystal"], "internal_node_id": "0.0-3.0", "time_elapsed": 64788, "type": "AUDIO_TEST", "trial_index": 3}, "uniqueid": "MTK3533:392CY0QWG2YWMNKTWPBCE2AEDDM4I8", "dateTime": 1520786094305}, {"current_trial": 4, "trialdata": {"rt": [15933], "trial_type": "audio-test", "responses": ["spice"], "internal_node_id": "0.0-4.0", "time_elapsed": 80730, "type": "AUDIO_TEST", "trial_index": 4}, "uniqueid": "MTK3533:392CY0QWG2YWMNKTWPBCE2AEDDM4I8", "dateTime": 1520786110247}, {"current_trial": 5, "trialdata": {"rt": 35642, "trial_type": "survey-text", "responses": "{\"Q0\":\"11:00PM\",\"Q1\":\"5:00AM\",\"Q2\":\"7\"}", "internal_node_id": "0.0-5.0", "time_elapsed": 117126, "type": "SLEEP_SURVEY", "trial_index": 5}, "uniqueid": "MTK3533:392CY0QWG2YWMNKTWPBCE2AEDDM4I8", "dateTime": 1520786146643}, {"current_trial": 6, "trialdata": {"rt": 22449, "trial_type": "text", "internal_node_id": "0.0-6.0", "time_elapsed": 140576, "key_press": 13, "type": "INSTRUCTIONS", "trial_index": 6}, "uniqueid": "MTK3533:392CY0QWG2YWMNKTWPBCE2AEDDM4I8", "dateTime": 1520786170093}, {"current_trial": 7, "trialdata": {"rt": 9930, "trial_type": "text", "internal_node_id": "0.0-7.0", "time_elapsed": 151008, "key_press": 13, "type": "INSTRUCTIONS", "trial_index": 7}, "uniqueid": "MTK3533:392CY0QWG2YWMNKTWPBCE2AEDDM4I8", "dateTime": 1520786180527}, {"current_trial": 8, "trialdata": {"rt": 4872, "trial_type": "text", "internal_node_id": "0.0-8.0", "time_elapsed": 156384, "key_press": 13, "type": "INSTRUCTIONS", "trial_index": 8}, "uniqueid": "MTK3533:392CY0QWG2YWMNKTWPBCE2AEDDM4I8", "dateTime": 1520786185901}, {"current_trial": 9, "trialdata": {"rt": [3625, 6152, 9961, 13257, 16817], "trial_type": "math-distractor", "key_times": [2410, 2568, 3625, 5592, 5768, 6152, 9577, 9961, 12049, 12690, 13257, 15850, 16361, 16817], "responses": ["11", "11", "9", "16", "24"], "num2": [4, 1, 3, 8, 8, 8], "num3": [2, 5, 4, 4, 7, 7], "conditions": [18, 1200, "v", 18000], "internal_node_id": "0.0-9.0", "key_presses": [49, 49, 13, 49, 49, 13, 57, 13, 49, 54, 13, 50, 52, 13], "trial": 0, "time_elapsed": 175391, "type": "DISTRACTOR", "trial_index": 9, "num1": [5, 5, 2, 4, 9, 5]}, "uniqueid": "MTK3533:392CY0QWG2YWMNKTWPBCE2AEDDM4I8", "dateTime": 1520786204909}, {"current_trial": 10, "trialdata": {"rt": -1, "trial_type": "single-stim", "stimulus": "<p id=\"stim\">10</p>", "internal_node_id": "0.0-10.0-0.0", "time_elapsed": 178394, "key_press": -1, "trial_index": 10}, "uniqueid": "MTK3533:392CY0QWG2YWMNKTWPBCE2AEDDM4I8", "dateTime": 1520786207911}, {"current_trial": 11, "trialdata": {"rt": -1, "trial_type": "single-stim", "stimulus": "<p id=\"stim\">9</p>", "internal_node_id": "0.0-10.0-1.0", "time_elapsed": 179396, "key_press": -1, "trial_index": 11}, "uniqueid": "MTK3533:392CY0QWG2YWMNKTWPBCE2AEDDM4I8", "dateTime": 1520786208913}, {"current_trial": 12, "trialdata": {"rt": -1, "trial_type": "single-stim", "stimulus": "<p id=\"stim\">8</p>", "internal_node_id": "0.0-10.0-2.0", "time_elapsed": 180398, "key_press": -1, "trial_index": 12}, "uniqueid": "MTK3533:392CY0QWG2YWMNKTWPBCE2AEDDM4I8", "dateTime": 1520786209915}, {"current_trial": 13, "trialdata": {"rt": -1, "trial_type": "single-stim", "stimulus": "<p id=\"stim\">7</p>", "internal_node_id": "0.0-10.0-3.0", "time_elapsed": 181398, "key_press": -1, "trial_index": 13}, "uniqueid": "MTK3533:392CY0QWG2YWMNKTWPBCE2AEDDM4I8", "dateTime": 1520786210915}, {"current_trial": 14, "trialdata": {"rt": -1, "trial_type": "single-stim", "stimulus": "<p id=\"stim\">6</p>", "internal_node_id": "0.0-10.0-4.0", "time_elapsed": 182399, "key_press": -1, "trial_index": 14}, "uniqueid": "MTK3533:392CY0QWG2YWMNKTWPBCE2AEDDM4I8", "dateTime": 1520786211916}, {"current_trial": 15, "trialdata": {"rt": -1, "trial_type": "single-stim", "stimulus": "<p id=\"stim\">5</p>", "internal_node_id": "0.0-10.0-5.0", "time_elapsed": 183400, "key_press": -1, "trial_index": 15}, "uniqueid": "MTK3533:392CY0QWG2YWMNKTWPBCE2AEDDM4I8", "dateTime": 1520786212917}, {"current_trial": 16, "trialdata": {"rt": -1, "trial_type": "single-stim", "stimulus": "<p id=\"stim\">4</p>", "internal_node_id": "0.0-10.0-6.0", "time_elapsed": 184401, "key_press": -1, "trial_index": 16}, "uniqueid": "MTK3533:392CY0QWG2YWMNKTWPBCE2AEDDM4I8", "dateTime": 1520786213918}, {"current_trial": 17, "trialdata": {"rt": -1, "trial_type": "single-stim", "stimulus": "<p id=\"stim\">3</p>", "internal_node_id": "0.0-10.0-7.0", "time_elapsed": 185403, "key_press": -1, "trial_index": 17}, "uniqueid": "MTK3533:392CY0QWG2YWMNKTWPBCE2AEDDM4I8", "dateTime": 1520786214920}, {"current_trial": 18, "trialdata": {"rt": -1, "trial_type": "single-stim", "stimulus": "<p id=\"stim\">2</p>", "internal_node_id": "0.0-10.0-8.0", "time_elapsed": 186404, "key_press": -1, "trial_index": 18}, "uniqueid": "MTK3533:392CY0QWG2YWMNKTWPBCE2AEDDM4I8", "dateTime": 1520786215921}, {"current_trial": 19, "trialdata": {"rt": -1, "trial_type": "single-stim", "stimulus": "<p id=\"stim\">1</p>", "internal_node_id": "0.0-10.0-9.0", "time_elapsed": 187405, "key_press": -1, "trial_index": 19}, "uniqueid": "MTK3533:392CY0QWG2YWMNKTWPBCE2AEDDM4I8", "dateTime": 1520786216922}, {"current_trial": 20, "trialdata": {"rt": -1, "trial_type": "single-stim", "stimulus": "<p id=\"stim\">+</p>", "internal_node_id": "0.0-11.0-0.0", "time_elapsed": 188906, "key_press": -1, "type": "FIXATION", "trial_index": 20}, "uniqueid": "MTK3533:392CY0QWG2YWMNKTWPBCE2AEDDM4I8", "dateTime": 1520786218423}, {"current_trial": 21, "trialdata": {"rt": -1, "trial_type": "single-stim", "word": "rod", "stimulus": "<p id=\"stim\">ROD</p>", "conditions": [18, 1200, "v", 18000], "internal_node_id": "0.0-12.0", "trial": 0, "time_elapsed": 190107, "serialpos": 0, "key_press": -1, "wordID": 1202, "type": "PRES_VIS", "trial_index": 21}, "uniqueid": "MTK3533:392CY0QWG2YWMNKTWPBCE2AEDDM4I8", "dateTime": 1520786219624}, {"current_trial": 22, "trialdata": {"rt": -1, "trial_type": "single-stim", "word": "lily", "stimulus": "<p id=\"stim\">LILY</p>", "conditions": [18, 1200, "v", 18000], "internal_node_id": "0.0-13.0", "trial": 0, "time_elapsed": 192330, "serialpos": 1, "key_press": -1, "wordID": 820, "type": "PRES_VIS", "trial_index": 22}, "uniqueid": "MTK3533:392CY0QWG2YWMNKTWPBCE2AEDDM4I8", "dateTime": 1520786221849}, {"current_trial": 23, "trialdata": {"rt": -1, "trial_type": "single-stim", "word": "virus", "stimulus": "<p id=\"stim\">VIRUS</p>", "conditions": [18, 1200, "v", 18000], "internal_node_id": "0.0-14.0", "trial": 0, "time_elapsed": 194485, "serialpos": 2, "key_press": -1, "wordID": 1571, "type": "PRES_VIS", "trial_index": 23}, "uniqueid": "MTK3533:392CY0QWG2YWMNKTWPBCE2AEDDM4I8", "dateTime": 1520786224002}, {"current_trial": 24, "trialdata": {"rt": -1, "trial_type": "single-stim", "word": "space", "stimulus": "<p id=\"stim\">SPACE</p>", "conditions": [18, 1200, "v", 18000], "internal_node_id": "0.0-15.0", "trial": 0, "time_elapsed": 196657, "serialpos": 3, "key_press": -1, "wordID": 1344, "type": "PRES_VIS", "trial_index": 24}, "uniqueid": "MTK3533:392CY0QWG2YWMNKTWPBCE2AEDDM4I8", "dateTime": 1520786226174}, {"current_trial": 25, "trialdata": {"rt": -1, "trial_type": "single-stim", "word": "jelly", "stimulus": "<p id=\"stim\">JELLY</p>", "conditions": [18, 1200, "v", 18000], "internal_node_id": "0.0-16.0", "trial": 0, "time_elapsed": 198777, "serialpos": 4, "key_press": -1, "wordID": 754, "type": "PRES_VIS", "trial_index": 25}, "uniqueid": "MTK3533:392CY0QWG2YWMNKTWPBCE2AEDDM4I8", "dateTime": 1520786228294}, {"current_trial": 26, "trialdata": {"rt": -1, "trial_type": "single-stim", "word": "cigar", "stimulus": "<p id=\"stim\">CIGAR</p>", "conditions": [18, 1200, "v", 18000], "internal_node_id": "0.0-17.0", "trial": 0, "time_elapsed": 201075, "serialpos": 5, "key_press": -1, "wordID": 307, "type": "PRES_VIS", "trial_index": 26}, "uniqueid": "MTK3533:392CY0QWG2YWMNKTWPBCE2AEDDM4I8", "dateTime": 1520786230592}, {"current_trial": 27, "trialdata": {"rt": -1, "trial_type": "single-stim", "word": "donor", "stimulus": "<p id=\"stim\">DONOR</p>", "conditions": [18, 1200, "v", 18000], "internal_node_id": "0.0-18.0", "trial": 0, "time_elapsed": 203354, "serialpos": 6, "key_press": -1, "wordID": 484, "type": "PRES_VIS", "trial_index": 27}, "uniqueid": "MTK3533:392CY0QWG2YWMNKTWPBCE2AEDDM4I8", "dateTime": 1520786232871}, {"current_trial": 28, "trialdata": {"rt": -1, "trial_type": "single-stim", "word": "tortoise", "stimulus": "<p id=\"stim\">TORTOISE</p>", "conditions": [18, 1200, "v", 18000], "internal_node_id": "0.0-19.0", "trial": 0, "time_elapsed": 205511, "serialpos": 7, "key_press": -1, "wordID": 1485, "type": "PRES_VIS", "trial_index": 28}, "uniqueid": "MTK3533:392CY0QWG2YWMNKTWPBCE2AEDDM4I8", "dateTime": 1520786235029}, {"current_trial": 29, "trialdata": {"rt": -1, "trial_type": "single-stim", "word": "knapsack", "stimulus": "<p id=\"stim\">KNAPSACK</p>", "conditions": [18, 1200, "v", 18000], "internal_node_id": "0.0-20.0", "trial": 0, "time_elapsed": 207669, "serialpos": 8, "key_press": -1, "wordID": 782, "type": "PRES_VIS", "trial_index": 29}, "uniqueid": "MTK3533:392CY0QWG2YWMNKTWPBCE2AEDDM4I8", "dateTime": 1520786237186}, {"current_trial": 30, "trialdata": {"rt": -1, "trial_type": "single-stim", "word": "survey", "stimulus": "<p id=\"stim\">SURVEY</p>", "conditions": [18, 1200, "v", 18000], "internal_node_id": "0.0-21.0", "trial": 0, "time_elapsed": 210044, "serialpos": 9, "key_press": -1, "wordID": 1413, "type": "PRES_VIS", "trial_index": 30}, "uniqueid": "MTK3533:392CY0QWG2YWMNKTWPBCE2AEDDM4I8", "dateTime": 1520786239561}, {"current_trial": 31, "trialdata": {"rt": -1, "trial_type": "single-stim", "word": "nomad", "stimulus": "<p id=\"stim\">NOMAD</p>", "conditions": [18, 1200, "v", 18000], "internal_node_id": "0.0-22.0", "trial": 0, "time_elapsed": 212244, "serialpos": 10, "key_press": -1, "wordID": 954, "type": "PRES_VIS", "trial_index": 31}, "uniqueid": "MTK3533:392CY0QWG2YWMNKTWPBCE2AEDDM4I8", "dateTime": 1520786241761}, {"current_trial": 32, "trialdata": {"rt": -1, "trial_type": "single-stim", "word": "forehead", "stimulus": "<p id=\"stim\">FOREHEAD</p>", "conditions": [18, 1200, "v", 18000], "internal_node_id": "0.0-23.0", "trial": 0, "time_elapsed": 214394, "serialpos": 11, "key_press": -1, "wordID": 591, "type": "PRES_VIS", "trial_index": 32}, "uniqueid": "MTK3533:392CY0QWG2YWMNKTWPBCE2AEDDM4I8", "dateTime": 1520786243912}, {"current_trial": 33, "trialdata": {"rt": -1, "trial_type": "single-stim", "word": "receipt", "stimulus": "<p id=\"stim\">RECEIPT</p>", "conditions": [18, 1200, "v", 18000], "internal_node_id": "0.0-24.0", "trial": 0, "time_elapsed": 216501, "serialpos": 12, "key_press": -1, "wordID": 1172, "type": "PRES_VIS", "trial_index": 33}, "uniqueid": "MTK3533:392CY0QWG2YWMNKTWPBCE2AEDDM4I8", "dateTime": 1520786246018}, {"current_trial": 34, "trialdata": {"rt": -1, "trial_type": "single-stim", "word": "smog", "stimulus": "<p id=\"stim\">SMOG</p>", "conditions": [18, 1200, "v", 18000], "internal_node_id": "0.0-25.0", "trial": 0, "time_elapsed": 218880, "serialpos": 13, "key_press": -1, "wordID": 1329, "type": "PRES_VIS", "trial_index": 34}, "uniqueid": "MTK3533:392CY0QWG2YWMNKTWPBCE2AEDDM4I8", "dateTime": 1520786248397}, {"current_trial": 35, "trialdata": {"rt": -1, "trial_type": "single-stim", "word": "valley", "stimulus": "<p id=\"stim\">VALLEY</p>", "conditions": [18, 1200, "v", 18000], "internal_node_id": "0.0-26.0", "trial": 0, "time_elapsed": 221219, "serialpos": 14, "key_press": -1, "wordID": 1544, "type": "PRES_VIS", "trial_index": 35}, "uniqueid": "MTK3533:392CY0QWG2YWMNKTWPBCE2AEDDM4I8", "dateTime": 1520786250736}, {"current_trial": 36, "trialdata": {"rt": -1, "trial_type": "single-stim", "word": "parsley", "stimulus": "<p id=\"stim\">PARSLEY</p>", "conditions": [18, 1200, "v", 18000], "internal_node_id": "0.0-27.0", "trial": 0, "time_elapsed": 223337, "serialpos": 15, "key_press": -1, "wordID": 1015, "type": "PRES_VIS", "trial_index": 36}, "uniqueid": "MTK3533:392CY0QWG2YWMNKTWPBCE2AEDDM4I8", "dateTime": 1520786252854}, {"current_trial": 37, "trialdata": {"rt": -1, "trial_type": "single-stim", "word": "shovel", "stimulus": "<p id=\"stim\">SHOVEL</p>", "conditions": [18, 1200, "v", 18000], "internal_node_id": "0.0-28.0", "trial": 0, "time_elapsed": 225692, "serialpos": 16, "key_press": -1, "wordID": 1294, "type": "PRES_VIS", "trial_index": 37}, "uniqueid": "MTK3533:392CY0QWG2YWMNKTWPBCE2AEDDM4I8", "dateTime": 1520786255209}, {"current_trial": 38, "trialdata": {"rt": -1, "trial_type": "single-stim", "word": "vagrant", "stimulus": "<p id=\"stim\">VAGRANT</p>", "conditions": [18, 1200, "v", 18000], "internal_node_id": "0.0-29.0", "trial": 0, "time_elapsed": 227954, "serialpos": 17, "key_press": -1, "wordID": 1543, "type": "PRES_VIS", "trial_index": 38}, "uniqueid": "MTK3533:392CY0QWG2YWMNKTWPBCE2AEDDM4I8", "dateTime": 1520786257471}, {"current_trial": 39, "trialdata": {"rt": -1, "trial_type": "single-stim", "stimulus": "", "internal_node_id": "0.0-30.0-0.0", "time_elapsed": 230492, "key_press": -1, "type": "PRE_RECALL_DELAY", "trial_index": 39}, "uniqueid": "MTK3533:392CY0QWG2YWMNKTWPBCE2AEDDM4I8", "dateTime": 1520786260009}, {"current_trial": 40, "trialdata": {"rt": -1000, "trial_type": "single-audio", "stimulus": "/static/audio/400Hz.wav", "internal_node_id": "0.0-31.0", "time_elapsed": 230992, "key_press": -1, "type": "PRE_RECALL_ALERT", "trial_index": 40}, "uniqueid": "MTK3533:392CY0QWG2YWMNKTWPBCE2AEDDM4I8", "dateTime": 1520786260511}, {"current_trial": 41, "trialdata": {"rt": [6299, 10722, 26339, 27763, 34842, 48946, 50610], "recwords": ["rod", "lily", "napsack", "", "", "?", ""], "key_times": [2235, 2434, 3115, 3507, 4283, 5050, 6299, 6867, 7367, 7399, 7432, 7465, 7475, 8562, 8810, 10154, 10722, 11251, 11751, 11782, 11817, 11850, 11883, 11916, 11949, 11980, 12014, 12048, 12080, 12114, 12147, 12179, 12213, 12245, 12267, 15275, 18011, 18509, 18542, 18577, 18609, 18641, 18674, 18709, 18740, 18773, 18807, 18839, 18873, 18906, 18939, 18972, 19004, 19038, 19071, 19103, 19137, 19170, 19204, 19236, 19269, 19301, 19334, 19367, 19400, 19434, 19466, 19500, 19533, 19566, 19599, 19633, 19665, 19697, 19730, 19765, 19797, 19831, 19863, 19896, 19928, 19962, 19996, 20029, 20060, 20094, 20127, 20160, 20192, 20226, 20260, 20292, 20325, 20358, 20390, 20423, 20458, 20489, 20523, 20556, 20588, 20622, 20656, 20688, 20721, 20753, 20787, 20819, 20853, 20886, 20920, 20952, 20986, 21018, 21050, 21084, 21116, 21150, 21183, 21217, 21248, 21283, 21315, 21349, 21381, 21414, 21447, 21480, 21514, 21546, 21579, 21613, 21646, 21679, 21712, 21744, 21778, 21810, 21844, 21877, 21909, 21942, 21975, 22009, 22041, 22067, 22364, 22811, 23307, 23891, 24340, 26012, 26339, 27763, 30771, 31271, 31304, 31337, 31371, 31403, 31436, 31468, 31501, 31535, 31567, 31601, 31633, 31668, 31699, 31733, 31766, 31800, 31831, 31865, 31898, 31931, 31964, 31997, 32030, 32063, 32097, 32130, 32162, 32195, 32229, 32261, 32294, 32327, 32360, 32393, 32426, 32459, 32492, 32525, 32557, 32591, 32624, 32656, 32691, 32722, 32756, 32789, 32822, 32854, 32888, 32921, 32954, 32987, 33020, 33053, 33086, 33119, 33152, 33184, 33218, 33251, 33284, 33316, 33351, 33384, 33416, 33449, 33483, 33515, 33548, 33581, 33613, 33648, 33679, 33713, 33745, 33778, 33811, 33845, 33879, 33911, 33944, 33976, 34009, 34044, 34076, 34108, 34141, 34175, 34208, 34242, 34842, 42563, 43063, 43097, 43128, 43162, 43196, 43229, 43261, 43294, 43328, 43361, 43393, 43425, 43459, 43492, 43524, 43558, 43591, 43624, 43656, 43691, 43723, 43756, 43788, 43803, 44771, 45619, 46564, 47452, 47651, 48946, 50610, 53484, 53634, 54571, 55115, 55810, 56090, 57019, 57251, 57427, 57627, 58699, 59644], "trial_type": "free-recall", "conditions": [18, 1200, "v", 18000], "internal_node_id": "0.0-32.0-0.0", "key_presses": [16, 82, 79, 78, 8, 68, 13, 16, 16, 16, 16, 16, 76, 73, 76, 89, 13, 16, 16, 16, 16, 16, 16, 16, 16, 16, 16, 16, 16, 16, 16, 16, 16, 16, 83, 8, 16, 16, 16, 16, 16, 16, 16, 16, 16, 16, 16, 16, 16, 16, 16, 16, 16, 16, 16, 16, 16, 16, 16, 16, 16, 16, 16, 16, 16, 16, 16, 16, 16, 16, 16, 16, 16, 16, 16, 16, 16, 16, 16, 16, 16, 16, 16, 16, 16, 16, 16, 16, 16, 16, 16, 16, 16, 16, 16, 16, 16, 16, 16, 16, 16, 16, 16, 16, 16, 16, 16, 16, 16, 16, 16, 16, 16, 16, 16, 16, 16, 16, 16, 16, 16, 16, 16, 16, 16, 16, 16, 16, 16, 16, 16, 16, 16, 16, 16, 16, 16, 16, 16, 16, 16, 16, 16, 16, 16, 78, 65, 80, 83, 65, 67, 75, 13, 13, 16, 16, 16, 16, 16, 16, 16, 16, 16, 16, 16, 16, 16, 16, 16, 16, 16, 16, 16, 16, 16, 16, 16, 16, 16, 16, 16, 16, 16, 16, 16, 16, 16, 16, 16, 16, 16, 16, 16, 16, 16, 16, 16, 16, 16, 16, 16, 16, 16, 16, 16, 16, 16, 16, 16, 16, 16, 16, 16, 16, 16, 16, 16, 16, 16, 16, 16, 16, 16, 16, 16, 16, 16, 16, 16, 16, 16, 16, 16, 16, 16, 16, 16, 16, 16, 16, 16, 16, 16, 16, 16, 16, 13, 16, 16, 16, 16, 16, 16, 16, 16, 16, 16, 16, 16, 16, 16, 16, 16, 16, 16, 16, 16, 16, 16, 16, 16, 190, 8, 191, 8, 16, 191, 13, 13, 83, 72, 72, 79, 86, 69, 8, 8, 8, 8, 79, 86], "trial": 0, "time_elapsed": 290998, "type": "FREE_RECALL", "trial_index": 41}, "uniqueid": "MTK3533:392CY0QWG2YWMNKTWPBCE2AEDDM4I8", "dateTime": 1520786320520}, {"current_trial": 42, "trialdata": {"rt": 1683, "trial_type": "text", "internal_node_id": "0.0-33.0", "time_elapsed": 294688, "key_press": 13, "type": "INSTRUCTIONS", "trial_index": 42}, "uniqueid": "MTK3533:392CY0QWG2YWMNKTWPBCE2AEDDM4I8", "dateTime": 1520786324205}, {"current_trial": 43, "trialdata": {"rt": [3523, 6324, 8676, 11076, 13363, 15899], "trial_type": "math-distractor", "key_times": [2691, 3099, 3523, 5291, 5819, 6324, 7371, 8308, 8676, 10307, 10716, 11076, 12539, 12748, 13363, 14707, 15227, 15899], "responses": ["16", "14", "10", "19", "11", "13"], "num2": [8, 9, 2, 9, 2, 1, 6], "num3": [7, 4, 6, 5, 3, 3, 3], "conditions": [18, 1200, "v", 18000], "internal_node_id": "0.0-34.0", "key_presses": [49, 54, 13, 49, 52, 13, 49, 48, 13, 49, 57, 13, 49, 49, 13, 49, 51, 13], "trial": 1, "time_elapsed": 314690, "type": "DISTRACTOR", "trial_index": 43, "num1": [1, 1, 2, 5, 6, 9, 5]}, "uniqueid": "MTK3533:392CY0QWG2YWMNKTWPBCE2AEDDM4I8", "dateTime": 1520786344207}, {"current_trial": 44, "trialdata": {"rt": -1, "trial_type": "single-stim", "stimulus": "<p id=\"stim\">10</p>", "internal_node_id": "0.0-35.0-0.0", "time_elapsed": 317691, "key_press": -1, "trial_index": 44}, "uniqueid": "MTK3533:392CY0QWG2YWMNKTWPBCE2AEDDM4I8", "dateTime": 1520786347208}, {"current_trial": 45, "trialdata": {"rt": -1, "trial_type": "single-stim", "stimulus": "<p id=\"stim\">9</p>", "internal_node_id": "0.0-35.0-1.0", "time_elapsed": 318692, "key_press": -1, "trial_index": 45}, "uniqueid": "MTK3533:392CY0QWG2YWMNKTWPBCE2AEDDM4I8", "dateTime": 1520786348209}, {"current_trial": 46, "trialdata": {"rt": -1, "trial_type": "single-stim", "stimulus": "<p id=\"stim\">8</p>", "internal_node_id": "0.0-35.0-2.0", "time_elapsed": 319692, "key_press": -1, "trial_index": 46}, "uniqueid": "MTK3533:392CY0QWG2YWMNKTWPBCE2AEDDM4I8", "dateTime": 1520786349209}, {"current_trial": 47, "trialdata": {"rt": -1, "trial_type": "single-stim", "stimulus": "<p id=\"stim\">7</p>", "internal_node_id": "0.0-35.0-3.0", "time_elapsed": 320694, "key_press": -1, "trial_index": 47}, "uniqueid": "MTK3533:392CY0QWG2YWMNKTWPBCE2AEDDM4I8", "dateTime": 1520786350211}, {"current_trial": 48, "trialdata": {"rt": -1, "trial_type": "single-stim", "stimulus": "<p id=\"stim\">6</p>", "internal_node_id": "0.0-35.0-4.0", "time_elapsed": 321695, "key_press": -1, "trial_index": 48}, "uniqueid": "MTK3533:392CY0QWG2YWMNKTWPBCE2AEDDM4I8", "dateTime": 1520786351212}, {"current_trial": 49, "trialdata": {"rt": -1, "trial_type": "single-stim", "stimulus": "<p id=\"stim\">5</p>", "internal_node_id": "0.0-35.0-5.0", "time_elapsed": 322697, "key_press": -1, "trial_index": 49}, "uniqueid": "MTK3533:392CY0QWG2YWMNKTWPBCE2AEDDM4I8", "dateTime": 1520786352214}, {"current_trial": 50, "trialdata": {"rt": -1, "trial_type": "single-stim", "stimulus": "<p id=\"stim\">4</p>", "internal_node_id": "0.0-35.0-6.0", "time_elapsed": 323698, "key_press": -1, "trial_index": 50}, "uniqueid": "MTK3533:392CY0QWG2YWMNKTWPBCE2AEDDM4I8", "dateTime": 1520786353215}, {"current_trial": 51, "trialdata": {"rt": -1, "trial_type": "single-stim", "stimulus": "<p id=\"stim\">3</p>", "internal_node_id": "0.0-35.0-7.0", "time_elapsed": 324698, "key_press": -1, "trial_index": 51}, "uniqueid": "MTK3533:392CY0QWG2YWMNKTWPBCE2AEDDM4I8", "dateTime": 1520786354215}, {"current_trial": 52, "trialdata": {"rt": -1, "trial_type": "single-stim", "stimulus": "<p id=\"stim\">2</p>", "internal_node_id": "0.0-35.0-8.0", "time_elapsed": 325700, "key_press": -1, "trial_index": 52}, "uniqueid": "MTK3533:392CY0QWG2YWMNKTWPBCE2AEDDM4I8", "dateTime": 1520786355217}, {"current_trial": 53, "trialdata": {"rt": -1, "trial_type": "single-stim", "stimulus": "<p id=\"stim\">1</p>", "internal_node_id": "0.0-35.0-9.0", "time_elapsed": 326700, "key_press": -1, "trial_index": 53}, "uniqueid": "MTK3533:392CY0QWG2YWMNKTWPBCE2AEDDM4I8", "dateTime": 1520786356217}, {"current_trial": 54, "trialdata": {"rt": -1, "trial_type": "single-stim", "stimulus": "<p id=\"stim\">+</p>", "internal_node_id": "0.0-36.0-0.0", "time_elapsed": 328201, "key_press": -1, "type": "FIXATION", "trial_index": 54}, "uniqueid": "MTK3533:392CY0QWG2YWMNKTWPBCE2AEDDM4I8", "dateTime": 1520786357719}, {"current_trial": 55, "trialdata": {"rt": -1, "trial_type": "single-stim", "word": "knife", "stimulus": "<p id=\"stim\">KNIFE</p>", "conditions": [18, 1200, "v", 18000], "internal_node_id": "0.0-37.0", "trial": 1, "time_elapsed": 329403, "serialpos": 0, "key_press": -1, "wordID": 784, "type": "PRES_VIS", "trial_index": 55}, "uniqueid": "MTK3533:392CY0QWG2YWMNKTWPBCE2AEDDM4I8", "dateTime": 1520786358920}, {"current_trial": 56, "trialdata": {"rt": -1, "trial_type": "single-stim", "word": "cookbook", "stimulus": "<p id=\"stim\">COOKBOOK</p>", "conditions": [18, 1200, "v", 18000], "internal_node_id": "0.0-38.0", "trial": 1, "time_elapsed": 331623, "serialpos": 1, "key_press": -1, "wordID": 372, "type": "PRES_VIS", "trial_index": 56}, "uniqueid": "MTK3533:392CY0QWG2YWMNKTWPBCE2AEDDM4I8", "dateTime": 1520786361140}, {"current_trial": 57, "trialdata": {"rt": -1, "trial_type": "single-stim", "word": "message", "stimulus": "<p id=\"stim\">MESSAGE</p>", "conditions": [18, 1200, "v", 18000], "internal_node_id": "0.0-39.0", "trial": 1, "time_elapsed": 333943, "serialpos": 2, "key_press": -1, "wordID": 887, "type": "PRES_VIS", "trial_index": 57}, "uniqueid": "MTK3533:392CY0QWG2YWMNKTWPBCE2AEDDM4I8", "dateTime": 1520786363460}, {"current_trial": 58, "trialdata": {"rt": -1, "trial_type": "single-stim", "word": "banker", "stimulus": "<p id=\"stim\">BANKER</p>", "conditions": [18, 1200, "v", 18000], "internal_node_id": "0.0-40.0", "trial": 1, "time_elapsed": 336227, "serialpos": 3, "key_press": -1, "wordID": 83, "type": "PRES_VIS", "trial_index": 58}, "uniqueid": "MTK3533:392CY0QWG2YWMNKTWPBCE2AEDDM4I8", "dateTime": 1520786365745}, {"current_trial": 59, "trialdata": {"rt": -1, "trial_type": "single-stim", "word": "sheriff", "stimulus": "<p id=\"stim\">SHERIFF</p>", "conditions": [18, 1200, "v", 18000], "internal_node_id": "0.0-41.0", "trial": 1, "time_elapsed": 338261, "serialpos": 4, "key_press": -1, "wordID": 1283, "type": "PRES_VIS", "trial_index": 59}, "uniqueid": "MTK3533:392CY0QWG2YWMNKTWPBCE2AEDDM4I8", "dateTime": 1520786367778}, {"current_trial": 60, "trialdata": {"rt": -1, "trial_type": "single-stim", "word": "flask", "stimulus": "<p id=\"stim\">FLASK</p>", "conditions": [18, 1200, "v", 18000], "internal_node_id": "0.0-42.0", "trial": 1, "time_elapsed": 340489, "serialpos": 5, "key_press": -1, "wordID": 575, "type": "PRES_VIS", "trial_index": 60}, "uniqueid": "MTK3533:392CY0QWG2YWMNKTWPBCE2AEDDM4I8", "dateTime": 1520786370006}, {"current_trial": 61, "trialdata": {"rt": -1, "trial_type": "single-stim", "word": "shelf", "stimulus": "<p id=\"stim\">SHELF</p>", "conditions": [18, 1200, "v", 18000], "internal_node_id": "0.0-43.0", "trial": 1, "time_elapsed": 342594, "serialpos": 6, "key_press": -1, "wordID": 1279, "type": "PRES_VIS", "trial_index": 61}, "uniqueid": "MTK3533:392CY0QWG2YWMNKTWPBCE2AEDDM4I8", "dateTime": 1520786372111}, {"current_trial": 62, "trialdata": {"rt": -1, "trial_type": "single-stim", "word": "bank", "stimulus": "<p id=\"stim\">BANK</p>", "conditions": [18, 1200, "v", 18000], "internal_node_id": "0.0-44.0", "trial": 1, "time_elapsed": 344623, "serialpos": 7, "key_press": -1, "wordID": 82, "type": "PRES_VIS", "trial_index": 62}, "uniqueid": "MTK3533:392CY0QWG2YWMNKTWPBCE2AEDDM4I8", "dateTime": 1520786374140}, {"current_trial": 63, "trialdata": {"rt": -1, "trial_type": "single-stim", "word": "canal", "stimulus": "<p id=\"stim\">CANAL</p>", "conditions": [18, 1200, "v", 18000], "internal_node_id": "0.0-45.0", "trial": 1, "time_elapsed": 346700, "serialpos": 8, "key_press": -1, "wordID": 225, "type": "PRES_VIS", "trial_index": 63}, "uniqueid": "MTK3533:392CY0QWG2YWMNKTWPBCE2AEDDM4I8", "dateTime": 1520786376217}, {"current_trial": 64, "trialdata": {"rt": -1, "trial_type": "single-stim", "word": "swamp", "stimulus": "<p id=\"stim\">SWAMP</p>", "conditions": [18, 1200, "v", 18000], "internal_node_id": "0.0-46.0", "trial": 1, "time_elapsed": 348765, "serialpos": 9, "key_press": -1, "wordID": 1415, "type": "PRES_VIS", "trial_index": 64}, "uniqueid": "MTK3533:392CY0QWG2YWMNKTWPBCE2AEDDM4I8", "dateTime": 1520786378282}, {"current_trial": 65, "trialdata": {"rt": -1, "trial_type": "single-stim", "word": "europe", "stimulus": "<p id=\"stim\">EUROPE</p>", "conditions": [18, 1200, "v", 18000], "internal_node_id": "0.0-47.0", "trial": 1, "time_elapsed": 350809, "serialpos": 10, "key_press": -1, "wordID": 540, "type": "PRES_VIS", "trial_index": 65}, "uniqueid": "MTK3533:392CY0QWG2YWMNKTWPBCE2AEDDM4I8", "dateTime": 1520786380326}, {"current_trial": 66, "trialdata": {"rt": -1, "trial_type": "single-stim", "word": "creature", "stimulus": "<p id=\"stim\">CREATURE</p>", "conditions": [18, 1200, "v", 18000], "internal_node_id": "0.0-48.0", "trial": 1, "time_elapsed": 353138, "serialpos": 11, "key_press": -1, "wordID": 402, "type": "PRES_VIS", "trial_index": 66}, "uniqueid": "MTK3533:392CY0QWG2YWMNKTWPBCE2AEDDM4I8", "dateTime": 1520786382655}, {"current_trial": 67, "trialdata": {"rt": -1, "trial_type": "single-stim", "word": "spider", "stimulus": "<p id=\"stim\">SPIDER</p>", "conditions": [18, 1200, "v", 18000], "internal_node_id": "0.0-49.0", "trial": 1, "time_elapsed": 355393, "serialpos": 12, "key_press": -1, "wordID": 1350, "type": "PRES_VIS", "trial_index": 67}, "uniqueid": "MTK3533:392CY0QWG2YWMNKTWPBCE2AEDDM4I8", "dateTime": 1520786384912}, {"current_trial": 68, "trialdata": {"rt": -1, "trial_type": "single-stim", "word": "possum", "stimulus": "<p id=\"stim\">POSSUM</p>", "conditions": [18, 1200, "v", 18000], "internal_node_id": "0.0-50.0", "trial": 1, "time_elapsed": 357784, "serialpos": 13, "key_press": -1, "wordID": 1111, "type": "PRES_VIS", "trial_index": 68}, "uniqueid": "MTK3533:392CY0QWG2YWMNKTWPBCE2AEDDM4I8", "dateTime": 1520786387305}, {"current_trial": 69, "trialdata": {"rt": -1, "trial_type": "single-stim", "word": "pluto", "stimulus": "<p id=\"stim\">PLUTO</p>", "conditions": [18, 1200, "v", 18000], "internal_node_id": "0.0-51.0", "trial": 1, "time_elapsed": 360149, "serialpos": 14, "key_press": -1, "wordID": 1091, "type": "PRES_VIS", "trial_index": 69}, "uniqueid": "MTK3533:392CY0QWG2YWMNKTWPBCE2AEDDM4I8", "dateTime": 1520786389667}, {"current_trial": 70, "trialdata": {"rt": -1, "trial_type": "single-stim", "word": "mister", "stimulus": "<p id=\"stim\">MISTER</p>", "conditions": [18, 1200, "v", 18000], "internal_node_id": "0.0-52.0", "trial": 1, "time_elapsed": 362359, "serialpos": 15, "key_press": -1, "wordID": 900, "type": "PRES_VIS", "trial_index": 70}, "uniqueid": "MTK3533:392CY0QWG2YWMNKTWPBCE2AEDDM4I8", "dateTime": 1520786391877}, {"current_trial": 71, "trialdata": {"rt": -1, "trial_type": "single-stim", "word": "seal", "stimulus": "<p id=\"stim\">SEAL</p>", "conditions": [18, 1200, "v", 18000], "internal_node_id": "0.0-53.0", "trial": 1, "time_elapsed": 364628, "serialpos": 16, "key_press": -1, "wordID": 1261, "type": "PRES_VIS", "trial_index": 71}, "uniqueid": "MTK3533:392CY0QWG2YWMNKTWPBCE2AEDDM4I8", "dateTime": 1520786394145}, {"current_trial": 72, "trialdata": {"rt": -1, "trial_type": "single-stim", "word": "lace", "stimulus": "<p id=\"stim\">LACE</p>", "conditions": [18, 1200, "v", 18000], "internal_node_id": "0.0-54.0", "trial": 1, "time_elapsed": 366819, "serialpos": 17, "key_press": -1, "wordID": 791, "type": "PRES_VIS", "trial_index": 72}, "uniqueid": "MTK3533:392CY0QWG2YWMNKTWPBCE2AEDDM4I8", "dateTime": 1520786396336}, {"current_trial": 73, "trialdata": {"rt": -1, "trial_type": "single-stim", "stimulus": "", "internal_node_id": "0.0-55.0-0.0", "time_elapsed": 369107, "key_press": -1, "type": "PRE_RECALL_DELAY", "trial_index": 73}, "uniqueid": "MTK3533:392CY0QWG2YWMNKTWPBCE2AEDDM4I8", "dateTime": 1520786398625}, {"current_trial": 74, "trialdata": {"rt": -1000, "trial_type": "single-audio", "stimulus": "/static/audio/400Hz.wav", "internal_node_id": "0.0-56.0", "time_elapsed": 369608, "key_press": -1, "type": "PRE_RECALL_ALERT", "trial_index": 74}, "uniqueid": "MTK3533:392CY0QWG2YWMNKTWPBCE2AEDDM4I8", "dateTime": 1520786399126}, {"current_trial": 75, "trialdata": {"rt": [5635, 11171, 13812, 19002, 23355, 28851, 33242, 38066, 43274, 49891], "recwords": ["knife", "cookbook", "shelf", "bank", "canel", "swamp", "europe", "pluto", "mister", "lace"], "key_times": [2580, 3042, 3466, 3986, 4362, 4946, 5635, 6763, 7251, 7827, 8027, 8291, 9083, 9619, 9835, 10459, 11171, 11586, 11931, 12275, 12707, 13203, 13579, 13812, 14506, 15006, 15038, 15071, 15082, 15306, 16538, 17282, 19002, 19418, 19738, 20018, 20610, 20842, 21578, 23355, 25003, 25504, 25531, 25843, 26059, 27091, 27634, 28851, 30098, 30598, 30631, 30664, 30697, 30729, 30763, 30796, 30829, 30861, 30895, 30928, 30960, 30994, 31027, 31034, 31762, 31970, 32418, 32659, 33090, 33242, 35155, 35651, 35890, 36458, 36778, 37170, 38066, 38610, 39111, 39143, 39175, 39209, 39242, 39266, 39586, 39786, 40146, 40459, 40659, 40787, 41692, 41891, 42099, 42892, 43131, 43274, 45050, 45550, 45582, 45615, 45648, 45682, 45714, 45748, 45781, 45814, 45847, 45881, 45912, 45947, 45979, 46012, 46045, 46079, 46111, 46143, 46176, 46210, 46243, 46275, 46309, 46342, 46375, 46408, 46441, 46474, 46508, 46540, 46572, 46606, 46639, 46672, 46705, 46738, 46770, 46803, 46836, 46869, 46903, 46936, 46969, 47001, 47035, 47067, 47101, 47135, 47167, 47201, 47232, 47266, 47299, 47332, 47365, 47399, 47431, 47464, 47497, 47531, 47563, 47596, 47628, 47662, 47695, 47728, 47762, 47794, 47827, 47860, 47892, 47927, 47959, 47992, 48025, 48058, 48058, 48866, 49282, 49650, 49891], "trial_type": "free-recall", "conditions": [18, 1200, "v", 18000], "internal_node_id": "0.0-57.0-0.0", "key_presses": [16, 75, 78, 73, 70, 69, 13, 16, 67, 79, 79, 75, 66, 79, 79, 75, 13, 16, 83, 72, 69, 76, 70, 13, 16, 16, 16, 16, 66, 65, 78, 75, 13, 16, 67, 65, 78, 69, 76, 13, 16, 16, 83, 87, 65, 77, 80, 13, 16, 16, 16, 16, 16, 16, 16, 16, 16, 16, 16, 16, 16, 16, 16, 69, 85, 82, 79, 80, 69, 13, 16, 80, 76, 85, 84, 79, 13, 16, 16, 16, 16, 16, 16, 77, 73, 83, 84, 82, 69, 82, 8, 8, 8, 69, 82, 13, 16, 16, 16, 16, 16, 16, 16, 16, 16, 16, 16, 16, 16, 16, 16, 16, 16, 16, 16, 16, 16, 16, 16, 16, 16, 16, 16, 16, 16, 16, 16, 16, 16, 16, 16, 16, 16, 16, 16, 16, 16, 16, 16, 16, 16, 16, 16, 16, 16, 16, 16, 16, 16, 16, 16, 16, 16, 16, 16, 16, 16, 16, 16, 16, 16, 16, 16, 16, 16, 16, 16, 16, 16, 16, 16, 16, 16, 16, 76, 65, 67, 69, 13], "trial": 1, "time_elapsed": 429611, "type": "FREE_RECALL", "trial_index": 75}, "uniqueid": "MTK3533:392CY0QWG2YWMNKTWPBCE2AEDDM4I8", "dateTime": 1520786459132}, {"current_trial": 76, "trialdata": {"rt": 13903, "trial_type": "text", "internal_node_id": "0.0-58.0", "time_elapsed": 445518, "key_press": 13, "type": "INSTRUCTIONS", "trial_index": 76}, "uniqueid": "MTK3533:392CY0QWG2YWMNKTWPBCE2AEDDM4I8", "dateTime": 1520786475035}, {"current_trial": 77, "trialdata": {"rt": [3077, 6628, 9229, 13572, 16468, 19741, 22909], "trial_type": "math-distractor", "key_times": [2013, 2293, 3077, 5564, 6052, 6628, 8380, 8884, 9229, 11092, 11532, 11932, 12747, 13572, 15837, 16149, 16468, 18749, 19172, 19741, 22260, 22444, 22909], "responses": ["23", "20", "15", "18", "13", "18", "11"], "num2": [9, 5, 9, 8, 2, 4, 4, 6], "num3": [9, 6, 4, 7, 7, 5, 2, 8], "conditions": [12, 800, "v", 24000], "internal_node_id": "0.0-59.0", "key_presses": [50, 51, 13, 50, 48, 13, 49, 53, 13, 49, 56, 220, 8, 13, 49, 51, 13, 49, 56, 13, 49, 49, 13], "trial": 2, "time_elapsed": 470521, "type": "DISTRACTOR", "trial_index": 77, "num1": [5, 9, 2, 3, 4, 9, 5, 6]}, "uniqueid": "MTK3533:392CY0QWG2YWMNKTWPBCE2AEDDM4I8", "dateTime": 1520786500038}, {"current_trial": 78, "trialdata": {"rt": -1, "trial_type": "single-stim", "stimulus": "<p id=\"stim\">10</p>", "internal_node_id": "0.0-60.0-0.0", "time_elapsed": 473522, "key_press": -1, "trial_index": 78}, "uniqueid": "MTK3533:392CY0QWG2YWMNKTWPBCE2AEDDM4I8", "dateTime": 1520786503039}, {"current_trial": 79, "trialdata": {"rt": -1, "trial_type": "single-stim", "stimulus": "<p id=\"stim\">9</p>", "internal_node_id": "0.0-60.0-1.0", "time_elapsed": 474523, "key_press": -1, "trial_index": 79}, "uniqueid": "MTK3533:392CY0QWG2YWMNKTWPBCE2AEDDM4I8", "dateTime": 1520786504040}, {"current_trial": 80, "trialdata": {"rt": -1, "trial_type": "single-stim", "stimulus": "<p id=\"stim\">8</p>", "internal_node_id": "0.0-60.0-2.0", "time_elapsed": 475524, "key_press": -1, "trial_index": 80}, "uniqueid": "MTK3533:392CY0QWG2YWMNKTWPBCE2AEDDM4I8", "dateTime": 1520786505041}, {"current_trial": 81, "trialdata": {"rt": -1, "trial_type": "single-stim", "stimulus": "<p id=\"stim\">7</p>", "internal_node_id": "0.0-60.0-3.0", "time_elapsed": 476525, "key_press": -1, "trial_index": 81}, "uniqueid": "MTK3533:392CY0QWG2YWMNKTWPBCE2AEDDM4I8", "dateTime": 1520786506042}, {"current_trial": 82, "trialdata": {"rt": -1, "trial_type": "single-stim", "stimulus": "<p id=\"stim\">6</p>", "internal_node_id": "0.0-60.0-4.0", "time_elapsed": 477525, "key_press": -1, "trial_index": 82}, "uniqueid": "MTK3533:392CY0QWG2YWMNKTWPBCE2AEDDM4I8", "dateTime": 1520786507042}, {"current_trial": 83, "trialdata": {"rt": -1, "trial_type": "single-stim", "stimulus": "<p id=\"stim\">5</p>", "internal_node_id": "0.0-60.0-5.0", "time_elapsed": 478526, "key_press": -1, "trial_index": 83}, "uniqueid": "MTK3533:392CY0QWG2YWMNKTWPBCE2AEDDM4I8", "dateTime": 1520786508043}, {"current_trial": 84, "trialdata": {"rt": -1, "trial_type": "single-stim", "stimulus": "<p id=\"stim\">4</p>", "internal_node_id": "0.0-60.0-6.0", "time_elapsed": 479527, "key_press": -1, "trial_index": 84}, "uniqueid": "MTK3533:392CY0QWG2YWMNKTWPBCE2AEDDM4I8", "dateTime": 1520786509044}, {"current_trial": 85, "trialdata": {"rt": -1, "trial_type": "single-stim", "stimulus": "<p id=\"stim\">3</p>", "internal_node_id": "0.0-60.0-7.0", "time_elapsed": 480529, "key_press": -1, "trial_index": 85}, "uniqueid": "MTK3533:392CY0QWG2YWMNKTWPBCE2AEDDM4I8", "dateTime": 1520786510046}, {"current_trial": 86, "trialdata": {"rt": -1, "trial_type": "single-stim", "stimulus": "<p id=\"stim\">2</p>", "internal_node_id": "0.0-60.0-8.0", "time_elapsed": 481530, "key_press": -1, "trial_index": 86}, "uniqueid": "MTK3533:392CY0QWG2YWMNKTWPBCE2AEDDM4I8", "dateTime": 1520786511047}, {"current_trial": 87, "trialdata": {"rt": -1, "trial_type": "single-stim", "stimulus": "<p id=\"stim\">1</p>", "internal_node_id": "0.0-60.0-9.0", "time_elapsed": 482530, "key_press": -1, "trial_index": 87}, "uniqueid": "MTK3533:392CY0QWG2YWMNKTWPBCE2AEDDM4I8", "dateTime": 1520786512048}, {"current_trial": 88, "trialdata": {"rt": -1, "trial_type": "single-stim", "stimulus": "<p id=\"stim\">+</p>", "internal_node_id": "0.0-61.0-0.0", "time_elapsed": 484032, "key_press": -1, "type": "FIXATION", "trial_index": 88}, "uniqueid": "MTK3533:392CY0QWG2YWMNKTWPBCE2AEDDM4I8", "dateTime": 1520786513549}, {"current_trial": 89, "trialdata": {"rt": -1, "trial_type": "single-stim", "word": "perfume", "stimulus": "<p id=\"stim\">PERFUME</p>", "conditions": [12, 800, "v", 24000], "internal_node_id": "0.0-62.0", "trial": 2, "time_elapsed": 484832, "serialpos": 0, "key_press": -1, "wordID": 1048, "type": "PRES_VIS", "trial_index": 89}, "uniqueid": "MTK3533:392CY0QWG2YWMNKTWPBCE2AEDDM4I8", "dateTime": 1520786514349}, {"current_trial": 90, "trialdata": {"rt": -1, "trial_type": "single-stim", "word": "jello", "stimulus": "<p id=\"stim\">JELLO</p>", "conditions": [12, 800, "v", 24000], "internal_node_id": "0.0-63.0", "trial": 2, "time_elapsed": 486637, "serialpos": 1, "key_press": -1, "wordID": 753, "type": "PRES_VIS", "trial_index": 90}, "uniqueid": "MTK3533:392CY0QWG2YWMNKTWPBCE2AEDDM4I8", "dateTime": 1520786516154}, {"current_trial": 91, "trialdata": {"rt": -1, "trial_type": "single-stim", "word": "onion", "stimulus": "<p id=\"stim\">ONION</p>", "conditions": [12, 800, "v", 24000], "internal_node_id": "0.0-64.0", "trial": 2, "time_elapsed": 488617, "serialpos": 2, "key_press": -1, "wordID": 976, "type": "PRES_VIS", "trial_index": 91}, "uniqueid": "MTK3533:392CY0QWG2YWMNKTWPBCE2AEDDM4I8", "dateTime": 1520786518134}, {"current_trial": 92, "trialdata": {"rt": -1, "trial_type": "single-stim", "word": "trout", "stimulus": "<p id=\"stim\">TROUT</p>", "conditions": [12, 800, "v", 24000], "internal_node_id": "0.0-65.0", "trial": 2, "time_elapsed": 490523, "serialpos": 3, "key_press": -1, "wordID": 1510, "type": "PRES_VIS", "trial_index": 92}, "uniqueid": "MTK3533:392CY0QWG2YWMNKTWPBCE2AEDDM4I8", "dateTime": 1520786520040}, {"current_trial": 93, "trialdata": {"rt": -1, "trial_type": "single-stim", "word": "penguin", "stimulus": "<p id=\"stim\">PENGUIN</p>", "conditions": [12, 800, "v", 24000], "internal_node_id": "0.0-66.0", "trial": 2, "time_elapsed": 492250, "serialpos": 4, "key_press": -1, "wordID": 1043, "type": "PRES_VIS", "trial_index": 93}, "uniqueid": "MTK3533:392CY0QWG2YWMNKTWPBCE2AEDDM4I8", "dateTime": 1520786521768}, {"current_trial": 94, "trialdata": {"rt": -1, "trial_type": "single-stim", "word": "mop", "stimulus": "<p id=\"stim\">MOP</p>", "conditions": [12, 800, "v", 24000], "internal_node_id": "0.0-67.0", "trial": 2, "time_elapsed": 494011, "serialpos": 5, "key_press": -1, "wordID": 915, "type": "PRES_VIS", "trial_index": 94}, "uniqueid": "MTK3533:392CY0QWG2YWMNKTWPBCE2AEDDM4I8", "dateTime": 1520786523528}, {"current_trial": 95, "trialdata": {"rt": -1, "trial_type": "single-stim", "word": "keeper", "stimulus": "<p id=\"stim\">KEEPER</p>", "conditions": [12, 800, "v", 24000], "internal_node_id": "0.0-68.0", "trial": 2, "time_elapsed": 495683, "serialpos": 6, "key_press": -1, "wordID": 768, "type": "PRES_VIS", "trial_index": 95}, "uniqueid": "MTK3533:392CY0QWG2YWMNKTWPBCE2AEDDM4I8", "dateTime": 1520786525200}, {"current_trial": 96, "trialdata": {"rt": -1, "trial_type": "single-stim", "word": "mammal", "stimulus": "<p id=\"stim\">MAMMAL</p>", "conditions": [12, 800, "v", 24000], "internal_node_id": "0.0-69.0", "trial": 2, "time_elapsed": 497564, "serialpos": 7, "key_press": -1, "wordID": 860, "type": "PRES_VIS", "trial_index": 96}, "uniqueid": "MTK3533:392CY0QWG2YWMNKTWPBCE2AEDDM4I8", "dateTime": 1520786527081}, {"current_trial": 97, "trialdata": {"rt": -1, "trial_type": "single-stim", "word": "popcorn", "stimulus": "<p id=\"stim\">POPCORN</p>", "conditions": [12, 800, "v", 24000], "internal_node_id": "0.0-70.0", "trial": 2, "time_elapsed": 499273, "serialpos": 8, "key_press": -1, "wordID": 1103, "type": "PRES_VIS", "trial_index": 97}, "uniqueid": "MTK3533:392CY0QWG2YWMNKTWPBCE2AEDDM4I8", "dateTime": 1520786528790}, {"current_trial": 98, "trialdata": {"rt": -1, "trial_type": "single-stim", "word": "cloud", "stimulus": "<p id=\"stim\">CLOUD</p>", "conditions": [12, 800, "v", 24000], "internal_node_id": "0.0-71.0", "trial": 2, "time_elapsed": 501228, "serialpos": 9, "key_press": -1, "wordID": 327, "type": "PRES_VIS", "trial_index": 98}, "uniqueid": "MTK3533:392CY0QWG2YWMNKTWPBCE2AEDDM4I8", "dateTime": 1520786530746}, {"current_trial": 99, "trialdata": {"rt": -1, "trial_type": "single-stim", "word": "grill", "stimulus": "<p id=\"stim\">GRILL</p>", "conditions": [12, 800, "v", 24000], "internal_node_id": "0.0-72.0", "trial": 2, "time_elapsed": 503175, "serialpos": 10, "key_press": -1, "wordID": 660, "type": "PRES_VIS", "trial_index": 99}, "uniqueid": "MTK3533:392CY0QWG2YWMNKTWPBCE2AEDDM4I8", "dateTime": 1520786532693}, {"current_trial": 100, "trialdata": {"rt": -1, "trial_type": "single-stim", "word": "stove", "stimulus": "<p id=\"stim\">STOVE</p>", "conditions": [12, 800, "v", 24000], "internal_node_id": "0.0-73.0", "trial": 2, "time_elapsed": 504936, "serialpos": 11, "key_press": -1, "wordID": 1387, "type": "PRES_VIS", "trial_index": 100}, "uniqueid": "MTK3533:392CY0QWG2YWMNKTWPBCE2AEDDM4I8", "dateTime": 1520786534453}, {"current_trial": 101, "trialdata": {"rt": -1, "trial_type": "single-stim", "stimulus": "", "internal_node_id": "0.0-74.0-0.0", "time_elapsed": 507042, "key_press": -1, "type": "PRE_RECALL_DELAY", "trial_index": 101}, "uniqueid": "MTK3533:392CY0QWG2YWMNKTWPBCE2AEDDM4I8", "dateTime": 1520786536559}, {"current_trial": 102, "trialdata": {"rt": -1000, "trial_type": "single-audio", "stimulus": "/static/audio/400Hz.wav", "internal_node_id": "0.0-75.0", "time_elapsed": 507543, "key_press": -1, "type": "PRE_RECALL_ALERT", "trial_index": 102}, "uniqueid": "MTK3533:392CY0QWG2YWMNKTWPBCE2AEDDM4I8", "dateTime": 1520786537060}, {"current_trial": 103, "trialdata": {"rt": [5411, 8708, 12115, 15203, 24219, 28731, 37124, 44378, 49042], "recwords": ["perfume", "jello", "onion", "trout", "mammal", "popcorn", "", "", "?"], "key_times": [2316, 2675, 3163, 3395, 3707, 4115, 4675, 4899, 5411, 6835, 7139, 7580, 7908, 8108, 8332, 8708, 9572, 9948, 10355, 10820, 11068, 11708, 12115, 12668, 12996, 13451, 13923, 14211, 14531, 15203, 19019, 19519, 19551, 19584, 19617, 19651, 19684, 19718, 19750, 19783, 19815, 19848, 19882, 19915, 19947, 19980, 20014, 20049, 20080, 20113, 20146, 20179, 20212, 20244, 20278, 20311, 20344, 20376, 20410, 20443, 20477, 20509, 20541, 20574, 20608, 20641, 20674, 20707, 20740, 20773, 20805, 20839, 20872, 20905, 20938, 20970, 21003, 21036, 21070, 21103, 21136, 21169, 21201, 21234, 21267, 21301, 21334, 21367, 21401, 21432, 21465, 21499, 21523, 21875, 22619, 22835, 23163, 23795, 24219, 24514, 25016, 25048, 25081, 25107, 25692, 26155, 26892, 27211, 27636, 28163, 28731, 37124, 44378, 46098, 47411, 47910, 47943, 47977, 48008, 48042, 48074, 48107, 48141, 48174, 48207, 48239, 48273, 48306, 48338, 49042], "trial_type": "free-recall", "conditions": [12, 800, "v", 24000], "internal_node_id": "0.0-76.0-0.0", "key_presses": [16, 80, 69, 82, 70, 85, 77, 69, 13, 16, 74, 69, 76, 76, 79, 13, 16, 79, 78, 73, 79, 78, 13, 16, 84, 82, 79, 85, 84, 13, 16, 16, 16, 16, 16, 16, 16, 16, 16, 16, 16, 16, 16, 16, 16, 16, 16, 16, 16, 16, 16, 16, 16, 16, 16, 16, 16, 16, 16, 16, 16, 16, 16, 16, 16, 16, 16, 16, 16, 16, 16, 16, 16, 16, 16, 16, 16, 16, 16, 16, 16, 16, 16, 16, 16, 16, 16, 16, 16, 16, 16, 16, 77, 65, 77, 77, 65, 76, 13, 16, 16, 16, 16, 80, 79, 80, 67, 79, 82, 78, 13, 13, 13, 16, 16, 16, 16, 16, 16, 16, 16, 16, 16, 16, 16, 16, 16, 16, 191, 13], "trial": 2, "time_elapsed": 567545, "type": "FREE_RECALL", "trial_index": 103}, "uniqueid": "MTK3533:392CY0QWG2YWMNKTWPBCE2AEDDM4I8", "dateTime": 1520786597064}, {"current_trial": 104, "trialdata": {"rt": 1568, "trial_type": "text", "internal_node_id": "0.0-77.0", "time_elapsed": 571115, "key_press": 13, "type": "INSTRUCTIONS", "trial_index": 104}, "uniqueid": "MTK3533:392CY0QWG2YWMNKTWPBCE2AEDDM4I8", "dateTime": 1520786600633}, {"current_trial": 105, "trialdata": {"rt": [4351, 6439, 8990, 11318, 13782, 16190, 18102, 21837], "trial_type": "math-distractor", "key_times": [2863, 3502, 4351, 5870, 6054, 6439, 8605, 8790, 8990, 10197, 10894, 11318, 12655, 13366, 13782, 14934, 15791, 16190, 17334, 17870, 18102, 20358, 21525, 21837, 23966], "responses": ["16", "22", "11", "10", "16", "10", "13", "13"], "num2": [6, 8, 1, 5, 5, 2, 2, 4, 4], "num3": [7, 5, 4, 1, 6, 6, 3, 6, 6], "conditions": [24, 800, "v", 24000], "internal_node_id": "0.0-78.0", "key_presses": [49, 54, 13, 50, 50, 13, 49, 49, 13, 49, 48, 13, 49, 54, 13, 49, 48, 13, 49, 51, 13, 49, 51, 13, 49], "trial": 3, "time_elapsed": 597117, "type": "DISTRACTOR", "trial_index": 105, "num1": [3, 9, 6, 4, 5, 2, 8, 3, 1]}, "uniqueid": "MTK3533:392CY0QWG2YWMNKTWPBCE2AEDDM4I8", "dateTime": 1520786626634}, {"current_trial": 106, "trialdata": {"rt": -1, "trial_type": "single-stim", "stimulus": "<p id=\"stim\">10</p>", "internal_node_id": "0.0-79.0-0.0", "time_elapsed": 600117, "key_press": -1, "trial_index": 106}, "uniqueid": "MTK3533:392CY0QWG2YWMNKTWPBCE2AEDDM4I8", "dateTime": 1520786629636}, {"current_trial": 107, "trialdata": {"rt": -1, "trial_type": "single-stim", "stimulus": "<p id=\"stim\">9</p>", "internal_node_id": "0.0-79.0-1.0", "time_elapsed": 601118, "key_press": -1, "trial_index": 107}, "uniqueid": "MTK3533:392CY0QWG2YWMNKTWPBCE2AEDDM4I8", "dateTime": 1520786630637}, {"current_trial": 108, "trialdata": {"rt": -1, "trial_type": "single-stim", "stimulus": "<p id=\"stim\">8</p>", "internal_node_id": "0.0-79.0-2.0", "time_elapsed": 602120, "key_press": -1, "trial_index": 108}, "uniqueid": "MTK3533:392CY0QWG2YWMNKTWPBCE2AEDDM4I8", "dateTime": 1520786631637}, {"current_trial": 109, "trialdata": {"rt": -1, "trial_type": "single-stim", "stimulus": "<p id=\"stim\">7</p>", "internal_node_id": "0.0-79.0-3.0", "time_elapsed": 603121, "key_press": -1, "trial_index": 109}, "uniqueid": "MTK3533:392CY0QWG2YWMNKTWPBCE2AEDDM4I8", "dateTime": 1520786632638}, {"current_trial": 110, "trialdata": {"rt": -1, "trial_type": "single-stim", "stimulus": "<p id=\"stim\">6</p>", "internal_node_id": "0.0-79.0-4.0", "time_elapsed": 604123, "key_press": -1, "trial_index": 110}, "uniqueid": "MTK3533:392CY0QWG2YWMNKTWPBCE2AEDDM4I8", "dateTime": 1520786633640}, {"current_trial": 111, "trialdata": {"rt": -1, "trial_type": "single-stim", "stimulus": "<p id=\"stim\">5</p>", "internal_node_id": "0.0-79.0-5.0", "time_elapsed": 605124, "key_press": -1, "trial_index": 111}, "uniqueid": "MTK3533:392CY0QWG2YWMNKTWPBCE2AEDDM4I8", "dateTime": 1520786634641}, {"current_trial": 112, "trialdata": {"rt": -1, "trial_type": "single-stim", "stimulus": "<p id=\"stim\">4</p>", "internal_node_id": "0.0-79.0-6.0", "time_elapsed": 606125, "key_press": -1, "trial_index": 112}, "uniqueid": "MTK3533:392CY0QWG2YWMNKTWPBCE2AEDDM4I8", "dateTime": 1520786635642}, {"current_trial": 113, "trialdata": {"rt": -1, "trial_type": "single-stim", "stimulus": "<p id=\"stim\">3</p>", "internal_node_id": "0.0-79.0-7.0", "time_elapsed": 607126, "key_press": -1, "trial_index": 113}, "uniqueid": "MTK3533:392CY0QWG2YWMNKTWPBCE2AEDDM4I8", "dateTime": 1520786636643}, {"current_trial": 114, "trialdata": {"rt": -1, "trial_type": "single-stim", "stimulus": "<p id=\"stim\">2</p>", "internal_node_id": "0.0-79.0-8.0", "time_elapsed": 608125, "key_press": -1, "trial_index": 114}, "uniqueid": "MTK3533:392CY0QWG2YWMNKTWPBCE2AEDDM4I8", "dateTime": 1520786637643}, {"current_trial": 115, "trialdata": {"rt": -1, "trial_type": "single-stim", "stimulus": "<p id=\"stim\">1</p>", "internal_node_id": "0.0-79.0-9.0", "time_elapsed": 609127, "key_press": -1, "trial_index": 115}, "uniqueid": "MTK3533:392CY0QWG2YWMNKTWPBCE2AEDDM4I8", "dateTime": 1520786638644}, {"current_trial": 116, "trialdata": {"rt": -1, "trial_type": "single-stim", "stimulus": "<p id=\"stim\">+</p>", "internal_node_id": "0.0-80.0-0.0", "time_elapsed": 610629, "key_press": -1, "type": "FIXATION", "trial_index": 116}, "uniqueid": "MTK3533:392CY0QWG2YWMNKTWPBCE2AEDDM4I8", "dateTime": 1520786640146}, {"current_trial": 117, "trialdata": {"rt": -1, "trial_type": "single-stim", "word": "dress", "stimulus": "<p id=\"stim\">DRESS</p>", "conditions": [24, 800, "v", 24000], "internal_node_id": "0.0-81.0", "trial": 3, "time_elapsed": 611430, "serialpos": 0, "key_press": -1, "wordID": 494, "type": "PRES_VIS", "trial_index": 117}, "uniqueid": "MTK3533:392CY0QWG2YWMNKTWPBCE2AEDDM4I8", "dateTime": 1520786640947}, {"current_trial": 118, "trialdata": {"rt": -1, "trial_type": "single-stim", "word": "chapel", "stimulus": "<p id=\"stim\">CHAPEL</p>", "conditions": [24, 800, "v", 24000], "internal_node_id": "0.0-82.0", "trial": 3, "time_elapsed": 613103, "serialpos": 1, "key_press": -1, "wordID": 279, "type": "PRES_VIS", "trial_index": 118}, "uniqueid": "MTK3533:392CY0QWG2YWMNKTWPBCE2AEDDM4I8", "dateTime": 1520786642621}, {"current_trial": 119, "trialdata": {"rt": -1, "trial_type": "single-stim", "word": "lake", "stimulus": "<p id=\"stim\">LAKE</p>", "conditions": [24, 800, "v", 24000], "internal_node_id": "0.0-83.0", "trial": 3, "time_elapsed": 614718, "serialpos": 2, "key_press": -1, "wordID": 795, "type": "PRES_VIS", "trial_index": 119}, "uniqueid": "MTK3533:392CY0QWG2YWMNKTWPBCE2AEDDM4I8", "dateTime": 1520786644235}, {"current_trial": 120, "trialdata": {"rt": -1, "trial_type": "single-stim", "word": "tart", "stimulus": "<p id=\"stim\">TART</p>", "conditions": [24, 800, "v", 24000], "internal_node_id": "0.0-84.0", "trial": 3, "time_elapsed": 616333, "serialpos": 3, "key_press": -1, "wordID": 1435, "type": "PRES_VIS", "trial_index": 120}, "uniqueid": "MTK3533:392CY0QWG2YWMNKTWPBCE2AEDDM4I8", "dateTime": 1520786645851}, {"current_trial": 121, "trialdata": {"rt": -1, "trial_type": "single-stim", "word": "tutu", "stimulus": "<p id=\"stim\">TUTU</p>", "conditions": [24, 800, "v", 24000], "internal_node_id": "0.0-85.0", "trial": 3, "time_elapsed": 617996, "serialpos": 4, "key_press": -1, "wordID": 1523, "type": "PRES_VIS", "trial_index": 121}, "uniqueid": "MTK3533:392CY0QWG2YWMNKTWPBCE2AEDDM4I8", "dateTime": 1520786647514}, {"current_trial": 122, "trialdata": {"rt": -1, "trial_type": "single-stim", "word": "garlic", "stimulus": "<p id=\"stim\">GARLIC</p>", "conditions": [24, 800, "v", 24000], "internal_node_id": "0.0-86.0", "trial": 3, "time_elapsed": 619982, "serialpos": 5, "key_press": -1, "wordID": 623, "type": "PRES_VIS", "trial_index": 122}, "uniqueid": "MTK3533:392CY0QWG2YWMNKTWPBCE2AEDDM4I8", "dateTime": 1520786649499}, {"current_trial": 123, "trialdata": {"rt": -1, "trial_type": "single-stim", "word": "donkey", "stimulus": "<p id=\"stim\">DONKEY</p>", "conditions": [24, 800, "v", 24000], "internal_node_id": "0.0-87.0", "trial": 3, "time_elapsed": 621732, "serialpos": 6, "key_press": -1, "wordID": 483, "type": "PRES_VIS", "trial_index": 123}, "uniqueid": "MTK3533:392CY0QWG2YWMNKTWPBCE2AEDDM4I8", "dateTime": 1520786651250}, {"current_trial": 124, "trialdata": {"rt": -1, "trial_type": "single-stim", "word": "ketchup", "stimulus": "<p id=\"stim\">KETCHUP</p>", "conditions": [24, 800, "v", 24000], "internal_node_id": "0.0-88.0", "trial": 3, "time_elapsed": 623516, "serialpos": 7, "key_press": -1, "wordID": 770, "type": "PRES_VIS", "trial_index": 124}, "uniqueid": "MTK3533:392CY0QWG2YWMNKTWPBCE2AEDDM4I8", "dateTime": 1520786653035}, {"current_trial": 125, "trialdata": {"rt": -1, "trial_type": "single-stim", "word": "chipmunk", "stimulus": "<p id=\"stim\">CHIPMUNK</p>", "conditions": [24, 800, "v", 24000], "internal_node_id": "0.0-89.0", "trial": 3, "time_elapsed": 625466, "serialpos": 8, "key_press": -1, "wordID": 303, "type": "PRES_VIS", "trial_index": 125}, "uniqueid": "MTK3533:392CY0QWG2YWMNKTWPBCE2AEDDM4I8", "dateTime": 1520786654984}, {"current_trial": 126, "trialdata": {"rt": -1, "trial_type": "single-stim", "word": "blockade", "stimulus": "<p id=\"stim\">BLOCKADE</p>", "conditions": [24, 800, "v", 24000], "internal_node_id": "0.0-90.0", "trial": 3, "time_elapsed": 627300, "serialpos": 9, "key_press": -1, "wordID": 136, "type": "PRES_VIS", "trial_index": 126}, "uniqueid": "MTK3533:392CY0QWG2YWMNKTWPBCE2AEDDM4I8", "dateTime": 1520786656818}, {"current_trial": 127, "trialdata": {"rt": -1, "trial_type": "single-stim", "word": "tractor", "stimulus": "<p id=\"stim\">TRACTOR</p>", "conditions": [24, 800, "v", 24000], "internal_node_id": "0.0-91.0", "trial": 3, "time_elapsed": 629218, "serialpos": 10, "key_press": -1, "wordID": 1492, "type": "PRES_VIS", "trial_index": 127}, "uniqueid": "MTK3533:392CY0QWG2YWMNKTWPBCE2AEDDM4I8", "dateTime": 1520786658735}, {"current_trial": 128, "trialdata": {"rt": -1, "trial_type": "single-stim", "word": "truck", "stimulus": "<p id=\"stim\">TRUCK</p>", "conditions": [24, 800, "v", 24000], "internal_node_id": "0.0-92.0", "trial": 3, "time_elapsed": 630967, "serialpos": 11, "key_press": -1, "wordID": 1511, "type": "PRES_VIS", "trial_index": 128}, "uniqueid": "MTK3533:392CY0QWG2YWMNKTWPBCE2AEDDM4I8", "dateTime": 1520786660484}, {"current_trial": 129, "trialdata": {"rt": -1, "trial_type": "single-stim", "word": "cashier", "stimulus": "<p id=\"stim\">CASHIER</p>", "conditions": [24, 800, "v", 24000], "internal_node_id": "0.0-93.0", "trial": 3, "time_elapsed": 632852, "serialpos": 12, "key_press": -1, "wordID": 253, "type": "PRES_VIS", "trial_index": 129}, "uniqueid": "MTK3533:392CY0QWG2YWMNKTWPBCE2AEDDM4I8", "dateTime": 1520786662369}, {"current_trial": 130, "trialdata": {"rt": -1, "trial_type": "single-stim", "word": "nurse", "stimulus": "<p id=\"stim\">NURSE</p>", "conditions": [24, 800, "v", 24000], "internal_node_id": "0.0-94.0", "trial": 3, "time_elapsed": 634589, "serialpos": 13, "key_press": -1, "wordID": 962, "type": "PRES_VIS", "trial_index": 130}, "uniqueid": "MTK3533:392CY0QWG2YWMNKTWPBCE2AEDDM4I8", "dateTime": 1520786664106}, {"current_trial": 131, "trialdata": {"rt": -1, "trial_type": "single-stim", "word": "parrot", "stimulus": "<p id=\"stim\">PARROT</p>", "conditions": [24, 800, "v", 24000], "internal_node_id": "0.0-95.0", "trial": 3, "time_elapsed": 636306, "serialpos": 14, "key_press": -1, "wordID": 1014, "type": "PRES_VIS", "trial_index": 131}, "uniqueid": "MTK3533:392CY0QWG2YWMNKTWPBCE2AEDDM4I8", "dateTime": 1520786665824}, {"current_trial": 132, "trialdata": {"rt": -1, "trial_type": "single-stim", "word": "world", "stimulus": "<p id=\"stim\">WORLD</p>", "conditions": [24, 800, "v", 24000], "internal_node_id": "0.0-96.0", "trial": 3, "time_elapsed": 637925, "serialpos": 15, "key_press": -1, "wordID": 1621, "type": "PRES_VIS", "trial_index": 132}, "uniqueid": "MTK3533:392CY0QWG2YWMNKTWPBCE2AEDDM4I8", "dateTime": 1520786667442}, {"current_trial": 133, "trialdata": {"rt": -1, "trial_type": "single-stim", "word": "country", "stimulus": "<p id=\"stim\">COUNTRY</p>", "conditions": [24, 800, "v", 24000], "internal_node_id": "0.0-97.0", "trial": 3, "time_elapsed": 639724, "serialpos": 16, "key_press": -1, "wordID": 387, "type": "PRES_VIS", "trial_index": 133}, "uniqueid": "MTK3533:392CY0QWG2YWMNKTWPBCE2AEDDM4I8", "dateTime": 1520786669241}, {"current_trial": 134, "trialdata": {"rt": -1, "trial_type": "single-stim", "word": "skillet", "stimulus": "<p id=\"stim\">SKILLET</p>", "conditions": [24, 800, "v", 24000], "internal_node_id": "0.0-98.0", "trial": 3, "time_elapsed": 641702, "serialpos": 17, "key_press": -1, "wordID": 1316, "type": "PRES_VIS", "trial_index": 134}, "uniqueid": "MTK3533:392CY0QWG2YWMNKTWPBCE2AEDDM4I8", "dateTime": 1520786671219}, {"current_trial": 135, "trialdata": {"rt": -1, "trial_type": "single-stim", "word": "stomach", "stimulus": "<p id=\"stim\">STOMACH</p>", "conditions": [24, 800, "v", 24000], "internal_node_id": "0.0-99.0", "trial": 3, "time_elapsed": 643515, "serialpos": 18, "key_press": -1, "wordID": 1383, "type": "PRES_VIS", "trial_index": 135}, "uniqueid": "MTK3533:392CY0QWG2YWMNKTWPBCE2AEDDM4I8", "dateTime": 1520786673032}, {"current_trial": 136, "trialdata": {"rt": -1, "trial_type": "single-stim", "word": "plaid", "stimulus": "<p id=\"stim\">PLAID</p>", "conditions": [24, 800, "v", 24000], "internal_node_id": "0.0-100.0", "trial": 3, "time_elapsed": 645406, "serialpos": 19, "key_press": -1, "wordID": 1079, "type": "PRES_VIS", "trial_index": 136}, "uniqueid": "MTK3533:392CY0QWG2YWMNKTWPBCE2AEDDM4I8", "dateTime": 1520786674923}, {"current_trial": 137, "trialdata": {"rt": -1, "trial_type": "single-stim", "word": "frame", "stimulus": "<p id=\"stim\">FRAME</p>", "conditions": [24, 800, "v", 24000], "internal_node_id": "0.0-101.0", "trial": 3, "time_elapsed": 647275, "serialpos": 20, "key_press": -1, "wordID": 599, "type": "PRES_VIS", "trial_index": 137}, "uniqueid": "MTK3533:392CY0QWG2YWMNKTWPBCE2AEDDM4I8", "dateTime": 1520786676793}, {"current_trial": 138, "trialdata": {"rt": -1, "trial_type": "single-stim", "word": "bike", "stimulus": "<p id=\"stim\">BIKE</p>", "conditions": [24, 800, "v", 24000], "internal_node_id": "0.0-102.0", "trial": 3, "time_elapsed": 648907, "serialpos": 21, "key_press": -1, "wordID": 124, "type": "PRES_VIS", "trial_index": 138}, "uniqueid": "MTK3533:392CY0QWG2YWMNKTWPBCE2AEDDM4I8", "dateTime": 1520786678424}, {"current_trial": 139, "trialdata": {"rt": -1, "trial_type": "single-stim", "word": "spoon", "stimulus": "<p id=\"stim\">SPOON</p>", "conditions": [24, 800, "v", 24000], "internal_node_id": "0.0-103.0", "trial": 3, "time_elapsed": 650549, "serialpos": 22, "key_press": -1, "wordID": 1356, "type": "PRES_VIS", "trial_index": 139}, "uniqueid": "MTK3533:392CY0QWG2YWMNKTWPBCE2AEDDM4I8", "dateTime": 1520786680067}, {"current_trial": 140, "trialdata": {"rt": -1, "trial_type": "single-stim", "word": "maple", "stimulus": "<p id=\"stim\">MAPLE</p>", "conditions": [24, 800, "v", 24000], "internal_node_id": "0.0-104.0", "trial": 3, "time_elapsed": 652304, "serialpos": 23, "key_press": -1, "wordID": 865, "type": "PRES_VIS", "trial_index": 140}, "uniqueid": "MTK3533:392CY0QWG2YWMNKTWPBCE2AEDDM4I8", "dateTime": 1520786681821}, {"current_trial": 141, "trialdata": {"rt": -1, "trial_type": "single-stim", "stimulus": "", "internal_node_id": "0.0-105.0-0.0", "time_elapsed": 654446, "key_press": -1, "type": "PRE_RECALL_DELAY", "trial_index": 141}, "uniqueid": "MTK3533:392CY0QWG2YWMNKTWPBCE2AEDDM4I8", "dateTime": 1520786683963}, {"current_trial": 142, "trialdata": {"rt": -1000, "trial_type": "single-audio", "stimulus": "/static/audio/400Hz.wav", "internal_node_id": "0.0-106.0", "time_elapsed": 654946, "key_press": -1, "type": "PRE_RECALL_ALERT", "trial_index": 142}, "uniqueid": "MTK3533:392CY0QWG2YWMNKTWPBCE2AEDDM4I8", "dateTime": 1520786684463}, {"current_trial": 143, "trialdata": {"rt": [9614, 13141, 17198, 20767, 24854, 29429, 34206, 38414, 44437, 49085, 54215, 58733], "recwords": ["dress", "chapel", "lake", "tart", "garlic", "donkey", "ketchep", "truck", "nurse", "world", "country", "bike"], "key_times": [6334, 6598, 6894, 7126, 7358, 8190, 9614, 10190, 10510, 11086, 11254, 11782, 12110, 12437, 13141, 13741, 14241, 14274, 14306, 14339, 14372, 14406, 14438, 14472, 14505, 14538, 14571, 14603, 14637, 14670, 14703, 14736, 14769, 14802, 14835, 14867, 14901, 14933, 14966, 14999, 15032, 15066, 15098, 15131, 15166, 15198, 15231, 15263, 15297, 15330, 15363, 15396, 15428, 15462, 15469, 15685, 16270, 16926, 17198, 18166, 18666, 18700, 18732, 18765, 18798, 18831, 18863, 19102, 19374, 19567, 20767, 21191, 21690, 21723, 21734, 22543, 22966, 23359, 23638, 24087, 24854, 25359, 25859, 25891, 25924, 25957, 25990, 26023, 26031, 26741, 27150, 27973, 28198, 28687, 29429, 29774, 30273, 30305, 30339, 30372, 30404, 30437, 30471, 30504, 30536, 30569, 30598, 30981, 31389, 31686, 32069, 32421, 32910, 34206, 34614, 35115, 35148, 35180, 35214, 35247, 35279, 35310, 35599, 36311, 36615, 37150, 38414, 38846, 39345, 39379, 39411, 39445, 39477, 39511, 39543, 40935, 41485, 42085, 42590, 43270, 43526, 44437, 45254, 45753, 45785, 45819, 45852, 45885, 45917, 45951, 45985, 46017, 46049, 46084, 46116, 46150, 46150, 46853, 47374, 47693, 48125, 49085, 49846, 50346, 50377, 50410, 50443, 50477, 50510, 50544, 50565, 51382, 51718, 51997, 52319, 52814, 53415, 54215, 55335, 55835, 55867, 55901, 55933, 55965, 55999, 56032, 56066, 56098, 56131, 56164, 56197, 56229, 56264, 56296, 56329, 56363, 56394, 56427, 56461, 56494, 56527, 56561, 56593, 56625, 56658, 56692, 56725, 56759, 56790, 56825, 56857, 56889, 56923, 56957, 56988, 57022, 57055, 57087, 57121, 57141, 58094, 58277, 58566, 58733], "trial_type": "free-recall", "conditions": [24, 800, "v", 24000], "internal_node_id": "0.0-107.0-0.0", "key_presses": [16, 68, 82, 69, 83, 83, 13, 16, 67, 72, 65, 80, 69, 76, 13, 16, 16, 16, 16, 16, 16, 16, 16, 16, 16, 16, 16, 16, 16, 16, 16, 16, 16, 16, 16, 16, 16, 16, 16, 16, 16, 16, 16, 16, 16, 16, 16, 16, 16, 16, 16, 16, 16, 16, 76, 65, 75, 69, 13, 16, 16, 16, 16, 16, 16, 16, 84, 65, 82, 84, 13, 16, 16, 16, 71, 65, 82, 76, 73, 67, 13, 16, 16, 16, 16, 16, 16, 16, 68, 79, 78, 75, 69, 89, 13, 16, 16, 16, 16, 16, 16, 16, 16, 16, 16, 16, 75, 69, 84, 67, 72, 69, 80, 13, 16, 16, 16, 16, 16, 16, 16, 84, 82, 85, 67, 75, 13, 16, 16, 16, 16, 16, 16, 16, 78, 79, 8, 85, 82, 83, 69, 13, 16, 16, 16, 16, 16, 16, 16, 16, 16, 16, 16, 16, 16, 16, 87, 79, 82, 76, 68, 13, 16, 16, 16, 16, 16, 16, 16, 16, 67, 79, 85, 78, 84, 82, 89, 13, 16, 16, 16, 16, 16, 16, 16, 16, 16, 16, 16, 16, 16, 16, 16, 16, 16, 16, 16, 16, 16, 16, 16, 16, 16, 16, 16, 16, 16, 16, 16, 16, 16, 16, 16, 16, 16, 16, 16, 16, 16, 66, 73, 75, 69, 13], "trial": 3, "time_elapsed": 714949, "type": "FREE_RECALL", "trial_index": 143}, "uniqueid": "MTK3533:392CY0QWG2YWMNKTWPBCE2AEDDM4I8", "dateTime": 1520786744471}, {"current_trial": 144, "trialdata": {"rt": 2240, "trial_type": "text", "internal_node_id": "0.0-108.0", "time_elapsed": 719194, "key_press": 13, "type": "INSTRUCTIONS", "trial_index": 144}, "uniqueid": "MTK3533:392CY0QWG2YWMNKTWPBCE2AEDDM4I8", "dateTime": 1520786748711}, {"current_trial": 145, "trialdata": {"rt": [3222, 7197, 9188, 11117], "trial_type": "math-distractor", "key_times": [2590, 3222, 6485, 6957, 7197, 8822, 9188, 10652, 10949, 11117], "responses": ["8", "21", "8", "12"], "num2": [4, 9, 1, 7, 1], "num3": [1, 5, 6, 1, 5], "conditions": [12, 1600, "v", 12000], "internal_node_id": "0.0-109.0", "key_presses": [56, 13, 50, 49, 13, 56, 13, 49, 50, 13], "trial": 4, "time_elapsed": 733196, "type": "DISTRACTOR", "trial_index": 145, "num1": [3, 7, 1, 4, 2]}, "uniqueid": "MTK3533:392CY0QWG2YWMNKTWPBCE2AEDDM4I8", "dateTime": 1520786762713}, {"current_trial": 146, "trialdata": {"rt": -1, "trial_type": "single-stim", "stimulus": "<p id=\"stim\">10</p>", "internal_node_id": "0.0-110.0-0.0", "time_elapsed": 736198, "key_press": -1, "trial_index": 146}, "uniqueid": "MTK3533:392CY0QWG2YWMNKTWPBCE2AEDDM4I8", "dateTime": 1520786765715}, {"current_trial": 147, "trialdata": {"rt": -1, "trial_type": "single-stim", "stimulus": "<p id=\"stim\">9</p>", "internal_node_id": "0.0-110.0-1.0", "time_elapsed": 737198, "key_press": -1, "trial_index": 147}, "uniqueid": "MTK3533:392CY0QWG2YWMNKTWPBCE2AEDDM4I8", "dateTime": 1520786766715}, {"current_trial": 148, "trialdata": {"rt": -1, "trial_type": "single-stim", "stimulus": "<p id=\"stim\">8</p>", "internal_node_id": "0.0-110.0-2.0", "time_elapsed": 738200, "key_press": -1, "trial_index": 148}, "uniqueid": "MTK3533:392CY0QWG2YWMNKTWPBCE2AEDDM4I8", "dateTime": 1520786767717}, {"current_trial": 149, "trialdata": {"rt": -1, "trial_type": "single-stim", "stimulus": "<p id=\"stim\">7</p>", "internal_node_id": "0.0-110.0-3.0", "time_elapsed": 739200, "key_press": -1, "trial_index": 149}, "uniqueid": "MTK3533:392CY0QWG2YWMNKTWPBCE2AEDDM4I8", "dateTime": 1520786768717}, {"current_trial": 150, "trialdata": {"rt": -1, "trial_type": "single-stim", "stimulus": "<p id=\"stim\">6</p>", "internal_node_id": "0.0-110.0-4.0", "time_elapsed": 740202, "key_press": -1, "trial_index": 150}, "uniqueid": "MTK3533:392CY0QWG2YWMNKTWPBCE2AEDDM4I8", "dateTime": 1520786769719}, {"current_trial": 151, "trialdata": {"rt": -1, "trial_type": "single-stim", "stimulus": "<p id=\"stim\">5</p>", "internal_node_id": "0.0-110.0-5.0", "time_elapsed": 741202, "key_press": -1, "trial_index": 151}, "uniqueid": "MTK3533:392CY0QWG2YWMNKTWPBCE2AEDDM4I8", "dateTime": 1520786770721}, {"current_trial": 152, "trialdata": {"rt": -1, "trial_type": "single-stim", "stimulus": "<p id=\"stim\">4</p>", "internal_node_id": "0.0-110.0-6.0", "time_elapsed": 742204, "key_press": -1, "trial_index": 152}, "uniqueid": "MTK3533:392CY0QWG2YWMNKTWPBCE2AEDDM4I8", "dateTime": 1520786771723}, {"current_trial": 153, "trialdata": {"rt": -1, "trial_type": "single-stim", "stimulus": "<p id=\"stim\">3</p>", "internal_node_id": "0.0-110.0-7.0", "time_elapsed": 743207, "key_press": -1, "trial_index": 153}, "uniqueid": "MTK3533:392CY0QWG2YWMNKTWPBCE2AEDDM4I8", "dateTime": 1520786772724}, {"current_trial": 154, "trialdata": {"rt": -1, "trial_type": "single-stim", "stimulus": "<p id=\"stim\">2</p>", "internal_node_id": "0.0-110.0-8.0", "time_elapsed": 744207, "key_press": -1, "trial_index": 154}, "uniqueid": "MTK3533:392CY0QWG2YWMNKTWPBCE2AEDDM4I8", "dateTime": 1520786773725}, {"current_trial": 155, "trialdata": {"rt": -1, "trial_type": "single-stim", "stimulus": "<p id=\"stim\">1</p>", "internal_node_id": "0.0-110.0-9.0", "time_elapsed": 745207, "key_press": -1, "trial_index": 155}, "uniqueid": "MTK3533:392CY0QWG2YWMNKTWPBCE2AEDDM4I8", "dateTime": 1520786774725}, {"current_trial": 156, "trialdata": {"rt": -1, "trial_type": "single-stim", "stimulus": "<p id=\"stim\">+</p>", "internal_node_id": "0.0-111.0-0.0", "time_elapsed": 746710, "key_press": -1, "type": "FIXATION", "trial_index": 156}, "uniqueid": "MTK3533:392CY0QWG2YWMNKTWPBCE2AEDDM4I8", "dateTime": 1520786776227}, {"current_trial": 157, "trialdata": {"rt": -1, "trial_type": "single-stim", "word": "stamp", "stimulus": "<p id=\"stim\">STAMP</p>", "conditions": [12, 1600, "v", 12000], "internal_node_id": "0.0-112.0", "trial": 4, "time_elapsed": 748311, "serialpos": 0, "key_press": -1, "wordID": 1369, "type": "PRES_VIS", "trial_index": 157}, "uniqueid": "MTK3533:392CY0QWG2YWMNKTWPBCE2AEDDM4I8", "dateTime": 1520786777828}, {"current_trial": 158, "trialdata": {"rt": -1, "trial_type": "single-stim", "word": "lamp", "stimulus": "<p id=\"stim\">LAMP</p>", "conditions": [12, 1600, "v", 12000], "internal_node_id": "0.0-113.0", "trial": 4, "time_elapsed": 751055, "serialpos": 1, "key_press": -1, "wordID": 797, "type": "PRES_VIS", "trial_index": 158}, "uniqueid": "MTK3533:392CY0QWG2YWMNKTWPBCE2AEDDM4I8", "dateTime": 1520786780572}, {"current_trial": 159, "trialdata": {"rt": -1, "trial_type": "single-stim", "word": "wardrobe", "stimulus": "<p id=\"stim\">WARDROBE</p>", "conditions": [12, 1600, "v", 12000], "internal_node_id": "0.0-114.0", "trial": 4, "time_elapsed": 753628, "serialpos": 2, "key_press": -1, "wordID": 1586, "type": "PRES_VIS", "trial_index": 159}, "uniqueid": "MTK3533:392CY0QWG2YWMNKTWPBCE2AEDDM4I8", "dateTime": 1520786783145}, {"current_trial": 160, "trialdata": {"rt": -1, "trial_type": "single-stim", "word": "rattle", "stimulus": "<p id=\"stim\">RATTLE</p>", "conditions": [12, 1600, "v", 12000], "internal_node_id": "0.0-115.0", "trial": 4, "time_elapsed": 756392, "serialpos": 3, "key_press": -1, "wordID": 1169, "type": "PRES_VIS", "trial_index": 160}, "uniqueid": "MTK3533:392CY0QWG2YWMNKTWPBCE2AEDDM4I8", "dateTime": 1520786785911}, {"current_trial": 161, "trialdata": {"rt": -1, "trial_type": "single-stim", "word": "radish", "stimulus": "<p id=\"stim\">RADISH</p>", "conditions": [12, 1600, "v", 12000], "internal_node_id": "0.0-116.0", "trial": 4, "time_elapsed": 759178, "serialpos": 4, "key_press": -1, "wordID": 1157, "type": "PRES_VIS", "trial_index": 161}, "uniqueid": "MTK3533:392CY0QWG2YWMNKTWPBCE2AEDDM4I8", "dateTime": 1520786788696}, {"current_trial": 162, "trialdata": {"rt": -1, "trial_type": "single-stim", "word": "clothes", "stimulus": "<p id=\"stim\">CLOTHES</p>", "conditions": [12, 1600, "v", 12000], "internal_node_id": "0.0-117.0", "trial": 4, "time_elapsed": 761863, "serialpos": 5, "key_press": -1, "wordID": 326, "type": "PRES_VIS", "trial_index": 162}, "uniqueid": "MTK3533:392CY0QWG2YWMNKTWPBCE2AEDDM4I8", "dateTime": 1520786791380}, {"current_trial": 163, "trialdata": {"rt": -1, "trial_type": "single-stim", "word": "ground", "stimulus": "<p id=\"stim\">GROUND</p>", "conditions": [12, 1600, "v", 12000], "internal_node_id": "0.0-118.0", "trial": 4, "time_elapsed": 764316, "serialpos": 6, "key_press": -1, "wordID": 665, "type": "PRES_VIS", "trial_index": 163}, "uniqueid": "MTK3533:392CY0QWG2YWMNKTWPBCE2AEDDM4I8", "dateTime": 1520786793833}, {"current_trial": 164, "trialdata": {"rt": -1, "trial_type": "single-stim", "word": "bacon", "stimulus": "<p id=\"stim\">BACON</p>", "conditions": [12, 1600, "v", 12000], "internal_node_id": "0.0-119.0", "trial": 4, "time_elapsed": 767019, "serialpos": 7, "key_press": -1, "wordID": 66, "type": "PRES_VIS", "trial_index": 164}, "uniqueid": "MTK3533:392CY0QWG2YWMNKTWPBCE2AEDDM4I8", "dateTime": 1520786796536}, {"current_trial": 165, "trialdata": {"rt": -1, "trial_type": "single-stim", "word": "fiddle", "stimulus": "<p id=\"stim\">FIDDLE</p>", "conditions": [12, 1600, "v", 12000], "internal_node_id": "0.0-120.0", "trial": 4, "time_elapsed": 769541, "serialpos": 8, "key_press": -1, "wordID": 560, "type": "PRES_VIS", "trial_index": 165}, "uniqueid": "MTK3533:392CY0QWG2YWMNKTWPBCE2AEDDM4I8", "dateTime": 1520786799058}, {"current_trial": 166, "trialdata": {"rt": -1, "trial_type": "single-stim", "word": "trombone", "stimulus": "<p id=\"stim\">TROMBONE</p>", "conditions": [12, 1600, "v", 12000], "internal_node_id": "0.0-121.0", "trial": 4, "time_elapsed": 772298, "serialpos": 9, "key_press": -1, "wordID": 1507, "type": "PRES_VIS", "trial_index": 166}, "uniqueid": "MTK3533:392CY0QWG2YWMNKTWPBCE2AEDDM4I8", "dateTime": 1520786801816}, {"current_trial": 167, "trialdata": {"rt": -1, "trial_type": "single-stim", "word": "catcher", "stimulus": "<p id=\"stim\">CATCHER</p>", "conditions": [12, 1600, "v", 12000], "internal_node_id": "0.0-122.0", "trial": 4, "time_elapsed": 774980, "serialpos": 10, "key_press": -1, "wordID": 257, "type": "PRES_VIS", "trial_index": 167}, "uniqueid": "MTK3533:392CY0QWG2YWMNKTWPBCE2AEDDM4I8", "dateTime": 1520786804497}, {"current_trial": 168, "trialdata": {"rt": -1, "trial_type": "single-stim", "word": "waiter", "stimulus": "<p id=\"stim\">WAITER</p>", "conditions": [12, 1600, "v", 12000], "internal_node_id": "0.0-123.0", "trial": 4, "time_elapsed": 777746, "serialpos": 11, "key_press": -1, "wordID": 1579, "type": "PRES_VIS", "trial_index": 168}, "uniqueid": "MTK3533:392CY0QWG2YWMNKTWPBCE2AEDDM4I8", "dateTime": 1520786807263}, {"current_trial": 169, "trialdata": {"rt": -1, "trial_type": "single-stim", "stimulus": "", "internal_node_id": "0.0-124.0-0.0", "time_elapsed": 779880, "key_press": -1, "type": "PRE_RECALL_DELAY", "trial_index": 169}, "uniqueid": "MTK3533:392CY0QWG2YWMNKTWPBCE2AEDDM4I8", "dateTime": 1520786809397}, {"current_trial": 170, "trialdata": {"rt": -1000, "trial_type": "single-audio", "stimulus": "/static/audio/400Hz.wav", "internal_node_id": "0.0-125.0", "time_elapsed": 780380, "key_press": -1, "type": "PRE_RECALL_ALERT", "trial_index": 170}, "uniqueid": "MTK3533:392CY0QWG2YWMNKTWPBCE2AEDDM4I8", "dateTime": 1520786809898}, {"current_trial": 171, "trialdata": {"rt": [12274, 16443, 21436, 24810, 30258, 33699, 38490, 41451, 54564], "recwords": ["stamp", "lamp", "wardrobe", "rattle", "radish", "clothes", "ground", "bacon", "catcher"], "key_times": [2947, 6091, 6435, 7027, 7186, 7714, 8251, 10474, 11330, 12274, 13220, 13717, 13751, 13785, 13816, 13851, 13883, 13916, 13950, 13983, 14016, 14048, 14082, 14114, 14148, 14181, 14213, 14247, 14279, 14312, 14347, 14379, 14411, 14445, 14478, 14499, 15011, 15532, 16051, 16443, 17147, 17647, 17680, 17713, 17746, 17779, 17812, 17845, 17875, 18195, 18468, 18677, 19420, 19811, 20243, 20467, 21436, 22379, 22877, 22912, 22943, 22977, 23011, 23027, 23308, 23578, 23746, 24330, 24626, 24810, 25795, 26294, 26327, 26360, 26393, 26425, 26459, 26492, 26525, 26559, 26592, 26624, 26656, 26690, 26690, 26898, 27274, 27587, 27898, 29066, 30258, 30666, 31166, 31200, 31232, 31265, 31299, 31299, 31939, 32171, 32651, 32898, 33219, 33491, 33699, 35123, 35623, 35656, 35689, 35722, 35754, 35788, 35821, 35854, 35887, 35920, 35953, 35985, 36019, 36052, 36085, 36118, 36131, 36564, 36859, 37194, 37562, 37794, 38490, 38962, 39462, 39494, 39529, 39560, 39596, 39626, 39659, 39666, 39947, 40322, 40618, 41034, 41451, 42698, 43199, 43230, 43263, 43296, 43330, 43363, 43396, 43430, 43461, 43496, 43528, 43561, 43594, 43626, 43659, 43693, 43726, 43758, 43791, 43824, 43858, 43892, 43924, 43957, 43990, 44023, 44057, 44089, 44123, 44155, 44187, 44221, 44250, 44475, 44778, 45130, 45627, 45859, 48218, 48394, 48578, 48754, 50755, 51882, 54564, 57539, 58039, 58072, 58104, 58137, 58170, 58204, 58235, 58268, 58303, 58335, 58368, 58402, 58433, 58467, 58500, 58533, 58566, 58599, 58633, 58634, 58850, 59571, 59947], "trial_type": "free-recall", "conditions": [12, 1600, "v", 12000], "internal_node_id": "0.0-126.0-0.0", "key_presses": [192, 16, 83, 84, 65, 77, 80, 36, 46, 13, 16, 16, 16, 16, 16, 16, 16, 16, 16, 16, 16, 16, 16, 16, 16, 16, 16, 16, 16, 16, 16, 16, 16, 16, 16, 76, 65, 77, 80, 13, 16, 16, 16, 16, 16, 16, 16, 16, 87, 65, 82, 68, 82, 79, 66, 69, 13, 16, 16, 16, 16, 16, 16, 82, 65, 84, 84, 76, 69, 13, 16, 16, 16, 16, 16, 16, 16, 16, 16, 16, 16, 16, 16, 16, 82, 65, 68, 73, 83, 72, 13, 16, 16, 16, 16, 16, 16, 67, 76, 79, 84, 72, 69, 83, 13, 16, 16, 16, 16, 16, 16, 16, 16, 16, 16, 16, 16, 16, 16, 16, 16, 16, 71, 82, 79, 85, 78, 68, 13, 16, 16, 16, 16, 16, 16, 16, 16, 66, 65, 67, 79, 78, 13, 16, 16, 16, 16, 16, 16, 16, 16, 16, 16, 16, 16, 16, 16, 16, 16, 16, 16, 16, 16, 16, 16, 16, 16, 16, 16, 16, 16, 16, 16, 16, 16, 16, 67, 65, 84, 72, 69, 82, 37, 37, 37, 37, 39, 67, 13, 16, 16, 16, 16, 16, 16, 16, 16, 16, 16, 16, 16, 16, 16, 16, 16, 16, 16, 16, 16, 87, 65, 73, 84], "trial": 4, "time_elapsed": 840383, "type": "FREE_RECALL", "trial_index": 171}, "uniqueid": "MTK3533:392CY0QWG2YWMNKTWPBCE2AEDDM4I8", "dateTime": 1520786869905}, {"current_trial": 172, "trialdata": {"rt": 2155, "trial_type": "text", "internal_node_id": "0.0-127.0", "time_elapsed": 844544, "key_press": 13, "type": "INSTRUCTIONS", "trial_index": 172}, "uniqueid": "MTK3533:392CY0QWG2YWMNKTWPBCE2AEDDM4I8", "dateTime": 1520786874061}, {"current_trial": 173, "trialdata": {"rt": [3214, 5789, 8045, 10941, 14684, 16957, 19253, 22517], "trial_type": "math-distractor", "key_times": [2630, 2846, 3214, 4613, 4989, 5789, 7565, 7764, 8045, 10373, 10621, 10941, 13837, 14165, 14684, 16220, 16629, 16957, 18197, 18549, 19253, 20909, 21733, 22517], "responses": ["10", "10", "11", "11", "23", "10", "10", "14"], "num2": [5, 3, 2, 4, 5, 5, 7, 4, 1], "num3": [3, 3, 3, 6, 9, 2, 9, 3, 9], "conditions": [24, 1600, "v", 24000], "internal_node_id": "0.0-128.0", "key_presses": [49, 48, 13, 49, 48, 13, 49, 49, 13, 49, 49, 13, 50, 51, 13, 49, 48, 13, 49, 48, 13, 49, 52, 13], "trial": 5, "time_elapsed": 870548, "type": "DISTRACTOR", "trial_index": 173, "num1": [2, 4, 6, 1, 9, 3, 3, 7, 8]}, "uniqueid": "MTK3533:392CY0QWG2YWMNKTWPBCE2AEDDM4I8", "dateTime": 1520786900065}, {"current_trial": 174, "trialdata": {"rt": -1, "trial_type": "single-stim", "stimulus": "<p id=\"stim\">10</p>", "internal_node_id": "0.0-129.0-0.0", "time_elapsed": 873549, "key_press": -1, "trial_index": 174}, "uniqueid": "MTK3533:392CY0QWG2YWMNKTWPBCE2AEDDM4I8", "dateTime": 1520786903066}, {"current_trial": 175, "trialdata": {"rt": -1, "trial_type": "single-stim", "stimulus": "<p id=\"stim\">9</p>", "internal_node_id": "0.0-129.0-1.0", "time_elapsed": 874550, "key_press": -1, "trial_index": 175}, "uniqueid": "MTK3533:392CY0QWG2YWMNKTWPBCE2AEDDM4I8", "dateTime": 1520786904067}, {"current_trial": 176, "trialdata": {"rt": -1, "trial_type": "single-stim", "stimulus": "<p id=\"stim\">8</p>", "internal_node_id": "0.0-129.0-2.0", "time_elapsed": 875550, "key_press": -1, "trial_index": 176}, "uniqueid": "MTK3533:392CY0QWG2YWMNKTWPBCE2AEDDM4I8", "dateTime": 1520786905068}, {"current_trial": 177, "trialdata": {"rt": -1, "trial_type": "single-stim", "stimulus": "<p id=\"stim\">7</p>", "internal_node_id": "0.0-129.0-3.0", "time_elapsed": 876552, "key_press": -1, "trial_index": 177}, "uniqueid": "MTK3533:392CY0QWG2YWMNKTWPBCE2AEDDM4I8", "dateTime": 1520786906069}, {"current_trial": 178, "trialdata": {"rt": -1, "trial_type": "single-stim", "stimulus": "<p id=\"stim\">6</p>", "internal_node_id": "0.0-129.0-4.0", "time_elapsed": 877552, "key_press": -1, "trial_index": 178}, "uniqueid": "MTK3533:392CY0QWG2YWMNKTWPBCE2AEDDM4I8", "dateTime": 1520786907069}, {"current_trial": 179, "trialdata": {"rt": -1, "trial_type": "single-stim", "stimulus": "<p id=\"stim\">5</p>", "internal_node_id": "0.0-129.0-5.0", "time_elapsed": 878553, "key_press": -1, "trial_index": 179}, "uniqueid": "MTK3533:392CY0QWG2YWMNKTWPBCE2AEDDM4I8", "dateTime": 1520786908070}, {"current_trial": 180, "trialdata": {"rt": -1, "trial_type": "single-stim", "stimulus": "<p id=\"stim\">4</p>", "internal_node_id": "0.0-129.0-6.0", "time_elapsed": 879555, "key_press": -1, "trial_index": 180}, "uniqueid": "MTK3533:392CY0QWG2YWMNKTWPBCE2AEDDM4I8", "dateTime": 1520786909072}, {"current_trial": 181, "trialdata": {"rt": -1, "trial_type": "single-stim", "stimulus": "<p id=\"stim\">3</p>", "internal_node_id": "0.0-129.0-7.0", "time_elapsed": 880555, "key_press": -1, "trial_index": 181}, "uniqueid": "MTK3533:392CY0QWG2YWMNKTWPBCE2AEDDM4I8", "dateTime": 1520786910073}, {"current_trial": 182, "trialdata": {"rt": -1, "trial_type": "single-stim", "stimulus": "<p id=\"stim\">2</p>", "internal_node_id": "0.0-129.0-8.0", "time_elapsed": 881556, "key_press": -1, "trial_index": 182}, "uniqueid": "MTK3533:392CY0QWG2YWMNKTWPBCE2AEDDM4I8", "dateTime": 1520786911073}, {"current_trial": 183, "trialdata": {"rt": -1, "trial_type": "single-stim", "stimulus": "<p id=\"stim\">1</p>", "internal_node_id": "0.0-129.0-9.0", "time_elapsed": 882558, "key_press": -1, "trial_index": 183}, "uniqueid": "MTK3533:392CY0QWG2YWMNKTWPBCE2AEDDM4I8", "dateTime": 1520786912075}, {"current_trial": 184, "trialdata": {"rt": -1, "trial_type": "single-stim", "stimulus": "<p id=\"stim\">+</p>", "internal_node_id": "0.0-130.0-0.0", "time_elapsed": 884059, "key_press": -1, "type": "FIXATION", "trial_index": 184}, "uniqueid": "MTK3533:392CY0QWG2YWMNKTWPBCE2AEDDM4I8", "dateTime": 1520786913576}, {"current_trial": 185, "trialdata": {"rt": -1, "trial_type": "single-stim", "word": "france", "stimulus": "<p id=\"stim\">FRANCE</p>", "conditions": [24, 1600, "v", 24000], "internal_node_id": "0.0-131.0", "trial": 5, "time_elapsed": 885660, "serialpos": 0, "key_press": -1, "wordID": 600, "type": "PRES_VIS", "trial_index": 185}, "uniqueid": "MTK3533:392CY0QWG2YWMNKTWPBCE2AEDDM4I8", "dateTime": 1520786915177}, {"current_trial": 186, "trialdata": {"rt": -1, "trial_type": "single-stim", "word": "pastry", "stimulus": "<p id=\"stim\">PASTRY</p>", "conditions": [24, 1600, "v", 24000], "internal_node_id": "0.0-132.0", "trial": 5, "time_elapsed": 888264, "serialpos": 1, "key_press": -1, "wordID": 1021, "type": "PRES_VIS", "trial_index": 186}, "uniqueid": "MTK3533:392CY0QWG2YWMNKTWPBCE2AEDDM4I8", "dateTime": 1520786917781}, {"current_trial": 187, "trialdata": {"rt": -1, "trial_type": "single-stim", "word": "statue", "stimulus": "<p id=\"stim\">STATUE</p>", "conditions": [24, 1600, "v", 24000], "internal_node_id": "0.0-133.0", "trial": 5, "time_elapsed": 890865, "serialpos": 2, "key_press": -1, "wordID": 1373, "type": "PRES_VIS", "trial_index": 187}, "uniqueid": "MTK3533:392CY0QWG2YWMNKTWPBCE2AEDDM4I8", "dateTime": 1520786920382}, {"current_trial": 188, "trialdata": {"rt": -1, "trial_type": "single-stim", "word": "thief", "stimulus": "<p id=\"stim\">THIEF</p>", "conditions": [24, 1600, "v", 24000], "internal_node_id": "0.0-134.0", "trial": 5, "time_elapsed": 893652, "serialpos": 3, "key_press": -1, "wordID": 1455, "type": "PRES_VIS", "trial_index": 188}, "uniqueid": "MTK3533:392CY0QWG2YWMNKTWPBCE2AEDDM4I8", "dateTime": 1520786923169}, {"current_trial": 189, "trialdata": {"rt": -1, "trial_type": "single-stim", "word": "bucket", "stimulus": "<p id=\"stim\">BUCKET</p>", "conditions": [24, 1600, "v", 24000], "internal_node_id": "0.0-135.0", "trial": 5, "time_elapsed": 896232, "serialpos": 4, "key_press": -1, "wordID": 183, "type": "PRES_VIS", "trial_index": 189}, "uniqueid": "MTK3533:392CY0QWG2YWMNKTWPBCE2AEDDM4I8", "dateTime": 1520786925749}, {"current_trial": 190, "trialdata": {"rt": -1, "trial_type": "single-stim", "word": "rabbit", "stimulus": "<p id=\"stim\">RABBIT</p>", "conditions": [24, 1600, "v", 24000], "internal_node_id": "0.0-136.0", "trial": 5, "time_elapsed": 898695, "serialpos": 5, "key_press": -1, "wordID": 1151, "type": "PRES_VIS", "trial_index": 190}, "uniqueid": "MTK3533:392CY0QWG2YWMNKTWPBCE2AEDDM4I8", "dateTime": 1520786928212}, {"current_trial": 191, "trialdata": {"rt": -1, "trial_type": "single-stim", "word": "bunny", "stimulus": "<p id=\"stim\">BUNNY</p>", "conditions": [24, 1600, "v", 24000], "internal_node_id": "0.0-137.0", "trial": 5, "time_elapsed": 901230, "serialpos": 6, "key_press": -1, "wordID": 197, "type": "PRES_VIS", "trial_index": 191}, "uniqueid": "MTK3533:392CY0QWG2YWMNKTWPBCE2AEDDM4I8", "dateTime": 1520786930747}, {"current_trial": 192, "trialdata": {"rt": -1, "trial_type": "single-stim", "word": "seafood", "stimulus": "<p id=\"stim\">SEAFOOD</p>", "conditions": [24, 1600, "v", 24000], "internal_node_id": "0.0-138.0", "trial": 5, "time_elapsed": 903933, "serialpos": 7, "key_press": -1, "wordID": 1259, "type": "PRES_VIS", "trial_index": 192}, "uniqueid": "MTK3533:392CY0QWG2YWMNKTWPBCE2AEDDM4I8", "dateTime": 1520786933450}, {"current_trial": 193, "trialdata": {"rt": -1, "trial_type": "single-stim", "word": "airport", "stimulus": "<p id=\"stim\">AIRPORT</p>", "conditions": [24, 1600, "v", 24000], "internal_node_id": "0.0-139.0", "trial": 5, "time_elapsed": 906588, "serialpos": 8, "key_press": -1, "wordID": 12, "type": "PRES_VIS", "trial_index": 193}, "uniqueid": "MTK3533:392CY0QWG2YWMNKTWPBCE2AEDDM4I8", "dateTime": 1520786936105}, {"current_trial": 194, "trialdata": {"rt": -1, "trial_type": "single-stim", "word": "burglar", "stimulus": "<p id=\"stim\">BURGLAR</p>", "conditions": [24, 1600, "v", 24000], "internal_node_id": "0.0-140.0", "trial": 5, "time_elapsed": 909030, "serialpos": 9, "key_press": -1, "wordID": 199, "type": "PRES_VIS", "trial_index": 194}, "uniqueid": "MTK3533:392CY0QWG2YWMNKTWPBCE2AEDDM4I8", "dateTime": 1520786938548}, {"current_trial": 195, "trialdata": {"rt": -1, "trial_type": "single-stim", "word": "flipper", "stimulus": "<p id=\"stim\">FLIPPER</p>", "conditions": [24, 1600, "v", 24000], "internal_node_id": "0.0-141.0", "trial": 5, "time_elapsed": 911781, "serialpos": 10, "key_press": -1, "wordID": 579, "type": "PRES_VIS", "trial_index": 195}, "uniqueid": "MTK3533:392CY0QWG2YWMNKTWPBCE2AEDDM4I8", "dateTime": 1520786941298}, {"current_trial": 196, "trialdata": {"rt": -1, "trial_type": "single-stim", "word": "freckle", "stimulus": "<p id=\"stim\">FRECKLE</p>", "conditions": [24, 1600, "v", 24000], "internal_node_id": "0.0-142.0", "trial": 5, "time_elapsed": 914378, "serialpos": 11, "key_press": -1, "wordID": 601, "type": "PRES_VIS", "trial_index": 196}, "uniqueid": "MTK3533:392CY0QWG2YWMNKTWPBCE2AEDDM4I8", "dateTime": 1520786943895}, {"current_trial": 197, "trialdata": {"rt": -1, "trial_type": "single-stim", "word": "snake", "stimulus": "<p id=\"stim\">SNAKE</p>", "conditions": [24, 1600, "v", 24000], "internal_node_id": "0.0-143.0", "trial": 5, "time_elapsed": 917045, "serialpos": 12, "key_press": -1, "wordID": 1332, "type": "PRES_VIS", "trial_index": 197}, "uniqueid": "MTK3533:392CY0QWG2YWMNKTWPBCE2AEDDM4I8", "dateTime": 1520786946562}, {"current_trial": 198, "trialdata": {"rt": 216, "trial_type": "single-stim", "word": "box", "stimulus": "<p id=\"stim\">BOX</p>", "conditions": [24, 1600, "v", 24000], "internal_node_id": "0.0-144.0", "trial": 5, "time_elapsed": 919488, "serialpos": 13, "key_press": 13, "wordID": 158, "type": "PRES_VIS", "trial_index": 198}, "uniqueid": "MTK3533:392CY0QWG2YWMNKTWPBCE2AEDDM4I8", "dateTime": 1520786949005}, {"current_trial": 199, "trialdata": {"rt": -1, "trial_type": "single-stim", "word": "pimple", "stimulus": "<p id=\"stim\">PIMPLE</p>", "conditions": [24, 1600, "v", 24000], "internal_node_id": "0.0-145.0", "trial": 5, "time_elapsed": 922124, "serialpos": 14, "key_press": -1, "wordID": 1070, "type": "PRES_VIS", "trial_index": 199}, "uniqueid": "MTK3533:392CY0QWG2YWMNKTWPBCE2AEDDM4I8", "dateTime": 1520786951641}, {"current_trial": 200, "trialdata": {"rt": -1, "trial_type": "single-stim", "word": "stone", "stimulus": "<p id=\"stim\">STONE</p>", "conditions": [24, 1600, "v", 24000], "internal_node_id": "0.0-146.0", "trial": 5, "time_elapsed": 924585, "serialpos": 15, "key_press": -1, "wordID": 1384, "type": "PRES_VIS", "trial_index": 200}, "uniqueid": "MTK3533:392CY0QWG2YWMNKTWPBCE2AEDDM4I8", "dateTime": 1520786954102}, {"current_trial": 201, "trialdata": {"rt": -1, "trial_type": "single-stim", "word": "brick", "stimulus": "<p id=\"stim\">BRICK</p>", "conditions": [24, 1600, "v", 24000], "internal_node_id": "0.0-147.0", "trial": 5, "time_elapsed": 927291, "serialpos": 16, "key_press": -1, "wordID": 171, "type": "PRES_VIS", "trial_index": 201}, "uniqueid": "MTK3533:392CY0QWG2YWMNKTWPBCE2AEDDM4I8", "dateTime": 1520786956808}, {"current_trial": 202, "trialdata": {"rt": -1, "trial_type": "single-stim", "word": "termite", "stimulus": "<p id=\"stim\">TERMITE</p>", "conditions": [24, 1600, "v", 24000], "internal_node_id": "0.0-148.0", "trial": 5, "time_elapsed": 929995, "serialpos": 17, "key_press": -1, "wordID": 1450, "type": "PRES_VIS", "trial_index": 202}, "uniqueid": "MTK3533:392CY0QWG2YWMNKTWPBCE2AEDDM4I8", "dateTime": 1520786959512}, {"current_trial": 203, "trialdata": {"rt": -1, "trial_type": "single-stim", "word": "orchid", "stimulus": "<p id=\"stim\">ORCHID</p>", "conditions": [24, 1600, "v", 24000], "internal_node_id": "0.0-149.0", "trial": 5, "time_elapsed": 932665, "serialpos": 18, "key_press": -1, "wordID": 981, "type": "PRES_VIS", "trial_index": 203}, "uniqueid": "MTK3533:392CY0QWG2YWMNKTWPBCE2AEDDM4I8", "dateTime": 1520786962182}, {"current_trial": 204, "trialdata": {"rt": -1, "trial_type": "single-stim", "word": "garbage", "stimulus": "<p id=\"stim\">GARBAGE</p>", "conditions": [24, 1600, "v", 24000], "internal_node_id": "0.0-150.0", "trial": 5, "time_elapsed": 935346, "serialpos": 19, "key_press": -1, "wordID": 621, "type": "PRES_VIS", "trial_index": 204}, "uniqueid": "MTK3533:392CY0QWG2YWMNKTWPBCE2AEDDM4I8", "dateTime": 1520786964863}, {"current_trial": 205, "trialdata": {"rt": -1, "trial_type": "single-stim", "word": "flower", "stimulus": "<p id=\"stim\">FLOWER</p>", "conditions": [24, 1600, "v", 24000], "internal_node_id": "0.0-151.0", "trial": 5, "time_elapsed": 938026, "serialpos": 20, "key_press": -1, "wordID": 583, "type": "PRES_VIS", "trial_index": 205}, "uniqueid": "MTK3533:392CY0QWG2YWMNKTWPBCE2AEDDM4I8", "dateTime": 1520786967543}, {"current_trial": 206, "trialdata": {"rt": -1, "trial_type": "single-stim", "word": "candy", "stimulus": "<p id=\"stim\">CANDY</p>", "conditions": [24, 1600, "v", 24000], "internal_node_id": "0.0-152.0", "trial": 5, "time_elapsed": 940620, "serialpos": 21, "key_press": -1, "wordID": 229, "type": "PRES_VIS", "trial_index": 206}, "uniqueid": "MTK3533:392CY0QWG2YWMNKTWPBCE2AEDDM4I8", "dateTime": 1520786970137}, {"current_trial": 207, "trialdata": {"rt": -1, "trial_type": "single-stim", "word": "garden", "stimulus": "<p id=\"stim\">GARDEN</p>", "conditions": [24, 1600, "v", 24000], "internal_node_id": "0.0-153.0", "trial": 5, "time_elapsed": 943256, "serialpos": 22, "key_press": -1, "wordID": 622, "type": "PRES_VIS", "trial_index": 207}, "uniqueid": "MTK3533:392CY0QWG2YWMNKTWPBCE2AEDDM4I8", "dateTime": 1520786972774}, {"current_trial": 208, "trialdata": {"rt": -1, "trial_type": "single-stim", "word": "crayon", "stimulus": "<p id=\"stim\">CRAYON</p>", "conditions": [24, 1600, "v", 24000], "internal_node_id": "0.0-154.0", "trial": 5, "time_elapsed": 945982, "serialpos": 23, "key_press": -1, "wordID": 400, "type": "PRES_VIS", "trial_index": 208}, "uniqueid": "MTK3533:392CY0QWG2YWMNKTWPBCE2AEDDM4I8", "dateTime": 1520786975499}, {"current_trial": 209, "trialdata": {"rt": -1, "trial_type": "single-stim", "stimulus": "", "internal_node_id": "0.0-155.0-0.0", "time_elapsed": 948429, "key_press": -1, "type": "PRE_RECALL_DELAY", "trial_index": 209}, "uniqueid": "MTK3533:392CY0QWG2YWMNKTWPBCE2AEDDM4I8", "dateTime": 1520786977946}, {"current_trial": 210, "trialdata": {"rt": -1000, "trial_type": "single-audio", "stimulus": "/static/audio/400Hz.wav", "internal_node_id": "0.0-156.0", "time_elapsed": 948929, "key_press": -1, "type": "PRE_RECALL_ALERT", "trial_index": 210}, "uniqueid": "MTK3533:392CY0QWG2YWMNKTWPBCE2AEDDM4I8", "dateTime": 1520786978447}, {"current_trial": 211, "trialdata": {"rt": [4684, 7956, 13373, 17452, 33739, 48242, 51275], "recwords": ["france", "pastry", "statue", "theif", "broken", "rabbit", "bunny"], "key_times": [1356, 1628, 1868, 2116, 2636, 3101, 3429, 4684, 5332, 5832, 5860, 6116, 6444, 6836, 7124, 7404, 7956, 9164, 9665, 9698, 9729, 9763, 9796, 9829, 9863, 9895, 9928, 9949, 10620, 11204, 12117, 12604, 12932, 13373, 14788, 15288, 15321, 15353, 15386, 15419, 15453, 15485, 15519, 15532, 16141, 16492, 16900, 17284, 17452, 19172, 19671, 19703, 19736, 19770, 19803, 19835, 19869, 19902, 19934, 19968, 20000, 20034, 20067, 20099, 20133, 20166, 20199, 20231, 20265, 20297, 20331, 20364, 20398, 20431, 20463, 20498, 20531, 20563, 20597, 20629, 20662, 20695, 20727, 20760, 20794, 20826, 20859, 20894, 20926, 20959, 20992, 21024, 21057, 21090, 21124, 21157, 21190, 21222, 21256, 21288, 21322, 21355, 21388, 21421, 21453, 21486, 21520, 21553, 21585, 21618, 21652, 21684, 21717, 21750, 21784, 21817, 21850, 21883, 21916, 21949, 21982, 22019, 22048, 22080, 22113, 22147, 22179, 22213, 22245, 22278, 22311, 22343, 22377, 22411, 22443, 22476, 22510, 22543, 22575, 22609, 22641, 22675, 22708, 22741, 22772, 22807, 22839, 22873, 22904, 22938, 22972, 23003, 23037, 23071, 23102, 23136, 23169, 23203, 23235, 23268, 23301, 23335, 23368, 23400, 23432, 23467, 23500, 23531, 23566, 23599, 23630, 23664, 23697, 23731, 23762, 23797, 23829, 23863, 23894, 23928, 23961, 23994, 24028, 24061, 24092, 24127, 24159, 24193, 24226, 24258, 24291, 24323, 24356, 24391, 24423, 24455, 24490, 24522, 24554, 24588, 24621, 24654, 24688, 24719, 24752, 24785, 24819, 24853, 24886, 24919, 24951, 24985, 25018, 25051, 25083, 25116, 25149, 25183, 25216, 25247, 25281, 25313, 25348, 25381, 25413, 25445, 25479, 25513, 25546, 25579, 25610, 25644, 25678, 25711, 25743, 25775, 25810, 25842, 25875, 25908, 25940, 25974, 26007, 26040, 26072, 26107, 26139, 26171, 27027, 27528, 27560, 27594, 27627, 27660, 27693, 27725, 27758, 27792, 27825, 27857, 27890, 27923, 27957, 27989, 28023, 28056, 28089, 28122, 28155, 28188, 28221, 28253, 28285, 28320, 28352, 28384, 28418, 28451, 28485, 28517, 28550, 28583, 28617, 28649, 28683, 28716, 28748, 28782, 28815, 28848, 28881, 28913, 28946, 28980, 29013, 29045, 29078, 29112, 29145, 29177, 29211, 29244, 29277, 29308, 31340, 31668, 31931, 32300, 32692, 33739, 34387, 34842, 35579, 36259, 36434, 36939, 37378, 37578, 41803, 42051, 47252, 48242, 48850, 49251, 49650, 50322, 50490, 50819, 51275], "trial_type": "free-recall", "conditions": [24, 1600, "v", 24000], "internal_node_id": "0.0-157.0-0.0", "key_presses": [16, 70, 82, 65, 78, 67, 69, 13, 16, 16, 80, 65, 83, 84, 82, 89, 13, 16, 16, 16, 16, 16, 16, 16, 16, 16, 16, 83, 84, 65, 84, 85, 69, 13, 16, 16, 16, 16, 16, 16, 16, 16, 16, 84, 72, 69, 73, 70, 13, 16, 16, 16, 16, 16, 16, 16, 16, 16, 16, 16, 16, 16, 16, 16, 16, 16, 16, 16, 16, 16, 16, 16, 16, 16, 16, 16, 16, 16, 16, 16, 16, 16, 16, 16, 16, 16, 16, 16, 16, 16, 16, 16, 16, 16, 16, 16, 16, 16, 16, 16, 16, 16, 16, 16, 16, 16, 16, 16, 16, 16, 16, 16, 16, 16, 16, 16, 16, 16, 16, 16, 16, 16, 16, 16, 16, 16, 16, 16, 16, 16, 16, 16, 16, 16, 16, 16, 16, 16, 16, 16, 16, 16, 16, 16, 16, 16, 16, 16, 16, 16, 16, 16, 16, 16, 16, 16, 16, 16, 16, 16, 16, 16, 16, 16, 16, 16, 16, 16, 16, 16, 16, 16, 16, 16, 16, 16, 16, 16, 16, 16, 16, 16, 16, 16, 16, 16, 16, 16, 16, 16, 16, 16, 16, 16, 16, 16, 16, 16, 16, 16, 16, 16, 16, 16, 16, 16, 16, 16, 16, 16, 16, 16, 16, 16, 16, 16, 16, 16, 16, 16, 16, 16, 16, 16, 16, 16, 16, 16, 16, 16, 16, 16, 16, 16, 16, 16, 16, 16, 16, 16, 16, 16, 16, 16, 16, 16, 16, 16, 16, 16, 16, 16, 16, 16, 16, 16, 16, 16, 16, 16, 16, 16, 16, 16, 16, 16, 16, 16, 16, 16, 16, 16, 16, 16, 16, 16, 16, 16, 16, 16, 16, 16, 16, 16, 16, 16, 16, 16, 16, 16, 16, 16, 16, 16, 16, 16, 16, 16, 16, 16, 16, 16, 16, 66, 82, 79, 75, 69, 78, 13, 16, 82, 79, 66, 66, 73, 84, 84, 8, 65, 8, 13, 16, 66, 85, 78, 78, 89, 13], "trial": 5, "time_elapsed": 1008931, "type": "FREE_RECALL", "trial_index": 211}, "uniqueid": "MTK3533:392CY0QWG2YWMNKTWPBCE2AEDDM4I8", "dateTime": 1520787038455}, {"current_trial": 212, "trialdata": {"rt": 2053, "trial_type": "text", "internal_node_id": "0.0-158.0", "time_elapsed": 1012991, "key_press": 13, "type": "INSTRUCTIONS", "trial_index": 212}, "uniqueid": "MTK3533:392CY0QWG2YWMNKTWPBCE2AEDDM4I8", "dateTime": 1520787042508}, {"current_trial": 213, "trialdata": {"rt": [3938, 6002, 8587], "trial_type": "math-distractor", "key_times": [2843, 3275, 3938, 5210, 5778, 6002, 7756, 8404, 8587, 11948], "responses": ["13", "14", "14"], "num2": [3, 9, 4, 7], "num3": [6, 4, 9, 9], "conditions": [24, 1600, "v", 12000], "internal_node_id": "0.0-159.0", "key_presses": [49, 51, 13, 49, 52, 13, 49, 52, 13, 50], "trial": 6, "time_elapsed": 1026995, "type": "DISTRACTOR", "trial_index": 213, "num1": [4, 1, 1, 8]}, "uniqueid": "MTK3533:392CY0QWG2YWMNKTWPBCE2AEDDM4I8", "dateTime": 1520787056514}, {"current_trial": 214, "trialdata": {"rt": -1, "trial_type": "single-stim", "stimulus": "<p id=\"stim\">10</p>", "internal_node_id": "0.0-160.0-0.0", "time_elapsed": 1030000, "key_press": -1, "trial_index": 214}, "uniqueid": "MTK3533:392CY0QWG2YWMNKTWPBCE2AEDDM4I8", "dateTime": 1520787059518}, {"current_trial": 215, "trialdata": {"rt": -1, "trial_type": "single-stim", "stimulus": "<p id=\"stim\">9</p>", "internal_node_id": "0.0-160.0-1.0", "time_elapsed": 1031001, "key_press": -1, "trial_index": 215}, "uniqueid": "MTK3533:392CY0QWG2YWMNKTWPBCE2AEDDM4I8", "dateTime": 1520787060519}, {"current_trial": 216, "trialdata": {"rt": -1, "trial_type": "single-stim", "stimulus": "<p id=\"stim\">8</p>", "internal_node_id": "0.0-160.0-2.0", "time_elapsed": 1032004, "key_press": -1, "trial_index": 216}, "uniqueid": "MTK3533:392CY0QWG2YWMNKTWPBCE2AEDDM4I8", "dateTime": 1520787061521}, {"current_trial": 217, "trialdata": {"rt": -1, "trial_type": "single-stim", "stimulus": "<p id=\"stim\">7</p>", "internal_node_id": "0.0-160.0-3.0", "time_elapsed": 1033004, "key_press": -1, "trial_index": 217}, "uniqueid": "MTK3533:392CY0QWG2YWMNKTWPBCE2AEDDM4I8", "dateTime": 1520787062522}, {"current_trial": 218, "trialdata": {"rt": -1, "trial_type": "single-stim", "stimulus": "<p id=\"stim\">6</p>", "internal_node_id": "0.0-160.0-4.0", "time_elapsed": 1034007, "key_press": -1, "trial_index": 218}, "uniqueid": "MTK3533:392CY0QWG2YWMNKTWPBCE2AEDDM4I8", "dateTime": 1520787063524}, {"current_trial": 219, "trialdata": {"rt": -1, "trial_type": "single-stim", "stimulus": "<p id=\"stim\">5</p>", "internal_node_id": "0.0-160.0-5.0", "time_elapsed": 1035008, "key_press": -1, "trial_index": 219}, "uniqueid": "MTK3533:392CY0QWG2YWMNKTWPBCE2AEDDM4I8", "dateTime": 1520787064526}, {"current_trial": 220, "trialdata": {"rt": -1, "trial_type": "single-stim", "stimulus": "<p id=\"stim\">4</p>", "internal_node_id": "0.0-160.0-6.0", "time_elapsed": 1036010, "key_press": -1, "trial_index": 220}, "uniqueid": "MTK3533:392CY0QWG2YWMNKTWPBCE2AEDDM4I8", "dateTime": 1520787065528}, {"current_trial": 221, "trialdata": {"rt": -1, "trial_type": "single-stim", "stimulus": "<p id=\"stim\">3</p>", "internal_node_id": "0.0-160.0-7.0", "time_elapsed": 1037012, "key_press": -1, "trial_index": 221}, "uniqueid": "MTK3533:392CY0QWG2YWMNKTWPBCE2AEDDM4I8", "dateTime": 1520787066529}, {"current_trial": 222, "trialdata": {"rt": -1, "trial_type": "single-stim", "stimulus": "<p id=\"stim\">2</p>", "internal_node_id": "0.0-160.0-8.0", "time_elapsed": 1038013, "key_press": -1, "trial_index": 222}, "uniqueid": "MTK3533:392CY0QWG2YWMNKTWPBCE2AEDDM4I8", "dateTime": 1520787067531}, {"current_trial": 223, "trialdata": {"rt": -1, "trial_type": "single-stim", "stimulus": "<p id=\"stim\">1</p>", "internal_node_id": "0.0-160.0-9.0", "time_elapsed": 1039015, "key_press": -1, "trial_index": 223}, "uniqueid": "MTK3533:392CY0QWG2YWMNKTWPBCE2AEDDM4I8", "dateTime": 1520787068533}, {"current_trial": 224, "trialdata": {"rt": -1, "trial_type": "single-stim", "stimulus": "<p id=\"stim\">+</p>", "internal_node_id": "0.0-161.0-0.0", "time_elapsed": 1040517, "key_press": -1, "type": "FIXATION", "trial_index": 224}, "uniqueid": "MTK3533:392CY0QWG2YWMNKTWPBCE2AEDDM4I8", "dateTime": 1520787070034}, {"current_trial": 225, "trialdata": {"rt": -1, "trial_type": "single-stim", "word": "turkey", "stimulus": "<p id=\"stim\">TURKEY</p>", "conditions": [24, 1600, "v", 12000], "internal_node_id": "0.0-162.0", "trial": 6, "time_elapsed": 1042118, "serialpos": 0, "key_press": -1, "wordID": 1519, "type": "PRES_VIS", "trial_index": 225}, "uniqueid": "MTK3533:392CY0QWG2YWMNKTWPBCE2AEDDM4I8", "dateTime": 1520787071635}, {"current_trial": 226, "trialdata": {"rt": -1, "trial_type": "single-stim", "word": "quail", "stimulus": "<p id=\"stim\">QUAIL</p>", "conditions": [24, 1600, "v", 12000], "internal_node_id": "0.0-163.0", "trial": 6, "time_elapsed": 1044682, "serialpos": 1, "key_press": -1, "wordID": 1146, "type": "PRES_VIS", "trial_index": 226}, "uniqueid": "MTK3533:392CY0QWG2YWMNKTWPBCE2AEDDM4I8", "dateTime": 1520787074199}, {"current_trial": 227, "trialdata": {"rt": -1, "trial_type": "single-stim", "word": "shrub", "stimulus": "<p id=\"stim\">SHRUB</p>", "conditions": [24, 1600, "v", 1