{"assignmentId": "3C5W7UE9CGX9G8YU1FB936ETMTBMX8", "workerId": "MTK3172", "questiondata": {"origin": "United States", "strat-rehearsal": "70", "marital": "Married/Domestic Partnership", "education": "Bachelor's degree", "ethnicity": "Not Hispanic", "color_depth": 24, "distracted": "No", "wrote-notes": "Yes", "strat-other": "", "screen_width": 1920, "avail_screen_width": 1920, "avail_screen_height": 1080, "strat-image": "38", "language": "English", "gender": "Male", "age": "38", "gender_other": "", "race": ["White"], "strat-categorize": "26", "pixel_depth": 24, "strat-spatial": "2", "strat-story": "81", "race_other": "", "screen_height": 1080}, "bonus": 0, "hitId": "37ZQELHEQ052HUMW97JYGKRB0K7MN9", "counterbalance": 64, "useragent": "Mozilla/5.0 (X11; Linux x86_64) AppleWebKit/537.36 (KHTML, like Gecko) Chrome/64.0.3282.186 Safari/537.36", "eventdata": [{"eventtype": "initialized", "interval": 0, "value": null, "timestamp": 1520113370832}, {"eventtype": "window_resize", "interval": 0, "value": [1920, 1024], "timestamp": 1520113370832}, {"eventtype": "focus", "interval": 5130, "value": "off", "timestamp": 1520113375962}, {"eventtype": "focus", "interval": 3975, "value": "on", "timestamp": 1520113379937}, {"eventtype": "focus", "interval": 43543, "value": "off", "timestamp": 1520113423480}, {"eventtype": "focus", "interval": 1, "value": "on", "timestamp": 1520113423481}, {"eventtype": "window_resize", "interval": 4440, "value": [1920, 975], "timestamp": 1520113427921}, {"eventtype": "focus", "interval": 6434, "value": "off", "timestamp": 1520113434355}, {"eventtype": "focus", "interval": 2382, "value": "on", "timestamp": 1520113436737}, {"eventtype": "window_resize", "interval": 1896, "value": [1920, 1024], "timestamp": 1520113438633}, {"eventtype": "focus", "interval": 5383, "value": "off", "timestamp": 1520113444016}, {"eventtype": "focus", "interval": 15013, "value": "on", "timestamp": 1520113459029}, {"eventtype": "focus", "interval": 1916185, "value": "off", "timestamp": 1520115375214}, {"eventtype": "focus", "interval": 133, "value": "on", "timestamp": 1520115375347}, {"eventtype": "focus", "interval": 1012508, "value": "off", "timestamp": 1520116387855}, {"eventtype": "focus", "interval": 24207, "value": "on", "timestamp": 1520116412062}], "data": [{"current_trial": 0, "trialdata": {"rt": 2494, "trial_type": "text", "internal_node_id": "0.0-0.0", "time_elapsed": 2496, "key_press": 13, "type": "INSTRUCTIONS", "trial_index": 0}, "uniqueid": "MTK3172:3C5W7UE9CGX9G8YU1FB936ETMTBMX8", "dateTime": 1520113382828}, {"current_trial": 1, "trialdata": {"rt": 22310, "trial_type": "text", "internal_node_id": "0.0-1.0", "time_elapsed": 24809, "key_press": 13, "type": "INSTRUCTIONS", "trial_index": 1}, "uniqueid": "MTK3172:3C5W7UE9CGX9G8YU1FB936ETMTBMX8", "dateTime": 1520113405141}, {"current_trial": 2, "trialdata": {"rt": [15924, 56680], "trial_type": "audio-test", "responses": ["oh", "ocean"], "internal_node_id": "0.0-2.0", "time_elapsed": 81515, "type": "AUDIO_TEST", "trial_index": 2}, "uniqueid": "MTK3172:3C5W7UE9CGX9G8YU1FB936ETMTBMX8", "dateTime": 1520113461847}, {"current_trial": 3, "trialdata": {"rt": [9959], "trial_type": "audio-test", "responses": ["crystal"], "internal_node_id": "0.0-3.0", "time_elapsed": 91482, "type": "AUDIO_TEST", "trial_index": 3}, "uniqueid": "MTK3172:3C5W7UE9CGX9G8YU1FB936ETMTBMX8", "dateTime": 1520113471815}, {"current_trial": 4, "trialdata": {"rt": [7981], "trial_type": "audio-test", "responses": ["spice"], "internal_node_id": "0.0-4.0", "time_elapsed": 99469, "type": "AUDIO_TEST", "trial_index": 4}, "uniqueid": "MTK3172:3C5W7UE9CGX9G8YU1FB936ETMTBMX8", "dateTime": 1520113479801}, {"current_trial": 5, "trialdata": {"rt": 22940, "trial_type": "survey-text", "responses": "{\"Q0\":\"9:30PM\",\"Q1\":\"6:30AM\",\"Q2\":\"4\"}", "internal_node_id": "0.0-5.0", "time_elapsed": 123163, "type": "SLEEP_SURVEY", "trial_index": 5}, "uniqueid": "MTK3172:3C5W7UE9CGX9G8YU1FB936ETMTBMX8", "dateTime": 1520113503496}, {"current_trial": 6, "trialdata": {"rt": 39976, "trial_type": "text", "internal_node_id": "0.0-6.0", "time_elapsed": 164140, "key_press": 13, "type": "INSTRUCTIONS", "trial_index": 6}, "uniqueid": "MTK3172:3C5W7UE9CGX9G8YU1FB936ETMTBMX8", "dateTime": 1520113544472}, {"current_trial": 7, "trialdata": {"rt": 14072, "trial_type": "text", "internal_node_id": "0.0-7.0", "time_elapsed": 178714, "key_press": 13, "type": "INSTRUCTIONS", "trial_index": 7}, "uniqueid": "MTK3172:3C5W7UE9CGX9G8YU1FB936ETMTBMX8", "dateTime": 1520113559046}, {"current_trial": 8, "trialdata": {"rt": 5220, "trial_type": "text", "internal_node_id": "0.0-8.0", "time_elapsed": 184436, "key_press": 13, "type": "INSTRUCTIONS", "trial_index": 8}, "uniqueid": "MTK3172:3C5W7UE9CGX9G8YU1FB936ETMTBMX8", "dateTime": 1520113564768}, {"current_trial": 9, "trialdata": {"rt": [2617, 4299, 7059, 9934, 13429, 16887], "trial_type": "math-distractor", "key_times": [2023, 2149, 2617, 4020, 4299, 6655, 6776, 7059, 9180, 9599, 9934, 13025, 13135, 13429, 15939, 16116, 16887], "responses": ["13", "5", "13", "11", "16", "19"], "num2": [5, 1, 2, 3, 6, 3, 3], "num3": [5, 3, 4, 7, 5, 8, 8], "conditions": [18, 1200, "a", 18000], "internal_node_id": "0.0-9.0", "key_presses": [97, 99, 13, 101, 13, 97, 99, 13, 97, 97, 13, 97, 102, 13, 97, 105, 13], "trial": 0, "time_elapsed": 203450, "type": "DISTRACTOR", "trial_index": 9, "num1": [3, 1, 7, 1, 5, 8, 4]}, "uniqueid": "MTK3172:3C5W7UE9CGX9G8YU1FB936ETMTBMX8", "dateTime": 1520113583782}, {"current_trial": 10, "trialdata": {"rt": -1, "trial_type": "single-stim", "stimulus": "<p id=\"stim\">10</p>", "internal_node_id": "0.0-10.0-0.0", "time_elapsed": 206452, "key_press": -1, "trial_index": 10}, "uniqueid": "MTK3172:3C5W7UE9CGX9G8YU1FB936ETMTBMX8", "dateTime": 1520113586784}, {"current_trial": 11, "trialdata": {"rt": -1, "trial_type": "single-stim", "stimulus": "<p id=\"stim\">9</p>", "internal_node_id": "0.0-10.0-1.0", "time_elapsed": 207454, "key_press": -1, "trial_index": 11}, "uniqueid": "MTK3172:3C5W7UE9CGX9G8YU1FB936ETMTBMX8", "dateTime": 1520113587786}, {"current_trial": 12, "trialdata": {"rt": -1, "trial_type": "single-stim", "stimulus": "<p id=\"stim\">8</p>", "internal_node_id": "0.0-10.0-2.0", "time_elapsed": 208455, "key_press": -1, "trial_index": 12}, "uniqueid": "MTK3172:3C5W7UE9CGX9G8YU1FB936ETMTBMX8", "dateTime": 1520113588787}, {"current_trial": 13, "trialdata": {"rt": -1, "trial_type": "single-stim", "stimulus": "<p id=\"stim\">7</p>", "internal_node_id": "0.0-10.0-3.0", "time_elapsed": 209456, "key_press": -1, "trial_index": 13}, "uniqueid": "MTK3172:3C5W7UE9CGX9G8YU1FB936ETMTBMX8", "dateTime": 1520113589788}, {"current_trial": 14, "trialdata": {"rt": -1, "trial_type": "single-stim", "stimulus": "<p id=\"stim\">6</p>", "internal_node_id": "0.0-10.0-4.0", "time_elapsed": 210457, "key_press": -1, "trial_index": 14}, "uniqueid": "MTK3172:3C5W7UE9CGX9G8YU1FB936ETMTBMX8", "dateTime": 1520113590789}, {"current_trial": 15, "trialdata": {"rt": -1, "trial_type": "single-stim", "stimulus": "<p id=\"stim\">5</p>", "internal_node_id": "0.0-10.0-5.0", "time_elapsed": 211458, "key_press": -1, "trial_index": 15}, "uniqueid": "MTK3172:3C5W7UE9CGX9G8YU1FB936ETMTBMX8", "dateTime": 1520113591790}, {"current_trial": 16, "trialdata": {"rt": -1, "trial_type": "single-stim", "stimulus": "<p id=\"stim\">4</p>", "internal_node_id": "0.0-10.0-6.0", "time_elapsed": 212460, "key_press": -1, "trial_index": 16}, "uniqueid": "MTK3172:3C5W7UE9CGX9G8YU1FB936ETMTBMX8", "dateTime": 1520113592792}, {"current_trial": 17, "trialdata": {"rt": -1, "trial_type": "single-stim", "stimulus": "<p id=\"stim\">3</p>", "internal_node_id": "0.0-10.0-7.0", "time_elapsed": 213460, "key_press": -1, "trial_index": 17}, "uniqueid": "MTK3172:3C5W7UE9CGX9G8YU1FB936ETMTBMX8", "dateTime": 1520113593792}, {"current_trial": 18, "trialdata": {"rt": -1, "trial_type": "single-stim", "stimulus": "<p id=\"stim\">2</p>", "internal_node_id": "0.0-10.0-8.0", "time_elapsed": 214462, "key_press": -1, "trial_index": 18}, "uniqueid": "MTK3172:3C5W7UE9CGX9G8YU1FB936ETMTBMX8", "dateTime": 1520113594795}, {"current_trial": 19, "trialdata": {"rt": -1, "trial_type": "single-stim", "stimulus": "<p id=\"stim\">1</p>", "internal_node_id": "0.0-10.0-9.0", "time_elapsed": 215463, "key_press": -1, "trial_index": 19}, "uniqueid": "MTK3172:3C5W7UE9CGX9G8YU1FB936ETMTBMX8", "dateTime": 1520113595795}, {"current_trial": 20, "trialdata": {"rt": -1, "trial_type": "single-stim", "stimulus": "<p id=\"stim\">+</p>", "internal_node_id": "0.0-11.0-0.0", "time_elapsed": 216965, "key_press": -1, "type": "FIXATION", "trial_index": 20}, "uniqueid": "MTK3172:3C5W7UE9CGX9G8YU1FB936ETMTBMX8", "dateTime": 1520113597297}, {"current_trial": 21, "trialdata": {"rt": -1000, "trial_type": "single-audio", "word": "playground", "stimulus": "/static/audio/wordpool/PLAYGROUND.wav", "conditions": [18, 1200, "a", 18000], "internal_node_id": "0.0-12.0", "trial": 0, "time_elapsed": 219146, "serialpos": 0, "key_press": -1, "wordID": 1086, "type": "PRES_AUD", "trial_index": 21}, "uniqueid": "MTK3172:3C5W7UE9CGX9G8YU1FB936ETMTBMX8", "dateTime": 1520113599478}, {"current_trial": 22, "trialdata": {"rt": -1000, "trial_type": "single-audio", "word": "seagull", "stimulus": "/static/audio/wordpool/SEAGULL.wav", "conditions": [18, 1200, "a", 18000], "internal_node_id": "0.0-13.0", "trial": 0, "time_elapsed": 221539, "serialpos": 1, "key_press": -1, "wordID": 1260, "type": "PRES_AUD", "trial_index": 22}, "uniqueid": "MTK3172:3C5W7UE9CGX9G8YU1FB936ETMTBMX8", "dateTime": 1520113601872}, {"current_trial": 23, "trialdata": {"rt": -1000, "trial_type": "single-audio", "word": "friend", "stimulus": "/static/audio/wordpool/FRIEND.wav", "conditions": [18, 1200, "a", 18000], "internal_node_id": "0.0-14.0", "trial": 0, "time_elapsed": 223759, "serialpos": 2, "key_press": -1, "wordID": 605, "type": "PRES_AUD", "trial_index": 23}, "uniqueid": "MTK3172:3C5W7UE9CGX9G8YU1FB936ETMTBMX8", "dateTime": 1520113604091}, {"current_trial": 24, "trialdata": {"rt": -1000, "trial_type": "single-audio", "word": "crown", "stimulus": "/static/audio/wordpool/CROWN.wav", "conditions": [18, 1200, "a", 18000], "internal_node_id": "0.0-15.0", "trial": 0, "time_elapsed": 226095, "serialpos": 3, "key_press": -1, "wordID": 414, "type": "PRES_AUD", "trial_index": 24}, "uniqueid": "MTK3172:3C5W7UE9CGX9G8YU1FB936ETMTBMX8", "dateTime": 1520113606427}, {"current_trial": 25, "trialdata": {"rt": -1000, "trial_type": "single-audio", "word": "lodge", "stimulus": "/static/audio/wordpool/LODGE.wav", "conditions": [18, 1200, "a", 18000], "internal_node_id": "0.0-16.0", "trial": 0, "time_elapsed": 228385, "serialpos": 4, "key_press": -1, "wordID": 838, "type": "PRES_AUD", "trial_index": 25}, "uniqueid": "MTK3172:3C5W7UE9CGX9G8YU1FB936ETMTBMX8", "dateTime": 1520113608717}, {"current_trial": 26, "trialdata": {"rt": -1000, "trial_type": "single-audio", "word": "ointment", "stimulus": "/static/audio/wordpool/OINTMENT.wav", "conditions": [18, 1200, "a", 18000], "internal_node_id": "0.0-17.0", "trial": 0, "time_elapsed": 230480, "serialpos": 5, "key_press": -1, "wordID": 973, "type": "PRES_AUD", "trial_index": 26}, "uniqueid": "MTK3172:3C5W7UE9CGX9G8YU1FB936ETMTBMX8", "dateTime": 1520113610812}, {"current_trial": 27, "trialdata": {"rt": -1000, "trial_type": "single-audio", "word": "grill", "stimulus": "/static/audio/wordpool/GRILL.wav", "conditions": [18, 1200, "a", 18000], "internal_node_id": "0.0-18.0", "trial": 0, "time_elapsed": 232563, "serialpos": 6, "key_press": -1, "wordID": 660, "type": "PRES_AUD", "trial_index": 27}, "uniqueid": "MTK3172:3C5W7UE9CGX9G8YU1FB936ETMTBMX8", "dateTime": 1520113612895}, {"current_trial": 28, "trialdata": {"rt": -1000, "trial_type": "single-audio", "word": "cabin", "stimulus": "/static/audio/wordpool/CABIN.wav", "conditions": [18, 1200, "a", 18000], "internal_node_id": "0.0-19.0", "trial": 0, "time_elapsed": 234687, "serialpos": 7, "key_press": -1, "wordID": 210, "type": "PRES_AUD", "trial_index": 28}, "uniqueid": "MTK3172:3C5W7UE9CGX9G8YU1FB936ETMTBMX8", "dateTime": 1520113615019}, {"current_trial": 29, "trialdata": {"rt": -1000, "trial_type": "single-audio", "word": "lightning", "stimulus": "/static/audio/wordpool/LIGHTNING.wav", "conditions": [18, 1200, "a", 18000], "internal_node_id": "0.0-20.0", "trial": 0, "time_elapsed": 236919, "serialpos": 8, "key_press": -1, "wordID": 819, "type": "PRES_AUD", "trial_index": 29}, "uniqueid": "MTK3172:3C5W7UE9CGX9G8YU1FB936ETMTBMX8", "dateTime": 1520113617252}, {"current_trial": 30, "trialdata": {"rt": -1000, "trial_type": "single-audio", "word": "shoulder", "stimulus": "/static/audio/wordpool/SHOULDER.wav", "conditions": [18, 1200, "a", 18000], "internal_node_id": "0.0-21.0", "trial": 0, "time_elapsed": 239192, "serialpos": 9, "key_press": -1, "wordID": 1293, "type": "PRES_AUD", "trial_index": 30}, "uniqueid": "MTK3172:3C5W7UE9CGX9G8YU1FB936ETMTBMX8", "dateTime": 1520113619524}, {"current_trial": 31, "trialdata": {"rt": -1000, "trial_type": "single-audio", "word": "saddle", "stimulus": "/static/audio/wordpool/SADDLE.wav", "conditions": [18, 1200, "a", 18000], "internal_node_id": "0.0-22.0", "trial": 0, "time_elapsed": 241398, "serialpos": 10, "key_press": -1, "wordID": 1220, "type": "PRES_AUD", "trial_index": 31}, "uniqueid": "MTK3172:3C5W7UE9CGX9G8YU1FB936ETMTBMX8", "dateTime": 1520113621730}, {"current_trial": 32, "trialdata": {"rt": -1000, "trial_type": "single-audio", "word": "salt", "stimulus": "/static/audio/wordpool/SALT.wav", "conditions": [18, 1200, "a", 18000], "internal_node_id": "0.0-23.0", "trial": 0, "time_elapsed": 243497, "serialpos": 11, "key_press": -1, "wordID": 1228, "type": "PRES_AUD", "trial_index": 32}, "uniqueid": "MTK3172:3C5W7UE9CGX9G8YU1FB936ETMTBMX8", "dateTime": 1520113623829}, {"current_trial": 33, "trialdata": {"rt": -1000, "trial_type": "single-audio", "word": "flute", "stimulus": "/static/audio/wordpool/FLUTE.wav", "conditions": [18, 1200, "a", 18000], "internal_node_id": "0.0-24.0", "trial": 0, "time_elapsed": 245675, "serialpos": 12, "key_press": -1, "wordID": 584, "type": "PRES_AUD", "trial_index": 33}, "uniqueid": "MTK3172:3C5W7UE9CGX9G8YU1FB936ETMTBMX8", "dateTime": 1520113626007}, {"current_trial": 34, "trialdata": {"rt": -1000, "trial_type": "single-audio", "word": "motor", "stimulus": "/static/audio/wordpool/MOTOR.wav", "conditions": [18, 1200, "a", 18000], "internal_node_id": "0.0-25.0", "trial": 0, "time_elapsed": 247769, "serialpos": 13, "key_press": -1, "wordID": 921, "type": "PRES_AUD", "trial_index": 34}, "uniqueid": "MTK3172:3C5W7UE9CGX9G8YU1FB936ETMTBMX8", "dateTime": 1520113628101}, {"current_trial": 35, "trialdata": {"rt": -1000, "trial_type": "single-audio", "word": "expert", "stimulus": "/static/audio/wordpool/EXPERT.wav", "conditions": [18, 1200, "a", 18000], "internal_node_id": "0.0-26.0", "trial": 0, "time_elapsed": 250144, "serialpos": 14, "key_press": -1, "wordID": 542, "type": "PRES_AUD", "trial_index": 35}, "uniqueid": "MTK3172:3C5W7UE9CGX9G8YU1FB936ETMTBMX8", "dateTime": 1520113630476}, {"current_trial": 36, "trialdata": {"rt": -1000, "trial_type": "single-audio", "word": "proton", "stimulus": "/static/audio/wordpool/PROTON.wav", "conditions": [18, 1200, "a", 18000], "internal_node_id": "0.0-27.0", "trial": 0, "time_elapsed": 252390, "serialpos": 15, "key_press": -1, "wordID": 1131, "type": "PRES_AUD", "trial_index": 36}, "uniqueid": "MTK3172:3C5W7UE9CGX9G8YU1FB936ETMTBMX8", "dateTime": 1520113632722}, {"current_trial": 37, "trialdata": {"rt": -1000, "trial_type": "single-audio", "word": "carriage", "stimulus": "/static/audio/wordpool/CARRIAGE.wav", "conditions": [18, 1200, "a", 18000], "internal_node_id": "0.0-28.0", "trial": 0, "time_elapsed": 254435, "serialpos": 16, "key_press": -1, "wordID": 247, "type": "PRES_AUD", "trial_index": 37}, "uniqueid": "MTK3172:3C5W7UE9CGX9G8YU1FB936ETMTBMX8", "dateTime": 1520113634767}, {"current_trial": 38, "trialdata": {"rt": -1000, "trial_type": "single-audio", "word": "padding", "stimulus": "/static/audio/wordpool/PADDING.wav", "conditions": [18, 1200, "a", 18000], "internal_node_id": "0.0-29.0", "trial": 0, "time_elapsed": 256441, "serialpos": 17, "key_press": -1, "wordID": 998, "type": "PRES_AUD", "trial_index": 38}, "uniqueid": "MTK3172:3C5W7UE9CGX9G8YU1FB936ETMTBMX8", "dateTime": 1520113636773}, {"current_trial": 39, "trialdata": {"rt": -1, "trial_type": "single-stim", "stimulus": "", "internal_node_id": "0.0-30.0-0.0", "time_elapsed": 257715, "key_press": -1, "type": "PRE_RECALL_DELAY", "trial_index": 39}, "uniqueid": "MTK3172:3C5W7UE9CGX9G8YU1FB936ETMTBMX8", "dateTime": 1520113638047}, {"current_trial": 40, "trialdata": {"rt": -1000, "trial_type": "single-audio", "stimulus": "/static/audio/400Hz.wav", "internal_node_id": "0.0-31.0", "time_elapsed": 258217, "key_press": -1, "type": "PRE_RECALL_ALERT", "trial_index": 40}, "uniqueid": "MTK3172:3C5W7UE9CGX9G8YU1FB936ETMTBMX8", "dateTime": 1520113638549}, {"current_trial": 41, "trialdata": {"rt": [3247, 5583, 6872, 8927, 10984, 12254, 13190, 21274, 28099, 35918], "recwords": ["playground", "seagull", "friend", "saddle", "proton", "padding", "", "carriage", "", "next"], "key_times": [1493, 1720, 1772, 1942, 2166, 2353, 2458, 2598, 2802, 2998, 3247, 3628, 3806, 3993, 4320, 4486, 4685, 4856, 5583, 5960, 6138, 6339, 6441, 6597, 6672, 6872, 7504, 7669, 8016, 8174, 8306, 8476, 8927, 10076, 10154, 10298, 10517, 10638, 10754, 10984, 11378, 11460, 11686, 11838, 11930, 12032, 12128, 12254, 13190, 19012, 19150, 19286, 19455, 19802, 20086, 20212, 20367, 21274, 28099, 34654, 34780, 35478, 35695, 35918], "trial_type": "free-recall", "conditions": [18, 1200, "a", 18000], "internal_node_id": "0.0-32.0-0.0", "key_presses": [80, 76, 65, 89, 71, 82, 79, 85, 78, 68, 13, 83, 69, 65, 71, 85, 76, 76, 13, 70, 82, 73, 69, 78, 68, 13, 83, 65, 68, 68, 76, 69, 13, 80, 82, 79, 84, 79, 78, 13, 80, 65, 68, 68, 73, 78, 71, 13, 13, 67, 65, 82, 82, 73, 65, 71, 69, 13, 13, 78, 69, 88, 84, 13], "trial": 0, "time_elapsed": 318220, "type": "FREE_RECALL", "trial_index": 41}, "uniqueid": "MTK3172:3C5W7UE9CGX9G8YU1FB936ETMTBMX8", "dateTime": 1520113698555}, {"current_trial": 42, "trialdata": {"rt": 1935, "trial_type": "text", "internal_node_id": "0.0-33.0", "time_elapsed": 322158, "key_press": 13, "type": "INSTRUCTIONS", "trial_index": 42}, "uniqueid": "MTK3172:3C5W7UE9CGX9G8YU1FB936ETMTBMX8", "dateTime": 1520113702490}, {"current_trial": 43, "trialdata": {"rt": [4911, 8501, 11495, 15418, 17341], "trial_type": "math-distractor", "key_times": [4531, 4643, 4911, 8070, 8245, 8501, 11035, 11165, 11495, 14999, 15142, 15418, 17167, 17341, 17361], "responses": ["20", "14", "18", "18", "1"], "num2": [6, 1, 8, 5, 8, 4], "num3": [8, 5, 7, 4, 3, 1], "conditions": [18, 1200, "a", 18000], "internal_node_id": "0.0-34.0", "key_presses": [98, 96, 13, 97, 100, 13, 97, 104, 13, 97, 104, 13, 97, 13, 99], "trial": 1, "time_elapsed": 342162, "type": "DISTRACTOR", "trial_index": 43, "num1": [6, 8, 3, 9, 2, 9]}, "uniqueid": "MTK3172:3C5W7UE9CGX9G8YU1FB936ETMTBMX8", "dateTime": 1520113722494}, {"current_trial": 44, "trialdata": {"rt": -1, "trial_type": "single-stim", "stimulus": "<p id=\"stim\">10</p>", "internal_node_id": "0.0-35.0-0.0", "time_elapsed": 345164, "key_press": -1, "trial_index": 44}, "uniqueid": "MTK3172:3C5W7UE9CGX9G8YU1FB936ETMTBMX8", "dateTime": 1520113725496}, {"current_trial": 45, "trialdata": {"rt": -1, "trial_type": "single-stim", "stimulus": "<p id=\"stim\">9</p>", "internal_node_id": "0.0-35.0-1.0", "time_elapsed": 346165, "key_press": -1, "trial_index": 45}, "uniqueid": "MTK3172:3C5W7UE9CGX9G8YU1FB936ETMTBMX8", "dateTime": 1520113726497}, {"current_trial": 46, "trialdata": {"rt": -1, "trial_type": "single-stim", "stimulus": "<p id=\"stim\">8</p>", "internal_node_id": "0.0-35.0-2.0", "time_elapsed": 347165, "key_press": -1, "trial_index": 46}, "uniqueid": "MTK3172:3C5W7UE9CGX9G8YU1FB936ETMTBMX8", "dateTime": 1520113727498}, {"current_trial": 47, "trialdata": {"rt": -1, "trial_type": "single-stim", "stimulus": "<p id=\"stim\">7</p>", "internal_node_id": "0.0-35.0-3.0", "time_elapsed": 348167, "key_press": -1, "trial_index": 47}, "uniqueid": "MTK3172:3C5W7UE9CGX9G8YU1FB936ETMTBMX8", "dateTime": 1520113728499}, {"current_trial": 48, "trialdata": {"rt": -1, "trial_type": "single-stim", "stimulus": "<p id=\"stim\">6</p>", "internal_node_id": "0.0-35.0-4.0", "time_elapsed": 349169, "key_press": -1, "trial_index": 48}, "uniqueid": "MTK3172:3C5W7UE9CGX9G8YU1FB936ETMTBMX8", "dateTime": 1520113729501}, {"current_trial": 49, "trialdata": {"rt": -1, "trial_type": "single-stim", "stimulus": "<p id=\"stim\">5</p>", "internal_node_id": "0.0-35.0-5.0", "time_elapsed": 350169, "key_press": -1, "trial_index": 49}, "uniqueid": "MTK3172:3C5W7UE9CGX9G8YU1FB936ETMTBMX8", "dateTime": 1520113730501}, {"current_trial": 50, "trialdata": {"rt": -1, "trial_type": "single-stim", "stimulus": "<p id=\"stim\">4</p>", "internal_node_id": "0.0-35.0-6.0", "time_elapsed": 351171, "key_press": -1, "trial_index": 50}, "uniqueid": "MTK3172:3C5W7UE9CGX9G8YU1FB936ETMTBMX8", "dateTime": 1520113731503}, {"current_trial": 51, "trialdata": {"rt": -1, "trial_type": "single-stim", "stimulus": "<p id=\"stim\">3</p>", "internal_node_id": "0.0-35.0-7.0", "time_elapsed": 352172, "key_press": -1, "trial_index": 51}, "uniqueid": "MTK3172:3C5W7UE9CGX9G8YU1FB936ETMTBMX8", "dateTime": 1520113732505}, {"current_trial": 52, "trialdata": {"rt": -1, "trial_type": "single-stim", "stimulus": "<p id=\"stim\">2</p>", "internal_node_id": "0.0-35.0-8.0", "time_elapsed": 353173, "key_press": -1, "trial_index": 52}, "uniqueid": "MTK3172:3C5W7UE9CGX9G8YU1FB936ETMTBMX8", "dateTime": 1520113733506}, {"current_trial": 53, "trialdata": {"rt": -1, "trial_type": "single-stim", "stimulus": "<p id=\"stim\">1</p>", "internal_node_id": "0.0-35.0-9.0", "time_elapsed": 354175, "key_press": -1, "trial_index": 53}, "uniqueid": "MTK3172:3C5W7UE9CGX9G8YU1FB936ETMTBMX8", "dateTime": 1520113734507}, {"current_trial": 54, "trialdata": {"rt": -1, "trial_type": "single-stim", "stimulus": "<p id=\"stim\">+</p>", "internal_node_id": "0.0-36.0-0.0", "time_elapsed": 355676, "key_press": -1, "type": "FIXATION", "trial_index": 54}, "uniqueid": "MTK3172:3C5W7UE9CGX9G8YU1FB936ETMTBMX8", "dateTime": 1520113736009}, {"current_trial": 55, "trialdata": {"rt": -1000, "trial_type": "single-audio", "word": "jelly", "stimulus": "/static/audio/wordpool/JELLY.wav", "conditions": [18, 1200, "a", 18000], "internal_node_id": "0.0-37.0", "trial": 1, "time_elapsed": 357853, "serialpos": 0, "key_press": -1, "wordID": 754, "type": "PRES_AUD", "trial_index": 55}, "uniqueid": "MTK3172:3C5W7UE9CGX9G8YU1FB936ETMTBMX8", "dateTime": 1520113738185}, {"current_trial": 56, "trialdata": {"rt": -1000, "trial_type": "single-audio", "word": "lady", "stimulus": "/static/audio/wordpool/LADY.wav", "conditions": [18, 1200, "a", 18000], "internal_node_id": "0.0-38.0", "trial": 1, "time_elapsed": 359929, "serialpos": 1, "key_press": -1, "wordID": 793, "type": "PRES_AUD", "trial_index": 56}, "uniqueid": "MTK3172:3C5W7UE9CGX9G8YU1FB936ETMTBMX8", "dateTime": 1520113740261}, {"current_trial": 57, "trialdata": {"rt": -1000, "trial_type": "single-audio", "word": "supper", "stimulus": "/static/audio/wordpool/SUPPER.wav", "conditions": [18, 1200, "a", 18000], "internal_node_id": "0.0-39.0", "trial": 1, "time_elapsed": 362062, "serialpos": 2, "key_press": -1, "wordID": 1410, "type": "PRES_AUD", "trial_index": 57}, "uniqueid": "MTK3172:3C5W7UE9CGX9G8YU1FB936ETMTBMX8", "dateTime": 1520113742395}, {"current_trial": 58, "trialdata": {"rt": -1000, "trial_type": "single-audio", "word": "smog", "stimulus": "/static/audio/wordpool/SMOG.wav", "conditions": [18, 1200, "a", 18000], "internal_node_id": "0.0-40.0", "trial": 1, "time_elapsed": 364172, "serialpos": 3, "key_press": -1, "wordID": 1329, "type": "PRES_AUD", "trial_index": 58}, "uniqueid": "MTK3172:3C5W7UE9CGX9G8YU1FB936ETMTBMX8", "dateTime": 1520113744505}, {"current_trial": 59, "trialdata": {"rt": -1000, "trial_type": "single-audio", "word": "outlaw", "stimulus": "/static/audio/wordpool/OUTLAW.wav", "conditions": [18, 1200, "a", 18000], "internal_node_id": "0.0-41.0", "trial": 1, "time_elapsed": 366458, "serialpos": 4, "key_press": -1, "wordID": 988, "type": "PRES_AUD", "trial_index": 59}, "uniqueid": "MTK3172:3C5W7UE9CGX9G8YU1FB936ETMTBMX8", "dateTime": 1520113746790}, {"current_trial": 60, "trialdata": {"rt": -1000, "trial_type": "single-audio", "word": "zebra", "stimulus": "/static/audio/wordpool/ZEBRA.wav", "conditions": [18, 1200, "a", 18000], "internal_node_id": "0.0-42.0", "trial": 1, "time_elapsed": 368798, "serialpos": 5, "key_press": -1, "wordID": 1634, "type": "PRES_AUD", "trial_index": 60}, "uniqueid": "MTK3172:3C5W7UE9CGX9G8YU1FB936ETMTBMX8", "dateTime": 1520113749131}, {"current_trial": 61, "trialdata": {"rt": -1000, "trial_type": "single-audio", "word": "statue", "stimulus": "/static/audio/wordpool/STATUE.wav", "conditions": [18, 1200, "a", 18000], "internal_node_id": "0.0-43.0", "trial": 1, "time_elapsed": 371110, "serialpos": 6, "key_press": -1, "wordID": 1373, "type": "PRES_AUD", "trial_index": 61}, "uniqueid": "MTK3172:3C5W7UE9CGX9G8YU1FB936ETMTBMX8", "dateTime": 1520113751442}, {"current_trial": 62, "trialdata": {"rt": -1000, "trial_type": "single-audio", "word": "daughter", "stimulus": "/static/audio/wordpool/DAUGHTER.wav", "conditions": [18, 1200, "a", 18000], "internal_node_id": "0.0-44.0", "trial": 1, "time_elapsed": 373147, "serialpos": 7, "key_press": -1, "wordID": 441, "type": "PRES_AUD", "trial_index": 62}, "uniqueid": "MTK3172:3C5W7UE9CGX9G8YU1FB936ETMTBMX8", "dateTime": 1520113753479}, {"current_trial": 63, "trialdata": {"rt": -1000, "trial_type": "single-audio", "word": "mustard", "stimulus": "/static/audio/wordpool/MUSTARD.wav", "conditions": [18, 1200, "a", 18000], "internal_node_id": "0.0-45.0", "trial": 1, "time_elapsed": 375437, "serialpos": 8, "key_press": -1, "wordID": 934, "type": "PRES_AUD", "trial_index": 63}, "uniqueid": "MTK3172:3C5W7UE9CGX9G8YU1FB936ETMTBMX8", "dateTime": 1520113755770}, {"current_trial": 64, "trialdata": {"rt": -1000, "trial_type": "single-audio", "word": "helmet", "stimulus": "/static/audio/wordpool/HELMET.wav", "conditions": [18, 1200, "a", 18000], "internal_node_id": "0.0-46.0", "trial": 1, "time_elapsed": 377835, "serialpos": 9, "key_press": -1, "wordID": 701, "type": "PRES_AUD", "trial_index": 64}, "uniqueid": "MTK3172:3C5W7UE9CGX9G8YU1FB936ETMTBMX8", "dateTime": 1520113758167}, {"current_trial": 65, "trialdata": {"rt": -1000, "trial_type": "single-audio", "word": "whistle", "stimulus": "/static/audio/wordpool/WHISTLE.wav", "conditions": [18, 1200, "a", 18000], "internal_node_id": "0.0-47.0", "trial": 1, "time_elapsed": 379872, "serialpos": 10, "key_press": -1, "wordID": 1605, "type": "PRES_AUD", "trial_index": 65}, "uniqueid": "MTK3172:3C5W7UE9CGX9G8YU1FB936ETMTBMX8", "dateTime": 1520113760205}, {"current_trial": 66, "trialdata": {"rt": -1000, "trial_type": "single-audio", "word": "highway", "stimulus": "/static/audio/wordpool/HIGHWAY.wav", "conditions": [18, 1200, "a", 18000], "internal_node_id": "0.0-48.0", "trial": 1, "time_elapsed": 382116, "serialpos": 11, "key_press": -1, "wordID": 706, "type": "PRES_AUD", "trial_index": 66}, "uniqueid": "MTK3172:3C5W7UE9CGX9G8YU1FB936ETMTBMX8", "dateTime": 1520113762448}, {"current_trial": 67, "trialdata": {"rt": -1000, "trial_type": "single-audio", "word": "lumber", "stimulus": "/static/audio/wordpool/LUMBER.wav", "conditions": [18, 1200, "a", 18000], "internal_node_id": "0.0-49.0", "trial": 1, "time_elapsed": 384277, "serialpos": 12, "key_press": -1, "wordID": 847, "type": "PRES_AUD", "trial_index": 67}, "uniqueid": "MTK3172:3C5W7UE9CGX9G8YU1FB936ETMTBMX8", "dateTime": 1520113764609}, {"current_trial": 68, "trialdata": {"rt": -1000, "trial_type": "single-audio", "word": "barley", "stimulus": "/static/audio/wordpool/BARLEY.wav", "conditions": [18, 1200, "a", 18000], "internal_node_id": "0.0-50.0", "trial": 1, "time_elapsed": 386510, "serialpos": 13, "key_press": -1, "wordID": 87, "type": "PRES_AUD", "trial_index": 68}, "uniqueid": "MTK3172:3C5W7UE9CGX9G8YU1FB936ETMTBMX8", "dateTime": 1520113766844}, {"current_trial": 69, "trialdata": {"rt": -1000, "trial_type": "single-audio", "word": "xerox", "stimulus": "/static/audio/wordpool/XEROX.wav", "conditions": [18, 1200, "a", 18000], "internal_node_id": "0.0-51.0", "trial": 1, "time_elapsed": 388524, "serialpos": 14, "key_press": -1, "wordID": 1627, "type": "PRES_AUD", "trial_index": 69}, "uniqueid": "MTK3172:3C5W7UE9CGX9G8YU1FB936ETMTBMX8", "dateTime": 1520113768856}, {"current_trial": 70, "trialdata": {"rt": -1000, "trial_type": "single-audio", "word": "salad", "stimulus": "/static/audio/wordpool/SALAD.wav", "conditions": [18, 1200, "a", 18000], "internal_node_id": "0.0-52.0", "trial": 1, "time_elapsed": 390625, "serialpos": 15, "key_press": -1, "wordID": 1223, "type": "PRES_AUD", "trial_index": 70}, "uniqueid": "MTK3172:3C5W7UE9CGX9G8YU1FB936ETMTBMX8", "dateTime": 1520113770957}, {"current_trial": 71, "trialdata": {"rt": -1000, "trial_type": "single-audio", "word": "branch", "stimulus": "/static/audio/wordpool/BRANCH.wav", "conditions": [18, 1200, "a", 18000], "internal_node_id": "0.0-53.0", "trial": 1, "time_elapsed": 392688, "serialpos": 16, "key_press": -1, "wordID": 167, "type": "PRES_AUD", "trial_index": 71}, "uniqueid": "MTK3172:3C5W7UE9CGX9G8YU1FB936ETMTBMX8", "dateTime": 1520113773020}, {"current_trial": 72, "trialdata": {"rt": -1000, "trial_type": "single-audio", "word": "waiter", "stimulus": "/static/audio/wordpool/WAITER.wav", "conditions": [18, 1200, "a", 18000], "internal_node_id": "0.0-54.0", "trial": 1, "time_elapsed": 394875, "serialpos": 17, "key_press": -1, "wordID": 1579, "type": "PRES_AUD", "trial_index": 72}, "uniqueid": "MTK3172:3C5W7UE9CGX9G8YU1FB936ETMTBMX8", "dateTime": 1520113775207}, {"current_trial": 73, "trialdata": {"rt": -1, "trial_type": "single-stim", "stimulus": "", "internal_node_id": "0.0-55.0-0.0", "time_elapsed": 396260, "key_press": -1, "type": "PRE_RECALL_DELAY", "trial_index": 73}, "uniqueid": "MTK3172:3C5W7UE9CGX9G8YU1FB936ETMTBMX8", "dateTime": 1520113776592}, {"current_trial": 74, "trialdata": {"rt": -1000, "trial_type": "single-audio", "stimulus": "/static/audio/400Hz.wav", "internal_node_id": "0.0-56.0", "time_elapsed": 396761, "key_press": -1, "type": "PRE_RECALL_ALERT", "trial_index": 74}, "uniqueid": "MTK3172:3C5W7UE9CGX9G8YU1FB936ETMTBMX8", "dateTime": 1520113777094}, {"current_trial": 75, "trialdata": {"rt": [2060, 4020, 7038, 9337, 10526, 17030, 23320], "recwords": ["waiter", "ranch", "helmet", "outlaw", "lady", "playground", "mustard"], "key_times": [975, 1152, 1287, 1418, 1600, 1668, 2060, 2778, 2927, 3113, 3488, 3611, 4020, 5742, 5872, 5976, 6182, 6347, 6475, 7038, 7448, 7627, 7722, 7936, 8710, 8924, 9337, 9760, 9866, 10096, 10208, 10526, 14957, 15228, 15344, 15462, 15696, 16185, 16349, 16446, 16629, 16766, 17030, 21978, 22176, 22318, 22455, 22731, 22878, 23122, 23320], "trial_type": "free-recall", "conditions": [18, 1200, "a", 18000], "internal_node_id": "0.0-57.0-0.0", "key_presses": [87, 65, 73, 84, 69, 82, 13, 82, 65, 78, 67, 72, 13, 72, 69, 76, 77, 69, 84, 13, 79, 85, 84, 76, 65, 87, 13, 76, 65, 68, 89, 13, 80, 76, 65, 89, 71, 82, 79, 85, 78, 68, 13, 77, 85, 83, 84, 65, 82, 68, 13], "trial": 1, "time_elapsed": 456765, "type": "FREE_RECALL", "trial_index": 75}, "uniqueid": "MTK3172:3C5W7UE9CGX9G8YU1FB936ETMTBMX8", "dateTime": 1520113837099}, {"current_trial": 76, "trialdata": {"rt": 3905, "trial_type": "text", "internal_node_id": "0.0-58.0", "time_elapsed": 462673, "key_press": 13, "type": "INSTRUCTIONS", "trial_index": 76}, "uniqueid": "MTK3172:3C5W7UE9CGX9G8YU1FB936ETMTBMX8", "dateTime": 1520113843005}, {"current_trial": 77, "trialdata": {"rt": [3911, 11062, 13691, 16142, 19386, 23282], "trial_type": "math-distractor", "key_times": [3464, 3661, 3911, 10598, 10725, 11062, 12384, 13057, 13450, 13691, 15540, 15701, 16142, 18965, 19143, 19386, 22868, 23006, 23282], "responses": ["17", "15", "5", "11", "14", "16"], "num2": [5, 8, 2, 1, 8, 8, 1], "num3": [7, 2, 1, 9, 4, 3, 2], "conditions": [24, 1600, "a", 24000], "internal_node_id": "0.0-59.0", "key_presses": [97, 103, 13, 97, 101, 13, 100, 8, 101, 13, 97, 97, 13, 97, 100, 13, 97, 102, 13], "trial": 2, "time_elapsed": 487675, "type": "DISTRACTOR", "trial_index": 77, "num1": [5, 5, 2, 1, 2, 5, 7]}, "uniqueid": "MTK3172:3C5W7UE9CGX9G8YU1FB936ETMTBMX8", "dateTime": 1520113868007}, {"current_trial": 78, "trialdata": {"rt": -1, "trial_type": "single-stim", "stimulus": "<p id=\"stim\">10</p>", "internal_node_id": "0.0-60.0-0.0", "time_elapsed": 490676, "key_press": -1, "trial_index": 78}, "uniqueid": "MTK3172:3C5W7UE9CGX9G8YU1FB936ETMTBMX8", "dateTime": 1520113871008}, {"current_trial": 79, "trialdata": {"rt": -1, "trial_type": "single-stim", "stimulus": "<p id=\"stim\">9</p>", "internal_node_id": "0.0-60.0-1.0", "time_elapsed": 491677, "key_press": -1, "trial_index": 79}, "uniqueid": "MTK3172:3C5W7UE9CGX9G8YU1FB936ETMTBMX8", "dateTime": 1520113872010}, {"current_trial": 80, "trialdata": {"rt": -1, "trial_type": "single-stim", "stimulus": "<p id=\"stim\">8</p>", "internal_node_id": "0.0-60.0-2.0", "time_elapsed": 492679, "key_press": -1, "trial_index": 80}, "uniqueid": "MTK3172:3C5W7UE9CGX9G8YU1FB936ETMTBMX8", "dateTime": 1520113873011}, {"current_trial": 81, "trialdata": {"rt": -1, "trial_type": "single-stim", "stimulus": "<p id=\"stim\">7</p>", "internal_node_id": "0.0-60.0-3.0", "time_elapsed": 493680, "key_press": -1, "trial_index": 81}, "uniqueid": "MTK3172:3C5W7UE9CGX9G8YU1FB936ETMTBMX8", "dateTime": 1520113874012}, {"current_trial": 82, "trialdata": {"rt": -1, "trial_type": "single-stim", "stimulus": "<p id=\"stim\">6</p>", "internal_node_id": "0.0-60.0-4.0", "time_elapsed": 494680, "key_press": -1, "trial_index": 82}, "uniqueid": "MTK3172:3C5W7UE9CGX9G8YU1FB936ETMTBMX8", "dateTime": 1520113875013}, {"current_trial": 83, "trialdata": {"rt": -1, "trial_type": "single-stim", "stimulus": "<p id=\"stim\">5</p>", "internal_node_id": "0.0-60.0-5.0", "time_elapsed": 495682, "key_press": -1, "trial_index": 83}, "uniqueid": "MTK3172:3C5W7UE9CGX9G8YU1FB936ETMTBMX8", "dateTime": 1520113876014}, {"current_trial": 84, "trialdata": {"rt": -1, "trial_type": "single-stim", "stimulus": "<p id=\"stim\">4</p>", "internal_node_id": "0.0-60.0-6.0", "time_elapsed": 496682, "key_press": -1, "trial_index": 84}, "uniqueid": "MTK3172:3C5W7UE9CGX9G8YU1FB936ETMTBMX8", "dateTime": 1520113877014}, {"current_trial": 85, "trialdata": {"rt": -1, "trial_type": "single-stim", "stimulus": "<p id=\"stim\">3</p>", "internal_node_id": "0.0-60.0-7.0", "time_elapsed": 497683, "key_press": -1, "trial_index": 85}, "uniqueid": "MTK3172:3C5W7UE9CGX9G8YU1FB936ETMTBMX8", "dateTime": 1520113878015}, {"current_trial": 86, "trialdata": {"rt": -1, "trial_type": "single-stim", "stimulus": "<p id=\"stim\">2</p>", "internal_node_id": "0.0-60.0-8.0", "time_elapsed": 498685, "key_press": -1, "trial_index": 86}, "uniqueid": "MTK3172:3C5W7UE9CGX9G8YU1FB936ETMTBMX8", "dateTime": 1520113879017}, {"current_trial": 87, "trialdata": {"rt": -1, "trial_type": "single-stim", "stimulus": "<p id=\"stim\">1</p>", "internal_node_id": "0.0-60.0-9.0", "time_elapsed": 499685, "key_press": -1, "trial_index": 87}, "uniqueid": "MTK3172:3C5W7UE9CGX9G8YU1FB936ETMTBMX8", "dateTime": 1520113880018}, {"current_trial": 88, "trialdata": {"rt": -1, "trial_type": "single-stim", "stimulus": "<p id=\"stim\">+</p>", "internal_node_id": "0.0-61.0-0.0", "time_elapsed": 501187, "key_press": -1, "type": "FIXATION", "trial_index": 88}, "uniqueid": "MTK3172:3C5W7UE9CGX9G8YU1FB936ETMTBMX8", "dateTime": 1520113881519}, {"current_trial": 89, "trialdata": {"rt": -1000, "trial_type": "single-audio", "word": "creature", "stimulus": "/static/audio/wordpool/CREATURE.wav", "conditions": [24, 1600, "a", 24000], "internal_node_id": "0.0-62.0", "trial": 2, "time_elapsed": 503633, "serialpos": 0, "key_press": -1, "wordID": 402, "type": "PRES_AUD", "trial_index": 89}, "uniqueid": "MTK3172:3C5W7UE9CGX9G8YU1FB936ETMTBMX8", "dateTime": 1520113883965}, {"current_trial": 90, "trialdata": {"rt": -1000, "trial_type": "single-audio", "word": "lover", "stimulus": "/static/audio/wordpool/LOVER.wav", "conditions": [24, 1600, "a", 24000], "internal_node_id": "0.0-63.0", "trial": 2, "time_elapsed": 506285, "serialpos": 1, "key_press": -1, "wordID": 845, "type": "PRES_AUD", "trial_index": 90}, "uniqueid": "MTK3172:3C5W7UE9CGX9G8YU1FB936ETMTBMX8", "dateTime": 1520113886618}, {"current_trial": 91, "trialdata": {"rt": -1000, "trial_type": "single-audio", "word": "girl", "stimulus": "/static/audio/wordpool/GIRL.wav", "conditions": [24, 1600, "a", 24000], "internal_node_id": "0.0-64.0", "trial": 2, "time_elapsed": 508965, "serialpos": 2, "key_press": -1, "wordID": 636, "type": "PRES_AUD", "trial_index": 91}, "uniqueid": "MTK3172:3C5W7UE9CGX9G8YU1FB936ETMTBMX8", "dateTime": 1520113889297}, {"current_trial": 92, "trialdata": {"rt": -1000, "trial_type": "single-audio", "word": "princess", "stimulus": "/static/audio/wordpool/PRINCESS.wav", "conditions": [24, 1600, "a", 24000], "internal_node_id": "0.0-65.0", "trial": 2, "time_elapsed": 511513, "serialpos": 3, "key_press": -1, "wordID": 1124, "type": "PRES_AUD", "trial_index": 92}, "uniqueid": "MTK3172:3C5W7UE9CGX9G8YU1FB936ETMTBMX8", "dateTime": 1520113891845}, {"current_trial": 93, "trialdata": {"rt": -1000, "trial_type": "single-audio", "word": "match", "stimulus": "/static/audio/wordpool/MATCH.wav", "conditions": [24, 1600, "a", 24000], "internal_node_id": "0.0-66.0", "trial": 2, "time_elapsed": 514194, "serialpos": 4, "key_press": -1, "wordID": 877, "type": "PRES_AUD", "trial_index": 93}, "uniqueid": "MTK3172:3C5W7UE9CGX9G8YU1FB936ETMTBMX8", "dateTime": 1520113894527}, {"current_trial": 94, "trialdata": {"rt": -1000, "trial_type": "single-audio", "word": "shortcake", "stimulus": "/static/audio/wordpool/SHORTCAKE.wav", "conditions": [24, 1600, "a", 24000], "internal_node_id": "0.0-67.0", "trial": 2, "time_elapsed": 516781, "serialpos": 5, "key_press": -1, "wordID": 1291, "type": "PRES_AUD", "trial_index": 94}, "uniqueid": "MTK3172:3C5W7UE9CGX9G8YU1FB936ETMTBMX8", "dateTime": 1520113897113}, {"current_trial": 95, "trialdata": {"rt": -1000, "trial_type": "single-audio", "word": "pizza", "stimulus": "/static/audio/wordpool/PIZZA.wav", "conditions": [24, 1600, "a", 24000], "internal_node_id": "0.0-68.0", "trial": 2, "time_elapsed": 519286, "serialpos": 6, "key_press": -1, "wordID": 1078, "type": "PRES_AUD", "trial_index": 95}, "uniqueid": "MTK3172:3C5W7UE9CGX9G8YU1FB936ETMTBMX8", "dateTime": 1520113899618}, {"current_trial": 96, "trialdata": {"rt": -1000, "trial_type": "single-audio", "word": "brother", "stimulus": "/static/audio/wordpool/BROTHER.wav", "conditions": [24, 1600, "a", 24000], "internal_node_id": "0.0-69.0", "trial": 2, "time_elapsed": 521728, "serialpos": 7, "key_press": -1, "wordID": 178, "type": "PRES_AUD", "trial_index": 96}, "uniqueid": "MTK3172:3C5W7UE9CGX9G8YU1FB936ETMTBMX8", "dateTime": 1520113902060}, {"current_trial": 97, "trialdata": {"rt": -1000, "trial_type": "single-audio", "word": "dragon", "stimulus": "/static/audio/wordpool/DRAGON.wav", "conditions": [24, 1600, "a", 24000], "internal_node_id": "0.0-70.0", "trial": 2, "time_elapsed": 524461, "serialpos": 8, "key_press": -1, "wordID": 491, "type": "PRES_AUD", "trial_index": 97}, "uniqueid": "MTK3172:3C5W7UE9CGX9G8YU1FB936ETMTBMX8", "dateTime": 1520113904793}, {"current_trial": 98, "trialdata": {"rt": -1000, "trial_type": "single-audio", "word": "scallop", "stimulus": "/static/audio/wordpool/SCALLOP.wav", "conditions": [24, 1600, "a", 24000], "internal_node_id": "0.0-71.0", "trial": 2, "time_elapsed": 527208, "serialpos": 9, "key_press": -1, "wordID": 1241, "type": "PRES_AUD", "trial_index": 98}, "uniqueid": "MTK3172:3C5W7UE9CGX9G8YU1FB936ETMTBMX8", "dateTime": 1520113907540}, {"current_trial": 99, "trialdata": {"rt": -1000, "trial_type": "single-audio", "word": "ketchup", "stimulus": "/static/audio/wordpool/KETCHUP.wav", "conditions": [24, 1600, "a", 24000], "internal_node_id": "0.0-72.0", "trial": 2, "time_elapsed": 529822, "serialpos": 10, "key_press": -1, "wordID": 770, "type": "PRES_AUD", "trial_index": 99}, "uniqueid": "MTK3172:3C5W7UE9CGX9G8YU1FB936ETMTBMX8", "dateTime": 1520113910154}, {"current_trial": 100, "trialdata": {"rt": -1000, "trial_type": "single-audio", "word": "bathtub", "stimulus": "/static/audio/wordpool/BATHTUB.wav", "conditions": [24, 1600, "a", 24000], "internal_node_id": "0.0-73.0", "trial": 2, "time_elapsed": 532260, "serialpos": 11, "key_press": -1, "wordID": 99, "type": "PRES_AUD", "trial_index": 100}, "uniqueid": "MTK3172:3C5W7UE9CGX9G8YU1FB936ETMTBMX8", "dateTime": 1520113912592}, {"current_trial": 101, "trialdata": {"rt": -1000, "trial_type": "single-audio", "word": "dandruff", "stimulus": "/static/audio/wordpool/DANDRUFF.wav", "conditions": [24, 1600, "a", 24000], "internal_node_id": "0.0-74.0", "trial": 2, "time_elapsed": 534940, "serialpos": 12, "key_press": -1, "wordID": 438, "type": "PRES_AUD", "trial_index": 101}, "uniqueid": "MTK3172:3C5W7UE9CGX9G8YU1FB936ETMTBMX8", "dateTime": 1520113915273}, {"current_trial": 102, "trialdata": {"rt": -1000, "trial_type": "single-audio", "word": "mask", "stimulus": "/static/audio/wordpool/MASK.wav", "conditions": [24, 1600, "a", 24000], "internal_node_id": "0.0-75.0", "trial": 2, "time_elapsed": 537546, "serialpos": 13, "key_press": -1, "wordID": 875, "type": "PRES_AUD", "trial_index": 102}, "uniqueid": "MTK3172:3C5W7UE9CGX9G8YU1FB936ETMTBMX8", "dateTime": 1520113917878}, {"current_trial": 103, "trialdata": {"rt": -1000, "trial_type": "single-audio", "word": "temple", "stimulus": "/static/audio/wordpool/TEMPLE.wav", "conditions": [24, 1600, "a", 24000], "internal_node_id": "0.0-76.0", "trial": 2, "time_elapsed": 540166, "serialpos": 14, "key_press": -1, "wordID": 1447, "type": "PRES_AUD", "trial_index": 103}, "uniqueid": "MTK3172:3C5W7UE9CGX9G8YU1FB936ETMTBMX8", "dateTime": 1520113920498}, {"current_trial": 104, "trialdata": {"rt": -1000, "trial_type": "single-audio", "word": "crevice", "stimulus": "/static/audio/wordpool/CREVICE.wav", "conditions": [24, 1600, "a", 24000], "internal_node_id": "0.0-77.0", "trial": 2, "time_elapsed": 542589, "serialpos": 15, "key_press": -1, "wordID": 404, "type": "PRES_AUD", "trial_index": 104}, "uniqueid": "MTK3172:3C5W7UE9CGX9G8YU1FB936ETMTBMX8", "dateTime": 1520113922921}, {"current_trial": 105, "trialdata": {"rt": -1000, "trial_type": "single-audio", "word": "leg", "stimulus": "/static/audio/wordpool/LEG.wav", "conditions": [24, 1600, "a", 24000], "internal_node_id": "0.0-78.0", "trial": 2, "time_elapsed": 545246, "serialpos": 16, "key_press": -1, "wordID": 808, "type": "PRES_AUD", "trial_index": 105}, "uniqueid": "MTK3172:3C5W7UE9CGX9G8YU1FB936ETMTBMX8", "dateTime": 1520113925578}, {"current_trial": 106, "trialdata": {"rt": -1000, "trial_type": "single-audio", "word": "ankle", "stimulus": "/static/audio/wordpool/ANKLE.wav", "conditions": [24, 1600, "a", 24000], "internal_node_id": "0.0-79.0", "trial": 2, "time_elapsed": 547761, "serialpos": 17, "key_press": -1, "wordID": 23, "type": "PRES_AUD", "trial_index": 106}, "uniqueid": "MTK3172:3C5W7UE9CGX9G8YU1FB936ETMTBMX8", "dateTime": 1520113928093}, {"current_trial": 107, "trialdata": {"rt": -1000, "trial_type": "single-audio", "word": "nurse", "stimulus": "/static/audio/wordpool/NURSE.wav", "conditions": [24, 1600, "a", 24000], "internal_node_id": "0.0-80.0", "trial": 2, "time_elapsed": 550164, "serialpos": 18, "key_press": -1, "wordID": 962, "type": "PRES_AUD", "trial_index": 107}, "uniqueid": "MTK3172:3C5W7UE9CGX9G8YU1FB936ETMTBMX8", "dateTime": 1520113930496}, {"current_trial": 108, "trialdata": {"rt": -1000, "trial_type": "single-audio", "word": "custard", "stimulus": "/static/audio/wordpool/CUSTARD.wav", "conditions": [24, 1600, "a", 24000], "internal_node_id": "0.0-81.0", "trial": 2, "time_elapsed": 552650, "serialpos": 19, "key_press": -1, "wordID": 428, "type": "PRES_AUD", "trial_index": 108}, "uniqueid": "MTK3172:3C5W7UE9CGX9G8YU1FB936ETMTBMX8", "dateTime": 1520113932982}, {"current_trial": 109, "trialdata": {"rt": -1000, "trial_type": "single-audio", "word": "space", "stimulus": "/static/audio/wordpool/SPACE.wav", "conditions": [24, 1600, "a", 24000], "internal_node_id": "0.0-82.0", "trial": 2, "time_elapsed": 555185, "serialpos": 20, "key_press": -1, "wordID": 1344, "type": "PRES_AUD", "trial_index": 109}, "uniqueid": "MTK3172:3C5W7UE9CGX9G8YU1FB936ETMTBMX8", "dateTime": 1520113935517}, {"current_trial": 110, "trialdata": {"rt": -1000, "trial_type": "single-audio", "word": "onion", "stimulus": "/static/audio/wordpool/ONION.wav", "conditions": [24, 1600, "a", 24000], "internal_node_id": "0.0-83.0", "trial": 2, "time_elapsed": 557868, "serialpos": 21, "key_press": -1, "wordID": 976, "type": "PRES_AUD", "trial_index": 110}, "uniqueid": "MTK3172:3C5W7UE9CGX9G8YU1FB936ETMTBMX8", "dateTime": 1520113938200}, {"current_trial": 111, "trialdata": {"rt": -1000, "trial_type": "single-audio", "word": "church", "stimulus": "/static/audio/wordpool/CHURCH.wav", "conditions": [24, 1600, "a", 24000], "internal_node_id": "0.0-84.0", "trial": 2, "time_elapsed": 560603, "serialpos": 22, "key_press": -1, "wordID": 306, "type": "PRES_AUD", "trial_index": 111}, "uniqueid": "MTK3172:3C5W7UE9CGX9G8YU1FB936ETMTBMX8", "dateTime": 1520113940935}, {"current_trial": 112, "trialdata": {"rt": -1000, "trial_type": "single-audio", "word": "patient", "stimulus": "/static/audio/wordpool/PATIENT.wav", "conditions": [24, 1600, "a", 24000], "internal_node_id": "0.0-85.0", "trial": 2, "time_elapsed": 563361, "serialpos": 23, "key_press": -1, "wordID": 1023, "type": "PRES_AUD", "trial_index": 112}, "uniqueid": "MTK3172:3C5W7UE9CGX9G8YU1FB936ETMTBMX8", "dateTime": 1520113943693}, {"current_trial": 113, "trialdata": {"rt": -1, "trial_type": "single-stim", "stimulus": "", "internal_node_id": "0.0-86.0-0.0", "time_elapsed": 564661, "key_press": -1, "type": "PRE_RECALL_DELAY", "trial_index": 113}, "uniqueid": "MTK3172:3C5W7UE9CGX9G8YU1FB936ETMTBMX8", "dateTime": 1520113944993}, {"current_trial": 114, "trialdata": {"rt": -1000, "trial_type": "single-audio", "stimulus": "/static/audio/400Hz.wav", "internal_node_id": "0.0-87.0", "time_elapsed": 565161, "key_press": -1, "type": "PRE_RECALL_ALERT", "trial_index": 114}, "uniqueid": "MTK3172:3C5W7UE9CGX9G8YU1FB936ETMTBMX8", "dateTime": 1520113945493}, {"current_trial": 115, "trialdata": {"rt": [4542, 9483, 12268, 16662, 18785, 23316], "recwords": ["ketchup", "church", "onion", "paitent", "lover", "girl"], "key_times": [2082, 2255, 2275, 3085, 3363, 3561, 3661, 4181, 4349, 4542, 4901, 5059, 5229, 5379, 5579, 5705, 6092, 6253, 6439, 6571, 7550, 7675, 8045, 8327, 8485, 8639, 8807, 8893, 9109, 9192, 9483, 11004, 11119, 11343, 11499, 11629, 12268, 12613, 12705, 13294, 13913, 14052, 14201, 14567, 16662, 17814, 17999, 18121, 18267, 18355, 18785, 22306, 22531, 22647, 22833, 23316], "trial_type": "free-recall", "conditions": [24, 1600, "a", 24000], "internal_node_id": "0.0-88.0-0.0", "key_presses": [75, 69, 87, 8, 84, 67, 72, 85, 80, 13, 67, 72, 82, 85, 83, 72, 8, 8, 8, 8, 82, 85, 67, 8, 8, 8, 85, 82, 67, 72, 13, 79, 78, 73, 79, 78, 13, 80, 65, 73, 84, 69, 78, 84, 13, 76, 79, 86, 69, 82, 13, 71, 73, 82, 76, 13], "trial": 2, "time_elapsed": 625164, "type": "FREE_RECALL", "trial_index": 115}, "uniqueid": "MTK3172:3C5W7UE9CGX9G8YU1FB936ETMTBMX8", "dateTime": 1520114005498}, {"current_trial": 116, "trialdata": {"rt": 1293, "trial_type": "text", "internal_node_id": "0.0-89.0", "time_elapsed": 628461, "key_press": 13, "type": "INSTRUCTIONS", "trial_index": 116}, "uniqueid": "MTK3172:3C5W7UE9CGX9G8YU1FB936ETMTBMX8", "dateTime": 1520114008793}, {"current_trial": 117, "trialdata": {"rt": [7509, 10382, 13141, 22146], "trial_type": "math-distractor", "key_times": [7055, 7220, 7509, 9967, 10170, 10382, 12683, 12840, 13141, 15958, 16138, 17148, 17313, 18546, 18716, 20806, 20973, 21663, 21865, 22146], "responses": ["21", "10", "18", "17"], "num2": [8, 3, 8, 5, 6], "num3": [9, 2, 1, 9, 3], "conditions": [24, 1600, "a", 24000], "internal_node_id": "0.0-90.0", "key_presses": [98, 97, 13, 97, 96, 13, 97, 104, 13, 98, 100, 8, 8, 97, 100, 8, 8, 97, 103, 13], "trial": 3, "time_elapsed": 654463, "type": "DISTRACTOR", "trial_index": 117, "num1": [4, 5, 9, 3, 7]}, "uniqueid": "MTK3172:3C5W7UE9CGX9G8YU1FB936ETMTBMX8", "dateTime": 1520114034796}, {"current_trial": 118, "trialdata": {"rt": -1, "trial_type": "single-stim", "stimulus": "<p id=\"stim\">10</p>", "internal_node_id": "0.0-91.0-0.0", "time_elapsed": 657466, "key_press": -1, "trial_index": 118}, "uniqueid": "MTK3172:3C5W7UE9CGX9G8YU1FB936ETMTBMX8", "dateTime": 1520114037798}, {"current_trial": 119, "trialdata": {"rt": -1, "trial_type": "single-stim", "stimulus": "<p id=\"stim\">9</p>", "internal_node_id": "0.0-91.0-1.0", "time_elapsed": 658467, "key_press": -1, "trial_index": 119}, "uniqueid": "MTK3172:3C5W7UE9CGX9G8YU1FB936ETMTBMX8", "dateTime": 1520114038799}, {"current_trial": 120, "trialdata": {"rt": -1, "trial_type": "single-stim", "stimulus": "<p id=\"stim\">8</p>", "internal_node_id": "0.0-91.0-2.0", "time_elapsed": 659468, "key_press": -1, "trial_index": 120}, "uniqueid": "MTK3172:3C5W7UE9CGX9G8YU1FB936ETMTBMX8", "dateTime": 1520114039800}, {"current_trial": 121, "trialdata": {"rt": -1, "trial_type": "single-stim", "stimulus": "<p id=\"stim\">7</p>", "internal_node_id": "0.0-91.0-3.0", "time_elapsed": 660470, "key_press": -1, "trial_index": 121}, "uniqueid": "MTK3172:3C5W7UE9CGX9G8YU1FB936ETMTBMX8", "dateTime": 1520114040802}, {"current_trial": 122, "trialdata": {"rt": -1, "trial_type": "single-stim", "stimulus": "<p id=\"stim\">6</p>", "internal_node_id": "0.0-91.0-4.0", "time_elapsed": 661471, "key_press": -1, "trial_index": 122}, "uniqueid": "MTK3172:3C5W7UE9CGX9G8YU1FB936ETMTBMX8", "dateTime": 1520114041803}, {"current_trial": 123, "trialdata": {"rt": -1, "trial_type": "single-stim", "stimulus": "<p id=\"stim\">5</p>", "internal_node_id": "0.0-91.0-5.0", "time_elapsed": 662472, "key_press": -1, "trial_index": 123}, "uniqueid": "MTK3172:3C5W7UE9CGX9G8YU1FB936ETMTBMX8", "dateTime": 1520114042804}, {"current_trial": 124, "trialdata": {"rt": -1, "trial_type": "single-stim", "stimulus": "<p id=\"stim\">4</p>", "internal_node_id": "0.0-91.0-6.0", "time_elapsed": 663473, "key_press": -1, "trial_index": 124}, "uniqueid": "MTK3172:3C5W7UE9CGX9G8YU1FB936ETMTBMX8", "dateTime": 1520114043805}, {"current_trial": 125, "trialdata": {"rt": -1, "trial_type": "single-stim", "stimulus": "<p id=\"stim\">3</p>", "internal_node_id": "0.0-91.0-7.0", "time_elapsed": 664474, "key_press": -1, "trial_index": 125}, "uniqueid": "MTK3172:3C5W7UE9CGX9G8YU1FB936ETMTBMX8", "dateTime": 1520114044806}, {"current_trial": 126, "trialdata": {"rt": -1, "trial_type": "single-stim", "stimulus": "<p id=\"stim\">2</p>", "internal_node_id": "0.0-91.0-8.0", "time_elapsed": 665476, "key_press": -1, "trial_index": 126}, "uniqueid": "MTK3172:3C5W7UE9CGX9G8YU1FB936ETMTBMX8", "dateTime": 1520114045808}, {"current_trial": 127, "trialdata": {"rt": -1, "trial_type": "single-stim", "stimulus": "<p id=\"stim\">1</p>", "internal_node_id": "0.0-91.0-9.0", "time_elapsed": 666477, "key_press": -1, "trial_index": 127}, "uniqueid": "MTK3172:3C5W7UE9CGX9G8YU1FB936ETMTBMX8", "dateTime": 1520114046810}, {"current_trial": 128, "trialdata": {"rt": -1, "trial_type": "single-stim", "stimulus": "<p id=\"stim\">+</p>", "internal_node_id": "0.0-92.0-0.0", "time_elapsed": 667978, "key_press": -1, "type": "FIXATION", "trial_index": 128}, "uniqueid": "MTK3172:3C5W7UE9CGX9G8YU1FB936ETMTBMX8", "dateTime": 1520114048310}, {"current_trial": 129, "trialdata": {"rt": -1000, "trial_type": "single-audio", "word": "popcorn", "stimulus": "/static/audio/wordpool/POPCORN.wav", "conditions": [24, 1600, "a", 24000], "internal_node_id": "0.0-93.0", "trial": 3, "time_elapsed": 670496, "serialpos": 0, "key_press": -1, "wordID": 1103, "type": "PRES_AUD", "trial_index": 129}, "uniqueid": "MTK3172:3C5W7UE9CGX9G8YU1FB936ETMTBMX8", "dateTime": 1520114050829}, {"current_trial": 130, "trialdata": {"rt": -1000, "trial_type": "single-audio", "word": "grape", "stimulus": "/static/audio/wordpool/GRAPE.wav", "conditions": [24, 1600, "a", 24000], "internal_node_id": "0.0-94.0", "trial": 3, "time_elapsed": 673172, "serialpos": 1, "key_press": -1, "wordID": 653, "type": "PRES_AUD", "trial_index": 130}, "uniqueid": "MTK3172:3C5W7UE9CGX9G8YU1FB936ETMTBMX8", "dateTime": 1520114053504}, {"current_trial": 131, "trialdata": {"rt": -1000, "trial_type": "single-audio", "word": "inmate", "stimulus": "/static/audio/wordpool/INMATE.wav", "conditions": [24, 1600, "a", 24000], "internal_node_id": "0.0-95.0", "trial": 3, "time_elapsed": 675579, "serialpos": 2, "key_press": -1, "wordID": 737, "type": "PRES_AUD", "trial_index": 131}, "uniqueid": "MTK3172:3C5W7UE9CGX9G8YU1FB936ETMTBMX8", "dateTime": 1520114055912}, {"current_trial": 132, "trialdata": {"rt": -1000, "trial_type": "single-audio", "word": "candy", "stimulus": "/static/audio/wordpool/CANDY.wav", "conditions": [24, 1600, "a", 24000], "internal_node_id": "0.0-96.0", "trial": 3, "time_elapsed": 678201, "serialpos": 3, "key_press": -1, "wordID": 229, "type": "PRES_AUD", "trial_index": 132}, "uniqueid": "MTK3172:3C5W7UE9CGX9G8YU1FB936ETMTBMX8", "dateTime": 1520114058533}, {"current_trial": 133, "trialdata": {"rt": -1000, "trial_type": "single-audio", "word": "bug", "stimulus": "/static/audio/wordpool/BUG.wav", "conditions": [24, 1600, "a", 24000], "internal_node_id": "0.0-97.0", "trial": 3, "time_elapsed": 680812, "serialpos": 4, "key_press": -1, "wordID": 186, "type": "PRES_AUD", "trial_index": 133}, "uniqueid": "MTK3172:3C5W7UE9CGX9G8YU1FB936ETMTBMX8", "dateTime": 1520114061144}, {"current_trial": 134, "trialdata": {"rt": -1000, "trial_type": "single-audio", "word": "termite", "stimulus": "/static/audio/wordpool/TERMITE.wav", "conditions": [24, 1600, "a", 24000], "internal_node_id": "0.0-98.0", "trial": 3, "time_elapsed": 683235, "serialpos": 5, "key_press": -1, "wordID": 1450, "type": "PRES_AUD", "trial_index": 134}, "uniqueid": "MTK3172:3C5W7UE9CGX9G8YU1FB936ETMTBMX8", "dateTime": 1520114063569}, {"current_trial": 135, "trialdata": {"rt": -1000, "trial_type": "single-audio", "word": "barrel", "stimulus": "/static/audio/wordpool/BARREL.wav", "conditions": [24, 1600, "a", 24000], "internal_node_id": "0.0-99.0", "trial": 3, "time_elapsed": 685799, "serialpos": 6, "key_press": -1, "wordID": 90, "type": "PRES_AUD", "trial_index": 135}, "uniqueid": "MTK3172:3C5W7UE9CGX9G8YU1FB936ETMTBMX8", "dateTime": 1520114066131}, {"current_trial": 136, "trialdata": {"rt": -1000, "trial_type": "single-audio", "word": "pasta", "stimulus": "/static/audio/wordpool/PASTA.wav", "conditions": [24, 1600, "a", 24000], "internal_node_id": "0.0-100.0", "trial": 3, "time_elapsed": 688578, "serialpos": 7, "key_press": -1, "wordID": 1020, "type": "PRES_AUD", "trial_index": 136}, "uniqueid": "MTK3172:3C5W7UE9CGX9G8YU1FB936ETMTBMX8", "dateTime": 1520114068910}, {"current_trial": 137, "trialdata": {"rt": -1000, "trial_type": "single-audio", "word": "omelet", "stimulus": "/static/audio/wordpool/OMELET.wav", "conditions": [24, 1600, "a", 24000], "internal_node_id": "0.0-101.0", "trial": 3, "time_elapsed": 691272, "serialpos": 8, "key_press": -1, "wordID": 975, "type": "PRES_AUD", "trial_index": 137}, "uniqueid": "MTK3172:3C5W7UE9CGX9G8YU1FB936ETMTBMX8", "dateTime": 1520114071604}, {"current_trial": 138, "trialdata": {"rt": -1000, "trial_type": "single-audio", "word": "soda", "stimulus": "/static/audio/wordpool/SODA.wav", "conditions": [24, 1600, "a", 24000], "internal_node_id": "0.0-102.0", "trial": 3, "time_elapsed": 694056, "serialpos": 9, "key_press": -1, "wordID": 1340, "type": "PRES_AUD", "trial_index": 138}, "uniqueid": "MTK3172:3C5W7UE9CGX9G8YU1FB936ETMTBMX8", "dateTime": 1520114074388}, {"current_trial": 139, "trialdata": {"rt": -1000, "trial_type": "single-audio", "word": "cellar", "stimulus": "/static/audio/wordpool/CELLAR.wav", "conditions": [24, 1600, "a", 24000], "internal_node_id": "0.0-103.0", "trial": 3, "time_elapsed": 696697, "serialpos": 10, "key_press": -1, "wordID": 266, "type": "PRES_AUD", "trial_index": 139}, "uniqueid": "MTK3172:3C5W7UE9CGX9G8YU1FB936ETMTBMX8", "dateTime": 1520114077029}, {"current_trial": 140, "trialdata": {"rt": -1000, "trial_type": "single-audio", "word": "crab", "stimulus": "/static/audio/wordpool/CRAB.wav", "conditions": [24, 1600, "a", 24000], "internal_node_id": "0.0-104.0", "trial": 3, "time_elapsed": 699239, "serialpos": 11, "key_press": -1, "wordID": 396, "type": "PRES_AUD", "trial_index": 140}, "uniqueid": "MTK3172:3C5W7UE9CGX9G8YU1FB936ETMTBMX8", "dateTime": 1520114079571}, {"current_trial": 141, "trialdata": {"rt": -1000, "trial_type": "single-audio", "word": "denim", "stimulus": "/static/audio/wordpool/DENIM.wav", "conditions": [24, 1600, "a", 24000], "internal_node_id": "0.0-105.0", "trial": 3, "time_elapsed": 701747, "serialpos": 12, "key_press": -1, "wordID": 445, "type": "PRES_AUD", "trial_index": 141}, "uniqueid": "MTK3172:3C5W7UE9CGX9G8YU1FB936ETMTBMX8", "dateTime": 1520114082079}, {"current_trial": 142, "trialdata": {"rt": -1000, "trial_type": "single-audio", "word": "raft", "stimulus": "/static/audio/wordpool/RAFT.wav", "conditions": [24, 1600, "a", 24000], "internal_node_id": "0.0-106.0", "trial": 3, "time_elapsed": 704297, "serialpos": 13, "key_press": -1, "wordID": 1158, "type": "PRES_AUD", "trial_index": 142}, "uniqueid": "MTK3172:3C5W7UE9CGX9G8YU1FB936ETMTBMX8", "dateTime": 1520114084629}, {"current_trial": 143, "trialdata": {"rt": -1000, "trial_type": "single-audio", "word": "salmon", "stimulus": "/static/audio/wordpool/SALMON.wav", "conditions": [24, 1600, "a", 24000], "internal_node_id": "0.0-107.0", "trial": 3, "time_elapsed": 706700, "serialpos": 14, "key_press": -1, "wordID": 1226, "type": "PRES_AUD", "trial_index": 143}, "uniqueid": "MTK3172:3C5W7UE9CGX9G8YU1FB936ETMTBMX8", "dateTime": 1520114087032}, {"current_trial": 144, "trialdata": {"rt": -1000, "trial_type": "single-audio", "word": "trout", "stimulus": "/static/audio/wordpool/TROUT.wav", "conditions": [24, 1600, "a", 24000], "internal_node_id": "0.0-108.0", "trial": 3, "time_elapsed": 709348, "serialpos": 15, "key_press": -1, "wordID": 1510, "type": "PRES_AUD", "trial_index": 144}, "uniqueid": "MTK3172:3C5W7UE9CGX9G8YU1FB936ETMTBMX8", "dateTime": 1520114089680}, {"current_trial": 145, "trialdata": {"rt": -1000, "trial_type": "single-audio", "word": "iceberg", "stimulus": "/static/audio/wordpool/ICEBERG.wav", "conditions": [24, 1600, "a", 24000], "internal_node_id": "0.0-109.0", "trial": 3, "time_elapsed": 711793, "serialpos": 16, "key_press": -1, "wordID": 730, "type": "PRES_AUD", "trial_index": 145}, "uniqueid": "MTK3172:3C5W7UE9CGX9G8YU1FB936ETMTBMX8", "dateTime": 1520114092125}, {"current_trial": 146, "trialdata": {"rt": -1000, "trial_type": "single-audio", "word": "comet", "stimulus": "/static/audio/wordpool/COMET.wav", "conditions": [24, 1600, "a", 24000], "internal_node_id": "0.0-110.0", "trial": 3, "time_elapsed": 714284, "serialpos": 17, "key_press": -1, "wordID": 352, "type": "PRES_AUD", "trial_index": 146}, "uniqueid": "MTK3172:3C5W7UE9CGX9G8YU1FB936ETMTBMX8", "dateTime": 1520114094616}, {"current_trial": 147, "trialdata": {"rt": -1000, "trial_type": "single-audio", "word": "blouse", "stimulus": "/static/audio/wordpool/BLOUSE.wav", "conditions": [24, 1600, "a", 24000], "internal_node_id": "0.0-111.0", "trial": 3, "time_elapsed": 716968, "serialpos": 18, "key_press": -1, "wordID": 138, "type": "PRES_AUD", "trial_index": 147}, "uniqueid": "MTK3172:3C5W7UE9CGX9G8YU1FB936ETMTBMX8", "dateTime": 1520114097300}, {"current_trial": 148, "trialdata": {"rt": -1000, "trial_type": "single-audio", "word": "sword", "stimulus": "/static/audio/wordpool/SWORD.wav", "conditions": [24, 1600, "a", 24000], "internal_node_id": "0.0-112.0", "trial": 3, "time_elapsed": 719688, "serialpos": 19, "key_press": -1, "wordID": 1422, "type": "PRES_AUD", "trial_index": 148}, "uniqueid": "MTK3172:3C5W7UE9CGX9G8YU1FB936ETMTBMX8", "dateTime": 1520114100020}, {"current_trial": 149, "trialdata": {"rt": -1000, "trial_type": "single-audio", "word": "fox", "stimulus": "/static/audio/wordpool/FOX.wav", "conditions": [24, 1600, "a", 24000], "internal_node_id": "0.0-113.0", "trial": 3, "time_elapsed": 722172, "serialpos": 20, "key_press": -1, "wordID": 597, "type": "PRES_AUD", "trial_index": 149}, "uniqueid": "MTK3172:3C5W7UE9CGX9G8YU1FB936ETMTBMX8", "dateTime": 1520114102505}, {"current_trial": 150, "trialdata": {"rt": -1000, "trial_type": "single-audio", "word": "treat", "stimulus": "/static/audio/wordpool/TREAT.wav", "conditions": [24, 1600, "a", 24000], "internal_node_id": "0.0-114.0", "trial": 3, "time_elapsed": 724678, "serialpos": 21, "key_press": -1, "wordID": 1500, "type": "PRES_AUD", "trial_index": 150}, "uniqueid": "MTK3172:3C5W7UE9CGX9G8YU1FB936ETMTBMX8", "dateTime": 1520114105010}, {"current_trial": 151, "trialdata": {"rt": -1000, "trial_type": "single-audio", "word": "label", "stimulus": "/static/audio/wordpool/LABEL.wav", "conditions": [24, 1600, "a", 24000], "internal_node_id": "0.0-115.0", "trial": 3, "time_elapsed": 727435, "serialpos": 22, "key_press": -1, "wordID": 789, "type": "PRES_AUD", "trial_index": 151}, "uniqueid": "MTK3172:3C5W7UE9CGX9G8YU1FB936ETMTBMX8", "dateTime": 1520114107767}, {"current_trial": 152, "trialdata": {"rt": -1000, "trial_type": "single-audio", "word": "flashlight", "stimulus": "/static/audio/wordpool/FLASHLIGHT.wav", "conditions": [24, 1600, "a", 24000], "internal_node_id": "0.0-116.0", "trial": 3, "time_elapsed": 729840, "serialpos": 23, "key_press": -1, "wordID": 574, "type": "PRES_AUD", "trial_index": 152}, "uniqueid": "MTK3172:3C5W7UE9CGX9G8YU1FB936ETMTBMX8", "dateTime": 1520114110173}, {"current_trial": 153, "trialdata": {"rt": -1, "trial_type": "single-stim", "stimulus": "", "internal_node_id": "0.0-117.0-0.0", "time_elapsed": 731043, "key_press": -1, "type": "PRE_RECALL_DELAY", "trial_index": 153}, "uniqueid": "MTK3172:3C5W7UE9CGX9G8YU1FB936ETMTBMX8", "dateTime": 1520114111375}, {"current_trial": 154, "trialdata": {"rt": -1000, "trial_type": "single-audio", "stimulus": "/static/audio/400Hz.wav", "internal_node_id": "0.0-118.0", "time_elapsed": 731544, "key_press": -1, "type": "PRE_RECALL_ALERT", "trial_index": 154}, "uniqueid": "MTK3172:3C5W7UE9CGX9G8YU1FB936ETMTBMX8", "dateTime": 1520114111876}, {"current_trial": 155, "trialdata": {"rt": [4590, 8838, 13206, 14504, 16661, 20543, 22831, 24387, 32841, 34239, 38689, 42423, 44779, 47085], "recwords": ["candy", "termite", "bug", "soda", "celler", "crab", "denim", "raft", "salmon", "trout", "iceberg", "fox", "treat", "flashlight"], "key_times": [3827, 3996, 4106, 4271, 4388, 4590, 6160, 6322, 6425, 6602, 6791, 7036, 7165, 8838, 11242, 11566, 11714, 13206, 13696, 13835, 14038, 14218, 14504, 14940, 15146, 15258, 15421, 15540, 15618, 16661, 19359, 19618, 19773, 20018, 20543, 21048, 21417, 21976, 22212, 22419, 22831, 23113, 23267, 23585, 23786, 24387, 31037, 31515, 31608, 32147, 32275, 32394, 32841, 33122, 33309, 33448, 33591, 33764, 34239, 34895, 35044, 35264, 35526, 36162, 36310, 36556, 37791, 37960, 38110, 38178, 38288, 38494, 38689, 41903, 42007, 42216, 42423, 43457, 43651, 43771, 43954, 44266, 44779, 45130, 45282, 45377, 45465, 45897, 46201, 46370, 46459, 46652, 46823, 47085], "trial_type": "free-recall", "conditions": [24, 1600, "a", 24000], "internal_node_id": "0.0-119.0-0.0", "key_presses": [67, 65, 78, 68, 89, 32, 84, 69, 82, 77, 73, 84, 69, 13, 66, 85, 71, 13, 83, 79, 68, 65, 13, 67, 69, 76, 76, 69, 82, 13, 67, 82, 65, 66, 13, 68, 69, 78, 73, 77, 13, 82, 65, 70, 84, 13, 83, 65, 76, 77, 79, 78, 13, 84, 82, 79, 85, 84, 13, 73, 67, 69, 66, 85, 82, 71, 8, 8, 8, 69, 82, 71, 13, 70, 79, 88, 13, 84, 82, 69, 65, 84, 13, 70, 76, 65, 83, 72, 76, 73, 71, 72, 84, 13], "trial": 3, "time_elapsed": 791547, "type": "FREE_RECALL", "trial_index": 155}, "uniqueid": "MTK3172:3C5W7UE9CGX9G8YU1FB936ETMTBMX8", "dateTime": 1520114171883}, {"current_trial": 156, "trialdata": {"rt": 3242, "trial_type": "text", "internal_node_id": "0.0-120.0", "time_elapsed": 796794, "key_press": 13, "type": "INSTRUCTIONS", "trial_index": 156}, "uniqueid": "MTK3172:3C5W7UE9CGX9G8YU1FB936ETMTBMX8", "dateTime": 1520114177126}, {"current_trial": 157, "trialdata": {"rt": [4093, 6645, 10279, 14363, 17287, 19935, 22711], "trial_type": "math-distractor", "key_times": [3579, 3712, 4093, 6236, 6418, 6645, 9929, 10090, 10279, 13948, 14123, 14363, 16832, 17036, 17287, 19411, 19650, 19935, 22218, 22446, 22711], "responses": ["18", "11", "10", "16", "14", "17", "17"], "num2": [9, 5, 6, 6, 2, 7, 2, 3], "num3": [5, 4, 3, 3, 3, 9, 8, 3], "conditions": [12, 800, "a", 24000], "internal_node_id": "0.0-121.0", "key_presses": [97, 104, 13, 97, 97, 13, 97, 96, 13, 97, 102, 13, 97, 100, 13, 97, 103, 13, 97, 103, 13], "trial": 4, "time_elapsed": 822797, "type": "DISTRACTOR", "trial_index": 157, "num1": [4, 2, 1, 7, 9, 1, 7, 5]}, "uniqueid": "MTK3172:3C5W7UE9CGX9G8YU1FB936ETMTBMX8", "dateTime": 1520114203130}, {"current_trial": 158, "trialdata": {"rt": -1, "trial_type": "single-stim", "stimulus": "<p id=\"stim\">10</p>", "internal_node_id": "0.0-122.0-0.0", "time_elapsed": 825800, "key_press": -1, "trial_index": 158}, "uniqueid": "MTK3172:3C5W7UE9CGX9G8YU1FB936ETMTBMX8", "dateTime": 1520114206133}, {"current_trial": 159, "trialdata": {"rt": -1, "trial_type": "single-stim", "stimulus": "<p id=\"stim\">9</p>", "internal_node_id": "0.0-122.0-1.0", "time_elapsed": 826802, "key_press": -1, "trial_index": 159}, "uniqueid": "MTK3172:3C5W7UE9CGX9G8YU1FB936ETMTBMX8", "dateTime": 1520114207134}, {"current_trial": 160, "trialdata": {"rt": -1, "trial_type": "single-stim", "stimulus": "<p id=\"stim\">8</p>", "internal_node_id": "0.0-122.0-2.0", "time_elapsed": 827802, "key_press": -1, "trial_index": 160}, "uniqueid": "MTK3172:3C5W7UE9CGX9G8YU1FB936ETMTBMX8", "dateTime": 1520114208135}, {"current_trial": 161, "trialdata": {"rt": -1, "trial_type": "single-stim", "stimulus": "<p id=\"stim\">7</p>", "internal_node_id": "0.0-122.0-3.0", "time_elapsed": 828804, "key_press": -1, "trial_index": 161}, "uniqueid": "MTK3172:3C5W7UE9CGX9G8YU1FB936ETMTBMX8", "dateTime": 1520114209136}, {"current_trial": 162, "trialdata": {"rt": -1, "trial_type": "single-stim", "stimulus": "<p id=\"stim\">6</p>", "internal_node_id": "0.0-122.0-4.0", "time_elapsed": 829805, "key_press": -1, "trial_index": 162}, "uniqueid": "MTK3172:3C5W7UE9CGX9G8YU1FB936ETMTBMX8", "dateTime": 1520114210137}, {"current_trial": 163, "trialdata": {"rt": -1, "trial_type": "single-stim", "stimulus": "<p id=\"stim\">5</p>", "internal_node_id": "0.0-122.0-5.0", "time_elapsed": 830806, "key_press": -1, "trial_index": 163}, "uniqueid": "MTK3172:3C5W7UE9CGX9G8YU1FB936ETMTBMX8", "dateTime": 1520114211138}, {"current_trial": 164, "trialdata": {"rt": -1, "trial_type": "single-stim", "stimulus": "<p id=\"stim\">4</p>", "internal_node_id": "0.0-122.0-6.0", "time_elapsed": 831807, "key_press": -1, "trial_index": 164}, "uniqueid": "MTK3172:3C5W7UE9CGX9G8YU1FB936ETMTBMX8", "dateTime": 1520114212139}, {"current_trial": 165, "trialdata": {"rt": -1, "trial_type": "single-stim", "stimulus": "<p id=\"stim\">3</p>", "internal_node_id": "0.0-122.0-7.0", "time_elapsed": 832809, "key_press": -1, "trial_index": 165}, "uniqueid": "MTK3172:3C5W7UE9CGX9G8YU1FB936ETMTBMX8", "dateTime": 1520114213141}, {"current_trial": 166, "trialdata": {"rt": -1, "trial_type": "single-stim", "stimulus": "<p id=\"stim\">2</p>", "internal_node_id": "0.0-122.0-8.0", "time_elapsed": 833809, "key_press": -1, "trial_index": 166}, "uniqueid": "MTK3172:3C5W7UE9CGX9G8YU1FB936ETMTBMX8", "dateTime": 1520114214141}, {"current_trial": 167, "trialdata": {"rt": -1, "trial_type": "single-stim", "stimulus": "<p id=\"stim\">1</p>", "internal_node_id": "0.0-122.0-9.0", "time_elapsed": 834810, "key_press": -1, "trial_index": 167}, "uniqueid": "MTK3172:3C5W7UE9CGX9G8YU1FB936ETMTBMX8", "dateTime": 1520114215142}, {"current_trial": 168, "trialdata": {"rt": -1, "trial_type": "single-stim", "stimulus": "<p id=\"stim\">+</p>", "internal_node_id": "0.0-123.0-0.0", "time_elapsed": 836311, "key_press": -1, "type": "FIXATION", "trial_index": 168}, "uniqueid": "MTK3172:3C5W7UE9CGX9G8YU1FB936ETMTBMX8", "dateTime": 1520114216644}, {"current_trial": 169, "trialdata": {"rt": -1000, "trial_type": "single-audio", "word": "atlas", "stimulus": "/static/audio/wordpool/ATLAS.wav", "conditions": [12, 800, "a", 24000], "internal_node_id": "0.0-124.0", "trial": 4, "time_elapsed": 838080, "serialpos": 0, "key_press": -1, "wordID": 52, "type": "PRES_AUD", "trial_index": 169}, "uniqueid": "MTK3172:3C5W7UE9CGX9G8YU1FB936ETMTBMX8", "dateTime": 1520114218413}, {"current_trial": 170, "trialdata": {"rt": -1000, "trial_type": "single-audio", "word": "skirt", "stimulus": "/static/audio/wordpool/SKIRT.wav", "conditions": [12, 800, "a", 24000], "internal_node_id": "0.0-125.0", "trial": 4, "time_elapsed": 839988, "serialpos": 1, "key_press": -1, "wordID": 1318, "type": "PRES_AUD", "trial_index": 170}, "uniqueid": "MTK3172:3C5W7UE9CGX9G8YU1FB936ETMTBMX8", "dateTime": 1520114220320}, {"current_trial": 171, "trialdata": {"rt": -1000, "trial_type": "single-audio", "word": "tombstone", "stimulus": "/static/audio/wordpool/TOMBSTONE.wav", "conditions": [12, 800, "a", 24000], "internal_node_id": "0.0-126.0", "trial": 4, "time_elapsed": 841877, "serialpos": 2, "key_press": -1, "wordID": 1477, "type": "PRES_AUD", "trial_index": 171}, "uniqueid": "MTK3172:3C5W7UE9CGX9G8YU1FB936ETMTBMX8", "dateTime": 1520114222209}, {"current_trial": 172, "trialdata": {"rt": -1000, "trial_type": "single-audio", "word": "braces", "stimulus": "/static/audio/wordpool/BRACES.wav", "conditions": [12, 800, "a", 24000], "internal_node_id": "0.0-127.0", "trial": 4, "time_elapsed": 843544, "serialpos": 3, "key_press": -1, "wordID": 163, "type": "PRES_AUD", "trial_index": 172}, "uniqueid": "MTK3172:3C5W7UE9CGX9G8YU1FB936ETMTBMX8", "dateTime": 1520114223876}, {"current_trial": 173, "trialdata": {"rt": -1000, "trial_type": "single-audio", "word": "tablet", "stimulus": "/static/audio/wordpool/TABLET.wav", "conditions": [12, 800, "a", 24000], "internal_node_id": "0.0-128.0", "trial": 4, "time_elapsed": 845166, "serialpos": 4, "key_press": -1, "wordID": 1426, "type": "PRES_AUD", "trial_index": 173}, "uniqueid": "MTK3172:3C5W7UE9CGX9G8YU1FB936ETMTBMX8", "dateTime": 1520114225498}, {"current_trial": 174, "trialdata": {"rt": -1000, "trial_type": "single-audio", "word": "banker", "stimulus": "/static/audio/wordpool/BANKER.wav", "conditions": [12, 800, "a", 24000], "internal_node_id": "0.0-129.0", "trial": 4, "time_elapsed": 846987, "serialpos": 5, "key_press": -1, "wordID": 83, "type": "PRES_AUD", "trial_index": 174}, "uniqueid": "MTK3172:3C5W7UE9CGX9G8YU1FB936ETMTBMX8", "dateTime": 1520114227320}, {"current_trial": 175, "trialdata": {"rt": -1000, "trial_type": "single-audio", "word": "pork", "stimulus": "/static/audio/wordpool/PORK.wav", "conditions": [12, 800, "a", 24000], "internal_node_id": "0.0-130.0", "trial": 4, "time_elapsed": 848962, "serialpos": 6, "key_press": -1, "wordID": 1107, "type": "PRES_AUD", "trial_index": 175}, "uniqueid": "MTK3172:3C5W7UE9CGX9G8YU1FB936ETMTBMX8", "dateTime": 1520114229294}, {"current_trial": 176, "trialdata": {"rt": -1000, "trial_type": "single-audio", "word": "sausage", "stimulus": "/static/audio/wordpool/SAUSAGE.wav", "conditions": [12, 800, "a", 24000], "internal_node_id": "0.0-131.0", "trial": 4, "time_elapsed": 850900, "serialpos": 7, "key_press": -1, "wordID": 1237, "type": "PRES_AUD", "trial_index": 176}, "uniqueid": "MTK3172:3C5W7UE9CGX9G8YU1FB936ETMTBMX8", "dateTime": 1520114231232}, {"current_trial": 177, "trialdata": {"rt": -1000, "trial_type": "single-audio", "word": "pluto", "stimulus": "/static/audio/wordpool/PLUTO.wav", "conditions": [12, 800, "a", 24000], "internal_node_id": "0.0-132.0", "trial": 4, "time_elapsed": 852530, "serialpos": 8, "key_press": -1, "wordID": 1091, "type": "PRES_AUD", "trial_index": 177}, "uniqueid": "MTK3172:3C5W7UE9CGX9G8YU1FB936ETMTBMX8", "dateTime": 1520114232862}, {"current_trial": 178, "trialdata": {"rt": -1000, "trial_type": "single-audio", "word": "world", "stimulus": "/static/audio/wordpool/WORLD.wav", "conditions": [12, 800, "a", 24000], "internal_node_id": "0.0-133.0", "trial": 4, "time_elapsed": 854470, "serialpos": 9, "key_press": -1, "wordID": 1621, "type": "PRES_AUD", "trial_index": 178}, "uniqueid": "MTK3172:3C5W7UE9CGX9G8YU1FB936ETMTBMX8", "dateTime": 1520114234802}, {"current_trial": 179, "trialdata": {"rt": -1000, "trial_type": "single-audio", "word": "dress", "stimulus": "/static/audio/wordpool/DRESS.wav", "conditions": [12, 800, "a", 24000], "internal_node_id": "0.0-134.0", "trial": 4, "time_elapsed": 856169, "serialpos": 10, "key_press": -1, "wordID": 494, "type": "PRES_AUD", "trial_index": 179}, "uniqueid": "MTK3172:3C5W7UE9CGX9G8YU1FB936ETMTBMX8", "dateTime": 1520114236501}, {"current_trial": 180, "trialdata": {"rt": -1000, "trial_type": "single-audio", "word": "hatchet", "stimulus": "/static/audio/wordpool/HATCHET.wav", "conditions": [12, 800, "a", 24000], "internal_node_id": "0.0-135.0", "trial": 4, "time_elapsed": 857978, "serialpos": 11, "key_press": -1, "wordID": 690, "type": "PRES_AUD", "trial_index": 180}, "uniqueid": "MTK3172:3C5W7UE9CGX9G8YU1FB936ETMTBMX8", "dateTime": 1520114238310}, {"current_trial": 181, "trialdata": {"rt": -1, "trial_type": "single-stim", "stimulus": "", "internal_node_id": "0.0-136.0-0.0", "time_elapsed": 859361, "key_press": -1, "type": "PRE_RECALL_DELAY", "trial_index": 181}, "uniqueid": "MTK3172:3C5W7UE9CGX9G8YU1FB936ETMTBMX8", "dateTime": 1520114239693}, {"current_trial": 182, "trialdata": {"rt": -1000, "trial_type": "single-audio", "stimulus": "/static/audio/400Hz.wav", "internal_node_id": "0.0-137.0", "time_elapsed": 859862, "key_press": -1, "type": "PRE_RECALL_ALERT", "trial_index": 182}, "uniqueid": "MTK3172:3C5W7UE9CGX9G8YU1FB936ETMTBMX8", "dateTime": 1520114240194}, {"current_trial": 183, "trialdata": {"rt": [8170, 13042, 16442, 19088, 21760, 23276, 26588, 28748, 31768, 33800], "recwords": ["tombstone", "braces", "hatchet", "dress", "world", "pluto", "sausage", "pork", "banker", "tablet"], "key_times": [4464, 4544, 4714, 4899, 5188, 6590, 6671, 6853, 7262, 8170, 9276, 9496, 9658, 9959, 10140, 10330, 13042, 13790, 14007, 14427, 14675, 14879, 15666, 15902, 16442, 17442, 17607, 17728, 17993, 18161, 19088, 20879, 21032, 21165, 21323, 21473, 21760, 22092, 22277, 22480, 22669, 22778, 23276, 24070, 24318, 25159, 25428, 25606, 25736, 25871, 26588, 26934, 27147, 27260, 27628, 27784, 27943, 28081, 28191, 28748, 30386, 30520, 30642, 30835, 30956, 31029, 31768, 32480, 32621, 32824, 33112, 33220, 33333, 33800], "trial_type": "free-recall", "conditions": [12, 800, "a", 24000], "internal_node_id": "0.0-138.0-0.0", "key_presses": [84, 79, 77, 66, 83, 84, 79, 78, 69, 13, 66, 82, 65, 67, 69, 83, 13, 72, 65, 84, 67, 72, 69, 84, 13, 68, 82, 69, 83, 83, 13, 87, 79, 82, 76, 68, 13, 80, 76, 85, 84, 79, 13, 83, 65, 85, 83, 65, 71, 69, 13, 80, 82, 79, 8, 8, 79, 82, 75, 13, 66, 65, 78, 75, 69, 82, 13, 84, 65, 66, 76, 69, 84, 13], "trial": 4, "time_elapsed": 919866, "type": "FREE_RECALL", "trial_index": 183}, "uniqueid": "MTK3172:3C5W7UE9CGX9G8YU1FB936ETMTBMX8", "dateTime": 1520114300201}, {"current_trial": 184, "trialdata": {"rt": 2239, "trial_type": "text", "internal_node_id": "0.0-139.0", "time_elapsed": 924109, "key_press": 13, "type": "INSTRUCTIONS", "trial_index": 184}, "uniqueid": "MTK3172:3C5W7UE9CGX9G8YU1FB936ETMTBMX8", "dateTime": 1520114304441}, {"current_trial": 185, "trialdata": {"rt": [4221, 8078, 11461], "trial_type": "math-distractor", "key_times": [3591, 3719, 4221, 7157, 7300, 8078, 11128, 11264, 11461], "responses": ["15", "18", "20"], "num2": [6, 6, 9, 6], "num3": [5, 5, 4, 6], "conditions": [24, 1600, "a", 12000], "internal_node_id": "0.0-140.0", "key_presses": [97, 101, 13, 97, 104, 13, 98, 96, 13], "trial": 5, "time_elapsed": 938112, "type": "DISTRACTOR", "trial_index": 185, "num1": [4, 7, 7, 3]}, "uniqueid": "MTK3172:3C5W7UE9CGX9G8YU1FB936ETMTBMX8", "dateTime": 1520114318444}, {"current_trial": 186, "trialdata": {"rt": -1, "trial_type": "single-stim", "stimulus": "<p id=\"stim\">10</p>", "internal_node_id": "0.0-141.0-0.0", "time_elapsed": 941114, "key_press": -1, "trial_index": 186}, "uniqueid": "MTK3172:3C5W7UE9CGX9G8YU1FB936ETMTBMX8", "dateTime": 1520114321446}, {"current_trial": 187, "trialdata": {"rt": -1, "trial_type": "single-stim", "stimulus": "<p id=\"stim\">9</p>", "internal_node_id": "0.0-141.0-1.0", "time_elapsed": 942115, "key_press": -1, "trial_index": 187}, "uniqueid": "MTK3172:3C5W7UE9CGX9G8YU1FB936ETMTBMX8", "dateTime": 1520114322447}, {"current_trial": 188, "trialdata": {"rt": -1, "trial_type": "single-stim", "stimulus": "<p id=\"stim\">8</p>", "internal_node_id": "0.0-141.0-2.0", "time_elapsed": 943116, "key_press": -1, "trial_index": 188}, "uniqueid": "MTK3172:3C5W7UE9CGX9G8YU1FB936ETMTBMX8", "dateTime": 1520114323448}, {"current_trial": 189, "trialdata": {"rt": -1, "trial_type": "single-stim", "stimulus": "<p id=\"stim\">7</p>", "internal_node_id": "0.0-141.0-3.0", "time_elapsed": 944118, "key_press": -1, "trial_index": 189}, "uniqueid": "MTK3172:3C5W7UE9CGX9G8YU1FB936ETMTBMX8", "dateTime": 1520114324450}, {"current_trial": 190, "trialdata": {"rt": -1, "trial_type": "single-stim", "stimulus": "<p id=\"stim\">6</p>", "internal_node_id": "0.0-141.0-4.0", "time_elapsed": 945119, "key_press": -1, "trial_index": 190}, "uniqueid": "MTK3172:3C5W7UE9CGX9G8YU1FB936ETMTBMX8", "dateTime": 1520114325451}, {"current_trial": 191, "trialdata": {"rt": -1, "trial_type": "single-stim", "stimulus": "<p id=\"stim\">5</p>", "internal_node_id": "0.0-141.0-5.0", "time_elapsed": 946120, "key_press": -1, "trial_index": 191}, "uniqueid": "MTK3172:3C5W7UE9CGX9G8YU1FB936ETMTBMX8", "dateTime": 1520114326452}, {"current_trial": 192, "trialdata": {"rt": -1, "trial_type": "single-stim", "stimulus": "<p id=\"stim\">4</p>", "internal_node_id": "0.0-141.0-6.0", "time_elapsed": 947122, "key_press": -1, "trial_index": 192}, "uniqueid": "MTK3172:3C5W7UE9CGX9G8YU1FB936ETMTBMX8", "dateTime": 1520114327454}, {"current_trial": 193, "trialdata": {"rt": -1, "trial_type": "single-stim", "stimulus": "<p id=\"stim\">3</p>", "internal_node_id": "0.0-141.0-7.0", "time_elapsed": 948124, "key_press": -1, "trial_index": 193}, "uniqueid": "MTK3172:3C5W7UE9CGX9G8YU1FB936ETMTBMX8", "dateTime": 1520114328456}, {"current_trial": 194, "trialdata": {"rt": -1, "trial_type": "single-stim", "stimulus": "<p id=\"stim\">2</p>", "internal_node_id": "0.0-141.0-8.0", "time_elapsed": 949125, "key_press": -1, "trial_index": 194}, "uniqueid": "MTK3172:3C5W7UE9CGX9G8YU1FB936ETMTBMX8", "dateTime": 1520114329457}, {"current_trial": 195, "trialdata": {"rt": -1, "trial_type": "single-stim", "stimulus": "<p id=\"stim\">1</p>", "internal_node_id": "0.0-141.0-9.0", "time_elapsed": 950126, "key_press": -1, "trial_index": 195}, "uniqueid": "MTK3172:3C5W7UE9CGX9G8YU1FB936ETMTBMX8", "dateTime": 1520114330458}, {"current_trial": 196, "trialdata": {"rt": -1, "trial_type": "single-stim", "stimulus": "<p id=\"stim\">+</p>", "internal_node_id": "0.0-142.0-0.0", "time_elapsed": 951628, "key_press": -1, "type": "FIXATION", "trial_index": 196}, "uniqueid": "MTK3172:3C5W7UE9CGX9G8YU1FB936ETMTBMX8", "dateTime": 1520114331960}, {"current_trial": 197, "trialdata": {"rt": -1000, "trial_type": "single-audio", "word": "portrait", "stimulus": "/static/audio/wordpool/PORTRAIT.wav", "conditions": [24, 1600, "a", 12000], "internal_node_id": "0.0-143.0", "trial": 5, "time_elapsed": 954297, "serialpos": 0, "key_press": -1, "wordID": 1110, "type": "PRES_AUD", "trial_index": 197}, "uniqueid": "MTK3172:3C5W7UE9CGX9G8YU1FB936ETMTBMX8", "dateTime": 1520114334629}, {"current_trial": 198, "trialdata": {"rt": -1000, "trial_type": "single-audio", "word": "velvet", "stimulus": "/static/audio/wordpool/VELVET.wav", "conditions": [24, 1600, "a", 12000], "internal_node_id": "0.0-144.0", "trial": 5, "time_elapsed": 956773, "serialpos": 1, "key_press": -1, "wordID": 1554, "type": "PRES_AUD", "trial_index": 198}, "uniqueid": "MTK3172:3C5W7UE9CGX9G8YU1FB936ETMTBMX8", "dateTime": 1520114337106}, {"current_trial": 199, "trialdata": {"rt": -1000, "trial_type": "single-audio", "word": "sunset", "stimulus": "/static/audio/wordpool/SUNSET.wav", "conditions": [24, 1600, "a", 12000], "internal_node_id": "0.0-145.0", "trial": 5, "time_elapsed": 959502, "serialpos": 2, "key_press": -1, "wordID": 1407, "type": "PRES_AUD", "trial_index": 199}, "uniqueid": "MTK3172:3C5W7UE9CGX9G8YU1FB936ETMTBMX8", "dateTime": 1520114339834}, {"current_trial": 200, "trialdata": {"rt": -1000, "trial_type": "single-audio", "word": "passage", "stimulus": "/static/audio/wordpool/PASSAGE.wav", "conditions": [24, 1600, "a", 12000], "internal_node_id": "0.0-146.0", "trial": 5, "time_elapsed": 962193, "serialpos": 3, "key_press": -1, "wordID": 1018, "type": "PRES_AUD", "trial_index": 200}, "uniqueid": "MTK3172:3C5W7UE9CGX9G8YU1FB936ETMTBMX8", "dateTime": 1520114342525}, {"current_trial": 201, "trialdata": {"rt": -1000, "trial_type": "single-audio", "word": "scarf", "stimulus": "/static/audio/wordpool/SCARF.wav", "conditions": [24, 1600, "a", 12000], "internal_node_id": "0.0-147.0", "trial": 5, "time_elapsed": 964801, "serialpos": 4, "key_press": -1, "wordID": 1245, "type": "PRES_AUD", "trial_index": 201}, "uniqueid": "MTK3172:3C5W7UE9CGX9G8YU1FB936ETMTBMX8", "dateTime": 1520114345133}, {"current_trial": 202, "trialdata": {"rt": -1000, "trial_type": "single-audio", "word": "jello", "stimulus": "/static/audio/wordpool/JELLO.wav", "conditions": [24, 1600, "a", 12000], "internal_node_id": "0.0-148.0", "trial": 5, "time_elapsed": 967561, "serialpos": 5, "key_press": -1, "wordID": 753, "type": "PRES_AUD", "trial_index": 202}, "uniqueid": "MTK3172:3C5W7UE9CGX9G8YU1FB936ETMTBMX8", "dateTime": 1520114347893}, {"current_trial": 203, "trialdata": {"rt": -1000, "trial_type": "single-audio", "word": "scotch", "stimulus": "/static/audio/wordpool/SCOTCH.wav", "conditions": [24, 1600, "a", 12000], "internal_node_id": "0.0-149.0", "trial": 5, "time_elapsed": 970097, "serialpos": 6, "key_press": -1, "wordID": 1250, "type": "PRES_AUD", "trial_index": 203}, "uniqueid": "MTK3172:3C5W7UE9CGX9G8YU1FB936ETMTBMX8", "dateTime": 1520114350429}, {"current_trial": 204, "trialdata": {"rt": -1000, "trial_type": "single-audio", "word": "brandy", "stimulus": "/static/audio/wordpool/BRANDY.wav", "conditions": [24, 1600, "a", 12000], "internal_node_id": "0.0-150.0", "trial": 5, "time_elapsed": 972733, "serialpos": 7, "key_press": -1, "wordID": 168, "type": "PRES_AUD", "trial_index": 204}, "uniqueid": "MTK3172:3C5W7UE9CGX9G8YU1FB936ETMTBMX8", "dateTime": 1520114353065}, {"current_trial": 205, "trialdata": {"rt": -1000, "trial_type": "single-audio", "word": "bubble", "stimulus": "/static/audio/wordpool/BUBBLE.wav", "conditions": [24, 1600, "a", 12000], "internal_node_id": "0.0-151.0", "trial": 5, "time_elapsed": 975348, "serialpos": 8, "key_press": -1, "wordID": 182, "type": "PRES_AUD", "trial_index": 205}, "uniqueid": "MTK3172:3C5W7UE9CGX9G8YU1FB936ETMTBMX8", "dateTime": 1520114355680}, {"current_trial": 206, "trialdata": {"rt": -1000, "trial_type": "single-audio", "word": "pistol", "stimulus": "/static/audio/wordpool/PISTOL.wav", "conditions": [24, 1600, "a", 12000], "internal_node_id": "0.0-152.0", "trial": 5, "time_elapsed": 978105, "serialpos": 9, "key_press": -1, "wordID": 1074, "type": "PRES_AUD", "trial_index": 206}, "uniqueid": "MTK3172:3C5W7UE9CGX9G8YU1FB936ETMTBMX8", "dateTime": 1520114358438}, {"current_trial": 207, "trialdata": {"rt": -1000, "trial_type": "single-audio", "word": "country", "stimulus": "/static/audio/wordpool/COUNTRY.wav", "conditions": [24, 1600, "a", 12000], "internal_node_id": "0.0-153.0", "trial": 5, "time_elapsed": 980765, "serialpos": 10, "key_press": -1, "wordID": 387, "type": "PRES_AUD", "trial_index": 207}, "uniqueid": "MTK3172:3C5W7UE9CGX9G8YU1FB936ETMTBMX8", "dateTime": 1520114361097}, {"current_trial": 208, "trialdata": {"rt": -1000, "trial_type": "single-audio", "word": "lace", "stimulus": "/static/audio/wordpool/LACE.wav", "conditions": [24, 1600, "a", 12000], "internal_node_id": "0.0-154.0", "trial": 5, "time_elapsed": 983487, "serialpos": 11, "key_press": -1, "wordID": 791, "type": "PRES_AUD", "trial_index": 208}, "uniqueid": "MTK3172:3C5W7UE9CGX9G8YU1FB936ETMTBMX8", "dateTime": 1520114363819}, {"current_trial": 209, "trialdata": {"rt": -1000, "trial_type": "single-audio", "word": "table", "stimulus": "/static/audio/wordpool/TABLE.wav", "conditions": [24, 1600, "a", 12000], "internal_node_id": "0.0-155.0", "trial": 5, "time_elapsed": 986216, "serialpos": 12, "key_press": -1, "wordID": 1425, "type": "PRES_AUD", "trial_index": 209}, "uniqueid": "MTK3172:3C5W7UE9CGX9G8YU1FB936ETMTBMX8", "dateTime": 1520114366548}, {"current_trial": 210, "trialdata": {"rt": -1000, "trial_type": "single-audio", "word": "garbage", "stimulus": "/static/audio/wordpool/GARBAGE.wav", "conditions": [24, 1600, "a", 12000], "internal_node_id": "0.0-156.0", "trial": 5, "time_elapsed": 988840, "serialpos": 13, "key_press": -1, "wordID": 621, "type": "PRES_AUD", "trial_index": 210}, "uniqueid": "MTK3172:3C5W7UE9CGX9G8YU1FB936ETMTBMX8", "dateTime": 1520114369172}, {"current_trial": 211, "trialdata": {"rt": -1000, "trial_type": "single-audio", "word": "motel", "stimulus": "/static/audio/wordpool/MOTEL.wav", "conditions": [24, 1600, "a", 12000], "internal_node_id": "0.0-157.0", "trial": 5, "time_elapsed": 991256, "serialpos": 14, "key_press": -1, "wordID": 918, "type": "PRES_AUD", "trial_index": 211}, "uniqueid": "MTK3172:3C5W7UE9CGX9G8YU1FB936ETMTBMX8", "dateTime": 1520114371588}, {"current_trial": 212, "trialdata": {"rt": -1000, "trial_type": "single-audio", "word": "nomad", "stimulus": "/static/audio/wordpool/NOMAD.wav", "conditions": [24, 1600, "a", 12000], "internal_node_id": "0.0-158.0", "trial": 5, "time_elapsed": 994014, "serialpos": 15, "key_press": -1, "wordID": 954, "type": "PRES_AUD", "trial_index": 212}, "uniqueid": "MTK3172:3C5W7UE9CGX9G8YU1FB936ETMTBMX8", "dateTime": 1520114374346}, {"current_trial": 213, "trialdata": {"rt": -1000, "trial_type": "single-audio", "word": "tortoise", "stimulus": "/static/audio/wordpool/TORTOISE.wav", "conditions": [24, 1600, "a", 12000], "internal_node_id": "0.0-159.0", "trial": 5, "time_elapsed": 996475, "serialpos": 16, "key_press": -1, "wordID": 1485, "type": "PRES_AUD", "trial_index": 213}, "uniqueid": "MTK3172:3C5W7UE9CGX9G8YU1FB936ETMTBMX8", "dateTime": 1520114376807}, {"current_trial": 214, "trialdata": {"rt": -1000, "trial_type": "single-audio", "word": "panther", "stimulus": "/static/audio/wordpool/PANTHER.wav", "conditions": [24, 1600, "a", 12000], "internal_node_id": "0.0-160.0", "trial": 5, "time_elapsed": 998931, "serialpos": 17, "key_press": -1, "wordID": 1008, "type": "PRES_AUD", "trial_index": 214}, "uniqueid": "MTK3172:3C5W7UE9CGX9G8YU1FB936ETMTBMX8", "dateTime": 1520114379263}, {"current_trial": 215, "trialdata": {"rt": -1000, "trial_type": "single-audio", "word": "beaver", "stimulus": "/static/audio/wordpool/BEAVER.wav", "conditions": [24, 1600, "a", 12000], "internal_node_id": "0.0-161.0", "trial": 5, "time_elapsed": 1001342, "serialpos": 18, "key_press": -1, "wordID": 108, "type": "PRES_AUD", "trial_index": 215}, "uniqueid": "MTK3172:3C5W7UE9CGX9G8YU1FB936ETMTBMX8", "dateTime": 1520114381674}, {"current_trial": 216, "trialdata": {"rt": -1000, "trial_type": "single-audio", "word": "widow", "stimulus": "/static/audio/wordpool/WIDOW.wav", "conditions": [24, 1600, "a", 12000], "internal_node_id": "0.0-162.0", "trial": 5, "time_elapsed": 1003788, "serialpos": 19, "key_press": -1, "wordID": 1607, "type": "PRES_AUD", "trial_index": 216}, "uniqueid": "MTK3172:3C5W7UE9CGX9G8YU1FB936ETMTBMX8", "dateTime": 1520114384122}, {"current_trial": 217, "trialdata": {"rt": -1000, "trial_type": "single-audio", "word": "atom", "stimulus": "/static/audio/wordpool/ATOM.wav", "conditions": [24, 1600, "a", 12000], "internal_node_id": "0.0-163.0", "trial": 5, "time_elapsed": 1006354, "serialpos": 20, "key_press": -1, "wordID": 54, "type": "PRES_AUD", "trial_index": 217}, "uniqueid": "MTK3172:3C5W7UE9CGX9G8YU1FB936ETMTBMX8", "dateTime": 1520114386686}, {"current_trial": 218, "trialdata": {"rt": -1000, "trial_type": "single-audio", "word": "rabbit", "stimulus": "/static/audio/wordpool/RABBIT.wav", "conditions": [24, 1600, "a", 12000], "internal_node_id": "0.0-164.0", "trial": 5, "time_elapsed": 1009056, "serialpos": 21, "key_press": -1, "wordID": 1151, "type": "PRES_AUD", "trial_index": 218}, "uniqueid": "MTK3172:3C5W7UE9CGX9G8YU1FB936ETMTBMX8", "dateTime": 1520114389389}, {"current_trial": 219, "trialdata": {"rt": -1000, "trial_type": "single-audio", "word": "diver", "stimulus": "/static/audio/wordpool/DIVER.wav", "conditions": [24, 1600, "a", 12000], "internal_node_id": "0.0-165.0", "trial": 5, "time_elapsed": 1011659, "serialpos": 22, "key_press": -1, "wordID": 475, "type": "PRES_AUD", "trial_index": 219}, "uniqueid": "MTK3172:3C5W7UE9CGX9G8YU1FB936ETMTBMX8", "dateTime": 1520114391991}, {"current_trial": 220, "trialdata": {"rt": -1000, "trial_type": "single-audio", "word": "yarn", "stimulus": "/static/audio/wordpool/YARN.wav", "conditions": [24, 1600, "a", 12000], "internal_node_id": "0.0-166.0", "trial": 5, "time_elapsed": 1014397, "serialpos": 23, "key_press": -1, "wordID": 1630, "type": "PRES_AUD", "trial_index": 220}, "uniqueid": "MTK3172:3C5W7UE9CGX9G8YU1FB936ETMTBMX8", "dateTime": 1520114394729}, {"current_trial": 221, "trialdata": {"rt": -1, "trial_type": "single-stim", "stimulus": "", "internal_node_id": "0.0-167.0-0.0", "time_elapsed": 1015654, "key_press": -1, "type": "PRE_RECALL_DELAY", "trial_index": 221}, "uniqueid": "MTK3172:3C5W7UE9CGX9G8YU1FB936ETMTBMX8", "dateTime": 1520114395986}, {"current_trial": 222, "trialdata": {"rt": -1000, "trial_type": "single-audio", "stimulus": "/static/audio/400Hz.wav", "internal_node_id": "0.0-168.0", "time_elapsed": 1016156, "key_press": -1, "type": "PRE_RECALL_ALERT", "trial_index": 222}, "uniqueid": "MTK3172:3C5W7UE9CGX9G8YU1FB936ETMTBMX8", "dateTime": 1520114396488}, {"current_trial": 223, "trialdata": {"rt": [19392, 22170, 25014, 26218, 28354, 31244], "recwords": ["tortus", "rabbit", "beaver", "yarn", "brandy", "atom"], "key_times": [1593, 1743, 2006, 2328, 3036, 3174, 3347, 4498, 4998, 5167, 5330, 5497, 10072, 10222, 10388, 11088, 11243, 11313, 11525, 12138, 12308, 12400, 19392, 19758, 19918, 20220, 20419, 20447, 20535, 20876, 21033, 21189, 21320, 21452, 21579, 22170, 23622, 23816, 24084, 24323, 24499, 24604, 25014, 25302, 25386, 25499, 25893, 26218, 27372, 27574, 27696, 27839, 27982, 28092, 28354, 29848, 30022, 30131, 30292, 31244], "trial_type": "free-recall", "conditions": [24, 1600, "a", 12000], "internal_node_id": "0.0-169.0-0.0", "key_presses": [84, 79, 82, 84, 79, 85, 83, 69, 8, 8, 8, 8, 85, 83, 69, 8, 8, 69, 83, 8, 8, 83, 13, 82, 65, 66, 71, 72, 73, 8, 8, 8, 66, 73, 84, 13, 66, 69, 65, 86, 69, 82, 13, 89, 65, 82, 78, 13, 66, 82, 65, 78, 68, 89, 13, 65, 84, 79, 77, 13], "trial": 5, "time_elapsed": 1076159, "type": "FREE_RECALL", "trial_index": 223}, "uniqueid": "MTK3172:3C5W7UE9CGX9G8YU1FB936ETMTBMX8", "dateTime": 1520114456496}, {"current_trial": 224, "trialdata": {"rt": 11026, "trial_type": "text", "internal_node_id": "0.0-170.0", "time_elapsed": 1089191, "key_press": 13, "type": "INSTRUCTIONS", "trial_index": 224}, "uniqueid": "MTK3172:3C5W7UE9CGX9G8YU1FB936ETMTBMX8", "dateTime": 1520114469524}, {"current_trial": 225, "trialdata": {"rt": [4871, 7769, 9243, 13439, 17297, 21381], "trial_type": "math-distractor", "key_times": [4319, 4552, 4871, 7445, 7769, 8954, 9243, 12935, 13081, 13439, 16833, 17028, 17297, 20725, 21091, 21381], "responses": ["20", "9", "3", "22", "17", "18"], "num2": [6, 6, 1, 5, 8, 8, 4], "num3": [8, 2, 1, 8, 3, 3, 7], "conditions": [12, 1600, "a", 24000], "internal_node_id": "0.0-171.0", "key_presses": [98, 96, 13, 105, 13, 99, 13, 98, 98, 13, 97, 103, 13, 97, 104, 13], "trial": 6, "time_elapsed": 1115194, "type": "DISTRACTOR", "trial_index": 225, "num1": [6, 1, 1, 9, 6, 7, 8]}, "uniqueid": "MTK3172:3C5W7UE9CGX9G8YU1FB936ETMTBMX8", "dateTime": 1520114495526}, {"current_trial": 226, "trialdata": {"rt": -1, "trial_type": "single-stim", "stimulus": "<p id=\"stim\">10</p>", "internal_node_id": "0.0-172.0-0.0", "time_elapsed": 1118197, "key_press": -1, "trial_index": 226}, "uniqueid": "MTK3172:3C5W7UE9CGX9G8YU1FB936ETMTBMX8", "dateTime": 1520114498529}, {"current_trial": 227, "trialdata": {"rt": -1, "trial_type": "single-stim", "stimulus": "<p id=\"stim\">9</p>", "internal_node_id": "0.0-172.0-1.0", "time_elapsed": 1119198, "key_press": -1, "trial_index": 227}, "uniqueid": "MTK3172:3C5W7UE9CGX9G8YU1FB936ETMTBMX8", "dateTime": 1520114499530}, {"current_trial": 228, "trialdata": {"rt": -1, "trial_type": "single-stim", "stimulus": "<p id=\"stim\">8</p>", "internal_node_id": "0.0-172.0-2.0", "time_elapsed": 1120199, "key_press": -1, "trial_index": 228}, "uniqueid": "MTK3172:3C5W7UE9CGX9G8YU1FB936ETMTBMX8", "dateTime": 1520114500531}, {"current_trial": 229, "trialdata": {"rt": -1, "trial_type": "single-stim", "stimulus": "<p id=\"stim\">7</p>", "internal_node_id": "0.0-172.0-3.0", "time_elapsed": 1121200, "key_press": -1, "trial_index": 229}, "uniqueid": "MTK3172:3C5W7UE9CGX9G8YU1FB936ETMTBMX8", "dateTime": 1520114501532}, {"current_trial": 230, "trialdata": {"rt": -1, "trial_type": "single-stim", "stimulus": "<p id=\"stim\">6</p>", "internal_node_id": "0.0-172.0-4.0", "time_elapsed": 1122201, "key_press": -1, "trial_index": 230}, "uniqueid": "MTK3172:3C5W7UE9CGX9G8YU1FB936ETMTBMX8", "dateTime": 1520114502533}, {"current_trial": 231, "trialdata": {"rt": -1, "trial_type": "single-stim", "stimulus": "<p id=\"stim\">5</p>", "internal_node_id": "0.0-172.0-5.0", "time_elapsed": 1123203, "key_press": -1, "trial_index": 231}, "uniqueid": "MTK3172:3C5W7UE9CGX9G8YU1FB936ETMTBMX8", "dateTime": 1520114503535}, {"current_trial": 232, "trialdata": {"rt": -1, "trial_type": "single-stim", "stimulus": "<p id=\"stim\">4</p>", "internal_node_id": "0.0-172.0-6.0", "time_elapsed": 1124204, "key_press": -1, "trial_index": 232}, "uniqueid": "MTK3172:3C5W7UE9CGX9G8YU1FB936ETMTBMX8", "dateTime": 1520114504536}, {"current_trial": 233, "trialdata": {"rt": -1, "trial_type": "single-stim", "stimulus": "<p id=\"stim\">3</p>", "internal_node_id": "0.0-172.0-7.0", "time_elapsed": 1125206, "key_press": -1, "trial_index": 233}, "uniqueid": "MTK3172:3C5W7UE9CGX9G8YU1FB936ETMTBMX8", "dateTime": 1520114505538}, {"current_trial": 234, "trialdata": {"rt": -1, "trial_type": "single-stim", "stimulus": "<p id=\"stim\">2</p>", "internal_node_id": "0.0-172.0-8.0", "time_elapsed": 1126206, "key_press": -1, "trial_index": 234}, "uniqueid": "MTK3172:3C5W7UE9CGX9G8YU1FB936ETMTBMX8", "dateTime": 1520114506539}, {"current_trial": 235, "trialdata": {"rt": -1, "trial_type": "single-stim", "stimulus": "<p id=\"stim\">1</p>", "internal_node_id": "0.0-172.0-9.0", "time_elapsed": 1127208, "key_press": -1, "trial_index": 235}, "uniqueid": "MTK3172:3C5W7UE9CGX9G8YU1FB936ETMTBMX8", "dateTime": 1520114507540}, {"current_trial": 236, "trialdata": {"rt": -1, "trial_type": "single-stim", "stimulus": "<p id=\"stim\">+</p>", "internal_node_id": "0.0-173.0-0.0", "time_elapsed": 1128709, "key_press": -1, "type": "FIXATION", "trial_index": 236}, "uniqueid": "MTK3172:3C5W7UE9CGX9G8YU1FB936ETMTBMX8", "dateTime": 1520114509041}, {"current_trial": 237, "trialdata": {"rt": -1000, "trial_type": "single-audio", "word": "robin", "stimulus": "/static/audio/wordpool/ROBIN.wav", "conditions": [12, 1600, "a", 24000], "internal_node_id": "0.0-174.0", "trial": 6, "time_elapsed": 1131415, "serialpos": 0, "key_press": -1, "wordID": 1198, "type": "PRES_AUD", "trial_index": 237}, "uniqueid": "MTK3172:3C5W7UE9CGX9G8YU1FB936ETMTBMX8", "dateTime": 1520114511747}, {"current_trial": 238, "trialdata": {"rt": -1000, "trial_type": "single-audio", "word": "wasp", "stimulus": "/static/audio/wordpool/WASP.wav", "conditions": [12, 1600, "a", 24000], "internal_node_id": "0.0-175.0", "trial": 6, "time_elapsed": 1134162, "serialpos": 1, "key_press": -1, "wordID": 1592, "type": "PRES_AUD", "trial_index": 238}, "uniqueid": "MTK3172:3C5W7UE9CGX9G8YU1FB936ETMTBMX8", "dateTime": 1520114514494}, {"current_trial": 239, "trialdata": {"rt": -1000, "trial_type": "single-audio", "word": "cafe", "stimulus": "/static/audio/wordpool/CAFE.wav", "conditions": [12, 1600, "a", 24000], "internal_node_id": "0.0-176.0", "trial": 6, "time_elapsed": 1136900, "serialpos": 2, "key_press": -1, "wordID": 215, "type": "PRES_AUD", "trial_index": 239}, "uniqueid": "MTK3172:3C5W7UE9CGX9G8YU1FB936ETMTBMX8", "dateTime": 1520114517232}, {"current_trial": 240, "trialdata": {"rt": -1000, "trial_type": "single-audio", "word": "star", "stimulus": "/static/audio/wordpool/STAR.wav", "conditions": [12, 1600, "a", 24000], "internal_node_id": "0.0-177.0", "trial": 6, "time_elapsed": 1139529, "serialpos": 3, "key_press": -1, "wordID": 1372, "type": "PRES_AUD", "trial_index": 240}, "uniqueid": "MTK3172:3C5W7UE9CGX9G8YU1FB936ETMTBMX8", "dateTime": 1520114519861}, {"current_trial": 241, "trialdata": {"rt": -1000, "trial_type": "single-audio", "word": "razor", "stimulus": "/static/audio/wordpool/RAZOR.wav", "conditions": [12, 1600, "a", 24000], "internal_node_id": "0.0-178.0", "trial": 6, "time_elapsed": 1142129, "serialpos": 4, "key_press": -1, "wordID": 1170, "type": "PRES_AUD", "trial_index": 241}, "uniqueid": "MTK3172:3C5W7UE9CGX9G8YU1FB936ETMTBMX8", "dateTime": 1520114522461}, {"current_trial": 242, "trialdata": {"rt": -1000, "trial_type": "single-audio", "word": "spouse", "stimulus": "/static/audio/wordpool/SPOUSE.wav", "conditions": [12, 1600, "a", 24000], "internal_node_id": "0.0-179.0", "trial": 6, "time_elapsed": 1144646, "serialpos": 5, "key_press": -1, "wordID": 1357, "type": "PRES_AUD", "trial_index": 242}, "uniqueid": "MTK3172:3C5W7UE9CGX9G8YU1FB936ETMTBMX8", "dateTime": 1520114524978}, {"current_trial": 243, "trialdata": {"rt": -1000, "trial_type": "single-audio", "word": "sphinx", "stimulus": "/static/audio/wordpool/SPHINX.wav", "conditions": [12, 1600, "a", 24000], "internal_node_id": "0.0-180.0", "trial": 6, "time_elapsed": 1147430, "serialpos": 6, "key_press": -1, "wordID": 1348, "type": "PRES_AUD", "trial_index": 243}, "uniqueid": "MTK3172:3C5W7UE9CGX9G8YU1FB936ETMTBMX8", "dateTime": 1520114527762}, {"current_trial": 244, "trialdata": {"rt": -1000, "trial_type": "single-audio", "word": "glass", "stimulus": "/static/audio/wordpool/GLASS.wav", "conditions": [12, 1600, "a", 24000], "internal_node_id": "0.0-181.0", "trial": 6, "time_elapsed": 1150185, "serialpos": 7, "key_press": -1, "wordID": 638, "type": "PRES_AUD", "trial_index": 244}, "uniqueid": "MTK3172:3C5W7UE9CGX9G8YU1FB936ETMTBMX8", "dateTime": 1520114530518}, {"current_trial": 245, "trialdata": {"rt": -1000, "trial_type": "single-audio", "word": "orange", "stimulus": "/static/audio/wordpool/ORANGE.wav", "conditions": [12, 1600, "a", 24000], "internal_node_id": "0.0-182.0", "trial": 6, "time_elapsed": 1152712, "serialpos": 8, "key_press": -1, "wordID": 979, "type": "PRES_AUD", "trial_index": 245}, "uniqueid": "MTK3172:3C5W7UE9CGX9G8YU1FB936ETMTBMX8", "dateTime": 1520114533044}, {"current_trial": 246, "trialdata": {"rt": -1000, "trial_type": "single-audio", "word": "badge", "stimulus": "/static/audio/wordpool/BADGE.wav", "conditions": [12, 1600, "a", 24000], "internal_node_id": "0.0-183.0", "trial": 6, "time_elapsed": 1155393, "serialpos": 9, "key_press": -1, "wordID": 67, "type": "PRES_AUD", "trial_index": 246}, "uniqueid": "MTK3172:3C5W7UE9CGX9G8YU1FB936ETMTBMX8", "dateTime": 1520114535725}, {"current_trial": 247, "tri