{"assignmentId": "3634BBTX0P16K3HIG67V56752V4IF3", "workerId": "MTK3411", "questiondata": {"avail_screen_height": 728, "color_depth": 24, "screen_width": 1366, "pixel_depth": 24, "avail_screen_width": 1366, "screen_height": 768}, "bonus": 0, "hitId": "3S4TINXCC0UOGOIBJXT2HTGME0SBOI", "counterbalance": 1153, "useragent": "Mozilla/5.0 (Windows NT 6.2; Win64; x64) AppleWebKit/537.36 (KHTML, like Gecko) Chrome/64.0.3282.186 Safari/537.36", "eventdata": [{"eventtype": "initialized", "interval": 0, "value": null, "timestamp": 1520530190639}, {"eventtype": "window_resize", "interval": 0, "value": [1366, 721], "timestamp": 1520530190639}, {"eventtype": "focus", "interval": 23014, "value": "off", "timestamp": 1520530213653}, {"eventtype": "focus", "interval": 8468, "value": "on", "timestamp": 1520530222121}, {"eventtype": "focus", "interval": 9716, "value": "off", "timestamp": 1520530231837}, {"eventtype": "focus", "interval": 15164, "value": "on", "timestamp": 1520530247001}, {"eventtype": "focus", "interval": 1382784, "value": "off", "timestamp": 1520531629785}, {"eventtype": "focus", "interval": 7751, "value": "on", "timestamp": 1520531637536}, {"eventtype": "focus", "interval": 547957, "value": "off", "timestamp": 1520532185493}, {"eventtype": "focus", "interval": 11675, "value": "on", "timestamp": 1520532197168}, {"eventtype": "focus", "interval": 1002217, "value": "off", "timestamp": 1520533199385}, {"eventtype": "focus", "interval": 6571, "value": "on", "timestamp": 1520533205956}], "data": [{"current_trial": 0, "trialdata": {"rt": 5328, "trial_type": "text", "internal_node_id": "0.0-0.0", "time_elapsed": 5330, "key_press": 75, "type": "INSTRUCTIONS", "trial_index": 0}, "uniqueid": "MTK3411:3634BBTX0P16K3HIG67V56752V4IF3", "dateTime": 1520530224750}, {"current_trial": 1, "trialdata": {"rt": 31921, "trial_type": "text", "internal_node_id": "0.0-1.0", "time_elapsed": 37255, "key_press": 75, "type": "INSTRUCTIONS", "trial_index": 1}, "uniqueid": "MTK3411:3634BBTX0P16K3HIG67V56752V4IF3", "dateTime": 1520530256674}, {"current_trial": 2, "trialdata": {"rt": [30454], "trial_type": "audio-test", "responses": ["ocean"], "internal_node_id": "0.0-2.0", "time_elapsed": 67770, "type": "AUDIO_TEST", "trial_index": 2}, "uniqueid": "MTK3411:3634BBTX0P16K3HIG67V56752V4IF3", "dateTime": 1520530287188}, {"current_trial": 3, "trialdata": {"rt": [9331], "trial_type": "audio-test", "responses": ["crystal"], "internal_node_id": "0.0-3.0", "time_elapsed": 77107, "type": "AUDIO_TEST", "trial_index": 3}, "uniqueid": "MTK3411:3634BBTX0P16K3HIG67V56752V4IF3", "dateTime": 1520530296525}, {"current_trial": 4, "trialdata": {"rt": [6280], "trial_type": "audio-test", "responses": ["spice"], "internal_node_id": "0.0-4.0", "time_elapsed": 83393, "type": "AUDIO_TEST", "trial_index": 4}, "uniqueid": "MTK3411:3634BBTX0P16K3HIG67V56752V4IF3", "dateTime": 1520530302811}, {"current_trial": 5, "trialdata": {"rt": 26584, "trial_type": "survey-text", "responses": "{\"Q0\":\"9\",\"Q1\":\"4\",\"Q2\":\"5\"}", "internal_node_id": "0.0-5.0", "time_elapsed": 110732, "type": "SLEEP_SURVEY", "trial_index": 5}, "uniqueid": "MTK3411:3634BBTX0P16K3HIG67V56752V4IF3", "dateTime": 1520530330150}, {"current_trial": 6, "trialdata": {"rt": 36038, "trial_type": "text", "internal_node_id": "0.0-6.0", "time_elapsed": 147770, "key_press": 72, "type": "INSTRUCTIONS", "trial_index": 6}, "uniqueid": "MTK3411:3634BBTX0P16K3HIG67V56752V4IF3", "dateTime": 1520530367188}, {"current_trial": 7, "trialdata": {"rt": 20553, "trial_type": "text", "internal_node_id": "0.0-7.0", "time_elapsed": 168824, "key_press": 32, "type": "INSTRUCTIONS", "trial_index": 7}, "uniqueid": "MTK3411:3634BBTX0P16K3HIG67V56752V4IF3", "dateTime": 1520530388243}, {"current_trial": 8, "trialdata": {"rt": 15876, "trial_type": "text", "internal_node_id": "0.0-8.0", "time_elapsed": 185202, "key_press": 32, "type": "INSTRUCTIONS", "trial_index": 8}, "uniqueid": "MTK3411:3634BBTX0P16K3HIG67V56752V4IF3", "dateTime": 1520530404620}, {"current_trial": 9, "trialdata": {"rt": [4737, 8884, 11911, 17904], "trial_type": "math-distractor", "key_times": [4125, 4360, 4737, 7987, 8166, 8884, 11373, 11911, 17017, 17198, 17904], "responses": ["16", "12", "8", "23"], "num2": [7, 7, 5, 8, 3], "num3": [7, 3, 1, 6, 7], "conditions": [18, 1200, "a", 18000], "internal_node_id": "0.0-9.0", "key_presses": [97, 102, 13, 97, 98, 13, 104, 13, 98, 99, 13], "trial": 0, "time_elapsed": 204209, "type": "DISTRACTOR", "trial_index": 9, "num1": [2, 2, 2, 9, 3]}, "uniqueid": "MTK3411:3634BBTX0P16K3HIG67V56752V4IF3", "dateTime": 1520530423627}, {"current_trial": 10, "trialdata": {"rt": -1, "trial_type": "single-stim", "stimulus": "<p id=\"stim\">10</p>", "internal_node_id": "0.0-10.0-0.0", "time_elapsed": 207209, "key_press": -1, "trial_index": 10}, "uniqueid": "MTK3411:3634BBTX0P16K3HIG67V56752V4IF3", "dateTime": 1520530426629}, {"current_trial": 11, "trialdata": {"rt": -1, "trial_type": "single-stim", "stimulus": "<p id=\"stim\">9</p>", "internal_node_id": "0.0-10.0-1.0", "time_elapsed": 208211, "key_press": -1, "trial_index": 11}, "uniqueid": "MTK3411:3634BBTX0P16K3HIG67V56752V4IF3", "dateTime": 1520530427629}, {"current_trial": 12, "trialdata": {"rt": -1, "trial_type": "single-stim", "stimulus": "<p id=\"stim\">8</p>", "internal_node_id": "0.0-10.0-2.0", "time_elapsed": 209212, "key_press": -1, "trial_index": 12}, "uniqueid": "MTK3411:3634BBTX0P16K3HIG67V56752V4IF3", "dateTime": 1520530428630}, {"current_trial": 13, "trialdata": {"rt": -1, "trial_type": "single-stim", "stimulus": "<p id=\"stim\">7</p>", "internal_node_id": "0.0-10.0-3.0", "time_elapsed": 210220, "key_press": -1, "trial_index": 13}, "uniqueid": "MTK3411:3634BBTX0P16K3HIG67V56752V4IF3", "dateTime": 1520530429638}, {"current_trial": 14, "trialdata": {"rt": -1, "trial_type": "single-stim", "stimulus": "<p id=\"stim\">6</p>", "internal_node_id": "0.0-10.0-4.0", "time_elapsed": 211230, "key_press": -1, "trial_index": 14}, "uniqueid": "MTK3411:3634BBTX0P16K3HIG67V56752V4IF3", "dateTime": 1520530430648}, {"current_trial": 15, "trialdata": {"rt": -1, "trial_type": "single-stim", "stimulus": "<p id=\"stim\">5</p>", "internal_node_id": "0.0-10.0-5.0", "time_elapsed": 212231, "key_press": -1, "trial_index": 15}, "uniqueid": "MTK3411:3634BBTX0P16K3HIG67V56752V4IF3", "dateTime": 1520530431649}, {"current_trial": 16, "trialdata": {"rt": -1, "trial_type": "single-stim", "stimulus": "<p id=\"stim\">4</p>", "internal_node_id": "0.0-10.0-6.0", "time_elapsed": 213232, "key_press": -1, "trial_index": 16}, "uniqueid": "MTK3411:3634BBTX0P16K3HIG67V56752V4IF3", "dateTime": 1520530432650}, {"current_trial": 17, "trialdata": {"rt": -1, "trial_type": "single-stim", "stimulus": "<p id=\"stim\">3</p>", "internal_node_id": "0.0-10.0-7.0", "time_elapsed": 214233, "key_press": -1, "trial_index": 17}, "uniqueid": "MTK3411:3634BBTX0P16K3HIG67V56752V4IF3", "dateTime": 1520530433651}, {"current_trial": 18, "trialdata": {"rt": -1, "trial_type": "single-stim", "stimulus": "<p id=\"stim\">2</p>", "internal_node_id": "0.0-10.0-8.0", "time_elapsed": 215235, "key_press": -1, "trial_index": 18}, "uniqueid": "MTK3411:3634BBTX0P16K3HIG67V56752V4IF3", "dateTime": 1520530434653}, {"current_trial": 19, "trialdata": {"rt": -1, "trial_type": "single-stim", "stimulus": "<p id=\"stim\">1</p>", "internal_node_id": "0.0-10.0-9.0", "time_elapsed": 216237, "key_press": -1, "trial_index": 19}, "uniqueid": "MTK3411:3634BBTX0P16K3HIG67V56752V4IF3", "dateTime": 1520530435657}, {"current_trial": 20, "trialdata": {"rt": -1, "trial_type": "single-stim", "stimulus": "<p id=\"stim\">+</p>", "internal_node_id": "0.0-11.0-0.0", "time_elapsed": 217740, "key_press": -1, "type": "FIXATION", "trial_index": 20}, "uniqueid": "MTK3411:3634BBTX0P16K3HIG67V56752V4IF3", "dateTime": 1520530437158}, {"current_trial": 21, "trialdata": {"rt": -1000, "trial_type": "single-audio", "word": "server", "stimulus": "/static/audio/wordpool/SERVER.wav", "conditions": [18, 1200, "a", 18000], "internal_node_id": "0.0-12.0", "trial": 0, "time_elapsed": 220118, "serialpos": 0, "key_press": -1, "wordID": 1271, "type": "PRES_AUD", "trial_index": 21}, "uniqueid": "MTK3411:3634BBTX0P16K3HIG67V56752V4IF3", "dateTime": 1520530439536}, {"current_trial": 22, "trialdata": {"rt": -1000, "trial_type": "single-audio", "word": "rocket", "stimulus": "/static/audio/wordpool/ROCKET.wav", "conditions": [18, 1200, "a", 18000], "internal_node_id": "0.0-13.0", "trial": 0, "time_elapsed": 222510, "serialpos": 1, "key_press": -1, "wordID": 1201, "type": "PRES_AUD", "trial_index": 22}, "uniqueid": "MTK3411:3634BBTX0P16K3HIG67V56752V4IF3", "dateTime": 1520530441928}, {"current_trial": 23, "trialdata": {"rt": -1000, "trial_type": "single-audio", "word": "rod", "stimulus": "/static/audio/wordpool/ROD.wav", "conditions": [18, 1200, "a", 18000], "internal_node_id": "0.0-14.0", "trial": 0, "time_elapsed": 224822, "serialpos": 2, "key_press": -1, "wordID": 1202, "type": "PRES_AUD", "trial_index": 23}, "uniqueid": "MTK3411:3634BBTX0P16K3HIG67V56752V4IF3", "dateTime": 1520530444240}, {"current_trial": 24, "trialdata": {"rt": -1000, "trial_type": "single-audio", "word": "rug", "stimulus": "/static/audio/wordpool/RUG.wav", "conditions": [18, 1200, "a", 18000], "internal_node_id": "0.0-15.0", "trial": 0, "time_elapsed": 227119, "serialpos": 3, "key_press": -1, "wordID": 1214, "type": "PRES_AUD", "trial_index": 24}, "uniqueid": "MTK3411:3634BBTX0P16K3HIG67V56752V4IF3", "dateTime": 1520530446537}, {"current_trial": 25, "trialdata": {"rt": -1000, "trial_type": "single-audio", "word": "country", "stimulus": "/static/audio/wordpool/COUNTRY.wav", "conditions": [18, 1200, "a", 18000], "internal_node_id": "0.0-16.0", "trial": 0, "time_elapsed": 229209, "serialpos": 4, "key_press": -1, "wordID": 387, "type": "PRES_AUD", "trial_index": 25}, "uniqueid": "MTK3411:3634BBTX0P16K3HIG67V56752V4IF3", "dateTime": 1520530448627}, {"current_trial": 26, "trialdata": {"rt": -1000, "trial_type": "single-audio", "word": "honey", "stimulus": "/static/audio/wordpool/HONEY.wav", "conditions": [18, 1200, "a", 18000], "internal_node_id": "0.0-17.0", "trial": 0, "time_elapsed": 231399, "serialpos": 5, "key_press": -1, "wordID": 712, "type": "PRES_AUD", "trial_index": 26}, "uniqueid": "MTK3411:3634BBTX0P16K3HIG67V56752V4IF3", "dateTime": 1520530450817}, {"current_trial": 27, "trialdata": {"rt": -1000, "trial_type": "single-audio", "word": "brother", "stimulus": "/static/audio/wordpool/BROTHER.wav", "conditions": [18, 1200, "a", 18000], "internal_node_id": "0.0-18.0", "trial": 0, "time_elapsed": 233601, "serialpos": 6, "key_press": -1, "wordID": 178, "type": "PRES_AUD", "trial_index": 27}, "uniqueid": "MTK3411:3634BBTX0P16K3HIG67V56752V4IF3", "dateTime": 1520530453019}, {"current_trial": 28, "trialdata": {"rt": -1000, "trial_type": "single-audio", "word": "island", "stimulus": "/static/audio/wordpool/ISLAND.wav", "conditions": [18, 1200, "a", 18000], "internal_node_id": "0.0-19.0", "trial": 0, "time_elapsed": 235788, "serialpos": 7, "key_press": -1, "wordID": 744, "type": "PRES_AUD", "trial_index": 28}, "uniqueid": "MTK3411:3634BBTX0P16K3HIG67V56752V4IF3", "dateTime": 1520530455206}, {"current_trial": 29, "trialdata": {"rt": -1000, "trial_type": "single-audio", "word": "couch", "stimulus": "/static/audio/wordpool/COUCH.wav", "conditions": [18, 1200, "a", 18000], "internal_node_id": "0.0-20.0", "trial": 0, "time_elapsed": 238163, "serialpos": 8, "key_press": -1, "wordID": 385, "type": "PRES_AUD", "trial_index": 29}, "uniqueid": "MTK3411:3634BBTX0P16K3HIG67V56752V4IF3", "dateTime": 1520530457581}, {"current_trial": 30, "trialdata": {"rt": -1000, "trial_type": "single-audio", "word": "tutu", "stimulus": "/static/audio/wordpool/TUTU.wav", "conditions": [18, 1200, "a", 18000], "internal_node_id": "0.0-21.0", "trial": 0, "time_elapsed": 240367, "serialpos": 9, "key_press": -1, "wordID": 1523, "type": "PRES_AUD", "trial_index": 30}, "uniqueid": "MTK3411:3634BBTX0P16K3HIG67V56752V4IF3", "dateTime": 1520530459785}, {"current_trial": 31, "trialdata": {"rt": -1000, "trial_type": "single-audio", "word": "chapel", "stimulus": "/static/audio/wordpool/CHAPEL.wav", "conditions": [18, 1200, "a", 18000], "internal_node_id": "0.0-22.0", "trial": 0, "time_elapsed": 242491, "serialpos": 10, "key_press": -1, "wordID": 279, "type": "PRES_AUD", "trial_index": 31}, "uniqueid": "MTK3411:3634BBTX0P16K3HIG67V56752V4IF3", "dateTime": 1520530461909}, {"current_trial": 32, "trialdata": {"rt": -1000, "trial_type": "single-audio", "word": "temple", "stimulus": "/static/audio/wordpool/TEMPLE.wav", "conditions": [18, 1200, "a", 18000], "internal_node_id": "0.0-23.0", "trial": 0, "time_elapsed": 244771, "serialpos": 11, "key_press": -1, "wordID": 1447, "type": "PRES_AUD", "trial_index": 32}, "uniqueid": "MTK3411:3634BBTX0P16K3HIG67V56752V4IF3", "dateTime": 1520530464189}, {"current_trial": 33, "trialdata": {"rt": -1000, "trial_type": "single-audio", "word": "empire", "stimulus": "/static/audio/wordpool/EMPIRE.wav", "conditions": [18, 1200, "a", 18000], "internal_node_id": "0.0-24.0", "trial": 0, "time_elapsed": 247005, "serialpos": 12, "key_press": -1, "wordID": 529, "type": "PRES_AUD", "trial_index": 33}, "uniqueid": "MTK3411:3634BBTX0P16K3HIG67V56752V4IF3", "dateTime": 1520530466423}, {"current_trial": 34, "trialdata": {"rt": -1000, "trial_type": "single-audio", "word": "seagull", "stimulus": "/static/audio/wordpool/SEAGULL.wav", "conditions": [18, 1200, "a", 18000], "internal_node_id": "0.0-25.0", "trial": 0, "time_elapsed": 249146, "serialpos": 13, "key_press": -1, "wordID": 1260, "type": "PRES_AUD", "trial_index": 34}, "uniqueid": "MTK3411:3634BBTX0P16K3HIG67V56752V4IF3", "dateTime": 1520530468564}, {"current_trial": 35, "trialdata": {"rt": -1000, "trial_type": "single-audio", "word": "cousin", "stimulus": "/static/audio/wordpool/COUSIN.wav", "conditions": [18, 1200, "a", 18000], "internal_node_id": "0.0-26.0", "trial": 0, "time_elapsed": 251382, "serialpos": 14, "key_press": -1, "wordID": 391, "type": "PRES_AUD", "trial_index": 35}, "uniqueid": "MTK3411:3634BBTX0P16K3HIG67V56752V4IF3", "dateTime": 1520530470800}, {"current_trial": 36, "trialdata": {"rt": -1000, "trial_type": "single-audio", "word": "postage", "stimulus": "/static/audio/wordpool/POSTAGE.wav", "conditions": [18, 1200, "a", 18000], "internal_node_id": "0.0-27.0", "trial": 0, "time_elapsed": 253429, "serialpos": 15, "key_press": -1, "wordID": 1112, "type": "PRES_AUD", "trial_index": 36}, "uniqueid": "MTK3411:3634BBTX0P16K3HIG67V56752V4IF3", "dateTime": 1520530472847}, {"current_trial": 37, "trialdata": {"rt": -1000, "trial_type": "single-audio", "word": "flower", "stimulus": "/static/audio/wordpool/FLOWER.wav", "conditions": [18, 1200, "a", 18000], "internal_node_id": "0.0-28.0", "trial": 0, "time_elapsed": 255600, "serialpos": 16, "key_press": -1, "wordID": 583, "type": "PRES_AUD", "trial_index": 37}, "uniqueid": "MTK3411:3634BBTX0P16K3HIG67V56752V4IF3", "dateTime": 1520530475018}, {"current_trial": 38, "trialdata": {"rt": -1000, "trial_type": "single-audio", "word": "toaster", "stimulus": "/static/audio/wordpool/TOASTER.wav", "conditions": [18, 1200, "a", 18000], "internal_node_id": "0.0-29.0", "trial": 0, "time_elapsed": 257776, "serialpos": 17, "key_press": -1, "wordID": 1471, "type": "PRES_AUD", "trial_index": 38}, "uniqueid": "MTK3411:3634BBTX0P16K3HIG67V56752V4IF3", "dateTime": 1520530477194}, {"current_trial": 39, "trialdata": {"rt": -1, "trial_type": "single-stim", "stimulus": "", "internal_node_id": "0.0-30.0-0.0", "time_elapsed": 259047, "key_press": -1, "type": "PRE_RECALL_DELAY", "trial_index": 39}, "uniqueid": "MTK3411:3634BBTX0P16K3HIG67V56752V4IF3", "dateTime": 1520530478465}, {"current_trial": 40, "trialdata": {"rt": -1000, "trial_type": "single-audio", "stimulus": "/static/audio/400Hz.wav", "internal_node_id": "0.0-31.0", "time_elapsed": 259558, "key_press": -1, "type": "PRE_RECALL_ALERT", "trial_index": 40}, "uniqueid": "MTK3411:3634BBTX0P16K3HIG67V56752V4IF3", "dateTime": 1520530478976}, {"current_trial": 41, "trialdata": {"rt": [4949, 7200, 9778, 12019, 14834, 17400, 19826, 23935, 28402, 31800, 34332, 37156, 42641, 47141], "recwords": ["country", "brother", "island", "couch", "tutu", "chapel", "temple", "empire", "cousin", "postage", "flour", "toaster", "", "building"], "key_times": [2949, 3343, 3662, 3934, 4170, 4510, 4684, 4949, 6237, 6423, 6544, 6688, 6763, 6877, 6957, 7200, 8784, 8926, 9080, 9192, 9327, 9568, 9778, 11162, 11293, 11354, 11663, 11778, 12019, 13552, 13701, 14098, 14522, 14834, 16057, 16144, 16321, 16523, 16726, 17093, 17400, 18820, 18958, 19128, 19324, 19551, 19646, 19826, 21322, 21477, 21672, 21932, 22090, 22227, 22731, 22909, 23596, 23717, 23935, 27336, 27458, 27561, 27870, 27976, 28188, 28402, 29931, 30251, 30448, 30642, 30791, 31340, 31587, 31800, 32888, 33088, 33590, 33769, 34163, 34332, 35657, 35803, 36243, 36541, 36697, 36809, 36922, 37156, 42641, 44460, 44766, 45370, 45599, 45749, 46380, 46594, 46701, 46894, 46995, 47141], "trial_type": "free-recall", "conditions": [18, 1200, "a", 18000], "internal_node_id": "0.0-32.0-0.0", "key_presses": [67, 79, 85, 78, 84, 82, 89, 13, 66, 82, 79, 84, 72, 69, 82, 13, 73, 83, 76, 65, 78, 68, 13, 67, 79, 85, 67, 72, 13, 84, 85, 84, 85, 13, 67, 72, 65, 80, 69, 76, 13, 84, 69, 77, 80, 76, 69, 13, 69, 77, 80, 73, 84, 69, 8, 8, 82, 69, 13, 67, 79, 85, 83, 73, 78, 13, 80, 79, 83, 84, 65, 71, 69, 13, 70, 76, 79, 85, 82, 13, 84, 79, 65, 83, 84, 69, 82, 13, 13, 66, 85, 73, 76, 73, 8, 68, 73, 78, 71, 13], "trial": 0, "time_elapsed": 319560, "type": "FREE_RECALL", "trial_index": 41}, "uniqueid": "MTK3411:3634BBTX0P16K3HIG67V56752V4IF3", "dateTime": 1520530538981}, {"current_trial": 42, "trialdata": {"rt": 5512, "trial_type": "text", "internal_node_id": "0.0-33.0", "time_elapsed": 327077, "key_press": 32, "type": "INSTRUCTIONS", "trial_index": 42}, "uniqueid": "MTK3411:3634BBTX0P16K3HIG67V56752V4IF3", "dateTime": 1520530546496}, {"current_trial": 43, "trialdata": {"rt": [3263, 5414, 10369, 12722, 15365, 17679], "trial_type": "math-distractor", "key_times": [2430, 2591, 3263, 4998, 5414, 9521, 9713, 10369, 12151, 12355, 12722, 14523, 14713, 15365, 17237, 17679], "responses": ["11", "9", "18", "16", "18", "9"], "num2": [1, 4, 9, 3, 8, 3, 5], "num3": [8, 4, 4, 6, 8, 4, 8], "conditions": [18, 1200, "a", 18000], "internal_node_id": "0.0-34.0", "key_presses": [97, 97, 13, 105, 13, 97, 104, 13, 97, 102, 13, 97, 104, 13, 105, 13], "trial": 1, "time_elapsed": 347081, "type": "DISTRACTOR", "trial_index": 43, "num1": [2, 1, 5, 7, 2, 2, 3]}, "uniqueid": "MTK3411:3634BBTX0P16K3HIG67V56752V4IF3", "dateTime": 1520530566499}, {"current_trial": 44, "trialdata": {"rt": -1, "trial_type": "single-stim", "stimulus": "<p id=\"stim\">10</p>", "internal_node_id": "0.0-35.0-0.0", "time_elapsed": 350082, "key_press": -1, "trial_index": 44}, "uniqueid": "MTK3411:3634BBTX0P16K3HIG67V56752V4IF3", "dateTime": 1520530569501}, {"current_trial": 45, "trialdata": {"rt": -1, "trial_type": "single-stim", "stimulus": "<p id=\"stim\">9</p>", "internal_node_id": "0.0-35.0-1.0", "time_elapsed": 351084, "key_press": -1, "trial_index": 45}, "uniqueid": "MTK3411:3634BBTX0P16K3HIG67V56752V4IF3", "dateTime": 1520530570502}, {"current_trial": 46, "trialdata": {"rt": -1, "trial_type": "single-stim", "stimulus": "<p id=\"stim\">8</p>", "internal_node_id": "0.0-35.0-2.0", "time_elapsed": 352086, "key_press": -1, "trial_index": 46}, "uniqueid": "MTK3411:3634BBTX0P16K3HIG67V56752V4IF3", "dateTime": 1520530571504}, {"current_trial": 47, "trialdata": {"rt": -1, "trial_type": "single-stim", "stimulus": "<p id=\"stim\">7</p>", "internal_node_id": "0.0-35.0-3.0", "time_elapsed": 353088, "key_press": -1, "trial_index": 47}, "uniqueid": "MTK3411:3634BBTX0P16K3HIG67V56752V4IF3", "dateTime": 1520530572506}, {"current_trial": 48, "trialdata": {"rt": -1, "trial_type": "single-stim", "stimulus": "<p id=\"stim\">6</p>", "internal_node_id": "0.0-35.0-4.0", "time_elapsed": 354091, "key_press": -1, "trial_index": 48}, "uniqueid": "MTK3411:3634BBTX0P16K3HIG67V56752V4IF3", "dateTime": 1520530573509}, {"current_trial": 49, "trialdata": {"rt": -1, "trial_type": "single-stim", "stimulus": "<p id=\"stim\">5</p>", "internal_node_id": "0.0-35.0-5.0", "time_elapsed": 355093, "key_press": -1, "trial_index": 49}, "uniqueid": "MTK3411:3634BBTX0P16K3HIG67V56752V4IF3", "dateTime": 1520530574511}, {"current_trial": 50, "trialdata": {"rt": -1, "trial_type": "single-stim", "stimulus": "<p id=\"stim\">4</p>", "internal_node_id": "0.0-35.0-6.0", "time_elapsed": 356095, "key_press": -1, "trial_index": 50}, "uniqueid": "MTK3411:3634BBTX0P16K3HIG67V56752V4IF3", "dateTime": 1520530575513}, {"current_trial": 51, "trialdata": {"rt": -1, "trial_type": "single-stim", "stimulus": "<p id=\"stim\">3</p>", "internal_node_id": "0.0-35.0-7.0", "time_elapsed": 357096, "key_press": -1, "trial_index": 51}, "uniqueid": "MTK3411:3634BBTX0P16K3HIG67V56752V4IF3", "dateTime": 1520530576514}, {"current_trial": 52, "trialdata": {"rt": -1, "trial_type": "single-stim", "stimulus": "<p id=\"stim\">2</p>", "internal_node_id": "0.0-35.0-8.0", "time_elapsed": 358098, "key_press": -1, "trial_index": 52}, "uniqueid": "MTK3411:3634BBTX0P16K3HIG67V56752V4IF3", "dateTime": 1520530577516}, {"current_trial": 53, "trialdata": {"rt": -1, "trial_type": "single-stim", "stimulus": "<p id=\"stim\">1</p>", "internal_node_id": "0.0-35.0-9.0", "time_elapsed": 359099, "key_press": -1, "trial_index": 53}, "uniqueid": "MTK3411:3634BBTX0P16K3HIG67V56752V4IF3", "dateTime": 1520530578517}, {"current_trial": 54, "trialdata": {"rt": -1, "trial_type": "single-stim", "stimulus": "<p id=\"stim\">+</p>", "internal_node_id": "0.0-36.0-0.0", "time_elapsed": 360600, "key_press": -1, "type": "FIXATION", "trial_index": 54}, "uniqueid": "MTK3411:3634BBTX0P16K3HIG67V56752V4IF3", "dateTime": 1520530580018}, {"current_trial": 55, "trialdata": {"rt": -1000, "trial_type": "single-audio", "word": "bike", "stimulus": "/static/audio/wordpool/BIKE.wav", "conditions": [18, 1200, "a", 18000], "internal_node_id": "0.0-37.0", "trial": 1, "time_elapsed": 362745, "serialpos": 0, "key_press": -1, "wordID": 124, "type": "PRES_AUD", "trial_index": 55}, "uniqueid": "MTK3411:3634BBTX0P16K3HIG67V56752V4IF3", "dateTime": 1520530582163}, {"current_trial": 56, "trialdata": {"rt": -1000, "trial_type": "single-audio", "word": "juggler", "stimulus": "/static/audio/wordpool/JUGGLER.wav", "conditions": [18, 1200, "a", 18000], "internal_node_id": "0.0-38.0", "trial": 1, "time_elapsed": 365067, "serialpos": 1, "key_press": -1, "wordID": 762, "type": "PRES_AUD", "trial_index": 56}, "uniqueid": "MTK3411:3634BBTX0P16K3HIG67V56752V4IF3", "dateTime": 1520530584485}, {"current_trial": 57, "trialdata": {"rt": -1000, "trial_type": "single-audio", "word": "daisy", "stimulus": "/static/audio/wordpool/DAISY.wav", "conditions": [18, 1200, "a", 18000], "internal_node_id": "0.0-39.0", "trial": 1, "time_elapsed": 367318, "serialpos": 2, "key_press": -1, "wordID": 434, "type": "PRES_AUD", "trial_index": 57}, "uniqueid": "MTK3411:3634BBTX0P16K3HIG67V56752V4IF3", "dateTime": 1520530586736}, {"current_trial": 58, "trialdata": {"rt": -1000, "trial_type": "single-audio", "word": "branch", "stimulus": "/static/audio/wordpool/BRANCH.wav", "conditions": [18, 1200, "a", 18000], "internal_node_id": "0.0-40.0", "trial": 1, "time_elapsed": 369598, "serialpos": 3, "key_press": -1, "wordID": 167, "type": "PRES_AUD", "trial_index": 58}, "uniqueid": "MTK3411:3634BBTX0P16K3HIG67V56752V4IF3", "dateTime": 1520530589016}, {"current_trial": 59, "trialdata": {"rt": -1000, "trial_type": "single-audio", "word": "seafood", "stimulus": "/static/audio/wordpool/SEAFOOD.wav", "conditions": [18, 1200, "a", 18000], "internal_node_id": "0.0-41.0", "trial": 1, "time_elapsed": 371739, "serialpos": 4, "key_press": -1, "wordID": 1259, "type": "PRES_AUD", "trial_index": 59}, "uniqueid": "MTK3411:3634BBTX0P16K3HIG67V56752V4IF3", "dateTime": 1520530591157}, {"current_trial": 60, "trialdata": {"rt": -1000, "trial_type": "single-audio", "word": "bank", "stimulus": "/static/audio/wordpool/BANK.wav", "conditions": [18, 1200, "a", 18000], "internal_node_id": "0.0-42.0", "trial": 1, "time_elapsed": 374126, "serialpos": 5, "key_press": -1, "wordID": 82, "type": "PRES_AUD", "trial_index": 60}, "uniqueid": "MTK3411:3634BBTX0P16K3HIG67V56752V4IF3", "dateTime": 1520530593544}, {"current_trial": 61, "trialdata": {"rt": -1000, "trial_type": "single-audio", "word": "waiter", "stimulus": "/static/audio/wordpool/WAITER.wav", "conditions": [18, 1200, "a", 18000], "internal_node_id": "0.0-43.0", "trial": 1, "time_elapsed": 376534, "serialpos": 6, "key_press": -1, "wordID": 1579, "type": "PRES_AUD", "trial_index": 61}, "uniqueid": "MTK3411:3634BBTX0P16K3HIG67V56752V4IF3", "dateTime": 1520530595952}, {"current_trial": 62, "trialdata": {"rt": -1000, "trial_type": "single-audio", "word": "crown", "stimulus": "/static/audio/wordpool/CROWN.wav", "conditions": [18, 1200, "a", 18000], "internal_node_id": "0.0-44.0", "trial": 1, "time_elapsed": 378767, "serialpos": 7, "key_press": -1, "wordID": 414, "type": "PRES_AUD", "trial_index": 62}, "uniqueid": "MTK3411:3634BBTX0P16K3HIG67V56752V4IF3", "dateTime": 1520530598185}, {"current_trial": 63, "trialdata": {"rt": -1000, "trial_type": "single-audio", "word": "girl", "stimulus": "/static/audio/wordpool/GIRL.wav", "conditions": [18, 1200, "a", 18000], "internal_node_id": "0.0-45.0", "trial": 1, "time_elapsed": 380784, "serialpos": 8, "key_press": -1, "wordID": 636, "type": "PRES_AUD", "trial_index": 63}, "uniqueid": "MTK3411:3634BBTX0P16K3HIG67V56752V4IF3", "dateTime": 1520530600202}, {"current_trial": 64, "trialdata": {"rt": -1000, "trial_type": "single-audio", "word": "monster", "stimulus": "/static/audio/wordpool/MONSTER.wav", "conditions": [18, 1200, "a", 18000], "internal_node_id": "0.0-46.0", "trial": 1, "time_elapsed": 383064, "serialpos": 9, "key_press": -1, "wordID": 911, "type": "PRES_AUD", "trial_index": 64}, "uniqueid": "MTK3411:3634BBTX0P16K3HIG67V56752V4IF3", "dateTime": 1520530602482}, {"current_trial": 65, "trialdata": {"rt": -1000, "trial_type": "single-audio", "word": "headband", "stimulus": "/static/audio/wordpool/HEADBAND.wav", "conditions": [18, 1200, "a", 18000], "internal_node_id": "0.0-47.0", "trial": 1, "time_elapsed": 385454, "serialpos": 10, "key_press": -1, "wordID": 695, "type": "PRES_AUD", "trial_index": 65}, "uniqueid": "MTK3411:3634BBTX0P16K3HIG67V56752V4IF3", "dateTime": 1520530604872}, {"current_trial": 66, "trialdata": {"rt": -1000, "trial_type": "single-audio", "word": "clothes", "stimulus": "/static/audio/wordpool/CLOTHES.wav", "conditions": [18, 1200, "a", 18000], "internal_node_id": "0.0-48.0", "trial": 1, "time_elapsed": 387564, "serialpos": 11, "key_press": -1, "wordID": 326, "type": "PRES_AUD", "trial_index": 66}, "uniqueid": "MTK3411:3634BBTX0P16K3HIG67V56752V4IF3", "dateTime": 1520530606982}, {"current_trial": 67, "trialdata": {"rt": -1000, "trial_type": "single-audio", "word": "globe", "stimulus": "/static/audio/wordpool/GLOBE.wav", "conditions": [18, 1200, "a", 18000], "internal_node_id": "0.0-49.0", "trial": 1, "time_elapsed": 389735, "serialpos": 12, "key_press": -1, "wordID": 640, "type": "PRES_AUD", "trial_index": 67}, "uniqueid": "MTK3411:3634BBTX0P16K3HIG67V56752V4IF3", "dateTime": 1520530609153}, {"current_trial": 68, "trialdata": {"rt": -1000, "trial_type": "single-audio", "word": "chest", "stimulus": "/static/audio/wordpool/CHEST.wav", "conditions": [18, 1200, "a", 18000], "internal_node_id": "0.0-50.0", "trial": 1, "time_elapsed": 391862, "serialpos": 13, "key_press": -1, "wordID": 294, "type": "PRES_AUD", "trial_index": 68}, "uniqueid": "MTK3411:3634BBTX0P16K3HIG67V56752V4IF3", "dateTime": 1520530611295}, {"current_trial": 69, "trialdata": {"rt": -1000, "trial_type": "single-audio", "word": "rabbit", "stimulus": "/static/audio/wordpool/RABBIT.wav", "conditions": [18, 1200, "a", 18000], "internal_node_id": "0.0-51.0", "trial": 1, "time_elapsed": 393970, "serialpos": 14, "key_press": -1, "wordID": 1151, "type": "PRES_AUD", "trial_index": 69}, "uniqueid": "MTK3411:3634BBTX0P16K3HIG67V56752V4IF3", "dateTime": 1520530613388}, {"current_trial": 70, "trialdata": {"rt": -1000, "trial_type": "single-audio", "word": "foot", "stimulus": "/static/audio/wordpool/FOOT.wav", "conditions": [18, 1200, "a", 18000], "internal_node_id": "0.0-52.0", "trial": 1, "time_elapsed": 396363, "serialpos": 15, "key_press": -1, "wordID": 589, "type": "PRES_AUD", "trial_index": 70}, "uniqueid": "MTK3411:3634BBTX0P16K3HIG67V56752V4IF3", "dateTime": 1520530615781}, {"current_trial": 71, "trialdata": {"rt": -1000, "trial_type": "single-audio", "word": "brandy", "stimulus": "/static/audio/wordpool/BRANDY.wav", "conditions": [18, 1200, "a", 18000], "internal_node_id": "0.0-53.0", "trial": 1, "time_elapsed": 398377, "serialpos": 16, "key_press": -1, "wordID": 168, "type": "PRES_AUD", "trial_index": 71}, "uniqueid": "MTK3411:3634BBTX0P16K3HIG67V56752V4IF3", "dateTime": 1520530617795}, {"current_trial": 72, "trialdata": {"rt": -1000, "trial_type": "single-audio", "word": "atlas", "stimulus": "/static/audio/wordpool/ATLAS.wav", "conditions": [18, 1200, "a", 18000], "internal_node_id": "0.0-54.0", "trial": 1, "time_elapsed": 400547, "serialpos": 17, "key_press": -1, "wordID": 52, "type": "PRES_AUD", "trial_index": 72}, "uniqueid": "MTK3411:3634BBTX0P16K3HIG67V56752V4IF3", "dateTime": 1520530619965}, {"current_trial": 73, "trialdata": {"rt": -1, "trial_type": "single-stim", "stimulus": "", "internal_node_id": "0.0-55.0-0.0", "time_elapsed": 401844, "key_press": -1, "type": "PRE_RECALL_DELAY", "trial_index": 73}, "uniqueid": "MTK3411:3634BBTX0P16K3HIG67V56752V4IF3", "dateTime": 1520530621262}, {"current_trial": 74, "trialdata": {"rt": -1000, "trial_type": "single-audio", "stimulus": "/static/audio/400Hz.wav", "internal_node_id": "0.0-56.0", "time_elapsed": 402348, "key_press": -1, "type": "PRE_RECALL_ALERT", "trial_index": 74}, "uniqueid": "MTK3411:3634BBTX0P16K3HIG67V56752V4IF3", "dateTime": 1520530621766}, {"current_trial": 75, "trialdata": {"rt": [3637, 7214, 11106, 14027, 17949, 20933, 24508, 27537, 30737, 33840, 35529, 38494, 41403, 44625, 50138, 56809], "recwords": ["bike", "atlas", "juggler", "daisy", "seafood", "branc", "clothes", "bank", "waiter", "girl", "crown", "monster", "foot", "brandy", "headband", "globe"], "key_times": [1809, 2246, 2693, 2815, 3637, 5379, 5592, 5808, 5907, 6156, 7214, 8568, 8808, 9026, 9209, 9362, 9519, 9666, 11106, 12640, 12796, 12933, 13078, 13291, 14027, 15910, 16076, 16275, 16555, 16773, 17262, 17568, 17949, 18472, 18613, 18753, 18893, 19091, 19762, 20434, 20933, 22724, 23317, 23510, 23629, 23729, 23877, 24293, 24508, 26229, 26424, 26789, 27249, 27537, 29653, 29874, 30097, 30251, 30373, 30483, 30737, 33082, 33201, 33361, 33592, 33840, 34519, 34822, 34953, 35060, 35249, 35529, 36975, 37168, 37366, 37785, 37991, 38109, 38233, 38494, 40632, 40823, 41016, 41155, 41403, 43551, 43748, 43897, 43984, 44174, 44351, 44625, 47437, 47537, 47690, 47949, 48289, 48786, 49401, 49536, 49724, 49905, 50138, 54654, 54850, 55129, 55528, 56042, 56402, 56557, 56809, 59615, 59720, 59878], "trial_type": "free-recall", "conditions": [18, 1200, "a", 18000], "internal_node_id": "0.0-57.0-0.0", "key_presses": [66, 73, 75, 69, 13, 65, 84, 76, 65, 83, 13, 74, 85, 71, 71, 76, 69, 82, 13, 68, 65, 73, 83, 89, 13, 83, 69, 65, 70, 79, 79, 68, 13, 66, 82, 65, 78, 68, 8, 67, 13, 67, 76, 79, 84, 72, 69, 83, 13, 66, 65, 78, 75, 13, 87, 65, 73, 84, 69, 82, 13, 71, 73, 82, 76, 13, 67, 82, 79, 87, 78, 13, 77, 79, 78, 83, 84, 69, 82, 13, 70, 79, 79, 84, 13, 66, 82, 65, 78, 68, 89, 13, 72, 69, 65, 68, 65, 8, 66, 65, 78, 68, 13, 71, 76, 79, 69, 8, 66, 69, 13, 67, 72, 69], "trial": 1, "time_elapsed": 462349, "type": "FREE_RECALL", "trial_index": 75}, "uniqueid": "MTK3411:3634BBTX0P16K3HIG67V56752V4IF3", "dateTime": 1520530681774}, {"current_trial": 76, "trialdata": {"rt": 3149, "trial_type": "text", "internal_node_id": "0.0-58.0", "time_elapsed": 467507, "key_press": 32, "type": "INSTRUCTIONS", "trial_index": 76}, "uniqueid": "MTK3411:3634BBTX0P16K3HIG67V56752V4IF3", "dateTime": 1520530686925}, {"current_trial": 77, "trialdata": {"rt": [3724, 9447, 11641], "trial_type": "math-distractor", "key_times": [2967, 3127, 3724, 7685, 7927, 9447, 11057, 11208, 11641], "responses": ["21", "19", "11"], "num2": [5, 9, 2, 5], "num3": [8, 6, 2, 7], "conditions": [12, 800, "a", 12000], "internal_node_id": "0.0-59.0", "key_presses": [98, 97, 13, 97, 105, 13, 97, 97, 13], "trial": 2, "time_elapsed": 480512, "type": "DISTRACTOR", "trial_index": 77, "num1": [8, 4, 7, 9]}, "uniqueid": "MTK3411:3634BBTX0P16K3HIG67V56752V4IF3", "dateTime": 1520530699931}, {"current_trial": 78, "trialdata": {"rt": -1, "trial_type": "single-stim", "stimulus": "<p id=\"stim\">10</p>", "internal_node_id": "0.0-60.0-0.0", "time_elapsed": 483514, "key_press": -1, "trial_index": 78}, "uniqueid": "MTK3411:3634BBTX0P16K3HIG67V56752V4IF3", "dateTime": 1520530702932}, {"current_trial": 79, "trialdata": {"rt": -1, "trial_type": "single-stim", "stimulus": "<p id=\"stim\">9</p>", "internal_node_id": "0.0-60.0-1.0", "time_elapsed": 484513, "key_press": -1, "trial_index": 79}, "uniqueid": "MTK3411:3634BBTX0P16K3HIG67V56752V4IF3", "dateTime": 1520530703933}, {"current_trial": 80, "trialdata": {"rt": -1, "trial_type": "single-stim", "stimulus": "<p id=\"stim\">8</p>", "internal_node_id": "0.0-60.0-2.0", "time_elapsed": 485515, "key_press": -1, "trial_index": 80}, "uniqueid": "MTK3411:3634BBTX0P16K3HIG67V56752V4IF3", "dateTime": 1520530704934}, {"current_trial": 81, "trialdata": {"rt": -1, "trial_type": "single-stim", "stimulus": "<p id=\"stim\">7</p>", "internal_node_id": "0.0-60.0-3.0", "time_elapsed": 486516, "key_press": -1, "trial_index": 81}, "uniqueid": "MTK3411:3634BBTX0P16K3HIG67V56752V4IF3", "dateTime": 1520530705935}, {"current_trial": 82, "trialdata": {"rt": -1, "trial_type": "single-stim", "stimulus": "<p id=\"stim\">6</p>", "internal_node_id": "0.0-60.0-4.0", "time_elapsed": 487517, "key_press": -1, "trial_index": 82}, "uniqueid": "MTK3411:3634BBTX0P16K3HIG67V56752V4IF3", "dateTime": 1520530706936}, {"current_trial": 83, "trialdata": {"rt": -1, "trial_type": "single-stim", "stimulus": "<p id=\"stim\">5</p>", "internal_node_id": "0.0-60.0-5.0", "time_elapsed": 488517, "key_press": -1, "trial_index": 83}, "uniqueid": "MTK3411:3634BBTX0P16K3HIG67V56752V4IF3", "dateTime": 1520530707936}, {"current_trial": 84, "trialdata": {"rt": -1, "trial_type": "single-stim", "stimulus": "<p id=\"stim\">4</p>", "internal_node_id": "0.0-60.0-6.0", "time_elapsed": 489520, "key_press": -1, "trial_index": 84}, "uniqueid": "MTK3411:3634BBTX0P16K3HIG67V56752V4IF3", "dateTime": 1520530708938}, {"current_trial": 85, "trialdata": {"rt": -1, "trial_type": "single-stim", "stimulus": "<p id=\"stim\">3</p>", "internal_node_id": "0.0-60.0-7.0", "time_elapsed": 490520, "key_press": -1, "trial_index": 85}, "uniqueid": "MTK3411:3634BBTX0P16K3HIG67V56752V4IF3", "dateTime": 1520530709939}, {"current_trial": 86, "trialdata": {"rt": -1, "trial_type": "single-stim", "stimulus": "<p id=\"stim\">2</p>", "internal_node_id": "0.0-60.0-8.0", "time_elapsed": 491520, "key_press": -1, "trial_index": 86}, "uniqueid": "MTK3411:3634BBTX0P16K3HIG67V56752V4IF3", "dateTime": 1520530710940}, {"current_trial": 87, "trialdata": {"rt": -1, "trial_type": "single-stim", "stimulus": "<p id=\"stim\">1</p>", "internal_node_id": "0.0-60.0-9.0", "time_elapsed": 492521, "key_press": -1, "trial_index": 87}, "uniqueid": "MTK3411:3634BBTX0P16K3HIG67V56752V4IF3", "dateTime": 1520530711940}, {"current_trial": 88, "trialdata": {"rt": -1, "trial_type": "single-stim", "stimulus": "<p id=\"stim\">+</p>", "internal_node_id": "0.0-61.0-0.0", "time_elapsed": 494024, "key_press": -1, "type": "FIXATION", "trial_index": 88}, "uniqueid": "MTK3411:3634BBTX0P16K3HIG67V56752V4IF3", "dateTime": 1520530713442}, {"current_trial": 89, "trialdata": {"rt": -1000, "trial_type": "single-audio", "word": "lizard", "stimulus": "/static/audio/wordpool/LIZARD.wav", "conditions": [12, 800, "a", 12000], "internal_node_id": "0.0-62.0", "trial": 2, "time_elapsed": 495715, "serialpos": 0, "key_press": -1, "wordID": 833, "type": "PRES_AUD", "trial_index": 89}, "uniqueid": "MTK3411:3634BBTX0P16K3HIG67V56752V4IF3", "dateTime": 1520530715133}, {"current_trial": 90, "trialdata": {"rt": -1000, "trial_type": "single-audio", "word": "river", "stimulus": "/static/audio/wordpool/RIVER.wav", "conditions": [12, 800, "a", 12000], "internal_node_id": "0.0-63.0", "trial": 2, "time_elapsed": 497622, "serialpos": 1, "key_press": -1, "wordID": 1193, "type": "PRES_AUD", "trial_index": 90}, "uniqueid": "MTK3411:3634BBTX0P16K3HIG67V56752V4IF3", "dateTime": 1520530717040}, {"current_trial": 91, "trialdata": {"rt": -1000, "trial_type": "single-audio", "word": "perfume", "stimulus": "/static/audio/wordpool/PERFUME.wav", "conditions": [12, 800, "a", 12000], "internal_node_id": "0.0-64.0", "trial": 2, "time_elapsed": 499564, "serialpos": 2, "key_press": -1, "wordID": 1048, "type": "PRES_AUD", "trial_index": 91}, "uniqueid": "MTK3411:3634BBTX0P16K3HIG67V56752V4IF3", "dateTime": 1520530718982}, {"current_trial": 92, "trialdata": {"rt": -1000, "trial_type": "single-audio", "word": "pork", "stimulus": "/static/audio/wordpool/PORK.wav", "conditions": [12, 800, "a", 12000], "internal_node_id": "0.0-65.0", "trial": 2, "time_elapsed": 501168, "serialpos": 3, "key_press": -1, "wordID": 1107, "type": "PRES_AUD", "trial_index": 92}, "uniqueid": "MTK3411:3634BBTX0P16K3HIG67V56752V4IF3", "dateTime": 1520530720586}, {"current_trial": 93, "trialdata": {"rt": -1000, "trial_type": "single-audio", "word": "whistle", "stimulus": "/static/audio/wordpool/WHISTLE.wav", "conditions": [12, 800, "a", 12000], "internal_node_id": "0.0-66.0", "trial": 2, "time_elapsed": 502951, "serialpos": 4, "key_press": -1, "wordID": 1605, "type": "PRES_AUD", "trial_index": 93}, "uniqueid": "MTK3411:3634BBTX0P16K3HIG67V56752V4IF3", "dateTime": 1520530722369}, {"current_trial": 94, "trialdata": {"rt": -1000, "trial_type": "single-audio", "word": "sheriff", "stimulus": "/static/audio/wordpool/SHERIFF.wav", "conditions": [12, 800, "a", 12000], "internal_node_id": "0.0-67.0", "trial": 2, "time_elapsed": 504826, "serialpos": 5, "key_press": -1, "wordID": 1283, "type": "PRES_AUD", "trial_index": 94}, "uniqueid": "MTK3411:3634BBTX0P16K3HIG67V56752V4IF3", "dateTime": 1520530724244}, {"current_trial": 95, "trialdata": {"rt": -1000, "trial_type": "single-audio", "word": "guard", "stimulus": "/static/audio/wordpool/GUARD.wav", "conditions": [12, 800, "a", 12000], "internal_node_id": "0.0-68.0", "trial": 2, "time_elapsed": 506670, "serialpos": 6, "key_press": -1, "wordID": 666, "type": "PRES_AUD", "trial_index": 95}, "uniqueid": "MTK3411:3634BBTX0P16K3HIG67V56752V4IF3", "dateTime": 1520530726088}, {"current_trial": 96, "trialdata": {"rt": -1000, "trial_type": "single-audio", "word": "label", "stimulus": "/static/audio/wordpool/LABEL.wav", "conditions": [12, 800, "a", 12000], "internal_node_id": "0.0-69.0", "trial": 2, "time_elapsed": 508560, "serialpos": 7, "key_press": -1, "wordID": 789, "type": "PRES_AUD", "trial_index": 96}, "uniqueid": "MTK3411:3634BBTX0P16K3HIG67V56752V4IF3", "dateTime": 1520530727978}, {"current_trial": 97, "trialdata": {"rt": -1000, "trial_type": "single-audio", "word": "wrist", "stimulus": "/static/audio/wordpool/WRIST.wav", "conditions": [12, 800, "a", 12000], "internal_node_id": "0.0-70.0", "trial": 2, "time_elapsed": 510481, "serialpos": 8, "key_press": -1, "wordID": 1625, "type": "PRES_AUD", "trial_index": 97}, "uniqueid": "MTK3411:3634BBTX0P16K3HIG67V56752V4IF3", "dateTime": 1520530729899}, {"current_trial": 98, "trialdata": {"rt": -1000, "trial_type": "single-audio", "word": "finger", "stimulus": "/static/audio/wordpool/FINGER.wav", "conditions": [12, 800, "a", 12000], "internal_node_id": "0.0-71.0", "trial": 2, "time_elapsed": 512450, "serialpos": 9, "key_press": -1, "wordID": 566, "type": "PRES_AUD", "trial_index": 98}, "uniqueid": "MTK3411:3634BBTX0P16K3HIG67V56752V4IF3", "dateTime": 1520530731868}, {"current_trial": 99, "trialdata": {"rt": -1000, "trial_type": "single-audio", "word": "turkey", "stimulus": "/static/audio/wordpool/TURKEY.wav", "conditions": [12, 800, "a", 12000], "internal_node_id": "0.0-72.0", "trial": 2, "time_elapsed": 514370, "serialpos": 10, "key_press": -1, "wordID": 1519, "type": "PRES_AUD", "trial_index": 99}, "uniqueid": "MTK3411:3634BBTX0P16K3HIG67V56752V4IF3", "dateTime": 1520530733788}, {"current_trial": 100, "trialdata": {"rt": -1000, "trial_type": "single-audio", "word": "barrel", "stimulus": "/static/audio/wordpool/BARREL.wav", "conditions": [12, 800, "a", 12000], "internal_node_id": "0.0-73.0", "trial": 2, "time_elapsed": 516324, "serialpos": 11, "key_press": -1, "wordID": 90, "type": "PRES_AUD", "trial_index": 100}, "uniqueid": "MTK3411:3634BBTX0P16K3HIG67V56752V4IF3", "dateTime": 1520530735742}, {"current_trial": 101, "trialdata": {"rt": -1, "trial_type": "single-stim", "stimulus": "", "internal_node_id": "0.0-74.0-0.0", "time_elapsed": 517653, "key_press": -1, "type": "PRE_RECALL_DELAY", "trial_index": 101}, "uniqueid": "MTK3411:3634BBTX0P16K3HIG67V56752V4IF3", "dateTime": 1520530737071}, {"current_trial": 102, "trialdata": {"rt": -1000, "trial_type": "single-audio", "stimulus": "/static/audio/400Hz.wav", "internal_node_id": "0.0-75.0", "time_elapsed": 518164, "key_press": -1, "type": "PRE_RECALL_ALERT", "trial_index": 102}, "uniqueid": "MTK3411:3634BBTX0P16K3HIG67V56752V4IF3", "dateTime": 1520530737582}, {"current_trial": 103, "trialdata": {"rt": [5045, 8438, 11432, 14069, 15700, 17869, 20986, 23271, 25999, 33455, 56084], "recwords": ["lizard", "perfume", "pork", "finger", "bell", "tricky", "whistle", "lable", "wrist", "guard", ""], "key_times": [2399, 2794, 3177, 3437, 3825, 4212, 5045, 7026, 7240, 7359, 7651, 7792, 8129, 8213, 8438, 10016, 10396, 10950, 11146, 11432, 12938, 13034, 13239, 13577, 13726, 13844, 14069, 14742, 14922, 15269, 15438, 15700, 16728, 16922, 17026, 17176, 17310, 17598, 17869, 19659, 19746, 19846, 20130, 20415, 20635, 20759, 20986, 22410, 22512, 22674, 22980, 23094, 23271, 24191, 24260, 24470, 24843, 25039, 25409, 25495, 25671, 25808, 25999, 30589, 30759, 30894, 31057, 31098, 31737, 31900, 32932, 33235, 33455, 56084], "trial_type": "free-recall", "conditions": [12, 800, "a", 12000], "internal_node_id": "0.0-76.0-0.0", "key_presses": [76, 73, 90, 65, 82, 68, 13, 80, 69, 82, 70, 85, 77, 69, 13, 80, 79, 82, 75, 13, 70, 73, 78, 71, 69, 82, 13, 66, 69, 76, 76, 13, 84, 82, 73, 67, 75, 89, 13, 87, 72, 73, 83, 84, 76, 69, 13, 76, 65, 66, 76, 69, 13, 87, 73, 82, 8, 8, 82, 73, 83, 84, 13, 71, 85, 65, 82, 65, 8, 8, 82, 68, 13, 13], "trial": 2, "time_elapsed": 578164, "type": "FREE_RECALL", "trial_index": 103}, "uniqueid": "MTK3411:3634BBTX0P16K3HIG67V56752V4IF3", "dateTime": 1520530797586}, {"current_trial": 104, "trialdata": {"rt": 2350, "trial_type": "text", "internal_node_id": "0.0-77.0", "time_elapsed": 582518, "key_press": 32, "type": "INSTRUCTIONS", "trial_index": 104}, "uniqueid": "MTK3411:3634BBTX0P16K3HIG67V56752V4IF3", "dateTime": 1520530801936}, {"current_trial": 105, "trialdata": {"rt": [6091, 9675, 15196, 17547, 19564], "trial_type": "math-distractor", "key_times": [5348, 5499, 6091, 8724, 8912, 9675, 14394, 14607, 15196, 16740, 16911, 17547, 19155, 19564, 23547, 23755], "responses": ["22", "14", "24", "14", "9"], "num2": [8, 9, 8, 6, 5, 7], "num3": [7, 2, 7, 6, 3, 6], "conditions": [12, 1600, "a", 24000], "internal_node_id": "0.0-78.0", "key_presses": [98, 98, 13, 97, 100, 13, 98, 100, 13, 97, 100, 13, 105, 13, 97, 101], "trial": 3, "time_elapsed": 608521, "type": "DISTRACTOR", "trial_index": 105, "num1": [7, 3, 9, 2, 1, 2]}, "uniqueid": "MTK3411:3634BBTX0P16K3HIG67V56752V4IF3", "dateTime": 1520530827939}, {"current_trial": 106, "trialdata": {"rt": -1, "trial_type": "single-stim", "stimulus": "<p id=\"stim\">10</p>", "internal_node_id": "0.0-79.0-0.0", "time_elapsed": 611523, "key_press": -1, "trial_index": 106}, "uniqueid": "MTK3411:3634BBTX0P16K3HIG67V56752V4IF3", "dateTime": 1520530830941}, {"current_trial": 107, "trialdata": {"rt": -1, "trial_type": "single-stim", "stimulus": "<p id=\"stim\">9</p>", "internal_node_id": "0.0-79.0-1.0", "time_elapsed": 612523, "key_press": -1, "trial_index": 107}, "uniqueid": "MTK3411:3634BBTX0P16K3HIG67V56752V4IF3", "dateTime": 1520530831942}, {"current_trial": 108, "trialdata": {"rt": -1, "trial_type": "single-stim", "stimulus": "<p id=\"stim\">8</p>", "internal_node_id": "0.0-79.0-2.0", "time_elapsed": 613524, "key_press": -1, "trial_index": 108}, "uniqueid": "MTK3411:3634BBTX0P16K3HIG67V56752V4IF3", "dateTime": 1520530832943}, {"current_trial": 109, "trialdata": {"rt": -1, "trial_type": "single-stim", "stimulus": "<p id=\"stim\">7</p>", "internal_node_id": "0.0-79.0-3.0", "time_elapsed": 614525, "key_press": -1, "trial_index": 109}, "uniqueid": "MTK3411:3634BBTX0P16K3HIG67V56752V4IF3", "dateTime": 1520530833945}, {"current_trial": 110, "trialdata": {"rt": -1, "trial_type": "single-stim", "stimulus": "<p id=\"stim\">6</p>", "internal_node_id": "0.0-79.0-4.0", "time_elapsed": 615528, "key_press": -1, "trial_index": 110}, "uniqueid": "MTK3411:3634BBTX0P16K3HIG67V56752V4IF3", "dateTime": 1520530834946}, {"current_trial": 111, "trialdata": {"rt": -1, "trial_type": "single-stim", "stimulus": "<p id=\"stim\">5</p>", "internal_node_id": "0.0-79.0-5.0", "time_elapsed": 616528, "key_press": -1, "trial_index": 111}, "uniqueid": "MTK3411:3634BBTX0P16K3HIG67V56752V4IF3", "dateTime": 1520530835946}, {"current_trial": 112, "trialdata": {"rt": -1, "trial_type": "single-stim", "stimulus": "<p id=\"stim\">4</p>", "internal_node_id": "0.0-79.0-6.0", "time_elapsed": 617529, "key_press": -1, "trial_index": 112}, "uniqueid": "MTK3411:3634BBTX0P16K3HIG67V56752V4IF3", "dateTime": 1520530836947}, {"current_trial": 113, "trialdata": {"rt": -1, "trial_type": "single-stim", "stimulus": "<p id=\"stim\">3</p>", "internal_node_id": "0.0-79.0-7.0", "time_elapsed": 618530, "key_press": -1, "trial_index": 113}, "uniqueid": "MTK3411:3634BBTX0P16K3HIG67V56752V4IF3", "dateTime": 1520530837948}, {"current_trial": 114, "trialdata": {"rt": -1, "trial_type": "single-stim", "stimulus": "<p id=\"stim\">2</p>", "internal_node_id": "0.0-79.0-8.0", "time_elapsed": 619530, "key_press": -1, "trial_index": 114}, "uniqueid": "MTK3411:3634BBTX0P16K3HIG67V56752V4IF3", "dateTime": 1520530838948}, {"current_trial": 115, "trialdata": {"rt": -1, "trial_type": "single-stim", "stimulus": "<p id=\"stim\">1</p>", "internal_node_id": "0.0-79.0-9.0", "time_elapsed": 620531, "key_press": -1, "trial_index": 115}, "uniqueid": "MTK3411:3634BBTX0P16K3HIG67V56752V4IF3", "dateTime": 1520530839950}, {"current_trial": 116, "trialdata": {"rt": -1, "trial_type": "single-stim", "stimulus": "<p id=\"stim\">+</p>", "internal_node_id": "0.0-80.0-0.0", "time_elapsed": 622033, "key_press": -1, "type": "FIXATION", "trial_index": 116}, "uniqueid": "MTK3411:3634BBTX0P16K3HIG67V56752V4IF3", "dateTime": 1520530841451}, {"current_trial": 117, "trialdata": {"rt": -1000, "trial_type": "single-audio", "word": "garden", "stimulus": "/static/audio/wordpool/GARDEN.wav", "conditions": [12, 1600, "a", 24000], "internal_node_id": "0.0-81.0", "trial": 3, "time_elapsed": 624445, "serialpos": 0, "key_press": -1, "wordID": 622, "type": "PRES_AUD", "trial_index": 117}, "uniqueid": "MTK3411:3634BBTX0P16K3HIG67V56752V4IF3", "dateTime": 1520530843863}, {"current_trial": 118, "trialdata": {"rt": -1000, "trial_type": "single-audio", "word": "cross", "stimulus": "/static/audio/wordpool/CROSS.wav", "conditions": [12, 1600, "a", 24000], "internal_node_id": "0.0-82.0", "trial": 3, "time_elapsed": 626992, "serialpos": 1, "key_press": -1, "wordID": 412, "type": "PRES_AUD", "trial_index": 118}, "uniqueid": "MTK3411:3634BBTX0P16K3HIG67V56752V4IF3", "dateTime": 1520530846410}, {"current_trial": 119, "trialdata": {"rt": -1000, "trial_type": "single-audio", "word": "marker", "stimulus": "/static/audio/wordpool/MARKER.wav", "conditions": [12, 1600, "a", 24000], "internal_node_id": "0.0-83.0", "trial": 3, "time_elapsed": 629696, "serialpos": 2, "key_press": -1, "wordID": 869, "type": "PRES_AUD", "trial_index": 119}, "uniqueid": "MTK3411:3634BBTX0P16K3HIG67V56752V4IF3", "dateTime": 1520530849114}, {"current_trial": 120, "trialdata": {"rt": -1000, "trial_type": "single-audio", "word": "queen", "stimulus": "/static/audio/wordpool/QUEEN.wav", "conditions": [12, 1600, "a", 24000], "internal_node_id": "0.0-84.0", "trial": 3, "time_elapsed": 632337, "serialpos": 3, "key_press": -1, "wordID": 1148, "type": "PRES_AUD", "trial_index": 120}, "uniqueid": "MTK3411:3634BBTX0P16K3HIG67V56752V4IF3", "dateTime": 1520530851755}, {"current_trial": 121, "trialdata": {"rt": -1000, "trial_type": "single-audio", "word": "orchid", "stimulus": "/static/audio/wordpool/ORCHID.wav", "conditions": [12, 1600, "a", 24000], "internal_node_id": "0.0-85.0", "trial": 3, "time_elapsed": 634868, "serialpos": 4, "key_press": -1, "wordID": 981, "type": "PRES_AUD", "trial_index": 121}, "uniqueid": "MTK3411:3634BBTX0P16K3HIG67V56752V4IF3", "dateTime": 1520530854286}, {"current_trial": 122, "trialdata": {"rt": -1000, "trial_type": "single-audio", "word": "blackboard", "stimulus": "/static/audio/wordpool/BLACKBOARD.wav", "conditions": [12, 1600, "a", 24000], "internal_node_id": "0.0-86.0", "trial": 3, "time_elapsed": 637382, "serialpos": 5, "key_press": -1, "wordID": 132, "type": "PRES_AUD", "trial_index": 122}, "uniqueid": "MTK3411:3634BBTX0P16K3HIG67V56752V4IF3", "dateTime": 1520530856800}, {"current_trial": 123, "trialdata": {"rt": -1000, "trial_type": "single-audio", "word": "razor", "stimulus": "/static/audio/wordpool/RAZOR.wav", "conditions": [12, 1600, "a", 24000], "internal_node_id": "0.0-87.0", "trial": 3, "time_elapsed": 639929, "serialpos": 6, "key_press": -1, "wordID": 1170, "type": "PRES_AUD", "trial_index": 123}, "uniqueid": "MTK3411:3634BBTX0P16K3HIG67V56752V4IF3", "dateTime": 1520530859347}, {"current_trial": 124, "trialdata": {"rt": -1000, "trial_type": "single-audio", "word": "pepper", "stimulus": "/static/audio/wordpool/PEPPER.wav", "conditions": [12, 1600, "a", 24000], "internal_node_id": "0.0-88.0", "trial": 3, "time_elapsed": 642682, "serialpos": 7, "key_press": -1, "wordID": 1046, "type": "PRES_AUD", "trial_index": 124}, "uniqueid": "MTK3411:3634BBTX0P16K3HIG67V56752V4IF3", "dateTime": 1520530862100}, {"current_trial": 125, "trialdata": {"rt": -1000, "trial_type": "single-audio", "word": "snack", "stimulus": "/static/audio/wordpool/SNACK.wav", "conditions": [12, 1600, "a", 24000], "internal_node_id": "0.0-89.0", "trial": 3, "time_elapsed": 645336, "serialpos": 8, "key_press": -1, "wordID": 1330, "type": "PRES_AUD", "trial_index": 125}, "uniqueid": "MTK3411:3634BBTX0P16K3HIG67V56752V4IF3", "dateTime": 1520530864754}, {"current_trial": 126, "trialdata": {"rt": -1000, "trial_type": "single-audio", "word": "wardrobe", "stimulus": "/static/audio/wordpool/WARDROBE.wav", "conditions": [12, 1600, "a", 24000], "internal_node_id": "0.0-90.0", "trial": 3, "time_elapsed": 648069, "serialpos": 9, "key_press": -1, "wordID": 1586, "type": "PRES_AUD", "trial_index": 126}, "uniqueid": "MTK3411:3634BBTX0P16K3HIG67V56752V4IF3", "dateTime": 1520530867487}, {"current_trial": 127, "trialdata": {"rt": -1000, "trial_type": "single-audio", "word": "costume", "stimulus": "/static/audio/wordpool/COSTUME.wav", "conditions": [12, 1600, "a", 24000], "internal_node_id": "0.0-91.0", "trial": 3, "time_elapsed": 650788, "serialpos": 10, "key_press": -1, "wordID": 382, "type": "PRES_AUD", "trial_index": 127}, "uniqueid": "MTK3411:3634BBTX0P16K3HIG67V56752V4IF3", "dateTime": 1520530870206}, {"current_trial": 128, "trialdata": {"rt": -1000, "trial_type": "single-audio", "word": "napkin", "stimulus": "/static/audio/wordpool/NAPKIN.wav", "conditions": [12, 1600, "a", 24000], "internal_node_id": "0.0-92.0", "trial": 3, "time_elapsed": 653539, "serialpos": 11, "key_press": -1, "wordID": 936, "type": "PRES_AUD", "trial_index": 128}, "uniqueid": "MTK3411:3634BBTX0P16K3HIG67V56752V4IF3", "dateTime": 1520530872957}, {"current_trial": 129, "trialdata": {"rt": -1, "trial_type": "single-stim", "stimulus": "", "internal_node_id": "0.0-93.0-0.0", "time_elapsed": 654834, "key_press": -1, "type": "PRE_RECALL_DELAY", "trial_index": 129}, "uniqueid": "MTK3411:3634BBTX0P16K3HIG67V56752V4IF3", "dateTime": 1520530874252}, {"current_trial": 130, "trialdata": {"rt": -1000, "trial_type": "single-audio", "stimulus": "/static/audio/400Hz.wav", "internal_node_id": "0.0-94.0", "time_elapsed": 655345, "key_press": -1, "type": "PRE_RECALL_ALERT", "trial_index": 130}, "uniqueid": "MTK3411:3634BBTX0P16K3HIG67V56752V4IF3", "dateTime": 1520530874763}, {"current_trial": 131, "trialdata": {"rt": [3131, 7463, 11736, 15210, 19351, 22614, 27819, 31587], "recwords": ["garden", "napkin", "costume", "razor", "blackboard", "queen", "snack", "pepper"], "key_times": [1678, 1912, 2072, 2426, 2654, 2820, 3131, 5975, 6154, 6335, 6755, 6991, 7202, 7463, 9455, 10007, 10578, 10912, 11102, 11425, 11525, 11736, 13116, 13272, 14039, 14531, 14698, 15210, 16931, 17260, 17373, 17755, 17917, 18178, 18463, 18605, 18805, 19167, 19351, 21401, 21633, 21981, 22168, 22367, 22614, 24943, 25401, 25569, 26117, 26600, 26818, 27551, 27819, 28787, 28973, 29355, 29535, 29623, 29836, 31587], "trial_type": "free-recall", "conditions": [12, 1600, "a", 24000], "internal_node_id": "0.0-95.0-0.0", "key_presses": [71, 65, 82, 68, 69, 78, 13, 78, 65, 80, 75, 73, 78, 13, 67, 79, 83, 84, 85, 77, 69, 13, 82, 65, 90, 79, 82, 13, 66, 76, 65, 67, 75, 66, 79, 65, 82, 68, 13, 81, 85, 69, 69, 78, 13, 83, 78, 65, 75, 8, 67, 75, 13, 80, 69, 80, 80, 69, 82, 13], "trial": 3, "time_elapsed": 715347, "type": "FREE_RECALL", "trial_index": 131}, "uniqueid": "MTK3411:3634BBTX0P16K3HIG67V56752V4IF3", "dateTime": 1520530934772}, {"current_trial": 132, "trialdata": {"rt": 1363, "trial_type": "text", "internal_node_id": "0.0-96.0", "time_elapsed": 718718, "key_press": 32, "type": "INSTRUCTIONS", "trial_index": 132}, "uniqueid": "MTK3411:3634BBTX0P16K3HIG67V56752V4IF3", "dateTime": 1520530938138}, {"current_trial": 133, "trialdata": {"rt": [3983, 6399, 8703], "trial_type": "math-distractor", "key_times": [3033, 3281, 3983, 5645, 5857, 6399, 8232, 8703, 10628, 11050], "responses": ["17", "18", "7"], "num2": [5, 8, 2, 1], "num3": [6, 1, 4, 8], "conditions": [24, 1600, "a", 12000], "internal_node_id": "0.0-97.0", "key_presses": [97, 103, 13, 97, 104, 13, 103, 13, 97, 96], "trial": 4, "time_elapsed": 732726, "type": "DISTRACTOR", "trial_index": 133, "num1": [6, 9, 1, 1]}, "uniqueid": "MTK3411:3634BBTX0P16K3HIG67V56752V4IF3", "dateTime": 1520530952144}, {"current_trial": 134, "trialdata": {"rt": -1, "trial_type": "single-stim", "stimulus": "<p id=\"stim\">10</p>", "internal_node_id": "0.0-98.0-0.0", "time_elapsed": 735728, "key_press": -1, "trial_index": 134}, "uniqueid": "MTK3411:3634BBTX0P16K3HIG67V56752V4IF3", "dateTime": 1520530955146}, {"current_trial": 135, "trialdata": {"rt": -1, "trial_type": "single-stim", "stimulus": "<p id=\"stim\">9</p>", "internal_node_id": "0.0-98.0-1.0", "time_elapsed": 736730, "key_press": -1, "trial_index": 135}, "uniqueid": "MTK3411:3634BBTX0P16K3HIG67V56752V4IF3", "dateTime": 1520530956148}, {"current_trial": 136, "trialdata": {"rt": -1, "trial_type": "single-stim", "stimulus": "<p id=\"stim\">8</p>", "internal_node_id": "0.0-98.0-2.0", "time_elapsed": 737732, "key_press": -1, "trial_index": 136}, "uniqueid": "MTK3411:3634BBTX0P16K3HIG67V56752V4IF3", "dateTime": 1520530957150}, {"current_trial": 137, "trialdata": {"rt": -1, "trial_type": "single-stim", "stimulus": "<p id=\"stim\">7</p>", "internal_node_id": "0.0-98.0-3.0", "time_elapsed": 738734, "key_press": -1, "trial_index": 137}, "uniqueid": "MTK3411:3634BBTX0P16K3HIG67V56752V4IF3", "dateTime": 1520530958152}, {"current_trial": 138, "trialdata": {"rt": -1, "trial_type": "single-stim", "stimulus": "<p id=\"stim\">6</p>", "internal_node_id": "0.0-98.0-4.0", "time_elapsed": 739735, "key_press": -1, "trial_index": 138}, "uniqueid": "MTK3411:3634BBTX0P16K3HIG67V56752V4IF3", "dateTime": 1520530959154}, {"current_trial": 139, "trialdata": {"rt": -1, "trial_type": "single-stim", "stimulus": "<p id=\"stim\">5</p>", "internal_node_id": "0.0-98.0-5.0", "time_elapsed": 740737, "key_press": -1, "trial_index": 139}, "uniqueid": "MTK3411:3634BBTX0P16K3HIG67V56752V4IF3", "dateTime": 1520530960155}, {"current_trial": 140, "trialdata": {"rt": -1, "trial_type": "single-stim", "stimulus": "<p id=\"stim\">4</p>", "internal_node_id": "0.0-98.0-6.0", "time_elapsed": 741738, "key_press": -1, "trial_index": 140}, "uniqueid": "MTK3411:3634BBTX0P16K3HIG67V56752V4IF3", "dateTime": 1520530961156}, {"current_trial": 141, "trialdata": {"rt": -1, "trial_type": "single-stim", "stimulus": "<p id=\"stim\">3</p>", "internal_node_id": "0.0-98.0-7.0", "time_elapsed": 742739, "key_press": -1, "trial_index": 141}, "uniqueid": "MTK3411:3634BBTX0P16K3HIG67V56752V4IF3", "dateTime": 1520530962157}, {"current_trial": 142, "trialdata": {"rt": -1, "trial_type": "single-stim", "stimulus": "<p id=\"stim\">2</p>", "internal_node_id": "0.0-98.0-8.0", "time_elapsed": 743740, "key_press": -1, "trial_index": 142}, "uniqueid": "MTK3411:3634BBTX0P16K3HIG67V56752V4IF3", "dateTime": 1520530963158}, {"current_trial": 143, "trialdata": {"rt": -1, "trial_type": "single-stim", "stimulus": "<p id=\"stim\">1</p>", "internal_node_id": "0.0-98.0-9.0", "time_elapsed": 744744, "key_press": -1, "trial_index": 143}, "uniqueid": "MTK3411:3634BBTX0P16K3HIG67V56752V4IF3", "dateTime": 1520530964162}, {"current_trial": 144, "trialdata": {"rt": -1, "trial_type": "single-stim", "stimulus": "<p id=\"stim\">+</p>", "internal_node_id": "0.0-99.0-0.0", "time_elapsed": 746244, "key_press": -1, "type": "FIXATION", "trial_index": 144}, "uniqueid": "MTK3411:3634BBTX0P16K3HIG67V56752V4IF3", "dateTime": 1520530965662}, {"current_trial": 145, "trialdata": {"rt": -1000, "trial_type": "single-audio", "word": "chipmunk", "stimulus": "/static/audio/wordpool/CHIPMUNK.wav", "conditions": [24, 1600, "a", 12000], "internal_node_id": "0.0-100.0", "trial": 4, "time_elapsed": 748963, "serialpos": 0, "key_press": -1, "wordID": 303, "type": "PRES_AUD", "trial_index": 145}, "uniqueid": "MTK3411:3634BBTX0P16K3HIG67V56752V4IF3", "dateTime": 1520530968381}, {"current_trial": 146, "trialdata": {"rt": -1000, "trial_type": "single-audio", "word": "judge", "stimulus": "/static/audio/wordpool/JUDGE.wav", "conditions": [24, 1600, "a", 12000], "internal_node_id": "0.0-101.0", "trial": 4, "time_elapsed": 751721, "serialpos": 1, "key_press": -1, "wordID": 760, "type": "PRES_AUD", "trial_index": 146}, "uniqueid": "MTK3411:3634BBTX0P16K3HIG67V56752V4IF3", "dateTime": 1520530971139}, {"current_trial": 147, "trialdata": {"rt": -1000, "trial_type": "single-audio", "word": "swimmer", "stimulus": "/static/audio/wordpool/SWIMMER.wav", "conditions": [24, 1600, "a", 12000], "internal_node_id": "0.0-102.0", "trial": 4, "time_elapsed": 754216, "serialpos": 2, "key_press": -1, "wordID": 1419, "type": "PRES_AUD", "trial_index": 147}, "uniqueid": "MTK3411:3634BBTX0P16K3HIG67V56752V4IF3", "dateTime": 1520530973634}, {"current_trial": 148, "trialdata": {"rt": -1000, "trial_type": "single-audio", "word": "church", "stimulus": "/static/audio/wordpool/CHURCH.wav", "conditions": [24, 1600, "a", 12000], "internal_node_id": "0.0-103.0", "trial": 4, "time_elapsed": 756939, "serialpos": 3, "key_press": -1, "wordID": 306, "type": "PRES_AUD", "trial_index": 148}, "uniqueid": "MTK3411:3634BBTX0P16K3HIG67V56752V4IF3", "dateTime": 1520530976357}, {"current_trial": 149, "trialdata": {"rt": -1000, "trial_type": "single-audio", "word": "pluto", "stimulus": "/static/audio/wordpool/PLUTO.wav", "conditions": [24, 1600, "a", 12000], "internal_node_id": "0.0-104.0", "trial": 4, "time_elapsed": 759596, "serialpos": 4, "key_press": -1, "wordID": 1091, "type": "PRES_AUD", "trial_index": 149}, "uniqueid": "MTK3411:3634BBTX0P16K3HIG67V56752V4IF3", "dateTime": 1520530979014}, {"current_trial": 150, "trialdata": {"rt": -1000, "trial_type": "single-audio", "word": "police", "stimulus": "/static/audio/wordpool/POLICE.wav", "conditions": [24, 1600, "a", 12000], "internal_node_id": "0.0-105.0", "trial": 4, "time_elapsed": 762174, "serialpos": 5, "key_press": -1, "wordID": 1097, "type": "PRES_AUD", "trial_index": 150}, "uniqueid": "MTK3411:3634BBTX0P16K3HIG67V56752V4IF3", "dateTime": 1520530981592}, {"current_trial": 151, "trialdata": {"rt": -1000, "trial_type": "single-audio", "word": "patrol", "stimulus": "/static/audio/wordpool/PATROL.wav", "conditions": [24, 1600, "a", 12000], "internal_node_id": "0.0-106.0", "trial": 4, "time_elapsed": 764893, "serialpos": 6, "key_press": -1, "wordID": 1026, "type": "PRES_AUD", "trial_index": 151}, "uniqueid": "MTK3411:3634BBTX0P16K3HIG67V56752V4IF3", "dateTime": 1520530984311}, {"current_trial": 152, "trialdata": {"rt": -1000, "trial_type": "single-audio", "word": "maple", "stimulus": "/static/audio/wordpool/MAPLE.wav", "conditions": [24, 1600, "a", 12000], "internal_node_id": "0.0-107.0", "trial": 4, "time_elapsed": 767518, "serialpos": 7, "key_press": -1, "wordID": 865, "type": "PRES_AUD", "trial_index": 152}, "uniqueid": "MTK3411:3634BBTX0P16K3HIG67V56752V4IF3", "dateTime": 1520530986936}, {"current_trial": 153, "trialdata": {"rt": -1000, "trial_type": "single-audio", "word": "mattress", "stimulus": "/static/audio/wordpool/MATTRESS.wav", "conditions": [24, 1600, "a", 12000], "internal_node_id": "0.0-108.0", "trial": 4, "time_elapsed": 769942, "serialpos": 8, "key_press": -1, "wordID": 878, "type": "PRES_AUD", "trial_index": 153}, "uniqueid": "MTK3411:3634BBTX0P16K3HIG67V56752V4IF3", "dateTime": 1520530989360}, {"current_trial": 154, "trialdata": {"rt": -1000, "trial_type": "single-audio", "word": "beaver", "stimulus": "/static/audio/wordpool/BEAVER.wav", "conditions": [24, 1600, "a", 12000], "internal_node_id": "0.0-109.0", "trial": 4, "time_elapsed": 772736, "serialpos": 9, "key_press": -1, "wordID": 108, "type": "PRES_AUD", "trial_index": 154}, "uniqueid": "MTK3411:3634BBTX0P16K3HIG67V56752V4IF3", "dateTime": 1520530992154}, {"current_trial": 155, "trialdata": {"rt": -1000, "trial_type": "single-audio", "word": "snail", "stimulus": "/static/audio/wordpool/SNAIL.wav", "conditions": [24, 1600, "a", 12000], "internal_node_id": "0.0-110.0", "trial": 4, "time_elapsed": 775300, "serialpos": 10, "key_press": -1, "wordID": 1331, "type": "PRES_AUD", "trial_index": 155}, "uniqueid": "MTK3411:3634BBTX0P16K3HIG67V56752V4IF3", "dateTime": 1520530994718}, {"current_trial": 156, "trialdata": {"rt": -1000, "trial_type": "single-audio", "word": "breast", "stimulus": "/static/audio/wordpool/BREAST.wav", "conditions": [24, 1600, "a", 12000], "internal_node_id": "0.0-111.0", "trial": 4, "time_elapsed": 777737, "serialpos": 11, "key_press": -1, "wordID": 170, "type": "PRES_AUD", "trial_index": 156}, "uniqueid": "MTK3411:3634BBTX0P16K3HIG67V56752V4IF3", "dateTime": 1520530997155}, {"current_trial": 157, "trialdata": {"rt": -1000, "trial_type": "single-audio", "word": "army", "stimulus": "/static/audio/wordpool/ARMY.wav", "conditions": [24, 1600, "a", 12000], "internal_node_id": "0.0-112.0", "trial": 4, "time_elapsed": 780171, "serialpos": 12, "key_press": -1, "wordID": 38, "type": "PRES_AUD", "trial_index": 157}, "uniqueid": "MTK3411:3634BBTX0P16K3HIG67V56752V4IF3", "dateTime": 1520530999589}, {"current_trial": 158, "trialdata": {"rt": -1000, "trial_type": "single-audio", "word": "wagon", "stimulus": "/static/audio/wordpool/WAGON.wav", "conditions": [24, 1600, "a", 12000], "internal_node_id": "0.0-113.0", "trial": 4, "time_elapsed": 782642, "serialpos": 13, "key_press": -1, "wordID": 1577, "type": "PRES_AUD", "trial_index": 158}, "uniqueid": "MTK3411:3634BBTX0P16K3HIG67V56752V4IF3", "dateTime": 1520531002060}, {"current_trial": 159, "trialdata": {"rt": -1000, "trial_type": "single-audio", "word": "jelly", "stimulus": "/static/audio/wordpool/JELLY.wav", "conditions": [24, 1600, "a", 12000], "internal_node_id": "0.0-114.0", "trial": 4, "time_elapsed": 785157, "serialpos": 14, "key_press": -1, "wordID": 754, "type": "PRES_AUD", "trial_index": 159}, "uniqueid": "MTK3411:3634BBTX0P16K3HIG67V56752V4IF3", "dateTime": 1520531004575}, {"current_trial": 160, "trialdata": {"rt": -1000, "trial_type": "single-audio", "word": "champagne", "stimulus": "/static/audio/wordpool/CHAMPAGNE.wav", "conditions": [24, 1600, "a", 12000], "internal_node_id": "0.0-115.0", "trial": 4, "time_elapsed": 787660, "serialpos": 15, "key_press": -1, "wordID": 277, "type": "PRES_AUD", "trial_index": 160}, "uniqueid": "MTK3411:3634BBTX0P16K3HIG67V56752V4IF3", "dateTime": 1520531007078}, {"current_trial": 161, "trialdata": {"rt": -1000, "trial_type": "single-audio", "word": "scribble", "stimulus": "/static/audio/wordpool/SCRIBBLE.wav", "conditions": [24, 1600, "a", 12000], "internal_node_id": "0.0-116.0", "trial": 4, "time_elapsed": 790235, "serialpos": 16, "key_press": -1, "wordID": 1255, "type": "PRES_AUD", "trial_index": 161}, "uniqueid": "MTK3411:3634BBTX0P16K3HIG67V56752V4IF3", "dateTime": 1520531009653}, {"current_trial": 162, "trialdata": {"rt": -1000, "trial_type": "single-audio", "word": "lodge", "stimulus": "/static/audio/wordpool/LODGE.wav", "conditions": [24, 1600, "a", 12000], "internal_node_id": "0.0-117.0", "trial": 4, "time_elapsed": 792751, "serialpos": 17, "key_press": -1, "wordID": 838, "type": "PRES_AUD", "trial_index": 162}, "uniqueid": "MTK3411:3634BBTX0P16K3HIG67V56752V4IF3", "dateTime": 1520531012169}, {"current_trial": 163, "trialdata": {"rt": -1000, "trial_type": "single-audio", "word": "scissors", "stimulus": "/static/audio/wordpool/SCISSORS.wav", "conditions": [24, 1600, "a", 12000], "internal_node_id": "0.0-118.0", "trial": 4, "time_elapsed": 795472, "serialpos": 18, "key_press": -1, "wordID": 1249, "type": "PRES_AUD", "trial_index": 163}, "uniqueid": "MTK3411:3634BBTX0P16K3HIG67V56752V4IF3", "dateTime": 1520531014890}, {"current_trial": 164, "trialdata": {"rt": -1000, "trial_type": "single-audio", "word": "hood", "stimulus": "/static/audio/wordpool/HOOD.wav", "conditions": [24, 1600, "a", 12000], "internal_node_id": "0.0-119.0", "trial": 4, "time_elapsed": 797939, "serialpos": 19, "key_press": -1, "wordID": 713, "type": "PRES_AUD", "trial_index": 164}, "uniqueid": "MTK3411:3634BBTX0P16K3HIG67V56752V4IF3", "dateTime": 1520531017357}, {"current_trial": 165, "trialdata": {"rt": -1000, "trial_type": "single-audio", "word": "truck", "stimulus": "/static/audio/wordpool/TRUCK.wav", "conditions": [24, 1600, "a", 12000], "internal_node_id": "0.0-120.0", "trial": 4, "time_elapsed": 800391, "serialpos": 20, "key_press": -1, "wordID": 1511, "type": "PRES_AUD", "trial_index": 165}, "uniqueid": "MTK3411:3634BBTX0P16K3HIG67V56752V4IF3", "dateTime": 1520531019809}, {"current_trial": 166, "trialdata": {"rt": -1000, "trial_type": "single-audio", "word": "peanut", "stimulus": "/static/audio/wordpool/PEANUT.wav", "conditions": [24, 1600, "a", 12000], "internal_node_id": "0.0-121.0", "trial": 4, "time_elapsed": 802824, "serialpos": 21, "key_press": -1, "wordID": 1031, "type": "PRES_AUD", "trial_index": 166}, "uniqueid": "MTK3411:3634BBTX0P16K3HIG67V56752V4IF3", "dateTime": 1520531022242}, {"current_trial": 167, "trialdata": {"rt": -1000, "trial_type": "single-audio", "word": "pecan", "stimulus": "/static/audio/wordpool/PECAN.wav", "conditions": [24, 1600, "a", 12000], "internal_node_id": "0.0-122.0", "trial": 4, "time_elapsed": 805518, "serialpos": 22, "key_press": -1, "wordID": 1035, "type": "PRES_AUD", "trial_index": 167}, "uniqueid": "MTK3411:3634BBTX0P16K3HIG67V56752V4IF3", "dateTime": 1520531024936}, {"current_trial": 168, "trialdata": {"rt": -1000, "trial_type": "single-audio", "word": "beaker", "stimulus": "/static/audio/wordpool/BEAKER.wav", "conditions": [24, 1600, "a", 12000], "internal_node_id": "0.0-123.0", "trial": 4, "time_elapsed": 808250, "serialpos": 23, "key_press": -1, "wordID": 103, "type": "PRES_AUD", "trial_index": 168}, "uniqueid": "MTK3411:3634BBTX0P16K3HIG67V56752V4IF3", "dateTime": 1520531027668}, {"current_trial": 169, "trialdata": {"rt": -1, "trial_type": "single-stim", "stimulus": "", "internal_node_id": "0.0-124.0-0.0", "time_elapsed": 809469, "key_press": -1, "type": "PRE_RECALL_DELAY", "trial_index": 169}, "uniqueid": "MTK3411:3634BBTX0P16K3HIG67V56752V4IF3", "dateTime": 1520531028887}, {"current_trial": 170, "trialdata": {"rt": -1000, "trial_type": "single-audio", "stimulus": "/static/audio/400Hz.wav", "internal_node_id": "0.0-125.0", "time_elapsed": 809971, "key_press": -1, "type": "PRE_RECALL_ALERT", "trial_index": 170}, "uniqueid": "MTK3411:3634BBTX0P16K3HIG67V56752V4IF3", "dateTime": 1520531029389}, {"current_trial": 171, "trialdata": {"rt": [4408, 8029, 10468, 13001, 15960, 20795, 24422, 28290, 32518, 36219, 44499], "recwords": ["scribble", "breast", "wagon", "church", "swimmer", "pluto", "police", "patrol", "jelly", "scissors", "snail"], "key_times": [1222, 1485, 1945, 2809, 3175, 3327, 3566, 3753, 4408, 5841, 6070, 6207, 6875, 7118, 7274, 7516, 7733, 8029, 9391, 9525, 9736, 9998, 10202, 10468, 11124, 11226, 11438, 11605, 12211, 12311, 12596, 12740, 13001, 14530, 14736, 14909, 15150, 15328, 15442, 15606, 15960, 18002, 18389, 18970, 19651, 20120, 20357, 20521, 20795, 21489, 21779, 22001, 22344, 22506, 23031, 23289, 23534, 23705, 23949, 24422, 25889, 26261, 26639, 26906, 27085, 27467, 28290, 31540, 31701, 31878, 32032, 32243, 32518, 34501, 34793, 34990, 35193, 35361, 35541, 35739, 36024, 36219, 43467, 43652, 43803, 44000, 44257, 44499], "trial_type": "free-recall", "conditions": [24, 1600, "a", 12000], "internal_node_id": "0.0-126.0-0.0", "key_presses": [83, 67, 82, 73, 66, 66, 76, 69, 13, 66, 82, 65, 8, 69, 65, 83, 84, 13, 87, 65, 71, 79, 78, 13, 67, 72, 85, 67, 8, 82, 67, 72, 13, 83, 87, 73, 77, 77, 69, 82, 13, 80, 85, 8, 76, 85, 84, 79, 13, 80, 76, 73, 8, 8, 79, 76, 73, 67, 69, 13, 80, 65, 84, 82, 79, 76, 13, 74, 69, 76, 76, 89, 13, 83, 67, 73, 83, 83, 79, 82, 83, 13, 83, 78, 65, 73, 76, 13], "trial": 4, "time_elapsed": 869972, "type": "FREE_RECALL", "trial_index": 171}, "uniqueid": "MTK3411:3634BBTX0P16K3HIG67V56752V4IF3", "dateTime": 1520531089395}, {"current_trial": 172, "trialdata": {"rt": 2042, "trial_type": "text", "internal_node_id": "0.0-127.0", "time_elapsed": 874021, "key_press": 32, "type": "INSTRUCTIONS", "trial_index": 172}, "uniqueid": "MTK3411:3634BBTX0P16K3HIG67V56752V4IF3", "dateTime": 1520531093439}, {"current_trial": 173, "trialdata": {"rt": [2625, 8040, 11029, 14834, 18950, 22275], "trial_type": "math-distractor", "key_times": [2268, 2625, 7405, 7611, 8040, 10249, 10458, 11029, 13953, 14124, 14834, 18173, 18361, 18950, 21542, 21665, 22275, 23751, 23948], "responses": ["9", "24", "20", "15", "15", "15"], "num2": [1, 9, 2, 4, 7, 2, 7], "num3": [3, 8, 9, 3, 4, 8, 2], "conditions": [24, 1600, "a", 24000], "internal_node_id": "0.0-128.0", "key_presses": [105, 13, 98, 100, 13, 98, 96, 13, 97, 101, 13, 97, 101, 13, 97, 101, 13, 97, 96], "trial": 5, "time_elapsed": 900024, "type": "DISTRACTOR", "trial_index": 173, "num1": [5, 7, 9, 8, 4, 5, 1]}, "uniqueid": "MTK3411:3634BBTX0P16K3HIG67V56752V4IF3", "dateTime": 1520531119442}, {"current_trial": 174, "trialdata": {"rt": -1, "trial_type": "single-stim", "stimulus": "<p id=\"stim\">10</p>", "internal_node_id": "0.0-129.0-0.0", "time_elapsed": 903025, "key_press": -1, "trial_index": 174}, "uniqueid": "MTK3411:3634BBTX0P16K3HIG67V56752V4IF3", "dateTime": 1520531122443}, {"current_trial": 175, "trialdata": {"rt": -1, "trial_type": "single-stim", "stimulus": "<p id=\"stim\">9</p>", "internal_node_id": "0.0-129.0-1.0", "time_elapsed": 904027, "key_press": -1, "trial_index": 175}, "uniqueid": "MTK3411:3634BBTX0P16K3HIG67V56752V4IF3", "dateTime": 1520531123445}, {"current_trial": 176, "trialdata": {"rt": -1, "trial_type": "single-stim", "stimulus": "<p id=\"stim\">8</p>", "internal_node_id": "0.0-129.0-2.0", "time_elapsed": 905028, "key_press": -1, "trial_index": 176}, "uniqueid": "MTK3411:3634BBTX0P16K3HIG67V56752V4IF3", "dateTime": 1520531124446}, {"current_trial": 177, "trialdata": {"rt": -1, "trial_type": "single-stim", "stimulus": "<p id=\"stim\">7</p>", "internal_node_id": "0.0-129.0-3.0", "time_elapsed": 906029, "key_press": -1, "trial_index": 177}, "uniqueid": "MTK3411:3634BBTX0P16K3HIG67V56752V4IF3", "dateTime": 1520531125449}, {"current_trial": 178, "trialdata": {"rt": -1, "trial_type": "single-stim", "stimulus": "<p id=\"stim\">6</p>", "internal_node_id": "0.0-129.0-4.0", "time_elapsed": 907031, "key_press": -1, "trial_index": 178}, "uniqueid": "MTK3411:3634BBTX0P16K3HIG67V56752V4IF3", "dateTime": 1520531126449}, {"current_trial": 179, "trialdata": {"rt": -1, "trial_type": "single-stim", "stimulus": "<p id=\"stim\">5</p>", "internal_node_id": "0.0-129.0-5.0", "time_elapsed": 908032, "key_press": -1, "trial_index": 179}, "uniqueid": "MTK3411:3634BBTX0P16K3HIG67V56752V4IF3", "dateTime": 1520531127451}, {"current_trial": 180, "trialdata": {"rt": -1, "trial_type": "single-stim", "stimulus": "<p id=\"stim\">4</p>", "internal_node_id": "0.0-129.0-6.0", "time_elapsed": 909033, "key_press": -1, "trial_index": 180}, "uniqueid": "MTK3411:3634BBTX0P16K3HIG67V56752V4IF3", "dateTime": 1520531128451}, {"current_trial": 181, "trialdata": {"rt": -1, "trial_type": "single-stim", "stimulus": "<p id=\"stim\">3</p>", "internal_node_id": "0.0-129.0-7.0", "time_elapsed": 910034, "key_press": -1, "trial_index": 181}, "uniqueid": "MTK3411:3634BBTX0P16K3HIG67V56752V4IF3", "dateTime": 1520531129452}, {"current_trial": 182, "trialdata": {"rt": -1, "trial_type": "single-stim", "stimulus": "<p id=\"stim\">2</p>", "internal_node_id": "0.0-129.0-8.0", "time_elapsed": 911035, "key_press": -1, "trial_index": 182}, "uniqueid": "MTK3411:3634BBTX0P16K3HIG67V56752V4IF3", "dateTime": 1520531130453}, {"current_trial": 183, "trialdata": {"rt": -1, "trial_type": "single-stim", "stimulus": "<p id=\"stim\">1</p>", "internal_node_id": "0.0-129.0-9.0", "time_elapsed": 912037, "key_press": -1, "trial_index": 183}, "uniqueid": "MTK3411:3634BBTX0P16K3HIG67V56752V4IF3", "dateTime": 1520531131455}, {"current_trial": 184, "trialdata": {"rt": -1, "trial_type": "single-stim", "stimulus": "<p id=\"stim\">+</p>", "internal_node_id": "0.0-130.0-0.0", "time_elapsed": 913538, "key_press": -1, "type": "FIXATION", "trial_index": 184}, "uniqueid": "MTK3411:3634BBTX0P16K3HIG67V56752V4IF3", "dateTime": 1520531132956}, {"current_trial": 185, "trialdata": {"rt": -1000, "trial_type": "single-audio", "word": "bug", "stimulus": "/static/audio/wordpool/BUG.wav", "conditions": [24, 1600, "a", 24000], "internal_node_id": "0.0-131.0", "trial": 5, "time_elapsed": 916045, "serialpos": 0, "key_press": -1, "wordID": 186, "type": "PRES_AUD", "trial_index": 185}, "uniqueid": "MTK3411:3634BBTX0P16K3HIG67V56752V4IF3", "dateTime": 1520531135463}, {"current_trial": 186, "trialdata": {"rt": -1000, "trial_type": "single-audio", "word": "necklace", "stimulus": "/static/audio/wordpool/NECKLACE.wav", "conditions": [24, 1600, "a", 24000], "internal_node_id": "0.0-132.0", "trial": 5, "time_elapsed": 918684, "serialpos": 1, "key_press": -1, "wordID": 939, "type": "PRES_AUD", "trial_index": 186}, "uniqueid": "MTK3411:3634BBTX0P16K3HIG67V56752V4IF3", "dateTime": 1520531138102}, {"current_trial": 187, "trialdata": {"rt": -1000, "trial_type": "single-audio", "word": "orange", "stimulus": "/static/audio/wordpool/ORANGE.wav", "conditions": [24, 1600, "a", 24000], "internal_node_id": "0.0-133.0", "trial": 5, "time_elapsed": 921139, "serialpos": 2, "key_press": -1, "wordID": 979, "type": "PRES_AUD", "trial_index": 187}, "uniqueid": "MTK3411:3634BBTX0P16K3HIG67V56752V4IF3", "dateTime": 1520531140557}, {"current_trial": 188, "trialdata": {"rt": -1000, "trial_type": "single-audio", "word": "tractor", "stimulus": "/static/audio/wordpool/TRACTOR.wav", "conditions": [24, 1600, "a", 24000], "internal_node_id": "0.0-134.0", "trial": 5, "time_elapsed": 923715, "serialpos": 3, "key_press": -1, "wordID": 1492, "type": "PRES_AUD", "trial_index": 188}, "uniqueid": "MTK3411:3634BBTX0P16K3HIG67V56752V4IF3", "dateTime": 1520531143133}, {"current_trial": 189, "trialdata": {"rt": -1000, "trial_type": "single-audio", "word": "plate", "stimulus": "/static/audio/wordpool/PLATE.wav", "conditions": [24, 1600, "a", 24000], "internal_node_id": "0.0-135.0", "trial": 5, "time_elapsed": 926326, "serialpos": 4, "key_press": -1, "wordID": 1085, "type": "PRES_AUD", "trial_index": 189}, "uniqueid": "MTK3411:3634BBTX0P16K3HIG67V56752V4IF3", "dateTime": 1520531145744}, {"current_trial": 190, "trialdata": {"rt": -1000, "trial_type": "single-audio", "word": "cod", "stimulus": "/static/audio/wordpool/COD.wav", "conditions": [24, 1600, "a", 24000], "internal_node_id": "0.0-136.0", "trial": 5, "time_elapsed": 929028, "serialpos": 5, "key_press": -1, "wordID": 339, "type": "PRES_AUD", "trial_index": 190}, "uniqueid": "MTK3411:3634BBTX0P16K3HIG67V56752V4IF3", "dateTime": 1520531148446}, {"current_trial": 191, "trialdata": {"rt": -1000, "trial_type": "single-audio", "word": "scotch", "stimulus": "/static/audio/wordpool/SCOTCH.wav", "conditions": [24, 1600, "a", 24000], "internal_node_id": "0.0-137.0", "trial": 5, "time_elapsed": 931792, "serialpos": 6, "key_press": -1, "wordID": 1250, "type": "PRES_AUD", "trial_index": 191}, "uniqueid": "MTK3411:3634BBTX0P16K3HIG67V56752V4IF3", "dateTime": 1520531151210}, {"current_trial": 192, "trialdata": {"rt": -1000, "trial_type": "single-audio", "word": "slug", "stimulus": "/static/audio/wordpool/SLUG.wav", "conditions": [24, 1600, "a", 24000], "internal_node_id": "0.0-138.0", "trial": 5, "time_elapsed": 934421, "serialpos": 7, "key_press": -1, "wordID": 1328, "type": "PRES_AUD", "trial_index": 192}, "uniqueid": "MTK3411:3634BBTX0P16K3HIG67V56752V4IF3", "dateTime": 1520531153839}, {"current_trial": 193, "trialdata": {"rt": -1000, "trial_type": "single-audio", "word": "powder", "stimulus": "/static/audio/wordpool/POWDER.wav", "conditions": [24, 1600, "a", 24000], "internal_node_id": "0.0-139.0", "trial": 5, "time_elapsed": 937150, "serialpos": 8, "key_press": -1, "wordID": 1116, "type": "PRES_AUD", "trial_index": 193}, "uniqueid": "MTK3411:3634BBTX0P16K3HIG67V56752V4IF3", "dateTime": 1520531156568}, {"current_trial": 194, "trialdata": {"rt": -1000, "trial_type": "single-audio", "word": "marsh", "stimulus": "/static/audio/wordpool/MARSH.wav", "conditions": [24, 1600, "a", 24000], "internal_node_id": "0.0-140.0", "trial": 5, "time_elapsed": 939745, "serialpos": 9, "key_press": -1, "wordID": 873, "type": "PRES_AUD", "trial_index": 194}, "uniqueid": "MTK3411:3634BBTX0P16K3HIG67V56752V4IF3", "dateTime": 1520531159163}, {"current_trial": 195, "trialdata": {"rt": -1000, "trial_type": "single-audio", "word": "lagoon", "stimulus": "/static/audio/wordpool/LAGOON.wav", "conditions": [24, 1600, "a", 24000], "internal_node_id": "0.0-141.0", "trial": 5, "time_elapsed": 942544, "serialpos": 10, "key_press": -1, "wordID": 794, "type": "PRES_AUD", "trial_index": 195}, "uniqueid": "MTK3411:3634BBTX0P16K3HIG67V56752V4IF3", "dateTime": 1520531161962}, {"current_trial": 196, "trialdata": {"rt": -1000, "trial_type": "single-audio", "word": "handbag", "stimulus": "/static/audio/wordpool/HANDBAG.wav", "conditions": [24, 1600, "a", 24000], "internal_node_id": "0.0-142.0", "trial": 5, "time_elapsed": 945152, "serialpos": 11, "key_press": -1, "wordID": 683, "type": "PRES_AUD", "trial_index": 196}, "uniqueid": "MTK3411:3634BBTX0P16K3HIG67V56752V4IF3", "dateTime": 1520531164570}, {"current_trial": 197, "trialdata": {"rt": -1000, "trial_type": "single-audio", "word": "shorts", "stimulus": "/static/audio/wordpool/SHORTS.wav", "conditions": [24, 1600, "a", 24000], "internal_node_id": "0.0-143.0", "trial": 5, "time_elapsed": 947621, "serialpos": 12, "key_press": -1, "wordID": 1292, "type": "PRES_AUD", "trial_index": 197}, "uniqueid": "MTK3411:3634BBTX0P16K3HIG67V56752V4IF3", "dateTime": 1520531167039}, {"current_trial": 198, "trialdata": {"rt": -1000, "trial_type": "single-audio", "word": "transplant", "stimulus": "/static/audio/wordpool/TRANSPLANT.wav", "conditions": [24, 1600, "a", 24000], "internal_node_id": "0.0-144.0", "trial": 5, "time_elapsed": 950105, "serialpos": 13, "key_press": -1, "wordID": 1495, "type": "PRES_AUD", "trial_index": 198}, "uniqueid": "MTK3411:3634BBTX0P16K3HIG67V56752V4IF3", "dateTime": 1520531169523}, {"current_trial": 199, "trialdata": {"rt": -1000, "trial_type": "single-audio", "word": "hatchet", "stimulus": "/static/audio/wordpool/HATCHET.wav", "conditions": [24, 1600, "a", 24000], "internal_node_id": "0.0-145.0", "trial": 5, "time_elapsed": 952904, "serialpos": 14, "key_press": -1, "wordID": 690, "type": "PRES_AUD", "trial_index": 199}, "uniqueid": "MTK3411:3634BBTX0P16K3HIG67V56752V4IF3", "dateTime": 1520531172322}, {"current_trial": 200, "trialdata": {"rt": -1000, "trial_type": "single-audio", "word": "valley", "stimulus": "/static/audio/wordpool/VALLEY.wav", "conditions": [24, 1600, "a", 24000], "internal_node_id": "0.0-146.0", "trial": 5, "time_elapsed": 955619, "serialpos": 15, "key_press": -1, "wordID": 1544, "type": "PRES_AUD", "trial_index": 200}, "uniqueid": "MTK3411:3634BBTX0P16K3HIG67V56752V4IF3", "dateTime": 1520531175037}, {"current_trial": 201, "trialdata": {"rt": -1000, "trial_type": "single-audio", "word": "switch", "stimulus": "/static/audio/wordpool/SWITCH.wav", "conditions": [24, 1600, "a", 24000], "internal_node_id": "0.0-147.0", "trial": 5, "time_elapsed": 958401, "serialpos": 16, "key_press": -1, "wordID": 1421, "type": "PRES_AUD", "trial_index": 201}, "uniqueid": "MTK3411:3634BBTX0P16K3HIG67V56752V4IF3", "dateTime": 1520531177819}, {"current_trial": 202, "trialdata": {"rt": -1000, "trial_type": "single-audio", "word": "forehead", "stimulus": "/static/audio/wordpool/FOREHEAD.wav", "conditions": [24, 1600, "a", 24000], "internal_node_id": "0.0-148.0", "trial": 5, "time_elapsed": 960918, "serialpos": 17, "key_press": -1, "wordID": 591, "type": "PRES_AUD", "trial_index": 202}, "uniqueid": "MTK3411:3634BBTX0P16K3HIG67V56752V4IF3", "dateTime": 1520531180336}, {"current_trial": 203, "trialdata": {"rt": -1000, "trial_type": "single-audio", "word": "canyon", "stimulus": "/static/audio/wordpool/CANYON.wav", "conditions": [24, 1600, "a", 24000], "internal_node_id": "0.0-149.0", "trial": 5, "time_elapsed": 963510, "serialpos": 18, "key_press": -1, "wordID": 234, "type": "PRES_AUD", "trial_index": 203}, "uniqueid": "MTK3411:3634BBTX0P16K3HIG67V56752V4IF3", "dateTime": 1520531182928}, {"current_trial": 204, "trialdata": {"rt": -1000, "trial_type": "single-audio", "word": "shirt", "stimulus": "/static/audio/wordpool/SHIRT.wav", "conditions": [24, 1600, "a", 24000], "internal_node_id": "0.0-150.0", "trial": 5, "time_elapsed": 966096, "serialpos": 19, "key_press": -1, "wordID": 1286, "type": "PRES_AUD", "trial_index": 204}, "uniqueid": "MTK3411:3634BBTX0P16K3HIG67V56752V4IF3", "dateTime": 1520531185514}, {"current_trial": 205, "trialdata": {"rt": -1000, "trial_type": "single-audio", "word": "match", "stimulus": "/static/audio/wordpool/MATCH.wav", "conditions": [24, 1600, "a", 24000], "internal_node_id": "0.0-151.0", "trial": 5, "time_elapsed": 968557, "serialpos": 20, "key_press": -1, "wordID": 877, "type": "PRES_AUD", "trial_index": 205}, "uniqueid": "MTK3411:3634BBTX0P16K3HIG67V56752V4IF3", "dateTime": 1520531187975}, {"current_trial": 206, "trialdata": {"rt": -1000, "trial_type": "single-audio", "word": "eyelash", "stimulus": "/static/audio/wordpool/EYELASH.wav", "conditions": [24, 1600, "a", 24000], "internal_node_id": "0.0-152.0", "trial": 5, "time_elapsed": 971354, "serialpos": 21, "key_press": -1, "wordID": 545, "type": "PRES_AUD", "trial_index": 206}, "uniqueid": "MTK3411:3634BBTX0P16K3HIG67V56752V4IF3", "dateTime": 1520531190772}, {"current_trial": 207, "trialdata": {"rt": -1000, "trial_type": "single-audio", "word": "goblin", "stimulus": "/static/audio/wordpool/GOBLIN.wav", "conditions": [24, 1600, "a", 24000], "internal_node_id": "0.0-153.0", "trial": 5, "time_elapsed": 973823, "serialpos": 22, "key_press": -1, "wordID": 644, "type": "PRES_AUD", "trial_index": 207}, "uniqueid": "MTK3411:3634BBTX0P16K3HIG67V56752V4IF3", "dateTime": 1520531193241}, {"current_trial": 208, "trialdata": {"rt": -1000, "trial_type": "single-audio", "word": "dragon", "stimulus": "/static/audio/wordpool/DRAGON.wav", "conditions": [24, 1600, "a", 24000], "internal_node_id": "0.0-154.0", "trial": 5, "time_elapsed": 976385, "serialpos": 23, "key_press": -1, "wordID": 491, "type": "PRES_AUD", "trial_index": 208}, "uniqueid": "MTK3411:3634BBTX0P16K3HIG67V56752V4IF3", "dateTime": 1520531195803}, {"current_trial": 209, "trialdata": {"rt": -1, "trial_type": "single-stim", "stimulus": "", "internal_node_id": "0.0-155.0-0.0", "time_elapsed": 977744, "key_press": -1, "type": "PRE_RECALL_DELAY", "trial_index": 209}, "uniqueid": "MTK3411:3634BBTX0P16K3HIG67V56752V4IF3", "dateTime": 1520531197162}, {"current_trial": 210, "trialdata": {"rt": -1000, "trial_type": "single-audio", "stimulus": "/static/audio/400Hz.wav", "internal_node_id": "0.0-156.0", "time_elapsed": 978250, "key_press": -1, "type": "PRE_RECALL_ALERT", "trial_index": 210}, "uniqueid": "MTK3411:3634BBTX0P16K3HIG67V56752V4IF3", "dateTime": 1520531197668}, {"current_trial": 211, "trialdata": {"rt": [4964, 8312, 10472, 12916, 15243, 18956, 22613, 24626, 28597, 35255], "recwords": ["bug", "orange", "tractor", "cod", "scotch", "canyon", "shorts", "handbag", "slug", "marsh"], "key_times": [3738, 4385, 4519, 4964, 6685, 6863, 7163, 7393, 7906, 8100, 8312, 8955, 9132, 9298, 9620, 9954, 10116, 10219, 10472, 12185, 12366, 12531, 12916, 13956, 14196, 14302, 14512, 14867, 14969, 15243, 17547, 17749, 17882, 18241, 18464, 18693, 18956, 21498, 21620, 21734, 21978, 22194, 22427, 22613, 23252, 23383, 23524, 23693, 23957, 24131, 24390, 24626, 27602, 27969, 28224, 28365, 28597, 34249, 34360, 34484, 34867, 34969, 35255], "trial_type": "free-recall", "conditions": [24, 1600, "a", 24000], "internal_node_id": "0.0-157.0-0.0", "key_presses": [66, 85, 71, 13, 79, 82, 65, 78, 71, 69, 13, 84, 82, 65, 67, 84, 79, 82, 13, 67, 79, 68, 13, 83, 67, 79, 84, 67, 72, 13, 67, 65, 78, 89, 79, 78, 13, 83, 72, 79, 82, 84, 83, 13, 72, 65, 78, 68, 66, 65, 71, 13, 83, 76, 85, 71, 13, 77, 65, 82, 83, 72, 13], "trial": 5, "time_elapsed": 1038257, "type": "FREE_RECALL", "trial_index": 211}, "uniqueid": "MTK3411:3634BBTX0P16K3HIG67V56752V4IF3", "dateTime": 1520531257682}, {"current_trial": 212, "trialdata": {"rt": 1690, "trial_type": "text", "internal_node_id": "0.0-158.0", "time_elapsed": 1041955, "key_press": 32, "type": "INSTRUCTIONS", "trial_index": 212}, "uniqueid": "MTK3411:3634BBTX0P16K3HIG67V56752V4IF3", "dateTime": 1520531261373}, {"current_trial": 213, "trialdata": {"rt": [3015, 6635, 8653, 10463], "trial_type": "math-distractor", "key_times": [2302, 2451, 3015, 6195, 6374, 6635, 8333, 8653, 9893, 10086, 10463], "responses": ["11", "23", "9", "10"], "num2": [1, 7, 2, 8, 6], "num3": [7, 9, 5, 1, 5], "conditions": [24, 800, "a", 12000], "internal_node_id": "0.0-159.0", "key_presses": [97, 97, 13, 98, 99, 13, 105, 13, 97, 96, 13], "trial": 6, "time_elapsed": 1055958, "type": "DISTRACTOR", "trial_index": 213, "num1": [3, 7, 2, 1, 5]}, "uniqueid": "MTK3411:3634BBTX0P16K3HIG67V56752V4IF3", "dateTime": 1520531275376}, {"current_trial": 214, "trialdata": {"rt": -1, "trial_type": "single-stim", "stimulus": "<p id=\"stim\">10</p>", "internal_node_id": "0.0-160.0-0.0", "time_elapsed": 1058960, "key_press": -1, "trial_index": 214}, "uniqueid": "MTK3411:3634BBTX0P16K3HIG67V56752V4IF3", "dateTime": 1520531278378}, {"current_trial": 215, "trialdata": {"rt": -1, "trial_type": "single-stim", "stimulus": "<p id=\"stim\">9</p>", "internal_node_id": "0.0-160.0-1.0", "time_elapsed": 1059961, "key_press": -1, "trial_index": 215}, "uniqueid": "MTK3411:3634BBTX0P16K3HIG67V56752V4IF3", "dateTime": 1520531279379}, {"current_trial": 216, "trialdata": {"rt": -1, "trial_type": "single-stim", "stimulus": "<p id=\"stim\">8</p>", "internal_node_id": "0.0-160.0-2.0", "time_elapsed": 1060963, "key_press": -1, "trial_index": 216}, "uniqueid": "MTK3411:3634BBTX0P16K3HIG67V56752V4IF3", "dateTime": 1520531280381}, {"current_trial": 217, "trialdata": {"rt": -1, "trial_type": "single-stim", "stimulus": "<p id=\"stim\">7</p>", "internal_node_id": "0.0-160.0-3.0", "time_elapsed": 1061965, "key_press": -1, "trial_index": 217}, "uniqueid": "MTK3411:3634BBTX0P16K3HIG67V56752V4IF3", "dateTime": 1520531281383}, {"current_trial": 218, "trialdata": {"rt": -1, "trial_type": "single-stim", "stimulus": "<p id=\"stim\">6</p>", "internal_node_id": "0.0-160.0-4.0", "time_elapsed": 1062966, "key_press": -1, "trial_index": 218}, "uniqueid": "MTK3411:3634BBTX0P16K3HIG67V56752V4IF3", "dateTime": 1520531282384}, {"current_trial": 219, "trialdata": {"rt": -1, "trial_type": "single-stim", "stimulus": "<p id=\"stim\">5</p>", "internal_node_id": "0.0-160.0-5.0", "time_elapsed": 1063967, "key_press": -1, "trial_index": 219}, "uniqueid": "MTK3411:3634BBTX0P16K3HIG67V56752V4IF3", "dateTime": 1520531283385}, {"current_trial": 220, "trialdata": {"rt": -1, "trial_type": "single-stim", "stimulus": "<p id=\"stim\">4</p>", "internal_node_id": "0.0-160.0-6.0", "time_elapsed": 1064968, "key_press": -1, "trial_index": 220}, "uniqueid": "MTK3411:3634BBTX0P16K3HIG67V56752V4IF3", "dateTime": 1520531284386}, {"current_trial": 221, "trialdata": {"rt": -1, "trial_type": "single-stim", "stimulus": "<p id=\"stim\">3</p>", "internal_node_id": "0.0-160.0-7.0", "time_elapsed": 1065971, "key_press": -1, "trial_index": 221}, "uniqueid": "MTK3411:3634BBTX0P16K3HIG67V56752V4IF3", "dateTime": 1520531285389}, {"current_trial": 222, "trialdata": {"rt": -1, "trial_type": "single-stim", "stimulus": "<p id=\"stim\">2</p>", "internal_node_id": "0.0-160.0-8.0", "time_elapsed": 1066973, "key_press": -1, "trial_index": 222}, "uniqueid": "MTK3411:3634BBTX0P16K3HIG67V56752V4IF3", "dateTime": 1520531286391}, {"current_trial": 223, "trialdata": {"rt": -1, "trial_type": "single-stim", "stimulus": "<p id=\"stim\">1</p>", "internal_node_id": "0.0-160.0-9.0", "time_elapsed": 1067976, "key_press": -1, "trial_index": 223}, "uniqueid": "MTK3411:3634BBTX0P16K3HIG67V56752V4IF3", "dateTime": 1520531287394}, {"current_trial": 224, "trialdata": {"rt": -1, "trial_type": "single-stim", "stimulus": "<p id=\"stim\">+</p>", "internal_node_id": "0.0-161.0-0.0", "time_elapsed": 1069477, "key_press": -1, "type": "FIXATION", "trial_index": 224}, "uniqueid": "MTK3411:3634BBTX0P16K3HIG67V56752V4IF3", "dateTime": 1520531288896}, {"current_trial": 225, "trialdata": {"rt": -1000, "trial_type": "single-audio", "word": "onion", "stimulus": "/static/audio/wordpool/ONION.wav", "conditions": [24, 800, "a", 12000], "internal_node_id": "0.0-162.0", "trial": 6, "time_elapsed": 1071199, "serialpos": 0, "key_press": -1, "wordID": 976, "type": "PRES_AUD", "trial_index": 225}, "uniqueid": "MTK3411:3634BBTX0P16K3HIG67V56752V4IF3", "dateTime": 1520531290617}, {"current_trial": 226, "trialdata": {"rt": -1000, "trial_type": "single-audio", "word": "scarecrow", "stimulus": "/static/audio/wordpool/SCARECROW.wav", "conditions": [24, 800, "a", 12000], "internal_node_id": "0.0-163.0", "trial": 6, "time_elapsed": 1072868, "serialpos": 1, "key_press": -1, "wordID": 1244, "type": "PRES_AUD", "trial_index": 226}, "uniqueid": "MTK3411:3634BBTX0P16K3HIG67V56752V4IF3", "dateTime": 1520531292286}, {"current_trial": 227, "trialdata": {"rt": -1000, "trial_type": "single-audio", "word": "proton", "stimulus": "/static/audio/wordpool/PROTON.wav", "conditions": [24, 800, "a", 12000], "internal_node_id": "0.0-164.0", "trial": 6, "time_elapsed": 1074522, "serialpos": 2, "key_press": -1, "wordID": 1131, "type": "PRES_AUD", "trial_index": 227}, "uniqueid": "MTK3411:3634BBTX0P16K3HIG67V56752V4IF3", "dateTime": 1520531293940}, {"current_trial": 228, "trialdata": {"rt": -1000, "trial_type": "single-audio", "word": "survey", "stimulus": "/static/audio/wordpool/SURVEY.wav", "conditions": [24, 800, "a", 12000], "internal_node_id": "0.0-165.0", "trial": 6, "time_elapsed": 1076227, "serialpos": 3, "key_press": -1, "wordID": 1413, "type": "PRES_AUD", "trial_index": 228}, "uniqueid": "MTK3411:3634BBTX0P16K3HIG67V56752V4IF3", "dateTime": 1520531295645}, {"current_trial": 229, "trialdata": {"rt": -1000, "trial_type": "single-audio", "word": "basement", "stimulus": "/static/audio/wordpool/BASEMENT.wav", "conditions": [24, 800, "a", 12000], "internal_node_id": "0.0-166.0", "trial": 6, "time_elapsed": 1078115, "serialpos": 4, "key_press": -1, "wordID": 93, "type": "PRES_AUD", "trial_index": 229}, "uniqueid": "MTK3411:3634BBTX0P16K3HIG67V56752V4IF3", "dateTime": 1520531297533}, {"current_trial": 230, "trialdata": {"rt": -1000, "trial_type": "single-audio", "word": "possum", "stimulus": "/static/audio/wordpool/POSSUM.wav", "conditions": [24, 800, "a", 12000], "internal_node_id": "0.0-167.0", "trial": 6, "time_elapsed": 1079867, "serialpos": 5, "key_press": -1, "wordID": 1111, "type": "PRES_AUD", "trial_index": 230}, "uniqueid": "MTK3411:3634BBTX0P16K3HIG67V56752V4IF3", "dateTime": 1520531299285}, {"current_trial": 231, "trialdata": {"rt": -1000, "trial_type": "single-audio", "word": "kidney", "stimulus": "/static/audio/wordpool/KIDNEY.wav", "conditions": [24, 800, "a", 12000], "internal_node_id": "0.0-168.0", "trial": 6, "time_elapsed": 1081554, "serialpos": 6, "key_press": -1, "wordID": 775, "type": "PRES_AUD", "trial_index": 231}, "uniqueid": "MTK3411:3634BBTX0P16K3HIG67V56752V4IF3", "dateTime": 1520531300972}, {"current_trial": 232, "trialdata": {"rt": -1000, "trial_type": "single-audio", "word": "lava", "stimulus": "/static/audio/wordpool/LAVA.wav", "conditions": [24, 800, "a", 12000], "internal_node_id": "0.0-169.0", "trial": 6, "time_elapsed": 1083162, "serialpos": 7, "key_press": -1, "wordID": 803, "type": "PRES_AUD", "trial_index": 232}, "uniqueid": "MTK3411:3634BBTX0P16K3HIG67V56752V4IF3", "dateTime": 1520531302580}, {"current_trial": 233, "trialdata": {"rt": -1000, "trial_type": "single-audio", "word": "report", "stimulus": "/static/audio/wordpool/REPORT.wav", "conditions": [24, 800, "a", 12000], "internal_node_id": "0.0-170.0", "trial": 6, "time_elapsed": 1085084, "serialpos": 8, "key_press": -1, "wordID": 1183, "type": "PRES_AUD", "trial_index": 233}, "uniqueid": "MTK3411:3634BBTX0P16K3HIG67V56752V4IF3", "dateTime": 1520531304502}, {"current_trial": 234, "trialdata": {"rt": -1000, "trial_type": "single-audio", "word": "skillet", "stimulus": "/static/audio/wordpool/SKILLET.wav", "conditions": [24, 800, "a", 12000], "internal_node_id": "0.0-171.0", "trial": 6, "time_elapsed": 1086959, "serialpos": 9, "key_press": -1, "wordID": 1316, "type": "PRES_AUD", "trial_index": 234}, "uniqueid": "MTK3411:3634BBTX0P16K3HIG67V56752V4IF3", "dateTime": 1520531306377}, {"current_trial": 235, "trialdata": {"rt": -1000, "trial_type": "single-audio", "word": "grill", "stimulus": "/static/audio/wordpool/GRILL.wav", "conditions": [24, 800, "a", 12000], "internal_node_id": "0.0-172.0", "trial": 6, "time_elapsed": 1088819, "serialpos": 10, "key_press": -1, "wordID": 660, "type": "PRES_AUD", "trial_index": 235}, "uniqueid": "MTK3411:3634BBTX0P16K3HIG67V56752V4IF3", "dateTime": 1520531308237}, {"current_trial": 236, "trialdata": {"rt": -1000, "trial_type": "single-audio", "word": "uncle", "stimulus": "/static/audio/wordpool/UNCLE.wav", "conditions": [24, 800, "a", 12000], "internal_node_id": "0.0-173.0", "trial": 6, "time_elapsed": 1090818, "serialpos": 11, "key_press": -1, "wordID": 1535, "type": "PRES_AUD", "trial_index": 236}, "uniqueid": "MTK3411:3634BBTX0P16K3HIG67V56752V4IF3", "dateTime": 1520531310236}, {"current_trial": 237, "trialdata": {"rt": -1000, "trial_type": "single-audio", "word": "spouse", "stimulus": "/static/audio/wordpool/SPOUSE.wav", "conditions": [24, 800, "a", 12000], "internal_node_id": "0.0-174.0", "trial": 6, "time_elapsed": 1092664, "serialpos": 12, "key_press": -1, "wordID": 1357, "type": "PRES_AUD", "trial_index": 237}, "uniqueid": "MTK3411:3634BBTX0P16K3HIG67V56752V4IF3", "dateTime": 1520531312082}, {"current_trial": 238, "trialdata": {"rt": -1000, "trial_type": "single-audio", "word": "beef", "stimulus": "/static/audio/wordpool/BEEF.wav", "conditions": [24, 800, "a", 12000], "internal_node_id": "0.0-175.0", "trial": 6, "time_elapsed": 1094474, "serialpos": 13, "key_press": -1, "wordID": 112, "type": "PRES_AUD", "trial_index": 238}, "uniqueid": "MTK3411:3634BBTX0P16K3HIG67V56752V4IF3", "dateTime": 1520531313892}, {"current_trial": 239, "trialdata": {"rt": -1000, "trial_type": "single-audio", "word": "child", "stimulus": "/static/audio/wordpool/CHILD.wav", "conditions": [24, 800, "a", 12000], "internal_node_id": "0.0-176.0", "trial": 6, "time_elapsed": 1096397, "serialpos": 14, "key_press": -1, "wordID": 298, "type": "PRES_AUD", "trial_index": 239}, "uniqueid": "MTK3411:3634BBTX0P16K3HIG67V56752V4IF3", "dateTime": 1520531315815}, {"current_trial": 240, "trialdata": {"rt": -1000, "trial_type": "single-audio", "word": "cupboard", "stimulus": "/static/audio/wordpool/CUPBOARD.wav", "conditions": [24, 800, "a", 12000], "internal_node_id": "0.0-177.0", "trial": 6, "time_elapsed": 1098021, "serialpos": 15, "key_press": -1, "wordID": 424, "type": "PRES_AUD", "trial_index": 240}, "uniqueid": "MTK3411:3634BBTX0P16K3HIG67V56752V4IF3", "dateTime": 1520531317439}, {"current_trial": 241, "trialdata": {"rt": -1000, "trial_type": "single-audio", "word": "crab", "stimulus": "/static/audio/wordpool/CRAB.wav", "conditions": [24, 800, "a", 12000], "internal_node_id": "0.0-178.0", "trial": 6, "time_elapsed": 1100005, "serialpos": 16, "key_press": -1, "wordID": 396, "type": "PRES_AUD", "trial_index": 241}, "uniqueid": "MTK3411:3634BBTX0P16K3HIG67V56752V4IF3", "dateTime": 1520531319423}, {"current_trial": 242, "trialdata": {"rt": -1000, "trial_type": "single-audio", "word": "cook", "stimulus": "/static/audio/wordpool/COOK.wav", "conditions": [24, 800, "a", 12000], "internal_node_id": "0.0-179.0", "trial": 6, "time_elapsed": 1101911, "serialpos": 17, "key_press": -1, "wordID": 371, "type": "PRES_AUD", "trial_index": 242}, "uniqueid": "MTK3411:3634BBTX0P16K3HIG67V56752V4IF3", "dateTime": 1520531321329}, {"current_trial": 243, "trialdata": {"rt": -1000, "trial_type": "single-audio", "word": "office", "stimulus": "/static/audio/wordpool/OFFICE.wav", "conditions": [24, 800, "a", 12000], "internal_node_id": "0.0-180.0", "trial": 6, "time_elapsed": 1103896, "serialpos": 18, "key_press": -1, "wordID": 971, "type": "PRES_AUD", "trial_index": 243}, "uniqueid": "MTK3411:3634BBTX0P16K3HIG67V56752V4IF3", "dateTime": 1520531323314}, {"current_trial": 244, "trialdata": {"rt": -1000, "trial_type": "single-audio", "word": "picnic", "stimulus": "/static/audio/wordpool/PICNIC.wav", "conditions": [24, 800, "a", 12000], "internal_node_id": "0.0-181.0", "trial": 6, "time_elapsed": 1105724, "serialpos": 19, "key_press": -1, "wordID": 1059, "type": "PRES_AUD", "trial_index": 244}, "uniqueid": "MTK3411:3634BBTX0P16K3HIG67V56752V4IF3", "dateTime": 1520531325142}, {"current_trial": 245, "trialdata": {"rt": -1000, "trial_type": "single-audio", "word": "barley", "stimulus": "/static/audio/wordpool/BARLEY.wav", "conditions": [24, 800, "a", 12000], "internal_node_id": "0.0-182.0", "trial": 6, "time_elapsed": 1107677, "serialpos": 20, "key_press": -1, "wordID": 87, "type": "PRES_AUD", "trial_index": 245}, "uniqueid": "MTK3411:3634BBTX0P16K3HIG67V56752V4IF3", "dateTime": 1520531327095}, {"current_trial": 246, "trialdata": {"rt": -1000, "trial_type": "single-audio", "word": "grape", "stimulus": "/static/audio/wordpool/GRAPE.wav", "conditions": [24, 800, "a", 12000], "internal_node_id": "0.0-183.0", "trial": 6, "time_elapsed": 1109350, "serialpos