{"assignmentId": "3DQQ64TANHS0CBQHJQ7FIRUHJI3WPH", "workerId": "MTK3530", "questiondata": {"origin": "United States", "strat-rehearsal": "13", "marital": "Married/Domestic Partnership", "education": "High school diploma", "ethnicity": "Hispanic", "color_depth": 24, "distracted": "No", "wrote-notes": "No", "strat-other": "", "screen_width": 1280, "avail_screen_width": 1280, "avail_screen_height": 770, "strat-image": "50", "language": "english", "gender": "Female", "age": "37", "gender_other": "", "race": ["White"], "strat-categorize": "79", "pixel_depth": 24, "strat-spatial": "0", "strat-story": "19", "race_other": "", "screen_height": 800}, "bonus": 0, "hitId": "3M67TQBQQHVGQR9DBUAOPS1R1KC9A0", "counterbalance": 2731, "useragent": "Mozilla/5.0 (Windows NT 6.1; Win64; x64) AppleWebKit/537.36 (KHTML, like Gecko) Chrome/65.0.3325.146 Safari/537.36", "eventdata": [{"eventtype": "initialized", "interval": 0, "value": null, "timestamp": 1520648836091}, {"eventtype": "window_resize", "interval": 0, "value": [1280, 763], "timestamp": 1520648836091}], "data": [{"current_trial": 0, "trialdata": {"rt": 4033, "trial_type": "text", "internal_node_id": "0.0-0.0", "time_elapsed": 4033, "key_press": 32, "type": "INSTRUCTIONS", "trial_index": 0}, "uniqueid": "MTK3530:3DQQ64TANHS0CBQHJQ7FIRUHJI3WPH", "dateTime": 1520648841315}, {"current_trial": 1, "trialdata": {"rt": 5132, "trial_type": "text", "internal_node_id": "0.0-1.0", "time_elapsed": 9178, "key_press": 175, "type": "INSTRUCTIONS", "trial_index": 1}, "uniqueid": "MTK3530:3DQQ64TANHS0CBQHJQ7FIRUHJI3WPH", "dateTime": 1520648846450}, {"current_trial": 2, "trialdata": {"rt": [21247], "trial_type": "audio-test", "responses": ["ocean"], "internal_node_id": "0.0-2.0", "time_elapsed": 30472, "type": "AUDIO_TEST", "trial_index": 2}, "uniqueid": "MTK3530:3DQQ64TANHS0CBQHJQ7FIRUHJI3WPH", "dateTime": 1520648867744}, {"current_trial": 3, "trialdata": {"rt": [10375], "trial_type": "audio-test", "responses": ["crystal"], "internal_node_id": "0.0-3.0", "time_elapsed": 40864, "type": "AUDIO_TEST", "trial_index": 3}, "uniqueid": "MTK3530:3DQQ64TANHS0CBQHJQ7FIRUHJI3WPH", "dateTime": 1520648878136}, {"current_trial": 4, "trialdata": {"rt": [10847], "trial_type": "audio-test", "responses": ["spice"], "internal_node_id": "0.0-4.0", "time_elapsed": 51725, "type": "AUDIO_TEST", "trial_index": 4}, "uniqueid": "MTK3530:3DQQ64TANHS0CBQHJQ7FIRUHJI3WPH", "dateTime": 1520648888997}, {"current_trial": 5, "trialdata": {"rt": 53216, "trial_type": "survey-text", "responses": "{\"Q0\":\"9:00 PM\",\"Q1\":\"6:30 AM\",\"Q2\":\"5\"}", "internal_node_id": "0.0-5.0", "time_elapsed": 105697, "type": "SLEEP_SURVEY", "trial_index": 5}, "uniqueid": "MTK3530:3DQQ64TANHS0CBQHJQ7FIRUHJI3WPH", "dateTime": 1520648942969}, {"current_trial": 6, "trialdata": {"rt": 45695, "trial_type": "text", "internal_node_id": "0.0-6.0", "time_elapsed": 152393, "key_press": 40, "type": "INSTRUCTIONS", "trial_index": 6}, "uniqueid": "MTK3530:3DQQ64TANHS0CBQHJQ7FIRUHJI3WPH", "dateTime": 1520648989665}, {"current_trial": 7, "trialdata": {"rt": 18491, "trial_type": "text", "internal_node_id": "0.0-7.0", "time_elapsed": 171388, "key_press": 32, "type": "INSTRUCTIONS", "trial_index": 7}, "uniqueid": "MTK3530:3DQQ64TANHS0CBQHJQ7FIRUHJI3WPH", "dateTime": 1520649008660}, {"current_trial": 8, "trialdata": {"rt": 18356, "trial_type": "text", "internal_node_id": "0.0-8.0", "time_elapsed": 190248, "key_press": 32, "type": "INSTRUCTIONS", "trial_index": 8}, "uniqueid": "MTK3530:3DQQ64TANHS0CBQHJQ7FIRUHJI3WPH", "dateTime": 1520649027520}, {"current_trial": 9, "trialdata": {"rt": [4608, 7747, 10956, 13702, 16136, 17874], "trial_type": "math-distractor", "key_times": [2275, 2734, 4608, 6346, 7095, 7747, 9232, 9815, 10956, 13180, 13462, 13702, 15218, 15907, 16136, 17369, 17688, 17874], "responses": ["13", "16", "16", "12", "18", "13"], "num2": [2, 7, 6, 1, 3, 4, 5], "num3": [3, 6, 4, 9, 8, 2, 5], "conditions": [18, 1200, "v", 18000], "internal_node_id": "0.0-9.0", "key_presses": [49, 51, 13, 49, 54, 13, 49, 54, 13, 49, 50, 13, 49, 56, 13, 49, 51, 13], "trial": 0, "time_elapsed": 209260, "type": "DISTRACTOR", "trial_index": 9, "num1": [8, 3, 6, 2, 7, 7, 3]}, "uniqueid": "MTK3530:3DQQ64TANHS0CBQHJQ7FIRUHJI3WPH", "dateTime": 1520649046532}, {"current_trial": 10, "trialdata": {"rt": -1, "trial_type": "single-stim", "stimulus": "<p id=\"stim\">10</p>", "internal_node_id": "0.0-10.0-0.0", "time_elapsed": 212265, "key_press": -1, "trial_index": 10}, "uniqueid": "MTK3530:3DQQ64TANHS0CBQHJQ7FIRUHJI3WPH", "dateTime": 1520649049537}, {"current_trial": 11, "trialdata": {"rt": -1, "trial_type": "single-stim", "stimulus": "<p id=\"stim\">9</p>", "internal_node_id": "0.0-10.0-1.0", "time_elapsed": 213267, "key_press": -1, "trial_index": 11}, "uniqueid": "MTK3530:3DQQ64TANHS0CBQHJQ7FIRUHJI3WPH", "dateTime": 1520649050539}, {"current_trial": 12, "trialdata": {"rt": -1, "trial_type": "single-stim", "stimulus": "<p id=\"stim\">8</p>", "internal_node_id": "0.0-10.0-2.0", "time_elapsed": 214270, "key_press": -1, "trial_index": 12}, "uniqueid": "MTK3530:3DQQ64TANHS0CBQHJQ7FIRUHJI3WPH", "dateTime": 1520649051542}, {"current_trial": 13, "trialdata": {"rt": -1, "trial_type": "single-stim", "stimulus": "<p id=\"stim\">7</p>", "internal_node_id": "0.0-10.0-3.0", "time_elapsed": 215271, "key_press": -1, "trial_index": 13}, "uniqueid": "MTK3530:3DQQ64TANHS0CBQHJQ7FIRUHJI3WPH", "dateTime": 1520649052545}, {"current_trial": 14, "trialdata": {"rt": -1, "trial_type": "single-stim", "stimulus": "<p id=\"stim\">6</p>", "internal_node_id": "0.0-10.0-4.0", "time_elapsed": 216274, "key_press": -1, "trial_index": 14}, "uniqueid": "MTK3530:3DQQ64TANHS0CBQHJQ7FIRUHJI3WPH", "dateTime": 1520649053546}, {"current_trial": 15, "trialdata": {"rt": -1, "trial_type": "single-stim", "stimulus": "<p id=\"stim\">5</p>", "internal_node_id": "0.0-10.0-5.0", "time_elapsed": 217275, "key_press": -1, "trial_index": 15}, "uniqueid": "MTK3530:3DQQ64TANHS0CBQHJQ7FIRUHJI3WPH", "dateTime": 1520649054548}, {"current_trial": 16, "trialdata": {"rt": -1, "trial_type": "single-stim", "stimulus": "<p id=\"stim\">4</p>", "internal_node_id": "0.0-10.0-6.0", "time_elapsed": 218278, "key_press": -1, "trial_index": 16}, "uniqueid": "MTK3530:3DQQ64TANHS0CBQHJQ7FIRUHJI3WPH", "dateTime": 1520649055551}, {"current_trial": 17, "trialdata": {"rt": -1, "trial_type": "single-stim", "stimulus": "<p id=\"stim\">3</p>", "internal_node_id": "0.0-10.0-7.0", "time_elapsed": 219281, "key_press": -1, "trial_index": 17}, "uniqueid": "MTK3530:3DQQ64TANHS0CBQHJQ7FIRUHJI3WPH", "dateTime": 1520649056554}, {"current_trial": 18, "trialdata": {"rt": -1, "trial_type": "single-stim", "stimulus": "<p id=\"stim\">2</p>", "internal_node_id": "0.0-10.0-8.0", "time_elapsed": 220284, "key_press": -1, "trial_index": 18}, "uniqueid": "MTK3530:3DQQ64TANHS0CBQHJQ7FIRUHJI3WPH", "dateTime": 1520649057556}, {"current_trial": 19, "trialdata": {"rt": -1, "trial_type": "single-stim", "stimulus": "<p id=\"stim\">1</p>", "internal_node_id": "0.0-10.0-9.0", "time_elapsed": 221287, "key_press": -1, "trial_index": 19}, "uniqueid": "MTK3530:3DQQ64TANHS0CBQHJQ7FIRUHJI3WPH", "dateTime": 1520649058559}, {"current_trial": 20, "trialdata": {"rt": -1, "trial_type": "single-stim", "stimulus": "<p id=\"stim\">+</p>", "internal_node_id": "0.0-11.0-0.0", "time_elapsed": 222788, "key_press": -1, "type": "FIXATION", "trial_index": 20}, "uniqueid": "MTK3530:3DQQ64TANHS0CBQHJQ7FIRUHJI3WPH", "dateTime": 1520649060060}, {"current_trial": 21, "trialdata": {"rt": -1, "trial_type": "single-stim", "word": "scotch", "stimulus": "<p id=\"stim\">SCOTCH</p>", "conditions": [18, 1200, "v", 18000], "internal_node_id": "0.0-12.0", "trial": 0, "time_elapsed": 223991, "serialpos": 0, "key_press": -1, "wordID": 1250, "type": "PRES_VIS", "trial_index": 21}, "uniqueid": "MTK3530:3DQQ64TANHS0CBQHJQ7FIRUHJI3WPH", "dateTime": 1520649061264}, {"current_trial": 22, "trialdata": {"rt": -1, "trial_type": "single-stim", "word": "panther", "stimulus": "<p id=\"stim\">PANTHER</p>", "conditions": [18, 1200, "v", 18000], "internal_node_id": "0.0-13.0", "trial": 0, "time_elapsed": 226203, "serialpos": 1, "key_press": -1, "wordID": 1008, "type": "PRES_VIS", "trial_index": 22}, "uniqueid": "MTK3530:3DQQ64TANHS0CBQHJQ7FIRUHJI3WPH", "dateTime": 1520649063475}, {"current_trial": 23, "trialdata": {"rt": -1, "trial_type": "single-stim", "word": "butcher", "stimulus": "<p id=\"stim\">BUTCHER</p>", "conditions": [18, 1200, "v", 18000], "internal_node_id": "0.0-14.0", "trial": 0, "time_elapsed": 228577, "serialpos": 2, "key_press": -1, "wordID": 202, "type": "PRES_VIS", "trial_index": 23}, "uniqueid": "MTK3530:3DQQ64TANHS0CBQHJQ7FIRUHJI3WPH", "dateTime": 1520649065849}, {"current_trial": 24, "trialdata": {"rt": -1, "trial_type": "single-stim", "word": "hatchet", "stimulus": "<p id=\"stim\">HATCHET</p>", "conditions": [18, 1200, "v", 18000], "internal_node_id": "0.0-15.0", "trial": 0, "time_elapsed": 230834, "serialpos": 3, "key_press": -1, "wordID": 690, "type": "PRES_VIS", "trial_index": 24}, "uniqueid": "MTK3530:3DQQ64TANHS0CBQHJQ7FIRUHJI3WPH", "dateTime": 1520649068106}, {"current_trial": 25, "trialdata": {"rt": -1, "trial_type": "single-stim", "word": "princess", "stimulus": "<p id=\"stim\">PRINCESS</p>", "conditions": [18, 1200, "v", 18000], "internal_node_id": "0.0-16.0", "trial": 0, "time_elapsed": 233042, "serialpos": 4, "key_press": -1, "wordID": 1124, "type": "PRES_VIS", "trial_index": 25}, "uniqueid": "MTK3530:3DQQ64TANHS0CBQHJQ7FIRUHJI3WPH", "dateTime": 1520649070314}, {"current_trial": 26, "trialdata": {"rt": -1, "trial_type": "single-stim", "word": "coin", "stimulus": "<p id=\"stim\">COIN</p>", "conditions": [18, 1200, "v", 18000], "internal_node_id": "0.0-17.0", "trial": 0, "time_elapsed": 235333, "serialpos": 5, "key_press": -1, "wordID": 342, "type": "PRES_VIS", "trial_index": 26}, "uniqueid": "MTK3530:3DQQ64TANHS0CBQHJQ7FIRUHJI3WPH", "dateTime": 1520649072605}, {"current_trial": 27, "trialdata": {"rt": -1, "trial_type": "single-stim", "word": "wrist", "stimulus": "<p id=\"stim\">WRIST</p>", "conditions": [18, 1200, "v", 18000], "internal_node_id": "0.0-18.0", "trial": 0, "time_elapsed": 237407, "serialpos": 6, "key_press": -1, "wordID": 1625, "type": "PRES_VIS", "trial_index": 27}, "uniqueid": "MTK3530:3DQQ64TANHS0CBQHJQ7FIRUHJI3WPH", "dateTime": 1520649074679}, {"current_trial": 28, "trialdata": {"rt": -1, "trial_type": "single-stim", "word": "rabbit", "stimulus": "<p id=\"stim\">RABBIT</p>", "conditions": [18, 1200, "v", 18000], "internal_node_id": "0.0-19.0", "trial": 0, "time_elapsed": 239553, "serialpos": 7, "key_press": -1, "wordID": 1151, "type": "PRES_VIS", "trial_index": 28}, "uniqueid": "MTK3530:3DQQ64TANHS0CBQHJQ7FIRUHJI3WPH", "dateTime": 1520649076825}, {"current_trial": 29, "trialdata": {"rt": -1, "trial_type": "single-stim", "word": "sausage", "stimulus": "<p id=\"stim\">SAUSAGE</p>", "conditions": [18, 1200, "v", 18000], "internal_node_id": "0.0-20.0", "trial": 0, "time_elapsed": 241773, "serialpos": 8, "key_press": -1, "wordID": 1237, "type": "PRES_VIS", "trial_index": 29}, "uniqueid": "MTK3530:3DQQ64TANHS0CBQHJQ7FIRUHJI3WPH", "dateTime": 1520649079045}, {"current_trial": 30, "trialdata": {"rt": -1, "trial_type": "single-stim", "word": "plaza", "stimulus": "<p id=\"stim\">PLAZA</p>", "conditions": [18, 1200, "v", 18000], "internal_node_id": "0.0-21.0", "trial": 0, "time_elapsed": 244102, "serialpos": 9, "key_press": -1, "wordID": 1087, "type": "PRES_VIS", "trial_index": 30}, "uniqueid": "MTK3530:3DQQ64TANHS0CBQHJQ7FIRUHJI3WPH", "dateTime": 1520649081374}, {"current_trial": 31, "trialdata": {"rt": -1, "trial_type": "single-stim", "word": "tribe", "stimulus": "<p id=\"stim\">TRIBE</p>", "conditions": [18, 1200, "v", 18000], "internal_node_id": "0.0-22.0", "trial": 0, "time_elapsed": 246203, "serialpos": 10, "key_press": -1, "wordID": 1504, "type": "PRES_VIS", "trial_index": 31}, "uniqueid": "MTK3530:3DQQ64TANHS0CBQHJQ7FIRUHJI3WPH", "dateTime": 1520649083475}, {"current_trial": 32, "trialdata": {"rt": -1, "trial_type": "single-stim", "word": "lace", "stimulus": "<p id=\"stim\">LACE</p>", "conditions": [18, 1200, "v", 18000], "internal_node_id": "0.0-23.0", "trial": 0, "time_elapsed": 248257, "serialpos": 11, "key_press": -1, "wordID": 791, "type": "PRES_VIS", "trial_index": 32}, "uniqueid": "MTK3530:3DQQ64TANHS0CBQHJQ7FIRUHJI3WPH", "dateTime": 1520649085529}, {"current_trial": 33, "trialdata": {"rt": -1, "trial_type": "single-stim", "word": "curtain", "stimulus": "<p id=\"stim\">CURTAIN</p>", "conditions": [18, 1200, "v", 18000], "internal_node_id": "0.0-24.0", "trial": 0, "time_elapsed": 250351, "serialpos": 12, "key_press": -1, "wordID": 426, "type": "PRES_VIS", "trial_index": 33}, "uniqueid": "MTK3530:3DQQ64TANHS0CBQHJQ7FIRUHJI3WPH", "dateTime": 1520649087623}, {"current_trial": 34, "trialdata": {"rt": -1, "trial_type": "single-stim", "word": "shrub", "stimulus": "<p id=\"stim\">SHRUB</p>", "conditions": [18, 1200, "v", 18000], "internal_node_id": "0.0-25.0", "trial": 0, "time_elapsed": 252419, "serialpos": 13, "key_press": -1, "wordID": 1298, "type": "PRES_VIS", "trial_index": 34}, "uniqueid": "MTK3530:3DQQ64TANHS0CBQHJQ7FIRUHJI3WPH", "dateTime": 1520649089692}, {"current_trial": 35, "trialdata": {"rt": -1, "trial_type": "single-stim", "word": "dime", "stimulus": "<p id=\"stim\">DIME</p>", "conditions": [18, 1200, "v", 18000], "internal_node_id": "0.0-26.0", "trial": 0, "time_elapsed": 254721, "serialpos": 14, "key_press": -1, "wordID": 465, "type": "PRES_VIS", "trial_index": 35}, "uniqueid": "MTK3530:3DQQ64TANHS0CBQHJQ7FIRUHJI3WPH", "dateTime": 1520649091993}, {"current_trial": 36, "trialdata": {"rt": -1, "trial_type": "single-stim", "word": "smog", "stimulus": "<p id=\"stim\">SMOG</p>", "conditions": [18, 1200, "v", 18000], "internal_node_id": "0.0-27.0", "trial": 0, "time_elapsed": 256924, "serialpos": 15, "key_press": -1, "wordID": 1329, "type": "PRES_VIS", "trial_index": 36}, "uniqueid": "MTK3530:3DQQ64TANHS0CBQHJQ7FIRUHJI3WPH", "dateTime": 1520649094196}, {"current_trial": 37, "trialdata": {"rt": -1, "trial_type": "single-stim", "word": "coffee", "stimulus": "<p id=\"stim\">COFFEE</p>", "conditions": [18, 1200, "v", 18000], "internal_node_id": "0.0-28.0", "trial": 0, "time_elapsed": 259256, "serialpos": 16, "key_press": -1, "wordID": 340, "type": "PRES_VIS", "trial_index": 37}, "uniqueid": "MTK3530:3DQQ64TANHS0CBQHJQ7FIRUHJI3WPH", "dateTime": 1520649096528}, {"current_trial": 38, "trialdata": {"rt": -1, "trial_type": "single-stim", "word": "pimple", "stimulus": "<p id=\"stim\">PIMPLE</p>", "conditions": [18, 1200, "v", 18000], "internal_node_id": "0.0-29.0", "trial": 0, "time_elapsed": 261301, "serialpos": 17, "key_press": -1, "wordID": 1070, "type": "PRES_VIS", "trial_index": 38}, "uniqueid": "MTK3530:3DQQ64TANHS0CBQHJQ7FIRUHJI3WPH", "dateTime": 1520649098573}, {"current_trial": 39, "trialdata": {"rt": -1, "trial_type": "single-stim", "stimulus": "", "internal_node_id": "0.0-30.0-0.0", "time_elapsed": 263560, "key_press": -1, "type": "PRE_RECALL_DELAY", "trial_index": 39}, "uniqueid": "MTK3530:3DQQ64TANHS0CBQHJQ7FIRUHJI3WPH", "dateTime": 1520649100833}, {"current_trial": 40, "trialdata": {"rt": -1000, "trial_type": "single-audio", "stimulus": "/static/audio/400Hz.wav", "internal_node_id": "0.0-31.0", "time_elapsed": 264069, "key_press": -1, "type": "PRE_RECALL_ALERT", "trial_index": 40}, "uniqueid": "MTK3530:3DQQ64TANHS0CBQHJQ7FIRUHJI3WPH", "dateTime": 1520649101341}, {"current_trial": 41, "trialdata": {"rt": [3358, 8236, 11616, 15693, 20806, 24336, 54660], "recwords": ["dime", "smog", "coffee", "pimple", "rabbit", "sausage", "fog"], "key_times": [1650, 2012, 2607, 2880, 3358, 4603, 5086, 5630, 6253, 8236, 9747, 10144, 10497, 10699, 10986, 11206, 11616, 12823, 13216, 13544, 13994, 14297, 14567, 15693, 17168, 17756, 18349, 19061, 19562, 20099, 20806, 21576, 21870, 22283, 22588, 22850, 23380, 23669, 24336, 51633, 52033, 52324, 54660], "trial_type": "free-recall", "conditions": [18, 1200, "v", 18000], "internal_node_id": "0.0-32.0-0.0", "key_presses": [68, 73, 77, 69, 32, 83, 77, 79, 71, 32, 67, 79, 70, 70, 69, 69, 32, 80, 73, 77, 80, 76, 69, 32, 82, 65, 66, 66, 73, 84, 32, 83, 65, 85, 83, 65, 71, 69, 32, 70, 79, 71, 32], "trial": 0, "time_elapsed": 324070, "type": "FREE_RECALL", "trial_index": 41}, "uniqueid": "MTK3530:3DQQ64TANHS0CBQHJQ7FIRUHJI3WPH", "dateTime": 1520649161349}, {"current_trial": 42, "trialdata": {"rt": 2419, "trial_type": "text", "internal_node_id": "0.0-33.0", "time_elapsed": 328497, "key_press": 32, "type": "INSTRUCTIONS", "trial_index": 42}, "uniqueid": "MTK3530:3DQQ64TANHS0CBQHJQ7FIRUHJI3WPH", "dateTime": 1520649165769}, {"current_trial": 43, "trialdata": {"rt": [8987, 11962, 17902], "trial_type": "math-distractor", "key_times": [1927, 3099, 3363, 6664, 7110, 8066, 8987, 10951, 11737, 11962, 13866, 14371, 15263, 16303, 17902], "responses": ["19", "25", "15"], "num2": [5, 9, 9, 3], "num3": [6, 8, 3, 6], "conditions": [18, 1200, "v", 18000], "internal_node_id": "0.0-34.0", "key_presses": [49, 55, 32, 8, 8, 57, 13, 50, 53, 13, 49, 51, 8, 53, 13], "trial": 1, "time_elapsed": 348502, "type": "DISTRACTOR", "trial_index": 43, "num1": [8, 8, 4, 5]}, "uniqueid": "MTK3530:3DQQ64TANHS0CBQHJQ7FIRUHJI3WPH", "dateTime": 1520649185776}, {"current_trial": 44, "trialdata": {"rt": -1, "trial_type": "single-stim", "stimulus": "<p id=\"stim\">10</p>", "internal_node_id": "0.0-35.0-0.0", "time_elapsed": 351505, "key_press": -1, "trial_index": 44}, "uniqueid": "MTK3530:3DQQ64TANHS0CBQHJQ7FIRUHJI3WPH", "dateTime": 1520649188777}, {"current_trial": 45, "trialdata": {"rt": -1, "trial_type": "single-stim", "stimulus": "<p id=\"stim\">9</p>", "internal_node_id": "0.0-35.0-1.0", "time_elapsed": 352507, "key_press": -1, "trial_index": 45}, "uniqueid": "MTK3530:3DQQ64TANHS0CBQHJQ7FIRUHJI3WPH", "dateTime": 1520649189779}, {"current_trial": 46, "trialdata": {"rt": -1, "trial_type": "single-stim", "stimulus": "<p id=\"stim\">8</p>", "internal_node_id": "0.0-35.0-2.0", "time_elapsed": 353510, "key_press": -1, "trial_index": 46}, "uniqueid": "MTK3530:3DQQ64TANHS0CBQHJQ7FIRUHJI3WPH", "dateTime": 1520649190782}, {"current_trial": 47, "trialdata": {"rt": -1, "trial_type": "single-stim", "stimulus": "<p id=\"stim\">7</p>", "internal_node_id": "0.0-35.0-3.0", "time_elapsed": 354512, "key_press": -1, "trial_index": 47}, "uniqueid": "MTK3530:3DQQ64TANHS0CBQHJQ7FIRUHJI3WPH", "dateTime": 1520649191784}, {"current_trial": 48, "trialdata": {"rt": -1, "trial_type": "single-stim", "stimulus": "<p id=\"stim\">6</p>", "internal_node_id": "0.0-35.0-4.0", "time_elapsed": 355513, "key_press": -1, "trial_index": 48}, "uniqueid": "MTK3530:3DQQ64TANHS0CBQHJQ7FIRUHJI3WPH", "dateTime": 1520649192786}, {"current_trial": 49, "trialdata": {"rt": -1, "trial_type": "single-stim", "stimulus": "<p id=\"stim\">5</p>", "internal_node_id": "0.0-35.0-5.0", "time_elapsed": 356515, "key_press": -1, "trial_index": 49}, "uniqueid": "MTK3530:3DQQ64TANHS0CBQHJQ7FIRUHJI3WPH", "dateTime": 1520649193787}, {"current_trial": 50, "trialdata": {"rt": -1, "trial_type": "single-stim", "stimulus": "<p id=\"stim\">4</p>", "internal_node_id": "0.0-35.0-6.0", "time_elapsed": 357516, "key_press": -1, "trial_index": 50}, "uniqueid": "MTK3530:3DQQ64TANHS0CBQHJQ7FIRUHJI3WPH", "dateTime": 1520649194788}, {"current_trial": 51, "trialdata": {"rt": -1, "trial_type": "single-stim", "stimulus": "<p id=\"stim\">3</p>", "internal_node_id": "0.0-35.0-7.0", "time_elapsed": 358518, "key_press": -1, "trial_index": 51}, "uniqueid": "MTK3530:3DQQ64TANHS0CBQHJQ7FIRUHJI3WPH", "dateTime": 1520649195790}, {"current_trial": 52, "trialdata": {"rt": -1, "trial_type": "single-stim", "stimulus": "<p id=\"stim\">2</p>", "internal_node_id": "0.0-35.0-8.0", "time_elapsed": 359520, "key_press": -1, "trial_index": 52}, "uniqueid": "MTK3530:3DQQ64TANHS0CBQHJQ7FIRUHJI3WPH", "dateTime": 1520649196792}, {"current_trial": 53, "trialdata": {"rt": -1, "trial_type": "single-stim", "stimulus": "<p id=\"stim\">1</p>", "internal_node_id": "0.0-35.0-9.0", "time_elapsed": 360522, "key_press": -1, "trial_index": 53}, "uniqueid": "MTK3530:3DQQ64TANHS0CBQHJQ7FIRUHJI3WPH", "dateTime": 1520649197795}, {"current_trial": 54, "trialdata": {"rt": -1, "trial_type": "single-stim", "stimulus": "<p id=\"stim\">+</p>", "internal_node_id": "0.0-36.0-0.0", "time_elapsed": 362026, "key_press": -1, "type": "FIXATION", "trial_index": 54}, "uniqueid": "MTK3530:3DQQ64TANHS0CBQHJQ7FIRUHJI3WPH", "dateTime": 1520649199298}, {"current_trial": 55, "trialdata": {"rt": -1, "trial_type": "single-stim", "word": "apple", "stimulus": "<p id=\"stim\">APPLE</p>", "conditions": [18, 1200, "v", 18000], "internal_node_id": "0.0-37.0", "trial": 1, "time_elapsed": 363226, "serialpos": 0, "key_press": -1, "wordID": 32, "type": "PRES_VIS", "trial_index": 55}, "uniqueid": "MTK3530:3DQQ64TANHS0CBQHJQ7FIRUHJI3WPH", "dateTime": 1520649200498}, {"current_trial": 56, "trialdata": {"rt": -1, "trial_type": "single-stim", "word": "paddle", "stimulus": "<p id=\"stim\">PADDLE</p>", "conditions": [18, 1200, "v", 18000], "internal_node_id": "0.0-38.0", "trial": 1, "time_elapsed": 365543, "serialpos": 1, "key_press": -1, "wordID": 999, "type": "PRES_VIS", "trial_index": 56}, "uniqueid": "MTK3530:3DQQ64TANHS0CBQHJQ7FIRUHJI3WPH", "dateTime": 1520649202815}, {"current_trial": 57, "trialdata": {"rt": -1, "trial_type": "single-stim", "word": "puppy", "stimulus": "<p id=\"stim\">PUPPY</p>", "conditions": [18, 1200, "v", 18000], "internal_node_id": "0.0-39.0", "trial": 1, "time_elapsed": 367640, "serialpos": 2, "key_press": -1, "wordID": 1143, "type": "PRES_VIS", "trial_index": 57}, "uniqueid": "MTK3530:3DQQ64TANHS0CBQHJQ7FIRUHJI3WPH", "dateTime": 1520649204913}, {"current_trial": 58, "trialdata": {"rt": -1, "trial_type": "single-stim", "word": "bunny", "stimulus": "<p id=\"stim\">BUNNY</p>", "conditions": [18, 1200, "v", 18000], "internal_node_id": "0.0-40.0", "trial": 1, "time_elapsed": 369836, "serialpos": 3, "key_press": -1, "wordID": 197, "type": "PRES_VIS", "trial_index": 58}, "uniqueid": "MTK3530:3DQQ64TANHS0CBQHJQ7FIRUHJI3WPH", "dateTime": 1520649207108}, {"current_trial": 59, "trialdata": {"rt": -1, "trial_type": "single-stim", "word": "binder", "stimulus": "<p id=\"stim\">BINDER</p>", "conditions": [18, 1200, "v", 18000], "internal_node_id": "0.0-41.0", "trial": 1, "time_elapsed": 372129, "serialpos": 4, "key_press": -1, "wordID": 126, "type": "PRES_VIS", "trial_index": 59}, "uniqueid": "MTK3530:3DQQ64TANHS0CBQHJQ7FIRUHJI3WPH", "dateTime": 1520649209401}, {"current_trial": 60, "trialdata": {"rt": -1, "trial_type": "single-stim", "word": "actress", "stimulus": "<p id=\"stim\">ACTRESS</p>", "conditions": [18, 1200, "v", 18000], "internal_node_id": "0.0-42.0", "trial": 1, "time_elapsed": 374235, "serialpos": 5, "key_press": -1, "wordID": 5, "type": "PRES_VIS", "trial_index": 60}, "uniqueid": "MTK3530:3DQQ64TANHS0CBQHJQ7FIRUHJI3WPH", "dateTime": 1520649211507}, {"current_trial": 61, "trialdata": {"rt": -1, "trial_type": "single-stim", "word": "breast", "stimulus": "<p id=\"stim\">BREAST</p>", "conditions": [18, 1200, "v", 18000], "internal_node_id": "0.0-43.0", "trial": 1, "time_elapsed": 376323, "serialpos": 6, "key_press": -1, "wordID": 170, "type": "PRES_VIS", "trial_index": 61}, "uniqueid": "MTK3530:3DQQ64TANHS0CBQHJQ7FIRUHJI3WPH", "dateTime": 1520649213595}, {"current_trial": 62, "trialdata": {"rt": -1, "trial_type": "single-stim", "word": "flesh", "stimulus": "<p id=\"stim\">FLESH</p>", "conditions": [18, 1200, "v", 18000], "internal_node_id": "0.0-44.0", "trial": 1, "time_elapsed": 378549, "serialpos": 7, "key_press": -1, "wordID": 578, "type": "PRES_VIS", "trial_index": 62}, "uniqueid": "MTK3530:3DQQ64TANHS0CBQHJQ7FIRUHJI3WPH", "dateTime": 1520649215821}, {"current_trial": 63, "trialdata": {"rt": -1, "trial_type": "single-stim", "word": "flipper", "stimulus": "<p id=\"stim\">FLIPPER</p>", "conditions": [18, 1200, "v", 18000], "internal_node_id": "0.0-45.0", "trial": 1, "time_elapsed": 380702, "serialpos": 8, "key_press": -1, "wordID": 579, "type": "PRES_VIS", "trial_index": 63}, "uniqueid": "MTK3530:3DQQ64TANHS0CBQHJQ7FIRUHJI3WPH", "dateTime": 1520649217974}, {"current_trial": 64, "trialdata": {"rt": -1, "trial_type": "single-stim", "word": "ghetto", "stimulus": "<p id=\"stim\">GHETTO</p>", "conditions": [18, 1200, "v", 18000], "internal_node_id": "0.0-46.0", "trial": 1, "time_elapsed": 382801, "serialpos": 9, "key_press": -1, "wordID": 632, "type": "PRES_VIS", "trial_index": 64}, "uniqueid": "MTK3530:3DQQ64TANHS0CBQHJQ7FIRUHJI3WPH", "dateTime": 1520649220073}, {"current_trial": 65, "trialdata": {"rt": -1, "trial_type": "single-stim", "word": "shoulder", "stimulus": "<p id=\"stim\">SHOULDER</p>", "conditions": [18, 1200, "v", 18000], "internal_node_id": "0.0-47.0", "trial": 1, "time_elapsed": 385011, "serialpos": 10, "key_press": -1, "wordID": 1293, "type": "PRES_VIS", "trial_index": 65}, "uniqueid": "MTK3530:3DQQ64TANHS0CBQHJQ7FIRUHJI3WPH", "dateTime": 1520649222283}, {"current_trial": 66, "trialdata": {"rt": -1, "trial_type": "single-stim", "word": "badge", "stimulus": "<p id=\"stim\">BADGE</p>", "conditions": [18, 1200, "v", 18000], "internal_node_id": "0.0-48.0", "trial": 1, "time_elapsed": 387040, "serialpos": 11, "key_press": -1, "wordID": 67, "type": "PRES_VIS", "trial_index": 66}, "uniqueid": "MTK3530:3DQQ64TANHS0CBQHJQ7FIRUHJI3WPH", "dateTime": 1520649224312}, {"current_trial": 67, "trialdata": {"rt": -1, "trial_type": "single-stim", "word": "award", "stimulus": "<p id=\"stim\">AWARD</p>", "conditions": [18, 1200, "v", 18000], "internal_node_id": "0.0-49.0", "trial": 1, "time_elapsed": 389437, "serialpos": 12, "key_press": -1, "wordID": 62, "type": "PRES_VIS", "trial_index": 67}, "uniqueid": "MTK3530:3DQQ64TANHS0CBQHJQ7FIRUHJI3WPH", "dateTime": 1520649226710}, {"current_trial": 68, "trialdata": {"rt": -1, "trial_type": "single-stim", "word": "peanut", "stimulus": "<p id=\"stim\">PEANUT</p>", "conditions": [18, 1200, "v", 18000], "internal_node_id": "0.0-50.0", "trial": 1, "time_elapsed": 391612, "serialpos": 13, "key_press": -1, "wordID": 1031, "type": "PRES_VIS", "trial_index": 68}, "uniqueid": "MTK3530:3DQQ64TANHS0CBQHJQ7FIRUHJI3WPH", "dateTime": 1520649228891}, {"current_trial": 69, "trialdata": {"rt": -1, "trial_type": "single-stim", "word": "lion", "stimulus": "<p id=\"stim\">LION</p>", "conditions": [18, 1200, "v", 18000], "internal_node_id": "0.0-51.0", "trial": 1, "time_elapsed": 393959, "serialpos": 14, "key_press": -1, "wordID": 826, "type": "PRES_VIS", "trial_index": 69}, "uniqueid": "MTK3530:3DQQ64TANHS0CBQHJQ7FIRUHJI3WPH", "dateTime": 1520649231231}, {"current_trial": 70, "trialdata": {"rt": -1, "trial_type": "single-stim", "word": "candy", "stimulus": "<p id=\"stim\">CANDY</p>", "conditions": [18, 1200, "v", 18000], "internal_node_id": "0.0-52.0", "trial": 1, "time_elapsed": 396260, "serialpos": 15, "key_press": -1, "wordID": 229, "type": "PRES_VIS", "trial_index": 70}, "uniqueid": "MTK3530:3DQQ64TANHS0CBQHJQ7FIRUHJI3WPH", "dateTime": 1520649233532}, {"current_trial": 71, "trialdata": {"rt": -1, "trial_type": "single-stim", "word": "cowboy", "stimulus": "<p id=\"stim\">COWBOY</p>", "conditions": [18, 1200, "v", 18000], "internal_node_id": "0.0-53.0", "trial": 1, "time_elapsed": 398275, "serialpos": 16, "key_press": -1, "wordID": 394, "type": "PRES_VIS", "trial_index": 71}, "uniqueid": "MTK3530:3DQQ64TANHS0CBQHJQ7FIRUHJI3WPH", "dateTime": 1520649235547}, {"current_trial": 72, "trialdata": {"rt": -1, "trial_type": "single-stim", "word": "xerox", "stimulus": "<p id=\"stim\">XEROX</p>", "conditions": [18, 1200, "v", 18000], "internal_node_id": "0.0-54.0", "trial": 1, "time_elapsed": 400478, "serialpos": 17, "key_press": -1, "wordID": 1627, "type": "PRES_VIS", "trial_index": 72}, "uniqueid": "MTK3530:3DQQ64TANHS0CBQHJQ7FIRUHJI3WPH", "dateTime": 1520649237750}, {"current_trial": 73, "trialdata": {"rt": -1, "trial_type": "single-stim", "stimulus": "", "internal_node_id": "0.0-55.0-0.0", "time_elapsed": 402861, "key_press": -1, "type": "PRE_RECALL_DELAY", "trial_index": 73}, "uniqueid": "MTK3530:3DQQ64TANHS0CBQHJQ7FIRUHJI3WPH", "dateTime": 1520649240133}, {"current_trial": 74, "trialdata": {"rt": -1000, "trial_type": "single-audio", "stimulus": "/static/audio/400Hz.wav", "internal_node_id": "0.0-56.0", "time_elapsed": 403363, "key_press": -1, "type": "PRE_RECALL_ALERT", "trial_index": 74}, "uniqueid": "MTK3530:3DQQ64TANHS0CBQHJQ7FIRUHJI3WPH", "dateTime": 1520649240635}, {"current_trial": 75, "trialdata": {"rt": [10900, 15574, 19599, 27161, 34333, 37374, 42044, 49505, 53798, 58479], "recwords": ["candy", "cowboy", "zerox", "puppy", "bunny", "badge", "award", "zebra", "breast", "flipper"], "key_times": [779, 1674, 2116, 8006, 8358, 10900, 11865, 12243, 12620, 13140, 13952, 15029, 15574, 16709, 17609, 17970, 18459, 18899, 19599, 23394, 24059, 24291, 24532, 25111, 25322, 26124, 26371, 26597, 27161, 28768, 29317, 30188, 30429, 31298, 31965, 32781, 33016, 33401, 34333, 35368, 35792, 36153, 36585, 36885, 37374, 38966, 39782, 40108, 40918, 41598, 42044, 46974, 47390, 48042, 48405, 49203, 49505, 51305, 51656, 51897, 52631, 52903, 53340, 53798, 55397, 55752, 56205, 56789, 57026, 57230, 57458, 58479], "trial_type": "free-recall", "conditions": [18, 1200, "v", 18000], "internal_node_id": "0.0-57.0-0.0", "key_presses": [67, 65, 78, 68, 89, 32, 67, 79, 87, 66, 79, 89, 32, 90, 69, 82, 79, 88, 32, 80, 85, 85, 80, 8, 8, 80, 80, 89, 32, 82, 65, 8, 8, 66, 85, 78, 78, 89, 32, 66, 65, 68, 71, 69, 32, 65, 87, 65, 82, 68, 32, 90, 69, 66, 82, 65, 32, 66, 82, 69, 65, 83, 84, 32, 70, 76, 73, 80, 80, 69, 82, 32], "trial": 1, "time_elapsed": 463365, "type": "FREE_RECALL", "trial_index": 75}, "uniqueid": "MTK3530:3DQQ64TANHS0CBQHJQ7FIRUHJI3WPH", "dateTime": 1520649300640}, {"current_trial": 76, "trialdata": {"rt": 2790, "trial_type": "text", "internal_node_id": "0.0-58.0", "time_elapsed": 468161, "key_press": 32, "type": "INSTRUCTIONS", "trial_index": 76}, "uniqueid": "MTK3530:3DQQ64TANHS0CBQHJQ7FIRUHJI3WPH", "dateTime": 1520649305433}, {"current_trial": 77, "trialdata": {"rt": [3092, 5460, 8476, 10839], "trial_type": "math-distractor", "key_times": [1525, 2022, 3092, 5228, 5460, 7487, 8278, 8476, 9741, 10482, 10839], "responses": ["15", "9", "25", "19"], "num2": [1, 3, 9, 5, 5], "num3": [7, 1, 9, 7, 7], "conditions": [12, 1600, "v", 12000], "internal_node_id": "0.0-59.0", "key_presses": [49, 53, 13, 57, 13, 50, 53, 13, 49, 57, 13], "trial": 2, "time_elapsed": 481163, "type": "DISTRACTOR", "trial_index": 77, "num1": [7, 5, 7, 7, 2]}, "uniqueid": "MTK3530:3DQQ64TANHS0CBQHJQ7FIRUHJI3WPH", "dateTime": 1520649318436}, {"current_trial": 78, "trialdata": {"rt": -1, "trial_type": "single-stim", "stimulus": "<p id=\"stim\">10</p>", "internal_node_id": "0.0-60.0-0.0", "time_elapsed": 484165, "key_press": -1, "trial_index": 78}, "uniqueid": "MTK3530:3DQQ64TANHS0CBQHJQ7FIRUHJI3WPH", "dateTime": 1520649321437}, {"current_trial": 79, "trialdata": {"rt": -1, "trial_type": "single-stim", "stimulus": "<p id=\"stim\">9</p>", "internal_node_id": "0.0-60.0-1.0", "time_elapsed": 485167, "key_press": -1, "trial_index": 79}, "uniqueid": "MTK3530:3DQQ64TANHS0CBQHJQ7FIRUHJI3WPH", "dateTime": 1520649322439}, {"current_trial": 80, "trialdata": {"rt": -1, "trial_type": "single-stim", "stimulus": "<p id=\"stim\">8</p>", "internal_node_id": "0.0-60.0-2.0", "time_elapsed": 486169, "key_press": -1, "trial_index": 80}, "uniqueid": "MTK3530:3DQQ64TANHS0CBQHJQ7FIRUHJI3WPH", "dateTime": 1520649323441}, {"current_trial": 81, "trialdata": {"rt": -1, "trial_type": "single-stim", "stimulus": "<p id=\"stim\">7</p>", "internal_node_id": "0.0-60.0-3.0", "time_elapsed": 487171, "key_press": -1, "trial_index": 81}, "uniqueid": "MTK3530:3DQQ64TANHS0CBQHJQ7FIRUHJI3WPH", "dateTime": 1520649324443}, {"current_trial": 82, "trialdata": {"rt": -1, "trial_type": "single-stim", "stimulus": "<p id=\"stim\">6</p>", "internal_node_id": "0.0-60.0-4.0", "time_elapsed": 488172, "key_press": -1, "trial_index": 82}, "uniqueid": "MTK3530:3DQQ64TANHS0CBQHJQ7FIRUHJI3WPH", "dateTime": 1520649325444}, {"current_trial": 83, "trialdata": {"rt": -1, "trial_type": "single-stim", "stimulus": "<p id=\"stim\">5</p>", "internal_node_id": "0.0-60.0-5.0", "time_elapsed": 489174, "key_press": -1, "trial_index": 83}, "uniqueid": "MTK3530:3DQQ64TANHS0CBQHJQ7FIRUHJI3WPH", "dateTime": 1520649326446}, {"current_trial": 84, "trialdata": {"rt": -1, "trial_type": "single-stim", "stimulus": "<p id=\"stim\">4</p>", "internal_node_id": "0.0-60.0-6.0", "time_elapsed": 490175, "key_press": -1, "trial_index": 84}, "uniqueid": "MTK3530:3DQQ64TANHS0CBQHJQ7FIRUHJI3WPH", "dateTime": 1520649327447}, {"current_trial": 85, "trialdata": {"rt": -1, "trial_type": "single-stim", "stimulus": "<p id=\"stim\">3</p>", "internal_node_id": "0.0-60.0-7.0", "time_elapsed": 491177, "key_press": -1, "trial_index": 85}, "uniqueid": "MTK3530:3DQQ64TANHS0CBQHJQ7FIRUHJI3WPH", "dateTime": 1520649328449}, {"current_trial": 86, "trialdata": {"rt": -1, "trial_type": "single-stim", "stimulus": "<p id=\"stim\">2</p>", "internal_node_id": "0.0-60.0-8.0", "time_elapsed": 492178, "key_press": -1, "trial_index": 86}, "uniqueid": "MTK3530:3DQQ64TANHS0CBQHJQ7FIRUHJI3WPH", "dateTime": 1520649329450}, {"current_trial": 87, "trialdata": {"rt": -1, "trial_type": "single-stim", "stimulus": "<p id=\"stim\">1</p>", "internal_node_id": "0.0-60.0-9.0", "time_elapsed": 493179, "key_press": -1, "trial_index": 87}, "uniqueid": "MTK3530:3DQQ64TANHS0CBQHJQ7FIRUHJI3WPH", "dateTime": 1520649330451}, {"current_trial": 88, "trialdata": {"rt": -1, "trial_type": "single-stim", "stimulus": "<p id=\"stim\">+</p>", "internal_node_id": "0.0-61.0-0.0", "time_elapsed": 494681, "key_press": -1, "type": "FIXATION", "trial_index": 88}, "uniqueid": "MTK3530:3DQQ64TANHS0CBQHJQ7FIRUHJI3WPH", "dateTime": 1520649331953}, {"current_trial": 89, "trialdata": {"rt": -1, "trial_type": "single-stim", "word": "garlic", "stimulus": "<p id=\"stim\">GARLIC</p>", "conditions": [12, 1600, "v", 12000], "internal_node_id": "0.0-62.0", "trial": 2, "time_elapsed": 496283, "serialpos": 0, "key_press": -1, "wordID": 623, "type": "PRES_VIS", "trial_index": 89}, "uniqueid": "MTK3530:3DQQ64TANHS0CBQHJQ7FIRUHJI3WPH", "dateTime": 1520649333555}, {"current_trial": 90, "trialdata": {"rt": -1, "trial_type": "single-stim", "word": "headband", "stimulus": "<p id=\"stim\">HEADBAND</p>", "conditions": [12, 1600, "v", 12000], "internal_node_id": "0.0-63.0", "trial": 2, "time_elapsed": 498949, "serialpos": 1, "key_press": -1, "wordID": 695, "type": "PRES_VIS", "trial_index": 90}, "uniqueid": "MTK3530:3DQQ64TANHS0CBQHJQ7FIRUHJI3WPH", "dateTime": 1520649336221}, {"current_trial": 91, "trialdata": {"rt": -1, "trial_type": "single-stim", "word": "forehead", "stimulus": "<p id=\"stim\">FOREHEAD</p>", "conditions": [12, 1600, "v", 12000], "internal_node_id": "0.0-64.0", "trial": 2, "time_elapsed": 501557, "serialpos": 2, "key_press": -1, "wordID": 591, "type": "PRES_VIS", "trial_index": 91}, "uniqueid": "MTK3530:3DQQ64TANHS0CBQHJQ7FIRUHJI3WPH", "dateTime": 1520649338829}, {"current_trial": 92, "trialdata": {"rt": -1, "trial_type": "single-stim", "word": "razor", "stimulus": "<p id=\"stim\">RAZOR</p>", "conditions": [12, 1600, "v", 12000], "internal_node_id": "0.0-65.0", "trial": 2, "time_elapsed": 504244, "serialpos": 3, "key_press": -1, "wordID": 1170, "type": "PRES_VIS", "trial_index": 92}, "uniqueid": "MTK3530:3DQQ64TANHS0CBQHJQ7FIRUHJI3WPH", "dateTime": 1520649341517}, {"current_trial": 93, "trialdata": {"rt": -1, "trial_type": "single-stim", "word": "scalpel", "stimulus": "<p id=\"stim\">SCALPEL</p>", "conditions": [12, 1600, "v", 12000], "internal_node_id": "0.0-66.0", "trial": 2, "time_elapsed": 506672, "serialpos": 4, "key_press": -1, "wordID": 1242, "type": "PRES_VIS", "trial_index": 93}, "uniqueid": "MTK3530:3DQQ64TANHS0CBQHJQ7FIRUHJI3WPH", "dateTime": 1520649343944}, {"current_trial": 94, "trialdata": {"rt": -1, "trial_type": "single-stim", "word": "scarecrow", "stimulus": "<p id=\"stim\">SCARECROW</p>", "conditions": [12, 1600, "v", 12000], "internal_node_id": "0.0-67.0", "trial": 2, "time_elapsed": 509244, "serialpos": 5, "key_press": -1, "wordID": 1244, "type": "PRES_VIS", "trial_index": 94}, "uniqueid": "MTK3530:3DQQ64TANHS0CBQHJQ7FIRUHJI3WPH", "dateTime": 1520649346516}, {"current_trial": 95, "trialdata": {"rt": -1, "trial_type": "single-stim", "word": "dashboard", "stimulus": "<p id=\"stim\">DASHBOARD</p>", "conditions": [12, 1600, "v", 12000], "internal_node_id": "0.0-68.0", "trial": 2, "time_elapsed": 511740, "serialpos": 6, "key_press": -1, "wordID": 440, "type": "PRES_VIS", "trial_index": 95}, "uniqueid": "MTK3530:3DQQ64TANHS0CBQHJQ7FIRUHJI3WPH", "dateTime": 1520649349012}, {"current_trial": 96, "trialdata": {"rt": -1, "trial_type": "single-stim", "word": "item", "stimulus": "<p id=\"stim\">ITEM</p>", "conditions": [12, 1600, "v", 12000], "internal_node_id": "0.0-69.0", "trial": 2, "time_elapsed": 514328, "serialpos": 7, "key_press": -1, "wordID": 745, "type": "PRES_VIS", "trial_index": 96}, "uniqueid": "MTK3530:3DQQ64TANHS0CBQHJQ7FIRUHJI3WPH", "dateTime": 1520649351600}, {"current_trial": 97, "trialdata": {"rt": -1, "trial_type": "single-stim", "word": "hood", "stimulus": "<p id=\"stim\">HOOD</p>", "conditions": [12, 1600, "v", 12000], "internal_node_id": "0.0-70.0", "trial": 2, "time_elapsed": 517053, "serialpos": 8, "key_press": -1, "wordID": 713, "type": "PRES_VIS", "trial_index": 97}, "uniqueid": "MTK3530:3DQQ64TANHS0CBQHJQ7FIRUHJI3WPH", "dateTime": 1520649354325}, {"current_trial": 98, "trialdata": {"rt": -1, "trial_type": "single-stim", "word": "radish", "stimulus": "<p id=\"stim\">RADISH</p>", "conditions": [12, 1600, "v", 12000], "internal_node_id": "0.0-71.0", "trial": 2, "time_elapsed": 519734, "serialpos": 9, "key_press": -1, "wordID": 1157, "type": "PRES_VIS", "trial_index": 98}, "uniqueid": "MTK3530:3DQQ64TANHS0CBQHJQ7FIRUHJI3WPH", "dateTime": 1520649357006}, {"current_trial": 99, "trialdata": {"rt": -1, "trial_type": "single-stim", "word": "cabbage", "stimulus": "<p id=\"stim\">CABBAGE</p>", "conditions": [12, 1600, "v", 12000], "internal_node_id": "0.0-72.0", "trial": 2, "time_elapsed": 522296, "serialpos": 10, "key_press": -1, "wordID": 209, "type": "PRES_VIS", "trial_index": 99}, "uniqueid": "MTK3530:3DQQ64TANHS0CBQHJQ7FIRUHJI3WPH", "dateTime": 1520649359568}, {"current_trial": 100, "trialdata": {"rt": -1, "trial_type": "single-stim", "word": "valley", "stimulus": "<p id=\"stim\">VALLEY</p>", "conditions": [12, 1600, "v", 12000], "internal_node_id": "0.0-73.0", "trial": 2, "time_elapsed": 524871, "serialpos": 11, "key_press": -1, "wordID": 1544, "type": "PRES_VIS", "trial_index": 100}, "uniqueid": "MTK3530:3DQQ64TANHS0CBQHJQ7FIRUHJI3WPH", "dateTime": 1520649362143}, {"current_trial": 101, "trialdata": {"rt": -1, "trial_type": "single-stim", "stimulus": "", "internal_node_id": "0.0-74.0-0.0", "time_elapsed": 527103, "key_press": -1, "type": "PRE_RECALL_DELAY", "trial_index": 101}, "uniqueid": "MTK3530:3DQQ64TANHS0CBQHJQ7FIRUHJI3WPH", "dateTime": 1520649364375}, {"current_trial": 102, "trialdata": {"rt": -1000, "trial_type": "single-audio", "stimulus": "/static/audio/400Hz.wav", "internal_node_id": "0.0-75.0", "time_elapsed": 527612, "key_press": -1, "type": "PRE_RECALL_ALERT", "trial_index": 102}, "uniqueid": "MTK3530:3DQQ64TANHS0CBQHJQ7FIRUHJI3WPH", "dateTime": 1520649364884}, {"current_trial": 103, "trialdata": {"rt": [5162, 8376, 13063, 17269, 22205, 29271, 56229], "recwords": ["cabbage", "valley", "radish", "cabbage", "headband", "forhead", "valley"], "key_times": [1461, 2262, 2821, 3066, 3376, 3806, 4093, 5162, 6317, 6630, 7056, 7253, 7490, 7873, 8376, 10356, 10920, 11286, 11618, 11917, 12532, 13063, 13933, 14247, 14735, 14932, 15185, 16415, 16688, 17269, 18998, 19291, 19836, 20187, 20749, 21101, 21420, 21828, 22205, 25161, 25620, 25968, 26861, 27128, 27645, 27882, 28234, 28516, 29271, 53796, 54146, 54558, 54748, 54997, 55476, 56229], "trial_type": "free-recall", "conditions": [12, 1600, "v", 12000], "internal_node_id": "0.0-76.0-0.0", "key_presses": [67, 65, 66, 66, 65, 71, 69, 32, 86, 65, 76, 76, 69, 89, 32, 82, 65, 68, 73, 83, 72, 32, 67, 65, 66, 66, 65, 71, 69, 32, 72, 69, 65, 68, 66, 65, 78, 68, 32, 80, 8, 70, 79, 82, 72, 69, 65, 68, 32, 86, 65, 76, 76, 69, 89, 32], "trial": 2, "time_elapsed": 587614, "type": "FREE_RECALL", "trial_index": 103}, "uniqueid": "MTK3530:3DQQ64TANHS0CBQHJQ7FIRUHJI3WPH", "dateTime": 1520649424891}, {"current_trial": 104, "trialdata": {"rt": 2396, "trial_type": "text", "internal_node_id": "0.0-77.0", "time_elapsed": 592016, "key_press": 32, "type": "INSTRUCTIONS", "trial_index": 104}, "uniqueid": "MTK3530:3DQQ64TANHS0CBQHJQ7FIRUHJI3WPH", "dateTime": 1520649429290}, {"current_trial": 105, "trialdata": {"rt": [3259, 5601, 7649, 9634, 11620, 13808, 15308, 17603, 19487, 21466, 23339], "trial_type": "math-distractor", "key_times": [1642, 2302, 3259, 4960, 5410, 5601, 6859, 7417, 7649, 8843, 9395, 9634, 10822, 11420, 11620, 13050, 13589, 13808, 14920, 15121, 15308, 16744, 17379, 17603, 18785, 19294, 19487, 20658, 21267, 21466, 22614, 23161, 23339], "responses": ["20", "15", "19", "20", "19", "16", "11", "16", "14", "19", "17"], "num2": [7, 8, 6, 6, 7, 2, 5, 4, 4, 8, 6, 3], "num3": [5, 2, 6, 6, 4, 7, 1, 6, 2, 3, 5, 2], "conditions": [24, 800, "v", 24000], "internal_node_id": "0.0-78.0", "key_presses": [50, 48, 13, 49, 53, 13, 49, 57, 13, 50, 48, 13, 49, 57, 13, 49, 54, 13, 49, 49, 13, 49, 54, 13, 49, 52, 13, 49, 57, 13, 49, 55, 13], "trial": 3, "time_elapsed": 618022, "type": "DISTRACTOR", "trial_index": 105, "num1": [8, 5, 7, 8, 8, 7, 5, 6, 8, 8, 6, 1]}, "uniqueid": "MTK3530:3DQQ64TANHS0CBQHJQ7FIRUHJI3WPH", "dateTime": 1520649455296}, {"current_trial": 106, "trialdata": {"rt": -1, "trial_type": "single-stim", "stimulus": "<p id=\"stim\">10</p>", "internal_node_id": "0.0-79.0-0.0", "time_elapsed": 621025, "key_press": -1, "trial_index": 106}, "uniqueid": "MTK3530:3DQQ64TANHS0CBQHJQ7FIRUHJI3WPH", "dateTime": 1520649458297}, {"current_trial": 107, "trialdata": {"rt": -1, "trial_type": "single-stim", "stimulus": "<p id=\"stim\">9</p>", "internal_node_id": "0.0-79.0-1.0", "time_elapsed": 622026, "key_press": -1, "trial_index": 107}, "uniqueid": "MTK3530:3DQQ64TANHS0CBQHJQ7FIRUHJI3WPH", "dateTime": 1520649459298}, {"current_trial": 108, "trialdata": {"rt": -1, "trial_type": "single-stim", "stimulus": "<p id=\"stim\">8</p>", "internal_node_id": "0.0-79.0-2.0", "time_elapsed": 623028, "key_press": -1, "trial_index": 108}, "uniqueid": "MTK3530:3DQQ64TANHS0CBQHJQ7FIRUHJI3WPH", "dateTime": 1520649460300}, {"current_trial": 109, "trialdata": {"rt": -1, "trial_type": "single-stim", "stimulus": "<p id=\"stim\">7</p>", "internal_node_id": "0.0-79.0-3.0", "time_elapsed": 624030, "key_press": -1, "trial_index": 109}, "uniqueid": "MTK3530:3DQQ64TANHS0CBQHJQ7FIRUHJI3WPH", "dateTime": 1520649461302}, {"current_trial": 110, "trialdata": {"rt": -1, "trial_type": "single-stim", "stimulus": "<p id=\"stim\">6</p>", "internal_node_id": "0.0-79.0-4.0", "time_elapsed": 625032, "key_press": -1, "trial_index": 110}, "uniqueid": "MTK3530:3DQQ64TANHS0CBQHJQ7FIRUHJI3WPH", "dateTime": 1520649462304}, {"current_trial": 111, "trialdata": {"rt": -1, "trial_type": "single-stim", "stimulus": "<p id=\"stim\">5</p>", "internal_node_id": "0.0-79.0-5.0", "time_elapsed": 626034, "key_press": -1, "trial_index": 111}, "uniqueid": "MTK3530:3DQQ64TANHS0CBQHJQ7FIRUHJI3WPH", "dateTime": 1520649463306}, {"current_trial": 112, "trialdata": {"rt": -1, "trial_type": "single-stim", "stimulus": "<p id=\"stim\">4</p>", "internal_node_id": "0.0-79.0-6.0", "time_elapsed": 627037, "key_press": -1, "trial_index": 112}, "uniqueid": "MTK3530:3DQQ64TANHS0CBQHJQ7FIRUHJI3WPH", "dateTime": 1520649464309}, {"current_trial": 113, "trialdata": {"rt": -1, "trial_type": "single-stim", "stimulus": "<p id=\"stim\">3</p>", "internal_node_id": "0.0-79.0-7.0", "time_elapsed": 628037, "key_press": -1, "trial_index": 113}, "uniqueid": "MTK3530:3DQQ64TANHS0CBQHJQ7FIRUHJI3WPH", "dateTime": 1520649465309}, {"current_trial": 114, "trialdata": {"rt": -1, "trial_type": "single-stim", "stimulus": "<p id=\"stim\">2</p>", "internal_node_id": "0.0-79.0-8.0", "time_elapsed": 629039, "key_press": -1, "trial_index": 114}, "uniqueid": "MTK3530:3DQQ64TANHS0CBQHJQ7FIRUHJI3WPH", "dateTime": 1520649466311}, {"current_trial": 115, "trialdata": {"rt": -1, "trial_type": "single-stim", "stimulus": "<p id=\"stim\">1</p>", "internal_node_id": "0.0-79.0-9.0", "time_elapsed": 630041, "key_press": -1, "trial_index": 115}, "uniqueid": "MTK3530:3DQQ64TANHS0CBQHJQ7FIRUHJI3WPH", "dateTime": 1520649467313}, {"current_trial": 116, "trialdata": {"rt": -1, "trial_type": "single-stim", "stimulus": "<p id=\"stim\">+</p>", "internal_node_id": "0.0-80.0-0.0", "time_elapsed": 631544, "key_press": -1, "type": "FIXATION", "trial_index": 116}, "uniqueid": "MTK3530:3DQQ64TANHS0CBQHJQ7FIRUHJI3WPH", "dateTime": 1520649468816}, {"current_trial": 117, "trialdata": {"rt": -1, "trial_type": "single-stim", "word": "preacher", "stimulus": "<p id=\"stim\">PREACHER</p>", "conditions": [24, 800, "v", 24000], "internal_node_id": "0.0-81.0", "trial": 3, "time_elapsed": 632346, "serialpos": 0, "key_press": -1, "wordID": 1118, "type": "PRES_VIS", "trial_index": 117}, "uniqueid": "MTK3530:3DQQ64TANHS0CBQHJQ7FIRUHJI3WPH", "dateTime": 1520649469619}, {"current_trial": 118, "trialdata": {"rt": -1, "trial_type": "single-stim", "word": "worker", "stimulus": "<p id=\"stim\">WORKER</p>", "conditions": [24, 800, "v", 24000], "internal_node_id": "0.0-82.0", "trial": 3, "time_elapsed": 634296, "serialpos": 1, "key_press": -1, "wordID": 1620, "type": "PRES_VIS", "trial_index": 118}, "uniqueid": "MTK3530:3DQQ64TANHS0CBQHJQ7FIRUHJI3WPH", "dateTime": 1520649471568}, {"current_trial": 119, "trialdata": {"rt": -1, "trial_type": "single-stim", "word": "police", "stimulus": "<p id=\"stim\">POLICE</p>", "conditions": [24, 800, "v", 24000], "internal_node_id": "0.0-83.0", "trial": 3, "time_elapsed": 636196, "serialpos": 2, "key_press": -1, "wordID": 1097, "type": "PRES_VIS", "trial_index": 119}, "uniqueid": "MTK3530:3DQQ64TANHS0CBQHJQ7FIRUHJI3WPH", "dateTime": 1520649473468}, {"current_trial": 120, "trialdata": {"rt": -1, "trial_type": "single-stim", "word": "lizard", "stimulus": "<p id=\"stim\">LIZARD</p>", "conditions": [24, 800, "v", 24000], "internal_node_id": "0.0-84.0", "trial": 3, "time_elapsed": 637824, "serialpos": 3, "key_press": -1, "wordID": 833, "type": "PRES_VIS", "trial_index": 120}, "uniqueid": "MTK3530:3DQQ64TANHS0CBQHJQ7FIRUHJI3WPH", "dateTime": 1520649475097}, {"current_trial": 121, "trialdata": {"rt": -1, "trial_type": "single-stim", "word": "snail", "stimulus": "<p id=\"stim\">SNAIL</p>", "conditions": [24, 800, "v", 24000], "internal_node_id": "0.0-85.0", "trial": 3, "time_elapsed": 639569, "serialpos": 4, "key_press": -1, "wordID": 1331, "type": "PRES_VIS", "trial_index": 121}, "uniqueid": "MTK3530:3DQQ64TANHS0CBQHJQ7FIRUHJI3WPH", "dateTime": 1520649476841}, {"current_trial": 122, "trialdata": {"rt": -1, "trial_type": "single-stim", "word": "boyfriend", "stimulus": "<p id=\"stim\">BOYFRIEND</p>", "conditions": [24, 800, "v", 24000], "internal_node_id": "0.0-86.0", "trial": 3, "time_elapsed": 641464, "serialpos": 5, "key_press": -1, "wordID": 161, "type": "PRES_VIS", "trial_index": 122}, "uniqueid": "MTK3530:3DQQ64TANHS0CBQHJQ7FIRUHJI3WPH", "dateTime": 1520649478736}, {"current_trial": 123, "trialdata": {"rt": -1, "trial_type": "single-stim", "word": "woman", "stimulus": "<p id=\"stim\">WOMAN</p>", "conditions": [24, 800, "v", 24000], "internal_node_id": "0.0-87.0", "trial": 3, "time_elapsed": 643084, "serialpos": 6, "key_press": -1, "wordID": 1619, "type": "PRES_VIS", "trial_index": 123}, "uniqueid": "MTK3530:3DQQ64TANHS0CBQHJQ7FIRUHJI3WPH", "dateTime": 1520649480356}, {"current_trial": 124, "trialdata": {"rt": -1, "trial_type": "single-stim", "word": "captive", "stimulus": "<p id=\"stim\">CAPTIVE</p>", "conditions": [24, 800, "v", 24000], "internal_node_id": "0.0-88.0", "trial": 3, "time_elapsed": 644851, "serialpos": 7, "key_press": -1, "wordID": 239, "type": "PRES_VIS", "trial_index": 124}, "uniqueid": "MTK3530:3DQQ64TANHS0CBQHJQ7FIRUHJI3WPH", "dateTime": 1520649482123}, {"current_trial": 125, "trialdata": {"rt": -1, "trial_type": "single-stim", "word": "shirt", "stimulus": "<p id=\"stim\">SHIRT</p>", "conditions": [24, 800, "v", 24000], "internal_node_id": "0.0-89.0", "trial": 3, "time_elapsed": 646680, "serialpos": 8, "key_press": -1, "wordID": 1286, "type": "PRES_VIS", "trial_index": 125}, "uniqueid": "MTK3530:3DQQ64TANHS0CBQHJQ7FIRUHJI3WPH", "dateTime": 1520649483952}, {"current_trial": 126, "trialdata": {"rt": -1, "trial_type": "single-stim", "word": "servant", "stimulus": "<p id=\"stim\">SERVANT</p>", "conditions": [24, 800, "v", 24000], "internal_node_id": "0.0-90.0", "trial": 3, "time_elapsed": 648338, "serialpos": 9, "key_press": -1, "wordID": 1270, "type": "PRES_VIS", "trial_index": 126}, "uniqueid": "MTK3530:3DQQ64TANHS0CBQHJQ7FIRUHJI3WPH", "dateTime": 1520649485610}, {"current_trial": 127, "trialdata": {"rt": -1, "trial_type": "single-stim", "word": "drug", "stimulus": "<p id=\"stim\">DRUG</p>", "conditions": [24, 800, "v", 24000], "internal_node_id": "0.0-91.0", "trial": 3, "time_elapsed": 650016, "serialpos": 10, "key_press": -1, "wordID": 500, "type": "PRES_VIS", "trial_index": 127}, "uniqueid": "MTK3530:3DQQ64TANHS0CBQHJQ7FIRUHJI3WPH", "dateTime": 1520649487288}, {"current_trial": 128, "trialdata": {"rt": -1, "trial_type": "single-stim", "word": "blouse", "stimulus": "<p id=\"stim\">BLOUSE</p>", "conditions": [24, 800, "v", 24000], "internal_node_id": "0.0-92.0", "trial": 3, "time_elapsed": 651663, "serialpos": 11, "key_press": -1, "wordID": 138, "type": "PRES_VIS", "trial_index": 128}, "uniqueid": "MTK3530:3DQQ64TANHS0CBQHJQ7FIRUHJI3WPH", "dateTime": 1520649488935}, {"current_trial": 129, "trialdata": {"rt": -1, "trial_type": "single-stim", "word": "balloon", "stimulus": "<p id=\"stim\">BALLOON</p>", "conditions": [24, 800, "v", 24000], "internal_node_id": "0.0-93.0", "trial": 3, "time_elapsed": 653334, "serialpos": 12, "key_press": -1, "wordID": 74, "type": "PRES_VIS", "trial_index": 129}, "uniqueid": "MTK3530:3DQQ64TANHS0CBQHJQ7FIRUHJI3WPH", "dateTime": 1520649490606}, {"current_trial": 130, "trialdata": {"rt": -1, "trial_type": "single-stim", "word": "dancer", "stimulus": "<p id=\"stim\">DANCER</p>", "conditions": [24, 800, "v", 24000], "internal_node_id": "0.0-94.0", "trial": 3, "time_elapsed": 655116, "serialpos": 13, "key_press": -1, "wordID": 436, "type": "PRES_VIS", "trial_index": 130}, "uniqueid": "MTK3530:3DQQ64TANHS0CBQHJQ7FIRUHJI3WPH", "dateTime": 1520649492388}, {"current_trial": 131, "trialdata": {"rt": -1, "trial_type": "single-stim", "word": "slide", "stimulus": "<p id=\"stim\">SLIDE</p>", "conditions": [24, 800, "v", 24000], "internal_node_id": "0.0-95.0", "trial": 3, "time_elapsed": 656755, "serialpos": 14, "key_press": -1, "wordID": 1325, "type": "PRES_VIS", "trial_index": 131}, "uniqueid": "MTK3530:3DQQ64TANHS0CBQHJQ7FIRUHJI3WPH", "dateTime": 1520649494027}, {"current_trial": 132, "trialdata": {"rt": -1, "trial_type": "single-stim", "word": "sister", "stimulus": "<p id=\"stim\">SISTER</p>", "conditions": [24, 800, "v", 24000], "internal_node_id": "0.0-96.0", "trial": 3, "time_elapsed": 658527, "serialpos": 15, "key_press": -1, "wordID": 1311, "type": "PRES_VIS", "trial_index": 132}, "uniqueid": "MTK3530:3DQQ64TANHS0CBQHJQ7FIRUHJI3WPH", "dateTime": 1520649495799}, {"current_trial": 133, "trialdata": {"rt": -1, "trial_type": "single-stim", "word": "garbage", "stimulus": "<p id=\"stim\">GARBAGE</p>", "conditions": [24, 800, "v", 24000], "internal_node_id": "0.0-97.0", "trial": 3, "time_elapsed": 660391, "serialpos": 16, "key_press": -1, "wordID": 621, "type": "PRES_VIS", "trial_index": 133}, "uniqueid": "MTK3530:3DQQ64TANHS0CBQHJQ7FIRUHJI3WPH", "dateTime": 1520649497663}, {"current_trial": 134, "trialdata": {"rt": -1, "trial_type": "single-stim", "word": "switch", "stimulus": "<p id=\"stim\">SWITCH</p>", "conditions": [24, 800, "v", 24000], "internal_node_id": "0.0-98.0", "trial": 3, "time_elapsed": 662324, "serialpos": 17, "key_press": -1, "wordID": 1421, "type": "PRES_VIS", "trial_index": 134}, "uniqueid": "MTK3530:3DQQ64TANHS0CBQHJQ7FIRUHJI3WPH", "dateTime": 1520649499596}, {"current_trial": 135, "trialdata": {"rt": -1, "trial_type": "single-stim", "word": "army", "stimulus": "<p id=\"stim\">ARMY</p>", "conditions": [24, 800, "v", 24000], "internal_node_id": "0.0-99.0", "trial": 3, "time_elapsed": 664034, "serialpos": 18, "key_press": -1, "wordID": 38, "type": "PRES_VIS", "trial_index": 135}, "uniqueid": "MTK3530:3DQQ64TANHS0CBQHJQ7FIRUHJI3WPH", "dateTime": 1520649501306}, {"current_trial": 136, "trialdata": {"rt": -1, "trial_type": "single-stim", "word": "lady", "stimulus": "<p id=\"stim\">LADY</p>", "conditions": [24, 800, "v", 24000], "internal_node_id": "0.0-100.0", "trial": 3, "time_elapsed": 665985, "serialpos": 19, "key_press": -1, "wordID": 793, "type": "PRES_VIS", "trial_index": 136}, "uniqueid": "MTK3530:3DQQ64TANHS0CBQHJQ7FIRUHJI3WPH", "dateTime": 1520649503257}, {"current_trial": 137, "trialdata": {"rt": -1, "trial_type": "single-stim", "word": "termite", "stimulus": "<p id=\"stim\">TERMITE</p>", "conditions": [24, 800, "v", 24000], "internal_node_id": "0.0-101.0", "trial": 3, "time_elapsed": 667620, "serialpos": 20, "key_press": -1, "wordID": 1450, "type": "PRES_VIS", "trial_index": 137}, "uniqueid": "MTK3530:3DQQ64TANHS0CBQHJQ7FIRUHJI3WPH", "dateTime": 1520649504892}, {"current_trial": 138, "trialdata": {"rt": -1, "trial_type": "single-stim", "word": "fungus", "stimulus": "<p id=\"stim\">FUNGUS</p>", "conditions": [24, 800, "v", 24000], "internal_node_id": "0.0-102.0", "trial": 3, "time_elapsed": 669586, "serialpos": 21, "key_press": -1, "wordID": 613, "type": "PRES_VIS", "trial_index": 138}, "uniqueid": "MTK3530:3DQQ64TANHS0CBQHJQ7FIRUHJI3WPH", "dateTime": 1520649506858}, {"current_trial": 139, "trialdata": {"rt": -1, "trial_type": "single-stim", "word": "husband", "stimulus": "<p id=\"stim\">HUSBAND</p>", "conditions": [24, 800, "v", 24000], "internal_node_id": "0.0-103.0", "trial": 3, "time_elapsed": 671368, "serialpos": 22, "key_press": -1, "wordID": 727, "type": "PRES_VIS", "trial_index": 139}, "uniqueid": "MTK3530:3DQQ64TANHS0CBQHJQ7FIRUHJI3WPH", "dateTime": 1520649508640}, {"current_trial": 140, "trialdata": {"rt": -1, "trial_type": "single-stim", "word": "zipper", "stimulus": "<p id=\"stim\">ZIPPER</p>", "conditions": [24, 800, "v", 24000], "internal_node_id": "0.0-104.0", "trial": 3, "time_elapsed": 673300, "serialpos": 23, "key_press": -1, "wordID": 1635, "type": "PRES_VIS", "trial_index": 140}, "uniqueid": "MTK3530:3DQQ64TANHS0CBQHJQ7FIRUHJI3WPH", "dateTime": 1520649510572}, {"current_trial": 141, "trialdata": {"rt": -1, "trial_type": "single-stim", "stimulus": "", "internal_node_id": "0.0-105.0-0.0", "time_elapsed": 675630, "key_press": -1, "type": "PRE_RECALL_DELAY", "trial_index": 141}, "uniqueid": "MTK3530:3DQQ64TANHS0CBQHJQ7FIRUHJI3WPH", "dateTime": 1520649512902}, {"current_trial": 142, "trialdata": {"rt": -1000, "trial_type": "single-audio", "stimulus": "/static/audio/400Hz.wav", "internal_node_id": "0.0-106.0", "time_elapsed": 676139, "key_press": -1, "type": "PRE_RECALL_ALERT", "trial_index": 142}, "uniqueid": "MTK3530:3DQQ64TANHS0CBQHJQ7FIRUHJI3WPH", "dateTime": 1520649513411}, {"current_trial": 143, "trialdata": {"rt": [4875, 8166, 11750, 14822, 18529, 33754, 38917, 42350, 52029], "recwords": ["termtei", "fungus", "husband", "zipper", "blouse", "girlfriend", "boyfriend", "dancer", "woman"], "key_times": [1150, 2084, 2335, 2819, 3833, 4183, 4510, 4875, 5900, 6220, 6549, 6799, 7188, 7543, 8166, 9048, 9627, 10023, 10450, 10793, 11148, 11415, 11750, 12716, 13144, 13692, 13883, 14132, 14342, 14822, 16211, 16549, 16859, 17218, 17451, 17738, 18529, 26158, 26558, 26838, 27235, 28451, 29321, 29706, 30062, 30557, 31648, 33754, 34757, 35132, 35682, 36570, 36805, 37102, 37415, 37909, 38269, 38917, 40307, 40784, 41208, 41512, 41769, 41991, 42350, 49954, 50182, 50594, 50910, 51074, 52029], "trial_type": "free-recall", "conditions": [24, 800, "v", 24000], "internal_node_id": "0.0-107.0-0.0", "key_presses": [84, 69, 82, 77, 73, 84, 69, 32, 70, 85, 78, 71, 85, 83, 32, 72, 85, 83, 66, 65, 78, 68, 32, 90, 73, 80, 80, 69, 82, 32, 66, 76, 79, 85, 83, 69, 32, 71, 73, 82, 76, 70, 82, 73, 69, 78, 68, 32, 66, 79, 89, 70, 82, 73, 69, 78, 68, 32, 68, 65, 78, 67, 69, 82, 32, 87, 79, 77, 65, 78, 32], "trial": 3, "time_elapsed": 736141, "type": "FREE_RECALL", "trial_index": 143}, "uniqueid": "MTK3530:3DQQ64TANHS0CBQHJQ7FIRUHJI3WPH", "dateTime": 1520649573418}, {"current_trial": 144, "trialdata": {"rt": 6848, "trial_type": "text", "internal_node_id": "0.0-108.0", "time_elapsed": 744996, "key_press": 32, "type": "INSTRUCTIONS", "trial_index": 144}, "uniqueid": "MTK3530:3DQQ64TANHS0CBQHJQ7FIRUHJI3WPH", "dateTime": 1520649582268}, {"current_trial": 145, "trialdata": {"rt": [3323, 5265, 6904, 9137, 10824, 12574, 14191, 16036, 18398, 20208, 22212], "trial_type": "math-distractor", "key_times": [1614, 2157, 3323, 4523, 5042, 5265, 6673, 6904, 8426, 8937, 9137, 10185, 10634, 10824, 11947, 12340, 12574, 13582, 13994, 14191, 15302, 15805, 16036, 17722, 18076, 18398, 19807, 19994, 20208, 21575, 22038, 22212, 23574], "responses": ["17", "17", "7", "20", "16", "13", "14", "19", "22", "11", "16"], "num2": [2, 1, 2, 9, 7, 4, 6, 8, 9, 6, 3, 5], "num3": [7, 7, 3, 8, 4, 3, 1, 2, 6, 2, 9, 7], "conditions": [12, 1600, "v", 24000], "internal_node_id": "0.0-109.0", "key_presses": [49, 55, 13, 49, 55, 13, 55, 13, 50, 48, 13, 49, 54, 13, 49, 51, 13, 49, 52, 13, 49, 57, 13, 50, 50, 13, 49, 49, 13, 49, 54, 13, 49], "trial": 4, "time_elapsed": 771001, "type": "DISTRACTOR", "trial_index": 145, "num1": [8, 9, 2, 3, 5, 6, 7, 9, 7, 3, 4, 4]}, "uniqueid": "MTK3530:3DQQ64TANHS0CBQHJQ7FIRUHJI3WPH", "dateTime": 1520649608273}, {"current_trial": 146, "trialdata": {"rt": -1, "trial_type": "single-stim", "stimulus": "<p id=\"stim\">10</p>", "internal_node_id": "0.0-110.0-0.0", "time_elapsed": 774002, "key_press": -1, "trial_index": 146}, "uniqueid": "MTK3530:3DQQ64TANHS0CBQHJQ7FIRUHJI3WPH", "dateTime": 1520649611274}, {"current_trial": 147, "trialdata": {"rt": -1, "trial_type": "single-stim", "stimulus": "<p id=\"stim\">9</p>", "internal_node_id": "0.0-110.0-1.0", "time_elapsed": 775003, "key_press": -1, "trial_index": 147}, "uniqueid": "MTK3530:3DQQ64TANHS0CBQHJQ7FIRUHJI3WPH", "dateTime": 1520649612275}, {"current_trial": 148, "trialdata": {"rt": -1, "trial_type": "single-stim", "stimulus": "<p id=\"stim\">8</p>", "internal_node_id": "0.0-110.0-2.0", "time_elapsed": 776005, "key_press": -1, "trial_index": 148}, "uniqueid": "MTK3530:3DQQ64TANHS0CBQHJQ7FIRUHJI3WPH", "dateTime": 1520649613277}, {"current_trial": 149, "trialdata": {"rt": -1, "trial_type": "single-stim", "stimulus": "<p id=\"stim\">7</p>", "internal_node_id": "0.0-110.0-3.0", "time_elapsed": 777007, "key_press": -1, "trial_index": 149}, "uniqueid": "MTK3530:3DQQ64TANHS0CBQHJQ7FIRUHJI3WPH", "dateTime": 1520649614279}, {"current_trial": 150, "trialdata": {"rt": -1, "trial_type": "single-stim", "stimulus": "<p id=\"stim\">6</p>", "internal_node_id": "0.0-110.0-4.0", "time_elapsed": 778010, "key_press": -1, "trial_index": 150}, "uniqueid": "MTK3530:3DQQ64TANHS0CBQHJQ7FIRUHJI3WPH", "dateTime": 1520649615282}, {"current_trial": 151, "trialdata": {"rt": -1, "trial_type": "single-stim", "stimulus": "<p id=\"stim\">5</p>", "internal_node_id": "0.0-110.0-5.0", "time_elapsed": 779012, "key_press": -1, "trial_index": 151}, "uniqueid": "MTK3530:3DQQ64TANHS0CBQHJQ7FIRUHJI3WPH", "dateTime": 1520649616284}, {"current_trial": 152, "trialdata": {"rt": -1, "trial_type": "single-stim", "stimulus": "<p id=\"stim\">4</p>", "internal_node_id": "0.0-110.0-6.0", "time_elapsed": 780014, "key_press": -1, "trial_index": 152}, "uniqueid": "MTK3530:3DQQ64TANHS0CBQHJQ7FIRUHJI3WPH", "dateTime": 1520649617286}, {"current_trial": 153, "trialdata": {"rt": -1, "trial_type": "single-stim", "stimulus": "<p id=\"stim\">3</p>", "internal_node_id": "0.0-110.0-7.0", "time_elapsed": 781016, "key_press": -1, "trial_index": 153}, "uniqueid": "MTK3530:3DQQ64TANHS0CBQHJQ7FIRUHJI3WPH", "dateTime": 1520649618288}, {"current_trial": 154, "trialdata": {"rt": -1, "trial_type": "single-stim", "stimulus": "<p id=\"stim\">2</p>", "internal_node_id": "0.0-110.0-8.0", "time_elapsed": 782019, "key_press": -1, "trial_index": 154}, "uniqueid": "MTK3530:3DQQ64TANHS0CBQHJQ7FIRUHJI3WPH", "dateTime": 1520649619291}, {"current_trial": 155, "trialdata": {"rt": -1, "trial_type": "single-stim", "stimulus": "<p id=\"stim\">1</p>", "internal_node_id": "0.0-110.0-9.0", "time_elapsed": 783019, "key_press": -1, "trial_index": 155}, "uniqueid": "MTK3530:3DQQ64TANHS0CBQHJQ7FIRUHJI3WPH", "dateTime": 1520649620292}, {"current_trial": 156, "trialdata": {"rt": -1, "trial_type": "single-stim", "stimulus": "<p id=\"stim\">+</p>", "internal_node_id": "0.0-111.0-0.0", "time_elapsed": 784522, "key_press": -1, "type": "FIXATION", "trial_index": 156}, "uniqueid": "MTK3530:3DQQ64TANHS0CBQHJQ7FIRUHJI3WPH", "dateTime": 1520649621794}, {"current_trial": 157, "trialdata": {"rt": -1, "trial_type": "single-stim", "word": "dresser", "stimulus": "<p id=\"stim\">DRESSER</p>", "conditions": [12, 1600, "v", 24000], "internal_node_id": "0.0-112.0", "trial": 4, "time_elapsed": 786123, "serialpos": 0, "key_press": -1, "wordID": 495, "type": "PRES_VIS", "trial_index": 157}, "uniqueid": "MTK3530:3DQQ64TANHS0CBQHJQ7FIRUHJI3WPH", "dateTime": 1520649623395}, {"current_trial": 158, "trialdata": {"rt": -1, "trial_type": "single-stim", "word": "whistle", "stimulus": "<p id=\"stim\">WHISTLE</p>", "conditions": [12, 1600, "v", 24000], "internal_node_id": "0.0-113.0", "trial": 4, "time_elapsed": 788798, "serialpos": 1, "key_press": -1, "wordID": 1605, "type": "PRES_VIS", "trial_index": 158}, "uniqueid": "MTK3530:3DQQ64TANHS0CBQHJQ7FIRUHJI3WPH", "dateTime": 1520649626070}, {"current_trial": 159, "trialdata": {"rt": -1, "trial_type": "single-stim", "word": "flute", "stimulus": "<p id=\"stim\">FLUTE</p>", "conditions": [12, 1600, "v", 24000], "internal_node_id": "0.0-114.0", "trial": 4, "time_elapsed": 791225, "serialpos": 2, "key_press": -1, "wordID": 584, "type": "PRES_VIS", "trial_index": 159}, "uniqueid": "MTK3530:3DQQ64TANHS0CBQHJQ7FIRUHJI3WPH", "dateTime": 1520649628497}, {"current_trial": 160, "trialdata": {"rt": -1, "trial_type": "single-stim", "word": "hook", "stimulus": "<p id=\"stim\">HOOK</p>", "conditions": [12, 1600, "v", 24000], "internal_node_id": "0.0-115.0", "trial": 4, "time_elapsed": 793633, "serialpos": 3, "key_press": -1, "wordID": 714, "type": "PRES_VIS", "trial_index": 160}, "uniqueid": "MTK3530:3DQQ64TANHS0CBQHJQ7FIRUHJI3WPH", "dateTime": 1520649630905}, {"current_trial": 161, "trialdata": {"rt": -1, "trial_type": "single-stim", "word": "hiker", "stimulus": "<p id=\"stim\">HIKER</p>", "conditions": [12, 1600, "v", 24000], "internal_node_id": "0.0-116.0", "trial": 4, "time_elapsed": 796133, "serialpos": 4, "key_press": -1, "wordID": 707, "type": "PRES_VIS", "trial_index": 161}, "uniqueid": "MTK3530:3DQQ64TANHS0CBQHJQ7FIRUHJI3WPH", "dateTime": 1520649633405}, {"current_trial": 162, "trialdata": {"rt": -1, "trial_type": "single-stim", "word": "napkin", "stimulus": "<p id=\"stim\">NAPKIN</p>", "conditions": [12, 1600, "v", 24000], "internal_node_id": "0.0-117.0", "trial": 4, "time_elapsed": 798774, "serialpos": 5, "key_press": -1, "wordID": 936, "type": "PRES_VIS", "trial_index": 162}, "uniqueid": "MTK3530:3DQQ64TANHS0CBQHJQ7FIRUHJI3WPH", "dateTime": 1520649636046}, {"current_trial": 163, "trialdata": {"rt": -1, "trial_type": "single-stim", "word": "leg", "stimulus": "<p id=\"stim\">LEG</p>", "conditions": [12, 1600, "v", 24000], "internal_node_id": "0.0-118.0", "trial": 4, "time_elapsed": 801485, "serialpos": 6, "key_press": -1, "wordID": 808, "type": "PRES_VIS", "trial_index": 163}, "uniqueid": "MTK3530:3DQQ64TANHS0CBQHJQ7FIRUHJI3WPH", "dateTime": 1520649638757}, {"current_trial": 164, "trialdata": {"rt": -1, "trial_type": "single-stim", "word": "county", "stimulus": "<p id=\"stim\">COUNTY</p>", "conditions": [12, 1600, "v", 24000], "internal_node_id": "0.0-119.0", "trial": 4, "time_elapsed": 803987, "serialpos": 7, "key_press": -1, "wordID": 388, "type": "PRES_VIS", "trial_index": 164}, "uniqueid": "MTK3530:3DQQ64TANHS0CBQHJQ7FIRUHJI3WPH", "dateTime": 1520649641259}, {"current_trial": 165, "trialdata": {"rt": -1, "trial_type": "single-stim", "word": "sheriff", "stimulus": "<p id=\"stim\">SHERIFF</p>", "conditions": [12, 1600, "v", 24000], "internal_node_id": "0.0-120.0", "trial": 4, "time_elapsed": 806442, "serialpos": 8, "key_press": -1, "wordID": 1283, "type": "PRES_VIS", "trial_index": 165}, "uniqueid": "MTK3530:3DQQ64TANHS0CBQHJQ7FIRUHJI3WPH", "dateTime": 1520649643714}, {"current_trial": 166, "trialdata": {"rt": -1, "trial_type": "single-stim", "word": "climber", "stimulus": "<p id=\"stim\">CLIMBER</p>", "conditions": [12, 1600, "v", 24000], "internal_node_id": "0.0-121.0", "trial": 4, "time_elapsed": 809037, "serialpos": 9, "key_press": -1, "wordID": 322, "type": "PRES_VIS", "trial_index": 166}, "uniqueid": "MTK3530:3DQQ64TANHS0CBQHJQ7FIRUHJI3WPH", "dateTime": 1520649646309}, {"current_trial": 167, "trialdata": {"rt": -1, "trial_type": "single-stim", "word": "citrus", "stimulus": "<p id=\"stim\">CITRUS</p>", "conditions": [12, 1600, "v", 24000], "internal_node_id": "0.0-122.0", "trial": 4, "time_elapsed": 811732, "serialpos": 10, "key_press": -1, "wordID": 312, "type": "PRES_VIS", "trial_index": 167}, "uniqueid": "MTK3530:3DQQ64TANHS0CBQHJQ7FIRUHJI3WPH", "dateTime": 1520649649004}, {"current_trial": 168, "trialdata": {"rt": -1, "trial_type": "single-stim", "word": "queen", "stimulus": "<p id=\"stim\">QUEEN</p>", "conditions": [12, 1600, "v", 24000], "internal_node_id": "0.0-123.0", "trial": 4, "time_elapsed": 814134, "serialpos": 11, "key_press": -1, "wordID": 1148, "type": "PRES_VIS", "trial_index": 168}, "uniqueid": "MTK3530:3DQQ64TANHS0CBQHJQ7FIRUHJI3WPH", "dateTime": 1520649651406}, {"current_trial": 169, "trialdata": {"rt": -1, "trial_type": "single-stim", "stimulus": "", "internal_node_id": "0.0-124.0-0.0", "time_elapsed": 816589, "key_press": -1, "type": "PRE_RECALL_DELAY", "trial_index": 169}, "uniqueid": "MTK3530:3DQQ64TANHS0CBQHJQ7FIRUHJI3WPH", "dateTime": 1520649653861}, {"current_trial": 170, "trialdata": {"rt": -1000, "trial_type": "single-audio", "stimulus": "/static/audio/400Hz.wav", "internal_node_id": "0.0-125.0", "time_elapsed": 817096, "key_press": -1, "type": "PRE_RECALL_ALERT", "trial_index": 170}, "uniqueid": "MTK3530:3DQQ64TANHS0CBQHJQ7FIRUHJI3WPH", "dateTime": 1520649654368}, {"current_trial": 171, "trialdata": {"rt": [4907, 7822, 10827, 13749, 17139, 19436, 32747, 45524], "recwords": ["county", "sherrif", "citrus", "queen", "hiker", "hook", "county", "climb"], "key_times": [1690, 2192, 3017, 3343, 3626, 3842, 4907, 5657, 5994, 6282, 6621, 6794, 7108, 7408, 7822, 8597, 9117, 9584, 9877, 10194, 10588, 10827, 11818, 12546, 12857, 13053, 13273, 13749, 14637, 15205, 15603, 15876, 16079, 17139, 17981, 18553, 18753, 19046, 19436, 29409, 30062, 31197, 31676, 31956, 32190, 32747, 42137, 42514, 42948, 43274, 43643, 45524], "trial_type": "free-recall", "conditions": [12, 1600, "v", 24000], "internal_node_id": "0.0-126.0-0.0", "key_presses": [67, 79, 85, 78, 84, 89, 32, 83, 72, 69, 82, 82, 73, 70, 32, 67, 73, 84, 82, 85, 83, 32, 81, 85, 69, 69, 78, 32, 72, 73, 75, 69, 82, 32, 72, 79, 79, 75, 32, 67, 79, 85, 78, 84, 89, 32, 67, 76, 73, 77, 66, 32], "trial": 4, "time_elapsed": 877096, "type": "FREE_RECALL", "trial_index": 171}, "uniqueid": "MTK3530:3DQQ64TANHS0CBQHJQ7FIRUHJI3WPH", "dateTime": 1520649714372}, {"current_trial": 172, "trialdata": {"rt": 1733, "trial_type": "text", "internal_node_id": "0.0-127.0", "time_elapsed": 880834, "key_press": 32, "type": "INSTRUCTIONS", "trial_index": 172}, "uniqueid": "MTK3530:3DQQ64TANHS0CBQHJQ7FIRUHJI3WPH", "dateTime": 1520649718106}, {"current_trial": 173, "trialdata": {"rt": [5295, 8282, 10996, 12545, 14536, 16763, 18485, 20545, 22704], "trial_type": "math-distractor", "key_times": [1668, 2363, 3422, 3665, 4067, 5295, 7829, 8057, 8282, 10195, 10787, 10996, 12099, 12363, 12545, 14128, 14361, 14536, 15963, 16582, 16763, 17785, 18333, 18485, 20333, 20545, 22011, 22533, 22704], "responses": ["20", "12", "16", "13", "23", "20", "15", "9", "17"], "num2": [3, 1, 3, 4, 8, 7, 7, 4, 8, 8], "num3": [8, 4, 9, 3, 7, 9, 5, 3, 4, 5], "conditions": [24, 800, "v", 24000], "internal_node_id": "0.0-128.0", "key_presses": [49, 35, 8, 50, 48, 13, 49, 50, 13, 49, 54, 13, 49, 51, 13, 50, 51, 13, 50, 48, 13, 49, 53, 13, 57, 13, 49, 55, 13], "trial": 5, "time_elapsed": 906839, "type": "DISTRACTOR", "trial_index": 173, "num1": [9, 7, 4, 6, 8, 4, 3, 2, 5, 5]}, "uniqueid": "MTK3530:3DQQ64TANHS0CBQHJQ7FIRUHJI3WPH", "dateTime": 1520649744111}, {"current_trial": 174, "trialdata": {"rt": -1, "trial_type": "single-stim", "stimulus": "<p id=\"stim\">10</p>", "internal_node_id": "0.0-129.0-0.0", "time_elapsed": 909841, "key_press": -1, "trial_index": 174}, "uniqueid": "MTK3530:3DQQ64TANHS0CBQHJQ7FIRUHJI3WPH", "dateTime": 1520649747113}, {"current_trial": 175, "trialdata": {"rt": -1, "trial_type": "single-stim", "stimulus": "<p id=\"stim\">9</p>", "internal_node_id": "0.0-129.0-1.0", "time_elapsed": 910843, "key_press": -1, "trial_index": 175}, "uniqueid": "MTK3530:3DQQ64TANHS0CBQHJQ7FIRUHJI3WPH", "dateTime": 1520649748115}, {"current_trial": 176, "trialdata": {"rt": -1, "trial_type": "single-stim", "stimulus": "<p id=\"stim\">8</p>", "internal_node_id": "0.0-129.0-2.0", "time_elapsed": 911844, "key_press": -1, "trial_index": 176}, "uniqueid": "MTK3530:3DQQ64TANHS0CBQHJQ7FIRUHJI3WPH", "dateTime": 1520649749116}, {"current_trial": 177, "trialdata": {"rt": -1, "trial_type": "single-stim", "stimulus": "<p id=\"stim\">7</p>", "internal_node_id": "0.0-129.0-3.0", "time_elapsed": 912846, "key_press": -1, "trial_index": 177}, "uniqueid": "MTK3530:3DQQ64TANHS0CBQHJQ7FIRUHJI3WPH", "dateTime": 1520649750118}, {"current_trial": 178, "trialdata": {"rt": -1, "trial_type": "single-stim", "stimulus": "<p id=\"stim\">6</p>", "internal_node_id": "0.0-129.0-4.0", "time_elapsed": 913848, "key_press": -1, "trial_index": 178}, "uniqueid": "MTK3530:3DQQ64TANHS0CBQHJQ7FIRUHJI3WPH", "dateTime": 1520649751120}, {"current_trial": 179, "trialdata": {"rt": -1, "trial_type": "single-stim", "stimulus": "<p id=\"stim\">5</p>", "internal_node_id": "0.0-129.0-5.0", "time_elapsed": 914849, "key_press": -1, "trial_index": 179}, "uniqueid": "MTK3530:3DQQ64TANHS0CBQHJQ7FIRUHJI3WPH", "dateTime": 1520649752121}, {"current_trial": 180, "trialdata": {"rt": -1, "trial_type": "single-stim", "stimulus": "<p id=\"stim\">4</p>", "internal_node_id": "0.0-129.0-6.0", "time_elapsed": 915851, "key_press": -1, "trial_index": 180}, "uniqueid": "MTK3530:3DQQ64TANHS0CBQHJQ7FIRUHJI3WPH", "dateTime": 1520649753123}, {"current_trial": 181, "trialdata": {"rt": -1, "trial_type": "single-stim", "stimulus": "<p id=\"stim\">3</p>", "internal_node_id": "0.0-129.0-7.0", "time_elapsed": 916853, "key_press": -1, "trial_index": 181}, "uniqueid": "MTK3530:3DQQ64TANHS0CBQHJQ7FIRUHJI3WPH", "dateTime": 1520649754125}, {"current_trial": 182, "trialdata": {"rt": -1, "trial_type": "single-stim", "stimulus": "<p id=\"stim\">2</p>", "internal_node_id": "0.0-129.0-8.0", "time_elapsed": 917855, "key_press": -1, "trial_index": 182}, "uniqueid": "MTK3530:3DQQ64TANHS0CBQHJQ7FIRUHJI3WPH", "dateTime": 1520649755128}, {"current_trial": 183, "trialdata": {"rt": -1, "trial_type": "single-stim", "stimulus": "<p id=\"stim\">1</p>", "internal_node_id": "0.0-129.0-9.0", "time_elapsed": 918857, "key_press": -1, "trial_index": 183}, "uniqueid": "MTK3530:3DQQ64TANHS0CBQHJQ7FIRUHJI3WPH", "dateTime": 1520649756129}, {"current_trial": 184, "trialdata": {"rt": -1, "trial_type": "single-stim", "stimulus": "<p id=\"stim\">+</p>", "internal_node_id": "0.0-130.0-0.0", "time_elapsed": 920359, "key_press": -1, "type": "FIXATION", "trial_index": 184}, "uniqueid": "MTK3530:3DQQ64TANHS0CBQHJQ7FIRUHJI3WPH", "dateTime": 1520649757631}, {"current_trial": 185, "trialdata": {"rt": -1, "trial_type": "single-stim", "word": "briefcase", "stimulus": "<p id=\"stim\">BRIEFCASE</p>", "conditions": [24, 800, "v", 24000], "internal_node_id": "0.0-131.0", "trial": 5, "time_elapsed": 921161, "serialpos": 0, "key_press": -1, "wordID": 174, "type": "PRES_VIS", "trial_index": 185}, "uniqueid": "MTK3530:3DQQ64TANHS0CBQHJQ7FIRUHJI3WPH", "dateTime": 1520649758433}, {"current_trial": 186, "trialdata": {"rt": -1, "trial_type": "single-stim", "word": "possum", "stimulus": "<p id=\"stim\">POSSUM</p>", "conditions": [24, 800, "v", 24000], "internal_node_id": "0.0-132.0", "trial": 5, "time_elapsed": 922869, "serialpos": 1, "key_press": -1, "wordID": 1111, "type": "PRES_VIS", "trial_index": 186}, "uniqueid": "MTK3530:3DQQ64TANHS0CBQHJQ7FIRUHJI3WPH", "dateTime": 1520649760141}, {"current_trial": 187, "trialdata": {"rt": -1, "trial_type": "single-stim", "word": "freezer", "stimulus": "<p id=\"stim\">FREEZER</p>", "conditions": [24, 800, "v", 24000], "internal_node_id": "0.0-133.0", "trial": 5, "time_elapsed": 924732, "serialpos": 2, "key_press": -1, "wordID": 603, "type": "PRES_VIS", "trial_index": 187}, "uniqueid": "MTK3530:3DQQ64TANHS0CBQHJQ7FIRUHJI3WPH", "dateTime": 1520649762004}, {"current_trial": 188, "trialdata": {"rt": -1, "trial_type": "single-stim", "word": "burglar", "stimulus": "<p id=\"stim\">BURGLAR</p>", "conditions": [24, 800, "v", 24000], "internal_node_id": "0.0-134.0", "trial": 5, "time_elapsed": 926418, "serialpos": 3, "key_press": -1, "wordID": 199, "type": "PRES_VIS", "trial_index": 188}, "uniqueid": "MTK3530:3DQQ64TANHS0CBQHJQ7FIRUHJI3WPH", "dateTime": 1520649763690}, {"current_trial": 189, "trialdata": {"rt": -1, "trial_type": "single-stim", "word": "pocket", "stimulus": "<p id=\"stim\">POCKET</p>", "conditions": [24, 800, "v", 24000], "internal_node_id": "0.0-135.0", "trial": 5, "time_elapsed": 928190, "serialpos": 4, "key_press": -1, "wordID": 1092, "type": "PRES_VIS", "trial_index": 189}, "uniqueid": "MTK3530:3DQQ64TANHS0CBQHJQ7FIRUHJI3WPH", "dateTime": 1520649765462}, {"current_trial": 190, "trialdata": {"rt": -1, "trial_type": "single-stim", "word": "sunset", "stimulus": "<p id=\"stim\">SUNSET</p>", "conditions": [24, 800, "v", 24000], "internal_node_id": "0.0-136.0", "trial": 5, "time_elapsed": 930178, "serialpos": 5, "key_press": -1, "wordID": 1407, "type": "PRES_VIS", "trial_index": 190}, "uniqueid": "MTK3530:3DQQ64TANHS0CBQHJQ7FIRUHJI3WPH", "dateTime": 1520649767450}, {"current_trial": 191, "trialdata": {"rt": -1, "trial_type": "single-stim", "word": "stamp", "stimulus": "<p id=\"stim\">STAMP</p>", "conditions": [24, 800, "v", 24000], "internal_node_id": "0.0-137.0", "trial": 5, "time_elapsed": 931839, "serialpos": 6, "key_press": -1, "wordID": 1369, "type": "PRES_VIS", "trial_index": 191}, "uniqueid": "MTK3530:3DQQ64TANHS0CBQHJQ7FIRUHJI3WPH", "dateTime": 1520649769111}, {"current_trial": 192, "trialdata": {"rt": -1, "trial_type": "single-stim", "word": "temple", "stimulus": "<p id=\"stim\">TEMPLE</p>", "conditions": [24, 800, "v", 24000], "internal_node_id": "0.0-138.0", "trial": 5, "time_elapsed": 933692, "serialpos": 7, "key_press": -1, "wordID": 1447, "type": "PRES_VIS", "trial_index": 192}, "uniqueid": "MTK3530:3DQQ64TANHS0CBQHJQ7FIRUHJI3WPH", "dateTime": 1520649770964}, {"current_trial": 193, "trialdata": {"rt": -1, "trial_type": "single-stim", "word": "wagon", "stimulus": "<p id=\"stim\">WAGON</p>", "conditions": [24, 800, "v", 24000], "internal_node_id": "0.0-139.0", "trial": 5, "time_elapsed": 935315, "serialpos": 8, "key_press": -1, "wordID": 1577, "type": "PRES_VIS", "trial_index": 193}, "uniqueid": "MTK3530:3DQQ64TANHS0CBQHJQ7FIRUHJI3WPH", "dateTime": 1520649772587}, {"current_trial": 194, "trialdata": {"rt": -1, "trial_type": "single-stim", "word": "perch", "stimulus": "<p id=\"stim\">PERCH</p>", "conditions": [24, 800, "v", 24000], "internal_node_id": "0.0-140.0", "trial": 5, "time_elapsed": 937077, "serialpos": 9, "key_press": -1, "wordID": 1047, "type": "PRES_VIS", "trial_index": 194}, "uniqueid": "MTK3530:3DQQ64TANHS0CBQHJQ7FIRUHJI3WPH", "dateTime": 1520649774349}, {"current_trial": 195, "trialdata": {"rt": -1, "trial_type": "single-stim", "word": "fox", "stimulus": "<p id=\"stim\">FOX</p>", "conditions": [24, 800, "v", 24000], "internal_node_id": "0.0-141.0", "trial": 5, "time_elapsed": 939051, "serialpos": 10, "key_press": -1, "wordID": 597, "type": "PRES_VIS", "trial_index": 195}, "uniqueid": "MTK3530:3DQQ64TANHS0CBQHJQ7FIRUHJI3WPH", "dateTime": 1520649776323}, {"current_trial": 196, "trialdata": {"rt": -1, "trial_type": "single-stim", "word": "pigeon", "stimulus": "<p id=\"stim\">PIGEON</p>", "conditions": [24, 800, "v", 24000], "internal_node_id": "0.0-142.0", "trial": 5, "time_elapsed": 940847, "serialpos": 11, "key_press": -1, "wordID": 1064, "type": "PRES_VIS", "trial_index": 196}, "uniqueid": "MTK3530:3DQQ64TANHS0CBQHJQ7FIRUHJI3WPH", "dateTime": 1520649778119}, {"current_trial": 197, "trialdata": {"rt": -1, "trial_type": "single-stim", "word": "eyelash", "stimulus": "<p id=\"stim\">EYELASH</p>", "conditions": [24, 800, "v", 24000], "internal_node_id": "0.0-143.0", "trial": 5, "time_elapsed": 942722, "serialpos": 12, "key_press": -1, "wordID": 545, "type": "PRES_VIS", "trial_index": 197}, "uniqueid": "MTK3530:3DQQ64TANHS0CBQHJQ7FIRUHJI3WPH", "dateTime": 1520649779994}, {"current_trial": 198, "trialdata": {"rt": -1, "trial_type": "single-stim", "word": "tile", "stimulus": "<p id=\"stim\">TILE</p>", "conditions": [24, 800, "v", 24000], "internal_node_id": "0.0-144.0", "trial": 5, "time_elapsed": 944422, "serialpos": 13, "key_press": -1, "wordID": 1467, "type": "PRES_VIS", "trial_index": 198}, "uniqueid": "MTK3530:3DQQ64TANHS0CBQHJQ7FIRUHJI3WPH", "dateTime": 1520649781694}, {"current_trial": 199, "trialdata": {"rt": -1, "trial_type": "single-stim", "word": "honey", "stimulus": "<p id=\"stim\">HONEY</p>", "conditions": [24, 800, "v", 24000], "internal_node_id": "0.0-145.0", "trial": 5, "time_elapsed": 946123, "serialpos": 14, "key_press": -1, "wordID": 712, "type": "PRES_VIS", "trial_index": 199}, "uniqueid": "MTK3530:3DQQ64TANHS0CBQHJQ7FIRUHJI3WPH", "dateTime": 1520649783395}, {"current_trial": 200, "trialdata": {"rt": -1, "trial_type": "single-stim", "word": "monster", "stimulus": "<p id=\"stim\">MONSTER</p>", "conditions": [24, 800, "v", 24000], "internal_node_id": "0.0-146.0", "trial": 5, "time_elapsed": 947928, "serialpos": 15, "key_press": -1, "wordID": 911, "type": "PRES_VIS", "trial_index": 200}, "uniqueid": "MTK3530:3DQQ64TANHS0CBQHJQ7FIRUHJI3WPH", "dateTime": 1520649785200}, {"current_trial": 201, "trialdata": {"rt": -1, "trial_type": "single-stim", "word": "cyclone", "stimulus": "<p id=\"stim\">CYCLONE</p>", "conditions": [24, 800, "v", 24000], "internal_node_id": "0.0-147.0", "trial": 5, "time_elapsed": 949796, "serialpos": 16, "key_press": -1, "wordID": 430, "type": "PRES_VIS", "trial_index": 201}, "uniqueid": "MTK3530:3DQQ64TANHS0CBQHJQ7FIRUHJI3WPH", "dateTime": 1520649787068}, {"current_trial": 202, "trialdata": {"rt": -1, "trial_type": "single-stim", "word": "lily", "stimulus": "<p id=\"stim\">LILY</p>", "conditions": [24, 800, "v", 24000], "internal_node_id": "0.0-148.0", "trial": 5, "time_elapsed": 951468, "serialpos": 17, "key_press": -1, "wordID": 820, "type": "PRES_VIS", "trial_index": 202}, "uniqueid": "MTK3530:3DQQ64TANHS0CBQHJQ7FIRUHJI3WPH", "dateTime": 1520649788740}, {"current_trial": 203, "trialdata": {"rt": -1, "trial_type": "single-stim", "word": "milk", "stimulus": "<p id=\"stim\">MILK</p>", "conditions": [24, 800, "v", 24000], "internal_node_id": "0.0-149.0", "trial": 5, "time_elapsed": 953099, "serialpos": 18, "key_press": -1, "wordID": 894, "type": "PRES_VIS", "trial_index": 203}, "uniqueid": "MTK3530:3DQQ64TANHS0CBQHJQ7FIRUHJI3WPH", "dateTime": 1520649790371}, {"current_trial": 204, "trialdata": {"rt": -1, "trial_type": "single-stim", "word": "clam", "stimulus": "<p id=\"stim\">CLAM</p>", "conditions": [24, 800, "v", 24000], "internal_node_id": "0.0-150.0", "trial": 5, "time_elapsed": 955051, "serialpos": 19, "key_press": -1, "wordID": 314, "type": "PRES_VIS", "trial_index": 204}, "uniqueid": "MTK3530:3DQQ64TANHS0CBQHJQ7FIRUHJI3WPH", "dateTime": 1520649792323}, {"current_trial": 205, "trialdata": {"rt": -1, "trial_type": "single-stim", "word": "oyster", "stimulus": "<p id=\"stim\">OYSTER</p>", "conditions": [24, 800, "v", 24000], "internal_node_id": "0.0-151.0", "trial": 5, "time_elapsed": 956897, "serialpos": 20, "key_press": -1, "wordID": 994, "type": "PRES_VIS", "trial_index": 205}, "uniqueid": "MTK3530:3DQQ64TANHS0CBQHJQ7FIRUHJI3WPH", "dateTime": 1520649794170}, {"current_trial": 206, "trialdata": {"rt": -1, "trial_type": "single-stim", "word": "shelf", "stimulus": "<p id=\"stim\">SHELF</p>", "conditions": [24, 800, "v", 24000], "internal_node_id": "0.0-152.0", "trial": 5, "time_elapsed": 958859, "serialpos": 21, "key_press": -1, "wordID": 1279, "type": "PRES_VIS", "trial_index": 206}, "uniqueid": "MTK3530:3DQQ64TANHS0CBQHJQ7FIRUHJI3WPH", "dateTime": 1520649796132}, {"current_trial": 207, "trialdata": {"rt": -1, "trial_type": "single-stim", "word": "nurse", "stimulus": "<p id=\"stim\">NURSE</p>", "conditions": [24, 800, "v", 24000], "internal_node_id": "0.0-153.0", "trial": 5, "time_elapsed": 960811, "serialpos": 22, "key_press": -1, "wordID": 962, "type": "PRES_VIS", "trial_index": 207}, "uniqueid": "MTK3530:3DQQ64TANHS0CBQHJQ7FIRUHJI3WPH", "dateTime": 1520649798083}, {"current_trial": 208, "trialdata": {"rt": -1, "trial_type": "single-stim", "word": "kitchen", "stimulus": "<p id=\"stim\">KITCHEN</p>", "conditions": [24, 800, "v", 24000], "internal_node_id": "0.0-154.0", "trial": 5, "time_elapsed": 962555, "serialpos": 23, "key_press": -1, "wordID": 777, "type": "PRES_VIS", "trial_index": 208}, "uniqueid": "MTK3530:3DQQ64TANHS0CBQHJQ7FIRUHJI3WPH", "dateTime": 1520649799827}, {"current_trial": 209, "trialdata": {"rt": -1, "trial_type": "single-stim", "stimulus": "", "internal_node_id": "0.0-155.0-0.0", "time_elapsed": 964955, "key_press": -1, "type": "PRE_RECALL_DELAY", "trial_index": 209}, "uniqueid": "MTK3530:3DQQ64TANHS0CBQHJQ7FIRUHJI3WPH", "dateTime": 1520649802227}, {"current_trial": 210, "trialdata": {"rt": -1000, "trial_type": "single-audio", "stimulus": "/static/audio/400Hz.wav", "internal_node_id": "0.0-156.0", "time_elapsed": 965458, "key_press": -1, "type": "PRE_RECALL_ALERT", "trial_index": 210}, "uniqueid": "MTK3530:3DQQ64TANHS0CBQHJQ7FIRUHJI3WPH", "dateTime": 1520649802730}, {"current_trial": 211, "trialdata": {"rt": [5680, 10179, 14489, 17784, 21328, 26589, 32962, 37580, 48717, 53703, 58660], "recwords": ["shelk", "nurse", "kitchen", "clam", "oyster", "cyclone", "tropical", "honey", "possom", "briefcase", "burglar"], "key_times": [2234, 2904, 3306, 4021, 5087, 5680, 8317, 8852, 9160, 9635, 9880, 10179, 11923, 12209, 12549, 13008, 13423, 13721, 14093, 14489, 15383, 15684, 16157, 16770, 17784, 18926, 19577, 19948, 20215, 20421, 20655, 21328, 22908, 23362, 24679, 25099, 25445, 25900, 26164, 26589, 27784, 28008, 29644, 30631, 31254, 31664, 32192, 32496, 32962, 35177, 35727, 36188, 36577, 36924, 37580, 46028, 46385, 46802, 47010, 47298, 47714, 47723, 48363, 48717, 50225, 50629, 50951, 51247, 51606, 52394, 52851, 53092, 53333, 53703, 55409, 56011, 56312, 56674, 57091, 57423, 57807, 58660], "trial_type": "free-recall", "conditions": [24, 800, "v", 24000], "internal_node_id": "0.0-157.0-0.0", "key_presses": [83, 72, 69, 76, 75, 32, 78, 85, 82, 83, 69, 32, 75, 73, 84, 67, 72, 69, 78, 32, 67, 76, 65, 77, 32, 79, 89, 83, 84, 69, 82, 32, 67, 89, 67, 76, 79, 78, 69, 32, 84, 82, 79, 80, 73, 67, 65, 76, 32, 72, 79, 78, 69, 89, 32, 80, 79, 83, 83, 79, 77, 75, 8, 32, 66, 82, 73, 69, 70, 67, 65, 83, 69, 32, 66, 85, 82, 71, 76, 65, 82, 32], "trial": 5, "time_elapsed": 1025460, "type": "FREE_RECALL", "trial_index": 211}, "uniqueid": "MTK3530:3DQQ64TANHS0CBQHJQ7FIRUHJI3WPH", "dateTime": 1520649862738}, {"current_trial": 212, "trialdata": {"rt": 2319, "trial_type": "text", "internal_node_id": "0.0-158.0", "time_elapsed": 1029789, "key_press": 32, "type": "INSTRUCTIONS", "trial_index": 212}, "uniqueid": "MTK3530:3DQQ64TANHS0CBQHJQ7FIRUHJI3WPH", "dateTime": 1520649867061}, {"current_trial": 213, "trialdata": {"rt": [3682, 5742, 8054, 10309, 12259, 14549, 17004, 19014, 20998, 22967], "trial_type": "math-distractor", "key_times": [2198, 2703, 3682, 5221, 5416, 5742, 7009, 7813, 8054, 9483, 10036, 10309, 11775, 12026, 12259, 13688, 14320, 14549, 16314, 16823, 17004, 18607, 18797, 19014, 20782, 20998, 22707, 22967], "responses": ["15", "22", "19", "10", "21", "16", "15", "22", "9", "8"], "num2": [1, 7, 6, 2, 7, 9, 5, 7, 4, 4, 3], "num3": [9, 6, 8, 6, 7, 4, 7, 9, 2, 3, 8], "conditions": [12, 800, "v", 24000], "internal_node_id": "0.0-159.0", "key_presses": [49, 53, 13, 50, 50, 13, 49, 57, 13, 49, 48, 13, 50, 49, 13, 49, 54, 13, 49, 53, 13, 50, 50, 13, 57, 13, 56, 13], "trial": 6, "time_elapsed": 1055795, "type": "DISTRACTOR", "trial_index": 213, "num1": [5, 9, 5, 2, 7, 3, 3, 6, 3, 1, 1]}, "uniqueid": "MTK3530:3DQQ64TANHS0CBQHJQ7FIRUHJI3WPH", "dateTime": 1520649893067}, {"current_trial": 214, "trialdata": {"rt": -1, "trial_type": "single-stim", "stimulus": "<p id=\"stim\">10</p>", "internal_node_id": "0.0-160.0-0.0", "time_elapsed": 1058797, "key_press": -1, "trial_index": 214}, "uniqueid": "MTK3530:3DQQ64TANHS0CBQHJQ7FIRUHJI3WPH", "dateTime": 1520649896069}, {"current_trial": 215, "trialdata": {"rt": -1, "trial_type": "single-stim", "stimulus": "<p id=\"stim\">9</p>", "internal_node_id": "0.0-160.0-1.0", "time_elapsed": 1059799, "key_press": -1, "trial_index": 215}, "uniqueid": "MTK3530:3DQQ64TANHS0CBQHJQ7FIRUHJI3WPH", "dateTime": 1520649897071}, {"current_trial": 216, "trialdata": {"rt": -1, "trial_type": "single-stim", "stimulus": "<p id=\"stim\">8</p>", "internal_node_id": "0.0-160.0-2.0", "time_elapsed": 1060802, "key_press": -1, "trial_index": 216}, "uniqueid": "MTK3530:3DQQ64TANHS0CBQHJQ7FIRUHJI3WPH", "dateTime": 1520649898074}, {"current_trial": 217, "trialdata": {"rt": -1, "trial_type": "single-stim", "stimulus": "<p id=\"stim\">7</p>", "internal_node_id": "0.0-160.0-3.0", "time_elapsed": 1061803, "key_press": -1, "trial_index": 217}, "uniqueid": "MTK3530:3DQQ64TANHS0CBQHJQ7FIRUHJI3WPH", "dateTime": 1520649899075}, {"current_trial": 218, "trialdata": {"rt": -1, "trial_type": "single-stim", "stimulus": "<p id=\"stim\">6</p>", "internal_node_id": "0.0-160.0-4.0", "time_elapsed": 1062804, "key_press": -1, "trial_index": 218}, "uniqueid": "MTK3530:3DQQ64TANHS0CBQHJQ7FIRUHJI3WPH", "dateTime": 1520649900076}, {"current_trial": 219, "trialdata": {"rt": -1, "trial_type": "single-stim", "stimulus": "<p id=\"stim\">5</p>", "internal_node_id": "0.0-160.0-5.0", "time_elapsed": 1063805, "key_press": -1, "trial_index": 219}, "uniqueid": "MTK3530:3DQQ64TANHS0CBQHJQ7FIRUHJI3WPH", "dateTime": 1520649901077}, {"current_trial": 220, "trialdata": {"rt": -1, "trial_type": "single-stim", "stimulus": "<p id=\"stim\">4</p>", "internal_node_id": "0.0-160.0-6.0", "time_elapsed": 1064807, "key_press": -1, "trial_index": 220}, "uniqueid": "MTK3530:3DQQ64TANHS0CBQHJQ7FIRUHJI3WPH", "dateTime": 1520649902079}, {"current_trial": 221, "trialdata": {"rt": -1, "trial_type": "single-stim", "stimulus": "<p id=\"stim\">3</p>", "internal_node_id": "0.0-160.0-7.0", "time_elapsed": 1065809, "key_press": -1, "trial_index": 221}, "uniqueid": "MTK3530:3DQQ64TANHS0CBQHJQ7FIRUHJI3WPH", "dateTime": 1520649903081}, {"current_trial": 222, "trialdata": {"rt": -1, "trial_type": "single-stim", "stimulus": "<p id=\"stim\">2</p>", "internal_node_id": "0.0-160.0-8.0", "time_elapsed": 1066811, "key_press": -1, "trial_index": 222}, "uniqueid": "MTK3530:3DQQ64TANHS0CBQHJQ7FIRUHJI3WPH", "dateTime": 1520649904083}, {"current_trial": 223, "trialdata": {"rt": -1, "trial_type": "single-stim", "stimulus": "<p id=\"stim\">1</p>", "internal_node_id": "0.0-160.0-9.0", "time_elapsed": 1067813, "key_press": -1, "trial_index": 223}, "uniqueid": "MTK3530:3DQQ64TANHS0CBQHJQ7FIRUHJI3WPH", "dateTime": 1520649905085}, {"current_trial": 224, "trialdata": {"rt": -1, "trial_type": "single-stim", "stimulus": "<p id=\"stim\">+</p>", "internal_node_id": "0.0-161.0-0.0", "time_elapsed": 1069316, "key_press": -1, "type": "FIXATION", "trial_index": 224}, "uniqueid": "MTK3530:3DQQ64TANHS0CBQHJQ7FIRUHJI3WPH", "dateTime": 1520649906588}, {"current_trial": 225, "trialdata": {"rt": -1, "trial_type": "single-stim", "word": "zebra", "stimulus": "<p id=\"stim\">ZEBRA</p>", "conditions": [12, 800, "v", 24000], "internal_node_id": "0.0-162.0", "trial": 6, "time_elapsed": 1070117, "serialpos": 0, "key_press": -1, "wordID": 1634, "type": "PRES_VIS", "trial_index": 225}, "uniqueid": "MTK3530:3DQQ64TANHS0CBQHJQ7FIRUHJI3WPH", "dateTime": 1520649907389}, {"current_trial": 226, "trialdata": {"rt": -1, "trial_type": "single-stim", "word": "spider", "stimulus": "<p id=\"stim\">SPIDER</p>", "conditions": [12, 800, "v", 24000], "internal_node_id": "0.0-163.0", "trial": 6, "time_elapsed": 1072116, "serialpos": 1, "key_press": -1, "wordID": 1350, "type": "PRES_VIS", "trial_index": 226}, "uniqueid": "MTK3530:3DQQ64TANHS0CBQHJQ7FIRUHJI3WPH", "dateTime": 1520649909388}, {"current_trial": 227, "trialdata": {"rt": -1, "trial_type": "single-stim", "word": "cousin", "stimulus": "<p id=\"stim\">COUSIN</p>", "conditions": [12, 800, "v", 24000], "internal_node_id": "0.0-164.0", "trial": 6, "time_elapsed": 1073781, "serialpos": 2, "key_press": -1, "wordID": 391, "type": "PRES_VIS", "trial_index": 227}, "uniqueid": "MTK3530:3DQQ64TANHS0CBQHJQ7FIRUHJI3WPH", "dateTime": 1520649911053}, {"current_trial": 228, "trialdata": {"rt": -1, "trial_type": "single-stim", "word": "drawing", "stimulus": "<p id=\"stim\">DRAWING</p>", "conditions": [12, 800, "v", 24000], "internal_node_id": "0.0-165.0", "trial": 6, "time_elapsed": 1075546, "serialpos": 3, "key_press": -1, "wordID": 493, "type": "PRES_VIS", "trial_index": 228}, "uniqueid": "MTK3530:3DQQ64TANHS0CBQHJQ7FIRUHJI3WPH", "dateTime": 1520649912818}, {"current_trial": 229, "trialdata": {"rt": -1, "trial_type": "single-stim", "word": "stallion", "stimulus": "<p id=\"stim\">STALLION</p>", "conditions": [12, 800, "v", 24000], "internal_node_id": "0.0-166.0", "trial": 6, "time_elapsed": 1077181, "serialpos": 4, "key_press": -1, "wordID": 1368, "type": "PRES_VIS", "trial_index": 229}, "uniqueid": "MTK3530:3DQQ64TANHS0CBQHJQ7FIRUHJI3WPH", "dateTime": 1520649914453}, {"current_trial": 230, "trialdata": {"rt": -1, "trial_type": "single-stim", "word": "server", "stimulus": "<p id=\"stim\">SERVER</p>", "conditions": [12, 800, "v", 24000], "internal_node_id": "0.0-167.0", "trial": 6, "time_elapsed": 1079056, "serialpos": 5, "key_press": -1, "wordID": 1271, "type": "PRES_VIS", "trial_index": 230}, "uniqueid": "MTK3530:3DQQ64TANHS0CBQHJQ7FIRUHJI3WPH", "dateTime": 1520649916328}, {"current_trial": 231, "trialdata": {"rt": -1, "trial_type": "single-stim", "word": "robber", "stimulus": "<p id=\"stim\">ROBBER</p>", "conditions": [12, 800, "v", 24000], "internal_node_id": "0.0-168.0", "trial": 6, "time_elapsed": 1080703, "serialpos": 6, "key_press": -1, "wordID": 1196, "type": "PRES_VIS", "trial_index": 231}, "uniqueid": "MTK3530:3DQQ64TANHS0CBQHJQ7FIRUHJI3WPH", "dateTime": 1520649917976}, {"current_trial": 232, "trialdata": {"rt": -1, "trial_type": "single-stim", "word": "widow", "stimulus": "<p id=\"stim\">WIDOW</p>", "conditions": [12, 800, "v", 24000], "internal_node_id": "0.0-169.0", "trial": 6, "time_elapsed": 1082471, "serialpos": 7, "key_press": -1, "wordID": 1607, "type": "PRES_VIS", "trial_index": 232}, "uniqueid": "MTK3530:3DQQ64TANHS0CBQHJQ7FIRUHJI3WPH", "dateTime": 1520649919743}, {"current_trial": 233, "trialdata": {"rt": -1, "trial_type": "single-stim", "word": "daughter", "stimulus": "<p id=\"stim\">DAUGHTER</p>", "conditions": [12, 800, "v", 24000], "internal_node_id": "0.0-170.0", "trial": 6, "time_elapsed": 1084384, "serialpos": 8, "key_press": -1, "wordID": 441, "type": "PRES_VIS", "trial_index": 233}, "uniqueid": "MTK3530:3DQQ64TANHS0CBQHJQ7FIRUHJI3WPH", "dateTime": 1520649921656}, {"current_trial": 234, "trialdata": {"rt": -1, "trial_type": "single-stim", "word": "thief", "stimulus": "<p id=\"stim\">THIEF</p>", "conditions": [12, 800, "v", 24000], "internal_node_id": "0.0-171.0", "trial": 6, "time_elapsed": 1086081, "serialpos": 9, "key_press": -1, "wordID": 1455, "type": "PRES_VIS", "trial_index": 234}, "uniqueid": "MTK3530:3DQQ64TANHS0CBQHJQ7FIRUHJI3WPH", "dateTime": 1520649923355}, {"current_trial": 235, "trialdata": {"rt": -1, "trial_type": "single-stim", "word": "body", "stimulus": "<p id=\"stim\">BODY</p>", "conditions": [12, 800, "v", 24000], "internal_node_id": "0.0-172.0", "trial": 6, "time_elapsed": 1087817, "serialpos": 10, "key_press": -1, "wordID": 144, "type": "PRES_VIS", "trial_index": 235}, "uniqueid": "MTK3530:3DQQ64TANHS0CBQHJQ7FIRUHJI3WPH", "dateTime": 1520649925089}, {"current_trial": 236, "trialdata": {"rt": -1, "trial_type": "single-stim", "word": "gallon", "stimulus": "<p id=\"stim\">GALLON</p>", "conditions": [12, 800, "v", 24000], "internal_node_id": "0.0-173.0", "trial": 6, "time_elapsed": 1089533, "serialpos": 11, "key_press": -1, "wordID": 617, "type": "PRES_VIS", "trial_index": 236}, "uniqueid": "MTK3530:3DQQ64TANHS0CBQHJQ7FIRUHJI3WPH", "dateTime": 1520649926805}, {"current_trial": 237, "trialdata": {"rt": -1, "trial_type": "single-stim", "stimulus": "", "internal_node_id": "0.0-174.0-0.0", "time_elapsed": 1091853, "key_press": -1, "type": "PRE_RECALL_DELAY", "trial_index": 237}, "uniqueid": "MTK3530:3DQQ64TANHS0CBQHJQ7FIRUHJI3WPH", "dateTime": 1520649929125}, {"current_trial": 238, "trialdata": {"rt": -1000, "trial_type": "single-audio", "stimulus": "/static/audio/400Hz.wav", "internal_node_id": "0.0-175.0", "time_elapsed": 1092362, "key_press": -1, "type": "PRE_RECALL_ALERT", "trial_index": 238}, "uniqueid": "MTK3530:3DQQ64TANHS0CBQHJQ7FIRUHJI3WPH", "dateTime": 1520649929634}, {"current_trial": 239, "trialdata": {"rt": [3786, 6319, 10249, 14292, 22543], "recwords": ["thief", "body", "gallon", "robber", "zebra"], "key_times": [1263, 1666, 1970, 2832, 3116, 3786, 4609, 5186, 5577, 6017, 6319, 7363, 7686, 8076, 8286, 9149, 9648, 10249, 12196, 12559, 13145, 13378, 13636, 13866, 14292, 19675, 20272, 20862, 21171, 22052, 22543], "trial_type": "free-recall", "conditions": [12, 800, "v", 24000], "internal_node_id": "0.0-176.0-0.0", "key_presses": [84, 72, 73, 69, 70, 32, 66, 79, 68, 89, 32, 71, 65, 76, 76, 79, 78, 32, 82, 79, 66, 66, 69, 82, 32, 90, 69, 66, 82, 65, 32], "trial": 6, "time_elapsed": 1152365, "type": "FREE_RECALL", "trial_index": 239}, "uniqueid": "MTK3530:3DQQ64TANHS0CBQHJQ7FIRUHJI3WPH", "dateTime": 1520649989645}, {"current_trial": 240, "trialdata": {"rt": 1824, "trial_type": "text", "internal_node_id": "0.0-177.0", "time_elapsed": 1156198, "key_press": 32, "type": "INSTRUCTIONS", "trial_index": 240}, "uniqueid": "MTK3530:3DQQ64TANHS0CBQHJQ7FIRUHJI3WPH", "dateTime": 1520649993470}, {"current_trial": 241, "trialdata": {"rt": [3363, 5541, 7533, 9428, 11587], "trial_type": "math-distractor", "key_times": [1949, 2563, 3363, 5033, 5344, 5541, 7301, 7533, 9208, 9428, 10785, 11352, 11587], "responses": ["20", "21", "5", "7", "18"], "num2": [7, 9, 2, 1, 3, 7], "num3": [4, 7, 2, 3, 8, 6], "conditions": [24, 800, "v", 12000], "internal_node_id": "0.0-178.0", "key_presses": [50, 48, 13, 50, 49, 13, 53, 13, 55, 13, 49, 56, 13], "trial": 7, "time_elapsed": 1170203, "type": "DISTRACTOR", "trial_index": 241, "num1": [9, 5, 1, 3, 7, 2]}, "uniqueid": "MTK3530:3DQQ64TANHS0CBQHJQ7FIRUHJI3WPH", "dateTime": 1520650007475}, {"current_trial": 242, "trialdata": {"rt": -1, "trial_type": "single-stim", "stimulus": "<p id=\"stim\">10</p>", "internal_node_id": "0.0-179.0-0.0", "time_elapsed": 1173204, "key_press": -1, "trial_index": 242}, "uniqueid": "MTK3530:3DQQ64TANHS0CBQHJQ7FIRUHJI3WPH", "dateTime": 1520650010476}, {"current_trial": 243, "trialdata": {"rt": -1, "trial_type": "single-stim", "stimulus": "<p id=\"stim\">9</p>", "internal_node_id": "0.0-179.0-1.0", "time_elapsed": 1174206, "key_press": -1, "trial_index": 243}, "uniqueid": "MTK3530:3DQQ64TANHS0CBQHJQ7FIRUHJI3WPH", "dateTime": 1520650011478}, {"current_trial": 244, "trialdata": {"rt": -1, "trial_type": "single-stim", "stimulus": "<p id=\"stim\">8</p>", "internal_node_id": "0.0-179.0-2.0", "time_elapsed": 1175207, "key_press": -1, "trial_index": 244}, "uniqueid": "MTK3530:3DQQ64TANHS0CBQHJQ7FIRUHJI3WPH", "dateTime": 1520650012479}, {"current_trial": 245, "trialdata": {"rt": -1, "trial_type": "single-stim", "stimulus": "<p id=\"stim\">7</p>", "internal_node_id": "0.0-179.0-3.0", "time_elapsed": 1176210, "key_press": -1, "trial_index": 245}, "uniqueid": "MTK3530:3DQQ64TANHS0CBQHJQ7FIRUHJI3WPH", "dateTime": 1520650013482}, {"current_trial": 246, "trialdata": {"rt": -1, "trial_type": "single-stim", "stimulus": "<p id=\"stim\">6</p>", "internal_node_id": "0.0-179.0-4.0", "time_elapsed": 1177212, "key_press": -1, "trial_index": 246}, "uniqueid": "MTK3530:3DQQ64TANHS0CBQHJQ7FIRUHJI3WPH", "dateTime": 1520650014484}, {"current_trial": 247, "trialdata": {"rt": -1, "trial_type": "single-stim", "stimulus": "<p id=\"stim\">5</p>", "internal_node_id": "0.0-179.0-5.0", "time_elapsed": 1178214, "key_press": -1, "trial_index": 247}, "uniqueid": "MTK3530:3DQQ64TANHS0CBQHJQ7FIRUHJI3WPH", "dateTime": 1520650015486}, {"current_trial": 248, "trialdata": {"rt": -1, "trial_type": "single-stim", "stimulus": "<p id=\"stim\">4</p>", "internal_node_id": "0.0-179.0-6.0", "time_elapsed": 1179216, "key_press": -1, "trial_index": 248}, "uniqueid": "MTK3530:3DQQ64TANHS0CBQHJQ7FIRUHJI3WPH", "dateTime": 1520650016488}, {"current_trial": 249, "trialdata": {"rt": -1, "trial_type": "single-stim", "stimulus": "<p id=\"stim\">3</p>", "internal_node_id": "0.0-179.0-7.0", "time_elapsed": 1180218, "key_press": -1, "trial_index": 249}, "uniqueid": "MTK3530:3DQQ64TANHS0CBQHJQ7FIRUHJI3WPH", "dateTime": 1520650017490}, {"current_trial": 250, "trialdata": {"rt": -1, "trial_type": "single-stim", "stimulus": "<p id=\"stim\">2</p>", "internal_node_id": "0.0-179.0-8.0", "time_elapsed": 1181220, "key_press": -1, "trial_index": 250}, "uniqueid": "MTK3530:3DQQ64TANHS0CBQHJQ7FIRUHJI3WPH", "dateTime": 1520650018492}, {"current_trial": 251, "trialdata": {"rt": -1, "trial_type": "single-stim", "stimulus": "<p id=\"stim\">1</p>", "internal_node_id": "0.0-179.0-9.0", "time_elapsed": 1182220, "key_press": -1, "trial_index": 251}, "uniqueid": "MTK3530:3DQQ64TANHS0CBQHJQ7FIRUHJI3WPH", "dateTime": 1520650019492}, {"current_trial": 252, "trialdata": {"rt": -1, "trial_type": "single-stim", "stimulus": "<p id=\"stim\">+</p>", "internal_node_id": "0.0-180.0-0.0", "time_elapsed": 1183722, "key_press": -1, "type": "FIXATION", "trial_index": 252}, "uniqueid": "MTK3530:3DQQ64TANHS0CBQHJQ7FIRUHJI3WPH", "dateTime": 1520650020994}, {"current_trial": 253, "trialdata": {"rt": -1, "trial_type": "single-stim", "word": "donkey", "stimulus": "<p id=\"stim\">DONKEY</p>", "conditions": [24, 800, "v", 12000], "internal_node_id": "0.0-181.0", "trial": 7, "time_elapsed": 1184524, "serialpos": 0, "key_press": -1, "wordID": 483, "type": "PRES_VIS", "trial_index": 253}, "uniqueid": "MTK3530:3DQQ64TANHS0CBQHJQ7FIRUHJI3WPH", "dateTime": 1520650021797}, {"current_trial": 254, "trialdata": {"rt": -1, "trial_type": "single-stim", "word": "scarf", "stimulus": "<p id=\"stim\">SCARF</p>", "conditions": [24, 800, "v", 12000], "internal_node_id": "0.0-182.0", "trial": 7, "time_elapsed": 1186221, "serialpos": 1, "key_press": -1, "wordID": 1245, "type": "PRES_VIS", "trial_index": 254}, "uniqueid":