{"assignmentId": "37QW5D2ZRHTMZ2ARD4V3ZGW6N69S81", "workerId": "MTK3132", "questiondata": {"origin": "United States", "strat-rehearsal": "1", "marital": "Married/Domestic Partnership", "education": "Some college", "ethnicity": "Not Hispanic", "color_depth": 24, "distracted": "No", "wrote-notes": "Yes", "strat-other": "none", "screen_width": 1920, "avail_screen_width": 1920, "avail_screen_height": 1040, "strat-image": "24", "language": "English", "gender": "Female", "age": "50", "gender_other": "", "race": ["White"], "strat-categorize": "43", "pixel_depth": 24, "strat-spatial": "1", "strat-story": "27", "race_other": "", "screen_height": 1080}, "bonus": 0, "hitId": "3VMV5CHJZ8M0KXVUV07FCED6TFMGTZ", "counterbalance": 2728, "useragent": "Mozilla/5.0 (Windows NT 10.0; Win64; x64) AppleWebKit/537.36 (KHTML, like Gecko) Chrome/64.0.3282.167 Safari/537.36", "eventdata": [{"eventtype": "initialized", "interval": 0, "value": null, "timestamp": 1520040281934}, {"eventtype": "window_resize", "interval": 0, "value": [1922, 1035], "timestamp": 1520040281934}, {"eventtype": "focus", "interval": 2934756, "value": "off", "timestamp": 1520043216690}, {"eventtype": "focus", "interval": 14228, "value": "on", "timestamp": 1520043230918}], "data": [{"current_trial": 0, "trialdata": {"rt": 2595, "trial_type": "text", "internal_node_id": "0.0-0.0", "time_elapsed": 2598, "key_press": 32, "type": "INSTRUCTIONS", "trial_index": 0}, "uniqueid": "MTK3132:37QW5D2ZRHTMZ2ARD4V3ZGW6N69S81", "dateTime": 1520040285347}, {"current_trial": 1, "trialdata": {"rt": 63750, "trial_type": "text", "internal_node_id": "0.0-1.0", "time_elapsed": 66353, "key_press": 32, "type": "INSTRUCTIONS", "trial_index": 1}, "uniqueid": "MTK3132:37QW5D2ZRHTMZ2ARD4V3ZGW6N69S81", "dateTime": 1520040349100}, {"current_trial": 2, "trialdata": {"rt": [13616], "trial_type": "audio-test", "responses": ["ocean"], "internal_node_id": "0.0-2.0", "time_elapsed": 79991, "type": "AUDIO_TEST", "trial_index": 2}, "uniqueid": "MTK3132:37QW5D2ZRHTMZ2ARD4V3ZGW6N69S81", "dateTime": 1520040362738}, {"current_trial": 3, "trialdata": {"rt": [7101], "trial_type": "audio-test", "responses": ["crystal"], "internal_node_id": "0.0-3.0", "time_elapsed": 87097, "type": "AUDIO_TEST", "trial_index": 3}, "uniqueid": "MTK3132:37QW5D2ZRHTMZ2ARD4V3ZGW6N69S81", "dateTime": 1520040369844}, {"current_trial": 4, "trialdata": {"rt": [7748], "trial_type": "audio-test", "responses": ["spice"], "internal_node_id": "0.0-4.0", "time_elapsed": 94847, "type": "AUDIO_TEST", "trial_index": 4}, "uniqueid": "MTK3132:37QW5D2ZRHTMZ2ARD4V3ZGW6N69S81", "dateTime": 1520040377594}, {"current_trial": 5, "trialdata": {"rt": 42993, "trial_type": "survey-text", "responses": "{\"Q0\":\"11\",\"Q1\":\"7\",\"Q2\":\"5\"}", "internal_node_id": "0.0-5.0", "time_elapsed": 138594, "type": "SLEEP_SURVEY", "trial_index": 5}, "uniqueid": "MTK3132:37QW5D2ZRHTMZ2ARD4V3ZGW6N69S81", "dateTime": 1520040421341}, {"current_trial": 6, "trialdata": {"rt": 49412, "trial_type": "text", "internal_node_id": "0.0-6.0", "time_elapsed": 189008, "key_press": 32, "type": "INSTRUCTIONS", "trial_index": 6}, "uniqueid": "MTK3132:37QW5D2ZRHTMZ2ARD4V3ZGW6N69S81", "dateTime": 1520040471756}, {"current_trial": 7, "trialdata": {"rt": 22088, "trial_type": "text", "internal_node_id": "0.0-7.0", "time_elapsed": 211601, "key_press": 32, "type": "INSTRUCTIONS", "trial_index": 7}, "uniqueid": "MTK3132:37QW5D2ZRHTMZ2ARD4V3ZGW6N69S81", "dateTime": 1520040494348}, {"current_trial": 8, "trialdata": {"rt": 11936, "trial_type": "text", "internal_node_id": "0.0-8.0", "time_elapsed": 224039, "key_press": 32, "type": "INSTRUCTIONS", "trial_index": 8}, "uniqueid": "MTK3132:37QW5D2ZRHTMZ2ARD4V3ZGW6N69S81", "dateTime": 1520040506786}, {"current_trial": 9, "trialdata": {"rt": [10627, 13150, 15339, 17887], "trial_type": "math-distractor", "key_times": [9797, 9983, 10627, 12746, 12937, 13150, 15026, 15128, 15339, 17422, 17673, 17887], "responses": ["21", "13", "20", "11"], "num2": [9, 8, 8, 2, 2], "num3": [4, 4, 8, 2, 7], "conditions": [18, 1200, "v", 18000], "internal_node_id": "0.0-9.0", "key_presses": [50, 49, 13, 49, 51, 13, 50, 48, 13, 49, 49, 13], "trial": 0, "time_elapsed": 243050, "type": "DISTRACTOR", "trial_index": 9, "num1": [8, 1, 4, 7, 7]}, "uniqueid": "MTK3132:37QW5D2ZRHTMZ2ARD4V3ZGW6N69S81", "dateTime": 1520040525798}, {"current_trial": 10, "trialdata": {"rt": -1, "trial_type": "single-stim", "stimulus": "<p id=\"stim\">10</p>", "internal_node_id": "0.0-10.0-0.0", "time_elapsed": 246055, "key_press": -1, "trial_index": 10}, "uniqueid": "MTK3132:37QW5D2ZRHTMZ2ARD4V3ZGW6N69S81", "dateTime": 1520040528802}, {"current_trial": 11, "trialdata": {"rt": -1, "trial_type": "single-stim", "stimulus": "<p id=\"stim\">9</p>", "internal_node_id": "0.0-10.0-1.0", "time_elapsed": 247057, "key_press": -1, "trial_index": 11}, "uniqueid": "MTK3132:37QW5D2ZRHTMZ2ARD4V3ZGW6N69S81", "dateTime": 1520040529805}, {"current_trial": 12, "trialdata": {"rt": -1, "trial_type": "single-stim", "stimulus": "<p id=\"stim\">8</p>", "internal_node_id": "0.0-10.0-2.0", "time_elapsed": 248059, "key_press": -1, "trial_index": 12}, "uniqueid": "MTK3132:37QW5D2ZRHTMZ2ARD4V3ZGW6N69S81", "dateTime": 1520040530806}, {"current_trial": 13, "trialdata": {"rt": -1, "trial_type": "single-stim", "stimulus": "<p id=\"stim\">7</p>", "internal_node_id": "0.0-10.0-3.0", "time_elapsed": 249062, "key_press": -1, "trial_index": 13}, "uniqueid": "MTK3132:37QW5D2ZRHTMZ2ARD4V3ZGW6N69S81", "dateTime": 1520040531809}, {"current_trial": 14, "trialdata": {"rt": -1, "trial_type": "single-stim", "stimulus": "<p id=\"stim\">6</p>", "internal_node_id": "0.0-10.0-4.0", "time_elapsed": 250065, "key_press": -1, "trial_index": 14}, "uniqueid": "MTK3132:37QW5D2ZRHTMZ2ARD4V3ZGW6N69S81", "dateTime": 1520040532812}, {"current_trial": 15, "trialdata": {"rt": -1, "trial_type": "single-stim", "stimulus": "<p id=\"stim\">5</p>", "internal_node_id": "0.0-10.0-5.0", "time_elapsed": 251067, "key_press": -1, "trial_index": 15}, "uniqueid": "MTK3132:37QW5D2ZRHTMZ2ARD4V3ZGW6N69S81", "dateTime": 1520040533814}, {"current_trial": 16, "trialdata": {"rt": -1, "trial_type": "single-stim", "stimulus": "<p id=\"stim\">4</p>", "internal_node_id": "0.0-10.0-6.0", "time_elapsed": 252071, "key_press": -1, "trial_index": 16}, "uniqueid": "MTK3132:37QW5D2ZRHTMZ2ARD4V3ZGW6N69S81", "dateTime": 1520040534818}, {"current_trial": 17, "trialdata": {"rt": -1, "trial_type": "single-stim", "stimulus": "<p id=\"stim\">3</p>", "internal_node_id": "0.0-10.0-7.0", "time_elapsed": 253075, "key_press": -1, "trial_index": 17}, "uniqueid": "MTK3132:37QW5D2ZRHTMZ2ARD4V3ZGW6N69S81", "dateTime": 1520040535822}, {"current_trial": 18, "trialdata": {"rt": -1, "trial_type": "single-stim", "stimulus": "<p id=\"stim\">2</p>", "internal_node_id": "0.0-10.0-8.0", "time_elapsed": 254077, "key_press": -1, "trial_index": 18}, "uniqueid": "MTK3132:37QW5D2ZRHTMZ2ARD4V3ZGW6N69S81", "dateTime": 1520040536824}, {"current_trial": 19, "trialdata": {"rt": -1, "trial_type": "single-stim", "stimulus": "<p id=\"stim\">1</p>", "internal_node_id": "0.0-10.0-9.0", "time_elapsed": 255079, "key_press": -1, "trial_index": 19}, "uniqueid": "MTK3132:37QW5D2ZRHTMZ2ARD4V3ZGW6N69S81", "dateTime": 1520040537826}, {"current_trial": 20, "trialdata": {"rt": -1, "trial_type": "single-stim", "stimulus": "<p id=\"stim\">+</p>", "internal_node_id": "0.0-11.0-0.0", "time_elapsed": 256580, "key_press": -1, "type": "FIXATION", "trial_index": 20}, "uniqueid": "MTK3132:37QW5D2ZRHTMZ2ARD4V3ZGW6N69S81", "dateTime": 1520040539327}, {"current_trial": 21, "trialdata": {"rt": -1, "trial_type": "single-stim", "word": "hiker", "stimulus": "<p id=\"stim\">HIKER</p>", "conditions": [18, 1200, "v", 18000], "internal_node_id": "0.0-12.0", "trial": 0, "time_elapsed": 257782, "serialpos": 0, "key_press": -1, "wordID": 707, "type": "PRES_VIS", "trial_index": 21}, "uniqueid": "MTK3132:37QW5D2ZRHTMZ2ARD4V3ZGW6N69S81", "dateTime": 1520040540529}, {"current_trial": 22, "trialdata": {"rt": -1, "trial_type": "single-stim", "word": "author", "stimulus": "<p id=\"stim\">AUTHOR</p>", "conditions": [18, 1200, "v", 18000], "internal_node_id": "0.0-13.0", "trial": 0, "time_elapsed": 260167, "serialpos": 1, "key_press": -1, "wordID": 60, "type": "PRES_VIS", "trial_index": 22}, "uniqueid": "MTK3132:37QW5D2ZRHTMZ2ARD4V3ZGW6N69S81", "dateTime": 1520040542914}, {"current_trial": 23, "trialdata": {"rt": -1, "trial_type": "single-stim", "word": "flute", "stimulus": "<p id=\"stim\">FLUTE</p>", "conditions": [18, 1200, "v", 18000], "internal_node_id": "0.0-14.0", "trial": 0, "time_elapsed": 262353, "serialpos": 2, "key_press": -1, "wordID": 584, "type": "PRES_VIS", "trial_index": 23}, "uniqueid": "MTK3132:37QW5D2ZRHTMZ2ARD4V3ZGW6N69S81", "dateTime": 1520040545101}, {"current_trial": 24, "trialdata": {"rt": -1, "trial_type": "single-stim", "word": "apron", "stimulus": "<p id=\"stim\">APRON</p>", "conditions": [18, 1200, "v", 18000], "internal_node_id": "0.0-15.0", "trial": 0, "time_elapsed": 264435, "serialpos": 3, "key_press": -1, "wordID": 34, "type": "PRES_VIS", "trial_index": 24}, "uniqueid": "MTK3132:37QW5D2ZRHTMZ2ARD4V3ZGW6N69S81", "dateTime": 1520040547182}, {"current_trial": 25, "trialdata": {"rt": -1, "trial_type": "single-stim", "word": "bunny", "stimulus": "<p id=\"stim\">BUNNY</p>", "conditions": [18, 1200, "v", 18000], "internal_node_id": "0.0-16.0", "trial": 0, "time_elapsed": 266648, "serialpos": 4, "key_press": -1, "wordID": 197, "type": "PRES_VIS", "trial_index": 25}, "uniqueid": "MTK3132:37QW5D2ZRHTMZ2ARD4V3ZGW6N69S81", "dateTime": 1520040549396}, {"current_trial": 26, "trialdata": {"rt": -1, "trial_type": "single-stim", "word": "actor", "stimulus": "<p id=\"stim\">ACTOR</p>", "conditions": [18, 1200, "v", 18000], "internal_node_id": "0.0-17.0", "trial": 0, "time_elapsed": 268822, "serialpos": 5, "key_press": -1, "wordID": 4, "type": "PRES_VIS", "trial_index": 26}, "uniqueid": "MTK3132:37QW5D2ZRHTMZ2ARD4V3ZGW6N69S81", "dateTime": 1520040551569}, {"current_trial": 27, "trialdata": {"rt": -1, "trial_type": "single-stim", "word": "island", "stimulus": "<p id=\"stim\">ISLAND</p>", "conditions": [18, 1200, "v", 18000], "internal_node_id": "0.0-18.0", "trial": 0, "time_elapsed": 270882, "serialpos": 6, "key_press": -1, "wordID": 744, "type": "PRES_VIS", "trial_index": 27}, "uniqueid": "MTK3132:37QW5D2ZRHTMZ2ARD4V3ZGW6N69S81", "dateTime": 1520040553629}, {"current_trial": 28, "trialdata": {"rt": -1, "trial_type": "single-stim", "word": "flipper", "stimulus": "<p id=\"stim\">FLIPPER</p>", "conditions": [18, 1200, "v", 18000], "internal_node_id": "0.0-19.0", "trial": 0, "time_elapsed": 273039, "serialpos": 7, "key_press": -1, "wordID": 579, "type": "PRES_VIS", "trial_index": 28}, "uniqueid": "MTK3132:37QW5D2ZRHTMZ2ARD4V3ZGW6N69S81", "dateTime": 1520040555786}, {"current_trial": 29, "trialdata": {"rt": -1, "trial_type": "single-stim", "word": "jelly", "stimulus": "<p id=\"stim\">JELLY</p>", "conditions": [18, 1200, "v", 18000], "internal_node_id": "0.0-20.0", "trial": 0, "time_elapsed": 275170, "serialpos": 8, "key_press": -1, "wordID": 754, "type": "PRES_VIS", "trial_index": 29}, "uniqueid": "MTK3132:37QW5D2ZRHTMZ2ARD4V3ZGW6N69S81", "dateTime": 1520040557917}, {"current_trial": 30, "trialdata": {"rt": -1, "trial_type": "single-stim", "word": "plate", "stimulus": "<p id=\"stim\">PLATE</p>", "conditions": [18, 1200, "v", 18000], "internal_node_id": "0.0-21.0", "trial": 0, "time_elapsed": 277324, "serialpos": 9, "key_press": -1, "wordID": 1085, "type": "PRES_VIS", "trial_index": 30}, "uniqueid": "MTK3132:37QW5D2ZRHTMZ2ARD4V3ZGW6N69S81", "dateTime": 1520040560071}, {"current_trial": 31, "trialdata": {"rt": -1, "trial_type": "single-stim", "word": "patrol", "stimulus": "<p id=\"stim\">PATROL</p>", "conditions": [18, 1200, "v", 18000], "internal_node_id": "0.0-22.0", "trial": 0, "time_elapsed": 279527, "serialpos": 10, "key_press": -1, "wordID": 1026, "type": "PRES_VIS", "trial_index": 31}, "uniqueid": "MTK3132:37QW5D2ZRHTMZ2ARD4V3ZGW6N69S81", "dateTime": 1520040562275}, {"current_trial": 32, "trialdata": {"rt": -1, "trial_type": "single-stim", "word": "film", "stimulus": "<p id=\"stim\">FILM</p>", "conditions": [18, 1200, "v", 18000], "internal_node_id": "0.0-23.0", "trial": 0, "time_elapsed": 281674, "serialpos": 11, "key_press": -1, "wordID": 564, "type": "PRES_VIS", "trial_index": 32}, "uniqueid": "MTK3132:37QW5D2ZRHTMZ2ARD4V3ZGW6N69S81", "dateTime": 1520040564421}, {"current_trial": 33, "trialdata": {"rt": -1, "trial_type": "single-stim", "word": "husband", "stimulus": "<p id=\"stim\">HUSBAND</p>", "conditions": [18, 1200, "v", 18000], "internal_node_id": "0.0-24.0", "trial": 0, "time_elapsed": 283975, "serialpos": 12, "key_press": -1, "wordID": 727, "type": "PRES_VIS", "trial_index": 33}, "uniqueid": "MTK3132:37QW5D2ZRHTMZ2ARD4V3ZGW6N69S81", "dateTime": 1520040566722}, {"current_trial": 34, "trialdata": {"rt": -1, "trial_type": "single-stim", "word": "gallon", "stimulus": "<p id=\"stim\">GALLON</p>", "conditions": [18, 1200, "v", 18000], "internal_node_id": "0.0-25.0", "trial": 0, "time_elapsed": 285991, "serialpos": 13, "key_press": -1, "wordID": 617, "type": "PRES_VIS", "trial_index": 34}, "uniqueid": "MTK3132:37QW5D2ZRHTMZ2ARD4V3ZGW6N69S81", "dateTime": 1520040568738}, {"current_trial": 35, "trialdata": {"rt": -1, "trial_type": "single-stim", "word": "orchid", "stimulus": "<p id=\"stim\">ORCHID</p>", "conditions": [18, 1200, "v", 18000], "internal_node_id": "0.0-26.0", "trial": 0, "time_elapsed": 288084, "serialpos": 14, "key_press": -1, "wordID": 981, "type": "PRES_VIS", "trial_index": 35}, "uniqueid": "MTK3132:37QW5D2ZRHTMZ2ARD4V3ZGW6N69S81", "dateTime": 1520040570831}, {"current_trial": 36, "trialdata": {"rt": -1, "trial_type": "single-stim", "word": "shoulder", "stimulus": "<p id=\"stim\">SHOULDER</p>", "conditions": [18, 1200, "v", 18000], "internal_node_id": "0.0-27.0", "trial": 0, "time_elapsed": 290284, "serialpos": 15, "key_press": -1, "wordID": 1293, "type": "PRES_VIS", "trial_index": 36}, "uniqueid": "MTK3132:37QW5D2ZRHTMZ2ARD4V3ZGW6N69S81", "dateTime": 1520040573031}, {"current_trial": 37, "trialdata": {"rt": -1, "trial_type": "single-stim", "word": "pasta", "stimulus": "<p id=\"stim\">PASTA</p>", "conditions": [18, 1200, "v", 18000], "internal_node_id": "0.0-28.0", "trial": 0, "time_elapsed": 292486, "serialpos": 16, "key_press": -1, "wordID": 1020, "type": "PRES_VIS", "trial_index": 37}, "uniqueid": "MTK3132:37QW5D2ZRHTMZ2ARD4V3ZGW6N69S81", "dateTime": 1520040575234}, {"current_trial": 38, "trialdata": {"rt": -1, "trial_type": "single-stim", "word": "server", "stimulus": "<p id=\"stim\">SERVER</p>", "conditions": [18, 1200, "v", 18000], "internal_node_id": "0.0-29.0", "trial": 0, "time_elapsed": 294764, "serialpos": 17, "key_press": -1, "wordID": 1271, "type": "PRES_VIS", "trial_index": 38}, "uniqueid": "MTK3132:37QW5D2ZRHTMZ2ARD4V3ZGW6N69S81", "dateTime": 1520040577512}, {"current_trial": 39, "trialdata": {"rt": -1, "trial_type": "single-stim", "stimulus": "", "internal_node_id": "0.0-30.0-0.0", "time_elapsed": 297175, "key_press": -1, "type": "PRE_RECALL_DELAY", "trial_index": 39}, "uniqueid": "MTK3132:37QW5D2ZRHTMZ2ARD4V3ZGW6N69S81", "dateTime": 1520040579922}, {"current_trial": 40, "trialdata": {"rt": -1000, "trial_type": "single-audio", "stimulus": "/static/audio/400Hz.wav", "internal_node_id": "0.0-31.0", "time_elapsed": 297678, "key_press": -1, "type": "PRE_RECALL_ALERT", "trial_index": 40}, "uniqueid": "MTK3132:37QW5D2ZRHTMZ2ARD4V3ZGW6N69S81", "dateTime": 1520040580425}, {"current_trial": 41, "trialdata": {"rt": [4236, 5637, 8119, 12726, 15650, 16967, 42222], "recwords": ["husband", "server", "orchid", "jelly", "pasta", "plate", "horse"], "key_times": [3176, 3356, 3464, 3600, 3754, 3852, 3980, 4236, 4429, 4514, 4669, 5003, 5262, 5387, 5637, 7048, 7139, 7426, 7503, 7589, 7743, 8119, 11858, 12009, 12136, 12310, 12461, 12726, 15003, 15119, 15230, 15366, 15518, 15650, 16389, 16581, 16686, 16796, 16859, 16967, 41266, 41333, 41416, 41494, 41628, 42222], "trial_type": "free-recall", "conditions": [18, 1200, "v", 18000], "internal_node_id": "0.0-32.0-0.0", "key_presses": [72, 85, 83, 66, 65, 78, 68, 32, 83, 69, 82, 86, 69, 82, 32, 79, 82, 67, 72, 73, 68, 32, 74, 69, 76, 76, 89, 32, 80, 65, 83, 84, 65, 32, 80, 76, 65, 84, 69, 32, 72, 79, 82, 83, 69, 32], "trial": 0, "time_elapsed": 357684, "type": "FREE_RECALL", "trial_index": 41}, "uniqueid": "MTK3132:37QW5D2ZRHTMZ2ARD4V3ZGW6N69S81", "dateTime": 1520040640434}, {"current_trial": 42, "trialdata": {"rt": 2346, "trial_type": "text", "internal_node_id": "0.0-33.0", "time_elapsed": 362036, "key_press": 32, "type": "INSTRUCTIONS", "trial_index": 42}, "uniqueid": "MTK3132:37QW5D2ZRHTMZ2ARD4V3ZGW6N69S81", "dateTime": 1520040644783}, {"current_trial": 43, "trialdata": {"rt": [4214, 7032, 13167, 15731], "trial_type": "math-distractor", "key_times": [2805, 3830, 4214, 6658, 6743, 7032, 12536, 12714, 13167, 15413, 15506, 15731], "responses": ["20", "10", "16", "18"], "num2": [4, 1, 9, 6, 4], "num3": [7, 6, 3, 9, 8], "conditions": [18, 1200, "v", 18000], "internal_node_id": "0.0-34.0", "key_presses": [50, 48, 13, 49, 48, 13, 49, 54, 13, 49, 56, 13], "trial": 1, "time_elapsed": 382041, "type": "DISTRACTOR", "trial_index": 43, "num1": [9, 3, 4, 3, 9]}, "uniqueid": "MTK3132:37QW5D2ZRHTMZ2ARD4V3ZGW6N69S81", "dateTime": 1520040664788}, {"current_trial": 44, "trialdata": {"rt": -1, "trial_type": "single-stim", "stimulus": "<p id=\"stim\">10</p>", "internal_node_id": "0.0-35.0-0.0", "time_elapsed": 385044, "key_press": -1, "trial_index": 44}, "uniqueid": "MTK3132:37QW5D2ZRHTMZ2ARD4V3ZGW6N69S81", "dateTime": 1520040667791}, {"current_trial": 45, "trialdata": {"rt": -1, "trial_type": "single-stim", "stimulus": "<p id=\"stim\">9</p>", "internal_node_id": "0.0-35.0-1.0", "time_elapsed": 386046, "key_press": -1, "trial_index": 45}, "uniqueid": "MTK3132:37QW5D2ZRHTMZ2ARD4V3ZGW6N69S81", "dateTime": 1520040668793}, {"current_trial": 46, "trialdata": {"rt": -1, "trial_type": "single-stim", "stimulus": "<p id=\"stim\">8</p>", "internal_node_id": "0.0-35.0-2.0", "time_elapsed": 387049, "key_press": -1, "trial_index": 46}, "uniqueid": "MTK3132:37QW5D2ZRHTMZ2ARD4V3ZGW6N69S81", "dateTime": 1520040669796}, {"current_trial": 47, "trialdata": {"rt": -1, "trial_type": "single-stim", "stimulus": "<p id=\"stim\">7</p>", "internal_node_id": "0.0-35.0-3.0", "time_elapsed": 388050, "key_press": -1, "trial_index": 47}, "uniqueid": "MTK3132:37QW5D2ZRHTMZ2ARD4V3ZGW6N69S81", "dateTime": 1520040670797}, {"current_trial": 48, "trialdata": {"rt": -1, "trial_type": "single-stim", "stimulus": "<p id=\"stim\">6</p>", "internal_node_id": "0.0-35.0-4.0", "time_elapsed": 389053, "key_press": -1, "trial_index": 48}, "uniqueid": "MTK3132:37QW5D2ZRHTMZ2ARD4V3ZGW6N69S81", "dateTime": 1520040671800}, {"current_trial": 49, "trialdata": {"rt": -1, "trial_type": "single-stim", "stimulus": "<p id=\"stim\">5</p>", "internal_node_id": "0.0-35.0-5.0", "time_elapsed": 390054, "key_press": -1, "trial_index": 49}, "uniqueid": "MTK3132:37QW5D2ZRHTMZ2ARD4V3ZGW6N69S81", "dateTime": 1520040672802}, {"current_trial": 50, "trialdata": {"rt": -1, "trial_type": "single-stim", "stimulus": "<p id=\"stim\">4</p>", "internal_node_id": "0.0-35.0-6.0", "time_elapsed": 391056, "key_press": -1, "trial_index": 50}, "uniqueid": "MTK3132:37QW5D2ZRHTMZ2ARD4V3ZGW6N69S81", "dateTime": 1520040673804}, {"current_trial": 51, "trialdata": {"rt": -1, "trial_type": "single-stim", "stimulus": "<p id=\"stim\">3</p>", "internal_node_id": "0.0-35.0-7.0", "time_elapsed": 392059, "key_press": -1, "trial_index": 51}, "uniqueid": "MTK3132:37QW5D2ZRHTMZ2ARD4V3ZGW6N69S81", "dateTime": 1520040674806}, {"current_trial": 52, "trialdata": {"rt": -1, "trial_type": "single-stim", "stimulus": "<p id=\"stim\">2</p>", "internal_node_id": "0.0-35.0-8.0", "time_elapsed": 393061, "key_press": -1, "trial_index": 52}, "uniqueid": "MTK3132:37QW5D2ZRHTMZ2ARD4V3ZGW6N69S81", "dateTime": 1520040675808}, {"current_trial": 53, "trialdata": {"rt": -1, "trial_type": "single-stim", "stimulus": "<p id=\"stim\">1</p>", "internal_node_id": "0.0-35.0-9.0", "time_elapsed": 394063, "key_press": -1, "trial_index": 53}, "uniqueid": "MTK3132:37QW5D2ZRHTMZ2ARD4V3ZGW6N69S81", "dateTime": 1520040676810}, {"current_trial": 54, "trialdata": {"rt": -1, "trial_type": "single-stim", "stimulus": "<p id=\"stim\">+</p>", "internal_node_id": "0.0-36.0-0.0", "time_elapsed": 395566, "key_press": -1, "type": "FIXATION", "trial_index": 54}, "uniqueid": "MTK3132:37QW5D2ZRHTMZ2ARD4V3ZGW6N69S81", "dateTime": 1520040678314}, {"current_trial": 55, "trialdata": {"rt": -1, "trial_type": "single-stim", "word": "globe", "stimulus": "<p id=\"stim\">GLOBE</p>", "conditions": [18, 1200, "v", 18000], "internal_node_id": "0.0-37.0", "trial": 1, "time_elapsed": 396768, "serialpos": 0, "key_press": -1, "wordID": 640, "type": "PRES_VIS", "trial_index": 55}, "uniqueid": "MTK3132:37QW5D2ZRHTMZ2ARD4V3ZGW6N69S81", "dateTime": 1520040679515}, {"current_trial": 56, "trialdata": {"rt": -1, "trial_type": "single-stim", "word": "pork", "stimulus": "<p id=\"stim\">PORK</p>", "conditions": [18, 1200, "v", 18000], "internal_node_id": "0.0-38.0", "trial": 1, "time_elapsed": 399002, "serialpos": 1, "key_press": -1, "wordID": 1107, "type": "PRES_VIS", "trial_index": 56}, "uniqueid": "MTK3132:37QW5D2ZRHTMZ2ARD4V3ZGW6N69S81", "dateTime": 1520040681749}, {"current_trial": 57, "trialdata": {"rt": -1, "trial_type": "single-stim", "word": "braces", "stimulus": "<p id=\"stim\">BRACES</p>", "conditions": [18, 1200, "v", 18000], "internal_node_id": "0.0-39.0", "trial": 1, "time_elapsed": 401402, "serialpos": 2, "key_press": -1, "wordID": 163, "type": "PRES_VIS", "trial_index": 57}, "uniqueid": "MTK3132:37QW5D2ZRHTMZ2ARD4V3ZGW6N69S81", "dateTime": 1520040684149}, {"current_trial": 58, "trialdata": {"rt": -1, "trial_type": "single-stim", "word": "ox", "stimulus": "<p id=\"stim\">OX</p>", "conditions": [18, 1200, "v", 18000], "internal_node_id": "0.0-40.0", "trial": 1, "time_elapsed": 403561, "serialpos": 3, "key_press": -1, "wordID": 993, "type": "PRES_VIS", "trial_index": 58}, "uniqueid": "MTK3132:37QW5D2ZRHTMZ2ARD4V3ZGW6N69S81", "dateTime": 1520040686309}, {"current_trial": 59, "trialdata": {"rt": -1, "trial_type": "single-stim", "word": "boyfriend", "stimulus": "<p id=\"stim\">BOYFRIEND</p>", "conditions": [18, 1200, "v", 18000], "internal_node_id": "0.0-41.0", "trial": 1, "time_elapsed": 405891, "serialpos": 4, "key_press": -1, "wordID": 161, "type": "PRES_VIS", "trial_index": 59}, "uniqueid": "MTK3132:37QW5D2ZRHTMZ2ARD4V3ZGW6N69S81", "dateTime": 1520040688639}, {"current_trial": 60, "trialdata": {"rt": -1, "trial_type": "single-stim", "word": "seagull", "stimulus": "<p id=\"stim\">SEAGULL</p>", "conditions": [18, 1200, "v", 18000], "internal_node_id": "0.0-42.0", "trial": 1, "time_elapsed": 408247, "serialpos": 5, "key_press": -1, "wordID": 1260, "type": "PRES_VIS", "trial_index": 60}, "uniqueid": "MTK3132:37QW5D2ZRHTMZ2ARD4V3ZGW6N69S81", "dateTime": 1520040690994}, {"current_trial": 61, "trialdata": {"rt": -1, "trial_type": "single-stim", "word": "snake", "stimulus": "<p id=\"stim\">SNAKE</p>", "conditions": [18, 1200, "v", 18000], "internal_node_id": "0.0-43.0", "trial": 1, "time_elapsed": 410253, "serialpos": 6, "key_press": -1, "wordID": 1332, "type": "PRES_VIS", "trial_index": 61}, "uniqueid": "MTK3132:37QW5D2ZRHTMZ2ARD4V3ZGW6N69S81", "dateTime": 1520040693000}, {"current_trial": 62, "trialdata": {"rt": -1, "trial_type": "single-stim", "word": "princess", "stimulus": "<p id=\"stim\">PRINCESS</p>", "conditions": [18, 1200, "v", 18000], "internal_node_id": "0.0-44.0", "trial": 1, "time_elapsed": 412574, "serialpos": 7, "key_press": -1, "wordID": 1124, "type": "PRES_VIS", "trial_index": 62}, "uniqueid": "MTK3132:37QW5D2ZRHTMZ2ARD4V3ZGW6N69S81", "dateTime": 1520040695321}, {"current_trial": 63, "trialdata": {"rt": -1, "trial_type": "single-stim", "word": "brother", "stimulus": "<p id=\"stim\">BROTHER</p>", "conditions": [18, 1200, "v", 18000], "internal_node_id": "0.0-45.0", "trial": 1, "time_elapsed": 414841, "serialpos": 8, "key_press": -1, "wordID": 178, "type": "PRES_VIS", "trial_index": 63}, "uniqueid": "MTK3132:37QW5D2ZRHTMZ2ARD4V3ZGW6N69S81", "dateTime": 1520040697588}, {"current_trial": 64, "trialdata": {"rt": -1, "trial_type": "single-stim", "word": "police", "stimulus": "<p id=\"stim\">POLICE</p>", "conditions": [18, 1200, "v", 18000], "internal_node_id": "0.0-46.0", "trial": 1, "time_elapsed": 417120, "serialpos": 9, "key_press": -1, "wordID": 1097, "type": "PRES_VIS", "trial_index": 64}, "uniqueid": "MTK3132:37QW5D2ZRHTMZ2ARD4V3ZGW6N69S81", "dateTime": 1520040699868}, {"current_trial": 65, "trialdata": {"rt": -1, "trial_type": "single-stim", "word": "brandy", "stimulus": "<p id=\"stim\">BRANDY</p>", "conditions": [18, 1200, "v", 18000], "internal_node_id": "0.0-47.0", "trial": 1, "time_elapsed": 419173, "serialpos": 10, "key_press": -1, "wordID": 168, "type": "PRES_VIS", "trial_index": 65}, "uniqueid": "MTK3132:37QW5D2ZRHTMZ2ARD4V3ZGW6N69S81", "dateTime": 1520040701920}, {"current_trial": 66, "trialdata": {"rt": -1, "trial_type": "single-stim", "word": "freezer", "stimulus": "<p id=\"stim\">FREEZER</p>", "conditions": [18, 1200, "v", 18000], "internal_node_id": "0.0-48.0", "trial": 1, "time_elapsed": 421284, "serialpos": 11, "key_press": -1, "wordID": 603, "type": "PRES_VIS", "trial_index": 66}, "uniqueid": "MTK3132:37QW5D2ZRHTMZ2ARD4V3ZGW6N69S81", "dateTime": 1520040704031}, {"current_trial": 67, "trialdata": {"rt": -1, "trial_type": "single-stim", "word": "turkey", "stimulus": "<p id=\"stim\">TURKEY</p>", "conditions": [18, 1200, "v", 18000], "internal_node_id": "0.0-49.0", "trial": 1, "time_elapsed": 423433, "serialpos": 12, "key_press": -1, "wordID": 1519, "type": "PRES_VIS", "trial_index": 67}, "uniqueid": "MTK3132:37QW5D2ZRHTMZ2ARD4V3ZGW6N69S81", "dateTime": 1520040706180}, {"current_trial": 68, "trialdata": {"rt": -1, "trial_type": "single-stim", "word": "camel", "stimulus": "<p id=\"stim\">CAMEL</p>", "conditions": [18, 1200, "v", 18000], "internal_node_id": "0.0-50.0", "trial": 1, "time_elapsed": 425646, "serialpos": 13, "key_press": -1, "wordID": 222, "type": "PRES_VIS", "trial_index": 68}, "uniqueid": "MTK3132:37QW5D2ZRHTMZ2ARD4V3ZGW6N69S81", "dateTime": 1520040708397}, {"current_trial": 69, "trialdata": {"rt": -1, "trial_type": "single-stim", "word": "sidewalk", "stimulus": "<p id=\"stim\">SIDEWALK</p>", "conditions": [18, 1200, "v", 18000], "internal_node_id": "0.0-51.0", "trial": 1, "time_elapsed": 428025, "serialpos": 14, "key_press": -1, "wordID": 1302, "type": "PRES_VIS", "trial_index": 69}, "uniqueid": "MTK3132:37QW5D2ZRHTMZ2ARD4V3ZGW6N69S81", "dateTime": 1520040710773}, {"current_trial": 70, "trialdata": {"rt": -1, "trial_type": "single-stim", "word": "novel", "stimulus": "<p id=\"stim\">NOVEL</p>", "conditions": [18, 1200, "v", 18000], "internal_node_id": "0.0-52.0", "trial": 1, "time_elapsed": 430295, "serialpos": 15, "key_press": -1, "wordID": 959, "type": "PRES_VIS", "trial_index": 70}, "uniqueid": "MTK3132:37QW5D2ZRHTMZ2ARD4V3ZGW6N69S81", "dateTime": 1520040713043}, {"current_trial": 71, "trialdata": {"rt": -1, "trial_type": "single-stim", "word": "diner", "stimulus": "<p id=\"stim\">DINER</p>", "conditions": [18, 1200, "v", 18000], "internal_node_id": "0.0-53.0", "trial": 1, "time_elapsed": 432564, "serialpos": 16, "key_press": -1, "wordID": 466, "type": "PRES_VIS", "trial_index": 71}, "uniqueid": "MTK3132:37QW5D2ZRHTMZ2ARD4V3ZGW6N69S81", "dateTime": 1520040715311}, {"current_trial": 72, "trialdata": {"rt": -1, "trial_type": "single-stim", "word": "brook", "stimulus": "<p id=\"stim\">BROOK</p>", "conditions": [18, 1200, "v", 18000], "internal_node_id": "0.0-54.0", "trial": 1, "time_elapsed": 434835, "serialpos": 17, "key_press": -1, "wordID": 176, "type": "PRES_VIS", "trial_index": 72}, "uniqueid": "MTK3132:37QW5D2ZRHTMZ2ARD4V3ZGW6N69S81", "dateTime": 1520040717582}, {"current_trial": 73, "trialdata": {"rt": -1, "trial_type": "single-stim", "stimulus": "", "internal_node_id": "0.0-55.0-0.0", "time_elapsed": 437090, "key_press": -1, "type": "PRE_RECALL_DELAY", "trial_index": 73}, "uniqueid": "MTK3132:37QW5D2ZRHTMZ2ARD4V3ZGW6N69S81", "dateTime": 1520040719837}, {"current_trial": 74, "trialdata": {"rt": -1000, "trial_type": "single-audio", "stimulus": "/static/audio/400Hz.wav", "internal_node_id": "0.0-56.0", "time_elapsed": 437592, "key_press": -1, "type": "PRE_RECALL_ALERT", "trial_index": 74}, "uniqueid": "MTK3132:37QW5D2ZRHTMZ2ARD4V3ZGW6N69S81", "dateTime": 1520040720340}, {"current_trial": 75, "trialdata": {"rt": [2682, 3689, 5436, 7034, 12675, 16354], "recwords": ["globe", "brook", "diner", "boyfriend", "police", "ox"], "key_times": [1819, 1929, 2138, 2225, 2461, 2682, 2805, 3079, 3127, 3324, 3412, 3689, 3832, 3948, 4025, 4167, 4306, 5436, 5881, 5996, 6058, 6212, 6426, 6509, 6624, 6739, 6853, 7034, 11758, 11852, 12107, 12192, 12286, 12551, 12675, 16021, 16160, 16354], "trial_type": "free-recall", "conditions": [18, 1200, "v", 18000], "internal_node_id": "0.0-57.0-0.0", "key_presses": [71, 76, 79, 66, 69, 32, 66, 82, 79, 79, 75, 32, 68, 73, 78, 69, 82, 32, 66, 79, 89, 70, 82, 73, 69, 78, 68, 32, 80, 79, 76, 73, 67, 69, 32, 79, 88, 32], "trial": 1, "time_elapsed": 497597, "type": "FREE_RECALL", "trial_index": 75}, "uniqueid": "MTK3132:37QW5D2ZRHTMZ2ARD4V3ZGW6N69S81", "dateTime": 1520040780347}, {"current_trial": 76, "trialdata": {"rt": 6356, "trial_type": "text", "internal_node_id": "0.0-58.0", "time_elapsed": 505958, "key_press": 32, "type": "INSTRUCTIONS", "trial_index": 76}, "uniqueid": "MTK3132:37QW5D2ZRHTMZ2ARD4V3ZGW6N69S81", "dateTime": 1520040788705}, {"current_trial": 77, "trialdata": {"rt": [2609, 5602, 8293, 10550, 13072, 15076, 17765, 20579, 22616], "trial_type": "math-distractor", "key_times": [2225, 2390, 2609, 5287, 5602, 7982, 8075, 8293, 10193, 10289, 10550, 12744, 12882, 13072, 14748, 14855, 15076, 17358, 17541, 17765, 20221, 20328, 20579, 22360, 22616], "responses": ["15", "7", "18", "18", "14", "18", "15", "19", "8"], "num2": [5, 4, 9, 6, 7, 7, 8, 8, 5, 2], "num3": [6, 1, 4, 3, 4, 4, 3, 7, 2, 3], "conditions": [24, 1600, "v", 24000], "internal_node_id": "0.0-59.0", "key_presses": [49, 53, 13, 55, 13, 49, 56, 13, 49, 56, 13, 49, 52, 13, 49, 56, 13, 49, 53, 13, 49, 57, 13, 56, 13], "trial": 2, "time_elapsed": 530964, "type": "DISTRACTOR", "trial_index": 77, "num1": [4, 2, 5, 9, 3, 7, 4, 4, 1, 9]}, "uniqueid": "MTK3132:37QW5D2ZRHTMZ2ARD4V3ZGW6N69S81", "dateTime": 1520040813711}, {"current_trial": 78, "trialdata": {"rt": -1, "trial_type": "single-stim", "stimulus": "<p id=\"stim\">10</p>", "internal_node_id": "0.0-60.0-0.0", "time_elapsed": 533967, "key_press": -1, "trial_index": 78}, "uniqueid": "MTK3132:37QW5D2ZRHTMZ2ARD4V3ZGW6N69S81", "dateTime": 1520040816714}, {"current_trial": 79, "trialdata": {"rt": -1, "trial_type": "single-stim", "stimulus": "<p id=\"stim\">9</p>", "internal_node_id": "0.0-60.0-1.0", "time_elapsed": 534969, "key_press": -1, "trial_index": 79}, "uniqueid": "MTK3132:37QW5D2ZRHTMZ2ARD4V3ZGW6N69S81", "dateTime": 1520040817716}, {"current_trial": 80, "trialdata": {"rt": -1, "trial_type": "single-stim", "stimulus": "<p id=\"stim\">8</p>", "internal_node_id": "0.0-60.0-2.0", "time_elapsed": 535972, "key_press": -1, "trial_index": 80}, "uniqueid": "MTK3132:37QW5D2ZRHTMZ2ARD4V3ZGW6N69S81", "dateTime": 1520040818719}, {"current_trial": 81, "trialdata": {"rt": -1, "trial_type": "single-stim", "stimulus": "<p id=\"stim\">7</p>", "internal_node_id": "0.0-60.0-3.0", "time_elapsed": 536973, "key_press": -1, "trial_index": 81}, "uniqueid": "MTK3132:37QW5D2ZRHTMZ2ARD4V3ZGW6N69S81", "dateTime": 1520040819721}, {"current_trial": 82, "trialdata": {"rt": -1, "trial_type": "single-stim", "stimulus": "<p id=\"stim\">6</p>", "internal_node_id": "0.0-60.0-4.0", "time_elapsed": 537976, "key_press": -1, "trial_index": 82}, "uniqueid": "MTK3132:37QW5D2ZRHTMZ2ARD4V3ZGW6N69S81", "dateTime": 1520040820724}, {"current_trial": 83, "trialdata": {"rt": -1, "trial_type": "single-stim", "stimulus": "<p id=\"stim\">5</p>", "internal_node_id": "0.0-60.0-5.0", "time_elapsed": 538980, "key_press": -1, "trial_index": 83}, "uniqueid": "MTK3132:37QW5D2ZRHTMZ2ARD4V3ZGW6N69S81", "dateTime": 1520040821727}, {"current_trial": 84, "trialdata": {"rt": -1, "trial_type": "single-stim", "stimulus": "<p id=\"stim\">4</p>", "internal_node_id": "0.0-60.0-6.0", "time_elapsed": 539981, "key_press": -1, "trial_index": 84}, "uniqueid": "MTK3132:37QW5D2ZRHTMZ2ARD4V3ZGW6N69S81", "dateTime": 1520040822728}, {"current_trial": 85, "trialdata": {"rt": -1, "trial_type": "single-stim", "stimulus": "<p id=\"stim\">3</p>", "internal_node_id": "0.0-60.0-7.0", "time_elapsed": 540984, "key_press": -1, "trial_index": 85}, "uniqueid": "MTK3132:37QW5D2ZRHTMZ2ARD4V3ZGW6N69S81", "dateTime": 1520040823732}, {"current_trial": 86, "trialdata": {"rt": -1, "trial_type": "single-stim", "stimulus": "<p id=\"stim\">2</p>", "internal_node_id": "0.0-60.0-8.0", "time_elapsed": 541987, "key_press": -1, "trial_index": 86}, "uniqueid": "MTK3132:37QW5D2ZRHTMZ2ARD4V3ZGW6N69S81", "dateTime": 1520040824735}, {"current_trial": 87, "trialdata": {"rt": -1, "trial_type": "single-stim", "stimulus": "<p id=\"stim\">1</p>", "internal_node_id": "0.0-60.0-9.0", "time_elapsed": 542989, "key_press": -1, "trial_index": 87}, "uniqueid": "MTK3132:37QW5D2ZRHTMZ2ARD4V3ZGW6N69S81", "dateTime": 1520040825736}, {"current_trial": 88, "trialdata": {"rt": -1, "trial_type": "single-stim", "stimulus": "<p id=\"stim\">+</p>", "internal_node_id": "0.0-61.0-0.0", "time_elapsed": 544492, "key_press": -1, "type": "FIXATION", "trial_index": 88}, "uniqueid": "MTK3132:37QW5D2ZRHTMZ2ARD4V3ZGW6N69S81", "dateTime": 1520040827239}, {"current_trial": 89, "trialdata": {"rt": -1, "trial_type": "single-stim", "word": "robber", "stimulus": "<p id=\"stim\">ROBBER</p>", "conditions": [24, 1600, "v", 24000], "internal_node_id": "0.0-62.0", "trial": 2, "time_elapsed": 546094, "serialpos": 0, "key_press": -1, "wordID": 1196, "type": "PRES_VIS", "trial_index": 89}, "uniqueid": "MTK3132:37QW5D2ZRHTMZ2ARD4V3ZGW6N69S81", "dateTime": 1520040828841}, {"current_trial": 90, "trialdata": {"rt": -1, "trial_type": "single-stim", "word": "tablet", "stimulus": "<p id=\"stim\">TABLET</p>", "conditions": [24, 1600, "v", 24000], "internal_node_id": "0.0-63.0", "trial": 2, "time_elapsed": 548512, "serialpos": 1, "key_press": -1, "wordID": 1426, "type": "PRES_VIS", "trial_index": 90}, "uniqueid": "MTK3132:37QW5D2ZRHTMZ2ARD4V3ZGW6N69S81", "dateTime": 1520040831259}, {"current_trial": 91, "trialdata": {"rt": -1, "trial_type": "single-stim", "word": "hornet", "stimulus": "<p id=\"stim\">HORNET</p>", "conditions": [24, 1600, "v", 24000], "internal_node_id": "0.0-64.0", "trial": 2, "time_elapsed": 551208, "serialpos": 2, "key_press": -1, "wordID": 717, "type": "PRES_VIS", "trial_index": 91}, "uniqueid": "MTK3132:37QW5D2ZRHTMZ2ARD4V3ZGW6N69S81", "dateTime": 1520040833955}, {"current_trial": 92, "trialdata": {"rt": -1, "trial_type": "single-stim", "word": "spool", "stimulus": "<p id=\"stim\">SPOOL</p>", "conditions": [24, 1600, "v", 24000], "internal_node_id": "0.0-65.0", "trial": 2, "time_elapsed": 553891, "serialpos": 3, "key_press": -1, "wordID": 1355, "type": "PRES_VIS", "trial_index": 92}, "uniqueid": "MTK3132:37QW5D2ZRHTMZ2ARD4V3ZGW6N69S81", "dateTime": 1520040836638}, {"current_trial": 93, "trialdata": {"rt": -1, "trial_type": "single-stim", "word": "costume", "stimulus": "<p id=\"stim\">COSTUME</p>", "conditions": [24, 1600, "v", 24000], "internal_node_id": "0.0-66.0", "trial": 2, "time_elapsed": 556481, "serialpos": 4, "key_press": -1, "wordID": 382, "type": "PRES_VIS", "trial_index": 93}, "uniqueid": "MTK3132:37QW5D2ZRHTMZ2ARD4V3ZGW6N69S81", "dateTime": 1520040839228}, {"current_trial": 94, "trialdata": {"rt": -1, "trial_type": "single-stim", "word": "mask", "stimulus": "<p id=\"stim\">MASK</p>", "conditions": [24, 1600, "v", 24000], "internal_node_id": "0.0-67.0", "trial": 2, "time_elapsed": 559245, "serialpos": 5, "key_press": -1, "wordID": 875, "type": "PRES_VIS", "trial_index": 94}, "uniqueid": "MTK3132:37QW5D2ZRHTMZ2ARD4V3ZGW6N69S81", "dateTime": 1520040841992}, {"current_trial": 95, "trialdata": {"rt": -1, "trial_type": "single-stim", "word": "actress", "stimulus": "<p id=\"stim\">ACTRESS</p>", "conditions": [24, 1600, "v", 24000], "internal_node_id": "0.0-68.0", "trial": 2, "time_elapsed": 561888, "serialpos": 6, "key_press": -1, "wordID": 5, "type": "PRES_VIS", "trial_index": 95}, "uniqueid": "MTK3132:37QW5D2ZRHTMZ2ARD4V3ZGW6N69S81", "dateTime": 1520040844635}, {"current_trial": 96, "trialdata": {"rt": -1, "trial_type": "single-stim", "word": "widow", "stimulus": "<p id=\"stim\">WIDOW</p>", "conditions": [24, 1600, "v", 24000], "internal_node_id": "0.0-69.0", "trial": 2, "time_elapsed": 564636, "serialpos": 7, "key_press": -1, "wordID": 1607, "type": "PRES_VIS", "trial_index": 96}, "uniqueid": "MTK3132:37QW5D2ZRHTMZ2ARD4V3ZGW6N69S81", "dateTime": 1520040847383}, {"current_trial": 97, "trialdata": {"rt": -1, "trial_type": "single-stim", "word": "turtle", "stimulus": "<p id=\"stim\">TURTLE</p>", "conditions": [24, 1600, "v", 24000], "internal_node_id": "0.0-70.0", "trial": 2, "time_elapsed": 567043, "serialpos": 8, "key_press": -1, "wordID": 1521, "type": "PRES_VIS", "trial_index": 97}, "uniqueid": "MTK3132:37QW5D2ZRHTMZ2ARD4V3ZGW6N69S81", "dateTime": 1520040849791}, {"current_trial": 98, "trialdata": {"rt": -1, "trial_type": "single-stim", "word": "panther", "stimulus": "<p id=\"stim\">PANTHER</p>", "conditions": [24, 1600, "v", 24000], "internal_node_id": "0.0-71.0", "trial": 2, "time_elapsed": 569574, "serialpos": 9, "key_press": -1, "wordID": 1008, "type": "PRES_VIS", "trial_index": 98}, "uniqueid": "MTK3132:37QW5D2ZRHTMZ2ARD4V3ZGW6N69S81", "dateTime": 1520040852321}, {"current_trial": 99, "trialdata": {"rt": -1, "trial_type": "single-stim", "word": "nurse", "stimulus": "<p id=\"stim\">NURSE</p>", "conditions": [24, 1600, "v", 24000], "internal_node_id": "0.0-72.0", "trial": 2, "time_elapsed": 572151, "serialpos": 10, "key_press": -1, "wordID": 962, "type": "PRES_VIS", "trial_index": 99}, "uniqueid": "MTK3132:37QW5D2ZRHTMZ2ARD4V3ZGW6N69S81", "dateTime": 1520040854899}, {"current_trial": 100, "trialdata": {"rt": -1, "trial_type": "single-stim", "word": "wardrobe", "stimulus": "<p id=\"stim\">WARDROBE</p>", "conditions": [24, 1600, "v", 24000], "internal_node_id": "0.0-73.0", "trial": 2, "time_elapsed": 574580, "serialpos": 11, "key_press": -1, "wordID": 1586, "type": "PRES_VIS", "trial_index": 100}, "uniqueid": "MTK3132:37QW5D2ZRHTMZ2ARD4V3ZGW6N69S81", "dateTime": 1520040857327}, {"current_trial": 101, "trialdata": {"rt": -1, "trial_type": "single-stim", "word": "apple", "stimulus": "<p id=\"stim\">APPLE</p>", "conditions": [24, 1600, "v", 24000], "internal_node_id": "0.0-74.0", "trial": 2, "time_elapsed": 577015, "serialpos": 12, "key_press": -1, "wordID": 32, "type": "PRES_VIS", "trial_index": 101}, "uniqueid": "MTK3132:37QW5D2ZRHTMZ2ARD4V3ZGW6N69S81", "dateTime": 1520040859762}, {"current_trial": 102, "trialdata": {"rt": -1, "trial_type": "single-stim", "word": "peach", "stimulus": "<p id=\"stim\">PEACH</p>", "conditions": [24, 1600, "v", 24000], "internal_node_id": "0.0-75.0", "trial": 2, "time_elapsed": 579432, "serialpos": 13, "key_press": -1, "wordID": 1030, "type": "PRES_VIS", "trial_index": 102}, "uniqueid": "MTK3132:37QW5D2ZRHTMZ2ARD4V3ZGW6N69S81", "dateTime": 1520040862179}, {"current_trial": 103, "trialdata": {"rt": -1, "trial_type": "single-stim", "word": "cupboard", "stimulus": "<p id=\"stim\">CUPBOARD</p>", "conditions": [24, 1600, "v", 24000], "internal_node_id": "0.0-76.0", "trial": 2, "time_elapsed": 581890, "serialpos": 14, "key_press": -1, "wordID": 424, "type": "PRES_VIS", "trial_index": 103}, "uniqueid": "MTK3132:37QW5D2ZRHTMZ2ARD4V3ZGW6N69S81", "dateTime": 1520040864637}, {"current_trial": 104, "trialdata": {"rt": -1, "trial_type": "single-stim", "word": "cross", "stimulus": "<p id=\"stim\">CROSS</p>", "conditions": [24, 1600, "v", 24000], "internal_node_id": "0.0-77.0", "trial": 2, "time_elapsed": 584437, "serialpos": 15, "key_press": -1, "wordID": 412, "type": "PRES_VIS", "trial_index": 104}, "uniqueid": "MTK3132:37QW5D2ZRHTMZ2ARD4V3ZGW6N69S81", "dateTime": 1520040867185}, {"current_trial": 105, "trialdata": {"rt": -1, "trial_type": "single-stim", "word": "termite", "stimulus": "<p id=\"stim\">TERMITE</p>", "conditions": [24, 1600, "v", 24000], "internal_node_id": "0.0-78.0", "trial": 2, "time_elapsed": 586851, "serialpos": 16, "key_press": -1, "wordID": 1450, "type": "PRES_VIS", "trial_index": 105}, "uniqueid": "MTK3132:37QW5D2ZRHTMZ2ARD4V3ZGW6N69S81", "dateTime": 1520040869598}, {"current_trial": 106, "trialdata": {"rt": -1, "trial_type": "single-stim", "word": "shovel", "stimulus": "<p id=\"stim\">SHOVEL</p>", "conditions": [24, 1600, "v", 24000], "internal_node_id": "0.0-79.0", "trial": 2, "time_elapsed": 589639, "serialpos": 17, "key_press": -1, "wordID": 1294, "type": "PRES_VIS", "trial_index": 106}, "uniqueid": "MTK3132:37QW5D2ZRHTMZ2ARD4V3ZGW6N69S81", "dateTime": 1520040872387}, {"current_trial": 107, "trialdata": {"rt": -1, "trial_type": "single-stim", "word": "viking", "stimulus": "<p id=\"stim\">VIKING</p>", "conditions": [24, 1600, "v", 24000], "internal_node_id": "0.0-80.0", "trial": 2, "time_elapsed": 592199, "serialpos": 18, "key_press": -1, "wordID": 1564, "type": "PRES_VIS", "trial_index": 107}, "uniqueid": "MTK3132:37QW5D2ZRHTMZ2ARD4V3ZGW6N69S81", "dateTime": 1520040874946}, {"current_trial": 108, "trialdata": {"rt": -1, "trial_type": "single-stim", "word": "garden", "stimulus": "<p id=\"stim\">GARDEN</p>", "conditions": [24, 1600, "v", 24000], "internal_node_id": "0.0-81.0", "trial": 2, "time_elapsed": 594962, "serialpos": 19, "key_press": -1, "wordID": 622, "type": "PRES_VIS", "trial_index": 108}, "uniqueid": "MTK3132:37QW5D2ZRHTMZ2ARD4V3ZGW6N69S81", "dateTime": 1520040877709}, {"current_trial": 109, "trialdata": {"rt": -1, "trial_type": "single-stim", "word": "mildew", "stimulus": "<p id=\"stim\">MILDEW</p>", "conditions": [24, 1600, "v", 24000], "internal_node_id": "0.0-82.0", "trial": 2, "time_elapsed": 597666, "serialpos": 20, "key_press": -1, "wordID": 892, "type": "PRES_VIS", "trial_index": 109}, "uniqueid": "MTK3132:37QW5D2ZRHTMZ2ARD4V3ZGW6N69S81", "dateTime": 1520040880413}, {"current_trial": 110, "trialdata": {"rt": -1, "trial_type": "single-stim", "word": "scribble", "stimulus": "<p id=\"stim\">SCRIBBLE</p>", "conditions": [24, 1600, "v", 24000], "internal_node_id": "0.0-83.0", "trial": 2, "time_elapsed": 600400, "serialpos": 21, "key_press": -1, "wordID": 1255, "type": "PRES_VIS", "trial_index": 110}, "uniqueid": "MTK3132:37QW5D2ZRHTMZ2ARD4V3ZGW6N69S81", "dateTime": 1520040883147}, {"current_trial": 111, "trialdata": {"rt": -1, "trial_type": "single-stim", "word": "muffin", "stimulus": "<p id=\"stim\">MUFFIN</p>", "conditions": [24, 1600, "v", 24000], "internal_node_id": "0.0-84.0", "trial": 2, "time_elapsed": 603174, "serialpos": 22, "key_press": -1, "wordID": 928, "type": "PRES_VIS", "trial_index": 111}, "uniqueid": "MTK3132:37QW5D2ZRHTMZ2ARD4V3ZGW6N69S81", "dateTime": 1520040885921}, {"current_trial": 112, "trialdata": {"rt": -1, "trial_type": "single-stim", "word": "fungus", "stimulus": "<p id=\"stim\">FUNGUS</p>", "conditions": [24, 1600, "v", 24000], "internal_node_id": "0.0-85.0", "trial": 2, "time_elapsed": 605917, "serialpos": 23, "key_press": -1, "wordID": 613, "type": "PRES_VIS", "trial_index": 112}, "uniqueid": "MTK3132:37QW5D2ZRHTMZ2ARD4V3ZGW6N69S81", "dateTime": 1520040888664}, {"current_trial": 113, "trialdata": {"rt": -1, "trial_type": "single-stim", "stimulus": "", "internal_node_id": "0.0-86.0-0.0", "time_elapsed": 608407, "key_press": -1, "type": "PRE_RECALL_DELAY", "trial_index": 113}, "uniqueid": "MTK3132:37QW5D2ZRHTMZ2ARD4V3ZGW6N69S81", "dateTime": 1520040891155}, {"current_trial": 114, "trialdata": {"rt": -1000, "trial_type": "single-audio", "stimulus": "/static/audio/400Hz.wav", "internal_node_id": "0.0-87.0", "time_elapsed": 608911, "key_press": -1, "type": "PRE_RECALL_ALERT", "trial_index": 114}, "uniqueid": "MTK3132:37QW5D2ZRHTMZ2ARD4V3ZGW6N69S81", "dateTime": 1520040891658}, {"current_trial": 115, "trialdata": {"rt": [10542, 20781, 28028, 41884, 50115, 51846, 58730], "recwords": ["hornet", "tablet", "mask", "costume", "turtle", "widow", "wardrobe"], "key_times": [9150, 9221, 9305, 9448, 9547, 9681, 10542, 19134, 19341, 19456, 19618, 19718, 19972, 20781, 27145, 27259, 27345, 27475, 28028, 40837, 40958, 41097, 41248, 41353, 41588, 41691, 41884, 48499, 48629, 48776, 49001, 49111, 49234, 50115, 51135, 51254, 51379, 51481, 51599, 51846, 57175, 57254, 57373, 57643, 57881, 57983, 58125, 58382, 58730], "trial_type": "free-recall", "conditions": [24, 1600, "v", 24000], "internal_node_id": "0.0-88.0-0.0", "key_presses": [72, 79, 82, 78, 69, 84, 32, 84, 65, 66, 76, 69, 84, 32, 77, 65, 83, 75, 32, 67, 79, 83, 84, 85, 77, 69, 32, 84, 85, 82, 84, 76, 69, 32, 87, 73, 68, 79, 87, 32, 87, 65, 82, 68, 82, 79, 66, 69, 32], "trial": 2, "time_elapsed": 668915, "type": "FREE_RECALL", "trial_index": 115}, "uniqueid": "MTK3132:37QW5D2ZRHTMZ2ARD4V3ZGW6N69S81", "dateTime": 1520040951665}, {"current_trial": 116, "trialdata": {"rt": 4313, "trial_type": "text", "internal_node_id": "0.0-89.0", "time_elapsed": 675233, "key_press": 32, "type": "INSTRUCTIONS", "trial_index": 116}, "uniqueid": "MTK3132:37QW5D2ZRHTMZ2ARD4V3ZGW6N69S81", "dateTime": 1520040957981}, {"current_trial": 117, "trialdata": {"rt": [2712, 5622, 7979, 12226, 14730, 17103, 19016, 21463, 23104], "trial_type": "math-distractor", "key_times": [1510, 1652, 2140, 2712, 5089, 5296, 5622, 7546, 7668, 7979, 11894, 11957, 12226, 14429, 14532, 14730, 16670, 16949, 17103, 18745, 18828, 19016, 20985, 21290, 21463, 22829, 22929, 23104], "responses": ["15 ", "11", "17", "19", "20", "13", "15", "12", "15"], "num2": [5, 5, 2, 7, 9, 2, 4, 8, 7, 1], "num3": [5, 4, 6, 8, 4, 4, 4, 2, 1, 1], "conditions": [24, 800, "v", 24000], "internal_node_id": "0.0-90.0", "key_presses": [49, 53, 32, 13, 49, 49, 13, 49, 55, 13, 49, 57, 13, 50, 48, 13, 49, 51, 13, 49, 53, 13, 49, 50, 13, 49, 53, 13], "trial": 3, "time_elapsed": 701239, "type": "DISTRACTOR", "trial_index": 117, "num1": [5, 2, 9, 4, 7, 7, 7, 2, 7, 2]}, "uniqueid": "MTK3132:37QW5D2ZRHTMZ2ARD4V3ZGW6N69S81", "dateTime": 1520040983986}, {"current_trial": 118, "trialdata": {"rt": -1, "trial_type": "single-stim", "stimulus": "<p id=\"stim\">10</p>", "internal_node_id": "0.0-91.0-0.0", "time_elapsed": 704243, "key_press": -1, "trial_index": 118}, "uniqueid": "MTK3132:37QW5D2ZRHTMZ2ARD4V3ZGW6N69S81", "dateTime": 1520040986990}, {"current_trial": 119, "trialdata": {"rt": -1, "trial_type": "single-stim", "stimulus": "<p id=\"stim\">9</p>", "internal_node_id": "0.0-91.0-1.0", "time_elapsed": 705244, "key_press": -1, "trial_index": 119}, "uniqueid": "MTK3132:37QW5D2ZRHTMZ2ARD4V3ZGW6N69S81", "dateTime": 1520040987992}, {"current_trial": 120, "trialdata": {"rt": -1, "trial_type": "single-stim", "stimulus": "<p id=\"stim\">8</p>", "internal_node_id": "0.0-91.0-2.0", "time_elapsed": 706246, "key_press": -1, "trial_index": 120}, "uniqueid": "MTK3132:37QW5D2ZRHTMZ2ARD4V3ZGW6N69S81", "dateTime": 1520040988993}, {"current_trial": 121, "trialdata": {"rt": -1, "trial_type": "single-stim", "stimulus": "<p id=\"stim\">7</p>", "internal_node_id": "0.0-91.0-3.0", "time_elapsed": 707248, "key_press": -1, "trial_index": 121}, "uniqueid": "MTK3132:37QW5D2ZRHTMZ2ARD4V3ZGW6N69S81", "dateTime": 1520040989995}, {"current_trial": 122, "trialdata": {"rt": -1, "trial_type": "single-stim", "stimulus": "<p id=\"stim\">6</p>", "internal_node_id": "0.0-91.0-4.0", "time_elapsed": 708251, "key_press": -1, "trial_index": 122}, "uniqueid": "MTK3132:37QW5D2ZRHTMZ2ARD4V3ZGW6N69S81", "dateTime": 1520040990998}, {"current_trial": 123, "trialdata": {"rt": -1, "trial_type": "single-stim", "stimulus": "<p id=\"stim\">5</p>", "internal_node_id": "0.0-91.0-5.0", "time_elapsed": 709251, "key_press": -1, "trial_index": 123}, "uniqueid": "MTK3132:37QW5D2ZRHTMZ2ARD4V3ZGW6N69S81", "dateTime": 1520040991999}, {"current_trial": 124, "trialdata": {"rt": -1, "trial_type": "single-stim", "stimulus": "<p id=\"stim\">4</p>", "internal_node_id": "0.0-91.0-6.0", "time_elapsed": 710253, "key_press": -1, "trial_index": 124}, "uniqueid": "MTK3132:37QW5D2ZRHTMZ2ARD4V3ZGW6N69S81", "dateTime": 1520040993001}, {"current_trial": 125, "trialdata": {"rt": -1, "trial_type": "single-stim", "stimulus": "<p id=\"stim\">3</p>", "internal_node_id": "0.0-91.0-7.0", "time_elapsed": 711256, "key_press": -1, "trial_index": 125}, "uniqueid": "MTK3132:37QW5D2ZRHTMZ2ARD4V3ZGW6N69S81", "dateTime": 1520040994003}, {"current_trial": 126, "trialdata": {"rt": -1, "trial_type": "single-stim", "stimulus": "<p id=\"stim\">2</p>", "internal_node_id": "0.0-91.0-8.0", "time_elapsed": 712258, "key_press": -1, "trial_index": 126}, "uniqueid": "MTK3132:37QW5D2ZRHTMZ2ARD4V3ZGW6N69S81", "dateTime": 1520040995006}, {"current_trial": 127, "trialdata": {"rt": -1, "trial_type": "single-stim", "stimulus": "<p id=\"stim\">1</p>", "internal_node_id": "0.0-91.0-9.0", "time_elapsed": 713261, "key_press": -1, "trial_index": 127}, "uniqueid": "MTK3132:37QW5D2ZRHTMZ2ARD4V3ZGW6N69S81", "dateTime": 1520040996008}, {"current_trial": 128, "trialdata": {"rt": -1, "trial_type": "single-stim", "stimulus": "<p id=\"stim\">+</p>", "internal_node_id": "0.0-92.0-0.0", "time_elapsed": 714763, "key_press": -1, "type": "FIXATION", "trial_index": 128}, "uniqueid": "MTK3132:37QW5D2ZRHTMZ2ARD4V3ZGW6N69S81", "dateTime": 1520040997510}, {"current_trial": 129, "trialdata": {"rt": -1, "trial_type": "single-stim", "word": "hood", "stimulus": "<p id=\"stim\">HOOD</p>", "conditions": [24, 800, "v", 24000], "internal_node_id": "0.0-93.0", "trial": 3, "time_elapsed": 715565, "serialpos": 0, "key_press": -1, "wordID": 713, "type": "PRES_VIS", "trial_index": 129}, "uniqueid": "MTK3132:37QW5D2ZRHTMZ2ARD4V3ZGW6N69S81", "dateTime": 1520040998312}, {"current_trial": 130, "trialdata": {"rt": -1, "trial_type": "single-stim", "word": "relish", "stimulus": "<p id=\"stim\">RELISH</p>", "conditions": [24, 800, "v", 24000], "internal_node_id": "0.0-94.0", "trial": 3, "time_elapsed": 717293, "serialpos": 1, "key_press": -1, "wordID": 1182, "type": "PRES_VIS", "trial_index": 130}, "uniqueid": "MTK3132:37QW5D2ZRHTMZ2ARD4V3ZGW6N69S81", "dateTime": 1520041000040}, {"current_trial": 131, "trialdata": {"rt": -1, "trial_type": "single-stim", "word": "truck", "stimulus": "<p id=\"stim\">TRUCK</p>", "conditions": [24, 800, "v", 24000], "internal_node_id": "0.0-95.0", "trial": 3, "time_elapsed": 718920, "serialpos": 2, "key_press": -1, "wordID": 1511, "type": "PRES_VIS", "trial_index": 131}, "uniqueid": "MTK3132:37QW5D2ZRHTMZ2ARD4V3ZGW6N69S81", "dateTime": 1520041001667}, {"current_trial": 132, "trialdata": {"rt": -1, "trial_type": "single-stim", "word": "wagon", "stimulus": "<p id=\"stim\">WAGON</p>", "conditions": [24, 800, "v", 24000], "internal_node_id": "0.0-96.0", "trial": 3, "time_elapsed": 720790, "serialpos": 3, "key_press": -1, "wordID": 1577, "type": "PRES_VIS", "trial_index": 132}, "uniqueid": "MTK3132:37QW5D2ZRHTMZ2ARD4V3ZGW6N69S81", "dateTime": 1520041003537}, {"current_trial": 133, "trialdata": {"rt": -1, "trial_type": "single-stim", "word": "switch", "stimulus": "<p id=\"stim\">SWITCH</p>", "conditions": [24, 800, "v", 24000], "internal_node_id": "0.0-97.0", "trial": 3, "time_elapsed": 722708, "serialpos": 4, "key_press": -1, "wordID": 1421, "type": "PRES_VIS", "trial_index": 133}, "uniqueid": "MTK3132:37QW5D2ZRHTMZ2ARD4V3ZGW6N69S81", "dateTime": 1520041005455}, {"current_trial": 134, "trialdata": {"rt": -1, "trial_type": "single-stim", "word": "dresser", "stimulus": "<p id=\"stim\">DRESSER</p>", "conditions": [24, 800, "v", 24000], "internal_node_id": "0.0-98.0", "trial": 3, "time_elapsed": 724349, "serialpos": 5, "key_press": -1, "wordID": 495, "type": "PRES_VIS", "trial_index": 134}, "uniqueid": "MTK3132:37QW5D2ZRHTMZ2ARD4V3ZGW6N69S81", "dateTime": 1520041007096}, {"current_trial": 135, "trialdata": {"rt": -1, "trial_type": "single-stim", "word": "nightgown", "stimulus": "<p id=\"stim\">NIGHTGOWN</p>", "conditions": [24, 800, "v", 24000], "internal_node_id": "0.0-99.0", "trial": 3, "time_elapsed": 726184, "serialpos": 6, "key_press": -1, "wordID": 952, "type": "PRES_VIS", "trial_index": 135}, "uniqueid": "MTK3132:37QW5D2ZRHTMZ2ARD4V3ZGW6N69S81", "dateTime": 1520041008931}, {"current_trial": 136, "trialdata": {"rt": -1, "trial_type": "single-stim", "word": "clamp", "stimulus": "<p id=\"stim\">CLAMP</p>", "conditions": [24, 800, "v", 24000], "internal_node_id": "0.0-100.0", "trial": 3, "time_elapsed": 727838, "serialpos": 7, "key_press": -1, "wordID": 315, "type": "PRES_VIS", "trial_index": 136}, "uniqueid": "MTK3132:37QW5D2ZRHTMZ2ARD4V3ZGW6N69S81", "dateTime": 1520041010585}, {"current_trial": 137, "trialdata": {"rt": -1, "trial_type": "single-stim", "word": "twig", "stimulus": "<p id=\"stim\">TWIG</p>", "conditions": [24, 800, "v", 24000], "internal_node_id": "0.0-101.0", "trial": 3, "time_elapsed": 729781, "serialpos": 8, "key_press": -1, "wordID": 1526, "type": "PRES_VIS", "trial_index": 137}, "uniqueid": "MTK3132:37QW5D2ZRHTMZ2ARD4V3ZGW6N69S81", "dateTime": 1520041012528}, {"current_trial": 138, "trialdata": {"rt": -1, "trial_type": "single-stim", "word": "lightning", "stimulus": "<p id=\"stim\">LIGHTNING</p>", "conditions": [24, 800, "v", 24000], "internal_node_id": "0.0-102.0", "trial": 3, "time_elapsed": 731530, "serialpos": 9, "key_press": -1, "wordID": 819, "type": "PRES_VIS", "trial_index": 138}, "uniqueid": "MTK3132:37QW5D2ZRHTMZ2ARD4V3ZGW6N69S81", "dateTime": 1520041014277}, {"current_trial": 139, "trialdata": {"rt": -1, "trial_type": "single-stim", "word": "racket", "stimulus": "<p id=\"stim\">RACKET</p>", "conditions": [24, 800, "v", 24000], "internal_node_id": "0.0-103.0", "trial": 3, "time_elapsed": 733468, "serialpos": 10, "key_press": -1, "wordID": 1154, "type": "PRES_VIS", "trial_index": 139}, "uniqueid": "MTK3132:37QW5D2ZRHTMZ2ARD4V3ZGW6N69S81", "dateTime": 1520041016215}, {"current_trial": 140, "trialdata": {"rt": -1, "trial_type": "single-stim", "word": "tutu", "stimulus": "<p id=\"stim\">TUTU</p>", "conditions": [24, 800, "v", 24000], "internal_node_id": "0.0-104.0", "trial": 3, "time_elapsed": 735183, "serialpos": 11, "key_press": -1, "wordID": 1523, "type": "PRES_VIS", "trial_index": 140}, "uniqueid": "MTK3132:37QW5D2ZRHTMZ2ARD4V3ZGW6N69S81", "dateTime": 1520041017930}, {"current_trial": 141, "trialdata": {"rt": -1, "trial_type": "single-stim", "word": "inmate", "stimulus": "<p id=\"stim\">INMATE</p>", "conditions": [24, 800, "v", 24000], "internal_node_id": "0.0-105.0", "trial": 3, "time_elapsed": 736836, "serialpos": 12, "key_press": -1, "wordID": 737, "type": "PRES_VIS", "trial_index": 141}, "uniqueid": "MTK3132:37QW5D2ZRHTMZ2ARD4V3ZGW6N69S81", "dateTime": 1520041019583}, {"current_trial": 142, "trialdata": {"rt": -1, "trial_type": "single-stim", "word": "smog", "stimulus": "<p id=\"stim\">SMOG</p>", "conditions": [24, 800, "v", 24000], "internal_node_id": "0.0-106.0", "trial": 3, "time_elapsed": 738706, "serialpos": 13, "key_press": -1, "wordID": 1329, "type": "PRES_VIS", "trial_index": 142}, "uniqueid": "MTK3132:37QW5D2ZRHTMZ2ARD4V3ZGW6N69S81", "dateTime": 1520041021453}, {"current_trial": 143, "trialdata": {"rt": -1, "trial_type": "single-stim", "word": "queen", "stimulus": "<p id=\"stim\">QUEEN</p>", "conditions": [24, 800, "v", 24000], "internal_node_id": "0.0-107.0", "trial": 3, "time_elapsed": 740344, "serialpos": 14, "key_press": -1, "wordID": 1148, "type": "PRES_VIS", "trial_index": 143}, "uniqueid": "MTK3132:37QW5D2ZRHTMZ2ARD4V3ZGW6N69S81", "dateTime": 1520041023091}, {"current_trial": 144, "trialdata": {"rt": -1, "trial_type": "single-stim", "word": "cashier", "stimulus": "<p id=\"stim\">CASHIER</p>", "conditions": [24, 800, "v", 24000], "internal_node_id": "0.0-108.0", "trial": 3, "time_elapsed": 742130, "serialpos": 15, "key_press": -1, "wordID": 253, "type": "PRES_VIS", "trial_index": 144}, "uniqueid": "MTK3132:37QW5D2ZRHTMZ2ARD4V3ZGW6N69S81", "dateTime": 1520041024877}, {"current_trial": 145, "trialdata": {"rt": -1, "trial_type": "single-stim", "word": "chipmunk", "stimulus": "<p id=\"stim\">CHIPMUNK</p>", "conditions": [24, 800, "v", 24000], "internal_node_id": "0.0-109.0", "trial": 3, "time_elapsed": 743784, "serialpos": 16, "key_press": -1, "wordID": 303, "type": "PRES_VIS", "trial_index": 145}, "uniqueid": "MTK3132:37QW5D2ZRHTMZ2ARD4V3ZGW6N69S81", "dateTime": 1520041026531}, {"current_trial": 146, "trialdata": {"rt": -1, "trial_type": "single-stim", "word": "guard", "stimulus": "<p id=\"stim\">GUARD</p>", "conditions": [24, 800, "v", 24000], "internal_node_id": "0.0-110.0", "trial": 3, "time_elapsed": 745645, "serialpos": 17, "key_press": -1, "wordID": 666, "type": "PRES_VIS", "trial_index": 146}, "uniqueid": "MTK3132:37QW5D2ZRHTMZ2ARD4V3ZGW6N69S81", "dateTime": 1520041028392}, {"current_trial": 147, "trialdata": {"rt": -1, "trial_type": "single-stim", "word": "woman", "stimulus": "<p id=\"stim\">WOMAN</p>", "conditions": [24, 800, "v", 24000], "internal_node_id": "0.0-111.0", "trial": 3, "time_elapsed": 747328, "serialpos": 18, "key_press": -1, "wordID": 1619, "type": "PRES_VIS", "trial_index": 147}, "uniqueid": "MTK3132:37QW5D2ZRHTMZ2ARD4V3ZGW6N69S81", "dateTime": 1520041030076}, {"current_trial": 148, "trialdata": {"rt": -1, "trial_type": "single-stim", "word": "lady", "stimulus": "<p id=\"stim\">LADY</p>", "conditions": [24, 800, "v", 24000], "internal_node_id": "0.0-112.0", "trial": 3, "time_elapsed": 749248, "serialpos": 19, "key_press": -1, "wordID": 793, "type": "PRES_VIS", "trial_index": 148}, "uniqueid": "MTK3132:37QW5D2ZRHTMZ2ARD4V3ZGW6N69S81", "dateTime": 1520041031995}, {"current_trial": 149, "trialdata": {"rt": -1, "trial_type": "single-stim", "word": "ozone", "stimulus": "<p id=\"stim\">OZONE</p>", "conditions": [24, 800, "v", 24000], "internal_node_id": "0.0-113.0", "trial": 3, "time_elapsed": 751101, "serialpos": 20, "key_press": -1, "wordID": 995, "type": "PRES_VIS", "trial_index": 149}, "uniqueid": "MTK3132:37QW5D2ZRHTMZ2ARD4V3ZGW6N69S81", "dateTime": 1520041033848}, {"current_trial": 150, "trialdata": {"rt": -1, "trial_type": "single-stim", "word": "popcorn", "stimulus": "<p id=\"stim\">POPCORN</p>", "conditions": [24, 800, "v", 24000], "internal_node_id": "0.0-114.0", "trial": 3, "time_elapsed": 752897, "serialpos": 21, "key_press": -1, "wordID": 1103, "type": "PRES_VIS", "trial_index": 150}, "uniqueid": "MTK3132:37QW5D2ZRHTMZ2ARD4V3ZGW6N69S81", "dateTime": 1520041035644}, {"current_trial": 151, "trialdata": {"rt": -1, "trial_type": "single-stim", "word": "supper", "stimulus": "<p id=\"stim\">SUPPER</p>", "conditions": [24, 800, "v", 24000], "internal_node_id": "0.0-115.0", "trial": 3, "time_elapsed": 754828, "serialpos": 22, "key_press": -1, "wordID": 1410, "type": "PRES_VIS", "trial_index": 151}, "uniqueid": "MTK3132:37QW5D2ZRHTMZ2ARD4V3ZGW6N69S81", "dateTime": 1520041037575}, {"current_trial": 152, "trialdata": {"rt": -1, "trial_type": "single-stim", "word": "scarecrow", "stimulus": "<p id=\"stim\">SCARECROW</p>", "conditions": [24, 800, "v", 24000], "internal_node_id": "0.0-116.0", "trial": 3, "time_elapsed": 756749, "serialpos": 23, "key_press": -1, "wordID": 1244, "type": "PRES_VIS", "trial_index": 152}, "uniqueid": "MTK3132:37QW5D2ZRHTMZ2ARD4V3ZGW6N69S81", "dateTime": 1520041039497}, {"current_trial": 153, "trialdata": {"rt": -1, "trial_type": "single-stim", "stimulus": "", "internal_node_id": "0.0-117.0-0.0", "time_elapsed": 758948, "key_press": -1, "type": "PRE_RECALL_DELAY", "trial_index": 153}, "uniqueid": "MTK3132:37QW5D2ZRHTMZ2ARD4V3ZGW6N69S81", "dateTime": 1520041041696}, {"current_trial": 154, "trialdata": {"rt": -1000, "trial_type": "single-audio", "stimulus": "/static/audio/400Hz.wav", "internal_node_id": "0.0-118.0", "time_elapsed": 759451, "key_press": -1, "type": "PRE_RECALL_ALERT", "trial_index": 154}, "uniqueid": "MTK3132:37QW5D2ZRHTMZ2ARD4V3ZGW6N69S81", "dateTime": 1520041042198}, {"current_trial": 155, "trialdata": {"rt": [3896, 5181, 6871], "recwords": ["scarecrow", "woman", "lady"], "key_times": [1894, 2107, 2299, 2424, 2505, 2954, 3213, 3357, 3512, 3896, 4312, 4437, 4518, 4658, 4748, 5181, 6283, 6390, 6573, 6657, 6871], "trial_type": "free-recall", "conditions": [24, 800, "v", 24000], "internal_node_id": "0.0-119.0-0.0", "key_presses": [83, 67, 65, 82, 69, 67, 82, 79, 87, 13, 87, 79, 77, 65, 78, 13, 76, 65, 68, 89, 13], "trial": 3, "time_elapsed": 819456, "type": "FREE_RECALL", "trial_index": 155}, "uniqueid": "MTK3132:37QW5D2ZRHTMZ2ARD4V3ZGW6N69S81", "dateTime": 1520041102207}, {"current_trial": 156, "trialdata": {"rt": 2265, "trial_type": "text", "internal_node_id": "0.0-120.0", "time_elapsed": 823728, "key_press": 32, "type": "INSTRUCTIONS", "trial_index": 156}, "uniqueid": "MTK3132:37QW5D2ZRHTMZ2ARD4V3ZGW6N69S81", "dateTime": 1520041106475}, {"current_trial": 157, "trialdata": {"rt": [3169, 6327, 8064, 9394, 11778], "trial_type": "math-distractor", "key_times": [2784, 2941, 3169, 6036, 6104, 6327, 7653, 7814, 8064, 9146, 9242, 9394, 11442, 11531, 11778], "responses": ["21", "19", "16", "15", "19"], "num2": [8, 6, 6, 3, 7, 8], "num3": [4, 4, 7, 5, 4, 2], "conditions": [12, 1600, "v", 12000], "internal_node_id": "0.0-121.0", "key_presses": [50, 49, 13, 49, 57, 13, 49, 54, 13, 49, 53, 13, 49, 57, 13], "trial": 4, "time_elapsed": 837733, "type": "DISTRACTOR", "trial_index": 157, "num1": [9, 9, 3, 7, 8, 1]}, "uniqueid": "MTK3132:37QW5D2ZRHTMZ2ARD4V3ZGW6N69S81", "dateTime": 1520041120481}, {"current_trial": 158, "trialdata": {"rt": -1, "trial_type": "single-stim", "stimulus": "<p id=\"stim\">10</p>", "internal_node_id": "0.0-122.0-0.0", "time_elapsed": 840738, "key_press": -1, "trial_index": 158}, "uniqueid": "MTK3132:37QW5D2ZRHTMZ2ARD4V3ZGW6N69S81", "dateTime": 1520041123485}, {"current_trial": 159, "trialdata": {"rt": -1, "trial_type": "single-stim", "stimulus": "<p id=\"stim\">9</p>", "internal_node_id": "0.0-122.0-1.0", "time_elapsed": 841740, "key_press": -1, "trial_index": 159}, "uniqueid": "MTK3132:37QW5D2ZRHTMZ2ARD4V3ZGW6N69S81", "dateTime": 1520041124487}, {"current_trial": 160, "trialdata": {"rt": -1, "trial_type": "single-stim", "stimulus": "<p id=\"stim\">8</p>", "internal_node_id": "0.0-122.0-2.0", "time_elapsed": 842743, "key_press": -1, "trial_index": 160}, "uniqueid": "MTK3132:37QW5D2ZRHTMZ2ARD4V3ZGW6N69S81", "dateTime": 1520041125490}, {"current_trial": 161, "trialdata": {"rt": -1, "trial_type": "single-stim", "stimulus": "<p id=\"stim\">7</p>", "internal_node_id": "0.0-122.0-3.0", "time_elapsed": 843744, "key_press": -1, "trial_index": 161}, "uniqueid": "MTK3132:37QW5D2ZRHTMZ2ARD4V3ZGW6N69S81", "dateTime": 1520041126492}, {"current_trial": 162, "trialdata": {"rt": -1, "trial_type": "single-stim", "stimulus": "<p id=\"stim\">6</p>", "internal_node_id": "0.0-122.0-4.0", "time_elapsed": 844746, "key_press": -1, "trial_index": 162}, "uniqueid": "MTK3132:37QW5D2ZRHTMZ2ARD4V3ZGW6N69S81", "dateTime": 1520041127493}, {"current_trial": 163, "trialdata": {"rt": -1, "trial_type": "single-stim", "stimulus": "<p id=\"stim\">5</p>", "internal_node_id": "0.0-122.0-5.0", "time_elapsed": 845749, "key_press": -1, "trial_index": 163}, "uniqueid": "MTK3132:37QW5D2ZRHTMZ2ARD4V3ZGW6N69S81", "dateTime": 1520041128496}, {"current_trial": 164, "trialdata": {"rt": -1, "trial_type": "single-stim", "stimulus": "<p id=\"stim\">4</p>", "internal_node_id": "0.0-122.0-6.0", "time_elapsed": 846750, "key_press": -1, "trial_index": 164}, "uniqueid": "MTK3132:37QW5D2ZRHTMZ2ARD4V3ZGW6N69S81", "dateTime": 1520041129498}, {"current_trial": 165, "trialdata": {"rt": -1, "trial_type": "single-stim", "stimulus": "<p id=\"stim\">3</p>", "internal_node_id": "0.0-122.0-7.0", "time_elapsed": 847752, "key_press": -1, "trial_index": 165}, "uniqueid": "MTK3132:37QW5D2ZRHTMZ2ARD4V3ZGW6N69S81", "dateTime": 1520041130499}, {"current_trial": 166, "trialdata": {"rt": -1, "trial_type": "single-stim", "stimulus": "<p id=\"stim\">2</p>", "internal_node_id": "0.0-122.0-8.0", "time_elapsed": 848755, "key_press": -1, "trial_index": 166}, "uniqueid": "MTK3132:37QW5D2ZRHTMZ2ARD4V3ZGW6N69S81", "dateTime": 1520041131502}, {"current_trial": 167, "trialdata": {"rt": -1, "trial_type": "single-stim", "stimulus": "<p id=\"stim\">1</p>", "internal_node_id": "0.0-122.0-9.0", "time_elapsed": 849757, "key_press": -1, "trial_index": 167}, "uniqueid": "MTK3132:37QW5D2ZRHTMZ2ARD4V3ZGW6N69S81", "dateTime": 1520041132504}, {"current_trial": 168, "trialdata": {"rt": -1, "trial_type": "single-stim", "stimulus": "<p id=\"stim\">+</p>", "internal_node_id": "0.0-123.0-0.0", "time_elapsed": 851259, "key_press": -1, "type": "FIXATION", "trial_index": 168}, "uniqueid": "MTK3132:37QW5D2ZRHTMZ2ARD4V3ZGW6N69S81", "dateTime": 1520041134006}, {"current_trial": 169, "trialdata": {"rt": -1, "trial_type": "single-stim", "word": "mammal", "stimulus": "<p id=\"stim\">MAMMAL</p>", "conditions": [12, 1600, "v", 12000], "internal_node_id": "0.0-124.0", "trial": 4, "time_elapsed": 852861, "serialpos": 0, "key_press": -1, "wordID": 860, "type": "PRES_VIS", "trial_index": 169}, "uniqueid": "MTK3132:37QW5D2ZRHTMZ2ARD4V3ZGW6N69S81", "dateTime": 1520041135608}, {"current_trial": 170, "trialdata": {"rt": -1, "trial_type": "single-stim", "word": "pliers", "stimulus": "<p id=\"stim\">PLIERS</p>", "conditions": [12, 1600, "v", 12000], "internal_node_id": "0.0-125.0", "trial": 4, "time_elapsed": 855275, "serialpos": 1, "key_press": -1, "wordID": 1088, "type": "PRES_VIS", "trial_index": 170}, "uniqueid": "MTK3132:37QW5D2ZRHTMZ2ARD4V3ZGW6N69S81", "dateTime": 1520041138022}, {"current_trial": 171, "trialdata": {"rt": -1, "trial_type": "single-stim", "word": "dashboard", "stimulus": "<p id=\"stim\">DASHBOARD</p>", "conditions": [12, 1600, "v", 12000], "internal_node_id": "0.0-126.0", "trial": 4, "time_elapsed": 857716, "serialpos": 2, "key_press": -1, "wordID": 440, "type": "PRES_VIS", "trial_index": 171}, "uniqueid": "MTK3132:37QW5D2ZRHTMZ2ARD4V3ZGW6N69S81", "dateTime": 1520041140463}, {"current_trial": 172, "trialdata": {"rt": -1, "trial_type": "single-stim", "word": "sticker", "stimulus": "<p id=\"stim\">STICKER</p>", "conditions": [12, 1600, "v", 12000], "internal_node_id": "0.0-127.0", "trial": 4, "time_elapsed": 860292, "serialpos": 3, "key_press": -1, "wordID": 1381, "type": "PRES_VIS", "trial_index": 172}, "uniqueid": "MTK3132:37QW5D2ZRHTMZ2ARD4V3ZGW6N69S81", "dateTime": 1520041143040}, {"current_trial": 173, "trialdata": {"rt": -1, "trial_type": "single-stim", "word": "beast", "stimulus": "<p id=\"stim\">BEAST</p>", "conditions": [12, 1600, "v", 12000], "internal_node_id": "0.0-128.0", "trial": 4, "time_elapsed": 862871, "serialpos": 4, "key_press": -1, "wordID": 107, "type": "PRES_VIS", "trial_index": 173}, "uniqueid": "MTK3132:37QW5D2ZRHTMZ2ARD4V3ZGW6N69S81", "dateTime": 1520041145618}, {"current_trial": 174, "trialdata": {"rt": -1, "trial_type": "single-stim", "word": "france", "stimulus": "<p id=\"stim\">FRANCE</p>", "conditions": [12, 1600, "v", 12000], "internal_node_id": "0.0-129.0", "trial": 4, "time_elapsed": 865547, "serialpos": 5, "key_press": -1, "wordID": 600, "type": "PRES_VIS", "trial_index": 174}, "uniqueid": "MTK3132:37QW5D2ZRHTMZ2ARD4V3ZGW6N69S81", "dateTime": 1520041148294}, {"current_trial": 175, "trialdata": {"rt": -1, "trial_type": "single-stim", "word": "shark", "stimulus": "<p id=\"stim\">SHARK</p>", "conditions": [12, 1600, "v", 12000], "internal_node_id": "0.0-130.0", "trial": 4, "time_elapsed": 868234, "serialpos": 6, "key_press": -1, "wordID": 1274, "type": "PRES_VIS", "trial_index": 175}, "uniqueid": "MTK3132:37QW5D2ZRHTMZ2ARD4V3ZGW6N69S81", "dateTime": 1520041150982}, {"current_trial": 176, "trialdata": {"rt": -1, "trial_type": "single-stim", "word": "dolphin", "stimulus": "<p id=\"stim\">DOLPHIN</p>", "conditions": [12, 1600, "v", 12000], "internal_node_id": "0.0-131.0", "trial": 4, "time_elapsed": 870706, "serialpos": 7, "key_press": -1, "wordID": 482, "type": "PRES_VIS", "trial_index": 176}, "uniqueid": "MTK3132:37QW5D2ZRHTMZ2ARD4V3ZGW6N69S81", "dateTime": 1520041153453}, {"current_trial": 177, "trialdata": {"rt": -1, "trial_type": "single-stim", "word": "cyclone", "stimulus": "<p id=\"stim\">CYCLONE</p>", "conditions": [12, 1600, "v", 12000], "internal_node_id": "0.0-132.0", "trial": 4, "time_elapsed": 873178, "serialpos": 8, "key_press": -1, "wordID": 430, "type": "PRES_VIS", "trial_index": 177}, "uniqueid": "MTK3132:37QW5D2ZRHTMZ2ARD4V3ZGW6N69S81", "dateTime": 1520041155925}, {"current_trial": 178, "trialdata": {"rt": -1, "trial_type": "single-stim", "word": "barley", "stimulus": "<p id=\"stim\">BARLEY</p>", "conditions": [12, 1600, "v", 12000], "internal_node_id": "0.0-133.0", "trial": 4, "time_elapsed": 875725, "serialpos": 9, "key_press": -1, "wordID": 87, "type": "PRES_VIS", "trial_index": 178}, "uniqueid": "MTK3132:37QW5D2ZRHTMZ2ARD4V3ZGW6N69S81", "dateTime": 1520041158472}, {"current_trial": 179, "trialdata": {"rt": -1, "trial_type": "single-stim", "word": "penguin", "stimulus": "<p id=\"stim\">PENGUIN</p>", "conditions": [12, 1600, "v", 12000], "internal_node_id": "0.0-134.0", "trial": 4, "time_elapsed": 878177, "serialpos": 10, "key_press": -1, "wordID": 1043, "type": "PRES_VIS", "trial_index": 179}, "uniqueid": "MTK3132:37QW5D2ZRHTMZ2ARD4V3ZGW6N69S81", "dateTime": 1520041160924}, {"current_trial": 180, "trialdata": {"rt": -1, "trial_type": "single-stim", "word": "mars", "stimulus": "<p id=\"stim\">MARS</p>", "conditions": [12, 1600, "v", 12000], "internal_node_id": "0.0-135.0", "trial": 4, "time_elapsed": 880676, "serialpos": 11, "key_press": -1, "wordID": 872, "type": "PRES_VIS", "trial_index": 180}, "uniqueid": "MTK3132:37QW5D2ZRHTMZ2ARD4V3ZGW6N69S81", "dateTime": 1520041163423}, {"current_trial": 181, "trialdata": {"rt": -1, "trial_type": "single-stim", "stimulus": "", "internal_node_id": "0.0-136.0-0.0", "time_elapsed": 883118, "key_press": -1, "type": "PRE_RECALL_DELAY", "trial_index": 181}, "uniqueid": "MTK3132:37QW5D2ZRHTMZ2ARD4V3ZGW6N69S81", "dateTime": 1520041165865}, {"current_trial": 182, "trialdata": {"rt": -1000, "trial_type": "single-audio", "stimulus": "/static/audio/400Hz.wav", "internal_node_id": "0.0-137.0", "time_elapsed": 883620, "key_press": -1, "type": "PRE_RECALL_ALERT", "trial_index": 182}, "uniqueid": "MTK3132:37QW5D2ZRHTMZ2ARD4V3ZGW6N69S81", "dateTime": 1520041166367}, {"current_trial": 183, "trialdata": {"rt": [5715, 11212, 17736, 20901, 28688], "recwords": ["mars", "dashboard", "shark", "dolphin", "penguin"], "key_times": [4605, 4740, 4876, 5011, 5715, 9250, 9360, 9488, 9533, 9785, 9914, 10068, 10144, 10417, 11212, 15707, 15850, 15959, 16101, 16175, 17736, 19648, 19808, 20074, 20243, 20379, 20534, 20648, 20901, 27168, 27315, 27405, 27537, 27666, 27752, 27942, 28688], "trial_type": "free-recall", "conditions": [12, 1600, "v", 12000], "internal_node_id": "0.0-138.0-0.0", "key_presses": [77, 65, 82, 83, 32, 68, 65, 83, 72, 66, 79, 65, 82, 68, 32, 83, 72, 65, 82, 75, 32, 68, 79, 76, 80, 72, 73, 78, 32, 80, 69, 78, 71, 85, 73, 78, 13], "trial": 4, "time_elapsed": 943624, "type": "FREE_RECALL", "trial_index": 183}, "uniqueid": "MTK3132:37QW5D2ZRHTMZ2ARD4V3ZGW6N69S81", "dateTime": 1520041226379}, {"current_trial": 184, "trialdata": {"rt": 10413, "trial_type": "text", "internal_node_id": "0.0-139.0", "time_elapsed": 956047, "key_press": 32, "type": "INSTRUCTIONS", "trial_index": 184}, "uniqueid": "MTK3132:37QW5D2ZRHTMZ2ARD4V3ZGW6N69S81", "dateTime": 1520041238794}, {"current_trial": 185, "trialdata": {"rt": [2927, 6448, 9271, 11184], "trial_type": "math-distractor", "key_times": [2321, 2499, 2927, 5363, 5446, 5834, 6448, 8916, 9062, 9271, 10904, 11184], "responses": ["16", "17 ", "13", "9"], "num2": [5, 7, 2, 2, 2], "num3": [7, 3, 9, 6, 6], "conditions": [24, 1600, "v", 12000], "internal_node_id": "0.0-140.0", "key_presses": [49, 54, 13, 49, 55, 32, 13, 49, 51, 13, 57, 13], "trial": 5, "time_elapsed": 970052, "type": "DISTRACTOR", "trial_index": 185, "num1": [4, 7, 2, 1, 7]}, "uniqueid": "MTK3132:37QW5D2ZRHTMZ2ARD4V3ZGW6N69S81", "dateTime": 1520041252799}, {"current_trial": 186, "trialdata": {"rt": -1, "trial_type": "single-stim", "stimulus": "<p id=\"stim\">10</p>", "internal_node_id": "0.0-141.0-0.0", "time_elapsed": 973053, "key_press": -1, "trial_index": 186}, "uniqueid": "MTK3132:37QW5D2ZRHTMZ2ARD4V3ZGW6N69S81", "dateTime": 1520041255800}, {"current_trial": 187, "trialdata": {"rt": -1, "trial_type": "single-stim", "stimulus": "<p id=\"stim\">9</p>", "internal_node_id": "0.0-141.0-1.0", "time_elapsed": 974055, "key_press": -1, "trial_index": 187}, "uniqueid": "MTK3132:37QW5D2ZRHTMZ2ARD4V3ZGW6N69S81", "dateTime": 1520041256802}, {"current_trial": 188, "trialdata": {"rt": -1, "trial_type": "single-stim", "stimulus": "<p id=\"stim\">8</p>", "internal_node_id": "0.0-141.0-2.0", "time_elapsed": 975055, "key_press": -1, "trial_index": 188}, "uniqueid": "MTK3132:37QW5D2ZRHTMZ2ARD4V3ZGW6N69S81", "dateTime": 1520041257803}, {"current_trial": 189, "trialdata": {"rt": -1, "trial_type": "single-stim", "stimulus": "<p id=\"stim\">7</p>", "internal_node_id": "0.0-141.0-3.0", "time_elapsed": 976058, "key_press": -1, "trial_index": 189}, "uniqueid": "MTK3132:37QW5D2ZRHTMZ2ARD4V3ZGW6N69S81", "dateTime": 1520041258805}, {"current_trial": 190, "trialdata": {"rt": -1, "trial_type": "single-stim", "stimulus": "<p id=\"stim\">6</p>", "internal_node_id": "0.0-141.0-4.0", "time_elapsed": 977061, "key_press": -1, "trial_index": 190}, "uniqueid": "MTK3132:37QW5D2ZRHTMZ2ARD4V3ZGW6N69S81", "dateTime": 1520041259808}, {"current_trial": 191, "trialdata": {"rt": -1, "trial_type": "single-stim", "stimulus": "<p id=\"stim\">5</p>", "internal_node_id": "0.0-141.0-5.0", "time_elapsed": 978062, "key_press": -1, "trial_index": 191}, "uniqueid": "MTK3132:37QW5D2ZRHTMZ2ARD4V3ZGW6N69S81", "dateTime": 1520041260810}, {"current_trial": 192, "trialdata": {"rt": -1, "trial_type": "single-stim", "stimulus": "<p id=\"stim\">4</p>", "internal_node_id": "0.0-141.0-6.0", "time_elapsed": 979064, "key_press": -1, "trial_index": 192}, "uniqueid": "MTK3132:37QW5D2ZRHTMZ2ARD4V3ZGW6N69S81", "dateTime": 1520041261811}, {"current_trial": 193, "trialdata": {"rt": -1, "trial_type": "single-stim", "stimulus": "<p id=\"stim\">3</p>", "internal_node_id": "0.0-141.0-7.0", "time_elapsed": 980066, "key_press": -1, "trial_index": 193}, "uniqueid": "MTK3132:37QW5D2ZRHTMZ2ARD4V3ZGW6N69S81", "dateTime": 1520041262813}, {"current_trial": 194, "trialdata": {"rt": -1, "trial_type": "single-stim", "stimulus": "<p id=\"stim\">2</p>", "internal_node_id": "0.0-141.0-8.0", "time_elapsed": 981068, "key_press": -1, "trial_index": 194}, "uniqueid": "MTK3132:37QW5D2ZRHTMZ2ARD4V3ZGW6N69S81", "dateTime": 1520041263815}, {"current_trial": 195, "trialdata": {"rt": -1, "trial_type": "single-stim", "stimulus": "<p id=\"stim\">1</p>", "internal_node_id": "0.0-141.0-9.0", "time_elapsed": 982071, "key_press": -1, "trial_index": 195}, "uniqueid": "MTK3132:37QW5D2ZRHTMZ2ARD4V3ZGW6N69S81", "dateTime": 1520041264818}, {"current_trial": 196, "trialdata": {"rt": -1, "trial_type": "single-stim", "stimulus": "<p id=\"stim\">+</p>", "internal_node_id": "0.0-142.0-0.0", "time_elapsed": 983574, "key_press": -1, "type": "FIXATION", "trial_index": 196}, "uniqueid": "MTK3132:37QW5D2ZRHTMZ2ARD4V3ZGW6N69S81", "dateTime": 1520041266321}, {"current_trial": 197, "trialdata": {"rt": -1, "trial_type": "single-stim", "word": "hostess", "stimulus": "<p id=\"stim\">HOSTESS</p>", "conditions": [24, 1600, "v", 12000], "internal_node_id": "0.0-143.0", "trial": 5, "time_elapsed": 985176, "serialpos": 0, "key_press": -1, "wordID": 722, "type": "PRES_VIS", "trial_index": 197}, "uniqueid": "MTK3132:37QW5D2ZRHTMZ2ARD4V3ZGW6N69S81", "dateTime": 1520041267923}, {"current_trial": 198, "trialdata": {"rt": -1, "trial_type": "single-stim", "word": "soda", "stimulus": "<p id=\"stim\">SODA</p>", "conditions": [24, 1600, "v", 12000], "internal_node_id": "0.0-144.0", "trial": 5, "time_elapsed": 987810, "serialpos": 1, "key_press": -1, "wordID": 1340, "type": "PRES_VIS", "trial_index": 198}, "uniqueid": "MTK3132:37QW5D2ZRHTMZ2ARD4V3ZGW6N69S81", "dateTime": 1520041270557}, {"current_trial": 199, "trialdata": {"rt": -1, "trial_type": "single-stim", "word": "champagne", "stimulus": "<p id=\"stim\">CHAMPAGNE</p>", "conditions": [24, 1600, "v", 12000], "internal_node_id": "0.0-145.0", "trial": 5, "time_elapsed": 990370, "serialpos": 2, "key_press": -1, "wordID": 277, "type": "PRES_VIS", "trial_index": 199}, "uniqueid": "MTK3132:37QW5D2ZRHTMZ2ARD4V3ZGW6N69S81", "dateTime": 1520041273118}, {"current_trial": 200, "trialdata": {"rt": -1, "trial_type": "single-stim", "word": "bison", "stimulus": "<p id=\"stim\">BISON</p>", "conditions": [24, 1600, "v", 12000], "internal_node_id": "0.0-146.0", "trial": 5, "time_elapsed": 992843, "serialpos": 3, "key_press": -1, "wordID": 130, "type": "PRES_VIS", "trial_index": 200}, "uniqueid": "MTK3132:37QW5D2ZRHTMZ2ARD4V3ZGW6N69S81", "dateTime": 1520041275590}, {"current_trial": 201, "trialdata": {"rt": -1, "trial_type": "single-stim", "word": "scarf", "stimulus": "<p id=\"stim\">SCARF</p>", "conditions": [24, 1600, "v", 12000], "internal_node_id": "0.0-147.0", "trial": 5, "time_elapsed": 995567, "serialpos": 4, "key_press": -1, "wordID": 1245, "type": "PRES_VIS", "trial_index": 201}, "uniqueid": "MTK3132:37QW5D2ZRHTMZ2ARD4V3ZGW6N69S81", "dateTime": 1520041278314}, {"current_trial": 202, "trialdata": {"rt": -1, "trial_type": "single-stim", "word": "shirt", "stimulus": "<p id=\"stim\">SHIRT</p>", "conditions": [24, 1600, "v", 12000], "internal_node_id": "0.0-148.0", "trial": 5, "time_elapsed": 998256, "serialpos": 5, "key_press": -1, "wordID": 1286, "type": "PRES_VIS", "trial_index": 202}, "uniqueid": "MTK3132:37QW5D2ZRHTMZ2ARD4V3ZGW6N69S81", "dateTime": 1520041281003}, {"current_trial": 203, "trialdata": {"rt": -1, "trial_type": "single-stim", "word": "cattle", "stimulus": "<p id=\"stim\">CATTLE</p>", "conditions": [24, 1600, "v", 12000], "internal_node_id": "0.0-149.0", "trial": 5, "time_elapsed": 1000816, "serialpos": 6, "key_press": -1, "wordID": 260, "type": "PRES_VIS", "trial_index": 203}, "uniqueid": "MTK3132:37QW5D2ZRHTMZ2ARD4V3ZGW6N69S81", "dateTime": 1520041283564}, {"current_trial": 204, "trialdata": {"rt": -1, "trial_type": "single-stim", "word": "subway", "stimulus": "<p id=\"stim\">SUBWAY</p>", "conditions": [24, 1600, "v", 12000], "internal_node_id": "0.0-150.0", "trial": 5, "time_elapsed": 1003609, "serialpos": 7, "key_press": -1, "wordID": 1399, "type": "PRES_VIS", "trial_index": 204}, "uniqueid": "MTK3132:37QW5D2ZRHTMZ2ARD4V3ZGW6N69S81", "dateTime": 1520041286356}, {"current_trial": 205, "trialdata": {"rt": -1, "trial_type": "single-stim", "word": "breast", "stimulus": "<p id=\"stim\">BREAST</p>", "conditions": [24, 1600, "v", 12000], "internal_node_id": "0.0-151.0", "trial": 5, "time_elapsed": 1006144, "serialpos": 8, "key_press": -1, "wordID": 170, "type": "PRES_VIS", "trial_index": 205}, "uniqueid": "MTK3132:37QW5D2ZRHTMZ2ARD4V3ZGW6N69S81", "dateTime": 1520041288891}, {"current_trial": 206, "trialdata": {"rt": -1, "trial_type": "single-stim", "word": "compass", "stimulus": "<p id=\"stim\">COMPASS</p>", "conditions": [24, 1600, "v", 12000], "internal_node_id": "0.0-152.0", "trial": 5, "time_elapsed": 1008814, "serialpos": 9, "key_press": -1, "wordID": 357, "type": "PRES_VIS", "trial_index": 206}, "uniqueid": "MTK3132:37QW5D2ZRHTMZ2ARD4V3ZGW6N69S81", "dateTime": 1520041291561}, {"current_trial": 207, "trialdata": {"rt": -1, "trial_type": "single-stim", "word": "wife", "stimulus": "<p id=\"stim\">WIFE</p>", "conditions": [24, 1600, "v", 12000], "internal_node_id": "0.0-153.0", "trial": 5, "time_elapsed": 1011263, "serialpos": 10, "key_press": -1, "wordID": 1608, "type": "PRES_VIS", "trial_index": 207}, "uniqueid": "MTK3132:37QW5D2ZRHTMZ2ARD4V3ZGW6N69S81", "dateTime": 1520041294010}, {"current_trial": 208, "trialdata": {"rt": -1, "trial_type": "single-stim", "word": "valley", "stimulus": "<p id=\"stim\">VALLEY</p>", "conditions": [24, 1600, "v", 12000], "internal_node_id": "0.0-154.0", "trial": 5, "time_elapsed": 1013889, "serialpos": 11, "key_press": -1, "wordID": 1544, "type": "PRES_VIS", "trial_index": 208}, "uniqueid": "MTK3132:37QW5D2ZRHTMZ2ARD4V3ZGW6N69S81", "dateTime": 1520041296636}, {"current_trial": 209, "trialdata": {"rt": -1, "trial_type": "single-stim", "word": "driver", "stimulus": "<p id=\"stim\">DRIVER</p>", "conditions": [24, 1600, "v", 12000], "internal_node_id": "0.0-155.0", "trial": 5, "time_elapsed": 1016412, "serialpos": 12, "key_press": -1, "wordID": 498, "type": "PRES_VIS", "trial_index": 209}, "uniqueid": "MTK3132:37QW5D2ZRHTMZ2ARD4V3ZGW6N69S81", "dateTime": 1520041299159}, {"current_trial": 210, "trialdata": {"rt": -1, "trial_type": "single-stim", "word": "handbag", "stimulus": "<p id=\"stim\">HANDBAG</p>", "conditions": [24, 1600, "v", 12000], "internal_node_id": "0.0-156.0", "trial": 5, "time_elapsed": 1018817, "serialpos": 13, "key_press": -1, "wordID": 683, "type": "PRES_VIS", "trial_index": 210}, "uniqueid": "MTK3132:37QW5D2ZRHTMZ2ARD4V3ZGW6N69S81", "dateTime": 1520041301564}, {"current_trial": 211, "trialdata": {"rt": -1, "trial_type": "single-stim", "word": "lizard", "stimulus": "<p id=\"stim\">LIZARD</p>", "conditions": [24, 1600, "v", 12000], "internal_node_id": "0.0-157.0", "trial": 5, "time_elapsed": 1021221, "serialpos": 14, "key_press": -1, "wordID": 833, "type": "PRES_VIS", "trial_index": 211}, "uniqueid": "MTK3132:37QW5D2ZRHTMZ2ARD4V3ZGW6N69S81", "dateTime": 1520041303969}, {"current_trial": 212, "trialdata": {"rt": -1, "trial_type": "single-stim", "word": "pilot", "stimulus": "<p id=\"stim\">PILOT</p>", "conditions": [24, 1600, "v", 12000], "internal_node_id": "0.0-158.0", "trial": 5, "time_elapsed": 1024006, "serialpos": 15, "key_press": -1, "wordID": 1069, "type": "PRES_VIS", "trial_index": 212}, "uniqueid": "MTK3132:37QW5D2ZRHTMZ2ARD4V3ZGW6N69S81", "dateTime": 1520041306753}, {"current_trial": 213, "trialdata": {"rt": -1, "trial_type": "single-stim", "word": "coin", "stimulus": "<p id=\"stim\">COIN</p>", "conditions": [24, 1600, "v", 12000], "internal_node_id": "0.0-159.0", "trial": 5, "time_elapsed": 1026410, "serialpos": 16, "key_press": -1, "wordID": 342, "type": "PRES_VIS", "trial_index": 213}, "uniqueid": "MTK3132:37QW5D2ZRHTMZ2ARD4V3ZGW6N69S81", "dateTime": 1520041309158}, {"current_trial": 214, "trialdata": {"rt": -1, "trial_type": "single-stim", "word": "hero", "stimulus": "<p id=\"stim\">HERO</p>", "conditions": [24, 1600, "v", 12000], "internal_node_id": "0.0-160.0", "trial": 5, "time_elapsed": 1028909, "serialpos": 17, "key_press": -1, "wordID": 705, "type": "PRES_VIS", "trial_index": 214}, "uniqueid": "MTK3132:37QW5D2ZRHTMZ2ARD4V3ZGW6N69S81", "dateTime": 1520041311656}, {"current_trial": 215, "trialdata": {"rt": -1, "trial_type": "single-stim", "word": "denim", "stimulus": "<p id=\"stim\">DENIM</p>", "conditions": [24, 1600, "v", 12000], "internal_node_id": "0.0-161.0", "trial": 5, "time_elapsed": 1031450, "serialpos": 18, "key_press": -1, "wordID": 445, "type": "PRES_VIS", "trial_index": 215}, "uniqueid": "MTK3132:37QW5D2ZRHTMZ2ARD4V3ZGW6N69S81", "dateTime": 1520041314197}, {"current_trial": 216, "trialdata": {"rt": -1, "trial_type": "single-stim", "word": "bug", "stimulus": "<p id=\"stim\">BUG</p>", "conditions": [24, 1600, "v", 12000], "internal_node_id": "0.0-162.0", "trial": 5, "time_elapsed": 1033978, "serialpos": 19, "key_press": -1, "wordID": 186, "type": "PRES_VIS", "trial_index": 216}, "uniqueid": "MTK3132:37QW5D2ZRHTMZ2ARD4V3ZGW6N69S81", "dateTime": 1520041316725}, {"current_trial": 217, "trialdata": {"rt": -1, "trial_type": "single-stim", "word": "virus", "stimulus": "<p id=\"stim\">VIRUS</p>", "conditions": [24, 1600, "v", 12000], "internal_node_id": "0.0-163.0", "trial": 5, "time_elapsed": 1036591, "serialpos": 20, "key_press": -1, "wordID": 1571, "type": "PRES_VIS", "trial_index": 217}, "uniqueid": "MTK3132:37QW5D2ZRHTMZ2ARD4V3ZGW6N69S81", "dateTime": 1520041319338}, {"current_trial": 218, "trialdata": {"rt": -1, "trial_type": "single-stim", "word": "trombone", "stimulus": "<p id=\"stim\">TROMBONE</p>", "conditions": [24, 1600, "v", 12000], "internal_node_id": "0.0-164.0", "trial": 5, "time_elapsed": 1039091, "serialpos": 21, "key_press": -1, "wordID": 1507, "type": "PRES_VIS", "trial_index": 218}, "uniqueid": "MTK3132:37QW5D2ZRHTMZ2ARD4V3ZGW6N69S81", "dateTime": 1520041321838}, {"current_trial": 219, "trialdata": {"rt": -1, "trial_type": "single-stim", "word": "football", "stimulus": "<p id=\"stim\">FOOTBALL</p>", "conditions": [24, 1600, "v", 12000], "internal_node_id": "0.0-165.0", "trial": 5, "time_elapsed": 1041776, "serialpos": 22, "key_press": -1, "wordID": 590, "type": "PRES_VIS", "trial_index": 219}, "uniqueid": "MTK3132:37QW5D2ZRHTMZ2ARD4V3ZGW6N69S81", "dateTime": 1520041324523}, {"current_trial": 220, "trialdata": {"rt": -1, "trial_type": "single-stim", "word": "dress", "stimulus": "<p id=\"stim\">DRESS</p>", "conditions": [24, 1600, "v", 12000], "internal_node_id": "0.0-166.0", "trial": 5, "time_elapsed": 1044351, "serialpos": 23, "key_press": -1, "wordID": 494, "type": "PRES_VIS", "trial_index": 220}, "uniqueid": "MTK3132:37QW5D2ZRHTMZ2ARD4V3ZGW6N69S81", "dateTime": 1520041327098}, {"current_trial": 221, "trialdata": {"rt": -1, "trial_type": "single-stim", "stimulus": "", "internal_node_id": "0.0-167.0-0.0", "time_elapsed": 1046722, "key_press": -1, "type": "PRE_RECALL_DELAY", "trial_index": 221}, "uniqueid": "MTK3132:37QW5D2ZRHTMZ2ARD4V3ZGW6N69S81", "dateTime": 1520041329470}, {"current_trial": 222, "trialdata": {"rt": -1000, "trial_type": "single-audio", "stimulus": "/static/audio/400Hz.wav", "internal_node_id": "0.0-168.0", "time_elapsed": 1047225, "key_press": -1, "type": "PRE_RECALL_ALERT", "trial_index": 222}, "uniqueid": "MTK3132:37QW5D2ZRHTMZ2ARD4V3ZGW6N69S81", "dateTime": 1520041329972}, {"current_trial": 223, "trialdata": {"rt": [6806, 11287, 13866, 16753, 39753, 44251, 51418], "recwords": ["dress", "bug", "virus", "wife", "soda", "hero", "lizard"], "key_times": [4503, 4772, 4899, 4974, 5269, 6806, 10673, 10857, 11030, 11287, 13203, 13294, 13476, 13575, 13745, 13866, 15655, 15766, 15932, 16026, 16753, 38570, 38741, 39066, 39294, 39753, 43605, 43685, 43833, 43928, 44251, 49776, 49844, 49974, 50208, 50403, 50790, 51418], "trial_type": "free-recall", "conditions": [24, 1600, "v", 12000], "internal_node_id": "0.0-169.0-0.0", "key_presses": [68, 82, 69, 83, 83, 32, 66, 85, 71, 32, 86, 73, 82, 85, 83, 32, 87, 73, 70, 69, 32, 83, 79, 68, 65, 32, 72, 69, 82, 79, 32, 76, 73, 90, 65, 82, 68, 32], "trial": 5, "time_elapsed": 1107230, "type": "FREE_RECALL", "trial_index": 223}, "uniqueid": "MTK3132:37QW5D2ZRHTMZ2ARD4V3ZGW6N69S81", "dateTime": 1520041389983}, {"current_trial": 224, "trialdata": {"rt": 2757, "trial_type": "text", "internal_node_id": "0.0-170.0", "time_elapsed": 1111994, "key_press": 32, "type": "INSTRUCTIONS", "trial_index": 224}, "uniqueid": "MTK3132:37QW5D2ZRHTMZ2ARD4V3ZGW6N69S81", "dateTime": 1520041394741}, {"current_trial": 225, "trialdata": {"rt": [4525, 6380, 8567, 10269, 13146, 14982, 17388, 20103, 23997], "trial_type": "math-distractor", "key_times": [3858, 4042, 4525, 6101, 6235, 6380, 8238, 8352, 8567, 10035, 10147, 10269, 12838, 12972, 13146, 14734, 14844, 14982, 17116, 17227, 17388, 19826, 19922, 20103, 23187, 23388, 23997], "responses": ["12", "13", "26", "14", "25", "14", "14", "18", "11"], "num2": [3, 8, 9, 8, 9, 1, 5, 9, 7, 8], "num3": [4, 2, 9, 4, 8, 7, 2, 3, 3, 1], "conditions": [12, 800, "v", 24000], "internal_node_id": "0.0-171.0", "key_presses": [49, 50, 13, 49, 51, 13, 50, 54, 13, 49, 52, 13, 50, 53, 13, 49, 52, 13, 49, 52, 13, 49, 56, 13, 49, 49, 13], "trial": 6, "time_elapsed": 1137998, "type": "DISTRACTOR", "trial_index": 225, "num1": [5, 3, 8, 2, 8, 6, 7, 6, 1, 6]}, "uniqueid": "MTK3132:37QW5D2ZRHTMZ2ARD4V3ZGW6N69S81", "dateTime": 1520041420745}, {"current_trial": 226, "trialdata": {"rt": -1, "trial_type": "single-stim", "stimulus": "<p id=\"stim\">10</p>", "internal_node_id": "0.0-172.0-0.0", "time_elapsed": 1141001, "key_press": -1, "trial_index": 226}, "uniqueid": "MTK3132:37QW5D2ZRHTMZ2ARD4V3ZGW6N69S81", "dateTime": 1520041423748}, {"current_trial": 227, "trialdata": {"rt": -1, "trial_type": "single-stim", "stimulus": "<p id=\"stim\">9</p>", "internal_node_id": "0.0-172.0-1.0", "time_elapsed": 1142004, "key_press": -1, "trial_index": 227}, "uniqueid": "MTK3132:37QW5D2ZRHTMZ2ARD4V3ZGW6N69S81", "dateTime": 1520041424751}, {"current_trial": 228, "trialdata": {"rt": -1, "trial_type": "single-stim", "stimulus": "<p id=\"stim\">8</p>", "internal_node_id": "0.0-172.0-2.0", "time_elapsed": 1143006, "key_press": -1, "trial_index": 228}, "uniqueid": "MTK3132:37QW5D2ZRHTMZ2ARD4V3ZGW6N69S81", "dateTime": 1520041425754}, {"current_trial": 229, "trialdata": {"rt": -1, "trial_type": "single-stim", "stimulus": "<p id=\"stim\">7</p>", "internal_node_id": "0.0-172.0-3.0", "time_elapsed": 1144010, "key_press": -1, "trial_index": 229}, "uniqueid": "MTK3132:37QW5D2ZRHTMZ2ARD4V3ZGW6N69S81", "dateTime": 1520041426757}, {"current_trial": 230, "trialdata": {"rt": -1, "trial_type": "single-stim", "stimulus": "<p id=\"stim\">6</p>", "internal_node_id": "0.0-172.0-4.0", "time_elapsed": 1145011, "key_press": -1, "trial_index": 230}, "uniqueid": "MTK3132:37QW5D2ZRHTMZ2ARD4V3ZGW6N69S81", "dateTime": 1520041427758}, {"current_trial": 231, "trialdata": {"rt": -1, "trial_type": "single-stim", "stimulus": "<p id=\"stim\">5</p>", "internal_node_id": "0.0-172.0-5.0", "time_elapsed": 1146014, "key_press": -1, "trial_index": 231}, "uniqueid": "MTK3132:37QW5D2ZRHTMZ2ARD4V3ZGW6N69S81", "dateTime": 1520041428761}, {"current_trial": 232, "trialdata": {"rt": -1, "trial_type": "single-stim", "stimulus": "<p id=\"stim\">4</p>", "internal_node_id": "0.0-172.0-6.0", "time_elapsed": 1147017, "key_press": -1, "trial_index": 232}, "uniqueid": "MTK3132:37QW5D2ZRHTMZ2ARD4V3ZGW6N69S81", "dateTime": 1520041429764}, {"current_trial": 233, "trialdata": {"rt": -1, "trial_type": "single-stim", "stimulus": "<p id=\"stim\">3</p>", "internal_node_id": "0.0-172.0-7.0", "time_elapsed": 1148018, "key_press": -1, "trial_index": 233}, "uniqueid": "MTK3132:37QW5D2ZRHTMZ2ARD4V3ZGW6N69S81", "dateTime": 1520041430765}, {"current_trial": 234, "trialdata": {"rt": -1, "trial_type": "single-stim", "stimulus": "<p id=\"stim\">2</p>", "internal_node_id": "0.0-172.0-8.0", "time_elapsed": 1149021, "key_press": -1, "trial_index": 234}, "uniqueid": "MTK3132:37QW5D2ZRHTMZ2ARD4V3ZGW6N69S81", "dateTime": 1520041431770}, {"current_trial": 235, "trialdata": {"rt": -1, "trial_type": "single-stim", "stimulus": "<p id=\"stim\">1</p>", "internal_node_id": "0.0-172.0-9.0", "time_elapsed": 1150025, "key_press": -1, "trial_index": 235}, "uniqueid": "MTK3132:37QW5D2ZRHTMZ2ARD4V3ZGW6N69S81", "dateTime": 1520041432772}, {"current_trial": 236, "trialdata": {"rt": -1, "trial_type": "single-stim", "stimulus": "<p id=\"stim\">+</p>", "internal_node_id": "0.0-173.0-0.0", "time_elapsed": 1151527, "key_press": -1, "type": "FIXATION", "trial_index": 236}, "uniqueid": "MTK3132:37QW5D2ZRHTMZ2ARD4V3ZGW6N69S81", "dateTime": 1520041434274}, {"current_trial": 237, "trialdata": {"rt": -1, "trial_type": "single-stim", "word": "tribe", "stimulus": "<p id=\"stim\">TRIBE</p>", "conditions": [12, 800, "v", 24000], "internal_node_id": "0.0-174.0", "trial": 6, "time_elapsed": 1152331, "serialpos": 0, "key_press": -1, "wordID": 1504, "type": "PRES_VIS", "trial_index": 237}, "uniqueid": "MTK3132:37QW5D2ZRHTMZ2ARD4V3ZGW6N69S81", "dateTime": 1520041435078}, {"current_trial": 238, "trialdata": {"rt": -1, "trial_type": "single-stim", "word": "cigar", "stimulus": "<p id=\"stim\">CIGAR</p>", "conditions": [12, 800, "v", 24000], "internal_node_id": "0.0-175.0", "trial": 6, "time_elapsed": 1153969, "serialpos": 1, "key_press": -1, "wordID": 307, "type": "PRES_VIS", "trial_index": 238}, "uniqueid": "MTK3132:37QW5D2ZRHTMZ2ARD4V3ZGW6N69S81", "dateTime": 1520041436716}, {"current_trial": 239, "trialdata": {"rt": -1, "trial_type": "single-stim", "word": "suitcase", "stimulus": "<p id=\"stim\">SUITCASE</p>", "conditions": [12, 800, "v", 24000], "internal_node_id": "0.0-176.0", "trial": 6, "time_elapsed": 1155723, "serialpos": 2, "key_press": -1, "wordID": 1402, "type": "PRES_VIS", "trial_index": 239}, "uniqueid": "MTK3132:37QW5D2ZRHTMZ2ARD4V3ZGW6N69S81", "dateTime": 1520041438470}, {"current_trial": 240, "trialdata": {"rt": -1, "trial_type": "single-stim", "word": "daughter", "stimulus": "<p id=\"stim\">DAUGHTER</p>", "conditions": [12, 800, "v", 24000], "internal_node_id": "0.0-177.0", "trial": 6, "time_elapsed": 1157359, "serialpos": 3, "key_press": -1, "wordID": 441, "type": "PRES_VIS", "trial_index": 240}, "uniqueid": "MTK3132:37QW5D2ZRHTMZ2ARD4V3ZGW6N69S81", "dateTime": 1520041440106}, {"current_trial": 241, "trialdata": {"rt": -1, "trial_type": "single-stim", "word": "chapel", "stimulus": "<p id=\"stim\">CHAPEL</p>", "conditions": [12, 800, "v", 24000], "internal_node_id": "0.0-178.0", "trial": 6, "time_elapsed": 1158967, "serialpos": 4, "key_press": -1, "wordID": 279, "type": "PRES_VIS", "trial_index": 241}, "uniqueid": "MTK3132:37QW5D2ZRHTMZ2ARD4V3ZGW6N69S81", "dateTime": 1520041441715}, {"current_trial": 242, "trialdata": {"rt": -1, "trial_type": "single-stim", "word": "tourist", "stimulus": "<p id=\"stim\">TOURIST</p>", "conditions": [12, 800, "v", 24000], "internal_node_id": "0.0-179.0", "trial": 6, "time_elapsed": 1160859, "serialpos": 5, "key_press": -1, "wordID": 1487, "type": "PRES_VIS", "trial_index": 242}, "uniqueid": "MTK3132:37QW5D2ZRHTMZ2ARD4V3ZGW6N69S81", "dateTime": 1520041443606}, {"current_trial": 243, "trialdata": {"rt": -1, "trial_type": "single-stim", "word": "airport", "stimulus": "<p id=\"stim\">AIRPORT</p>", "conditions": [12, 800, "v", 24000], "internal_node_id": "0.0-180.0", "trial": 6, "time_elapsed": 1162733, "serialpos": 6, "key_press": -1, "wordID": 12, "type": "PRES_VIS", "trial_index": 243}, "uniqueid": "MTK3132:37QW5D2ZRHTMZ2ARD4V3ZGW6N69S81", "dateTime": 1520041445480}, {"current_trial": 244, "trialdata": {"rt": -1, "trial_type": "single-stim", "word": "basement", "stimulus": "<p id=\"stim\">BASEMENT</p>", "conditions": [12, 800, "v", 24000], "internal_node_id": "0.0-181.0", "trial": 6, "time_elapsed": 1164553, "serialpos": 7, "key_press": -1, "wordID": 93, "type": "PRES_VIS", "trial_index": 244}, "uniqueid": "MTK3132:37QW5D2ZRHTMZ2ARD4V3ZGW6N69S81", "dateTime": 1520041447301}, {"current_trial": 245, "trialdata": {"rt": -1, "trial_type": "single-stim", "word": "kitchen", "stimulus": "<p id=\"stim\">KITCHEN</p>", "conditions": [12, 800, "v", 24000], "internal_node_id": "0.0-182.0", "trial": 6, "time_elapsed": 1166494, "serialpos": 8, "key_press": -1, "wordID": 777, "type": "PRES_VIS", "trial_index": 245}, "uniqueid": "MTK3132:37QW5D2ZRHTMZ2ARD4V3ZGW6N69S81", "dateTime": 1520041449241}, {"current_trial": 246, "trialdata": {"rt": -1, "trial_type": "single-stim", "word": "uncle", "stimulus": "<p id=\"stim\">UNCLE</p>", "conditions": [12, 800, "v", 24000], "internal_node_id": "0.0-183.0", "trial": 6, "time_elapsed": 1168215, "serialpos": 9, "key_press": -1, "wordID": 1535, "type": "PRES_VIS", "trial_index": 246}, "uniqueid": "MTK3132:37QW5D2ZRHTMZ2ARD4V3ZGW6N69S81", "dateTime": 1520041450962}, {"current_trial": 247, "trialdata": {"rt": -1, "trial_type": "single-stim", "word": "drink", "stimulus": "<p id=\"stim\">DRINK</p>", "conditions": [12, 800, "v", 24000], "internal_node_id": "0.0-184.0", "trial": 6, "time_elapsed": 1170174, "serialpos": 10, "key_press": -1, "wordID": 497, "type": "PRES_VIS", "trial_index": 247}, "uniqueid": "MTK3132:37QW5D2ZRHTMZ2ARD4V3ZGW6N69S81", "dateTime": 1520041452922}, {"current_trial": 248, "trialdata": {"rt": -1, "trial_type": "single-stim", "word": "sculpture", "stimulus": "<p id=\"stim\">SCULPTURE</p>", "conditions": [12, 800, "v", 24000], "internal_node_id": "0.0-185.0", "trial": 6, "time_elapsed": 1171807, "serialpos": 11, "key_press": -1, "wordID": 1257, "type": "PRES_VIS", "trial_index": 248}, "uniqueid": "MTK3132:37QW5D2ZRHTMZ2ARD4V3ZGW6N69S81", "dateTime": 1520041454554}, {"current_trial": 249, "trialdata": {"rt": -1, "trial_type": "single-stim", "stimulus": "", "internal_node_id": "0.0-186.0-0.0", "time_elapsed": 1173974, "key_press": -1, "type": "PRE_RECALL_DELAY", "trial_index": 249}, "uniqueid": "MTK3132:37QW5D2ZRHTMZ2ARD4V3ZGW6N69S81", "dateTime": 1520041456721}, {"current_trial": 250, "trialdata": {"rt": -1000, "trial_type": "single-audio", "stimulus": "/static/audio/400Hz.wav", "internal_node_id": "0.0-187.0", "time_elapsed": 1174477, "key_press": -1, "type": "PRE_RECALL_ALERT", "trial_index": 250}, "uniqueid": "MTK3132:37QW5D2ZRHTMZ2ARD4V3ZGW6N69S81", "dateTime": 1520041457224}, {"current_trial": 251, "trialdata": {"rt": [5379, 6703, 8120, 12616, 15679, 17572, 25007], "recwords": ["sculpture", "uncle", "drink", "daughter", "airport", "tourist", "basement"], "key_times": [2669, 2977, 3164, 3275, 3469, 3735, 3874, 4109, 4278, 5379, 5703, 5944, 6057, 6154, 6342, 6703, 7025, 7211, 7302, 7385, 7568, 8120, 10708, 10899, 11024, 11150, 11292, 11416, 11594, 11710, 12616, 14725, 14829, 14929, 15052, 15150, 15253, 15490, 15679, 16693, 16761, 16859, 16951, 17103, 17265, 17353, 17572, 23260, 23483, 23768, 24236, 24426, 24550, 24658, 24744, 25007], "trial_type": "free-recall", "conditions": [12, 800, "v", 24000], "internal_node_id": "0.0-188.0-0.0", "key_presses": [83, 67, 85, 76, 80, 84, 85, 82, 69, 32, 85, 78, 67, 76, 69, 32, 68, 82, 73, 78, 75, 32, 68, 65, 85, 71, 72, 84, 69, 82, 32, 65, 73, 82, 80, 79, 82, 84, 32, 84, 79, 85, 82, 73, 83, 84, 32, 66, 65, 83, 69, 77, 69, 78, 84, 32], "trial": 6, "time_elapsed": 1234480, "type": "FREE_RECALL", "trial_index": 251}, "uniqueid": "MTK3132:37QW5D2ZRHTMZ2ARD4V3ZGW6N69S81", "dateTime": 1520041517234}, {"current_trial": 252, "trialdata": {"rt": 1501, "trial_type": "text", "internal_node_id": "0.0-189.0", "time_elapsed": 1237990, "key_press": 32, "type": "INSTRUCTIONS", "trial_index": 252}, "uniqueid": "MTK3132:37QW5D2ZRHTMZ2ARD4V3ZGW6N69S81", "dateTime": 1520041520737}, {"current_trial": 253, "trialdata": {"rt": [2448, 4548, 7141, 9399, 10784, 12385, 14792, 16198, 20900, 22934], "trial_type": "math-distractor", "key_times": [2051, 2448, 4253, 4345, 4548, 6816, 6934, 7141, 9123, 9399, 10533, 10653, 10784, 12126, 12225, 12385, 14521, 14663, 14792, 15935, 16068, 16198, 20621, 20720, 20900, 22618, 22736, 22934], "responses": ["7", "18", "23", "8", "14", "14", "13", "12", "20", "20"], "num2": [2, 3, 7, 3, 5, 2, 2, 2, 3, 6, 7], "num3": [1, 6, 9, 1, 4, 8, 4, 2, 9, 6, 6], "conditions": [24, 1600, "v", 24000], "internal_node_id": "0.0-190.0", "key_presses": [55, 13, 49, 56, 13, 50, 51, 13, 56, 13, 49, 52, 13, 49, 52, 13, 49, 51, 13, 49, 50, 13, 50, 48, 13, 50, 48, 13], "trial": 7, "time_elapsed": 1263996, "type": "DISTRACTOR", "trial_index": 253, "num1": [4, 9, 7, 4, 5, 4, 7, 8, 8, 7, 1]}, "uniqueid": "MTK3132:37QW5D2ZRHTMZ2ARD4V3ZGW6N69S81", "dateTime": 1520041546743}, {"current_trial": 254, "trialdata": {"rt": -1, "trial_type": "single-stim", "stimulus": "<p id=\"stim\">10</p>", "internal_node_id": "0.0-191.0-0.0", "time_elapsed": 1267001, "key_press": -1, "trial_index": 254}, "uniqueid": "MTK3132:37QW5D2ZRHTMZ2ARD4V3ZGW6N69S81", "dateTime": 1520041549749}, {"current_trial": 255, "trialdata": {"rt": -1, "trial_type": "single-stim", "stimulus": "<p id=\"stim\">9</p>", "internal_node_id": "0.0-191.0-1.0", "time_elapsed": 1268004, "key_press": -1, "trial_index": 255}, "uniqueid": "MTK3132:37QW5D2ZRHTMZ2ARD4V3ZGW6N69S81", "dateTime": 1520041550751}, {"current_trial": 256, "trialdata": {"rt": -1, "trial_type": "single-stim", "stimulus": "<p id=\"stim\">8</p>", "internal_node_id": "0.0-191.0-2.0", "time_elapse