{"assignmentId": "3K9FOBBF2IQKYW25ZXNL5R86KA8LNI", "workerId": "MTK3150", "questiondata": {"avail_screen_height": 1040, "color_depth": 24, "screen_width": 1920, "pixel_depth": 24, "avail_screen_width": 1920, "screen_height": 1080}, "bonus": 0, "hitId": "3MJ9GGZYO3D5Q7OEQLV9F5TDV8QA2L", "counterbalance": 2123, "useragent": "Mozilla/5.0 (Windows NT 6.1; Win64; x64) AppleWebKit/537.36 (KHTML, like Gecko) Chrome/64.0.3282.186 Safari/537.36", "eventdata": [{"eventtype": "initialized", "interval": 0, "value": null, "timestamp": 1520108718371}, {"eventtype": "window_resize", "interval": 0, "value": [1920, 1034], "timestamp": 1520108718371}, {"eventtype": "focus", "interval": 45349, "value": "off", "timestamp": 1520108763720}, {"eventtype": "focus", "interval": 1, "value": "on", "timestamp": 1520108763721}, {"eventtype": "focus", "interval": 2905, "value": "off", "timestamp": 1520108766626}, {"eventtype": "focus", "interval": 2, "value": "on", "timestamp": 1520108766628}, {"eventtype": "focus", "interval": 4468, "value": "off", "timestamp": 1520108771096}, {"eventtype": "focus", "interval": 0, "value": "on", "timestamp": 1520108771096}, {"eventtype": "window_resize", "interval": 5223, "value": [1920, 985], "timestamp": 1520108776319}, {"eventtype": "window_resize", "interval": 2296, "value": [1920, 845], "timestamp": 1520108778615}, {"eventtype": "focus", "interval": 1576, "value": "off", "timestamp": 1520108780191}, {"eventtype": "focus", "interval": 1918, "value": "on", "timestamp": 1520108782109}, {"eventtype": "window_resize", "interval": 1342, "value": [1920, 894], "timestamp": 1520108783451}, {"eventtype": "focus", "interval": 675939, "value": "off", "timestamp": 1520109459390}, {"eventtype": "focus", "interval": 1607, "value": "on", "timestamp": 1520109460997}], "data": [{"current_trial": 0, "trialdata": {"rt": 3849, "trial_type": "text", "internal_node_id": "0.0-0.0", "time_elapsed": 3852, "key_press": 75, "type": "INSTRUCTIONS", "trial_index": 0}, "uniqueid": "MTK3150:3K9FOBBF2IQKYW25ZXNL5R86KA8LNI", "dateTime": 1520108729538}, {"current_trial": 1, "trialdata": {"rt": 13082, "trial_type": "text", "internal_node_id": "0.0-1.0", "time_elapsed": 16938, "key_press": 85, "type": "INSTRUCTIONS", "trial_index": 1}, "uniqueid": "MTK3150:3K9FOBBF2IQKYW25ZXNL5R86KA8LNI", "dateTime": 1520108742622}, {"current_trial": 2, "trialdata": {"rt": [19132, 22805, 27001, 42305], "trial_type": "audio-test", "responses": ["u", "up", "uh", "ocean"], "internal_node_id": "0.0-2.0", "time_elapsed": 59273, "type": "AUDIO_TEST", "trial_index": 2}, "uniqueid": "MTK3150:3K9FOBBF2IQKYW25ZXNL5R86KA8LNI", "dateTime": 1520108784957}, {"current_trial": 3, "trialdata": {"rt": [4118], "trial_type": "audio-test", "responses": ["crystal"], "internal_node_id": "0.0-3.0", "time_elapsed": 63399, "type": "AUDIO_TEST", "trial_index": 3}, "uniqueid": "MTK3150:3K9FOBBF2IQKYW25ZXNL5R86KA8LNI", "dateTime": 1520108789083}, {"current_trial": 4, "trialdata": {"rt": [5874], "trial_type": "audio-test", "responses": ["spice"], "internal_node_id": "0.0-4.0", "time_elapsed": 69278, "type": "AUDIO_TEST", "trial_index": 4}, "uniqueid": "MTK3150:3K9FOBBF2IQKYW25ZXNL5R86KA8LNI", "dateTime": 1520108794962}, {"current_trial": 5, "trialdata": {"rt": 31279, "trial_type": "survey-text", "responses": "{\"Q0\":\"10:00 P.M\",\"Q1\":\"7:00 A.M\",\"Q2\":\"5\"}", "internal_node_id": "0.0-5.0", "time_elapsed": 101309, "type": "SLEEP_SURVEY", "trial_index": 5}, "uniqueid": "MTK3150:3K9FOBBF2IQKYW25ZXNL5R86KA8LNI", "dateTime": 1520108826993}, {"current_trial": 6, "trialdata": {"rt": 37170, "trial_type": "text", "internal_node_id": "0.0-6.0", "time_elapsed": 139481, "key_press": 73, "type": "INSTRUCTIONS", "trial_index": 6}, "uniqueid": "MTK3150:3K9FOBBF2IQKYW25ZXNL5R86KA8LNI", "dateTime": 1520108865165}, {"current_trial": 7, "trialdata": {"rt": 35052, "trial_type": "text", "internal_node_id": "0.0-7.0", "time_elapsed": 175034, "key_press": 73, "type": "INSTRUCTIONS", "trial_index": 7}, "uniqueid": "MTK3150:3K9FOBBF2IQKYW25ZXNL5R86KA8LNI", "dateTime": 1520108900718}, {"current_trial": 8, "trialdata": {"rt": 11260, "trial_type": "text", "internal_node_id": "0.0-8.0", "time_elapsed": 186795, "key_press": 73, "type": "INSTRUCTIONS", "trial_index": 8}, "uniqueid": "MTK3150:3K9FOBBF2IQKYW25ZXNL5R86KA8LNI", "dateTime": 1520108912479}, {"current_trial": 9, "trialdata": {"rt": [6457, 10489, 12845, 15956], "trial_type": "math-distractor", "key_times": [3925, 4072, 6457, 9384, 9666, 10489, 12430, 12845, 15181, 15321, 15956, 17650, 17793], "responses": ["20", "18", "7", "11"], "num2": [4, 9, 1, 7, 6], "num3": [7, 5, 5, 3, 4], "conditions": [18, 1200, "a", 18000], "internal_node_id": "0.0-9.0", "key_presses": [50, 48, 13, 49, 56, 13, 55, 13, 49, 49, 13, 49, 49], "trial": 0, "time_elapsed": 205799, "type": "DISTRACTOR", "trial_index": 9, "num1": [9, 4, 1, 1, 1]}, "uniqueid": "MTK3150:3K9FOBBF2IQKYW25ZXNL5R86KA8LNI", "dateTime": 1520108931483}, {"current_trial": 10, "trialdata": {"rt": -1, "trial_type": "single-stim", "stimulus": "<p id=\"stim\">10</p>", "internal_node_id": "0.0-10.0-0.0", "time_elapsed": 208799, "key_press": -1, "trial_index": 10}, "uniqueid": "MTK3150:3K9FOBBF2IQKYW25ZXNL5R86KA8LNI", "dateTime": 1520108934483}, {"current_trial": 11, "trialdata": {"rt": -1, "trial_type": "single-stim", "stimulus": "<p id=\"stim\">9</p>", "internal_node_id": "0.0-10.0-1.0", "time_elapsed": 209799, "key_press": -1, "trial_index": 11}, "uniqueid": "MTK3150:3K9FOBBF2IQKYW25ZXNL5R86KA8LNI", "dateTime": 1520108935483}, {"current_trial": 12, "trialdata": {"rt": -1, "trial_type": "single-stim", "stimulus": "<p id=\"stim\">8</p>", "internal_node_id": "0.0-10.0-2.0", "time_elapsed": 210798, "key_press": -1, "trial_index": 12}, "uniqueid": "MTK3150:3K9FOBBF2IQKYW25ZXNL5R86KA8LNI", "dateTime": 1520108936482}, {"current_trial": 13, "trialdata": {"rt": -1, "trial_type": "single-stim", "stimulus": "<p id=\"stim\">7</p>", "internal_node_id": "0.0-10.0-3.0", "time_elapsed": 211799, "key_press": -1, "trial_index": 13}, "uniqueid": "MTK3150:3K9FOBBF2IQKYW25ZXNL5R86KA8LNI", "dateTime": 1520108937483}, {"current_trial": 14, "trialdata": {"rt": -1, "trial_type": "single-stim", "stimulus": "<p id=\"stim\">6</p>", "internal_node_id": "0.0-10.0-4.0", "time_elapsed": 212800, "key_press": -1, "trial_index": 14}, "uniqueid": "MTK3150:3K9FOBBF2IQKYW25ZXNL5R86KA8LNI", "dateTime": 1520108938484}, {"current_trial": 15, "trialdata": {"rt": -1, "trial_type": "single-stim", "stimulus": "<p id=\"stim\">5</p>", "internal_node_id": "0.0-10.0-5.0", "time_elapsed": 213800, "key_press": -1, "trial_index": 15}, "uniqueid": "MTK3150:3K9FOBBF2IQKYW25ZXNL5R86KA8LNI", "dateTime": 1520108939485}, {"current_trial": 16, "trialdata": {"rt": -1, "trial_type": "single-stim", "stimulus": "<p id=\"stim\">4</p>", "internal_node_id": "0.0-10.0-6.0", "time_elapsed": 214801, "key_press": -1, "trial_index": 16}, "uniqueid": "MTK3150:3K9FOBBF2IQKYW25ZXNL5R86KA8LNI", "dateTime": 1520108940485}, {"current_trial": 17, "trialdata": {"rt": -1, "trial_type": "single-stim", "stimulus": "<p id=\"stim\">3</p>", "internal_node_id": "0.0-10.0-7.0", "time_elapsed": 215801, "key_press": -1, "trial_index": 17}, "uniqueid": "MTK3150:3K9FOBBF2IQKYW25ZXNL5R86KA8LNI", "dateTime": 1520108941485}, {"current_trial": 18, "trialdata": {"rt": -1, "trial_type": "single-stim", "stimulus": "<p id=\"stim\">2</p>", "internal_node_id": "0.0-10.0-8.0", "time_elapsed": 216801, "key_press": -1, "trial_index": 18}, "uniqueid": "MTK3150:3K9FOBBF2IQKYW25ZXNL5R86KA8LNI", "dateTime": 1520108942485}, {"current_trial": 19, "trialdata": {"rt": -1, "trial_type": "single-stim", "stimulus": "<p id=\"stim\">1</p>", "internal_node_id": "0.0-10.0-9.0", "time_elapsed": 217801, "key_press": -1, "trial_index": 19}, "uniqueid": "MTK3150:3K9FOBBF2IQKYW25ZXNL5R86KA8LNI", "dateTime": 1520108943485}, {"current_trial": 20, "trialdata": {"rt": -1, "trial_type": "single-stim", "stimulus": "<p id=\"stim\">+</p>", "internal_node_id": "0.0-11.0-0.0", "time_elapsed": 219301, "key_press": -1, "type": "FIXATION", "trial_index": 20}, "uniqueid": "MTK3150:3K9FOBBF2IQKYW25ZXNL5R86KA8LNI", "dateTime": 1520108944985}, {"current_trial": 21, "trialdata": {"rt": -1000, "trial_type": "single-audio", "word": "gravel", "stimulus": "/static/audio/wordpool/GRAVEL.wav", "conditions": [18, 1200, "a", 18000], "internal_node_id": "0.0-12.0", "trial": 0, "time_elapsed": 221551, "serialpos": 0, "key_press": -1, "wordID": 658, "type": "PRES_AUD", "trial_index": 21}, "uniqueid": "MTK3150:3K9FOBBF2IQKYW25ZXNL5R86KA8LNI", "dateTime": 1520108947236}, {"current_trial": 22, "trialdata": {"rt": -1000, "trial_type": "single-audio", "word": "husband", "stimulus": "/static/audio/wordpool/HUSBAND.wav", "conditions": [18, 1200, "a", 18000], "internal_node_id": "0.0-13.0", "trial": 0, "time_elapsed": 223620, "serialpos": 1, "key_press": -1, "wordID": 727, "type": "PRES_AUD", "trial_index": 22}, "uniqueid": "MTK3150:3K9FOBBF2IQKYW25ZXNL5R86KA8LNI", "dateTime": 1520108949304}, {"current_trial": 23, "trialdata": {"rt": -1000, "trial_type": "single-audio", "word": "balloon", "stimulus": "/static/audio/wordpool/BALLOON.wav", "conditions": [18, 1200, "a", 18000], "internal_node_id": "0.0-14.0", "trial": 0, "time_elapsed": 225915, "serialpos": 2, "key_press": -1, "wordID": 74, "type": "PRES_AUD", "trial_index": 23}, "uniqueid": "MTK3150:3K9FOBBF2IQKYW25ZXNL5R86KA8LNI", "dateTime": 1520108951599}, {"current_trial": 24, "trialdata": {"rt": -1000, "trial_type": "single-audio", "word": "pilot", "stimulus": "/static/audio/wordpool/PILOT.wav", "conditions": [18, 1200, "a", 18000], "internal_node_id": "0.0-15.0", "trial": 0, "time_elapsed": 228110, "serialpos": 3, "key_press": -1, "wordID": 1069, "type": "PRES_AUD", "trial_index": 24}, "uniqueid": "MTK3150:3K9FOBBF2IQKYW25ZXNL5R86KA8LNI", "dateTime": 1520108953794}, {"current_trial": 25, "trialdata": {"rt": -1000, "trial_type": "single-audio", "word": "hook", "stimulus": "/static/audio/wordpool/HOOK.wav", "conditions": [18, 1200, "a", 18000], "internal_node_id": "0.0-16.0", "trial": 0, "time_elapsed": 230402, "serialpos": 4, "key_press": -1, "wordID": 714, "type": "PRES_AUD", "trial_index": 25}, "uniqueid": "MTK3150:3K9FOBBF2IQKYW25ZXNL5R86KA8LNI", "dateTime": 1520108956086}, {"current_trial": 26, "trialdata": {"rt": -1000, "trial_type": "single-audio", "word": "snail", "stimulus": "/static/audio/wordpool/SNAIL.wav", "conditions": [18, 1200, "a", 18000], "internal_node_id": "0.0-17.0", "trial": 0, "time_elapsed": 232413, "serialpos": 5, "key_press": -1, "wordID": 1331, "type": "PRES_AUD", "trial_index": 26}, "uniqueid": "MTK3150:3K9FOBBF2IQKYW25ZXNL5R86KA8LNI", "dateTime": 1520108958097}, {"current_trial": 27, "trialdata": {"rt": -1000, "trial_type": "single-audio", "word": "barrel", "stimulus": "/static/audio/wordpool/BARREL.wav", "conditions": [18, 1200, "a", 18000], "internal_node_id": "0.0-18.0", "trial": 0, "time_elapsed": 234800, "serialpos": 6, "key_press": -1, "wordID": 90, "type": "PRES_AUD", "trial_index": 27}, "uniqueid": "MTK3150:3K9FOBBF2IQKYW25ZXNL5R86KA8LNI", "dateTime": 1520108960484}, {"current_trial": 28, "trialdata": {"rt": -1000, "trial_type": "single-audio", "word": "cafe", "stimulus": "/static/audio/wordpool/CAFE.wav", "conditions": [18, 1200, "a", 18000], "internal_node_id": "0.0-19.0", "trial": 0, "time_elapsed": 237158, "serialpos": 7, "key_press": -1, "wordID": 215, "type": "PRES_AUD", "trial_index": 28}, "uniqueid": "MTK3150:3K9FOBBF2IQKYW25ZXNL5R86KA8LNI", "dateTime": 1520108962842}, {"current_trial": 29, "trialdata": {"rt": -1000, "trial_type": "single-audio", "word": "primate", "stimulus": "/static/audio/wordpool/PRIMATE.wav", "conditions": [18, 1200, "a", 18000], "internal_node_id": "0.0-20.0", "trial": 0, "time_elapsed": 239269, "serialpos": 8, "key_press": -1, "wordID": 1122, "type": "PRES_AUD", "trial_index": 29}, "uniqueid": "MTK3150:3K9FOBBF2IQKYW25ZXNL5R86KA8LNI", "dateTime": 1520108964953}, {"current_trial": 30, "trialdata": {"rt": -1000, "trial_type": "single-audio", "word": "queen", "stimulus": "/static/audio/wordpool/QUEEN.wav", "conditions": [18, 1200, "a", 18000], "internal_node_id": "0.0-21.0", "trial": 0, "time_elapsed": 241653, "serialpos": 9, "key_press": -1, "wordID": 1148, "type": "PRES_AUD", "trial_index": 30}, "uniqueid": "MTK3150:3K9FOBBF2IQKYW25ZXNL5R86KA8LNI", "dateTime": 1520108967337}, {"current_trial": 31, "trialdata": {"rt": -1000, "trial_type": "single-audio", "word": "pocket", "stimulus": "/static/audio/wordpool/POCKET.wav", "conditions": [18, 1200, "a", 18000], "internal_node_id": "0.0-22.0", "trial": 0, "time_elapsed": 243788, "serialpos": 10, "key_press": -1, "wordID": 1092, "type": "PRES_AUD", "trial_index": 31}, "uniqueid": "MTK3150:3K9FOBBF2IQKYW25ZXNL5R86KA8LNI", "dateTime": 1520108969472}, {"current_trial": 32, "trialdata": {"rt": -1000, "trial_type": "single-audio", "word": "shortcake", "stimulus": "/static/audio/wordpool/SHORTCAKE.wav", "conditions": [18, 1200, "a", 18000], "internal_node_id": "0.0-23.0", "trial": 0, "time_elapsed": 245885, "serialpos": 11, "key_press": -1, "wordID": 1291, "type": "PRES_AUD", "trial_index": 32}, "uniqueid": "MTK3150:3K9FOBBF2IQKYW25ZXNL5R86KA8LNI", "dateTime": 1520108971569}, {"current_trial": 33, "trialdata": {"rt": -1000, "trial_type": "single-audio", "word": "mildew", "stimulus": "/static/audio/wordpool/MILDEW.wav", "conditions": [18, 1200, "a", 18000], "internal_node_id": "0.0-24.0", "trial": 0, "time_elapsed": 248022, "serialpos": 12, "key_press": -1, "wordID": 892, "type": "PRES_AUD", "trial_index": 33}, "uniqueid": "MTK3150:3K9FOBBF2IQKYW25ZXNL5R86KA8LNI", "dateTime": 1520108973706}, {"current_trial": 34, "trialdata": {"rt": -1000, "trial_type": "single-audio", "word": "binder", "stimulus": "/static/audio/wordpool/BINDER.wav", "conditions": [18, 1200, "a", 18000], "internal_node_id": "0.0-25.0", "trial": 0, "time_elapsed": 250414, "serialpos": 13, "key_press": -1, "wordID": 126, "type": "PRES_AUD", "trial_index": 34}, "uniqueid": "MTK3150:3K9FOBBF2IQKYW25ZXNL5R86KA8LNI", "dateTime": 1520108976098}, {"current_trial": 35, "trialdata": {"rt": -1000, "trial_type": "single-audio", "word": "creature", "stimulus": "/static/audio/wordpool/CREATURE.wav", "conditions": [18, 1200, "a", 18000], "internal_node_id": "0.0-26.0", "trial": 0, "time_elapsed": 252801, "serialpos": 14, "key_press": -1, "wordID": 402, "type": "PRES_AUD", "trial_index": 35}, "uniqueid": "MTK3150:3K9FOBBF2IQKYW25ZXNL5R86KA8LNI", "dateTime": 1520108978485}, {"current_trial": 36, "trialdata": {"rt": -1000, "trial_type": "single-audio", "word": "sticker", "stimulus": "/static/audio/wordpool/STICKER.wav", "conditions": [18, 1200, "a", 18000], "internal_node_id": "0.0-27.0", "trial": 0, "time_elapsed": 255152, "serialpos": 15, "key_press": -1, "wordID": 1381, "type": "PRES_AUD", "trial_index": 36}, "uniqueid": "MTK3150:3K9FOBBF2IQKYW25ZXNL5R86KA8LNI", "dateTime": 1520108980836}, {"current_trial": 37, "trialdata": {"rt": -1000, "trial_type": "single-audio", "word": "tutu", "stimulus": "/static/audio/wordpool/TUTU.wav", "conditions": [18, 1200, "a", 18000], "internal_node_id": "0.0-28.0", "trial": 0, "time_elapsed": 257529, "serialpos": 16, "key_press": -1, "wordID": 1523, "type": "PRES_AUD", "trial_index": 37}, "uniqueid": "MTK3150:3K9FOBBF2IQKYW25ZXNL5R86KA8LNI", "dateTime": 1520108983213}, {"current_trial": 38, "trialdata": {"rt": -1000, "trial_type": "single-audio", "word": "grave", "stimulus": "/static/audio/wordpool/GRAVE.wav", "conditions": [18, 1200, "a", 18000], "internal_node_id": "0.0-29.0", "trial": 0, "time_elapsed": 259826, "serialpos": 17, "key_press": -1, "wordID": 657, "type": "PRES_AUD", "trial_index": 38}, "uniqueid": "MTK3150:3K9FOBBF2IQKYW25ZXNL5R86KA8LNI", "dateTime": 1520108985510}, {"current_trial": 39, "trialdata": {"rt": -1, "trial_type": "single-stim", "stimulus": "", "internal_node_id": "0.0-30.0-0.0", "time_elapsed": 261199, "key_press": -1, "type": "PRE_RECALL_DELAY", "trial_index": 39}, "uniqueid": "MTK3150:3K9FOBBF2IQKYW25ZXNL5R86KA8LNI", "dateTime": 1520108986883}, {"current_trial": 40, "trialdata": {"rt": -1000, "trial_type": "single-audio", "stimulus": "/static/audio/400Hz.wav", "internal_node_id": "0.0-31.0", "time_elapsed": 261698, "key_press": -1, "type": "PRE_RECALL_ALERT", "trial_index": 40}, "uniqueid": "MTK3150:3K9FOBBF2IQKYW25ZXNL5R86KA8LNI", "dateTime": 1520108987382}, {"current_trial": 41, "trialdata": {"rt": [2050, 4340, 5719, 6929, 8164, 9403, 11350, 12609, 15007, 25180, 40586], "recwords": ["grave", "sticker", "pocket", "husband", "gravel", "pilot", "balloon", "cafe", "tootoo", "binder", "husband"], "key_times": [1438, 1536, 1643, 1746, 1819, 2050, 2616, 2704, 2927, 2931, 3104, 3269, 3438, 3570, 3689, 3810, 3974, 4039, 4124, 4187, 4256, 4340, 4654, 4745, 4861, 4976, 5096, 5417, 5719, 6011, 6079, 6162, 6330, 6450, 6571, 6662, 6929, 7217, 7353, 7447, 7593, 7715, 7850, 8164, 8467, 8669, 8858, 9026, 9142, 9403, 9717, 9800, 9906, 10046, 10200, 10325, 10430, 11350, 11718, 11871, 12051, 12229, 12609, 14134, 14221, 14357, 14422, 14509, 14632, 15007, 24677, 24754, 24820, 24893, 25004, 25073, 25180, 39850, 39916, 39971, 40140, 40204, 40288, 40367, 40586], "trial_type": "free-recall", "conditions": [18, 1200, "a", 18000], "internal_node_id": "0.0-32.0-0.0", "key_presses": [71, 82, 65, 86, 69, 13, 83, 84, 67, 73, 67, 75, 8, 8, 8, 8, 73, 67, 75, 69, 82, 13, 80, 79, 67, 75, 69, 84, 13, 72, 85, 83, 66, 65, 78, 68, 13, 71, 82, 65, 86, 69, 76, 13, 80, 73, 76, 79, 84, 13, 66, 65, 76, 76, 79, 79, 78, 13, 67, 65, 70, 69, 13, 84, 79, 79, 84, 79, 79, 13, 66, 73, 78, 68, 69, 82, 13, 72, 85, 83, 66, 65, 78, 68, 13], "trial": 0, "time_elapsed": 321702, "type": "FREE_RECALL", "trial_index": 41}, "uniqueid": "MTK3150:3K9FOBBF2IQKYW25ZXNL5R86KA8LNI", "dateTime": 1520109047390}, {"current_trial": 42, "trialdata": {"rt": 2163, "trial_type": "text", "internal_node_id": "0.0-33.0", "time_elapsed": 325869, "key_press": 76, "type": "INSTRUCTIONS", "trial_index": 42}, "uniqueid": "MTK3150:3K9FOBBF2IQKYW25ZXNL5R86KA8LNI", "dateTime": 1520109051553}, {"current_trial": 43, "trialdata": {"rt": [3845, 5852, 7762, 11904], "trial_type": "math-distractor", "key_times": [2978, 3113, 3845, 5313, 5472, 5852, 7462, 7547, 7762, 10469, 10619, 11904, 15583, 15780], "responses": ["10", "10", "13", "20"], "num2": [3, 1, 1, 8, 6], "num3": [5, 3, 3, 3, 9], "conditions": [18, 1200, "a", 18000], "internal_node_id": "0.0-34.0", "key_presses": [49, 48, 13, 49, 48, 13, 49, 51, 13, 50, 48, 13, 50, 52], "trial": 1, "time_elapsed": 345873, "type": "DISTRACTOR", "trial_index": 43, "num1": [2, 6, 9, 9, 9]}, "uniqueid": "MTK3150:3K9FOBBF2IQKYW25ZXNL5R86KA8LNI", "dateTime": 1520109071557}, {"current_trial": 44, "trialdata": {"rt": -1, "trial_type": "single-stim", "stimulus": "<p id=\"stim\">10</p>", "internal_node_id": "0.0-35.0-0.0", "time_elapsed": 348873, "key_press": -1, "trial_index": 44}, "uniqueid": "MTK3150:3K9FOBBF2IQKYW25ZXNL5R86KA8LNI", "dateTime": 1520109074557}, {"current_trial": 45, "trialdata": {"rt": -1, "trial_type": "single-stim", "stimulus": "<p id=\"stim\">9</p>", "internal_node_id": "0.0-35.0-1.0", "time_elapsed": 349872, "key_press": -1, "trial_index": 45}, "uniqueid": "MTK3150:3K9FOBBF2IQKYW25ZXNL5R86KA8LNI", "dateTime": 1520109075558}, {"current_trial": 46, "trialdata": {"rt": -1, "trial_type": "single-stim", "stimulus": "<p id=\"stim\">8</p>", "internal_node_id": "0.0-35.0-2.0", "time_elapsed": 350873, "key_press": -1, "trial_index": 46}, "uniqueid": "MTK3150:3K9FOBBF2IQKYW25ZXNL5R86KA8LNI", "dateTime": 1520109076557}, {"current_trial": 47, "trialdata": {"rt": -1, "trial_type": "single-stim", "stimulus": "<p id=\"stim\">7</p>", "internal_node_id": "0.0-35.0-3.0", "time_elapsed": 351874, "key_press": -1, "trial_index": 47}, "uniqueid": "MTK3150:3K9FOBBF2IQKYW25ZXNL5R86KA8LNI", "dateTime": 1520109077559}, {"current_trial": 48, "trialdata": {"rt": -1, "trial_type": "single-stim", "stimulus": "<p id=\"stim\">6</p>", "internal_node_id": "0.0-35.0-4.0", "time_elapsed": 352876, "key_press": -1, "trial_index": 48}, "uniqueid": "MTK3150:3K9FOBBF2IQKYW25ZXNL5R86KA8LNI", "dateTime": 1520109078560}, {"current_trial": 49, "trialdata": {"rt": -1, "trial_type": "single-stim", "stimulus": "<p id=\"stim\">5</p>", "internal_node_id": "0.0-35.0-5.0", "time_elapsed": 353876, "key_press": -1, "trial_index": 49}, "uniqueid": "MTK3150:3K9FOBBF2IQKYW25ZXNL5R86KA8LNI", "dateTime": 1520109079561}, {"current_trial": 50, "trialdata": {"rt": -1, "trial_type": "single-stim", "stimulus": "<p id=\"stim\">4</p>", "internal_node_id": "0.0-35.0-6.0", "time_elapsed": 354877, "key_press": -1, "trial_index": 50}, "uniqueid": "MTK3150:3K9FOBBF2IQKYW25ZXNL5R86KA8LNI", "dateTime": 1520109080562}, {"current_trial": 51, "trialdata": {"rt": -1, "trial_type": "single-stim", "stimulus": "<p id=\"stim\">3</p>", "internal_node_id": "0.0-35.0-7.0", "time_elapsed": 355878, "key_press": -1, "trial_index": 51}, "uniqueid": "MTK3150:3K9FOBBF2IQKYW25ZXNL5R86KA8LNI", "dateTime": 1520109081563}, {"current_trial": 52, "trialdata": {"rt": -1, "trial_type": "single-stim", "stimulus": "<p id=\"stim\">2</p>", "internal_node_id": "0.0-35.0-8.0", "time_elapsed": 356879, "key_press": -1, "trial_index": 52}, "uniqueid": "MTK3150:3K9FOBBF2IQKYW25ZXNL5R86KA8LNI", "dateTime": 1520109082563}, {"current_trial": 53, "trialdata": {"rt": -1, "trial_type": "single-stim", "stimulus": "<p id=\"stim\">1</p>", "internal_node_id": "0.0-35.0-9.0", "time_elapsed": 357880, "key_press": -1, "trial_index": 53}, "uniqueid": "MTK3150:3K9FOBBF2IQKYW25ZXNL5R86KA8LNI", "dateTime": 1520109083565}, {"current_trial": 54, "trialdata": {"rt": -1, "trial_type": "single-stim", "stimulus": "<p id=\"stim\">+</p>", "internal_node_id": "0.0-36.0-0.0", "time_elapsed": 359381, "key_press": -1, "type": "FIXATION", "trial_index": 54}, "uniqueid": "MTK3150:3K9FOBBF2IQKYW25ZXNL5R86KA8LNI", "dateTime": 1520109085065}, {"current_trial": 55, "trialdata": {"rt": -1000, "trial_type": "single-audio", "word": "wrist", "stimulus": "/static/audio/wordpool/WRIST.wav", "conditions": [18, 1200, "a", 18000], "internal_node_id": "0.0-37.0", "trial": 1, "time_elapsed": 361469, "serialpos": 0, "key_press": -1, "wordID": 1625, "type": "PRES_AUD", "trial_index": 55}, "uniqueid": "MTK3150:3K9FOBBF2IQKYW25ZXNL5R86KA8LNI", "dateTime": 1520109087153}, {"current_trial": 56, "trialdata": {"rt": -1000, "trial_type": "single-audio", "word": "wagon", "stimulus": "/static/audio/wordpool/WAGON.wav", "conditions": [18, 1200, "a", 18000], "internal_node_id": "0.0-38.0", "trial": 1, "time_elapsed": 363633, "serialpos": 1, "key_press": -1, "wordID": 1577, "type": "PRES_AUD", "trial_index": 56}, "uniqueid": "MTK3150:3K9FOBBF2IQKYW25ZXNL5R86KA8LNI", "dateTime": 1520109089317}, {"current_trial": 57, "trialdata": {"rt": -1000, "trial_type": "single-audio", "word": "pigeon", "stimulus": "/static/audio/wordpool/PIGEON.wav", "conditions": [18, 1200, "a", 18000], "internal_node_id": "0.0-39.0", "trial": 1, "time_elapsed": 365779, "serialpos": 2, "key_press": -1, "wordID": 1064, "type": "PRES_AUD", "trial_index": 57}, "uniqueid": "MTK3150:3K9FOBBF2IQKYW25ZXNL5R86KA8LNI", "dateTime": 1520109091463}, {"current_trial": 58, "trialdata": {"rt": -1000, "trial_type": "single-audio", "word": "badge", "stimulus": "/static/audio/wordpool/BADGE.wav", "conditions": [18, 1200, "a", 18000], "internal_node_id": "0.0-40.0", "trial": 1, "time_elapsed": 367804, "serialpos": 3, "key_press": -1, "wordID": 67, "type": "PRES_AUD", "trial_index": 58}, "uniqueid": "MTK3150:3K9FOBBF2IQKYW25ZXNL5R86KA8LNI", "dateTime": 1520109093488}, {"current_trial": 59, "trialdata": {"rt": -1000, "trial_type": "single-audio", "word": "picnic", "stimulus": "/static/audio/wordpool/PICNIC.wav", "conditions": [18, 1200, "a", 18000], "internal_node_id": "0.0-41.0", "trial": 1, "time_elapsed": 370049, "serialpos": 4, "key_press": -1, "wordID": 1059, "type": "PRES_AUD", "trial_index": 59}, "uniqueid": "MTK3150:3K9FOBBF2IQKYW25ZXNL5R86KA8LNI", "dateTime": 1520109095733}, {"current_trial": 60, "trialdata": {"rt": -1000, "trial_type": "single-audio", "word": "cousin", "stimulus": "/static/audio/wordpool/COUSIN.wav", "conditions": [18, 1200, "a", 18000], "internal_node_id": "0.0-42.0", "trial": 1, "time_elapsed": 372069, "serialpos": 5, "key_press": -1, "wordID": 391, "type": "PRES_AUD", "trial_index": 60}, "uniqueid": "MTK3150:3K9FOBBF2IQKYW25ZXNL5R86KA8LNI", "dateTime": 1520109097753}, {"current_trial": 61, "trialdata": {"rt": -1000, "trial_type": "single-audio", "word": "mammal", "stimulus": "/static/audio/wordpool/MAMMAL.wav", "conditions": [18, 1200, "a", 18000], "internal_node_id": "0.0-43.0", "trial": 1, "time_elapsed": 374452, "serialpos": 6, "key_press": -1, "wordID": 860, "type": "PRES_AUD", "trial_index": 61}, "uniqueid": "MTK3150:3K9FOBBF2IQKYW25ZXNL5R86KA8LNI", "dateTime": 1520109100136}, {"current_trial": 62, "trialdata": {"rt": -1000, "trial_type": "single-audio", "word": "scalpel", "stimulus": "/static/audio/wordpool/SCALPEL.wav", "conditions": [18, 1200, "a", 18000], "internal_node_id": "0.0-44.0", "trial": 1, "time_elapsed": 376711, "serialpos": 7, "key_press": -1, "wordID": 1242, "type": "PRES_AUD", "trial_index": 62}, "uniqueid": "MTK3150:3K9FOBBF2IQKYW25ZXNL5R86KA8LNI", "dateTime": 1520109102395}, {"current_trial": 63, "trialdata": {"rt": -1000, "trial_type": "single-audio", "word": "judge", "stimulus": "/static/audio/wordpool/JUDGE.wav", "conditions": [18, 1200, "a", 18000], "internal_node_id": "0.0-45.0", "trial": 1, "time_elapsed": 378932, "serialpos": 8, "key_press": -1, "wordID": 760, "type": "PRES_AUD", "trial_index": 63}, "uniqueid": "MTK3150:3K9FOBBF2IQKYW25ZXNL5R86KA8LNI", "dateTime": 1520109104616}, {"current_trial": 64, "trialdata": {"rt": -1000, "trial_type": "single-audio", "word": "marker", "stimulus": "/static/audio/wordpool/MARKER.wav", "conditions": [18, 1200, "a", 18000], "internal_node_id": "0.0-46.0", "trial": 1, "time_elapsed": 381096, "serialpos": 9, "key_press": -1, "wordID": 869, "type": "PRES_AUD", "trial_index": 64}, "uniqueid": "MTK3150:3K9FOBBF2IQKYW25ZXNL5R86KA8LNI", "dateTime": 1520109106780}, {"current_trial": 65, "trialdata": {"rt": -1000, "trial_type": "single-audio", "word": "cod", "stimulus": "/static/audio/wordpool/COD.wav", "conditions": [18, 1200, "a", 18000], "internal_node_id": "0.0-47.0", "trial": 1, "time_elapsed": 383356, "serialpos": 10, "key_press": -1, "wordID": 339, "type": "PRES_AUD", "trial_index": 65}, "uniqueid": "MTK3150:3K9FOBBF2IQKYW25ZXNL5R86KA8LNI", "dateTime": 1520109109040}, {"current_trial": 66, "trialdata": {"rt": -1000, "trial_type": "single-audio", "word": "preacher", "stimulus": "/static/audio/wordpool/PREACHER.wav", "conditions": [18, 1200, "a", 18000], "internal_node_id": "0.0-48.0", "trial": 1, "time_elapsed": 385492, "serialpos": 11, "key_press": -1, "wordID": 1118, "type": "PRES_AUD", "trial_index": 66}, "uniqueid": "MTK3150:3K9FOBBF2IQKYW25ZXNL5R86KA8LNI", "dateTime": 1520109111176}, {"current_trial": 67, "trialdata": {"rt": -1000, "trial_type": "single-audio", "word": "item", "stimulus": "/static/audio/wordpool/ITEM.wav", "conditions": [18, 1200, "a", 18000], "internal_node_id": "0.0-49.0", "trial": 1, "time_elapsed": 387610, "serialpos": 12, "key_press": -1, "wordID": 745, "type": "PRES_AUD", "trial_index": 67}, "uniqueid": "MTK3150:3K9FOBBF2IQKYW25ZXNL5R86KA8LNI", "dateTime": 1520109113294}, {"current_trial": 68, "trialdata": {"rt": -1000, "trial_type": "single-audio", "word": "lipstick", "stimulus": "/static/audio/wordpool/LIPSTICK.wav", "conditions": [18, 1200, "a", 18000], "internal_node_id": "0.0-50.0", "trial": 1, "time_elapsed": 389992, "serialpos": 13, "key_press": -1, "wordID": 828, "type": "PRES_AUD", "trial_index": 68}, "uniqueid": "MTK3150:3K9FOBBF2IQKYW25ZXNL5R86KA8LNI", "dateTime": 1520109115679}, {"current_trial": 69, "trialdata": {"rt": -1000, "trial_type": "single-audio", "word": "ox", "stimulus": "/static/audio/wordpool/OX.wav", "conditions": [18, 1200, "a", 18000], "internal_node_id": "0.0-51.0", "trial": 1, "time_elapsed": 392156, "serialpos": 14, "key_press": -1, "wordID": 993, "type": "PRES_AUD", "trial_index": 69}, "uniqueid": "MTK3150:3K9FOBBF2IQKYW25ZXNL5R86KA8LNI", "dateTime": 1520109117840}, {"current_trial": 70, "trialdata": {"rt": -1000, "trial_type": "single-audio", "word": "machine", "stimulus": "/static/audio/wordpool/MACHINE.wav", "conditions": [18, 1200, "a", 18000], "internal_node_id": "0.0-52.0", "trial": 1, "time_elapsed": 394285, "serialpos": 15, "key_press": -1, "wordID": 851, "type": "PRES_AUD", "trial_index": 70}, "uniqueid": "MTK3150:3K9FOBBF2IQKYW25ZXNL5R86KA8LNI", "dateTime": 1520109119969}, {"current_trial": 71, "trialdata": {"rt": -1000, "trial_type": "single-audio", "word": "rebel", "stimulus": "/static/audio/wordpool/REBEL.wav", "conditions": [18, 1200, "a", 18000], "internal_node_id": "0.0-53.0", "trial": 1, "time_elapsed": 396321, "serialpos": 16, "key_press": -1, "wordID": 1171, "type": "PRES_AUD", "trial_index": 71}, "uniqueid": "MTK3150:3K9FOBBF2IQKYW25ZXNL5R86KA8LNI", "dateTime": 1520109122005}, {"current_trial": 72, "trialdata": {"rt": -1000, "trial_type": "single-audio", "word": "drug", "stimulus": "/static/audio/wordpool/DRUG.wav", "conditions": [18, 1200, "a", 18000], "internal_node_id": "0.0-54.0", "trial": 1, "time_elapsed": 398379, "serialpos": 17, "key_press": -1, "wordID": 500, "type": "PRES_AUD", "trial_index": 72}, "uniqueid": "MTK3150:3K9FOBBF2IQKYW25ZXNL5R86KA8LNI", "dateTime": 1520109124063}, {"current_trial": 73, "trialdata": {"rt": -1, "trial_type": "single-stim", "stimulus": "", "internal_node_id": "0.0-55.0-0.0", "time_elapsed": 399583, "key_press": -1, "type": "PRE_RECALL_DELAY", "trial_index": 73}, "uniqueid": "MTK3150:3K9FOBBF2IQKYW25ZXNL5R86KA8LNI", "dateTime": 1520109125267}, {"current_trial": 74, "trialdata": {"rt": -1000, "trial_type": "single-audio", "stimulus": "/static/audio/400Hz.wav", "internal_node_id": "0.0-56.0", "time_elapsed": 400085, "key_press": -1, "type": "PRE_RECALL_ALERT", "trial_index": 74}, "uniqueid": "MTK3150:3K9FOBBF2IQKYW25ZXNL5R86KA8LNI", "dateTime": 1520109125769}, {"current_trial": 75, "trialdata": {"rt": [941, 2116, 3422, 4235, 5563, 6747, 8558, 13409, 15292, 18054, 19869, 23370], "recwords": ["ox", "machine", "rebel", "drug", "creature", "wrist", "wagon", "pigeon", "picnic", "judge", "mammal", "marker"], "key_times": [545, 682, 941, 1194, 1350, 1480, 1601, 1684, 1779, 1865, 2116, 2412, 2552, 2745, 2851, 3152, 3422, 3644, 3718, 3853, 4030, 4235, 4455, 4729, 4808, 4885, 4975, 5078, 5182, 5257, 5563, 5898, 6032, 6179, 6340, 6433, 6747, 7135, 7580, 7806, 7939, 8190, 8558, 12535, 12743, 12844, 12974, 13063, 13147, 13409, 14409, 14558, 14663, 14788, 14829, 14984, 15292, 17345, 17486, 17551, 17674, 17817, 18054, 18858, 18995, 19083, 19212, 19317, 19458, 19869, 21821, 21966, 22309, 22449, 22572, 22660, 22755, 22889, 23009, 23128, 23370], "trial_type": "free-recall", "conditions": [18, 1200, "a", 18000], "internal_node_id": "0.0-57.0-0.0", "key_presses": [79, 88, 13, 77, 65, 67, 72, 73, 78, 69, 13, 82, 69, 66, 69, 76, 13, 68, 82, 85, 71, 13, 67, 82, 69, 65, 84, 85, 82, 69, 13, 87, 82, 73, 83, 84, 13, 87, 65, 71, 79, 78, 13, 80, 73, 71, 69, 79, 78, 13, 80, 73, 67, 78, 73, 67, 13, 74, 85, 68, 71, 69, 13, 77, 65, 77, 77, 65, 76, 13, 80, 69, 8, 8, 77, 65, 82, 75, 69, 82, 13], "trial": 1, "time_elapsed": 460088, "type": "FREE_RECALL", "trial_index": 75}, "uniqueid": "MTK3150:3K9FOBBF2IQKYW25ZXNL5R86KA8LNI", "dateTime": 1520109185776}, {"current_trial": 76, "trialdata": {"rt": 3787, "trial_type": "text", "internal_node_id": "0.0-58.0", "time_elapsed": 465880, "key_press": 75, "type": "INSTRUCTIONS", "trial_index": 76}, "uniqueid": "MTK3150:3K9FOBBF2IQKYW25ZXNL5R86KA8LNI", "dateTime": 1520109191564}, {"current_trial": 77, "trialdata": {"rt": [3317, 7436], "trial_type": "math-distractor", "key_times": [2934, 3317, 7152, 7264, 7436, 11811, 11957], "responses": ["8", "15"], "num2": [6, 6, 5], "num3": [1, 2, 7], "conditions": [24, 1600, "a", 12000], "internal_node_id": "0.0-59.0", "key_presses": [56, 13, 49, 53, 13, 50, 48], "trial": 2, "time_elapsed": 478881, "type": "DISTRACTOR", "trial_index": 77, "num1": [1, 7, 8]}, "uniqueid": "MTK3150:3K9FOBBF2IQKYW25ZXNL5R86KA8LNI", "dateTime": 1520109204566}, {"current_trial": 78, "trialdata": {"rt": -1, "trial_type": "single-stim", "stimulus": "<p id=\"stim\">10</p>", "internal_node_id": "0.0-60.0-0.0", "time_elapsed": 481882, "key_press": -1, "trial_index": 78}, "uniqueid": "MTK3150:3K9FOBBF2IQKYW25ZXNL5R86KA8LNI", "dateTime": 1520109207566}, {"current_trial": 79, "trialdata": {"rt": -1, "trial_type": "single-stim", "stimulus": "<p id=\"stim\">9</p>", "internal_node_id": "0.0-60.0-1.0", "time_elapsed": 482884, "key_press": -1, "trial_index": 79}, "uniqueid": "MTK3150:3K9FOBBF2IQKYW25ZXNL5R86KA8LNI", "dateTime": 1520109208568}, {"current_trial": 80, "trialdata": {"rt": -1, "trial_type": "single-stim", "stimulus": "<p id=\"stim\">8</p>", "internal_node_id": "0.0-60.0-2.0", "time_elapsed": 483884, "key_press": -1, "trial_index": 80}, "uniqueid": "MTK3150:3K9FOBBF2IQKYW25ZXNL5R86KA8LNI", "dateTime": 1520109209568}, {"current_trial": 81, "trialdata": {"rt": -1, "trial_type": "single-stim", "stimulus": "<p id=\"stim\">7</p>", "internal_node_id": "0.0-60.0-3.0", "time_elapsed": 484887, "key_press": -1, "trial_index": 81}, "uniqueid": "MTK3150:3K9FOBBF2IQKYW25ZXNL5R86KA8LNI", "dateTime": 1520109210571}, {"current_trial": 82, "trialdata": {"rt": -1, "trial_type": "single-stim", "stimulus": "<p id=\"stim\">6</p>", "internal_node_id": "0.0-60.0-4.0", "time_elapsed": 485887, "key_press": -1, "trial_index": 82}, "uniqueid": "MTK3150:3K9FOBBF2IQKYW25ZXNL5R86KA8LNI", "dateTime": 1520109211571}, {"current_trial": 83, "trialdata": {"rt": -1, "trial_type": "single-stim", "stimulus": "<p id=\"stim\">5</p>", "internal_node_id": "0.0-60.0-5.0", "time_elapsed": 486889, "key_press": -1, "trial_index": 83}, "uniqueid": "MTK3150:3K9FOBBF2IQKYW25ZXNL5R86KA8LNI", "dateTime": 1520109212573}, {"current_trial": 84, "trialdata": {"rt": -1, "trial_type": "single-stim", "stimulus": "<p id=\"stim\">4</p>", "internal_node_id": "0.0-60.0-6.0", "time_elapsed": 487889, "key_press": -1, "trial_index": 84}, "uniqueid": "MTK3150:3K9FOBBF2IQKYW25ZXNL5R86KA8LNI", "dateTime": 1520109213573}, {"current_trial": 85, "trialdata": {"rt": -1, "trial_type": "single-stim", "stimulus": "<p id=\"stim\">3</p>", "internal_node_id": "0.0-60.0-7.0", "time_elapsed": 488891, "key_press": -1, "trial_index": 85}, "uniqueid": "MTK3150:3K9FOBBF2IQKYW25ZXNL5R86KA8LNI", "dateTime": 1520109214575}, {"current_trial": 86, "trialdata": {"rt": -1, "trial_type": "single-stim", "stimulus": "<p id=\"stim\">2</p>", "internal_node_id": "0.0-60.0-8.0", "time_elapsed": 489891, "key_press": -1, "trial_index": 86}, "uniqueid": "MTK3150:3K9FOBBF2IQKYW25ZXNL5R86KA8LNI", "dateTime": 1520109215575}, {"current_trial": 87, "trialdata": {"rt": -1, "trial_type": "single-stim", "stimulus": "<p id=\"stim\">1</p>", "internal_node_id": "0.0-60.0-9.0", "time_elapsed": 490892, "key_press": -1, "trial_index": 87}, "uniqueid": "MTK3150:3K9FOBBF2IQKYW25ZXNL5R86KA8LNI", "dateTime": 1520109216576}, {"current_trial": 88, "trialdata": {"rt": -1, "trial_type": "single-stim", "stimulus": "<p id=\"stim\">+</p>", "internal_node_id": "0.0-61.0-0.0", "time_elapsed": 492393, "key_press": -1, "type": "FIXATION", "trial_index": 88}, "uniqueid": "MTK3150:3K9FOBBF2IQKYW25ZXNL5R86KA8LNI", "dateTime": 1520109218077}, {"current_trial": 89, "trialdata": {"rt": -1000, "trial_type": "single-audio", "word": "bouquet", "stimulus": "/static/audio/wordpool/BOUQUET.wav", "conditions": [24, 1600, "a", 12000], "internal_node_id": "0.0-62.0", "trial": 2, "time_elapsed": 495034, "serialpos": 0, "key_press": -1, "wordID": 156, "type": "PRES_AUD", "trial_index": 89}, "uniqueid": "MTK3150:3K9FOBBF2IQKYW25ZXNL5R86KA8LNI", "dateTime": 1520109220718}, {"current_trial": 90, "trialdata": {"rt": -1000, "trial_type": "single-audio", "word": "ointment", "stimulus": "/static/audio/wordpool/OINTMENT.wav", "conditions": [24, 1600, "a", 12000], "internal_node_id": "0.0-63.0", "trial": 2, "time_elapsed": 497585, "serialpos": 1, "key_press": -1, "wordID": 973, "type": "PRES_AUD", "trial_index": 90}, "uniqueid": "MTK3150:3K9FOBBF2IQKYW25ZXNL5R86KA8LNI", "dateTime": 1520109223269}, {"current_trial": 91, "trialdata": {"rt": -1000, "trial_type": "single-audio", "word": "blouse", "stimulus": "/static/audio/wordpool/BLOUSE.wav", "conditions": [24, 1600, "a", 12000], "internal_node_id": "0.0-64.0", "trial": 2, "time_elapsed": 500118, "serialpos": 2, "key_press": -1, "wordID": 138, "type": "PRES_AUD", "trial_index": 91}, "uniqueid": "MTK3150:3K9FOBBF2IQKYW25ZXNL5R86KA8LNI", "dateTime": 1520109225805}, {"current_trial": 92, "trialdata": {"rt": -1000, "trial_type": "single-audio", "word": "country", "stimulus": "/static/audio/wordpool/COUNTRY.wav", "conditions": [24, 1600, "a", 12000], "internal_node_id": "0.0-65.0", "trial": 2, "time_elapsed": 502776, "serialpos": 3, "key_press": -1, "wordID": 387, "type": "PRES_AUD", "trial_index": 92}, "uniqueid": "MTK3150:3K9FOBBF2IQKYW25ZXNL5R86KA8LNI", "dateTime": 1520109228460}, {"current_trial": 93, "trialdata": {"rt": -1000, "trial_type": "single-audio", "word": "brick", "stimulus": "/static/audio/wordpool/BRICK.wav", "conditions": [24, 1600, "a", 12000], "internal_node_id": "0.0-66.0", "trial": 2, "time_elapsed": 505250, "serialpos": 4, "key_press": -1, "wordID": 171, "type": "PRES_AUD", "trial_index": 93}, "uniqueid": "MTK3150:3K9FOBBF2IQKYW25ZXNL5R86KA8LNI", "dateTime": 1520109230934}, {"current_trial": 94, "trialdata": {"rt": -1000, "trial_type": "single-audio", "word": "tile", "stimulus": "/static/audio/wordpool/TILE.wav", "conditions": [24, 1600, "a", 12000], "internal_node_id": "0.0-67.0", "trial": 2, "time_elapsed": 508040, "serialpos": 5, "key_press": -1, "wordID": 1467, "type": "PRES_AUD", "trial_index": 94}, "uniqueid": "MTK3150:3K9FOBBF2IQKYW25ZXNL5R86KA8LNI", "dateTime": 1520109233724}, {"current_trial": 95, "trialdata": {"rt": -1000, "trial_type": "single-audio", "word": "spouse", "stimulus": "/static/audio/wordpool/SPOUSE.wav", "conditions": [24, 1600, "a", 12000], "internal_node_id": "0.0-68.0", "trial": 2, "time_elapsed": 510508, "serialpos": 6, "key_press": -1, "wordID": 1357, "type": "PRES_AUD", "trial_index": 95}, "uniqueid": "MTK3150:3K9FOBBF2IQKYW25ZXNL5R86KA8LNI", "dateTime": 1520109236192}, {"current_trial": 96, "trialdata": {"rt": -1000, "trial_type": "single-audio", "word": "skirt", "stimulus": "/static/audio/wordpool/SKIRT.wav", "conditions": [24, 1600, "a", 12000], "internal_node_id": "0.0-69.0", "trial": 2, "time_elapsed": 512942, "serialpos": 7, "key_press": -1, "wordID": 1318, "type": "PRES_AUD", "trial_index": 96}, "uniqueid": "MTK3150:3K9FOBBF2IQKYW25ZXNL5R86KA8LNI", "dateTime": 1520109238626}, {"current_trial": 97, "trialdata": {"rt": -1000, "trial_type": "single-audio", "word": "crutch", "stimulus": "/static/audio/wordpool/CRUTCH.wav", "conditions": [24, 1600, "a", 12000], "internal_node_id": "0.0-70.0", "trial": 2, "time_elapsed": 515432, "serialpos": 8, "key_press": -1, "wordID": 416, "type": "PRES_AUD", "trial_index": 97}, "uniqueid": "MTK3150:3K9FOBBF2IQKYW25ZXNL5R86KA8LNI", "dateTime": 1520109241116}, {"current_trial": 98, "trialdata": {"rt": -1000, "trial_type": "single-audio", "word": "missile", "stimulus": "/static/audio/wordpool/MISSILE.wav", "conditions": [24, 1600, "a", 12000], "internal_node_id": "0.0-71.0", "trial": 2, "time_elapsed": 518107, "serialpos": 9, "key_press": -1, "wordID": 899, "type": "PRES_AUD", "trial_index": 98}, "uniqueid": "MTK3150:3K9FOBBF2IQKYW25ZXNL5R86KA8LNI", "dateTime": 1520109243791}, {"current_trial": 99, "trialdata": {"rt": -1000, "trial_type": "single-audio", "word": "crater", "stimulus": "/static/audio/wordpool/CRATER.wav", "conditions": [24, 1600, "a", 12000], "internal_node_id": "0.0-72.0", "trial": 2, "time_elapsed": 520737, "serialpos": 10, "key_press": -1, "wordID": 399, "type": "PRES_AUD", "trial_index": 99}, "uniqueid": "MTK3150:3K9FOBBF2IQKYW25ZXNL5R86KA8LNI", "dateTime": 1520109246421}, {"current_trial": 100, "trialdata": {"rt": -1000, "trial_type": "single-audio", "word": "ankle", "stimulus": "/static/audio/wordpool/ANKLE.wav", "conditions": [24, 1600, "a", 12000], "internal_node_id": "0.0-73.0", "trial": 2, "time_elapsed": 523362, "serialpos": 11, "key_press": -1, "wordID": 23, "type": "PRES_AUD", "trial_index": 100}, "uniqueid": "MTK3150:3K9FOBBF2IQKYW25ZXNL5R86KA8LNI", "dateTime": 1520109249046}, {"current_trial": 101, "trialdata": {"rt": -1000, "trial_type": "single-audio", "word": "cabin", "stimulus": "/static/audio/wordpool/CABIN.wav", "conditions": [24, 1600, "a", 12000], "internal_node_id": "0.0-74.0", "trial": 2, "time_elapsed": 525974, "serialpos": 12, "key_press": -1, "wordID": 210, "type": "PRES_AUD", "trial_index": 101}, "uniqueid": "MTK3150:3K9FOBBF2IQKYW25ZXNL5R86KA8LNI", "dateTime": 1520109251658}, {"current_trial": 102, "trialdata": {"rt": -1000, "trial_type": "single-audio", "word": "postage", "stimulus": "/static/audio/wordpool/POSTAGE.wav", "conditions": [24, 1600, "a", 12000], "internal_node_id": "0.0-75.0", "trial": 2, "time_elapsed": 528518, "serialpos": 13, "key_press": -1, "wordID": 1112, "type": "PRES_AUD", "trial_index": 102}, "uniqueid": "MTK3150:3K9FOBBF2IQKYW25ZXNL5R86KA8LNI", "dateTime": 1520109254202}, {"current_trial": 103, "trialdata": {"rt": -1000, "trial_type": "single-audio", "word": "dragon", "stimulus": "/static/audio/wordpool/DRAGON.wav", "conditions": [24, 1600, "a", 12000], "internal_node_id": "0.0-76.0", "trial": 2, "time_elapsed": 531077, "serialpos": 14, "key_press": -1, "wordID": 491, "type": "PRES_AUD", "trial_index": 103}, "uniqueid": "MTK3150:3K9FOBBF2IQKYW25ZXNL5R86KA8LNI", "dateTime": 1520109256761}, {"current_trial": 104, "trialdata": {"rt": -1000, "trial_type": "single-audio", "word": "goblin", "stimulus": "/static/audio/wordpool/GOBLIN.wav", "conditions": [24, 1600, "a", 12000], "internal_node_id": "0.0-77.0", "trial": 2, "time_elapsed": 533589, "serialpos": 15, "key_press": -1, "wordID": 644, "type": "PRES_AUD", "trial_index": 104}, "uniqueid": "MTK3150:3K9FOBBF2IQKYW25ZXNL5R86KA8LNI", "dateTime": 1520109259273}, {"current_trial": 105, "trialdata": {"rt": -1000, "trial_type": "single-audio", "word": "basement", "stimulus": "/static/audio/wordpool/BASEMENT.wav", "conditions": [24, 1600, "a", 12000], "internal_node_id": "0.0-78.0", "trial": 2, "time_elapsed": 536287, "serialpos": 16, "key_press": -1, "wordID": 93, "type": "PRES_AUD", "trial_index": 105}, "uniqueid": "MTK3150:3K9FOBBF2IQKYW25ZXNL5R86KA8LNI", "dateTime": 1520109261971}, {"current_trial": 106, "trialdata": {"rt": -1000, "trial_type": "single-audio", "word": "yacht", "stimulus": "/static/audio/wordpool/YACHT.wav", "conditions": [24, 1600, "a", 12000], "internal_node_id": "0.0-79.0", "trial": 2, "time_elapsed": 538935, "serialpos": 17, "key_press": -1, "wordID": 1628, "type": "PRES_AUD", "trial_index": 106}, "uniqueid": "MTK3150:3K9FOBBF2IQKYW25ZXNL5R86KA8LNI", "dateTime": 1520109264619}, {"current_trial": 107, "trialdata": {"rt": -1000, "trial_type": "single-audio", "word": "piano", "stimulus": "/static/audio/wordpool/PIANO.wav", "conditions": [24, 1600, "a", 12000], "internal_node_id": "0.0-80.0", "trial": 2, "time_elapsed": 541698, "serialpos": 18, "key_press": -1, "wordID": 1056, "type": "PRES_AUD", "trial_index": 107}, "uniqueid": "MTK3150:3K9FOBBF2IQKYW25ZXNL5R86KA8LNI", "dateTime": 1520109267382}, {"current_trial": 108, "trialdata": {"rt": -1000, "trial_type": "single-audio", "word": "box", "stimulus": "/static/audio/wordpool/BOX.wav", "conditions": [24, 1600, "a", 12000], "internal_node_id": "0.0-81.0", "trial": 2, "time_elapsed": 544487, "serialpos": 19, "key_press": -1, "wordID": 158, "type": "PRES_AUD", "trial_index": 108}, "uniqueid": "MTK3150:3K9FOBBF2IQKYW25ZXNL5R86KA8LNI", "dateTime": 1520109270171}, {"current_trial": 109, "trialdata": {"rt": -1000, "trial_type": "single-audio", "word": "candy", "stimulus": "/static/audio/wordpool/CANDY.wav", "conditions": [24, 1600, "a", 12000], "internal_node_id": "0.0-82.0", "trial": 2, "time_elapsed": 547198, "serialpos": 20, "key_press": -1, "wordID": 229, "type": "PRES_AUD", "trial_index": 109}, "uniqueid": "MTK3150:3K9FOBBF2IQKYW25ZXNL5R86KA8LNI", "dateTime": 1520109272882}, {"current_trial": 110, "trialdata": {"rt": -1000, "trial_type": "single-audio", "word": "child", "stimulus": "/static/audio/wordpool/CHILD.wav", "conditions": [24, 1600, "a", 12000], "internal_node_id": "0.0-83.0", "trial": 2, "time_elapsed": 549977, "serialpos": 21, "key_press": -1, "wordID": 298, "type": "PRES_AUD", "trial_index": 110}, "uniqueid": "MTK3150:3K9FOBBF2IQKYW25ZXNL5R86KA8LNI", "dateTime": 1520109275661}, {"current_trial": 111, "trialdata": {"rt": -1000, "trial_type": "single-audio", "word": "valley", "stimulus": "/static/audio/wordpool/VALLEY.wav", "conditions": [24, 1600, "a", 12000], "internal_node_id": "0.0-84.0", "trial": 2, "time_elapsed": 552387, "serialpos": 22, "key_press": -1, "wordID": 1544, "type": "PRES_AUD", "trial_index": 111}, "uniqueid": "MTK3150:3K9FOBBF2IQKYW25ZXNL5R86KA8LNI", "dateTime": 1520109278071}, {"current_trial": 112, "trialdata": {"rt": -1000, "trial_type": "single-audio", "word": "cellar", "stimulus": "/static/audio/wordpool/CELLAR.wav", "conditions": [24, 1600, "a", 12000], "internal_node_id": "0.0-85.0", "trial": 2, "time_elapsed": 555174, "serialpos": 23, "key_press": -1, "wordID": 266, "type": "PRES_AUD", "trial_index": 112}, "uniqueid": "MTK3150:3K9FOBBF2IQKYW25ZXNL5R86KA8LNI", "dateTime": 1520109280858}, {"current_trial": 113, "trialdata": {"rt": -1, "trial_type": "single-stim", "stimulus": "", "internal_node_id": "0.0-86.0-0.0", "time_elapsed": 556530, "key_press": -1, "type": "PRE_RECALL_DELAY", "trial_index": 113}, "uniqueid": "MTK3150:3K9FOBBF2IQKYW25ZXNL5R86KA8LNI", "dateTime": 1520109282214}, {"current_trial": 114, "trialdata": {"rt": -1000, "trial_type": "single-audio", "stimulus": "/static/audio/400Hz.wav", "internal_node_id": "0.0-87.0", "time_elapsed": 557030, "key_press": -1, "type": "PRE_RECALL_ALERT", "trial_index": 114}, "uniqueid": "MTK3150:3K9FOBBF2IQKYW25ZXNL5R86KA8LNI", "dateTime": 1520109282714}, {"current_trial": 115, "trialdata": {"rt": [1669, 2743, 3593, 4688, 5866, 6974, 8107, 9531, 11790, 17949, 19241, 20698, 22612], "recwords": ["yacht", "piano", "box", "cellar", "goblin", "dragon", "postage", "candy", "child", "brick", "tile", "spouse", "skirt"], "key_times": [1005, 1123, 1262, 1363, 1480, 1669, 1969, 2054, 2226, 2377, 2472, 2743, 3108, 3250, 3355, 3593, 3860, 3955, 4055, 4205, 4344, 4440, 4688, 4995, 5126, 5255, 5403, 5482, 5594, 5866, 6106, 6284, 6430, 6533, 6661, 6720, 6974, 7207, 7312, 7428, 7530, 7689, 7787, 7950, 8107, 8437, 8525, 8645, 8830, 9041, 9531, 11039, 11147, 11218, 11328, 11491, 11790, 17339, 17420, 17520, 17648, 17778, 17949, 18277, 18389, 18599, 18728, 19241, 19688, 19837, 20118, 20199, 20353, 20501, 20698, 21180, 21343, 21574, 21818, 22027, 22612], "trial_type": "free-recall", "conditions": [24, 1600, "a", 12000], "internal_node_id": "0.0-88.0-0.0", "key_presses": [89, 65, 67, 72, 84, 13, 80, 73, 65, 78, 79, 13, 66, 79, 88, 13, 67, 69, 76, 76, 65, 82, 13, 71, 79, 66, 76, 73, 78, 13, 68, 82, 65, 71, 79, 78, 13, 80, 79, 83, 84, 65, 71, 69, 13, 67, 65, 78, 68, 89, 13, 67, 72, 73, 76, 68, 13, 66, 82, 73, 67, 75, 13, 84, 73, 76, 69, 13, 83, 80, 79, 85, 83, 69, 13, 83, 75, 73, 82, 84, 13], "trial": 2, "time_elapsed": 617035, "type": "FREE_RECALL", "trial_index": 115}, "uniqueid": "MTK3150:3K9FOBBF2IQKYW25ZXNL5R86KA8LNI", "dateTime": 1520109342721}, {"current_trial": 116, "trialdata": {"rt": 1832, "trial_type": "text", "internal_node_id": "0.0-89.0", "time_elapsed": 620869, "key_press": 75, "type": "INSTRUCTIONS", "trial_index": 116}, "uniqueid": "MTK3150:3K9FOBBF2IQKYW25ZXNL5R86KA8LNI", "dateTime": 1520109346553}, {"current_trial": 117, "trialdata": {"rt": [2799, 6169], "trial_type": "math-distractor", "key_times": [2308, 2533, 2799, 4994, 5694, 6169, 9872, 10025], "responses": ["14", "16"], "num2": [9, 3, 5], "num3": [4, 9, 8], "conditions": [12, 800, "a", 12000], "internal_node_id": "0.0-90.0", "key_presses": [49, 52, 13, 49, 54, 13, 49, 53], "trial": 3, "time_elapsed": 634871, "type": "DISTRACTOR", "trial_index": 117, "num1": [1, 4, 2]}, "uniqueid": "MTK3150:3K9FOBBF2IQKYW25ZXNL5R86KA8LNI", "dateTime": 1520109360555}, {"current_trial": 118, "trialdata": {"rt": -1, "trial_type": "single-stim", "stimulus": "<p id=\"stim\">10</p>", "internal_node_id": "0.0-91.0-0.0", "time_elapsed": 637871, "key_press": -1, "trial_index": 118}, "uniqueid": "MTK3150:3K9FOBBF2IQKYW25ZXNL5R86KA8LNI", "dateTime": 1520109363555}, {"current_trial": 119, "trialdata": {"rt": -1, "trial_type": "single-stim", "stimulus": "<p id=\"stim\">9</p>", "internal_node_id": "0.0-91.0-1.0", "time_elapsed": 638873, "key_press": -1, "trial_index": 119}, "uniqueid": "MTK3150:3K9FOBBF2IQKYW25ZXNL5R86KA8LNI", "dateTime": 1520109364557}, {"current_trial": 120, "trialdata": {"rt": -1, "trial_type": "single-stim", "stimulus": "<p id=\"stim\">8</p>", "internal_node_id": "0.0-91.0-2.0", "time_elapsed": 639873, "key_press": -1, "trial_index": 120}, "uniqueid": "MTK3150:3K9FOBBF2IQKYW25ZXNL5R86KA8LNI", "dateTime": 1520109365557}, {"current_trial": 121, "trialdata": {"rt": -1, "trial_type": "single-stim", "stimulus": "<p id=\"stim\">7</p>", "internal_node_id": "0.0-91.0-3.0", "time_elapsed": 640874, "key_press": -1, "trial_index": 121}, "uniqueid": "MTK3150:3K9FOBBF2IQKYW25ZXNL5R86KA8LNI", "dateTime": 1520109366558}, {"current_trial": 122, "trialdata": {"rt": -1, "trial_type": "single-stim", "stimulus": "<p id=\"stim\">6</p>", "internal_node_id": "0.0-91.0-4.0", "time_elapsed": 641875, "key_press": -1, "trial_index": 122}, "uniqueid": "MTK3150:3K9FOBBF2IQKYW25ZXNL5R86KA8LNI", "dateTime": 1520109367559}, {"current_trial": 123, "trialdata": {"rt": -1, "trial_type": "single-stim", "stimulus": "<p id=\"stim\">5</p>", "internal_node_id": "0.0-91.0-5.0", "time_elapsed": 642876, "key_press": -1, "trial_index": 123}, "uniqueid": "MTK3150:3K9FOBBF2IQKYW25ZXNL5R86KA8LNI", "dateTime": 1520109368560}, {"current_trial": 124, "trialdata": {"rt": -1, "trial_type": "single-stim", "stimulus": "<p id=\"stim\">4</p>", "internal_node_id": "0.0-91.0-6.0", "time_elapsed": 643877, "key_press": -1, "trial_index": 124}, "uniqueid": "MTK3150:3K9FOBBF2IQKYW25ZXNL5R86KA8LNI", "dateTime": 1520109369561}, {"current_trial": 125, "trialdata": {"rt": -1, "trial_type": "single-stim", "stimulus": "<p id=\"stim\">3</p>", "internal_node_id": "0.0-91.0-7.0", "time_elapsed": 644878, "key_press": -1, "trial_index": 125}, "uniqueid": "MTK3150:3K9FOBBF2IQKYW25ZXNL5R86KA8LNI", "dateTime": 1520109370562}, {"current_trial": 126, "trialdata": {"rt": -1, "trial_type": "single-stim", "stimulus": "<p id=\"stim\">2</p>", "internal_node_id": "0.0-91.0-8.0", "time_elapsed": 645879, "key_press": -1, "trial_index": 126}, "uniqueid": "MTK3150:3K9FOBBF2IQKYW25ZXNL5R86KA8LNI", "dateTime": 1520109371563}, {"current_trial": 127, "trialdata": {"rt": -1, "trial_type": "single-stim", "stimulus": "<p id=\"stim\">1</p>", "internal_node_id": "0.0-91.0-9.0", "time_elapsed": 646880, "key_press": -1, "trial_index": 127}, "uniqueid": "MTK3150:3K9FOBBF2IQKYW25ZXNL5R86KA8LNI", "dateTime": 1520109372564}, {"current_trial": 128, "trialdata": {"rt": -1, "trial_type": "single-stim", "stimulus": "<p id=\"stim\">+</p>", "internal_node_id": "0.0-92.0-0.0", "time_elapsed": 648381, "key_press": -1, "type": "FIXATION", "trial_index": 128}, "uniqueid": "MTK3150:3K9FOBBF2IQKYW25ZXNL5R86KA8LNI", "dateTime": 1520109374065}, {"current_trial": 129, "trialdata": {"rt": -1000, "trial_type": "single-audio", "word": "padding", "stimulus": "/static/audio/wordpool/PADDING.wav", "conditions": [12, 800, "a", 12000], "internal_node_id": "0.0-93.0", "trial": 3, "time_elapsed": 650094, "serialpos": 0, "key_press": -1, "wordID": 998, "type": "PRES_AUD", "trial_index": 129}, "uniqueid": "MTK3150:3K9FOBBF2IQKYW25ZXNL5R86KA8LNI", "dateTime": 1520109375778}, {"current_trial": 130, "trialdata": {"rt": -1000, "trial_type": "single-audio", "word": "mister", "stimulus": "/static/audio/wordpool/MISTER.wav", "conditions": [12, 800, "a", 12000], "internal_node_id": "0.0-94.0", "trial": 3, "time_elapsed": 651834, "serialpos": 1, "key_press": -1, "wordID": 900, "type": "PRES_AUD", "trial_index": 130}, "uniqueid": "MTK3150:3K9FOBBF2IQKYW25ZXNL5R86KA8LNI", "dateTime": 1520109377518}, {"current_trial": 131, "trialdata": {"rt": -1000, "trial_type": "single-audio", "word": "pimple", "stimulus": "/static/audio/wordpool/PIMPLE.wav", "conditions": [12, 800, "a", 12000], "internal_node_id": "0.0-95.0", "trial": 3, "time_elapsed": 653753, "serialpos": 2, "key_press": -1, "wordID": 1070, "type": "PRES_AUD", "trial_index": 131}, "uniqueid": "MTK3150:3K9FOBBF2IQKYW25ZXNL5R86KA8LNI", "dateTime": 1520109379437}, {"current_trial": 132, "trialdata": {"rt": -1000, "trial_type": "single-audio", "word": "package", "stimulus": "/static/audio/wordpool/PACKAGE.wav", "conditions": [12, 800, "a", 12000], "internal_node_id": "0.0-96.0", "trial": 3, "time_elapsed": 655684, "serialpos": 3, "key_press": -1, "wordID": 996, "type": "PRES_AUD", "trial_index": 132}, "uniqueid": "MTK3150:3K9FOBBF2IQKYW25ZXNL5R86KA8LNI", "dateTime": 1520109381368}, {"current_trial": 133, "trialdata": {"rt": -1000, "trial_type": "single-audio", "word": "bunny", "stimulus": "/static/audio/wordpool/BUNNY.wav", "conditions": [12, 800, "a", 12000], "internal_node_id": "0.0-97.0", "trial": 3, "time_elapsed": 657485, "serialpos": 4, "key_press": -1, "wordID": 197, "type": "PRES_AUD", "trial_index": 133}, "uniqueid": "MTK3150:3K9FOBBF2IQKYW25ZXNL5R86KA8LNI", "dateTime": 1520109383169}, {"current_trial": 134, "trialdata": {"rt": -1000, "trial_type": "single-audio", "word": "onion", "stimulus": "/static/audio/wordpool/ONION.wav", "conditions": [12, 800, "a", 12000], "internal_node_id": "0.0-98.0", "trial": 3, "time_elapsed": 659281, "serialpos": 5, "key_press": -1, "wordID": 976, "type": "PRES_AUD", "trial_index": 134}, "uniqueid": "MTK3150:3K9FOBBF2IQKYW25ZXNL5R86KA8LNI", "dateTime": 1520109384965}, {"current_trial": 135, "trialdata": {"rt": -1000, "trial_type": "single-audio", "word": "egypt", "stimulus": "/static/audio/wordpool/EGYPT.wav", "conditions": [12, 800, "a", 12000], "internal_node_id": "0.0-99.0", "trial": 3, "time_elapsed": 660994, "serialpos": 6, "key_press": -1, "wordID": 518, "type": "PRES_AUD", "trial_index": 135}, "uniqueid": "MTK3150:3K9FOBBF2IQKYW25ZXNL5R86KA8LNI", "dateTime": 1520109386678}, {"current_trial": 136, "trialdata": {"rt": -1000, "trial_type": "single-audio", "word": "europe", "stimulus": "/static/audio/wordpool/EUROPE.wav", "conditions": [12, 800, "a", 12000], "internal_node_id": "0.0-100.0", "trial": 3, "time_elapsed": 662950, "serialpos": 7, "key_press": -1, "wordID": 540, "type": "PRES_AUD", "trial_index": 136}, "uniqueid": "MTK3150:3K9FOBBF2IQKYW25ZXNL5R86KA8LNI", "dateTime": 1520109388634}, {"current_trial": 137, "trialdata": {"rt": -1000, "trial_type": "single-audio", "word": "driver", "stimulus": "/static/audio/wordpool/DRIVER.wav", "conditions": [12, 800, "a", 12000], "internal_node_id": "0.0-101.0", "trial": 3, "time_elapsed": 664873, "serialpos": 8, "key_press": -1, "wordID": 498, "type": "PRES_AUD", "trial_index": 137}, "uniqueid": "MTK3150:3K9FOBBF2IQKYW25ZXNL5R86KA8LNI", "dateTime": 1520109390557}, {"current_trial": 138, "trialdata": {"rt": -1000, "trial_type": "single-audio", "word": "penguin", "stimulus": "/static/audio/wordpool/PENGUIN.wav", "conditions": [12, 800, "a", 12000], "internal_node_id": "0.0-102.0", "trial": 3, "time_elapsed": 666799, "serialpos": 9, "key_press": -1, "wordID": 1043, "type": "PRES_AUD", "trial_index": 138}, "uniqueid": "MTK3150:3K9FOBBF2IQKYW25ZXNL5R86KA8LNI", "dateTime": 1520109392483}, {"current_trial": 139, "trialdata": {"rt": -1000, "trial_type": "single-audio", "word": "marsh", "stimulus": "/static/audio/wordpool/MARSH.wav", "conditions": [12, 800, "a", 12000], "internal_node_id": "0.0-103.0", "trial": 3, "time_elapsed": 668458, "serialpos": 10, "key_press": -1, "wordID": 873, "type": "PRES_AUD", "trial_index": 139}, "uniqueid": "MTK3150:3K9FOBBF2IQKYW25ZXNL5R86KA8LNI", "dateTime": 1520109394142}, {"current_trial": 140, "trialdata": {"rt": -1000, "trial_type": "single-audio", "word": "puppy", "stimulus": "/static/audio/wordpool/PUPPY.wav", "conditions": [12, 800, "a", 12000], "internal_node_id": "0.0-104.0", "trial": 3, "time_elapsed": 670400, "serialpos": 11, "key_press": -1, "wordID": 1143, "type": "PRES_AUD", "trial_index": 140}, "uniqueid": "MTK3150:3K9FOBBF2IQKYW25ZXNL5R86KA8LNI", "dateTime": 1520109396084}, {"current_trial": 141, "trialdata": {"rt": -1, "trial_type": "single-stim", "stimulus": "", "internal_node_id": "0.0-105.0-0.0", "time_elapsed": 671767, "key_press": -1, "type": "PRE_RECALL_DELAY", "trial_index": 141}, "uniqueid": "MTK3150:3K9FOBBF2IQKYW25ZXNL5R86KA8LNI", "dateTime": 1520109397451}, {"current_trial": 142, "trialdata": {"rt": -1000, "trial_type": "single-audio", "stimulus": "/static/audio/400Hz.wav", "internal_node_id": "0.0-106.0", "time_elapsed": 672267, "key_press": -1, "type": "PRE_RECALL_ALERT", "trial_index": 142}, "uniqueid": "MTK3150:3K9FOBBF2IQKYW25ZXNL5R86KA8LNI", "dateTime": 1520109397951}, {"current_trial": 143, "trialdata": {"rt": [2016, 3372, 5905, 7745, 9354, 11375, 14142, 18245, 21545, 47854], "recwords": ["penguin", "marsh", "puppy", "egypt", "england", "mister", "padding", "pimple", "driver", "onion"], "key_times": [881, 996, 1083, 1196, 1283, 1569, 1686, 2016, 2446, 2614, 2712, 2849, 3039, 3372, 3754, 4008, 4166, 4303, 4578, 5905, 6604, 6980, 7186, 7353, 7461, 7745, 8169, 8351, 8499, 8683, 8802, 8918, 9104, 9354, 9783, 10110, 10328, 10617, 10933, 11116, 11375, 11896, 12069, 12264, 12404, 12670, 12904, 13279, 14142, 16407, 16626, 16860, 17083, 17259, 17724, 18245, 19978, 20193, 20474, 20653, 20889, 21103, 21545, 31378, 31494, 31591, 31705, 31835, 32036, 32168, 34757, 35257, 35289, 35324, 35357, 35390, 35423, 35455, 35488, 35521, 47248, 47341, 47472, 47540, 47686, 47854], "trial_type": "free-recall", "conditions": [12, 800, "a", 12000], "internal_node_id": "0.0-107.0-0.0", "key_presses": [80, 69, 78, 71, 85, 73, 78, 13, 77, 65, 82, 83, 72, 13, 80, 85, 80, 80, 89, 13, 69, 71, 89, 80, 84, 13, 69, 78, 71, 76, 65, 78, 68, 13, 77, 73, 83, 84, 69, 82, 13, 80, 65, 68, 68, 73, 78, 71, 13, 80, 73, 77, 80, 76, 69, 13, 68, 82, 73, 86, 69, 82, 13, 80, 69, 78, 71, 85, 73, 78, 8, 8, 8, 8, 8, 8, 8, 8, 8, 8, 79, 78, 73, 79, 78, 13], "trial": 3, "time_elapsed": 732270, "type": "FREE_RECALL", "trial_index": 143}, "uniqueid": "MTK3150:3K9FOBBF2IQKYW25ZXNL5R86KA8LNI", "dateTime": 1520109457960}, {"current_trial": 144, "trialdata": {"rt": 2554, "trial_type": "text", "internal_node_id": "0.0-108.0", "time_elapsed": 736832, "key_press": 76, "type": "INSTRUCTIONS", "trial_index": 144}, "uniqueid": "MTK3150:3K9FOBBF2IQKYW25ZXNL5R86KA8LNI", "dateTime": 1520109462516}, {"current_trial": 145, "trialdata": {"rt": [3204, 6134, 9028, 16599, 21429], "trial_type": "math-distractor", "key_times": [2781, 2973, 3204, 4965, 5236, 6134, 8231, 8467, 9028, 14667, 14847, 16599, 20742, 20991, 21429], "responses": ["26", "24", "14", "15", "13"], "num2": [8, 8, 5, 7, 1, 5], "num3": [9, 8, 8, 2, 7, 2], "conditions": [24, 800, "a", 24000], "internal_node_id": "0.0-109.0", "key_presses": [50, 54, 13, 50, 52, 13, 49, 52, 13, 49, 53, 13, 49, 51, 13], "trial": 4, "time_elapsed": 762833, "type": "DISTRACTOR", "trial_index": 145, "num1": [9, 8, 1, 6, 5, 1]}, "uniqueid": "MTK3150:3K9FOBBF2IQKYW25ZXNL5R86KA8LNI", "dateTime": 1520109488517}, {"current_trial": 146, "trialdata": {"rt": -1, "trial_type": "single-stim", "stimulus": "<p id=\"stim\">10</p>", "internal_node_id": "0.0-110.0-0.0", "time_elapsed": 765833, "key_press": -1, "trial_index": 146}, "uniqueid": "MTK3150:3K9FOBBF2IQKYW25ZXNL5R86KA8LNI", "dateTime": 1520109491517}, {"current_trial": 147, "trialdata": {"rt": -1, "trial_type": "single-stim", "stimulus": "<p id=\"stim\">9</p>", "internal_node_id": "0.0-110.0-1.0", "time_elapsed": 766834, "key_press": -1, "trial_index": 147}, "uniqueid": "MTK3150:3K9FOBBF2IQKYW25ZXNL5R86KA8LNI", "dateTime": 1520109492518}, {"current_trial": 148, "trialdata": {"rt": -1, "trial_type": "single-stim", "stimulus": "<p id=\"stim\">8</p>", "internal_node_id": "0.0-110.0-2.0", "time_elapsed": 767835, "key_press": -1, "trial_index": 148}, "uniqueid": "MTK3150:3K9FOBBF2IQKYW25ZXNL5R86KA8LNI", "dateTime": 1520109493519}, {"current_trial": 149, "trialdata": {"rt": -1, "trial_type": "single-stim", "stimulus": "<p id=\"stim\">7</p>", "internal_node_id": "0.0-110.0-3.0", "time_elapsed": 768835, "key_press": -1, "trial_index": 149}, "uniqueid": "MTK3150:3K9FOBBF2IQKYW25ZXNL5R86KA8LNI", "dateTime": 1520109494519}, {"current_trial": 150, "trialdata": {"rt": -1, "trial_type": "single-stim", "stimulus": "<p id=\"stim\">6</p>", "internal_node_id": "0.0-110.0-4.0", "time_elapsed": 769836, "key_press": -1, "trial_index": 150}, "uniqueid": "MTK3150:3K9FOBBF2IQKYW25ZXNL5R86KA8LNI", "dateTime": 1520109495520}, {"current_trial": 151, "trialdata": {"rt": -1, "trial_type": "single-stim", "stimulus": "<p id=\"stim\">5</p>", "internal_node_id": "0.0-110.0-5.0", "time_elapsed": 770836, "key_press": -1, "trial_index": 151}, "uniqueid": "MTK3150:3K9FOBBF2IQKYW25ZXNL5R86KA8LNI", "dateTime": 1520109496520}, {"current_trial": 152, "trialdata": {"rt": -1, "trial_type": "single-stim", "stimulus": "<p id=\"stim\">4</p>", "internal_node_id": "0.0-110.0-6.0", "time_elapsed": 771837, "key_press": -1, "trial_index": 152}, "uniqueid": "MTK3150:3K9FOBBF2IQKYW25ZXNL5R86KA8LNI", "dateTime": 1520109497521}, {"current_trial": 153, "trialdata": {"rt": -1, "trial_type": "single-stim", "stimulus": "<p id=\"stim\">3</p>", "internal_node_id": "0.0-110.0-7.0", "time_elapsed": 772838, "key_press": -1, "trial_index": 153}, "uniqueid": "MTK3150:3K9FOBBF2IQKYW25ZXNL5R86KA8LNI", "dateTime": 1520109498522}, {"current_trial": 154, "trialdata": {"rt": -1, "trial_type": "single-stim", "stimulus": "<p id=\"stim\">2</p>", "internal_node_id": "0.0-110.0-8.0", "time_elapsed": 773839, "key_press": -1, "trial_index": 154}, "uniqueid": "MTK3150:3K9FOBBF2IQKYW25ZXNL5R86KA8LNI", "dateTime": 1520109499523}, {"current_trial": 155, "trialdata": {"rt": -1, "trial_type": "single-stim", "stimulus": "<p id=\"stim\">1</p>", "internal_node_id": "0.0-110.0-9.0", "time_elapsed": 774839, "key_press": -1, "trial_index": 155}, "uniqueid": "MTK3150:3K9FOBBF2IQKYW25ZXNL5R86KA8LNI", "dateTime": 1520109500523}, {"current_trial": 156, "trialdata": {"rt": -1, "trial_type": "single-stim", "stimulus": "<p id=\"stim\">+</p>", "internal_node_id": "0.0-111.0-0.0", "time_elapsed": 776340, "key_press": -1, "type": "FIXATION", "trial_index": 156}, "uniqueid": "MTK3150:3K9FOBBF2IQKYW25ZXNL5R86KA8LNI", "dateTime": 1520109502024}, {"current_trial": 157, "trialdata": {"rt": -1000, "trial_type": "single-audio", "word": "motel", "stimulus": "/static/audio/wordpool/MOTEL.wav", "conditions": [24, 800, "a", 24000], "internal_node_id": "0.0-112.0", "trial": 4, "time_elapsed": 778107, "serialpos": 0, "key_press": -1, "wordID": 918, "type": "PRES_AUD", "trial_index": 157}, "uniqueid": "MTK3150:3K9FOBBF2IQKYW25ZXNL5R86KA8LNI", "dateTime": 1520109503791}, {"current_trial": 158, "trialdata": {"rt": -1000, "trial_type": "single-audio", "word": "waiter", "stimulus": "/static/audio/wordpool/WAITER.wav", "conditions": [24, 800, "a", 24000], "internal_node_id": "0.0-113.0", "trial": 4, "time_elapsed": 779900, "serialpos": 1, "key_press": -1, "wordID": 1579, "type": "PRES_AUD", "trial_index": 158}, "uniqueid": "MTK3150:3K9FOBBF2IQKYW25ZXNL5R86KA8LNI", "dateTime": 1520109505584}, {"current_trial": 159, "trialdata": {"rt": -1000, "trial_type": "single-audio", "word": "pudding", "stimulus": "/static/audio/wordpool/PUDDING.wav", "conditions": [24, 800, "a", 24000], "internal_node_id": "0.0-114.0", "trial": 4, "time_elapsed": 781655, "serialpos": 2, "key_press": -1, "wordID": 1138, "type": "PRES_AUD", "trial_index": 159}, "uniqueid": "MTK3150:3K9FOBBF2IQKYW25ZXNL5R86KA8LNI", "dateTime": 1520109507339}, {"current_trial": 160, "trialdata": {"rt": -1000, "trial_type": "single-audio", "word": "custard", "stimulus": "/static/audio/wordpool/CUSTARD.wav", "conditions": [24, 800, "a", 24000], "internal_node_id": "0.0-115.0", "trial": 4, "time_elapsed": 783447, "serialpos": 3, "key_press": -1, "wordID": 428, "type": "PRES_AUD", "trial_index": 160}, "uniqueid": "MTK3150:3K9FOBBF2IQKYW25ZXNL5R86KA8LNI", "dateTime": 1520109509131}, {"current_trial": 161, "trialdata": {"rt": -1000, "trial_type": "single-audio", "word": "beef", "stimulus": "/static/audio/wordpool/BEEF.wav", "conditions": [24, 800, "a", 24000], "internal_node_id": "0.0-116.0", "trial": 4, "time_elapsed": 785121, "serialpos": 4, "key_press": -1, "wordID": 112, "type": "PRES_AUD", "trial_index": 161}, "uniqueid": "MTK3150:3K9FOBBF2IQKYW25ZXNL5R86KA8LNI", "dateTime": 1520109510805}, {"current_trial": 162, "trialdata": {"rt": -1000, "trial_type": "single-audio", "word": "tractor", "stimulus": "/static/audio/wordpool/TRACTOR.wav", "conditions": [24, 800, "a", 24000], "internal_node_id": "0.0-117.0", "trial": 4, "time_elapsed": 786952, "serialpos": 5, "key_press": -1, "wordID": 1492, "type": "PRES_AUD", "trial_index": 162}, "uniqueid": "MTK3150:3K9FOBBF2IQKYW25ZXNL5R86KA8LNI", "dateTime": 1520109512636}, {"current_trial": 163, "trialdata": {"rt": -1000, "trial_type": "single-audio", "word": "witness", "stimulus": "/static/audio/wordpool/WITNESS.wav", "conditions": [24, 800, "a", 24000], "internal_node_id": "0.0-118.0", "trial": 4, "time_elapsed": 788796, "serialpos": 6, "key_press": -1, "wordID": 1617, "type": "PRES_AUD", "trial_index": 163}, "uniqueid": "MTK3150:3K9FOBBF2IQKYW25ZXNL5R86KA8LNI", "dateTime": 1520109514480}, {"current_trial": 164, "trialdata": {"rt": -1000, "trial_type": "single-audio", "word": "brandy", "stimulus": "/static/audio/wordpool/BRANDY.wav", "conditions": [24, 800, "a", 24000], "internal_node_id": "0.0-119.0", "trial": 4, "time_elapsed": 790621, "serialpos": 7, "key_press": -1, "wordID": 168, "type": "PRES_AUD", "trial_index": 164}, "uniqueid": "MTK3150:3K9FOBBF2IQKYW25ZXNL5R86KA8LNI", "dateTime": 1520109516305}, {"current_trial": 165, "trialdata": {"rt": -1000, "trial_type": "single-audio", "word": "pork", "stimulus": "/static/audio/wordpool/PORK.wav", "conditions": [24, 800, "a", 24000], "internal_node_id": "0.0-120.0", "trial": 4, "time_elapsed": 792232, "serialpos": 8, "key_press": -1, "wordID": 1107, "type": "PRES_AUD", "trial_index": 165}, "uniqueid": "MTK3150:3K9FOBBF2IQKYW25ZXNL5R86KA8LNI", "dateTime": 1520109517916}, {"current_trial": 166, "trialdata": {"rt": -1000, "trial_type": "single-audio", "word": "fireman", "stimulus": "/static/audio/wordpool/FIREMAN.wav", "conditions": [24, 800, "a", 24000], "internal_node_id": "0.0-121.0", "trial": 4, "time_elapsed": 794108, "serialpos": 9, "key_press": -1, "wordID": 568, "type": "PRES_AUD", "trial_index": 166}, "uniqueid": "MTK3150:3K9FOBBF2IQKYW25ZXNL5R86KA8LNI", "dateTime": 1520109519792}, {"current_trial": 167, "trialdata": {"rt": -1000, "trial_type": "single-audio", "word": "seafood", "stimulus": "/static/audio/wordpool/SEAFOOD.wav", "conditions": [24, 800, "a", 24000], "internal_node_id": "0.0-122.0", "trial": 4, "time_elapsed": 795730, "serialpos": 10, "key_press": -1, "wordID": 1259, "type": "PRES_AUD", "trial_index": 167}, "uniqueid": "MTK3150:3K9FOBBF2IQKYW25ZXNL5R86KA8LNI", "dateTime": 1520109521414}, {"current_trial": 168, "trialdata": {"rt": -1000, "trial_type": "single-audio", "word": "cabbage", "stimulus": "/static/audio/wordpool/CABBAGE.wav", "conditions": [24, 800, "a", 24000], "internal_node_id": "0.0-123.0", "trial": 4, "time_elapsed": 797465, "serialpos": 11, "key_press": -1, "wordID": 209, "type": "PRES_AUD", "trial_index": 168}, "uniqueid": "MTK3150:3K9FOBBF2IQKYW25ZXNL5R86KA8LNI", "dateTime": 1520109523149}, {"current_trial": 169, "trialdata": {"rt": -1000, "trial_type": "single-audio", "word": "leopard", "stimulus": "/static/audio/wordpool/LEOPARD.wav", "conditions": [24, 800, "a", 24000], "internal_node_id": "0.0-124.0", "trial": 4, "time_elapsed": 799359, "serialpos": 12, "key_press": -1, "wordID": 811, "type": "PRES_AUD", "trial_index": 169}, "uniqueid": "MTK3150:3K9FOBBF2IQKYW25ZXNL5R86KA8LNI", "dateTime": 1520109525043}, {"current_trial": 170, "trialdata": {"rt": -1000, "trial_type": "single-audio", "word": "scotch", "stimulus": "/static/audio/wordpool/SCOTCH.wav", "conditions": [24, 800, "a", 24000], "internal_node_id": "0.0-125.0", "trial": 4, "time_elapsed": 801120, "serialpos": 13, "key_press": -1, "wordID": 1250, "type": "PRES_AUD", "trial_index": 170}, "uniqueid": "MTK3150:3K9FOBBF2IQKYW25ZXNL5R86KA8LNI", "dateTime": 1520109526804}, {"current_trial": 171, "trialdata": {"rt": -1000, "trial_type": "single-audio", "word": "braces", "stimulus": "/static/audio/wordpool/BRACES.wav", "conditions": [24, 800, "a", 24000], "internal_node_id": "0.0-126.0", "trial": 4, "time_elapsed": 803029, "serialpos": 14, "key_press": -1, "wordID": 163, "type": "PRES_AUD", "trial_index": 171}, "uniqueid": "MTK3150:3K9FOBBF2IQKYW25ZXNL5R86KA8LNI", "dateTime": 1520109528713}, {"current_trial": 172, "trialdata": {"rt": -1000, "trial_type": "single-audio", "word": "panther", "stimulus": "/static/audio/wordpool/PANTHER.wav", "conditions": [24, 800, "a", 24000], "internal_node_id": "0.0-127.0", "trial": 4, "time_elapsed": 804637, "serialpos": 15, "key_press": -1, "wordID": 1008, "type": "PRES_AUD", "trial_index": 172}, "uniqueid": "MTK3150:3K9FOBBF2IQKYW25ZXNL5R86KA8LNI", "dateTime": 1520109530321}, {"current_trial": 173, "trialdata": {"rt": -1000, "trial_type": "single-audio", "word": "fox", "stimulus": "/static/audio/wordpool/FOX.wav", "conditions": [24, 800, "a", 24000], "internal_node_id": "0.0-128.0", "trial": 4, "time_elapsed": 806423, "serialpos": 16, "key_press": -1, "wordID": 597, "type": "PRES_AUD", "trial_index": 173}, "uniqueid": "MTK3150:3K9FOBBF2IQKYW25ZXNL5R86KA8LNI", "dateTime": 1520109532107}, {"current_trial": 174, "trialdata": {"rt": -1000, "trial_type": "single-audio", "word": "fragrance", "stimulus": "/static/audio/wordpool/FRAGRANCE.wav", "conditions": [24, 800, "a", 24000], "internal_node_id": "0.0-129.0", "trial": 4, "time_elapsed": 808166, "serialpos": 17, "key_press": -1, "wordID": 598, "type": "PRES_AUD", "trial_index": 174}, "uniqueid": "MTK3150:3K9FOBBF2IQKYW25ZXNL5R86KA8LNI", "dateTime": 1520109533850}, {"current_trial": 175, "trialdata": {"rt": -1000, "trial_type": "single-audio", "word": "garbage", "stimulus": "/static/audio/wordpool/GARBAGE.wav", "conditions": [24, 800, "a", 24000], "internal_node_id": "0.0-130.0", "trial": 4, "time_elapsed": 809904, "serialpos": 18, "key_press": -1, "wordID": 621, "type": "PRES_AUD", "trial_index": 175}, "uniqueid": "MTK3150:3K9FOBBF2IQKYW25ZXNL5R86KA8LNI", "dateTime": 1520109535588}, {"current_trial": 176, "trialdata": {"rt": -1000, "trial_type": "single-audio", "word": "citrus", "stimulus": "/static/audio/wordpool/CITRUS.wav", "conditions": [24, 800, "a", 24000], "internal_node_id": "0.0-131.0", "trial": 4, "time_elapsed": 811851, "serialpos": 19, "key_press": -1, "wordID": 312, "type": "PRES_AUD", "trial_index": 176}, "uniqueid": "MTK3150:3K9FOBBF2IQKYW25ZXNL5R86KA8LNI", "dateTime": 1520109537535}, {"current_trial": 177, "trialdata": {"rt": -1000, "trial_type": "single-audio", "word": "muffin", "stimulus": "/static/audio/wordpool/MUFFIN.wav", "conditions": [24, 800, "a", 24000], "internal_node_id": "0.0-132.0", "trial": 4, "time_elapsed": 813528, "serialpos": 20, "key_press": -1, "wordID": 928, "type": "PRES_AUD", "trial_index": 177}, "uniqueid": "MTK3150:3K9FOBBF2IQKYW25ZXNL5R86KA8LNI", "dateTime": 1520109539212}, {"current_trial": 178, "trialdata": {"rt": -1000, "trial_type": "single-audio", "word": "pastry", "stimulus": "/static/audio/wordpool/PASTRY.wav", "conditions": [24, 800, "a", 24000], "internal_node_id": "0.0-133.0", "trial": 4, "time_elapsed": 815335, "serialpos": 21, "key_press": -1, "wordID": 1021, "type": "PRES_AUD", "trial_index": 178}, "uniqueid": "MTK3150:3K9FOBBF2IQKYW25ZXNL5R86KA8LNI", "dateTime": 1520109541019}, {"current_trial": 179, "trialdata": {"rt": -1000, "trial_type": "single-audio", "word": "poison", "stimulus": "/static/audio/wordpool/POISON.wav", "conditions": [24, 800, "a", 24000], "internal_node_id": "0.0-134.0", "trial": 4, "time_elapsed": 817260, "serialpos": 22, "key_press": -1, "wordID": 1095, "type": "PRES_AUD", "trial_index": 179}, "uniqueid": "MTK3150:3K9FOBBF2IQKYW25ZXNL5R86KA8LNI", "dateTime": 1520109542944}, {"current_trial": 180, "trialdata": {"rt": -1000, "trial_type": "single-audio", "word": "jello", "stimulus": "/static/audio/wordpool/JELLO.wav", "conditions": [24, 800, "a", 24000], "internal_node_id": "0.0-135.0", "trial": 4, "time_elapsed": 818916, "serialpos": 23, "key_press": -1, "wordID": 753, "type": "PRES_AUD", "trial_index": 180}, "uniqueid": "MTK3150:3K9FOBBF2IQKYW25ZXNL5R86KA8LNI", "dateTime": 1520109544600}, {"current_trial": 181, "trialdata": {"rt": -1, "trial_type": "single-stim", "stimulus": "", "internal_node_id": "0.0-136.0-0.0", "time_elapsed": 820194, "key_press": -1, "type": "PRE_RECALL_DELAY", "trial_index": 181}, "uniqueid": "MTK3150:3K9FOBBF2IQKYW25ZXNL5R86KA8LNI", "dateTime": 1520109545878}, {"current_trial": 182, "trialdata": {"rt": -1000, "trial_type": "single-audio", "stimulus": "/static/audio/400Hz.wav", "internal_node_id": "0.0-137.0", "time_elapsed": 820694, "key_press": -1, "type": "PRE_RECALL_ALERT", "trial_index": 182}, "uniqueid": "MTK3150:3K9FOBBF2IQKYW25ZXNL5R86KA8LNI", "dateTime": 1520109546378}, {"current_trial": 183, "trialdata": {"rt": [1628, 2936, 4441, 12187, 13917, 15931, 17943, 20768, 22468, 25625, 38341, 43719, 46258, 50439], "recwords": ["jello", "poison", "muffin", "motel", "brandy", "tractor", "witness", "cabbage", "pork", "custard", "waiter", "fox", "fragrance", "garbage"], "key_times": [536, 674, 782, 1273, 1441, 1628, 1915, 2067, 2261, 2391, 2531, 2671, 2936, 3298, 3512, 3598, 3749, 3942, 4097, 4441, 5147, 5282, 5350, 5519, 5672, 5826, 8168, 8668, 8702, 8734, 8766, 8799, 8834, 8867, 11217, 11333, 11522, 11620, 11803, 12187, 12482, 12619, 12735, 12891, 13016, 13197, 13917, 14835, 14989, 15073, 15240, 15458, 15595, 15712, 15931, 16434, 16556, 16688, 16813, 16923, 17083, 17222, 17943, 19600, 19683, 19833, 19990, 20122, 20232, 20392, 20768, 21394, 21591, 21769, 21967, 22468, 24549, 24769, 24856, 24933, 25049, 25126, 25270, 25625, 34410, 34491, 34848, 34962, 35310, 35435, 36562, 36704, 36792, 36858, 36937, 37064, 37519, 37680, 37834, 37975, 38048, 38097, 38341, 43243, 43391, 43526, 43719, 44056, 44263, 44413, 44635, 44919, 45063, 45173, 45272, 45465, 46258, 49340, 49437, 49561, 49721, 49853, 49964, 50149, 50439], "trial_type": "free-recall", "conditions": [24, 800, "a", 24000], "internal_node_id": "0.0-138.0-0.0", "key_presses": [74, 69, 76, 76, 79, 13, 80, 79, 73, 83, 79, 78, 13, 77, 85, 70, 70, 73, 78, 13, 80, 65, 83, 84, 82, 89, 8, 8, 8, 8, 8, 8, 8, 8, 77, 79, 84, 69, 76, 13, 66, 82, 65, 78, 68, 89, 13, 84, 82, 65, 67, 84, 79, 82, 13, 87, 73, 84, 78, 69, 83, 83, 13, 67, 65, 66, 66, 65, 71, 69, 13, 80, 79, 82, 75, 13, 67, 85, 83, 84, 65, 82, 68, 13, 87, 65, 73, 84, 69, 82, 8, 8, 82, 69, 83, 83, 8, 8, 8, 8, 69, 82, 13, 70, 79, 88, 13, 70, 82, 65, 71, 82, 65, 78, 67, 69, 13, 71, 65, 82, 66, 65, 71, 69, 13], "trial": 4, "time_elapsed": 880697, "type": "FREE_RECALL", "trial_index": 183}, "uniqueid": "MTK3150:3K9FOBBF2IQKYW25ZXNL5R86KA8LNI", "dateTime": 1520109606384}, {"current_trial": 184, "trialdata": {"rt": 1493, "trial_type": "text", "internal_node_id": "0.0-139.0", "time_elapsed": 884195, "key_press": 73, "type": "INSTRUCTIONS", "trial_index": 184}, "uniqueid": "MTK3150:3K9FOBBF2IQKYW25ZXNL5R86KA8LNI", "dateTime": 1520109609879}, {"current_trial": 185, "trialdata": {"rt": [3252, 7810, 10914, 16924, 23578], "trial_type": "math-distractor", "key_times": [2826, 3014, 3252, 7004, 7519, 7810, 9691, 9910, 10914, 16498, 16651, 16924, 23254, 23332, 23578], "responses": ["15", "17", "15", "23", "12"], "num2": [8, 2, 8, 9, 4, 4], "num3": [2, 6, 2, 8, 1, 3], "conditions": [24, 800, "a", 24000], "internal_node_id": "0.0-140.0", "key_presses": [49, 53, 13, 49, 55, 13, 49, 53, 13, 50, 51, 13, 49, 50, 13], "trial": 5, "time_elapsed": 910196, "type": "DISTRACTOR", "trial_index": 185, "num1": [5, 9, 5, 6, 7, 1]}, "uniqueid": "MTK3150:3K9FOBBF2IQKYW25ZXNL5R86KA8LNI", "dateTime": 1520109635880}, {"current_trial": 186, "trialdata": {"rt": -1, "trial_type": "single-stim", "stimulus": "<p id=\"stim\">10</p>", "internal_node_id": "0.0-141.0-0.0", "time_elapsed": 913196, "key_press": -1, "trial_index": 186}, "uniqueid": "MTK3150:3K9FOBBF2IQKYW25ZXNL5R86KA8LNI", "dateTime": 1520109638880}, {"current_trial": 187, "trialdata": {"rt": -1, "trial_type": "single-stim", "stimulus": "<p id=\"stim\">9</p>", "internal_node_id": "0.0-141.0-1.0", "time_elapsed": 914198, "key_press": -1, "trial_index": 187}, "uniqueid": "MTK3150:3K9FOBBF2IQKYW25ZXNL5R86KA8LNI", "dateTime": 1520109639882}, {"current_trial": 188, "trialdata": {"rt": -1, "trial_type": "single-stim", "stimulus": "<p id=\"stim\">8</p>", "internal_node_id": "0.0-141.0-2.0", "time_elapsed": 915198, "key_press": -1, "trial_index": 188}, "uniqueid": "MTK3150:3K9FOBBF2IQKYW25ZXNL5R86KA8LNI", "dateTime": 1520109640882}, {"current_trial": 189, "trialdata": {"rt": -1, "trial_type": "single-stim", "stimulus": "<p id=\"stim\">7</p>", "internal_node_id": "0.0-141.0-3.0", "time_elapsed": 916199, "key_press": -1, "trial_index": 189}, "uniqueid": "MTK3150:3K9FOBBF2IQKYW25ZXNL5R86KA8LNI", "dateTime": 1520109641883}, {"current_trial": 190, "trialdata": {"rt": -1, "trial_type": "single-stim", "stimulus": "<p id=\"stim\">6</p>", "internal_node_id": "0.0-141.0-4.0", "time_elapsed": 917201, "key_press": -1, "trial_index": 190}, "uniqueid": "MTK3150:3K9FOBBF2IQKYW25ZXNL5R86KA8LNI", "dateTime": 1520109642885}, {"current_trial": 191, "trialdata": {"rt": -1, "trial_type": "single-stim", "stimulus": "<p id=\"stim\">5</p>", "internal_node_id": "0.0-141.0-5.0", "time_elapsed": 918200, "key_press": -1, "trial_index": 191}, "uniqueid": "MTK3150:3K9FOBBF2IQKYW25ZXNL5R86KA8LNI", "dateTime": 1520109643884}, {"current_trial": 192, "trialdata": {"rt": -1, "trial_type": "single-stim", "stimulus": "<p id=\"stim\">4</p>", "internal_node_id": "0.0-141.0-6.0", "time_elapsed": 919201, "key_press": -1, "trial_index": 192}, "uniqueid": "MTK3150:3K9FOBBF2IQKYW25ZXNL5R86KA8LNI", "dateTime": 1520109644885}, {"current_trial": 193, "trialdata": {"rt": -1, "trial_type": "single-stim", "stimulus": "<p id=\"stim\">3</p>", "internal_node_id": "0.0-141.0-7.0", "time_elapsed": 920202, "key_press": -1, "trial_index": 193}, "uniqueid": "MTK3150:3K9FOBBF2IQKYW25ZXNL5R86KA8LNI", "dateTime": 1520109645886}, {"current_trial": 194, "trialdata": {"rt": -1, "trial_type": "single-stim", "stimulus": "<p id=\"stim\">2</p>", "internal_node_id": "0.0-141.0-8.0", "time_elapsed": 921203, "key_press": -1, "trial_index": 194}, "uniqueid": "MTK3150:3K9FOBBF2IQKYW25ZXNL5R86KA8LNI", "dateTime": 1520109646887}, {"current_trial": 195, "trialdata": {"rt": -1, "trial_type": "single-stim", "stimulus": "<p id=\"stim\">1</p>", "internal_node_id": "0.0-141.0-9.0", "time_elapsed": 922204, "key_press": -1, "trial_index": 195}, "uniqueid": "MTK3150:3K9FOBBF2IQKYW25ZXNL5R86KA8LNI", "dateTime": 1520109647888}, {"current_trial": 196, "trialdata": {"rt": -1, "trial_type": "single-stim", "stimulus": "<p id=\"stim\">+</p>", "internal_node_id": "0.0-142.0-0.0", "time_elapsed": 923705, "key_press": -1, "type": "FIXATION", "trial_index": 196}, "uniqueid": "MTK3150:3K9FOBBF2IQKYW25ZXNL5R86KA8LNI", "dateTime": 1520109649389}, {"current_trial": 197, "trialdata": {"rt": -1000, "trial_type": "single-audio", "word": "skillet", "stimulus": "/static/audio/wordpool/SKILLET.wav", "conditions": [24, 800, "a", 24000], "internal_node_id": "0.0-143.0", "trial": 5, "time_elapsed": 925660, "serialpos": 0, "key_press": -1, "wordID": 1316, "type": "PRES_AUD", "trial_index": 197}, "uniqueid": "MTK3150:3K9FOBBF2IQKYW25ZXNL5R86KA8LNI", "dateTime": 1520109651344}, {"current_trial": 198, "trialdata": {"rt": -1000, "trial_type": "single-audio", "word": "rod", "stimulus": "/static/audio/wordpool/ROD.wav", "conditions": [24, 800, "a", 24000], "internal_node_id": "0.0-144.0", "trial": 5, "time_elapsed": 927411, "serialpos": 1, "key_press": -1, "wordID": 1202, "type": "PRES_AUD", "trial_index": 198}, "uniqueid": "MTK3150:3K9FOBBF2IQKYW25ZXNL5R86KA8LNI", "dateTime": 1520109653095}, {"current_trial": 199, "trialdata": {"rt": -1000, "trial_type": "single-audio", "word": "college", "stimulus": "/static/audio/wordpool/COLLEGE.wav", "conditions": [24, 800, "a", 24000], "internal_node_id": "0.0-145.0", "trial": 5, "time_elapsed": 929031, "serialpos": 2, "key_press": -1, "wordID": 345, "type": "PRES_AUD", "trial_index": 199}, "uniqueid": "MTK3150:3K9FOBBF2IQKYW25ZXNL5R86KA8LNI", "dateTime": 1520109654715}, {"current_trial": 200, "trialdata": {"rt": -1000, "trial_type": "single-audio", "word": "blender", "stimulus": "/static/audio/wordpool/BLENDER.wav", "conditions": [24, 800, "a", 24000], "internal_node_id": "0.0-146.0", "trial": 5, "time_elapsed": 930716, "serialpos": 3, "key_press": -1, "wordID": 135, "type": "PRES_AUD", "trial_index": 200}, "uniqueid": "MTK3150:3K9FOBBF2IQKYW25ZXNL5R86KA8LNI", "dateTime": 1520109656400}, {"current_trial": 201, "trialdata": {"rt": -1000, "trial_type": "single-audio", "word": "quail", "stimulus": "/static/audio/wordpool/QUAIL.wav", "conditions": [24, 800, "a", 24000], "internal_node_id": "0.0-147.0", "trial": 5, "time_elapsed": 932622, "serialpos": 4, "key_press": -1, "wordID": 1146, "type": "PRES_AUD", "trial_index": 201}, "uniqueid": "MTK3150:3K9FOBBF2IQKYW25ZXNL5R86KA8LNI", "dateTime": 1520109658307}, {"current_trial": 202, "trialdata": {"rt": -1000, "trial_type": "single-audio", "word": "turkey", "stimulus": "/static/audio/wordpool/TURKEY.wav", "conditions": [24, 800, "a", 24000], "internal_node_id": "0.0-148.0", "trial": 5, "time_elapsed": 934381, "serialpos": 5, "key_press": -1, "wordID": 1519, "type": "PRES_AUD", "trial_index": 202}, "uniqueid": "MTK3150:3K9FOBBF2IQKYW25ZXNL5R86KA8LNI", "dateTime": 1520109660065}, {"current_trial": 203, "trialdata": {"rt": -1000, "trial_type": "single-audio", "word": "hiker", "stimulus": "/static/audio/wordpool/HIKER.wav", "conditions": [24, 800, "a", 24000], "internal_node_id": "0.0-149.0", "trial": 5, "time_elapsed": 936082, "serialpos": 6, "key_press": -1, "wordID": 707, "type": "PRES_AUD", "trial_index": 203}, "uniqueid": "MTK3150:3K9FOBBF2IQKYW25ZXNL5R86KA8LNI", "dateTime": 1520109661771}, {"current_trial": 204, "trialdata": {"rt": -1000, "trial_type": "single-audio", "word": "cloud", "stimulus": "/static/audio/wordpool/CLOUD.wav", "conditions": [24, 800, "a", 24000], "internal_node_id": "0.0-150.0", "trial": 5, "time_elapsed": 937959, "serialpos": 7, "key_press": -1, "wordID": 327, "type": "PRES_AUD", "trial_index": 204}, "uniqueid": "MTK3150:3K9FOBBF2IQKYW25ZXNL5R86KA8LNI", "dateTime": 1520109663643}, {"current_trial": 205, "trialdata": {"rt": -1000, "trial_type": "single-audio", "word": "tuba", "stimulus": "/static/audio/wordpool/TUBA.wav", "conditions": [24, 800, "a", 24000], "internal_node_id": "0.0-151.0", "trial": 5, "time_elapsed": 939666, "serialpos": 8, "key_press": -1, "wordID": 1514, "type": "PRES_AUD", "trial_index": 205}, "uniqueid": "MTK3150:3K9FOBBF2IQKYW25ZXNL5R86KA8LNI", "dateTime": 1520109665350}, {"current_trial": 206, "trialdata": {"rt": -1000, "trial_type": "single-audio", "word": "climber", "stimulus": "/static/audio/wordpool/CLIMBER.wav", "conditions": [24, 800, "a", 24000], "internal_node_id": "0.0-152.0", "trial": 5, "time_elapsed": 941283, "serialpos": 9, "key_press": -1, "wordID": 322, "type": "PRES_AUD", "trial_index": 206}, "uniqueid": "MTK3150:3K9FOBBF2IQKYW25ZXNL5R86KA8LNI", "dateTime": 1520109666967}, {"current_trial": 207, "trialdata": {"rt": -1000, "trial_type": "single-audio", "word": "hero", "stimulus": "/static/audio/wordpool/HERO.wav", "conditions": [24, 800, "a", 24000], "internal_node_id": "0.0-153.0", "trial": 5, "time_elapsed": 942923, "serialpos": 10, "key_press": -1, "wordID": 705, "type": "PRES_AUD", "trial_index": 207}, "uniqueid": "MTK3150:3K9FOBBF2IQKYW25ZXNL5R86KA8LNI", "dateTime": 1520109668607}, {"current_trial": 208, "trialdata": {"rt": -1000, "trial_type": "single-audio", "word": "pepper", "stimulus": "/static/audio/wordpool/PEPPER.wav", "conditions": [24, 800, "a", 24000], "internal_node_id": "0.0-154.0", "trial": 5, "time_elapsed": 944856, "serialpos": 11, "key_press": -1, "wordID": 1046, "type": "PRES_AUD", "trial_index": 208}, "uniqueid": "MTK3150:3K9FOBBF2IQKYW25ZXNL5R86KA8LNI", "dateTime": 1520109670540}, {"current_trial": 209, "trialdata": {"rt": -1000, "trial_type": "single-audio", "word": "kidney", "stimulus": "/static/audio/wordpool/KIDNEY.wav", "conditions": [24, 800, "a", 24000], "internal_node_id": "0.0-155.0", "trial": 5, "time_elapsed": 946699, "serialpos": 12, "key_press": -1, "wordID": 775, "type": "PRES_AUD", "trial_index": 209}, "uniqueid": "MTK3150:3K9FOBBF2IQKYW25ZXNL5R86KA8LNI", "dateTime": 1520109672383}, {"current_trial": 210, "trialdata": {"rt": -1000, "trial_type": "single-audio", "word": "robot", "stimulus": "/static/audio/wordpool/ROBOT.wav", "conditions": [24, 800, "a", 24000], "internal_node_id": "0.0-156.0", "trial": 5, "time_elapsed": 948340, "serialpos": 13, "key_press": -1, "wordID": 1199, "type": "PRES_AUD", "trial_index": 210}, "uniqueid": "MTK3150:3K9FOBBF2IQKYW25ZXNL5R86KA8LNI", "dateTime": 1520109674024}, {"current_trial": 211, "trialdata": {"rt": -1000, "trial_type": "single-audio", "word": "blockade", "stimulus": "/static/audio/wordpool/BLOCKADE.wav", "conditions": [24, 800, "a", 24000], "internal_node_id": "0.0-157.0", "trial": 5, "time_elapsed": 950111, "serialpos": 14, "key_press": -1, "wordID": 136, "type": "PRES_AUD", "trial_index": 211}, "uniqueid": "MTK3150:3K9FOBBF2IQKYW25ZXNL5R86KA8LNI", "dateTime": 1520109675795}, {"current_trial": 212, "trialdata": {"rt": -1000, "trial_type": "single-audio", "word": "daisy", "stimulus": "/static/audio/wordpool/DAISY.wav", "conditions": [24, 800, "a", 24000], "internal_node_id": "0.0-158.0", "trial": 5, "time_elapsed": 952066, "serialpos": 15, "key_press": -1, "wordID": 434, "type": "PRES_AUD", "trial_index": 212}, "uniqueid": "MTK3150:3K9FOBBF2IQKYW25ZXNL5R86KA8LNI", "dateTime": 1520109677750}, {"current_trial": 213, "trialdata": {"rt": -1000, "trial_type": "single-audio", "word": "flower", "stimulus": "/static/audio/wordpool/FLOWER.wav", "conditions": [24, 800, "a", 24000], "internal_node_id": "0.0-159.0", "trial": 5, "time_elapsed": 953841, "serialpos": 16, "key_press": -1, "wordID": 583, "type": "PRES_AUD", "trial_index": 213}, "uniqueid": "MTK3150:3K9FOBBF2IQKYW25ZXNL5R86KA8LNI", "dateTime": 1520109679525}, {"current_trial": 214, "trialdata": {"rt": -1000, "trial_type": "single-audio", "word": "briefcase", "stimulus": "/static/audio/wordpool/BRIEFCASE.wav", "conditions": [24, 800, "a", 24000], "internal_node_id": "0.0-160.0", "trial": 5, "time_elapsed": 955609, "serialpos": 17, "key_press": -1, "wordID": 174, "type": "PRES_AUD", "trial_index": 214}, "uniqueid": "MTK3150:3K9FOBBF2IQKYW25ZXNL5R86KA8LNI", "dateTime": 1520109681293}, {"current_trial": 215, "trialdata": {"rt": -1000, "trial_type": "single-audio", "word": "bacon", "stimulus": "/static/audio/wordpool/BACON.wav", "conditions": [24, 800, "a", 24000], "internal_node_id": "0.0-161.0", "trial": 5, "time_elapsed": 957605, "serialpos": 18, "key_press": -1, "wordID": 66, "type": "PRES_AUD", "trial_index": 215}, "uniqueid": "MTK3150:3K9FOBBF2IQKYW25ZXNL5R86KA8LNI", "dateTime": 1520109683289}, {"current_trial": 216, "trialdata": {"rt": -1000, "trial_type": "single-audio", "word": "cottage", "stimulus": "/static/audio/wordpool/COTTAGE.wav", "conditions": [24, 800, "a", 24000], "internal_node_id": "0.0-162.0", "trial": 5, "time_elapsed": 959364, "serialpos": 19, "key_press": -1, "wordID": 383, "type": "PRES_AUD", "trial_index": 216}, "uniqueid": "MTK3150:3K9FOBBF2IQKYW25ZXNL5R86KA8LNI", "dateTime": 1520109685048}, {"current_trial": 217, "trialdata": {"rt": -1000, "trial_type": "single-audio", "word": "rooster", "stimulus": "/static/audio/wordpool/ROOSTER.wav", "conditions": [24, 800, "a", 24000], "internal_node_id": "0.0-163.0", "trial": 5, "time_elapsed": 961112, "serialpos": 20, "key_press": -1, "wordID": 1208, "type": "PRES_AUD", "trial_index": 217}, "uniqueid": "MTK3150:3K9FOBBF2IQKYW25ZXNL5R86KA8LNI", "dateTime": 1520109686796}, {"current_trial": 218, "trialdata": {"rt": -1000, "trial_type": "single-audio", "word": "denim", "stimulus": "/static/audio/wordpool/DENIM.wav", "conditions": [24, 800, "a", 24000], "internal_node_id": "0.0-164.0", "trial": 5, "time_elapsed": 963053, "serialpos": 21, "key_press": -1, "wordID": 445, "type": "PRES_AUD", "trial_index": 218}, "uniqueid": "MTK3150:3K9FOBBF2IQKYW25ZXNL5R86KA8LNI", "dateTime": 1520109688737}, {"current_trial": 219, "trialdata": {"rt": -1000, "trial_type": "single-audio", "word": "scallop", "stimulus": "/static/audio/wordpool/SCALLOP.wav", "conditions": [24, 800, "a", 24000], "internal_node_id": "0.0-165.0", "trial": 5, "time_elapsed": 964858, "serialpos": 22, "key_press": -1, "wordID": 1241, "type": "PRES_AUD", "trial_index": 219}, "uniqueid": "MTK3150:3K9FOBBF2IQKYW25ZXNL5R86KA8LNI", "dateTime": 1520109690542}, {"current_trial": 220, "trialdata": {"rt": -1000, "trial_type": "single-audio", "word": "marrow", "stimulus": "/static/audio/wordpool/MARROW.wav", "conditions": [24, 800, "a", 24000], "internal_node_id": "0.0-166.0", "trial": 5, "time_elapsed": 966506, "serialpos": 23, "key_press": -1, "wordID": 871, "type": "PRES_AUD", "trial_index": 220}, "uniqueid": "MTK3150:3K9FOBBF2IQKYW25ZXNL5R86KA8LNI", "dateTime": 1520109692190}, {"current_trial": 221, "trialdata": {"rt": -1, "trial_type": "single-stim", "stimulus": "", "internal_node_id": "0.0-167.0-0.0", "time_elapsed": 967712, "key_press": -1, "type": "PRE_RECALL_DELAY", "trial_index": 221}, "uniqueid": "MTK3150:3K9FOBBF2IQKYW25ZXNL5R86KA8LNI", "dateTime": 1520109693396}, {"current_trial": 222, "trialdata": {"rt": -1000, "trial_type": "single-audio", "stimulus": "/static/audio/400Hz.wav", "internal_node_id": "0.0-168.0", "time_elapsed": 968212, "key_press": -1, "type": "PRE_RECALL_ALERT", "trial_index": 222}, "uniqueid": "MTK3150:3K9FOBBF2IQKYW25ZXNL5R86KA8LNI", "dateTime": 1520109693896}, {"current_trial": 223, "trialdata": {"rt": [3623, 5648, 7801, 9660, 13866, 17972, 57497, 58731], "recwords": ["mero", "briefcase", "cottage", "climber", "turkey", "cloud", "daisy", "flower"], "key_times": [2446, 2569, 2645, 2733, 3623, 4639, 4727, 4831, 4935, 5015, 5200, 5311, 5376, 5468, 5648, 6048, 6173, 6314, 6458, 6566, 6716, 6893, 7801, 8571, 8752, 8929, 9032, 9156, 9321, 9396, 9660, 10413, 10636, 10733, 10900, 11028, 11173, 13866, 17113, 17261, 17431, 17519, 17641, 17972, 56962, 57063, 57174, 57243, 57360, 57497, 57714, 57851, 58020, 58109, 58263, 58377, 58731], "trial_type": "free-recall", "conditions": [24, 800, "a", 24000], "internal_node_id": "0.0-169.0-0.0", "key_presses": [77, 69, 82, 79, 13, 66, 82, 73, 69, 70, 67, 65, 83, 69, 13, 67, 79, 84, 84, 65, 71, 69, 13, 67, 76, 73, 77, 66, 69, 82, 13, 84, 85, 82, 75, 69, 89, 13, 67, 76, 79, 85, 68, 13, 68, 65, 73, 83, 89, 13, 70, 76, 79, 87, 69, 82, 13], "trial": 5, "time_elapsed": 1028214, "type": "FREE_RECALL", "trial_index": 223}, "uniqueid": "MTK3150:3K9FOBBF2IQKYW25ZXNL5R86KA8LNI", "dateTime": 1520109753903}, {"current_trial": 224, "trialdata": {"rt": 2044, "trial_type": "text", "internal_node_id": "0.0-170.0", "time_elapsed": 1032263, "key_press": 70, "type": "INSTRUCTIONS", "trial_index": 224}, "uniqueid": "MTK3150:3K9FOBBF2IQKYW25ZXNL5R86KA8LNI", "dateTime": 1520109757947}, {"current_trial": 225, "trialdata": {"rt": [3155, 7952], "trial_type": "math-distractor", "key_times": [1852, 2612, 3155, 6526, 6772, 7952, 10506, 10867], "responses": ["18", "15"], "num2": [2, 5, 5], "num3": [8, 9, 9], "conditions": [12, 800, "a", 12000], "internal_node_id": "0.0-171.0", "key_presses": [49, 56, 13, 49, 53, 13, 49, 55], "trial": 6, "time_elapsed": 1046265, "type": "DISTRACTOR", "trial_index": 225, "num1": [8, 1, 3]}, "uniqueid": "MTK3150:3K9FOBBF2IQKYW25ZXNL5R86KA8LNI", "dateTime": 1520109771949}, {"current_trial": 226, "trialdata": {"rt": -1, "trial_type": "single-stim", "stimulus": "<p id=\"stim\">10</p>", "internal_node_id": "0.0-172.0-0.0", "time_elapsed": 1049264, "key_press": -1, "trial_index": 226}, "uniqueid": "MTK3150:3K9FOBBF2IQKYW25ZXNL5R86KA8LNI", "dateTime": 1520109774948}, {"current_trial": 227, "trialdata": {"rt": -1, "trial_type": "single-stim", "stimulus": "<p id=\"stim\">9</p>", "internal_node_id": "0.0-172.0-1.0", "time_elapsed": 1050265, "key_press": -1, "trial_index": 227}, "uniqueid": "MTK3150:3K9FOBBF2IQKYW25ZXNL5R86KA8LNI", "dateTime": 1520109775949}, {"current_trial": 228, "trialdata": {"rt": -1, "trial_type": "single-stim", "stimulus": "<p id=\"stim\">8</p>", "internal_node_id": "0.0-172.0-2.0", "time_elapsed": 1051267, "key_press": -1, "trial_index": 228}, "uniqueid": "MTK3150:3K9FOBBF2IQKYW25ZXNL5R86KA8LNI", "dateTime": 1520109776951}, {"current_trial": 229, "trialdata": {"rt": -1, "trial_type": "single-stim", "stimulus": "<p id=\"stim\">7</p>", "internal_node_id": "0.0-172.0-3.0", "time_elapsed": 1052267, "key_press": -1, "trial_index": 229}, "uniqueid": "MTK3150:3K9FOBBF2IQKYW25ZXNL5R86KA8LNI", "dateTime": 1520109777951}, {"current_trial": 230, "trialdata": {"rt": -1, "trial_type": "single-stim", "stimulus": "<p id=\"stim\">6</p>", "internal_node_id": "0.0-172.0-4.0", "time_elapsed": 1053268, "key_press": -1, "trial_index": 230}, "uniqueid": "MTK3150:3K9FOBBF2IQKYW25ZXNL5R86KA8LNI", "dateTime": 1520109778952}, {"current_trial": 231, "trialdata": {"rt": -1, "trial_type": "single-stim", "stimulus": "<p id=\"stim\">5</p>", "internal_node_id": "0.0-172.0-5.0", "time_elapsed": 1054269, "key_press": -1, "trial_index": 231}, "uniqueid": "MTK3150:3K9FOBBF2IQKYW25ZXNL5R86KA8LNI", "dateTime": 1520109779953}, {"current_trial": 232, "trialdata": {"rt": -1, "trial_type": "single-stim", "stimulus": "<p id=\"stim\">4</p>", "internal_node_id": "0.0-172.0-6.0", "time_elapsed": 1055270, "key_press": -1, "trial_index": 232}, "uniqueid": "MTK3150:3K9FOBBF2IQKYW25ZXNL5R86KA8LNI", "dateTime": 1520109780954}, {"current_trial": 233, "trialdata": {"rt": -1, "trial_type": "single-stim", "stimulus": "<p id=\"stim\">3</p>", "internal_node_id": "0.0-172.0-7.0", "time_elapsed": 1056271, "key_press": -1, "trial_index": 233}, "uniqueid": "MTK3150:3K9FOBBF2IQKYW25ZXNL5R86KA8LNI", "dateTime": 1520109781955}, {"current_trial": 234, "trialdata": {"rt": -1, "trial_type": "single-stim", "stimulus": "<p id=\"stim\">2</p>", "internal_node_id": "0.0-172.0-8.0", "time_elapsed": 1057271, "key_press": -1, "trial_index": 234}, "uniqueid": "MTK3150:3K9FOBBF2IQKYW25ZXNL5R86KA8LNI", "dateTime": 1520109782955}, {"current_trial": 235, "trialdata": {"rt": -1, "trial_type": "single-stim", "stimulus": "<p id=\"stim\">1</p>", "internal_node_id": "0.0-172.0-9.0", "time_elapsed": 1058272, "key_press": -1, "trial_index": 235}, "uniqueid": "MTK3150:3K9FOBBF2IQKYW25ZXNL5R86KA8LNI", "dateTime": 1520109783956}, {"current_trial": 236, "trialdata": {"rt": -1, "trial_type": "single-stim", "stimulus": "<p id=\"stim\">+</p>", "internal_node_id": "0.0-173.0-0.0", "time_elapsed": 1059773, "key_press": -1, "type": "FIXATION", "trial_index": 236}, "uniqueid": "MTK3150:3K9FOBBF2IQKYW25ZXNL5R86KA8LNI", "dateTime": 1520109785457}, {"current_trial": 237, "trialdata": {"rt": -1000, "trial_type": "single-audio", "word": "student", "stimulus": "/static/audio/wordpool/STUDENT.wav", "conditions": [12, 800, "a", 12000], "internal_node_id": "0.0-174.0", "trial": 6, "time_elapsed": 1061467, "serialpos": 0, "key_press": -1, "wordID": 1394, "type": "PRES_AUD", "trial_index": 237}, "uniqueid": "MTK3150:3K9FOBBF2IQKYW25ZXNL5R86KA8LNI", "dateTime": 1520109787151}, {"current_trial": 238, "trialdata": {"rt": -1000, "trial_type": "single-audio", "word": "dorm", "stimulus": "/static/audio/wordpool/DORM.wav", "conditions": [12, 800, "a", 12000], "internal_node_id": "0.0-175.0", "trial": 6, "time_elapsed": 1063097, "serialpos": 1, "key_press": -1, "wordID": 487, "type": "PRES_AUD", "trial_index": 238}, "uniqueid": "MTK3150:3K9FOBBF2IQKYW25ZXNL5R86KA8LNI", "dateTime": 1520109788781}, {"current_trial": 239, "trialdata": {"rt": -1000, "trial_type": "single-audio", "word": "vagrant", "stimulus": "/static/audio/wordpool/VAGRANT.wav", "conditions": [12, 800, "a", 12000], "internal_node_id": "0.0-176.0", "trial": 6, "time_elapsed": 1064730, "serialpos": 2, "key_press": -1, "wordID": 1543, "type": "PRES_AUD", "trial_index": 239}, "uniqueid": "MTK3150:3K9FOBBF2IQKYW25ZXNL5R86KA8LNI", "dateTime": 1520109790414}, {"current_trial": 240, "trialdata": {"rt": -1000, "trial_type": "single-audio", "word": "valve", "stimulus": "/static/audio/wordpool/VALVE.wav", "conditions": [12, 800, "a", 12000], "internal_node_id": "0.0-177.0", "trial": 6, "time_elapsed": 1066346, "serialpos": 3, "key_press": -1, "wordID": 1545, "type": "PRES_AUD", "trial_index": 240}, "uniqueid": "MTK3150:3K9FOBBF2IQKYW25ZXNL5R86KA8LNI", "dateTime": 1520109792030}, {"current_trial": 241, "trialdata": {"rt": -1000, "trial_type": "single-audio", "word": "orange", "stimulus": "/static/audio/wordpool/ORANGE.wav", "conditions": [12, 800, "a", 12000], "internal_node_id": "0.0-178.0", "trial": 6, "time_elapsed": 1068276, "serialpos": 4, "key_press": -1, "wordID": 979, "type": "PRES_AUD", "trial_index": 241}, "uniqueid": "MTK3150:3K9FOBBF2IQKYW25ZXNL5R86KA8LNI", "dateTime": 1520109793960}, {"current_trial": 242, "trialdata": {"rt": -1000, "trial_type": "single-audio", "word": "shorts", "stimulus": "/static/audio/wordpool/SHORTS.wav", "conditions": [12, 800, "a", 12000], "internal_node_id": "0.0-179.0", "trial": 6, "time_elapsed": 1070118, "serialpos": 5, "key_press": -1, "wordID": 1292, "type": "PRES_AUD", "trial_index": 242}, "uniqueid": "MTK3150:3K9FOBBF2IQKYW25ZXNL5R86KA8LNI", "dateTime": 1520109795802}, {"current_trial": 243, "trialdata": {"rt": -1000, "trial_type": "single-audio", "word": "diner", "stimulus": "/static/audio/wordpool/DINER.wav", "conditions": [12, 800, "a", 12000], "internal_node_id": "0.0-180.0", "trial": 6, "time_elapsed": 1071726, "serialpos": 6, "key_press": -1, "wordID": 466, "type": "PRES_AUD", "trial_index": 243}, "uniqueid": "MTK3150:3K9FOBBF2IQKYW25ZXNL5R86KA8LNI", "dateTime": 1520109797410}, {"current_trial": 244, "trialdata": {"rt": -1000, "trial_type": "single-audio", "word": "piston", "stimulus": "/static/audio/wordpool/PISTON.wav", "conditions": [12, 800, "a", 12000], "internal_node_id": "0.0-181.0", "trial": 6, "time_elapsed": 1073533, "serialpos": 7, "key_press": -1, "wordID": 1075, "type": "PRES_AUD", "trial_index": 244}, "uniqueid": "MTK3150:3K9FOBBF2IQKYW25ZXNL5R86KA8LNI", "dateTime": 1520109799217}, {"current_trial": 245, "trialdata": {"rt": -1000, "trial_type": "single-audio", "word": "suspect", "stimulus": "/static/audio/wordpool/SUSPECT.wav", "conditions": [12, 800, "a", 12000], "internal_node_id": "0.0-182.0", "trial": 6, "time_elapsed": 1075490, "serialpos": 8, "key_press": -1, "wordID": 1414, "type": "PRES_AUD", "trial_index": 245}, "uniqueid": "MTK3150:3K9FOBBF2IQKYW25ZXNL5R86KA8LNI", "dateTime": 1520109801174}, {"current_trial": 246, "trialdata": {"rt": -1000, "trial_type": "single-audio", "word": "rust", "stimulus": "/static/audio/wordpool/RUST.wav", "conditions": [12, 800, "a", 12000], "internal_node_id": "0.0-183.0", "trial": 6, "time_elapsed": 1077405, "serialpos": 9, "key_press": -1, "wordID": 1218, "ty