{"assignmentId": "33FBRBDW6P66SLLVGI53KBSO2P38CC", "workerId": "MTK3486", "questiondata": {"origin": "United States", "strat-rehearsal": "2", "marital": "Single", "education": "Bachelor's degree", "ethnicity": "Not Hispanic", "color_depth": 24, "distracted": "No", "wrote-notes": "No", "strat-other": "", "screen_width": 1440, "avail_screen_width": 1440, "avail_screen_height": 877, "strat-image": "10", "language": "English", "gender": "Female", "age": "22", "gender_other": "", "race": ["Black", "White"], "strat-categorize": "10", "pixel_depth": 24, "strat-spatial": "0", "strat-story": "93", "race_other": "", "screen_height": 900}, "bonus": 0, "hitId": "3WGCNLZJKFFWZT9URRMX0NREOAI1DG", "counterbalance": 2511, "useragent": "Mozilla/5.0 (Macintosh; Intel Mac OS X 10_13_1) AppleWebKit/537.36 (KHTML, like Gecko) Chrome/58.0.3029.81 Safari/537.36", "eventdata": [{"eventtype": "initialized", "interval": 0, "value": null, "timestamp": 1520620434554}, {"eventtype": "window_resize", "interval": 0, "value": [1440, 826], "timestamp": 1520620434554}, {"eventtype": "focus", "interval": 5993, "value": "off", "timestamp": 1520620440547}, {"eventtype": "focus", "interval": 4470, "value": "on", "timestamp": 1520620445017}, {"eventtype": "focus", "interval": 46960, "value": "off", "timestamp": 1520620491977}, {"eventtype": "focus", "interval": 1364, "value": "on", "timestamp": 1520620493341}, {"eventtype": "focus", "interval": 4749, "value": "off", "timestamp": 1520620498090}, {"eventtype": "focus", "interval": 1103264, "value": "on", "timestamp": 1520621601354}, {"eventtype": "focus", "interval": 271769, "value": "off", "timestamp": 1520621873123}, {"eventtype": "focus", "interval": 428448, "value": "on", "timestamp": 1520622301571}, {"eventtype": "focus", "interval": 136445, "value": "off", "timestamp": 1520622438016}, {"eventtype": "focus", "interval": 74433, "value": "on", "timestamp": 1520622512449}, {"eventtype": "focus", "interval": 1297124, "value": "off", "timestamp": 1520623809573}, {"eventtype": "focus", "interval": 4294, "value": "on", "timestamp": 1520623813867}, {"eventtype": "focus", "interval": 1088131, "value": "off", "timestamp": 1520624901998}, {"eventtype": "focus", "interval": 7169, "value": "on", "timestamp": 1520624909167}, {"eventtype": "focus", "interval": 451620, "value": "off", "timestamp": 1520625360787}, {"eventtype": "focus", "interval": 1627, "value": "on", "timestamp": 1520625362414}], "data": [{"current_trial": 0, "trialdata": {"rt": 7251, "trial_type": "text", "internal_node_id": "0.0-0.0", "time_elapsed": 7253, "key_press": 32, "type": "INSTRUCTIONS", "trial_index": 0}, "uniqueid": "MTK3486:33FBRBDW6P66SLLVGI53KBSO2P38CC", "dateTime": 1520620447705}, {"current_trial": 1, "trialdata": {"rt": 1239120, "trial_type": "text", "internal_node_id": "0.0-1.0", "time_elapsed": 1246375, "key_press": 32, "type": "INSTRUCTIONS", "trial_index": 1}, "uniqueid": "MTK3486:33FBRBDW6P66SLLVGI53KBSO2P38CC", "dateTime": 1520621686826}, {"current_trial": 2, "trialdata": {"rt": [12267], "trial_type": "audio-test", "responses": ["ocean"], "internal_node_id": "0.0-2.0", "time_elapsed": 1258653, "type": "AUDIO_TEST", "trial_index": 2}, "uniqueid": "MTK3486:33FBRBDW6P66SLLVGI53KBSO2P38CC", "dateTime": 1520621699104}, {"current_trial": 3, "trialdata": {"rt": [7508], "trial_type": "audio-test", "responses": ["crystal"], "internal_node_id": "0.0-3.0", "time_elapsed": 1266164, "type": "AUDIO_TEST", "trial_index": 3}, "uniqueid": "MTK3486:33FBRBDW6P66SLLVGI53KBSO2P38CC", "dateTime": 1520621706615}, {"current_trial": 4, "trialdata": {"rt": [4887], "trial_type": "audio-test", "responses": ["spice"], "internal_node_id": "0.0-4.0", "time_elapsed": 1271054, "type": "AUDIO_TEST", "trial_index": 4}, "uniqueid": "MTK3486:33FBRBDW6P66SLLVGI53KBSO2P38CC", "dateTime": 1520621711505}, {"current_trial": 5, "trialdata": {"rt": 22505, "trial_type": "survey-text", "responses": "{\"Q0\":\"11:30 AM\",\"Q1\":\"7:00 AM\",\"Q2\":\"5\"}", "internal_node_id": "0.0-5.0", "time_elapsed": 1294314, "type": "SLEEP_SURVEY", "trial_index": 5}, "uniqueid": "MTK3486:33FBRBDW6P66SLLVGI53KBSO2P38CC", "dateTime": 1520621734765}, {"current_trial": 6, "trialdata": {"rt": 796323, "trial_type": "text", "internal_node_id": "0.0-6.0", "time_elapsed": 2091639, "key_press": 32, "type": "INSTRUCTIONS", "trial_index": 6}, "uniqueid": "MTK3486:33FBRBDW6P66SLLVGI53KBSO2P38CC", "dateTime": 1520622532090}, {"current_trial": 7, "trialdata": {"rt": 15943, "trial_type": "text", "internal_node_id": "0.0-7.0", "time_elapsed": 2108085, "key_press": 13, "type": "INSTRUCTIONS", "trial_index": 7}, "uniqueid": "MTK3486:33FBRBDW6P66SLLVGI53KBSO2P38CC", "dateTime": 1520622548536}, {"current_trial": 8, "trialdata": {"rt": 11747, "trial_type": "text", "internal_node_id": "0.0-8.0", "time_elapsed": 2120335, "key_press": 74, "type": "INSTRUCTIONS", "trial_index": 8}, "uniqueid": "MTK3486:33FBRBDW6P66SLLVGI53KBSO2P38CC", "dateTime": 1520622560786}, {"current_trial": 9, "trialdata": {"rt": [4118, 6170, 8217, 10050, 12677, 17202], "trial_type": "math-distractor", "key_times": [3697, 4118, 5697, 5931, 6170, 7806, 7994, 8217, 9620, 9859, 10050, 12234, 12444, 12677, 16541, 16952, 17202], "responses": ["8", "14", "12", "14", "14", "14"], "num2": [1, 9, 1, 3, 1, 8, 6], "num3": [3, 4, 4, 7, 5, 1, 2], "conditions": [18, 1200, "a", 18000], "internal_node_id": "0.0-9.0", "key_presses": [56, 13, 49, 52, 13, 49, 50, 13, 49, 52, 13, 49, 52, 13, 49, 52, 13], "trial": 0, "time_elapsed": 2139343, "type": "DISTRACTOR", "trial_index": 9, "num1": [4, 1, 7, 4, 8, 5, 7]}, "uniqueid": "MTK3486:33FBRBDW6P66SLLVGI53KBSO2P38CC", "dateTime": 1520622579795}, {"current_trial": 10, "trialdata": {"rt": -1, "trial_type": "single-stim", "stimulus": "<p id=\"stim\">10</p>", "internal_node_id": "0.0-10.0-0.0", "time_elapsed": 2142350, "key_press": -1, "trial_index": 10}, "uniqueid": "MTK3486:33FBRBDW6P66SLLVGI53KBSO2P38CC", "dateTime": 1520622582801}, {"current_trial": 11, "trialdata": {"rt": -1, "trial_type": "single-stim", "stimulus": "<p id=\"stim\">9</p>", "internal_node_id": "0.0-10.0-1.0", "time_elapsed": 2143354, "key_press": -1, "trial_index": 11}, "uniqueid": "MTK3486:33FBRBDW6P66SLLVGI53KBSO2P38CC", "dateTime": 1520622583805}, {"current_trial": 12, "trialdata": {"rt": -1, "trial_type": "single-stim", "stimulus": "<p id=\"stim\">8</p>", "internal_node_id": "0.0-10.0-2.0", "time_elapsed": 2144360, "key_press": -1, "trial_index": 12}, "uniqueid": "MTK3486:33FBRBDW6P66SLLVGI53KBSO2P38CC", "dateTime": 1520622584812}, {"current_trial": 13, "trialdata": {"rt": -1, "trial_type": "single-stim", "stimulus": "<p id=\"stim\">7</p>", "internal_node_id": "0.0-10.0-3.0", "time_elapsed": 2145366, "key_press": -1, "trial_index": 13}, "uniqueid": "MTK3486:33FBRBDW6P66SLLVGI53KBSO2P38CC", "dateTime": 1520622585817}, {"current_trial": 14, "trialdata": {"rt": -1, "trial_type": "single-stim", "stimulus": "<p id=\"stim\">6</p>", "internal_node_id": "0.0-10.0-4.0", "time_elapsed": 2146372, "key_press": -1, "trial_index": 14}, "uniqueid": "MTK3486:33FBRBDW6P66SLLVGI53KBSO2P38CC", "dateTime": 1520622586823}, {"current_trial": 15, "trialdata": {"rt": -1, "trial_type": "single-stim", "stimulus": "<p id=\"stim\">5</p>", "internal_node_id": "0.0-10.0-5.0", "time_elapsed": 2147377, "key_press": -1, "trial_index": 15}, "uniqueid": "MTK3486:33FBRBDW6P66SLLVGI53KBSO2P38CC", "dateTime": 1520622587828}, {"current_trial": 16, "trialdata": {"rt": -1, "trial_type": "single-stim", "stimulus": "<p id=\"stim\">4</p>", "internal_node_id": "0.0-10.0-6.0", "time_elapsed": 2148382, "key_press": -1, "trial_index": 16}, "uniqueid": "MTK3486:33FBRBDW6P66SLLVGI53KBSO2P38CC", "dateTime": 1520622588833}, {"current_trial": 17, "trialdata": {"rt": -1, "trial_type": "single-stim", "stimulus": "<p id=\"stim\">3</p>", "internal_node_id": "0.0-10.0-7.0", "time_elapsed": 2149387, "key_press": -1, "trial_index": 17}, "uniqueid": "MTK3486:33FBRBDW6P66SLLVGI53KBSO2P38CC", "dateTime": 1520622589839}, {"current_trial": 18, "trialdata": {"rt": -1, "trial_type": "single-stim", "stimulus": "<p id=\"stim\">2</p>", "internal_node_id": "0.0-10.0-8.0", "time_elapsed": 2150392, "key_press": -1, "trial_index": 18}, "uniqueid": "MTK3486:33FBRBDW6P66SLLVGI53KBSO2P38CC", "dateTime": 1520622590843}, {"current_trial": 19, "trialdata": {"rt": -1, "trial_type": "single-stim", "stimulus": "<p id=\"stim\">1</p>", "internal_node_id": "0.0-10.0-9.0", "time_elapsed": 2151397, "key_press": -1, "trial_index": 19}, "uniqueid": "MTK3486:33FBRBDW6P66SLLVGI53KBSO2P38CC", "dateTime": 1520622591848}, {"current_trial": 20, "trialdata": {"rt": -1, "trial_type": "single-stim", "stimulus": "<p id=\"stim\">+</p>", "internal_node_id": "0.0-11.0-0.0", "time_elapsed": 2152904, "key_press": -1, "type": "FIXATION", "trial_index": 20}, "uniqueid": "MTK3486:33FBRBDW6P66SLLVGI53KBSO2P38CC", "dateTime": 1520622593355}, {"current_trial": 21, "trialdata": {"rt": -1000, "trial_type": "single-audio", "word": "contract", "stimulus": "/static/audio/wordpool/CONTRACT.wav", "conditions": [18, 1200, "a", 18000], "internal_node_id": "0.0-12.0", "trial": 0, "time_elapsed": 2155196, "serialpos": 0, "key_press": -1, "wordID": 367, "type": "PRES_AUD", "trial_index": 21}, "uniqueid": "MTK3486:33FBRBDW6P66SLLVGI53KBSO2P38CC", "dateTime": 1520622595648}, {"current_trial": 22, "trialdata": {"rt": -1000, "trial_type": "single-audio", "word": "female", "stimulus": "/static/audio/wordpool/FEMALE.wav", "conditions": [18, 1200, "a", 18000], "internal_node_id": "0.0-13.0", "trial": 0, "time_elapsed": 2157379, "serialpos": 1, "key_press": -1, "wordID": 558, "type": "PRES_AUD", "trial_index": 22}, "uniqueid": "MTK3486:33FBRBDW6P66SLLVGI53KBSO2P38CC", "dateTime": 1520622597830}, {"current_trial": 23, "trialdata": {"rt": -1000, "trial_type": "single-audio", "word": "critic", "stimulus": "/static/audio/wordpool/CRITIC.wav", "conditions": [18, 1200, "a", 18000], "internal_node_id": "0.0-14.0", "trial": 0, "time_elapsed": 2159434, "serialpos": 2, "key_press": -1, "wordID": 409, "type": "PRES_AUD", "trial_index": 23}, "uniqueid": "MTK3486:33FBRBDW6P66SLLVGI53KBSO2P38CC", "dateTime": 1520622599885}, {"current_trial": 24, "trialdata": {"rt": -1000, "trial_type": "single-audio", "word": "harp", "stimulus": "/static/audio/wordpool/HARP.wav", "conditions": [18, 1200, "a", 18000], "internal_node_id": "0.0-15.0", "trial": 0, "time_elapsed": 2161553, "serialpos": 3, "key_press": -1, "wordID": 688, "type": "PRES_AUD", "trial_index": 24}, "uniqueid": "MTK3486:33FBRBDW6P66SLLVGI53KBSO2P38CC", "dateTime": 1520622602004}, {"current_trial": 25, "trialdata": {"rt": -1000, "trial_type": "single-audio", "word": "record", "stimulus": "/static/audio/wordpool/RECORD.wav", "conditions": [18, 1200, "a", 18000], "internal_node_id": "0.0-16.0", "trial": 0, "time_elapsed": 2163596, "serialpos": 4, "key_press": -1, "wordID": 1175, "type": "PRES_AUD", "trial_index": 25}, "uniqueid": "MTK3486:33FBRBDW6P66SLLVGI53KBSO2P38CC", "dateTime": 1520622604047}, {"current_trial": 26, "trialdata": {"rt": -1000, "trial_type": "single-audio", "word": "crutch", "stimulus": "/static/audio/wordpool/CRUTCH.wav", "conditions": [18, 1200, "a", 18000], "internal_node_id": "0.0-17.0", "trial": 0, "time_elapsed": 2165837, "serialpos": 5, "key_press": -1, "wordID": 416, "type": "PRES_AUD", "trial_index": 26}, "uniqueid": "MTK3486:33FBRBDW6P66SLLVGI53KBSO2P38CC", "dateTime": 1520622606288}, {"current_trial": 27, "trialdata": {"rt": -1000, "trial_type": "single-audio", "word": "survey", "stimulus": "/static/audio/wordpool/SURVEY.wav", "conditions": [18, 1200, "a", 18000], "internal_node_id": "0.0-18.0", "trial": 0, "time_elapsed": 2167948, "serialpos": 6, "key_press": -1, "wordID": 1413, "type": "PRES_AUD", "trial_index": 27}, "uniqueid": "MTK3486:33FBRBDW6P66SLLVGI53KBSO2P38CC", "dateTime": 1520622608399}, {"current_trial": 28, "trialdata": {"rt": -1000, "trial_type": "single-audio", "word": "servant", "stimulus": "/static/audio/wordpool/SERVANT.wav", "conditions": [18, 1200, "a", 18000], "internal_node_id": "0.0-19.0", "trial": 0, "time_elapsed": 2170202, "serialpos": 7, "key_press": -1, "wordID": 1270, "type": "PRES_AUD", "trial_index": 28}, "uniqueid": "MTK3486:33FBRBDW6P66SLLVGI53KBSO2P38CC", "dateTime": 1520622610653}, {"current_trial": 29, "trialdata": {"rt": -1000, "trial_type": "single-audio", "word": "rooster", "stimulus": "/static/audio/wordpool/ROOSTER.wav", "conditions": [18, 1200, "a", 18000], "internal_node_id": "0.0-20.0", "trial": 0, "time_elapsed": 2172321, "serialpos": 8, "key_press": -1, "wordID": 1208, "type": "PRES_AUD", "trial_index": 29}, "uniqueid": "MTK3486:33FBRBDW6P66SLLVGI53KBSO2P38CC", "dateTime": 1520622612772}, {"current_trial": 30, "trialdata": {"rt": -1000, "trial_type": "single-audio", "word": "tourist", "stimulus": "/static/audio/wordpool/TOURIST.wav", "conditions": [18, 1200, "a", 18000], "internal_node_id": "0.0-21.0", "trial": 0, "time_elapsed": 2174608, "serialpos": 9, "key_press": -1, "wordID": 1487, "type": "PRES_AUD", "trial_index": 30}, "uniqueid": "MTK3486:33FBRBDW6P66SLLVGI53KBSO2P38CC", "dateTime": 1520622615059}, {"current_trial": 31, "trialdata": {"rt": -1000, "trial_type": "single-audio", "word": "mailbox", "stimulus": "/static/audio/wordpool/MAILBOX.wav", "conditions": [18, 1200, "a", 18000], "internal_node_id": "0.0-22.0", "trial": 0, "time_elapsed": 2176785, "serialpos": 10, "key_press": -1, "wordID": 856, "type": "PRES_AUD", "trial_index": 31}, "uniqueid": "MTK3486:33FBRBDW6P66SLLVGI53KBSO2P38CC", "dateTime": 1520622617236}, {"current_trial": 32, "trialdata": {"rt": -1000, "trial_type": "single-audio", "word": "captive", "stimulus": "/static/audio/wordpool/CAPTIVE.wav", "conditions": [18, 1200, "a", 18000], "internal_node_id": "0.0-23.0", "trial": 0, "time_elapsed": 2178921, "serialpos": 11, "key_press": -1, "wordID": 239, "type": "PRES_AUD", "trial_index": 32}, "uniqueid": "MTK3486:33FBRBDW6P66SLLVGI53KBSO2P38CC", "dateTime": 1520622619373}, {"current_trial": 33, "trialdata": {"rt": -1000, "trial_type": "single-audio", "word": "mars", "stimulus": "/static/audio/wordpool/MARS.wav", "conditions": [18, 1200, "a", 18000], "internal_node_id": "0.0-24.0", "trial": 0, "time_elapsed": 2181180, "serialpos": 12, "key_press": -1, "wordID": 872, "type": "PRES_AUD", "trial_index": 33}, "uniqueid": "MTK3486:33FBRBDW6P66SLLVGI53KBSO2P38CC", "dateTime": 1520622621631}, {"current_trial": 34, "trialdata": {"rt": -1000, "trial_type": "single-audio", "word": "basement", "stimulus": "/static/audio/wordpool/BASEMENT.wav", "conditions": [18, 1200, "a", 18000], "internal_node_id": "0.0-25.0", "trial": 0, "time_elapsed": 2183234, "serialpos": 13, "key_press": -1, "wordID": 93, "type": "PRES_AUD", "trial_index": 34}, "uniqueid": "MTK3486:33FBRBDW6P66SLLVGI53KBSO2P38CC", "dateTime": 1520622623686}, {"current_trial": 35, "trialdata": {"rt": -1000, "trial_type": "single-audio", "word": "chipmunk", "stimulus": "/static/audio/wordpool/CHIPMUNK.wav", "conditions": [18, 1200, "a", 18000], "internal_node_id": "0.0-26.0", "trial": 0, "time_elapsed": 2185249, "serialpos": 14, "key_press": -1, "wordID": 303, "type": "PRES_AUD", "trial_index": 35}, "uniqueid": "MTK3486:33FBRBDW6P66SLLVGI53KBSO2P38CC", "dateTime": 1520622625700}, {"current_trial": 36, "trialdata": {"rt": -1000, "trial_type": "single-audio", "word": "lace", "stimulus": "/static/audio/wordpool/LACE.wav", "conditions": [18, 1200, "a", 18000], "internal_node_id": "0.0-27.0", "trial": 0, "time_elapsed": 2187519, "serialpos": 15, "key_press": -1, "wordID": 791, "type": "PRES_AUD", "trial_index": 36}, "uniqueid": "MTK3486:33FBRBDW6P66SLLVGI53KBSO2P38CC", "dateTime": 1520622627970}, {"current_trial": 37, "trialdata": {"rt": -1000, "trial_type": "single-audio", "word": "crown", "stimulus": "/static/audio/wordpool/CROWN.wav", "conditions": [18, 1200, "a", 18000], "internal_node_id": "0.0-28.0", "trial": 0, "time_elapsed": 2189806, "serialpos": 16, "key_press": -1, "wordID": 414, "type": "PRES_AUD", "trial_index": 37}, "uniqueid": "MTK3486:33FBRBDW6P66SLLVGI53KBSO2P38CC", "dateTime": 1520622630257}, {"current_trial": 38, "trialdata": {"rt": -1000, "trial_type": "single-audio", "word": "wagon", "stimulus": "/static/audio/wordpool/WAGON.wav", "conditions": [18, 1200, "a", 18000], "internal_node_id": "0.0-29.0", "trial": 0, "time_elapsed": 2191873, "serialpos": 17, "key_press": -1, "wordID": 1577, "type": "PRES_AUD", "trial_index": 38}, "uniqueid": "MTK3486:33FBRBDW6P66SLLVGI53KBSO2P38CC", "dateTime": 1520622632324}, {"current_trial": 39, "trialdata": {"rt": -1, "trial_type": "single-stim", "stimulus": "", "internal_node_id": "0.0-30.0-0.0", "time_elapsed": 2193231, "key_press": -1, "type": "PRE_RECALL_DELAY", "trial_index": 39}, "uniqueid": "MTK3486:33FBRBDW6P66SLLVGI53KBSO2P38CC", "dateTime": 1520622633682}, {"current_trial": 40, "trialdata": {"rt": -1000, "trial_type": "single-audio", "stimulus": "/static/audio/400Hz.wav", "internal_node_id": "0.0-31.0", "time_elapsed": 2193732, "key_press": -1, "type": "PRE_RECALL_ALERT", "trial_index": 40}, "uniqueid": "MTK3486:33FBRBDW6P66SLLVGI53KBSO2P38CC", "dateTime": 1520622634183}, {"current_trial": 41, "trialdata": {"rt": [1311, 3389, 4480, 5765, 7290, 8720, 9587, 10836, 14345, 23786, 29348, 32569, 42439], "recwords": ["wagon", "chipmunk", "female", "critic", "servant", "harp", "lace", "wagon", "mars", "basement", "baseball", "crown", "captive"], "key_times": [643, 758, 883, 1041, 1155, 1311, 1650, 1774, 1894, 1982, 2316, 2562, 3104, 3178, 3389, 3758, 3854, 3946, 4171, 4218, 4364, 4480, 4746, 4983, 5091, 5194, 5303, 5481, 5765, 6183, 6402, 6510, 6743, 6863, 6963, 7145, 7290, 7532, 7672, 7752, 7935, 8720, 9123, 9240, 9403, 9503, 9587, 10015, 10191, 10303, 10527, 10740, 10836, 13820, 13856, 13932, 14229, 14345, 22889, 22941, 23173, 23270, 23369, 23474, 23582, 23678, 23786, 28308, 28412, 28583, 28744, 28905, 29016, 29085, 29251, 29348, 31885, 32127, 32227, 32295, 32429, 32569, 41461, 41536, 41764, 41883, 42055, 42243, 42323, 42439], "trial_type": "free-recall", "conditions": [18, 1200, "a", 18000], "internal_node_id": "0.0-32.0-0.0", "key_presses": [87, 65, 71, 79, 78, 13, 67, 72, 73, 80, 77, 85, 78, 75, 13, 70, 69, 77, 65, 76, 69, 13, 67, 82, 73, 84, 73, 67, 13, 83, 69, 82, 86, 65, 78, 84, 13, 72, 65, 82, 80, 13, 76, 65, 67, 69, 13, 87, 65, 71, 79, 78, 13, 77, 65, 82, 83, 13, 66, 65, 83, 69, 77, 69, 78, 84, 13, 66, 65, 83, 69, 66, 65, 76, 76, 13, 67, 82, 79, 87, 78, 13, 67, 65, 80, 84, 73, 86, 69, 13], "trial": 0, "time_elapsed": 2253737, "type": "FREE_RECALL", "trial_index": 41}, "uniqueid": "MTK3486:33FBRBDW6P66SLLVGI53KBSO2P38CC", "dateTime": 1520622694191}, {"current_trial": 42, "trialdata": {"rt": 1153, "trial_type": "text", "internal_node_id": "0.0-33.0", "time_elapsed": 2256898, "key_press": 13, "type": "INSTRUCTIONS", "trial_index": 42}, "uniqueid": "MTK3486:33FBRBDW6P66SLLVGI53KBSO2P38CC", "dateTime": 1520622697349}, {"current_trial": 43, "trialdata": {"rt": [5518, 7204, 10812, 17011], "trial_type": "math-distractor", "key_times": [5118, 5359, 5518, 6670, 7050, 7204, 10392, 10444, 10812, 16631, 16704, 17011], "responses": ["20", "16", "15", "18"], "num2": [7, 6, 1, 8, 1], "num3": [6, 9, 6, 4, 4], "conditions": [18, 1200, "a", 18000], "internal_node_id": "0.0-34.0", "key_presses": [50, 48, 13, 49, 54, 13, 49, 53, 13, 49, 56, 13], "trial": 1, "time_elapsed": 2276910, "type": "DISTRACTOR", "trial_index": 43, "num1": [8, 1, 8, 6, 1]}, "uniqueid": "MTK3486:33FBRBDW6P66SLLVGI53KBSO2P38CC", "dateTime": 1520622717361}, {"current_trial": 44, "trialdata": {"rt": -1, "trial_type": "single-stim", "stimulus": "<p id=\"stim\">10</p>", "internal_node_id": "0.0-35.0-0.0", "time_elapsed": 2279917, "key_press": -1, "trial_index": 44}, "uniqueid": "MTK3486:33FBRBDW6P66SLLVGI53KBSO2P38CC", "dateTime": 1520622720368}, {"current_trial": 45, "trialdata": {"rt": -1, "trial_type": "single-stim", "stimulus": "<p id=\"stim\">9</p>", "internal_node_id": "0.0-35.0-1.0", "time_elapsed": 2280922, "key_press": -1, "trial_index": 45}, "uniqueid": "MTK3486:33FBRBDW6P66SLLVGI53KBSO2P38CC", "dateTime": 1520622721373}, {"current_trial": 46, "trialdata": {"rt": -1, "trial_type": "single-stim", "stimulus": "<p id=\"stim\">8</p>", "internal_node_id": "0.0-35.0-2.0", "time_elapsed": 2281927, "key_press": -1, "trial_index": 46}, "uniqueid": "MTK3486:33FBRBDW6P66SLLVGI53KBSO2P38CC", "dateTime": 1520622722379}, {"current_trial": 47, "trialdata": {"rt": -1, "trial_type": "single-stim", "stimulus": "<p id=\"stim\">7</p>", "internal_node_id": "0.0-35.0-3.0", "time_elapsed": 2282933, "key_press": -1, "trial_index": 47}, "uniqueid": "MTK3486:33FBRBDW6P66SLLVGI53KBSO2P38CC", "dateTime": 1520622723384}, {"current_trial": 48, "trialdata": {"rt": -1, "trial_type": "single-stim", "stimulus": "<p id=\"stim\">6</p>", "internal_node_id": "0.0-35.0-4.0", "time_elapsed": 2283935, "key_press": -1, "trial_index": 48}, "uniqueid": "MTK3486:33FBRBDW6P66SLLVGI53KBSO2P38CC", "dateTime": 1520622724386}, {"current_trial": 49, "trialdata": {"rt": -1, "trial_type": "single-stim", "stimulus": "<p id=\"stim\">5</p>", "internal_node_id": "0.0-35.0-5.0", "time_elapsed": 2284936, "key_press": -1, "trial_index": 49}, "uniqueid": "MTK3486:33FBRBDW6P66SLLVGI53KBSO2P38CC", "dateTime": 1520622725387}, {"current_trial": 50, "trialdata": {"rt": -1, "trial_type": "single-stim", "stimulus": "<p id=\"stim\">4</p>", "internal_node_id": "0.0-35.0-6.0", "time_elapsed": 2285937, "key_press": -1, "trial_index": 50}, "uniqueid": "MTK3486:33FBRBDW6P66SLLVGI53KBSO2P38CC", "dateTime": 1520622726388}, {"current_trial": 51, "trialdata": {"rt": -1, "trial_type": "single-stim", "stimulus": "<p id=\"stim\">3</p>", "internal_node_id": "0.0-35.0-7.0", "time_elapsed": 2286938, "key_press": -1, "trial_index": 51}, "uniqueid": "MTK3486:33FBRBDW6P66SLLVGI53KBSO2P38CC", "dateTime": 1520622727390}, {"current_trial": 52, "trialdata": {"rt": -1, "trial_type": "single-stim", "stimulus": "<p id=\"stim\">2</p>", "internal_node_id": "0.0-35.0-8.0", "time_elapsed": 2287941, "key_press": -1, "trial_index": 52}, "uniqueid": "MTK3486:33FBRBDW6P66SLLVGI53KBSO2P38CC", "dateTime": 1520622728392}, {"current_trial": 53, "trialdata": {"rt": -1, "trial_type": "single-stim", "stimulus": "<p id=\"stim\">1</p>", "internal_node_id": "0.0-35.0-9.0", "time_elapsed": 2288942, "key_press": -1, "trial_index": 53}, "uniqueid": "MTK3486:33FBRBDW6P66SLLVGI53KBSO2P38CC", "dateTime": 1520622729393}, {"current_trial": 54, "trialdata": {"rt": -1, "trial_type": "single-stim", "stimulus": "<p id=\"stim\">+</p>", "internal_node_id": "0.0-36.0-0.0", "time_elapsed": 2290448, "key_press": -1, "type": "FIXATION", "trial_index": 54}, "uniqueid": "MTK3486:33FBRBDW6P66SLLVGI53KBSO2P38CC", "dateTime": 1520622730899}, {"current_trial": 55, "trialdata": {"rt": -1000, "trial_type": "single-audio", "word": "lightning", "stimulus": "/static/audio/wordpool/LIGHTNING.wav", "conditions": [18, 1200, "a", 18000], "internal_node_id": "0.0-37.0", "trial": 1, "time_elapsed": 2292647, "serialpos": 0, "key_press": -1, "wordID": 819, "type": "PRES_AUD", "trial_index": 55}, "uniqueid": "MTK3486:33FBRBDW6P66SLLVGI53KBSO2P38CC", "dateTime": 1520622733099}, {"current_trial": 56, "trialdata": {"rt": -1000, "trial_type": "single-audio", "word": "transplant", "stimulus": "/static/audio/wordpool/TRANSPLANT.wav", "conditions": [18, 1200, "a", 18000], "internal_node_id": "0.0-38.0", "trial": 1, "time_elapsed": 2294726, "serialpos": 1, "key_press": -1, "wordID": 1495, "type": "PRES_AUD", "trial_index": 56}, "uniqueid": "MTK3486:33FBRBDW6P66SLLVGI53KBSO2P38CC", "dateTime": 1520622735177}, {"current_trial": 57, "trialdata": {"rt": -1000, "trial_type": "single-audio", "word": "scribble", "stimulus": "/static/audio/wordpool/SCRIBBLE.wav", "conditions": [18, 1200, "a", 18000], "internal_node_id": "0.0-39.0", "trial": 1, "time_elapsed": 2296786, "serialpos": 2, "key_press": -1, "wordID": 1255, "type": "PRES_AUD", "trial_index": 57}, "uniqueid": "MTK3486:33FBRBDW6P66SLLVGI53KBSO2P38CC", "dateTime": 1520622737237}, {"current_trial": 58, "trialdata": {"rt": -1000, "trial_type": "single-audio", "word": "wardrobe", "stimulus": "/static/audio/wordpool/WARDROBE.wav", "conditions": [18, 1200, "a", 18000], "internal_node_id": "0.0-40.0", "trial": 1, "time_elapsed": 2298984, "serialpos": 3, "key_press": -1, "wordID": 1586, "type": "PRES_AUD", "trial_index": 58}, "uniqueid": "MTK3486:33FBRBDW6P66SLLVGI53KBSO2P38CC", "dateTime": 1520622739436}, {"current_trial": 59, "trialdata": {"rt": -1000, "trial_type": "single-audio", "word": "author", "stimulus": "/static/audio/wordpool/AUTHOR.wav", "conditions": [18, 1200, "a", 18000], "internal_node_id": "0.0-41.0", "trial": 1, "time_elapsed": 2301158, "serialpos": 4, "key_press": -1, "wordID": 60, "type": "PRES_AUD", "trial_index": 59}, "uniqueid": "MTK3486:33FBRBDW6P66SLLVGI53KBSO2P38CC", "dateTime": 1520622741609}, {"current_trial": 60, "trialdata": {"rt": -1000, "trial_type": "single-audio", "word": "passage", "stimulus": "/static/audio/wordpool/PASSAGE.wav", "conditions": [18, 1200, "a", 18000], "internal_node_id": "0.0-42.0", "trial": 1, "time_elapsed": 2303422, "serialpos": 5, "key_press": -1, "wordID": 1018, "type": "PRES_AUD", "trial_index": 60}, "uniqueid": "MTK3486:33FBRBDW6P66SLLVGI53KBSO2P38CC", "dateTime": 1520622743873}, {"current_trial": 61, "trialdata": {"rt": -1000, "trial_type": "single-audio", "word": "nurse", "stimulus": "/static/audio/wordpool/NURSE.wav", "conditions": [18, 1200, "a", 18000], "internal_node_id": "0.0-43.0", "trial": 1, "time_elapsed": 2305680, "serialpos": 6, "key_press": -1, "wordID": 962, "type": "PRES_AUD", "trial_index": 61}, "uniqueid": "MTK3486:33FBRBDW6P66SLLVGI53KBSO2P38CC", "dateTime": 1520622746131}, {"current_trial": 62, "trialdata": {"rt": -1000, "trial_type": "single-audio", "word": "blade", "stimulus": "/static/audio/wordpool/BLADE.wav", "conditions": [18, 1200, "a", 18000], "internal_node_id": "0.0-44.0", "trial": 1, "time_elapsed": 2307793, "serialpos": 7, "key_press": -1, "wordID": 133, "type": "PRES_AUD", "trial_index": 62}, "uniqueid": "MTK3486:33FBRBDW6P66SLLVGI53KBSO2P38CC", "dateTime": 1520622748244}, {"current_trial": 63, "trialdata": {"rt": -1000, "trial_type": "single-audio", "word": "tombstone", "stimulus": "/static/audio/wordpool/TOMBSTONE.wav", "conditions": [18, 1200, "a", 18000], "internal_node_id": "0.0-45.0", "trial": 1, "time_elapsed": 2309847, "serialpos": 8, "key_press": -1, "wordID": 1477, "type": "PRES_AUD", "trial_index": 63}, "uniqueid": "MTK3486:33FBRBDW6P66SLLVGI53KBSO2P38CC", "dateTime": 1520622750298}, {"current_trial": 64, "trialdata": {"rt": -1000, "trial_type": "single-audio", "word": "garden", "stimulus": "/static/audio/wordpool/GARDEN.wav", "conditions": [18, 1200, "a", 18000], "internal_node_id": "0.0-46.0", "trial": 1, "time_elapsed": 2311932, "serialpos": 9, "key_press": -1, "wordID": 622, "type": "PRES_AUD", "trial_index": 64}, "uniqueid": "MTK3486:33FBRBDW6P66SLLVGI53KBSO2P38CC", "dateTime": 1520622752383}, {"current_trial": 65, "trialdata": {"rt": -1000, "trial_type": "single-audio", "word": "rebel", "stimulus": "/static/audio/wordpool/REBEL.wav", "conditions": [18, 1200, "a", 18000], "internal_node_id": "0.0-47.0", "trial": 1, "time_elapsed": 2313960, "serialpos": 10, "key_press": -1, "wordID": 1171, "type": "PRES_AUD", "trial_index": 65}, "uniqueid": "MTK3486:33FBRBDW6P66SLLVGI53KBSO2P38CC", "dateTime": 1520622754411}, {"current_trial": 66, "trialdata": {"rt": -1000, "trial_type": "single-audio", "word": "pliers", "stimulus": "/static/audio/wordpool/PLIERS.wav", "conditions": [18, 1200, "a", 18000], "internal_node_id": "0.0-48.0", "trial": 1, "time_elapsed": 2316361, "serialpos": 11, "key_press": -1, "wordID": 1088, "type": "PRES_AUD", "trial_index": 66}, "uniqueid": "MTK3486:33FBRBDW6P66SLLVGI53KBSO2P38CC", "dateTime": 1520622756812}, {"current_trial": 67, "trialdata": {"rt": -1000, "trial_type": "single-audio", "word": "sponge", "stimulus": "/static/audio/wordpool/SPONGE.wav", "conditions": [18, 1200, "a", 18000], "internal_node_id": "0.0-49.0", "trial": 1, "time_elapsed": 2318691, "serialpos": 12, "key_press": -1, "wordID": 1354, "type": "PRES_AUD", "trial_index": 67}, "uniqueid": "MTK3486:33FBRBDW6P66SLLVGI53KBSO2P38CC", "dateTime": 1520622759142}, {"current_trial": 68, "trialdata": {"rt": -1000, "trial_type": "single-audio", "word": "donor", "stimulus": "/static/audio/wordpool/DONOR.wav", "conditions": [18, 1200, "a", 18000], "internal_node_id": "0.0-50.0", "trial": 1, "time_elapsed": 2320726, "serialpos": 13, "key_press": -1, "wordID": 484, "type": "PRES_AUD", "trial_index": 68}, "uniqueid": "MTK3486:33FBRBDW6P66SLLVGI53KBSO2P38CC", "dateTime": 1520622761177}, {"current_trial": 69, "trialdata": {"rt": -1000, "trial_type": "single-audio", "word": "witness", "stimulus": "/static/audio/wordpool/WITNESS.wav", "conditions": [18, 1200, "a", 18000], "internal_node_id": "0.0-51.0", "trial": 1, "time_elapsed": 2322961, "serialpos": 14, "key_press": -1, "wordID": 1617, "type": "PRES_AUD", "trial_index": 69}, "uniqueid": "MTK3486:33FBRBDW6P66SLLVGI53KBSO2P38CC", "dateTime": 1520622763412}, {"current_trial": 70, "trialdata": {"rt": -1000, "trial_type": "single-audio", "word": "braces", "stimulus": "/static/audio/wordpool/BRACES.wav", "conditions": [18, 1200, "a", 18000], "internal_node_id": "0.0-52.0", "trial": 1, "time_elapsed": 2325115, "serialpos": 15, "key_press": -1, "wordID": 163, "type": "PRES_AUD", "trial_index": 70}, "uniqueid": "MTK3486:33FBRBDW6P66SLLVGI53KBSO2P38CC", "dateTime": 1520622765566}, {"current_trial": 71, "trialdata": {"rt": -1000, "trial_type": "single-audio", "word": "stove", "stimulus": "/static/audio/wordpool/STOVE.wav", "conditions": [18, 1200, "a", 18000], "internal_node_id": "0.0-53.0", "trial": 1, "time_elapsed": 2327286, "serialpos": 16, "key_press": -1, "wordID": 1387, "type": "PRES_AUD", "trial_index": 71}, "uniqueid": "MTK3486:33FBRBDW6P66SLLVGI53KBSO2P38CC", "dateTime": 1520622767737}, {"current_trial": 72, "trialdata": {"rt": -1000, "trial_type": "single-audio", "word": "grape", "stimulus": "/static/audio/wordpool/GRAPE.wav", "conditions": [18, 1200, "a", 18000], "internal_node_id": "0.0-54.0", "trial": 1, "time_elapsed": 2329463, "serialpos": 17, "key_press": -1, "wordID": 653, "type": "PRES_AUD", "trial_index": 72}, "uniqueid": "MTK3486:33FBRBDW6P66SLLVGI53KBSO2P38CC", "dateTime": 1520622769914}, {"current_trial": 73, "trialdata": {"rt": -1, "trial_type": "single-stim", "stimulus": "", "internal_node_id": "0.0-55.0-0.0", "time_elapsed": 2330684, "key_press": -1, "type": "PRE_RECALL_DELAY", "trial_index": 73}, "uniqueid": "MTK3486:33FBRBDW6P66SLLVGI53KBSO2P38CC", "dateTime": 1520622771135}, {"current_trial": 74, "trialdata": {"rt": -1000, "trial_type": "single-audio", "stimulus": "/static/audio/400Hz.wav", "internal_node_id": "0.0-56.0", "time_elapsed": 2331190, "key_press": -1, "type": "PRE_RECALL_ALERT", "trial_index": 74}, "uniqueid": "MTK3486:33FBRBDW6P66SLLVGI53KBSO2P38CC", "dateTime": 1520622771641}, {"current_trial": 75, "trialdata": {"rt": [1269, 3111, 4967, 8407, 12271, 22194, 23606, 24843, 27057, 28545, 31032, 34454, 37068, 38413, 39645], "recwords": ["stove", "lightning", "transplant", "nurse", "knife", "garden", "witness", "brace", "stove", "grape", "author", "closet", "passage", "pliers", "sponge"], "key_times": [480, 681, 833, 979, 1012, 1269, 1937, 2033, 2109, 2268, 2343, 2513, 2593, 2819, 2891, 3111, 3525, 3691, 3783, 3923, 4147, 4239, 4471, 4554, 4679, 4803, 4967, 5550, 6203, 6919, 7214, 7595, 7811, 7882, 8109, 8201, 8407, 11405, 11618, 11734, 11904, 11993, 12271, 20302, 20460, 20886, 21167, 21446, 21601, 22194, 22365, 22510, 22631, 22792, 22904, 23247, 23453, 23606, 23949, 24037, 24141, 24414, 24549, 24843, 26299, 26486, 26599, 26817, 26904, 27057, 27425, 27633, 27786, 27897, 28025, 28545, 30242, 30356, 30419, 30592, 30677, 30816, 31032, 33463, 33611, 33829, 33886, 34072, 34314, 34454, 35523, 35647, 35987, 36198, 36371, 36499, 36659, 37068, 37475, 37678, 37799, 37907, 38023, 38269, 38413, 38689, 38781, 39005, 39227, 39379, 39513, 39645], "trial_type": "free-recall", "conditions": [18, 1200, "a", 18000], "internal_node_id": "0.0-57.0-0.0", "key_presses": [83, 84, 79, 86, 69, 13, 76, 73, 71, 72, 84, 78, 73, 78, 71, 13, 84, 82, 65, 78, 83, 80, 76, 65, 78, 84, 13, 75, 8, 78, 82, 8, 85, 82, 83, 69, 13, 75, 78, 73, 70, 69, 13, 71, 65, 82, 68, 69, 78, 13, 87, 73, 84, 78, 69, 83, 83, 13, 66, 82, 65, 67, 69, 13, 83, 84, 79, 86, 69, 13, 71, 82, 65, 80, 69, 13, 65, 85, 84, 72, 79, 82, 13, 67, 76, 79, 83, 69, 84, 13, 80, 65, 83, 83, 65, 71, 69, 13, 80, 76, 73, 69, 82, 83, 13, 83, 80, 79, 78, 71, 69, 13], "trial": 1, "time_elapsed": 2391194, "type": "FREE_RECALL", "trial_index": 75}, "uniqueid": "MTK3486:33FBRBDW6P66SLLVGI53KBSO2P38CC", "dateTime": 1520622831645}, {"current_trial": 76, "trialdata": {"rt": 1602, "trial_type": "text", "internal_node_id": "0.0-58.0", "time_elapsed": 2394797, "key_press": 32, "type": "INSTRUCTIONS", "trial_index": 76}, "uniqueid": "MTK3486:33FBRBDW6P66SLLVGI53KBSO2P38CC", "dateTime": 1520622835248}, {"current_trial": 77, "trialdata": {"rt": [2658, 6045, 9684, 11418, 14232, 16450, 21154, 23472], "trial_type": "math-distractor", "key_times": [2154, 2478, 2658, 5503, 5672, 6045, 8860, 9338, 9684, 11082, 11219, 11418, 13751, 14079, 14232, 15748, 16211, 16450, 20599, 20998, 21154, 23154, 23238, 23472], "responses": ["19", "13", "16", "10", "13", "10", "16", "20"], "num2": [6, 5, 4, 2, 5, 5, 5, 6, 3], "num3": [9, 2, 7, 7, 2, 2, 8, 8, 6], "conditions": [24, 800, "a", 24000], "internal_node_id": "0.0-59.0", "key_presses": [49, 57, 13, 49, 51, 13, 49, 54, 13, 49, 48, 13, 49, 51, 13, 49, 48, 13, 49, 54, 13, 50, 48, 13], "trial": 2, "time_elapsed": 2419802, "type": "DISTRACTOR", "trial_index": 77, "num1": [4, 6, 5, 1, 6, 3, 3, 6, 2]}, "uniqueid": "MTK3486:33FBRBDW6P66SLLVGI53KBSO2P38CC", "dateTime": 1520622860253}, {"current_trial": 78, "trialdata": {"rt": -1, "trial_type": "single-stim", "stimulus": "<p id=\"stim\">10</p>", "internal_node_id": "0.0-60.0-0.0", "time_elapsed": 2422808, "key_press": -1, "trial_index": 78}, "uniqueid": "MTK3486:33FBRBDW6P66SLLVGI53KBSO2P38CC", "dateTime": 1520622863259}, {"current_trial": 79, "trialdata": {"rt": -1, "trial_type": "single-stim", "stimulus": "<p id=\"stim\">9</p>", "internal_node_id": "0.0-60.0-1.0", "time_elapsed": 2423814, "key_press": -1, "trial_index": 79}, "uniqueid": "MTK3486:33FBRBDW6P66SLLVGI53KBSO2P38CC", "dateTime": 1520622864265}, {"current_trial": 80, "trialdata": {"rt": -1, "trial_type": "single-stim", "stimulus": "<p id=\"stim\">8</p>", "internal_node_id": "0.0-60.0-2.0", "time_elapsed": 2424819, "key_press": -1, "trial_index": 80}, "uniqueid": "MTK3486:33FBRBDW6P66SLLVGI53KBSO2P38CC", "dateTime": 1520622865270}, {"current_trial": 81, "trialdata": {"rt": -1, "trial_type": "single-stim", "stimulus": "<p id=\"stim\">7</p>", "internal_node_id": "0.0-60.0-3.0", "time_elapsed": 2425824, "key_press": -1, "trial_index": 81}, "uniqueid": "MTK3486:33FBRBDW6P66SLLVGI53KBSO2P38CC", "dateTime": 1520622866275}, {"current_trial": 82, "trialdata": {"rt": -1, "trial_type": "single-stim", "stimulus": "<p id=\"stim\">6</p>", "internal_node_id": "0.0-60.0-4.0", "time_elapsed": 2426830, "key_press": -1, "trial_index": 82}, "uniqueid": "MTK3486:33FBRBDW6P66SLLVGI53KBSO2P38CC", "dateTime": 1520622867281}, {"current_trial": 83, "trialdata": {"rt": -1, "trial_type": "single-stim", "stimulus": "<p id=\"stim\">5</p>", "internal_node_id": "0.0-60.0-5.0", "time_elapsed": 2427835, "key_press": -1, "trial_index": 83}, "uniqueid": "MTK3486:33FBRBDW6P66SLLVGI53KBSO2P38CC", "dateTime": 1520622868286}, {"current_trial": 84, "trialdata": {"rt": -1, "trial_type": "single-stim", "stimulus": "<p id=\"stim\">4</p>", "internal_node_id": "0.0-60.0-6.0", "time_elapsed": 2428839, "key_press": -1, "trial_index": 84}, "uniqueid": "MTK3486:33FBRBDW6P66SLLVGI53KBSO2P38CC", "dateTime": 1520622869291}, {"current_trial": 85, "trialdata": {"rt": -1, "trial_type": "single-stim", "stimulus": "<p id=\"stim\">3</p>", "internal_node_id": "0.0-60.0-7.0", "time_elapsed": 2429843, "key_press": -1, "trial_index": 85}, "uniqueid": "MTK3486:33FBRBDW6P66SLLVGI53KBSO2P38CC", "dateTime": 1520622870295}, {"current_trial": 86, "trialdata": {"rt": -1, "trial_type": "single-stim", "stimulus": "<p id=\"stim\">2</p>", "internal_node_id": "0.0-60.0-8.0", "time_elapsed": 2430847, "key_press": -1, "trial_index": 86}, "uniqueid": "MTK3486:33FBRBDW6P66SLLVGI53KBSO2P38CC", "dateTime": 1520622871298}, {"current_trial": 87, "trialdata": {"rt": -1, "trial_type": "single-stim", "stimulus": "<p id=\"stim\">1</p>", "internal_node_id": "0.0-60.0-9.0", "time_elapsed": 2431852, "key_press": -1, "trial_index": 87}, "uniqueid": "MTK3486:33FBRBDW6P66SLLVGI53KBSO2P38CC", "dateTime": 1520622872303}, {"current_trial": 88, "trialdata": {"rt": -1, "trial_type": "single-stim", "stimulus": "<p id=\"stim\">+</p>", "internal_node_id": "0.0-61.0-0.0", "time_elapsed": 2433356, "key_press": -1, "type": "FIXATION", "trial_index": 88}, "uniqueid": "MTK3486:33FBRBDW6P66SLLVGI53KBSO2P38CC", "dateTime": 1520622873807}, {"current_trial": 89, "trialdata": {"rt": -1000, "trial_type": "single-audio", "word": "scarf", "stimulus": "/static/audio/wordpool/SCARF.wav", "conditions": [24, 800, "a", 24000], "internal_node_id": "0.0-62.0", "trial": 2, "time_elapsed": 2434975, "serialpos": 0, "key_press": -1, "wordID": 1245, "type": "PRES_AUD", "trial_index": 89}, "uniqueid": "MTK3486:33FBRBDW6P66SLLVGI53KBSO2P38CC", "dateTime": 1520622875426}, {"current_trial": 90, "trialdata": {"rt": -1000, "trial_type": "single-audio", "word": "blueprint", "stimulus": "/static/audio/wordpool/BLUEPRINT.wav", "conditions": [24, 800, "a", 24000], "internal_node_id": "0.0-63.0", "trial": 2, "time_elapsed": 2436652, "serialpos": 1, "key_press": -1, "wordID": 141, "type": "PRES_AUD", "trial_index": 90}, "uniqueid": "MTK3486:33FBRBDW6P66SLLVGI53KBSO2P38CC", "dateTime": 1520622877104}, {"current_trial": 91, "trialdata": {"rt": -1000, "trial_type": "single-audio", "word": "scarecrow", "stimulus": "/static/audio/wordpool/SCARECROW.wav", "conditions": [24, 800, "a", 24000], "internal_node_id": "0.0-64.0", "trial": 2, "time_elapsed": 2438607, "serialpos": 2, "key_press": -1, "wordID": 1244, "type": "PRES_AUD", "trial_index": 91}, "uniqueid": "MTK3486:33FBRBDW6P66SLLVGI53KBSO2P38CC", "dateTime": 1520622879058}, {"current_trial": 92, "trialdata": {"rt": -1000, "trial_type": "single-audio", "word": "cattle", "stimulus": "/static/audio/wordpool/CATTLE.wav", "conditions": [24, 800, "a", 24000], "internal_node_id": "0.0-65.0", "trial": 2, "time_elapsed": 2440434, "serialpos": 3, "key_press": -1, "wordID": 260, "type": "PRES_AUD", "trial_index": 92}, "uniqueid": "MTK3486:33FBRBDW6P66SLLVGI53KBSO2P38CC", "dateTime": 1520622880885}, {"current_trial": 93, "trialdata": {"rt": -1000, "trial_type": "single-audio", "word": "outlaw", "stimulus": "/static/audio/wordpool/OUTLAW.wav", "conditions": [24, 800, "a", 24000], "internal_node_id": "0.0-66.0", "trial": 2, "time_elapsed": 2442388, "serialpos": 4, "key_press": -1, "wordID": 988, "type": "PRES_AUD", "trial_index": 93}, "uniqueid": "MTK3486:33FBRBDW6P66SLLVGI53KBSO2P38CC", "dateTime": 1520622882839}, {"current_trial": 94, "trialdata": {"rt": -1000, "trial_type": "single-audio", "word": "waitress", "stimulus": "/static/audio/wordpool/WAITRESS.wav", "conditions": [24, 800, "a", 24000], "internal_node_id": "0.0-67.0", "trial": 2, "time_elapsed": 2444222, "serialpos": 5, "key_press": -1, "wordID": 1580, "type": "PRES_AUD", "trial_index": 94}, "uniqueid": "MTK3486:33FBRBDW6P66SLLVGI53KBSO2P38CC", "dateTime": 1520622884673}, {"current_trial": 95, "trialdata": {"rt": -1000, "trial_type": "single-audio", "word": "cashier", "stimulus": "/static/audio/wordpool/CASHIER.wav", "conditions": [24, 800, "a", 24000], "internal_node_id": "0.0-68.0", "trial": 2, "time_elapsed": 2446138, "serialpos": 6, "key_press": -1, "wordID": 253, "type": "PRES_AUD", "trial_index": 95}, "uniqueid": "MTK3486:33FBRBDW6P66SLLVGI53KBSO2P38CC", "dateTime": 1520622886589}, {"current_trial": 96, "trialdata": {"rt": -1000, "trial_type": "single-audio", "word": "dress", "stimulus": "/static/audio/wordpool/DRESS.wav", "conditions": [24, 800, "a", 24000], "internal_node_id": "0.0-69.0", "trial": 2, "time_elapsed": 2447780, "serialpos": 7, "key_press": -1, "wordID": 494, "type": "PRES_AUD", "trial_index": 96}, "uniqueid": "MTK3486:33FBRBDW6P66SLLVGI53KBSO2P38CC", "dateTime": 1520622888231}, {"current_trial": 97, "trialdata": {"rt": -1000, "trial_type": "single-audio", "word": "kitchen", "stimulus": "/static/audio/wordpool/KITCHEN.wav", "conditions": [24, 800, "a", 24000], "internal_node_id": "0.0-70.0", "trial": 2, "time_elapsed": 2449615, "serialpos": 8, "key_press": -1, "wordID": 777, "type": "PRES_AUD", "trial_index": 97}, "uniqueid": "MTK3486:33FBRBDW6P66SLLVGI53KBSO2P38CC", "dateTime": 1520622890066}, {"current_trial": 98, "trialdata": {"rt": -1000, "trial_type": "single-audio", "word": "diver", "stimulus": "/static/audio/wordpool/DIVER.wav", "conditions": [24, 800, "a", 24000], "internal_node_id": "0.0-71.0", "trial": 2, "time_elapsed": 2451533, "serialpos": 9, "key_press": -1, "wordID": 475, "type": "PRES_AUD", "trial_index": 98}, "uniqueid": "MTK3486:33FBRBDW6P66SLLVGI53KBSO2P38CC", "dateTime": 1520622891984}, {"current_trial": 99, "trialdata": {"rt": -1000, "trial_type": "single-audio", "word": "woman", "stimulus": "/static/audio/wordpool/WOMAN.wav", "conditions": [24, 800, "a", 24000], "internal_node_id": "0.0-72.0", "trial": 2, "time_elapsed": 2453139, "serialpos": 10, "key_press": -1, "wordID": 1619, "type": "PRES_AUD", "trial_index": 99}, "uniqueid": "MTK3486:33FBRBDW6P66SLLVGI53KBSO2P38CC", "dateTime": 1520622893590}, {"current_trial": 100, "trialdata": {"rt": -1000, "trial_type": "single-audio", "word": "napkin", "stimulus": "/static/audio/wordpool/NAPKIN.wav", "conditions": [24, 800, "a", 24000], "internal_node_id": "0.0-73.0", "trial": 2, "time_elapsed": 2455141, "serialpos": 11, "key_press": -1, "wordID": 936, "type": "PRES_AUD", "trial_index": 100}, "uniqueid": "MTK3486:33FBRBDW6P66SLLVGI53KBSO2P38CC", "dateTime": 1520622895592}, {"current_trial": 101, "trialdata": {"rt": -1000, "trial_type": "single-audio", "word": "chapel", "stimulus": "/static/audio/wordpool/CHAPEL.wav", "conditions": [24, 800, "a", 24000], "internal_node_id": "0.0-74.0", "trial": 2, "time_elapsed": 2457080, "serialpos": 12, "key_press": -1, "wordID": 279, "type": "PRES_AUD", "trial_index": 101}, "uniqueid": "MTK3486:33FBRBDW6P66SLLVGI53KBSO2P38CC", "dateTime": 1520622897531}, {"current_trial": 102, "trialdata": {"rt": -1000, "trial_type": "single-audio", "word": "postage", "stimulus": "/static/audio/wordpool/POSTAGE.wav", "conditions": [24, 800, "a", 24000], "internal_node_id": "0.0-75.0", "trial": 2, "time_elapsed": 2459071, "serialpos": 13, "key_press": -1, "wordID": 1112, "type": "PRES_AUD", "trial_index": 102}, "uniqueid": "MTK3486:33FBRBDW6P66SLLVGI53KBSO2P38CC", "dateTime": 1520622899523}, {"current_trial": 103, "trialdata": {"rt": -1000, "trial_type": "single-audio", "word": "treat", "stimulus": "/static/audio/wordpool/TREAT.wav", "conditions": [24, 800, "a", 24000], "internal_node_id": "0.0-76.0", "trial": 2, "time_elapsed": 2460934, "serialpos": 14, "key_press": -1, "wordID": 1500, "type": "PRES_AUD", "trial_index": 103}, "uniqueid": "MTK3486:33FBRBDW6P66SLLVGI53KBSO2P38CC", "dateTime": 1520622901386}, {"current_trial": 104, "trialdata": {"rt": -1000, "trial_type": "single-audio", "word": "panther", "stimulus": "/static/audio/wordpool/PANTHER.wav", "conditions": [24, 800, "a", 24000], "internal_node_id": "0.0-77.0", "trial": 2, "time_elapsed": 2462787, "serialpos": 15, "key_press": -1, "wordID": 1008, "type": "PRES_AUD", "trial_index": 104}, "uniqueid": "MTK3486:33FBRBDW6P66SLLVGI53KBSO2P38CC", "dateTime": 1520622903238}, {"current_trial": 105, "trialdata": {"rt": -1000, "trial_type": "single-audio", "word": "lava", "stimulus": "/static/audio/wordpool/LAVA.wav", "conditions": [24, 800, "a", 24000], "internal_node_id": "0.0-78.0", "trial": 2, "time_elapsed": 2464453, "serialpos": 16, "key_press": -1, "wordID": 803, "type": "PRES_AUD", "trial_index": 105}, "uniqueid": "MTK3486:33FBRBDW6P66SLLVGI53KBSO2P38CC", "dateTime": 1520622904904}, {"current_trial": 106, "trialdata": {"rt": -1000, "trial_type": "single-audio", "word": "leopard", "stimulus": "/static/audio/wordpool/LEOPARD.wav", "conditions": [24, 800, "a", 24000], "internal_node_id": "0.0-79.0", "trial": 2, "time_elapsed": 2466432, "serialpos": 17, "key_press": -1, "wordID": 811, "type": "PRES_AUD", "trial_index": 106}, "uniqueid": "MTK3486:33FBRBDW6P66SLLVGI53KBSO2P38CC", "dateTime": 1520622906883}, {"current_trial": 107, "trialdata": {"rt": -1000, "trial_type": "single-audio", "word": "cupboard", "stimulus": "/static/audio/wordpool/CUPBOARD.wav", "conditions": [24, 800, "a", 24000], "internal_node_id": "0.0-80.0", "trial": 2, "time_elapsed": 2468168, "serialpos": 18, "key_press": -1, "wordID": 424, "type": "PRES_AUD", "trial_index": 107}, "uniqueid": "MTK3486:33FBRBDW6P66SLLVGI53KBSO2P38CC", "dateTime": 1520622908619}, {"current_trial": 108, "trialdata": {"rt": -1000, "trial_type": "single-audio", "word": "church", "stimulus": "/static/audio/wordpool/CHURCH.wav", "conditions": [24, 800, "a", 24000], "internal_node_id": "0.0-81.0", "trial": 2, "time_elapsed": 2469782, "serialpos": 19, "key_press": -1, "wordID": 306, "type": "PRES_AUD", "trial_index": 108}, "uniqueid": "MTK3486:33FBRBDW6P66SLLVGI53KBSO2P38CC", "dateTime": 1520622910233}, {"current_trial": 109, "trialdata": {"rt": -1000, "trial_type": "single-audio", "word": "concert", "stimulus": "/static/audio/wordpool/CONCERT.wav", "conditions": [24, 800, "a", 24000], "internal_node_id": "0.0-82.0", "trial": 2, "time_elapsed": 2471587, "serialpos": 20, "key_press": -1, "wordID": 359, "type": "PRES_AUD", "trial_index": 109}, "uniqueid": "MTK3486:33FBRBDW6P66SLLVGI53KBSO2P38CC", "dateTime": 1520622912038}, {"current_trial": 110, "trialdata": {"rt": -1000, "trial_type": "single-audio", "word": "dime", "stimulus": "/static/audio/wordpool/DIME.wav", "conditions": [24, 800, "a", 24000], "internal_node_id": "0.0-83.0", "trial": 2, "time_elapsed": 2473450, "serialpos": 21, "key_press": -1, "wordID": 465, "type": "PRES_AUD", "trial_index": 110}, "uniqueid": "MTK3486:33FBRBDW6P66SLLVGI53KBSO2P38CC", "dateTime": 1520622913901}, {"current_trial": 111, "trialdata": {"rt": -1000, "trial_type": "single-audio", "word": "camel", "stimulus": "/static/audio/wordpool/CAMEL.wav", "conditions": [24, 800, "a", 24000], "internal_node_id": "0.0-84.0", "trial": 2, "time_elapsed": 2475430, "serialpos": 22, "key_press": -1, "wordID": 222, "type": "PRES_AUD", "trial_index": 111}, "uniqueid": "MTK3486:33FBRBDW6P66SLLVGI53KBSO2P38CC", "dateTime": 1520622915881}, {"current_trial": 112, "trialdata": {"rt": -1000, "trial_type": "single-audio", "word": "donkey", "stimulus": "/static/audio/wordpool/DONKEY.wav", "conditions": [24, 800, "a", 24000], "internal_node_id": "0.0-85.0", "trial": 2, "time_elapsed": 2477311, "serialpos": 23, "key_press": -1, "wordID": 483, "type": "PRES_AUD", "trial_index": 112}, "uniqueid": "MTK3486:33FBRBDW6P66SLLVGI53KBSO2P38CC", "dateTime": 1520622917762}, {"current_trial": 113, "trialdata": {"rt": -1, "trial_type": "single-stim", "stimulus": "", "internal_node_id": "0.0-86.0-0.0", "time_elapsed": 2478518, "key_press": -1, "type": "PRE_RECALL_DELAY", "trial_index": 113}, "uniqueid": "MTK3486:33FBRBDW6P66SLLVGI53KBSO2P38CC", "dateTime": 1520622918970}, {"current_trial": 114, "trialdata": {"rt": 259.9092970522179, "trial_type": "single-audio", "stimulus": "/static/audio/400Hz.wav", "internal_node_id": "0.0-87.0", "time_elapsed": 2479024, "key_press": 68, "type": "PRE_RECALL_ALERT", "trial_index": 114}, "uniqueid": "MTK3486:33FBRBDW6P66SLLVGI53KBSO2P38CC", "dateTime": 1520622919475}, {"current_trial": 115, "trialdata": {"rt": [1327, 2735, 3822, 8093, 10159, 11648, 13266, 14025, 15236, 17047, 18233, 19099, 20408, 22134, 23010, 26797, 28124, 40496, 42201, 44478, 46004], "recwords": ["donkey", "waitress", "dress", "outlaw", "scarecrow", "cattle", "cashier", "dime", "donkey", "priest", "diver", "woman", "napkin", "dime", "diver", "church", "concert", "postage", "treat", "panther", "leopard"], "key_times": [481, 553, 720, 812, 928, 1109, 1327, 1708, 1752, 1868, 1977, 2160, 2252, 2466, 2653, 2735, 2962, 3181, 3269, 3447, 3628, 3822, 7192, 7288, 7416, 7516, 7784, 7888, 8093, 8338, 8625, 8753, 8988, 9126, 9550, 9798, 9906, 9999, 10159, 10423, 10507, 10905, 11103, 11219, 11351, 11648, 12382, 12479, 12653, 12765, 12922, 12995, 13095, 13266, 13553, 13685, 13829, 13932, 14025, 14367, 14439, 14610, 14750, 14890, 15064, 15236, 15968, 16230, 16359, 16446, 16643, 16843, 17047, 17456, 17565, 17641, 17869, 17935, 18233, 18401, 18513, 18704, 18785, 18900, 19099, 19370, 19555, 19664, 19925, 20085, 20266, 20408, 20822, 20917, 21122, 21235, 22134, 22374, 22478, 22582, 22749, 22833, 23010, 25912, 26031, 26287, 26363, 26592, 26645, 26797, 27045, 27100, 27304, 27388, 27576, 27680, 27893, 28124, 39255, 39480, 39550, 39738, 39913, 40077, 40281, 40496, 41516, 41744, 41756, 41971, 42039, 42201, 42599, 42938, 43340, 43470, 43573, 43749, 43882, 43982, 44333, 44478, 44803, 44955, 45118, 45343, 45571, 45663, 45916, 46004], "trial_type": "free-recall", "conditions": [24, 800, "a", 24000], "internal_node_id": "0.0-88.0-0.0", "key_presses": [68, 79, 78, 75, 69, 89, 13, 87, 65, 73, 84, 82, 69, 83, 83, 13, 68, 82, 69, 83, 83, 13, 79, 85, 84, 76, 65, 87, 13, 83, 67, 65, 82, 69, 67, 82, 79, 87, 13, 67, 65, 84, 84, 76, 69, 13, 67, 65, 83, 72, 73, 69, 82, 13, 68, 73, 77, 69, 13, 68, 79, 78, 75, 69, 89, 13, 80, 82, 73, 69, 83, 84, 13, 68, 73, 86, 69, 82, 13, 87, 79, 77, 65, 78, 13, 78, 65, 80, 75, 73, 78, 13, 68, 73, 77, 69, 13, 68, 73, 86, 69, 82, 13, 67, 72, 85, 82, 67, 72, 13, 67, 79, 78, 67, 69, 82, 84, 13, 80, 79, 83, 84, 65, 71, 69, 13, 84, 82, 69, 65, 84, 13, 80, 8, 80, 65, 78, 84, 72, 69, 82, 13, 76, 69, 79, 80, 65, 82, 68, 13], "trial": 2, "time_elapsed": 2539030, "type": "FREE_RECALL", "trial_index": 115}, "uniqueid": "MTK3486:33FBRBDW6P66SLLVGI53KBSO2P38CC", "dateTime": 1520622979483}, {"current_trial": 116, "trialdata": {"rt": 1593, "trial_type": "text", "internal_node_id": "0.0-89.0", "time_elapsed": 2542626, "key_press": 32, "type": "INSTRUCTIONS", "trial_index": 116}, "uniqueid": "MTK3486:33FBRBDW6P66SLLVGI53KBSO2P38CC", "dateTime": 1520622983077}, {"current_trial": 117, "trialdata": {"rt": [1917, 3517, 5325, 9895, 11456, 12939, 15155, 17351, 18832, 20450, 22118], "trial_type": "math-distractor", "key_times": [1658, 1786, 1917, 3246, 3406, 3517, 4898, 5193, 5325, 9611, 9765, 9895, 11027, 11341, 11456, 12639, 12796, 12939, 14920, 14985, 15155, 17160, 17256, 17351, 18620, 18732, 18832, 20202, 20362, 20450, 21723, 21977, 22118], "responses": ["12", "11", "17", "22", "17", "15", "20", "17", "17", "11", "15"], "num2": [1, 1, 9, 9, 1, 5, 9, 4, 9, 8, 9, 7], "num3": [2, 9, 7, 5, 7, 5, 2, 4, 7, 1, 1, 1], "conditions": [24, 800, "a", 24000], "internal_node_id": "0.0-90.0", "key_presses": [49, 50, 13, 49, 49, 13, 49, 55, 13, 50, 50, 13, 49, 55, 13, 49, 53, 13, 50, 48, 13, 49, 55, 13, 49, 55, 13, 49, 49, 13, 49, 53, 13], "trial": 3, "time_elapsed": 2568636, "type": "DISTRACTOR", "trial_index": 117, "num1": [9, 1, 1, 8, 9, 5, 9, 9, 1, 2, 5, 9]}, "uniqueid": "MTK3486:33FBRBDW6P66SLLVGI53KBSO2P38CC", "dateTime": 1520623009087}, {"current_trial": 118, "trialdata": {"rt": -1, "trial_type": "single-stim", "stimulus": "<p id=\"stim\">10</p>", "internal_node_id": "0.0-91.0-0.0", "time_elapsed": 2571642, "key_press": -1, "trial_index": 118}, "uniqueid": "MTK3486:33FBRBDW6P66SLLVGI53KBSO2P38CC", "dateTime": 1520623012093}, {"current_trial": 119, "trialdata": {"rt": -1, "trial_type": "single-stim", "stimulus": "<p id=\"stim\">9</p>", "internal_node_id": "0.0-91.0-1.0", "time_elapsed": 2572647, "key_press": -1, "trial_index": 119}, "uniqueid": "MTK3486:33FBRBDW6P66SLLVGI53KBSO2P38CC", "dateTime": 1520623013098}, {"current_trial": 120, "trialdata": {"rt": -1, "trial_type": "single-stim", "stimulus": "<p id=\"stim\">8</p>", "internal_node_id": "0.0-91.0-2.0", "time_elapsed": 2573653, "key_press": -1, "trial_index": 120}, "uniqueid": "MTK3486:33FBRBDW6P66SLLVGI53KBSO2P38CC", "dateTime": 1520623014104}, {"current_trial": 121, "trialdata": {"rt": -1, "trial_type": "single-stim", "stimulus": "<p id=\"stim\">7</p>", "internal_node_id": "0.0-91.0-3.0", "time_elapsed": 2574659, "key_press": -1, "trial_index": 121}, "uniqueid": "MTK3486:33FBRBDW6P66SLLVGI53KBSO2P38CC", "dateTime": 1520623015110}, {"current_trial": 122, "trialdata": {"rt": -1, "trial_type": "single-stim", "stimulus": "<p id=\"stim\">6</p>", "internal_node_id": "0.0-91.0-4.0", "time_elapsed": 2575663, "key_press": -1, "trial_index": 122}, "uniqueid": "MTK3486:33FBRBDW6P66SLLVGI53KBSO2P38CC", "dateTime": 1520623016114}, {"current_trial": 123, "trialdata": {"rt": -1, "trial_type": "single-stim", "stimulus": "<p id=\"stim\">5</p>", "internal_node_id": "0.0-91.0-5.0", "time_elapsed": 2576668, "key_press": -1, "trial_index": 123}, "uniqueid": "MTK3486:33FBRBDW6P66SLLVGI53KBSO2P38CC", "dateTime": 1520623017119}, {"current_trial": 124, "trialdata": {"rt": -1, "trial_type": "single-stim", "stimulus": "<p id=\"stim\">4</p>", "internal_node_id": "0.0-91.0-6.0", "time_elapsed": 2577674, "key_press": -1, "trial_index": 124}, "uniqueid": "MTK3486:33FBRBDW6P66SLLVGI53KBSO2P38CC", "dateTime": 1520623018125}, {"current_trial": 125, "trialdata": {"rt": -1, "trial_type": "single-stim", "stimulus": "<p id=\"stim\">3</p>", "internal_node_id": "0.0-91.0-7.0", "time_elapsed": 2578678, "key_press": -1, "trial_index": 125}, "uniqueid": "MTK3486:33FBRBDW6P66SLLVGI53KBSO2P38CC", "dateTime": 1520623019129}, {"current_trial": 126, "trialdata": {"rt": -1, "trial_type": "single-stim", "stimulus": "<p id=\"stim\">2</p>", "internal_node_id": "0.0-91.0-8.0", "time_elapsed": 2579682, "key_press": -1, "trial_index": 126}, "uniqueid": "MTK3486:33FBRBDW6P66SLLVGI53KBSO2P38CC", "dateTime": 1520623020134}, {"current_trial": 127, "trialdata": {"rt": -1, "trial_type": "single-stim", "stimulus": "<p id=\"stim\">1</p>", "internal_node_id": "0.0-91.0-9.0", "time_elapsed": 2580689, "key_press": -1, "trial_index": 127}, "uniqueid": "MTK3486:33FBRBDW6P66SLLVGI53KBSO2P38CC", "dateTime": 1520623021140}, {"current_trial": 128, "trialdata": {"rt": -1, "trial_type": "single-stim", "stimulus": "<p id=\"stim\">+</p>", "internal_node_id": "0.0-92.0-0.0", "time_elapsed": 2582190, "key_press": -1, "type": "FIXATION", "trial_index": 128}, "uniqueid": "MTK3486:33FBRBDW6P66SLLVGI53KBSO2P38CC", "dateTime": 1520623022641}, {"current_trial": 129, "trialdata": {"rt": -1000, "trial_type": "single-audio", "word": "citrus", "stimulus": "/static/audio/wordpool/CITRUS.wav", "conditions": [24, 800, "a", 24000], "internal_node_id": "0.0-93.0", "trial": 3, "time_elapsed": 2583960, "serialpos": 0, "key_press": -1, "wordID": 312, "type": "PRES_AUD", "trial_index": 129}, "uniqueid": "MTK3486:33FBRBDW6P66SLLVGI53KBSO2P38CC", "dateTime": 1520623024411}, {"current_trial": 130, "trialdata": {"rt": -1000, "trial_type": "single-audio", "word": "hostess", "stimulus": "/static/audio/wordpool/HOSTESS.wav", "conditions": [24, 800, "a", 24000], "internal_node_id": "0.0-94.0", "trial": 3, "time_elapsed": 2585708, "serialpos": 1, "key_press": -1, "wordID": 722, "type": "PRES_AUD", "trial_index": 130}, "uniqueid": "MTK3486:33FBRBDW6P66SLLVGI53KBSO2P38CC", "dateTime": 1520623026159}, {"current_trial": 131, "trialdata": {"rt": -1000, "trial_type": "single-audio", "word": "denim", "stimulus": "/static/audio/wordpool/DENIM.wav", "conditions": [24, 800, "a", 24000], "internal_node_id": "0.0-95.0", "trial": 3, "time_elapsed": 2587554, "serialpos": 2, "key_press": -1, "wordID": 445, "type": "PRES_AUD", "trial_index": 131}, "uniqueid": "MTK3486:33FBRBDW6P66SLLVGI53KBSO2P38CC", "dateTime": 1520623028006}, {"current_trial": 132, "trialdata": {"rt": -1000, "trial_type": "single-audio", "word": "plaid", "stimulus": "/static/audio/wordpool/PLAID.wav", "conditions": [24, 800, "a", 24000], "internal_node_id": "0.0-96.0", "trial": 3, "time_elapsed": 2589379, "serialpos": 3, "key_press": -1, "wordID": 1079, "type": "PRES_AUD", "trial_index": 132}, "uniqueid": "MTK3486:33FBRBDW6P66SLLVGI53KBSO2P38CC", "dateTime": 1520623029830}, {"current_trial": 133, "trialdata": {"rt": -1000, "trial_type": "single-audio", "word": "skillet", "stimulus": "/static/audio/wordpool/SKILLET.wav", "conditions": [24, 800, "a", 24000], "internal_node_id": "0.0-97.0", "trial": 3, "time_elapsed": 2591165, "serialpos": 4, "key_press": -1, "wordID": 1316, "type": "PRES_AUD", "trial_index": 133}, "uniqueid": "MTK3486:33FBRBDW6P66SLLVGI53KBSO2P38CC", "dateTime": 1520623031616}, {"current_trial": 134, "trialdata": {"rt": -1000, "trial_type": "single-audio", "word": "leg", "stimulus": "/static/audio/wordpool/LEG.wav", "conditions": [24, 800, "a", 24000], "internal_node_id": "0.0-98.0", "trial": 3, "time_elapsed": 2593103, "serialpos": 5, "key_press": -1, "wordID": 808, "type": "PRES_AUD", "trial_index": 134}, "uniqueid": "MTK3486:33FBRBDW6P66SLLVGI53KBSO2P38CC", "dateTime": 1520623033555}, {"current_trial": 135, "trialdata": {"rt": -1000, "trial_type": "single-audio", "word": "uncle", "stimulus": "/static/audio/wordpool/UNCLE.wav", "conditions": [24, 800, "a", 24000], "internal_node_id": "0.0-99.0", "trial": 3, "time_elapsed": 2594952, "serialpos": 6, "key_press": -1, "wordID": 1535, "type": "PRES_AUD", "trial_index": 135}, "uniqueid": "MTK3486:33FBRBDW6P66SLLVGI53KBSO2P38CC", "dateTime": 1520623035403}, {"current_trial": 136, "trialdata": {"rt": -1000, "trial_type": "single-audio", "word": "spoon", "stimulus": "/static/audio/wordpool/SPOON.wav", "conditions": [24, 800, "a", 24000], "internal_node_id": "0.0-100.0", "trial": 3, "time_elapsed": 2596633, "serialpos": 7, "key_press": -1, "wordID": 1356, "type": "PRES_AUD", "trial_index": 136}, "uniqueid": "MTK3486:33FBRBDW6P66SLLVGI53KBSO2P38CC", "dateTime": 1520623037084}, {"current_trial": 137, "trialdata": {"rt": -1000, "trial_type": "single-audio", "word": "truck", "stimulus": "/static/audio/wordpool/TRUCK.wav", "conditions": [24, 800, "a", 24000], "internal_node_id": "0.0-101.0", "trial": 3, "time_elapsed": 2598549, "serialpos": 8, "key_press": -1, "wordID": 1511, "type": "PRES_AUD", "trial_index": 137}, "uniqueid": "MTK3486:33FBRBDW6P66SLLVGI53KBSO2P38CC", "dateTime": 1520623039000}, {"current_trial": 138, "trialdata": {"rt": -1000, "trial_type": "single-audio", "word": "husband", "stimulus": "/static/audio/wordpool/HUSBAND.wav", "conditions": [24, 800, "a", 24000], "internal_node_id": "0.0-102.0", "trial": 3, "time_elapsed": 2600424, "serialpos": 9, "key_press": -1, "wordID": 727, "type": "PRES_AUD", "trial_index": 138}, "uniqueid": "MTK3486:33FBRBDW6P66SLLVGI53KBSO2P38CC", "dateTime": 1520623040875}, {"current_trial": 139, "trialdata": {"rt": -1000, "trial_type": "single-audio", "word": "daisy", "stimulus": "/static/audio/wordpool/DAISY.wav", "conditions": [24, 800, "a", 24000], "internal_node_id": "0.0-103.0", "trial": 3, "time_elapsed": 2602194, "serialpos": 10, "key_press": -1, "wordID": 434, "type": "PRES_AUD", "trial_index": 139}, "uniqueid": "MTK3486:33FBRBDW6P66SLLVGI53KBSO2P38CC", "dateTime": 1520623042645}, {"current_trial": 140, "trialdata": {"rt": -1000, "trial_type": "single-audio", "word": "hood", "stimulus": "/static/audio/wordpool/HOOD.wav", "conditions": [24, 800, "a", 24000], "internal_node_id": "0.0-104.0", "trial": 3, "time_elapsed": 2604133, "serialpos": 11, "key_press": -1, "wordID": 713, "type": "PRES_AUD", "trial_index": 140}, "uniqueid": "MTK3486:33FBRBDW6P66SLLVGI53KBSO2P38CC", "dateTime": 1520623044584}, {"current_trial": 141, "trialdata": {"rt": -1000, "trial_type": "single-audio", "word": "oyster", "stimulus": "/static/audio/wordpool/OYSTER.wav", "conditions": [24, 800, "a", 24000], "internal_node_id": "0.0-105.0", "trial": 3, "time_elapsed": 2606084, "serialpos": 12, "key_press": -1, "wordID": 994, "type": "PRES_AUD", "trial_index": 141}, "uniqueid": "MTK3486:33FBRBDW6P66SLLVGI53KBSO2P38CC", "dateTime": 1520623046535}, {"current_trial": 142, "trialdata": {"rt": -1000, "trial_type": "single-audio", "word": "briefcase", "stimulus": "/static/audio/wordpool/BRIEFCASE.wav", "conditions": [24, 800, "a", 24000], "internal_node_id": "0.0-106.0", "trial": 3, "time_elapsed": 2607937, "serialpos": 13, "key_press": -1, "wordID": 174, "type": "PRES_AUD", "trial_index": 142}, "uniqueid": "MTK3486:33FBRBDW6P66SLLVGI53KBSO2P38CC", "dateTime": 1520623048389}, {"current_trial": 143, "trialdata": {"rt": -1000, "trial_type": "single-audio", "word": "chauffeur", "stimulus": "/static/audio/wordpool/CHAUFFEUR.wav", "conditions": [24, 800, "a", 24000], "internal_node_id": "0.0-107.0", "trial": 3, "time_elapsed": 2609555, "serialpos": 14, "key_press": -1, "wordID": 282, "type": "PRES_AUD", "trial_index": 143}, "uniqueid": "MTK3486:33FBRBDW6P66SLLVGI53KBSO2P38CC", "dateTime": 1520623050006}, {"current_trial": 144, "trialdata": {"rt": -1000, "trial_type": "single-audio", "word": "student", "stimulus": "/static/audio/wordpool/STUDENT.wav", "conditions": [24, 800, "a", 24000], "internal_node_id": "0.0-108.0", "trial": 3, "time_elapsed": 2611558, "serialpos": 15, "key_press": -1, "wordID": 1394, "type": "PRES_AUD", "trial_index": 144}, "uniqueid": "MTK3486:33FBRBDW6P66SLLVGI53KBSO2P38CC", "dateTime": 1520623052009}, {"current_trial": 145, "trialdata": {"rt": -1000, "trial_type": "single-audio", "word": "perch", "stimulus": "/static/audio/wordpool/PERCH.wav", "conditions": [24, 800, "a", 24000], "internal_node_id": "0.0-109.0", "trial": 3, "time_elapsed": 2613290, "serialpos": 16, "key_press": -1, "wordID": 1047, "type": "PRES_AUD", "trial_index": 145}, "uniqueid": "MTK3486:33FBRBDW6P66SLLVGI53KBSO2P38CC", "dateTime": 1520623053741}, {"current_trial": 146, "trialdata": {"rt": -1000, "trial_type": "single-audio", "word": "arm", "stimulus": "/static/audio/wordpool/ARM.wav", "conditions": [24, 800, "a", 24000], "internal_node_id": "0.0-110.0", "trial": 3, "time_elapsed": 2615040, "serialpos": 17, "key_press": -1, "wordID": 37, "type": "PRES_AUD", "trial_index": 146}, "uniqueid": "MTK3486:33FBRBDW6P66SLLVGI53KBSO2P38CC", "dateTime": 1520623055491}, {"current_trial": 147, "trialdata": {"rt": -1000, "trial_type": "single-audio", "word": "shoulder", "stimulus": "/static/audio/wordpool/SHOULDER.wav", "conditions": [24, 800, "a", 24000], "internal_node_id": "0.0-111.0", "trial": 3, "time_elapsed": 2616654, "serialpos": 18, "key_press": -1, "wordID": 1293, "type": "PRES_AUD", "trial_index": 147}, "uniqueid": "MTK3486:33FBRBDW6P66SLLVGI53KBSO2P38CC", "dateTime": 1520623057106}, {"current_trial": 148, "trialdata": {"rt": -1000, "trial_type": "single-audio", "word": "leader", "stimulus": "/static/audio/wordpool/LEADER.wav", "conditions": [24, 800, "a", 24000], "internal_node_id": "0.0-112.0", "trial": 3, "time_elapsed": 2618593, "serialpos": 19, "key_press": -1, "wordID": 806, "type": "PRES_AUD", "trial_index": 148}, "uniqueid": "MTK3486:33FBRBDW6P66SLLVGI53KBSO2P38CC", "dateTime": 1520623059044}, {"current_trial": 149, "trialdata": {"rt": -1000, "trial_type": "single-audio", "word": "thief", "stimulus": "/static/audio/wordpool/THIEF.wav", "conditions": [24, 800, "a", 24000], "internal_node_id": "0.0-113.0", "trial": 3, "time_elapsed": 2620422, "serialpos": 20, "key_press": -1, "wordID": 1455, "type": "PRES_AUD", "trial_index": 149}, "uniqueid": "MTK3486:33FBRBDW6P66SLLVGI53KBSO2P38CC", "dateTime": 1520623060874}, {"current_trial": 150, "trialdata": {"rt": -1000, "trial_type": "single-audio", "word": "dorm", "stimulus": "/static/audio/wordpool/DORM.wav", "conditions": [24, 800, "a", 24000], "internal_node_id": "0.0-114.0", "trial": 3, "time_elapsed": 2622280, "serialpos": 21, "key_press": -1, "wordID": 487, "type": "PRES_AUD", "trial_index": 150}, "uniqueid": "MTK3486:33FBRBDW6P66SLLVGI53KBSO2P38CC", "dateTime": 1520623062731}, {"current_trial": 151, "trialdata": {"rt": -1000, "trial_type": "single-audio", "word": "cross", "stimulus": "/static/audio/wordpool/CROSS.wav", "conditions": [24, 800, "a", 24000], "internal_node_id": "0.0-115.0", "trial": 3, "time_elapsed": 2624027, "serialpos": 22, "key_press": -1, "wordID": 412, "type": "PRES_AUD", "trial_index": 151}, "uniqueid": "MTK3486:33FBRBDW6P66SLLVGI53KBSO2P38CC", "dateTime": 1520623064478}, {"current_trial": 152, "trialdata": {"rt": -1000, "trial_type": "single-audio", "word": "hornet", "stimulus": "/static/audio/wordpool/HORNET.wav", "conditions": [24, 800, "a", 24000], "internal_node_id": "0.0-116.0", "trial": 3, "time_elapsed": 2625641, "serialpos": 23, "key_press": -1, "wordID": 717, "type": "PRES_AUD", "trial_index": 152}, "uniqueid": "MTK3486:33FBRBDW6P66SLLVGI53KBSO2P38CC", "dateTime": 1520623066092}, {"current_trial": 153, "trialdata": {"rt": -1, "trial_type": "single-stim", "stimulus": "", "internal_node_id": "0.0-117.0-0.0", "time_elapsed": 2626906, "key_press": -1, "type": "PRE_RECALL_DELAY", "trial_index": 153}, "uniqueid": "MTK3486:33FBRBDW6P66SLLVGI53KBSO2P38CC", "dateTime": 1520623067358}, {"current_trial": 154, "trialdata": {"rt": -1000, "trial_type": "single-audio", "stimulus": "/static/audio/400Hz.wav", "internal_node_id": "0.0-118.0", "time_elapsed": 2627411, "key_press": -1, "type": "PRE_RECALL_ALERT", "trial_index": 154}, "uniqueid": "MTK3486:33FBRBDW6P66SLLVGI53KBSO2P38CC", "dateTime": 1520623067862}, {"current_trial": 155, "trialdata": {"rt": [1088, 1998, 2920, 7882, 9239, 12186, 13290, 16353, 17906, 19111, 20279, 21445, 22314, 26300, 27851, 29803, 30756, 32110, 33109, 33979, 36744, 41040, 56832], "recwords": ["dorm", "cross", "hornet", "citrus", "hostess", "skillet", "leg", "daisy", "husband", "uncle", "spoon", "truck", "hood", "briefcase", "chauffer", "student", "perch", "arm", "leg", "thief", "dorm", "cross", "oyster"], "key_times": [364, 468, 595, 707, 1088, 1356, 1573, 1669, 1769, 1946, 1998, 2206, 2326, 2374, 2520, 2600, 2748, 2920, 4116, 4419, 4459, 4631, 4877, 5201, 5353, 5500, 5642, 5793, 5934, 6102, 6911, 6969, 7202, 7383, 7526, 7658, 7882, 8213, 8310, 8321, 8542, 8695, 8903, 9070, 9239, 11103, 11191, 11358, 11436, 11599, 11703, 11891, 12186, 12818, 12894, 13085, 13290, 15509, 15637, 15740, 15849, 16143, 16353, 17017, 17209, 17274, 17433, 17573, 17665, 17774, 17906, 18378, 18577, 18665, 18785, 18926, 19111, 19284, 19476, 19760, 19935, 20144, 20279, 20539, 20731, 20854, 21024, 21145, 21445, 21725, 21868, 22037, 22161, 22314, 23235, 23358, 23538, 24131, 24273, 24301, 24526, 24679, 25189, 25305, 25479, 25723, 25782, 25977, 26029, 26300, 26906, 26999, 27104, 27208, 27304, 27468, 27599, 27695, 27851, 28754, 28986, 29144, 29220, 29446, 29538, 29664, 29803, 30059, 30115, 30223, 30509, 30581, 30756, 31053, 31345, 31464, 31601, 31751, 32110, 32584, 32712, 32887, 33109, 33323, 33467, 33535, 33635, 33883, 33979, 35610, 35718, 35842, 35990, 36744, 37229, 37511, 37689, 37789, 37967, 41040, 55932, 56108, 56280, 56508, 56660, 56744, 56832], "trial_type": "free-recall", "conditions": [24, 800, "a", 24000], "internal_node_id": "0.0-119.0-0.0", "key_presses": [68, 79, 82, 77, 13, 67, 82, 79, 83, 83, 13, 72, 79, 82, 78, 69, 84, 13, 71, 82, 69, 65, 83, 8, 8, 8, 8, 8, 8, 8, 67, 73, 84, 82, 85, 83, 13, 72, 79, 83, 84, 69, 83, 83, 13, 83, 75, 73, 76, 76, 69, 84, 13, 76, 69, 71, 13, 68, 65, 73, 83, 89, 13, 72, 85, 83, 66, 65, 78, 68, 13, 85, 78, 67, 76, 69, 13, 83, 80, 79, 79, 78, 13, 84, 82, 85, 67, 75, 13, 72, 79, 79, 68, 13, 66, 82, 69, 187, 8, 187, 8, 8, 73, 69, 70, 67, 65, 83, 69, 13, 67, 72, 65, 85, 70, 70, 69, 82, 13, 83, 84, 85, 68, 69, 78, 84, 13, 80, 69, 82, 67, 72, 13, 79, 8, 65, 82, 77, 13, 76, 69, 71, 13, 84, 72, 73, 69, 70, 13, 68, 79, 82, 77, 13, 67, 82, 79, 83, 83, 13, 79, 89, 83, 84, 69, 82, 13], "trial": 3, "time_elapsed": 2687418, "type": "FREE_RECALL", "trial_index": 155}, "uniqueid": "MTK3486:33FBRBDW6P66SLLVGI53KBSO2P38CC", "dateTime": 1520623127871}, {"current_trial": 156, "trialdata": {"rt": 1262, "trial_type": "text", "internal_node_id": "0.0-120.0", "time_elapsed": 2690683, "key_press": 32, "type": "INSTRUCTIONS", "trial_index": 156}, "uniqueid": "MTK3486:33FBRBDW6P66SLLVGI53KBSO2P38CC", "dateTime": 1520623131134}, {"current_trial": 157, "trialdata": {"rt": [4309, 6159, 7739, 9265], "trial_type": "math-distractor", "key_times": [4122, 4173, 4309, 5999, 6095, 6159, 7518, 7667, 7739, 9086, 9139, 9265], "responses": ["20", "18", "11", "10"], "num2": [7, 8, 1, 2, 5], "num3": [4, 2, 3, 3, 9], "conditions": [24, 800, "a", 12000], "internal_node_id": "0.0-121.0", "key_presses": [50, 48, 13, 49, 56, 13, 49, 49, 13, 49, 48, 13], "trial": 4, "time_elapsed": 2704694, "type": "DISTRACTOR", "trial_index": 157, "num1": [9, 8, 7, 5, 3]}, "uniqueid": "MTK3486:33FBRBDW6P66SLLVGI53KBSO2P38CC", "dateTime": 1520623145145}, {"current_trial": 158, "trialdata": {"rt": -1, "trial_type": "single-stim", "stimulus": "<p id=\"stim\">10</p>", "internal_node_id": "0.0-122.0-0.0", "time_elapsed": 2707701, "key_press": -1, "trial_index": 158}, "uniqueid": "MTK3486:33FBRBDW6P66SLLVGI53KBSO2P38CC", "dateTime": 1520623148152}, {"current_trial": 159, "trialdata": {"rt": -1, "trial_type": "single-stim", "stimulus": "<p id=\"stim\">9</p>", "internal_node_id": "0.0-122.0-1.0", "time_elapsed": 2708707, "key_press": -1, "trial_index": 159}, "uniqueid": "MTK3486:33FBRBDW6P66SLLVGI53KBSO2P38CC", "dateTime": 1520623149158}, {"current_trial": 160, "trialdata": {"rt": -1, "trial_type": "single-stim", "stimulus": "<p id=\"stim\">8</p>", "internal_node_id": "0.0-122.0-2.0", "time_elapsed": 2709712, "key_press": -1, "trial_index": 160}, "uniqueid": "MTK3486:33FBRBDW6P66SLLVGI53KBSO2P38CC", "dateTime": 1520623150163}, {"current_trial": 161, "trialdata": {"rt": -1, "trial_type": "single-stim", "stimulus": "<p id=\"stim\">7</p>", "internal_node_id": "0.0-122.0-3.0", "time_elapsed": 2710718, "key_press": -1, "trial_index": 161}, "uniqueid": "MTK3486:33FBRBDW6P66SLLVGI53KBSO2P38CC", "dateTime": 1520623151169}, {"current_trial": 162, "trialdata": {"rt": -1, "trial_type": "single-stim", "stimulus": "<p id=\"stim\">6</p>", "internal_node_id": "0.0-122.0-4.0", "time_elapsed": 2711724, "key_press": -1, "trial_index": 162}, "uniqueid": "MTK3486:33FBRBDW6P66SLLVGI53KBSO2P38CC", "dateTime": 1520623152175}, {"current_trial": 163, "trialdata": {"rt": -1, "trial_type": "single-stim", "stimulus": "<p id=\"stim\">5</p>", "internal_node_id": "0.0-122.0-5.0", "time_elapsed": 2712728, "key_press": -1, "trial_index": 163}, "uniqueid": "MTK3486:33FBRBDW6P66SLLVGI53KBSO2P38CC", "dateTime": 1520623153179}, {"current_trial": 164, "trialdata": {"rt": -1, "trial_type": "single-stim", "stimulus": "<p id=\"stim\">4</p>", "internal_node_id": "0.0-122.0-6.0", "time_elapsed": 2713732, "key_press": -1, "trial_index": 164}, "uniqueid": "MTK3486:33FBRBDW6P66SLLVGI53KBSO2P38CC", "dateTime": 1520623154183}, {"current_trial": 165, "trialdata": {"rt": -1, "trial_type": "single-stim", "stimulus": "<p id=\"stim\">3</p>", "internal_node_id": "0.0-122.0-7.0", "time_elapsed": 2714738, "key_press": -1, "trial_index": 165}, "uniqueid": "MTK3486:33FBRBDW6P66SLLVGI53KBSO2P38CC", "dateTime": 1520623155189}, {"current_trial": 166, "trialdata": {"rt": -1, "trial_type": "single-stim", "stimulus": "<p id=\"stim\">2</p>", "internal_node_id": "0.0-122.0-8.0", "time_elapsed": 2715744, "key_press": -1, "trial_index": 166}, "uniqueid": "MTK3486:33FBRBDW6P66SLLVGI53KBSO2P38CC", "dateTime": 1520623156195}, {"current_trial": 167, "trialdata": {"rt": -1, "trial_type": "single-stim", "stimulus": "<p id=\"stim\">1</p>", "internal_node_id": "0.0-122.0-9.0", "time_elapsed": 2716750, "key_press": -1, "trial_index": 167}, "uniqueid": "MTK3486:33FBRBDW6P66SLLVGI53KBSO2P38CC", "dateTime": 1520623157201}, {"current_trial": 168, "trialdata": {"rt": -1, "trial_type": "single-stim", "stimulus": "<p id=\"stim\">+</p>", "internal_node_id": "0.0-123.0-0.0", "time_elapsed": 2718254, "key_press": -1, "type": "FIXATION", "trial_index": 168}, "uniqueid": "MTK3486:33FBRBDW6P66SLLVGI53KBSO2P38CC", "dateTime": 1520623158705}, {"current_trial": 169, "trialdata": {"rt": -1000, "trial_type": "single-audio", "word": "dolphin", "stimulus": "/static/audio/wordpool/DOLPHIN.wav", "conditions": [24, 800, "a", 12000], "internal_node_id": "0.0-124.0", "trial": 4, "time_elapsed": 2719879, "serialpos": 0, "key_press": -1, "wordID": 482, "type": "PRES_AUD", "trial_index": 169}, "uniqueid": "MTK3486:33FBRBDW6P66SLLVGI53KBSO2P38CC", "dateTime": 1520623160330}, {"current_trial": 170, "trialdata": {"rt": -1000, "trial_type": "single-audio", "word": "cook", "stimulus": "/static/audio/wordpool/COOK.wav", "conditions": [24, 800, "a", 12000], "internal_node_id": "0.0-125.0", "trial": 4, "time_elapsed": 2721632, "serialpos": 1, "key_press": -1, "wordID": 371, "type": "PRES_AUD", "trial_index": 170}, "uniqueid": "MTK3486:33FBRBDW6P66SLLVGI53KBSO2P38CC", "dateTime": 1520623162083}, {"current_trial": 171, "trialdata": {"rt": -1000, "trial_type": "single-audio", "word": "knife", "stimulus": "/static/audio/wordpool/KNIFE.wav", "conditions": [24, 800, "a", 12000], "internal_node_id": "0.0-126.0", "trial": 4, "time_elapsed": 2723368, "serialpos": 2, "key_press": -1, "wordID": 784, "type": "PRES_AUD", "trial_index": 171}, "uniqueid": "MTK3486:33FBRBDW6P66SLLVGI53KBSO2P38CC", "dateTime": 1520623163819}, {"current_trial": 172, "trialdata": {"rt": -1000, "trial_type": "single-audio", "word": "pistol", "stimulus": "/static/audio/wordpool/PISTOL.wav", "conditions": [24, 800, "a", 12000], "internal_node_id": "0.0-127.0", "trial": 4, "time_elapsed": 2725010, "serialpos": 3, "key_press": -1, "wordID": 1074, "type": "PRES_AUD", "trial_index": 172}, "uniqueid": "MTK3486:33FBRBDW6P66SLLVGI53KBSO2P38CC", "dateTime": 1520623165461}, {"current_trial": 173, "trialdata": {"rt": -1000, "trial_type": "single-audio", "word": "whiskers", "stimulus": "/static/audio/wordpool/WHISKERS.wav", "conditions": [24, 800, "a", 12000], "internal_node_id": "0.0-128.0", "trial": 4, "time_elapsed": 2726764, "serialpos": 4, "key_press": -1, "wordID": 1604, "type": "PRES_AUD", "trial_index": 173}, "uniqueid": "MTK3486:33FBRBDW6P66SLLVGI53KBSO2P38CC", "dateTime": 1520623167215}, {"current_trial": 174, "trialdata": {"rt": -1000, "trial_type": "single-audio", "word": "paddle", "stimulus": "/static/audio/wordpool/PADDLE.wav", "conditions": [24, 800, "a", 12000], "internal_node_id": "0.0-129.0", "trial": 4, "time_elapsed": 2728412, "serialpos": 5, "key_press": -1, "wordID": 999, "type": "PRES_AUD", "trial_index": 174}, "uniqueid": "MTK3486:33FBRBDW6P66SLLVGI53KBSO2P38CC", "dateTime": 1520623168863}, {"current_trial": 175, "trialdata": {"rt": -1000, "trial_type": "single-audio", "word": "tile", "stimulus": "/static/audio/wordpool/TILE.wav", "conditions": [24, 800, "a", 12000], "internal_node_id": "0.0-130.0", "trial": 4, "time_elapsed": 2730032, "serialpos": 6, "key_press": -1, "wordID": 1467, "type": "PRES_AUD", "trial_index": 175}, "uniqueid": "MTK3486:33FBRBDW6P66SLLVGI53KBSO2P38CC", "dateTime": 1520623170483}, {"current_trial": 176, "trialdata": {"rt": -1000, "trial_type": "single-audio", "word": "cigar", "stimulus": "/static/audio/wordpool/CIGAR.wav", "conditions": [24, 800, "a", 12000], "internal_node_id": "0.0-131.0", "trial": 4, "time_elapsed": 2731727, "serialpos": 7, "key_press": -1, "wordID": 307, "type": "PRES_AUD", "trial_index": 176}, "uniqueid": "MTK3486:33FBRBDW6P66SLLVGI53KBSO2P38CC", "dateTime": 1520623172179}, {"current_trial": 177, "trialdata": {"rt": -1000, "trial_type": "single-audio", "word": "yacht", "stimulus": "/static/audio/wordpool/YACHT.wav", "conditions": [24, 800, "a", 12000], "internal_node_id": "0.0-132.0", "trial": 4, "time_elapsed": 2733630, "serialpos": 8, "key_press": -1, "wordID": 1628, "type": "PRES_AUD", "trial_index": 177}, "uniqueid": "MTK3486:33FBRBDW6P66SLLVGI53KBSO2P38CC", "dateTime": 1520623174081}, {"current_trial": 178, "trialdata": {"rt": -1000, "trial_type": "single-audio", "word": "beast", "stimulus": "/static/audio/wordpool/BEAST.wav", "conditions": [24, 800, "a", 12000], "internal_node_id": "0.0-133.0", "trial": 4, "time_elapsed": 2735564, "serialpos": 9, "key_press": -1, "wordID": 107, "type": "PRES_AUD", "trial_index": 178}, "uniqueid": "MTK3486:33FBRBDW6P66SLLVGI53KBSO2P38CC", "dateTime": 1520623176015}, {"current_trial": 179, "trialdata": {"rt": -1000, "trial_type": "single-audio", "word": "snack", "stimulus": "/static/audio/wordpool/SNACK.wav", "conditions": [24, 800, "a", 12000], "internal_node_id": "0.0-134.0", "trial": 4, "time_elapsed": 2737480, "serialpos": 10, "key_press": -1, "wordID": 1330, "type": "PRES_AUD", "trial_index": 179}, "uniqueid": "MTK3486:33FBRBDW6P66SLLVGI53KBSO2P38CC", "dateTime": 1520623177931}, {"current_trial": 180, "trialdata": {"rt": -1000, "trial_type": "single-audio", "word": "brick", "stimulus": "/static/audio/wordpool/BRICK.wav", "conditions": [24, 800, "a", 12000], "internal_node_id": "0.0-135.0", "trial": 4, "time_elapsed": 2739152, "serialpos": 11, "key_press": -1, "wordID": 171, "type": "PRES_AUD", "trial_index": 180}, "uniqueid": "MTK3486:33FBRBDW6P66SLLVGI53KBSO2P38CC", "dateTime": 1520623179603}, {"current_trial": 181, "trialdata": {"rt": -1000, "trial_type": "single-audio", "word": "pasta", "stimulus": "/static/audio/wordpool/PASTA.wav", "conditions": [24, 800, "a", 12000], "internal_node_id": "0.0-136.0", "trial": 4, "time_elapsed": 2741149, "serialpos": 12, "key_press": -1, "wordID": 1020, "type": "PRES_AUD", "trial_index": 181}, "uniqueid": "MTK3486:33FBRBDW6P66SLLVGI53KBSO2P38CC", "dateTime": 1520623181600}, {"current_trial": 182, "trialdata": {"rt": -1000, "trial_type": "single-audio", "word": "salad", "stimulus": "/static/audio/wordpool/SALAD.wav", "conditions": [24, 800, "a", 12000], "internal_node_id": "0.0-137.0", "trial": 4, "time_elapsed": 2743076, "serialpos": 13, "key_press": -1, "wordID": 1223, "type": "PRES_AUD", "trial_index": 182}, "uniqueid": "MTK3486:33FBRBDW6P66SLLVGI53KBSO2P38CC", "dateTime": 1520623183527}, {"current_trial": 183, "trialdata": {"rt": -1000, "trial_type": "single-audio", "word": "banquet", "stimulus": "/static/audio/wordpool/BANQUET.wav", "conditions": [24, 800, "a", 12000], "internal_node_id": "0.0-138.0", "trial": 4, "time_elapsed": 2744748, "serialpos": 14, "key_press": -1, "wordID": 85, "type": "PRES_AUD", "trial_index": 183}, "uniqueid": "MTK3486:33FBRBDW6P66SLLVGI53KBSO2P38CC", "dateTime": 1520623185199}, {"current_trial": 184, "trialdata": {"rt": -1000, "trial_type": "single-audio", "word": "novel", "stimulus": "/static/audio/wordpool/NOVEL.wav", "conditions": [24, 800, "a", 12000], "internal_node_id": "0.0-139.0", "trial": 4, "time_elapsed": 2746646, "serialpos": 15, "key_press": -1, "wordID": 959, "type": "PRES_AUD", "trial_index": 184}, "uniqueid": "MTK3486:33FBRBDW6P66SLLVGI53KBSO2P38CC", "dateTime": 1520623187097}, {"current_trial": 185, "trialdata": {"rt": -1000, "trial_type": "single-audio", "word": "pastry", "stimulus": "/static/audio/wordpool/PASTRY.wav", "conditions": [24, 800, "a", 12000], "internal_node_id": "0.0-140.0", "trial": 4, "time_elapsed": 2748539, "serialpos": 16, "key_press": -1, "wordID": 1021, "type": "PRES_AUD", "trial_index": 185}, "uniqueid": "MTK3486:33FBRBDW6P66SLLVGI53KBSO2P38CC", "dateTime": 1520623188990}, {"current_trial": 186, "trialdata": {"rt": -1000, "trial_type": "single-audio", "word": "lapel", "stimulus": "/static/audio/wordpool/LAPEL.wav", "conditions": [24, 800, "a", 12000], "internal_node_id": "0.0-141.0", "trial": 4, "time_elapsed": 2750181, "serialpos": 17, "key_press": -1, "wordID": 799, "type": "PRES_AUD", "trial_index": 186}, "uniqueid": "MTK3486:33FBRBDW6P66SLLVGI53KBSO2P38CC", "dateTime": 1520623190633}, {"current_trial": 187, "trialdata": {"rt": -1000, "trial_type": "single-audio", "word": "gravel", "stimulus": "/static/audio/wordpool/GRAVEL.wav", "conditions": [24, 800, "a", 12000], "internal_node_id": "0.0-142.0", "trial": 4, "time_elapsed": 2752138, "serialpos": 18, "key_press": -1, "wordID": 658, "type": "PRES_AUD", "trial_index": 187}, "uniqueid": "MTK3486:33FBRBDW6P66SLLVGI53KBSO2P38CC", "dateTime": 1520623192589}, {"current_trial": 188, "trialdata": {"rt": -1000, "trial_type": "single-audio", "word": "sheriff", "stimulus": "/static/audio/wordpool/SHERIFF.wav", "conditions": [24, 800, "a", 12000], "internal_node_id": "0.0-143.0", "trial": 4, "time_elapsed": 2753792, "serialpos": 19, "key_press": -1, "wordID": 1283, "type": "PRES_AUD", "trial_index": 188}, "uniqueid": "MTK3486:33FBRBDW6P66SLLVGI53KBSO2P38CC", "dateTime": 1520623194243}, {"current_trial": 189, "trialdata": {"rt": -1000, "trial_type": "single-audio", "word": "lodge", "stimulus": "/static/audio/wordpool/LODGE.wav", "conditions": [24, 800, "a", 12000], "internal_node_id": "0.0-144.0", "trial": 4, "time_elapsed": 2755417, "serialpos": 20, "key_press": -1, "wordID": 838, "type": "PRES_AUD", "trial_index": 189}, "uniqueid": "MTK3486:33FBRBDW6P66SLLVGI53KBSO2P38CC", "dateTime": 1520623195868}, {"current_trial": 190, "trialdata": {"rt": -1000, "trial_type": "single-audio", "word": "doughnut", "stimulus": "/static/audio/wordpool/DOUGHNUT.wav", "conditions": [24, 800, "a", 12000], "internal_node_id": "0.0-145.0", "trial": 4, "time_elapsed": 2757176, "serialpos": 21, "key_press": -1, "wordID": 489, "type": "PRES_AUD", "trial_index": 190}, "uniqueid": "MTK3486:33FBRBDW6P66SLLVGI53KBSO2P38CC", "dateTime": 1520623197628}, {"current_trial": 191, "trialdata": {"rt": -1000, "trial_type": "single-audio", "word": "plaster", "stimulus": "/static/audio/wordpool/PLASTER.wav", "conditions": [24, 800, "a", 12000], "internal_node_id": "0.0-146.0", "trial": 4, "time_elapsed": 2759063, "serialpos": 22, "key_press": -1, "wordID": 1084, "type": "PRES_AUD", "trial_index": 191}, "uniqueid": "MTK3486:33FBRBDW6P66SLLVGI53KBSO2P38CC", "dateTime": 1520623199514}, {"current_trial": 192, "trialdata": {"rt": -1000, "trial_type": "single-audio", "word": "twig", "stimulus": "/static/audio/wordpool/TWIG.wav", "conditions": [24, 800, "a", 12000], "internal_node_id": "0.0-147.0", "trial": 4, "time_elapsed": 2761017, "serialpos": 23, "key_press": -1, "wordID": 1526, "type": "PRES_AUD", "trial_index": 192}, "uniqueid": "MTK3486:33FBRBDW6P66SLLVGI53KBSO2P38CC", "dateTime": 1520623201468}, {"current_trial": 193, "trialdata": {"rt": -1, "trial_type": "single-stim", "stimulus": "", "internal_node_id": "0.0-148.0-0.0", "time_elapsed": 2762394, "key_press": -1, "type": "PRE_RECALL_DELAY", "trial_index": 193}, "uniqueid": "MTK3486:33FBRBDW6P66SLLVGI53KBSO2P38CC", "dateTime": 1520623202845}, {"current_trial": 194, "trialdata": {"rt": -1000, "trial_type": "single-audio", "stimulus": "/static/audio/400Hz.wav", "internal_node_id": "0.0-149.0", "time_elapsed": 2762900, "key_press": -1, "type": "PRE_RECALL_ALERT", "trial_index": 194}, "uniqueid": "MTK3486:33FBRBDW6P66SLLVGI53KBSO2P38CC", "dateTime": 1520623203351}, {"current_trial": 195, "trialdata": {"rt": [3408, 4715, 5651, 6880, 8006, 8888, 10930, 11907, 13254, 14295, 15610, 15819, 17317, 18542, 20199, 22226, 32605, 42540, 43433, 45031, 46953, 49667], "recwords": ["doughnut", "plaster", "twig", "gravel", "sherrif", "novel", "pastry", "lapel", "yacht", "paddle", "dolphin", "", "wiskers", "monster", "pistol", "knife", "whiskers", "banquet", "salad", "pasta", "snack", "brick"], "key_times": [493, 566, 760, 1191, 1398, 1475, 1608, 1712, 2029, 2950, 3170, 3273, 3408, 3646, 3836, 3896, 4054, 4291, 4447, 4531, 4715, 4959, 5097, 5209, 5485, 5651, 5950, 6178, 6283, 6524, 6600, 6699, 6880, 7117, 7200, 7292, 7453, 7646, 7758, 7859, 8006, 8275, 8435, 8488, 8644, 8727, 8888, 9069, 9180, 9417, 9558, 10054, 10157, 10260, 10448, 10616, 10708, 10930, 11200, 11328, 11453, 11572, 11740, 11907, 12440, 12545, 12795, 12883, 13110, 13254, 13470, 13636, 13823, 13973, 14036, 14179, 14295, 14427, 14535, 14714, 14945, 15073, 15145, 15349, 15610, 15819, 16158, 16303, 16440, 16674, 16786, 16898, 17129, 17317, 17543, 17611, 17801, 17914, 18115, 18281, 18373, 18542, 19171, 19419, 19523, 19734, 19818, 20003, 20199, 21008, 21416, 21504, 21628, 21744, 22226, 31378, 31474, 31546, 31678, 31995, 32126, 32275, 32473, 32605, 41146, 41292, 41413, 41755, 41907, 42140, 42393, 42540, 42715, 42883, 42980, 43119, 43292, 43433, 44377, 44486, 44609, 44799, 44938, 45031, 46126, 46356, 46472, 46745, 46825, 46953, 48538, 48826, 49075, 49146, 49287, 49442, 49538, 49667], "trial_type": "free-recall", "conditions": [24, 800, "a", 12000], "internal_node_id": "0.0-150.0-0.0", "key_presses": [68, 79, 78, 8, 85, 71, 72, 84, 8, 78, 85, 84, 13, 80, 76, 65, 83, 84, 69, 82, 13, 84, 87, 73, 71, 13, 71, 82, 65, 86, 69, 76, 13, 83, 72, 69, 82, 82, 73, 70, 13, 78, 79, 86, 69, 76, 13, 65, 80, 8, 8, 80, 65, 83, 84, 82, 89, 13, 76, 65, 80, 69, 76, 13, 89, 65, 67, 72, 84, 13, 80, 65, 68, 68, 76, 69, 13, 68, 79, 76, 80, 72, 73, 78, 188, 32, 87, 73, 83, 75, 69, 82, 83, 13, 77, 79, 78, 83, 84, 69, 82, 13, 80, 73, 83, 84, 79, 76, 13, 75, 78, 73, 70, 69, 13, 87, 72, 73, 83, 75, 69, 82, 83, 13, 66, 65, 78, 81, 85, 69, 84, 13, 83, 65, 76, 65, 68, 13, 80, 65, 83, 84, 65, 13, 83, 78, 65, 67, 75, 13, 80, 8, 66, 82, 73, 67, 75, 13], "trial": 4, "time_elapsed": 2822907, "type": "FREE_RECALL", "trial_index": 195}, "uniqueid": "MTK3486:33FBRBDW6P66SLLVGI53KBSO2P38CC", "dateTime": 1520623263360}, {"current_trial": 196, "trialdata": {"rt": 973, "trial_type": "text", "internal_node_id": "0.0-151.0", "time_elapsed": 2825882, "key_press": 13, "type": "INSTRUCTIONS", "trial_index": 196}, "uniqueid": "MTK3486:33FBRBDW6P66SLLVGI53KBSO2P38CC", "dateTime": 1520623266333}, {"current_trial": 197, "trialdata": {"rt": [4801, 6345, 9330, 11724, 13022, 14255, 18113, 21128, 23582], "trial_type": "math-distractor", "key_times": [4605, 4705, 4801, 6277, 6345, 8846, 9120, 9330, 11552, 11724, 12938, 13022, 14151, 14255, 17949, 18009, 18113, 20920, 20987, 21128, 23418, 23466, 23582], "responses": ["14", "7", "13", "9", "9", "8", "20", "20", "20"], "num2": [3, 1, 2, 1, 7, 1, 9, 9, 9, 1], "num3": [5, 5, 7, 3, 1, 1, 6, 4, 5, 8], "conditions": [24, 1600, "a", 24000], "internal_node_id": "0.0-152.0", "key_presses": [49, 52, 13, 55, 13, 49, 51, 13, 57, 13, 57, 13, 56, 13, 50, 48, 13, 50, 48, 13, 50, 48, 13], "trial": 5, "time_elapsed": 2851892, "type": "DISTRACTOR", "trial_index": 197, "num1": [6, 1, 4, 5, 1, 6, 5, 7, 6, 9]}, "uniqueid": "MTK3486:33FBRBDW6P66SLLVGI53KBSO2P38CC", "dateTime": 1520623292343}, {"current_trial": 198, "trialdata": {"rt": -1, "trial_type": "single-stim", "stimulus": "<p id=\"stim\">10</p>", "internal_node_id": "0.0-153.0-0.0", "time_elapsed": 2854898, "key_press": -1, "trial_index": 198}, "uniqueid": "MTK3486:33FBRBDW6P66SLLVGI53KBSO2P38CC", "dateTime": 1520623295349}, {"current_trial": 199, "trialdata": {"rt": -1, "trial_type": "single-stim", "stimulus": "<p id=\"stim\">9</p>", "internal_node_id": "0.0-153.0-1.0", "time_elapsed": 2855901, "key_press": -1, "trial_index": 199}, "uniqueid": "MTK3486:33FBRBDW6P66SLLVGI53KBSO2P38CC", "dateTime": 1520623296352}, {"current_trial": 200, "trialdata": {"rt": -1, "trial_type": "single-stim", "stimulus": "<p id=\"stim\">8</p>", "internal_node_id": "0.0-153.0-2.0", "time_elapsed": 2856904, "key_press": -1, "trial_index": 200}, "uniqueid": "MTK3486:33FBRBDW6P66SLLVGI53KBSO2P38CC", "dateTime": 1520623297355}, {"current_trial": 201, "trialdata": {"rt": -1, "trial_type": "single-stim", "stimulus": "<p id=\"stim\">7</p>", "internal_node_id": "0.0-153.0-3.0", "time_elapsed": 2857911, "key_press": -1, "trial_index": 201}, "uniqueid": "MTK3486:33FBRBDW6P66SLLVGI53KBSO2P38CC", "dateTime": 1520623298362}, {"current_trial": 202, "trialdata": {"rt": -1, "trial_type": "single-stim", "stimulus": "<p id=\"stim\">6</p>", "internal_node_id": "0.0-153.0-4.0", "time_elapsed": 2858915, "key_press": -1, "trial_index": 202}, "uniqueid": "MTK3486:33FBRBDW6P66SLLVGI53KBSO2P38CC", "dateTime": 1520623299366}, {"current_trial": 203, "trialdata": {"rt": -1, "trial_type": "single-stim", "stimulus": "<p id=\"stim\">5</p>", "internal_node_id": "0.0-153.0-5.0", "time_elapsed": 2859920, "key_press": -1, "trial_index": 203}, "uniqueid": "MTK3486:33FBRBDW6P66SLLVGI53KBSO2P38CC", "dateTime": 1520623300371}, {"current_trial": 204, "trialdata": {"rt": -1, "trial_type": "single-stim", "stimulus": "<p id=\"stim\">4</p>", "internal_node_id": "0.0-153.0-6.0", "time_elapsed": 2860924, "key_press": -1, "trial_index": 204}, "uniqueid": "MTK3486:33FBRBDW6P66SLLVGI53KBSO2P38CC", "dateTime": 1520623301375}, {"current_trial": 205, "trialdata": {"rt": -1, "trial_type": "single-stim", "stimulus": "<p id=\"stim\">3</p>", "internal_node_id": "0.0-153.0-7.0", "time_elapsed": 2861928, "key_press": -1, "trial_index": 205}, "uniqueid": "MTK3486:33FBRBDW6P66SLLVGI53KBSO2P38CC", "dateTime": 1520623302380}, {"current_trial": 206, "trialdata": {"rt": -1, "trial_type": "single-stim", "stimulus": "<p id=\"stim\">2</p>", "internal_node_id": "0.0-153.0-8.0", "time_elapsed": 2862933, "key_press": -1, "trial_index": 206}, "uniqueid": "MTK3486:33FBRBDW6P66SLLVGI53KBSO2P38CC", "dateTime": 1520623303384}, {"current_trial": 207, "trialdata": {"rt": -1, "trial_type": "single-stim", "stimulus": "<p id=\"stim\">1</p>", "internal_node_id": "0.0-153.0-9.0", "time_elapsed": 2863937, "key_press": -1, "trial_index": 207}, "uniqueid": "MTK3486:33FBRBDW6P66SLLVGI53KBSO2P38CC", "dateTime": 1520623304388}, {"current_trial": 208, "trialdata": {"rt": -1, "trial_type": "single-stim", "stimulus": "<p id=\"stim\">+</p>", "internal_node_id": "0.0-154.0-0.0", "time_elapsed": 2865440, "key_press": -1, "type": "FIXATION", "trial_index": 208}, "uniqueid": "MTK3486:33FBRBDW6P66SLLVGI53KBSO2P38CC", "dateTime": 1520623305891}, {"current_trial": 209, "trialdata": {"rt": -1000, "trial_type": "single-audio", "word": "fragrance", "stimulus": "/static/audio/wordpool/FRAGRANCE.wav", "conditions": [24, 1600, "a", 24000], "internal_node_id": "0.0-155.0", "trial": 5, "time_elapsed": 2868099, "serialpos": 0, "key_press": -1, "wordID": 598, "type": "PRES_AUD", "trial_index": 209}, "uniqueid": "MTK3486:33FBRBDW6P66SLLVGI53KBSO2P38CC", "dateTime": 1520623308550}, {"current_trial": 210, "trialdata": {"rt": -1000, "trial_type": "single-audio", "word": "police", "stimulus": "/static/audio/wordpool/POLICE.wav", "conditions": [24, 1600, "a", 24000], "internal_node_id": "0.0-156.0", "trial": 5, "time_elapsed": 2870629, "serialpos": 1, "key_press": -1, "wordID": 1097, "type": "PRES_AUD", "trial_index": 210}, "uniqueid": "MTK3486:33FBRBDW6P66SLLVGI53KBSO2P38CC", "dateTime": 1520623311081}, {"current_trial": 211, "trialdata": {"rt": -1000, "trial_type": "single-audio", "word": "patrol", "stimulus": "/static/audio/wordpool/PATROL.wav", "conditions": [24, 1600, "a", 24000], "internal_node_id": "0.0-157.0", "trial": 5, "time_elapsed": 2873091, "serialpos": 2, "key_press": -1, "wordID": 1026, "type": "PRES_AUD", "trial_index": 211}, "uniqueid": "MTK3486:33FBRBDW6P66SLLVGI53KBSO2P38CC", "dateTime": 1520623313542}, {"current_trial": 212, "trialdata": {"rt": -1000, "trial_type": "single-audio", "word": "shorts", "stimulus": "/static/audio/wordpool/SHORTS.wav", "conditions": [24, 1600, "a", 24000], "internal_node_id": "0.0-158.0", "trial": 5, "time_elapsed": 2875744, "serialpos": 3, "key_press": -1, "wordID": 1292, "type": "PRES_AUD", "trial_index": 212}, "uniqueid": "MTK3486:33FBRBDW6P66SLLVGI53KBSO2P38CC", "dateTime": 1520623316195}, {"current_trial": 213, "trialdata": {"rt": -1000, "trial_type": "single-audio", "word": "asia", "stimulus": "/static/audio/wordpool/ASIA.wav", "conditions": [24, 1600, "a", 24000], "internal_node_id": "0.0-159.0", "trial": 5, "time_elapsed": 2878455, "serialpos": 4, "key_press": -1, "wordID": 45, "type": "PRES_AUD", "trial_index": 213}, "uniqueid": "MTK3486:33FBRBDW6P66SLLVGI53KBSO2P38CC", "dateTime": 1520623318906}, {"current_trial": 214, "trialdata": {"rt": -1000, "trial_type": "single-audio", "word": "perfume", "stimulus": "/static/audio/wordpool/PERFUME.wav", "conditions": [24, 1600, "a", 24000], "internal_node_id": "0.0-160.0", "trial": 5, "time_elapsed": 2881114, "serialpos": 5, "key_press": -1, "wordID": 1048, "type": "PRES_AUD", "trial_index": 214}, "uniqueid": "MTK3486:33FBRBDW6P66SLLVGI53KBSO2P38CC", "dateTime": 1520623321566}, {"current_trial": 215, "trialdata": {"rt": -1000, "trial_type": "single-audio", "word": "cod", "stimulus": "/static/audio/wordpool/COD.wav", "conditions": [24, 1600, "a", 24000], "internal_node_id": "0.0-161.0", "trial": 5, "time_elapsed": 2883569, "serialpos": 6, "key_press": -1, "wordID": 339, "type": "PRES_AUD", "trial_index": 215}, "uniqueid": "MTK3486:33FBRBDW6P66SLLVGI53KBSO2P38CC", "dateTime": 1520623324020}, {"current_trial": 216, "trialdata": {"rt": -1000, "trial_type": "single-audio", "word": "rattle", "stimulus": "/static/audio/wordpool/RATTLE.wav", "conditions": [24, 1600, "a", 24000], "internal_node_id": "0.0-162.0", "trial": 5, "time_elapsed": 2886228, "serialpos": 7, "key_press": -1, "wordID": 1169, "type": "PRES_AUD", "trial_index": 216}, "uniqueid": "MTK3486:33FBRBDW6P66SLLVGI53KBSO2P38CC", "dateTime": 1520623326679}, {"current_trial": 217, "trialdata": {"rt": -1000, "trial_type": "single-audio", "word": "bucket", "stimulus": "/static/audio/wordpool/BUCKET.wav", "conditions": [24, 1600, "a", 24000], "internal_node_id": "0.0-163.0", "trial": 5, "time_elapsed": 2888865, "serialpos": 8, "key_press": -1, "wordID": 183, "type": "PRES_AUD", "trial_index": 217}, "uniqueid": "MTK3486:33FBRBDW6P66SLLVGI53KBSO2P38CC", "dateTime": 1520623329316}, {"current_trial": 218, "trialdata": {"rt": -1000, "trial_type": "single-audio", "word": "toaster", "stimulus": "/static/audio/wordpool/TOASTER.wav", "conditions": [24, 1600, "a", 24000], "internal_node_id": "0.0-164.0", "trial": 5, "time_elapsed": 2891586, "serialpos": 9, "key_press": -1, "wordID": 1471, "type": "PRES_AUD", "trial_index": 218}, "uniqueid": "MTK3486:33FBRBDW6P66SLLVGI53KBSO2P38CC", "dateTime": 1520623332037}, {"current_trial": 219, "trialdata": {"rt": -1000, "trial_type": "single-audio", "word": "mask", "stimulus": "/static/audio/wordpool/MASK.wav", "conditions": [24, 1600, "a", 24000], "internal_node_id": "0.0-165.0", "trial": 5, "time_elapsed": 2894030, "serialpos": 10, "key_press": -1, "wordID": 875, "type": "PRES_AUD", "trial_index": 219}, "uniqueid": "MTK3486:33FBRBDW6P66SLLVGI53KBSO2P38CC", "dateTime": 1520623334481}, {"current_trial": 220, "trialdata": {"rt": -1000, "trial_type": "single-audio", "word": "dustpan", "stimulus": "/static/audio/wordpool/DUSTPAN.wav", "conditions": [24, 1600, "a", 24000], "internal_node_id": "0.0-166.0", "trial": 5, "time_elapsed": 2896700, "serialpos": 11, "key_press": -1, "wordID": 508, "type": "PRES_AUD", "trial_index": 220}, "uniqueid": "MTK3486:33FBRBDW6P66SLLVGI53KBSO2P38CC", "dateTime": 1520623337151}, {"current_trial": 221, "trialdata": {"rt": -1000, "trial_type": "single-audio", "word": "flute", "stimulus": "/static/audio/wordpool/FLUTE.wav", "conditions": [24, 1600, "a", 24000], "internal_node_id": "0.0-167.0", "trial": 5, "time_elapsed": 2899145, "serialpos": 12, "key_press": -1, "wordID": 584, "type": "PRES_AUD", "trial_index": 221}, "uniqueid": "MTK3486:33FBRBDW6P66SLLVGI53KBSO2P38CC", "dateTime": 1520623339596}, {"current_trial": 222, "trialdata": {"rt": -1000, "trial_type": "single-audio", "word": "trombone", "stimulus": "/static/audio/wordpool/TROMBONE.wav", "conditions": [24, 1600, "a", 24000], "internal_node_id": "0.0-168.0", "trial": 5, "time_elapsed": 2901633, "serialpos": 13, "key_press": -1, "wordID": 1507, "type": "PRES_AUD", "trial_index": 222}, "uniqueid": "MTK3486:33FBRBDW6P66SLLVGI53KBSO2P38CC", "dateTime": 1520623342084}, {"current_trial": 223, "trialdata": {"rt": -1000, "trial_type": "single-audio", "word": "ozone", "stimulus": "/static/audio/wordpool/OZONE.wav", "conditions": [24, 1600, "a", 24000], "internal_node_id": "0.0-169.0", "trial": 5, "time_elapsed": 2904055, "serialpos": 14, "key_press": -1, "wordID": 995, "type": "PRES_AUD", "trial_index": 223}, "uniqueid": "MTK3486:33FBRBDW6P66SLLVGI53KBSO2P38CC", "dateTime": 1520623344506}, {"current_trial": 224, "trialdata": {"rt": -1000, "trial_type": "single-audio", "word": "primate", "stimulus": "/static/audio/wordpool/PRIMATE.wav", "conditions": [24, 1600, "a", 24000], "internal_node_id": "0.0-170.0", "trial": 5, "time_elapsed": 2906708, "serialpos": 15, "key_press": -1, "wordID": 1122, "type": "PRES_AUD", "trial_index": 224}, "uniqueid": "MTK3486:33FBRBDW6P66SLLVGI53KBSO2P38CC", "dateTime": 1520623347159}, {"current_trial": 225, "trialdata": {"rt": -1000, "trial_type": "single-audio", "word": "crab", "stimulus": "/static/audio/wordpool/CRAB.wav", "conditions": [24, 1600, "a", 24000], "internal_node_id": "0.0-171.0", "trial": 5, "time_elapsed": 2909268, "serialpos": 16, "key_press": -1, "wordID": 396, "type": "PRES_AUD", "trial_index": 225}, "uniqueid": "MTK3486:33FBRBDW6P66SLLVGI53KBSO2P38CC", "dateTime": 1520623349719}, {"current_trial": 226, "trialdata": {"rt": -1000, "trial_type": "single-audio", "word": "spool", "stimulus": "/static/audio/wordpool/SPOOL.wav", "conditions": [24, 1600, "a", 24000], "internal_node_id": "0.0-172.0", "trial": 5, "time_elapsed": 2912024, "serialpos": 17, "key_press": -1, "wordID": 1355, "type": "PRES_AUD", "trial_index": 226}, "uniqueid": "MTK3486:33FBRBDW6P66SLLVGI53KBSO2P38CC", "dateTime": 1520623352475}, {"current_trial": 227, "trialdata": {"rt": -1000, "trial_type": "single-audio", "word": "europe", "stimulus": "/static/audio/wordpool/EUROPE.wav", "conditions": [24, 1600, "a", 24000], "internal_node_id": "0.0-173.0", "trial": 5, "time_elapsed": 2914534, "serialpos": 18, "key_press": -1, "wordID": 540, "type": "PRES_AUD", "trial_index": 227}, "uniqueid": "MTK3486:33FBRBDW6P66SLLVGI53KBSO2P38CC", "dateTime": 1520623354985}, {"current_trial": 228, "trialdata": {"rt": -1000, "trial_type": "single-audio", "word": "viking", "stimulus": "/static/audio/wordpool/VIKING.wav", "conditions": [24, 1600, "a", 24000], "internal_node_id": "0.0-174.0", "trial": 5, "time_elapsed": 2917035, "serialpos": 19, "key_press": -1, "wordID": 1564, "type": "PRES_AUD", "trial_index": 228}, "uniqueid": "MTK3486:33FBRBDW6P66SLLVGI53KBSO2P38CC", "dateTime": 1520623357486}, {"current_trial": 229, "trialdata": {"rt": -1000, "trial_type": "single-audio", "word": "silk", "stimulus": "/static/audio/wordpool/SILK.wav", "conditions": [24, 1600, "a", 24000], "internal_node_id": "0.0-175.0", "trial": 5, "time_elapsed": 2919670, "serialpos": 20, "key_press": -1, "wordID": 1306, "type": "PRES_AUD", "trial_index": 229}, "uniqueid": "MTK3486:33FBRBDW6P66SLLVGI53KBSO2P38CC", "dateTime": 1520623360121}, {"current_trial": 230, "trialdata": {"rt": -1000, "trial_type": "single-audio", "word": "smog", "stimulus": "/static/audio/wordpool/SMOG.wav", "conditions": [24, 1600, "a", 24000], "internal_node_id": "0.0-176.0", "trial": 5, "time_elapsed": 2922109, "serialpos": 21, "key_press": -1, "wordID": 1329, "type": "PRES_AUD", "trial_index": 230}, "uniqueid": "MTK3486:33FBRBDW6P66SLLVGI53KBSO2P38CC", "dateTime": 1520623362560}, {"current_trial": 231, "trialdata": {"rt": -1000, "trial_type": "single-audio", "word": "football", "stimulus": "/static/audio/wordpool/FOOTBALL.wav", "conditions": [24, 1600, "a", 24000], "internal_node_id": "0.0-177.0", "trial": 5, "time_elapsed": 2924698, "serialpos": 22, "key_press": -1, "wordID": 590, "type": "PRES_AUD", "trial_index": 231}, "uniqueid": "MTK3486:33FBRBDW6P66SLLVGI53KBSO2P38CC", "dateTime": 1520623365149}, {"current_trial": 232, "trialdata": {"rt": -1000, "trial_type": "single-audio", "word": "shirt", "stimulus": "/static/audio/wordpool/SHIRT.wav", "conditions": [24, 1600, "a", 24000], "internal_node_id": "0.0-178.0", "trial": 5, "time_elapsed": 2927234, "serialpos": 23, "key_press": -1, "wordID": 1286, "type": "PRES_AUD", "trial_index": 232}, "uniqueid": "MTK3486:33FBRBD