{"assignmentId": "33NF62TLXK9DV0T2ZZJSXKEANUZJKJ", "workerId": "MTK3238", "questiondata": {"origin": "United States", "strat-rehearsal": "75", "marital": "Married/Domestic Partnership", "education": "Doctorate degree", "ethnicity": "Hispanic", "color_depth": 24, "distracted": "No", "wrote-notes": "No", "strat-other": "", "screen_width": 1600, "avail_screen_width": 1600, "avail_screen_height": 860, "strat-image": "10", "language": "English", "gender": "Male", "age": "41", "gender_other": "", "race": ["White"], "strat-categorize": "50", "pixel_depth": 24, "strat-spatial": "5", "strat-story": "75", "race_other": "", "screen_height": 900}, "bonus": 0, "hitId": "372AGES0I4CYQ4DSGL2O0LCJ8NSRX2", "counterbalance": 1474, "useragent": "Mozilla/5.0 (Windows NT 10.0; Win64; x64) AppleWebKit/537.36 (KHTML, like Gecko) Chrome/64.0.3282.186 Safari/537.36", "eventdata": [{"eventtype": "initialized", "interval": 0, "value": null, "timestamp": 1520276028881}, {"eventtype": "window_resize", "interval": 0, "value": [1600, 845], "timestamp": 1520276028881}, {"eventtype": "focus", "interval": 35947, "value": "off", "timestamp": 1520276064828}, {"eventtype": "focus", "interval": 1, "value": "on", "timestamp": 1520276064829}, {"eventtype": "focus", "interval": 3542338, "value": "off", "timestamp": 1520279607167}, {"eventtype": "focus", "interval": 4010, "value": "on", "timestamp": 1520279611177}], "data": [{"current_trial": 0, "trialdata": {"rt": 1988, "trial_type": "text", "internal_node_id": "0.0-0.0", "time_elapsed": 1989, "key_press": 40, "type": "INSTRUCTIONS", "trial_index": 0}, "uniqueid": "MTK3238:33NF62TLXK9DV0T2ZZJSXKEANUZJKJ", "dateTime": 1520276031147}, {"current_trial": 1, "trialdata": {"rt": 1318, "trial_type": "text", "internal_node_id": "0.0-1.0", "time_elapsed": 3308, "key_press": 40, "type": "INSTRUCTIONS", "trial_index": 1}, "uniqueid": "MTK3238:33NF62TLXK9DV0T2ZZJSXKEANUZJKJ", "dateTime": 1520276032466}, {"current_trial": 2, "trialdata": {"rt": [10612], "trial_type": "audio-test", "responses": ["ocean"], "internal_node_id": "0.0-2.0", "time_elapsed": 13925, "type": "AUDIO_TEST", "trial_index": 2}, "uniqueid": "MTK3238:33NF62TLXK9DV0T2ZZJSXKEANUZJKJ", "dateTime": 1520276043083}, {"current_trial": 3, "trialdata": {"rt": [19421, 44901], "trial_type": "audio-test", "responses": ["cyrstal", "crystal"], "internal_node_id": "0.0-3.0", "time_elapsed": 58829, "type": "AUDIO_TEST", "trial_index": 3}, "uniqueid": "MTK3238:33NF62TLXK9DV0T2ZZJSXKEANUZJKJ", "dateTime": 1520276087987}, {"current_trial": 4, "trialdata": {"rt": [7692], "trial_type": "audio-test", "responses": ["spice"], "internal_node_id": "0.0-4.0", "time_elapsed": 66525, "type": "AUDIO_TEST", "trial_index": 4}, "uniqueid": "MTK3238:33NF62TLXK9DV0T2ZZJSXKEANUZJKJ", "dateTime": 1520276095683}, {"current_trial": 5, "trialdata": {"rt": 29358, "trial_type": "survey-text", "responses": "{\"Q0\":\"11:30pm\",\"Q1\":\"8:25am\",\"Q2\":\"4\"}", "internal_node_id": "0.0-5.0", "time_elapsed": 96636, "type": "SLEEP_SURVEY", "trial_index": 5}, "uniqueid": "MTK3238:33NF62TLXK9DV0T2ZZJSXKEANUZJKJ", "dateTime": 1520276125794}, {"current_trial": 6, "trialdata": {"rt": 48208, "trial_type": "text", "internal_node_id": "0.0-6.0", "time_elapsed": 145848, "key_press": 40, "type": "INSTRUCTIONS", "trial_index": 6}, "uniqueid": "MTK3238:33NF62TLXK9DV0T2ZZJSXKEANUZJKJ", "dateTime": 1520276175006}, {"current_trial": 7, "trialdata": {"rt": 20911, "trial_type": "text", "internal_node_id": "0.0-7.0", "time_elapsed": 167262, "key_press": 32, "type": "INSTRUCTIONS", "trial_index": 7}, "uniqueid": "MTK3238:33NF62TLXK9DV0T2ZZJSXKEANUZJKJ", "dateTime": 1520276196420}, {"current_trial": 8, "trialdata": {"rt": 10075, "trial_type": "text", "internal_node_id": "0.0-8.0", "time_elapsed": 177840, "key_press": 32, "type": "INSTRUCTIONS", "trial_index": 8}, "uniqueid": "MTK3238:33NF62TLXK9DV0T2ZZJSXKEANUZJKJ", "dateTime": 1520276206998}, {"current_trial": 9, "trialdata": {"rt": [3038, 5598, 7685, 9333, 11638, 13798, 15837, 17949], "trial_type": "math-distractor", "key_times": [2592, 2663, 3038, 4999, 5287, 5598, 7349, 7423, 7685, 9023, 9191, 9333, 11094, 11461, 11638, 13214, 13592, 13798, 15688, 15837, 17607, 17807, 17949], "responses": ["23", "16", "12", "14", "17", "20", "8", "15"], "num2": [8, 3, 7, 4, 7, 7, 2, 8, 1], "num3": [7, 5, 4, 1, 9, 6, 1, 3, 2], "conditions": [18, 1200, "v", 18000], "internal_node_id": "0.0-9.0", "key_presses": [50, 51, 13, 49, 54, 13, 49, 50, 13, 49, 52, 13, 49, 55, 13, 50, 48, 13, 56, 13, 49, 53, 13], "trial": 0, "time_elapsed": 196849, "type": "DISTRACTOR", "trial_index": 9, "num1": [8, 8, 1, 9, 1, 7, 5, 4, 6]}, "uniqueid": "MTK3238:33NF62TLXK9DV0T2ZZJSXKEANUZJKJ", "dateTime": 1520276226007}, {"current_trial": 10, "trialdata": {"rt": -1, "trial_type": "single-stim", "stimulus": "<p id=\"stim\">10</p>", "internal_node_id": "0.0-10.0-0.0", "time_elapsed": 199853, "key_press": -1, "trial_index": 10}, "uniqueid": "MTK3238:33NF62TLXK9DV0T2ZZJSXKEANUZJKJ", "dateTime": 1520276229011}, {"current_trial": 11, "trialdata": {"rt": -1, "trial_type": "single-stim", "stimulus": "<p id=\"stim\">9</p>", "internal_node_id": "0.0-10.0-1.0", "time_elapsed": 200856, "key_press": -1, "trial_index": 11}, "uniqueid": "MTK3238:33NF62TLXK9DV0T2ZZJSXKEANUZJKJ", "dateTime": 1520276230014}, {"current_trial": 12, "trialdata": {"rt": -1, "trial_type": "single-stim", "stimulus": "<p id=\"stim\">8</p>", "internal_node_id": "0.0-10.0-2.0", "time_elapsed": 201858, "key_press": -1, "trial_index": 12}, "uniqueid": "MTK3238:33NF62TLXK9DV0T2ZZJSXKEANUZJKJ", "dateTime": 1520276231016}, {"current_trial": 13, "trialdata": {"rt": -1, "trial_type": "single-stim", "stimulus": "<p id=\"stim\">7</p>", "internal_node_id": "0.0-10.0-3.0", "time_elapsed": 202859, "key_press": -1, "trial_index": 13}, "uniqueid": "MTK3238:33NF62TLXK9DV0T2ZZJSXKEANUZJKJ", "dateTime": 1520276232017}, {"current_trial": 14, "trialdata": {"rt": -1, "trial_type": "single-stim", "stimulus": "<p id=\"stim\">6</p>", "internal_node_id": "0.0-10.0-4.0", "time_elapsed": 203861, "key_press": -1, "trial_index": 14}, "uniqueid": "MTK3238:33NF62TLXK9DV0T2ZZJSXKEANUZJKJ", "dateTime": 1520276233019}, {"current_trial": 15, "trialdata": {"rt": -1, "trial_type": "single-stim", "stimulus": "<p id=\"stim\">5</p>", "internal_node_id": "0.0-10.0-5.0", "time_elapsed": 204865, "key_press": -1, "trial_index": 15}, "uniqueid": "MTK3238:33NF62TLXK9DV0T2ZZJSXKEANUZJKJ", "dateTime": 1520276234023}, {"current_trial": 16, "trialdata": {"rt": -1, "trial_type": "single-stim", "stimulus": "<p id=\"stim\">4</p>", "internal_node_id": "0.0-10.0-6.0", "time_elapsed": 205867, "key_press": -1, "trial_index": 16}, "uniqueid": "MTK3238:33NF62TLXK9DV0T2ZZJSXKEANUZJKJ", "dateTime": 1520276235025}, {"current_trial": 17, "trialdata": {"rt": -1, "trial_type": "single-stim", "stimulus": "<p id=\"stim\">3</p>", "internal_node_id": "0.0-10.0-7.0", "time_elapsed": 206869, "key_press": -1, "trial_index": 17}, "uniqueid": "MTK3238:33NF62TLXK9DV0T2ZZJSXKEANUZJKJ", "dateTime": 1520276236027}, {"current_trial": 18, "trialdata": {"rt": -1, "trial_type": "single-stim", "stimulus": "<p id=\"stim\">2</p>", "internal_node_id": "0.0-10.0-8.0", "time_elapsed": 207871, "key_press": -1, "trial_index": 18}, "uniqueid": "MTK3238:33NF62TLXK9DV0T2ZZJSXKEANUZJKJ", "dateTime": 1520276237029}, {"current_trial": 19, "trialdata": {"rt": -1, "trial_type": "single-stim", "stimulus": "<p id=\"stim\">1</p>", "internal_node_id": "0.0-10.0-9.0", "time_elapsed": 208873, "key_press": -1, "trial_index": 19}, "uniqueid": "MTK3238:33NF62TLXK9DV0T2ZZJSXKEANUZJKJ", "dateTime": 1520276238031}, {"current_trial": 20, "trialdata": {"rt": -1, "trial_type": "single-stim", "stimulus": "<p id=\"stim\">+</p>", "internal_node_id": "0.0-11.0-0.0", "time_elapsed": 210375, "key_press": -1, "type": "FIXATION", "trial_index": 20}, "uniqueid": "MTK3238:33NF62TLXK9DV0T2ZZJSXKEANUZJKJ", "dateTime": 1520276239534}, {"current_trial": 21, "trialdata": {"rt": -1, "trial_type": "single-stim", "word": "football", "stimulus": "<p id=\"stim\">FOOTBALL</p>", "conditions": [18, 1200, "v", 18000], "internal_node_id": "0.0-12.0", "trial": 0, "time_elapsed": 211577, "serialpos": 0, "key_press": -1, "wordID": 590, "type": "PRES_VIS", "trial_index": 21}, "uniqueid": "MTK3238:33NF62TLXK9DV0T2ZZJSXKEANUZJKJ", "dateTime": 1520276240735}, {"current_trial": 22, "trialdata": {"rt": -1, "trial_type": "single-stim", "word": "seal", "stimulus": "<p id=\"stim\">SEAL</p>", "conditions": [18, 1200, "v", 18000], "internal_node_id": "0.0-13.0", "trial": 0, "time_elapsed": 213948, "serialpos": 1, "key_press": -1, "wordID": 1261, "type": "PRES_VIS", "trial_index": 22}, "uniqueid": "MTK3238:33NF62TLXK9DV0T2ZZJSXKEANUZJKJ", "dateTime": 1520276243106}, {"current_trial": 23, "trialdata": {"rt": -1, "trial_type": "single-stim", "word": "comet", "stimulus": "<p id=\"stim\">COMET</p>", "conditions": [18, 1200, "v", 18000], "internal_node_id": "0.0-14.0", "trial": 0, "time_elapsed": 216114, "serialpos": 2, "key_press": -1, "wordID": 352, "type": "PRES_VIS", "trial_index": 23}, "uniqueid": "MTK3238:33NF62TLXK9DV0T2ZZJSXKEANUZJKJ", "dateTime": 1520276245272}, {"current_trial": 24, "trialdata": {"rt": -1, "trial_type": "single-stim", "word": "bug", "stimulus": "<p id=\"stim\">BUG</p>", "conditions": [18, 1200, "v", 18000], "internal_node_id": "0.0-15.0", "trial": 0, "time_elapsed": 218194, "serialpos": 3, "key_press": -1, "wordID": 186, "type": "PRES_VIS", "trial_index": 24}, "uniqueid": "MTK3238:33NF62TLXK9DV0T2ZZJSXKEANUZJKJ", "dateTime": 1520276247352}, {"current_trial": 25, "trialdata": {"rt": -1, "trial_type": "single-stim", "word": "cottage", "stimulus": "<p id=\"stim\">COTTAGE</p>", "conditions": [18, 1200, "v", 18000], "internal_node_id": "0.0-16.0", "trial": 0, "time_elapsed": 220337, "serialpos": 4, "key_press": -1, "wordID": 383, "type": "PRES_VIS", "trial_index": 25}, "uniqueid": "MTK3238:33NF62TLXK9DV0T2ZZJSXKEANUZJKJ", "dateTime": 1520276249495}, {"current_trial": 26, "trialdata": {"rt": -1, "trial_type": "single-stim", "word": "elbow", "stimulus": "<p id=\"stim\">ELBOW</p>", "conditions": [18, 1200, "v", 18000], "internal_node_id": "0.0-17.0", "trial": 0, "time_elapsed": 222693, "serialpos": 5, "key_press": -1, "wordID": 519, "type": "PRES_VIS", "trial_index": 26}, "uniqueid": "MTK3238:33NF62TLXK9DV0T2ZZJSXKEANUZJKJ", "dateTime": 1520276251852}, {"current_trial": 27, "trialdata": {"rt": -1, "trial_type": "single-stim", "word": "honey", "stimulus": "<p id=\"stim\">HONEY</p>", "conditions": [18, 1200, "v", 18000], "internal_node_id": "0.0-18.0", "trial": 0, "time_elapsed": 224985, "serialpos": 6, "key_press": -1, "wordID": 712, "type": "PRES_VIS", "trial_index": 27}, "uniqueid": "MTK3238:33NF62TLXK9DV0T2ZZJSXKEANUZJKJ", "dateTime": 1520276254144}, {"current_trial": 28, "trialdata": {"rt": -1, "trial_type": "single-stim", "word": "label", "stimulus": "<p id=\"stim\">LABEL</p>", "conditions": [18, 1200, "v", 18000], "internal_node_id": "0.0-19.0", "trial": 0, "time_elapsed": 227274, "serialpos": 7, "key_press": -1, "wordID": 789, "type": "PRES_VIS", "trial_index": 28}, "uniqueid": "MTK3238:33NF62TLXK9DV0T2ZZJSXKEANUZJKJ", "dateTime": 1520276256432}, {"current_trial": 29, "trialdata": {"rt": -1, "trial_type": "single-stim", "word": "pluto", "stimulus": "<p id=\"stim\">PLUTO</p>", "conditions": [18, 1200, "v", 18000], "internal_node_id": "0.0-20.0", "trial": 0, "time_elapsed": 229676, "serialpos": 8, "key_press": -1, "wordID": 1091, "type": "PRES_VIS", "trial_index": 29}, "uniqueid": "MTK3238:33NF62TLXK9DV0T2ZZJSXKEANUZJKJ", "dateTime": 1520276258834}, {"current_trial": 30, "trialdata": {"rt": -1, "trial_type": "single-stim", "word": "preacher", "stimulus": "<p id=\"stim\">PREACHER</p>", "conditions": [18, 1200, "v", 18000], "internal_node_id": "0.0-21.0", "trial": 0, "time_elapsed": 231799, "serialpos": 9, "key_press": -1, "wordID": 1118, "type": "PRES_VIS", "trial_index": 30}, "uniqueid": "MTK3238:33NF62TLXK9DV0T2ZZJSXKEANUZJKJ", "dateTime": 1520276260957}, {"current_trial": 31, "trialdata": {"rt": -1, "trial_type": "single-stim", "word": "market", "stimulus": "<p id=\"stim\">MARKET</p>", "conditions": [18, 1200, "v", 18000], "internal_node_id": "0.0-22.0", "trial": 0, "time_elapsed": 234184, "serialpos": 10, "key_press": -1, "wordID": 870, "type": "PRES_VIS", "trial_index": 31}, "uniqueid": "MTK3238:33NF62TLXK9DV0T2ZZJSXKEANUZJKJ", "dateTime": 1520276263342}, {"current_trial": 32, "trialdata": {"rt": -1, "trial_type": "single-stim", "word": "glove", "stimulus": "<p id=\"stim\">GLOVE</p>", "conditions": [18, 1200, "v", 18000], "internal_node_id": "0.0-23.0", "trial": 0, "time_elapsed": 236415, "serialpos": 11, "key_press": -1, "wordID": 641, "type": "PRES_VIS", "trial_index": 32}, "uniqueid": "MTK3238:33NF62TLXK9DV0T2ZZJSXKEANUZJKJ", "dateTime": 1520276265574}, {"current_trial": 33, "trialdata": {"rt": -1, "trial_type": "single-stim", "word": "denim", "stimulus": "<p id=\"stim\">DENIM</p>", "conditions": [18, 1200, "v", 18000], "internal_node_id": "0.0-24.0", "trial": 0, "time_elapsed": 238552, "serialpos": 12, "key_press": -1, "wordID": 445, "type": "PRES_VIS", "trial_index": 33}, "uniqueid": "MTK3238:33NF62TLXK9DV0T2ZZJSXKEANUZJKJ", "dateTime": 1520276267711}, {"current_trial": 34, "trialdata": {"rt": -1, "trial_type": "single-stim", "word": "lady", "stimulus": "<p id=\"stim\">LADY</p>", "conditions": [18, 1200, "v", 18000], "internal_node_id": "0.0-25.0", "trial": 0, "time_elapsed": 240896, "serialpos": 13, "key_press": -1, "wordID": 793, "type": "PRES_VIS", "trial_index": 34}, "uniqueid": "MTK3238:33NF62TLXK9DV0T2ZZJSXKEANUZJKJ", "dateTime": 1520276270054}, {"current_trial": 35, "trialdata": {"rt": -1, "trial_type": "single-stim", "word": "cashier", "stimulus": "<p id=\"stim\">CASHIER</p>", "conditions": [18, 1200, "v", 18000], "internal_node_id": "0.0-26.0", "trial": 0, "time_elapsed": 243196, "serialpos": 14, "key_press": -1, "wordID": 253, "type": "PRES_VIS", "trial_index": 35}, "uniqueid": "MTK3238:33NF62TLXK9DV0T2ZZJSXKEANUZJKJ", "dateTime": 1520276272354}, {"current_trial": 36, "trialdata": {"rt": -1, "trial_type": "single-stim", "word": "helmet", "stimulus": "<p id=\"stim\">HELMET</p>", "conditions": [18, 1200, "v", 18000], "internal_node_id": "0.0-27.0", "trial": 0, "time_elapsed": 245362, "serialpos": 15, "key_press": -1, "wordID": 701, "type": "PRES_VIS", "trial_index": 36}, "uniqueid": "MTK3238:33NF62TLXK9DV0T2ZZJSXKEANUZJKJ", "dateTime": 1520276274520}, {"current_trial": 37, "trialdata": {"rt": -1, "trial_type": "single-stim", "word": "table", "stimulus": "<p id=\"stim\">TABLE</p>", "conditions": [18, 1200, "v", 18000], "internal_node_id": "0.0-28.0", "trial": 0, "time_elapsed": 247747, "serialpos": 16, "key_press": -1, "wordID": 1425, "type": "PRES_VIS", "trial_index": 37}, "uniqueid": "MTK3238:33NF62TLXK9DV0T2ZZJSXKEANUZJKJ", "dateTime": 1520276276906}, {"current_trial": 38, "trialdata": {"rt": -1, "trial_type": "single-stim", "word": "coin", "stimulus": "<p id=\"stim\">COIN</p>", "conditions": [18, 1200, "v", 18000], "internal_node_id": "0.0-29.0", "trial": 0, "time_elapsed": 249966, "serialpos": 17, "key_press": -1, "wordID": 342, "type": "PRES_VIS", "trial_index": 38}, "uniqueid": "MTK3238:33NF62TLXK9DV0T2ZZJSXKEANUZJKJ", "dateTime": 1520276279124}, {"current_trial": 39, "trialdata": {"rt": -1, "trial_type": "single-stim", "stimulus": "", "internal_node_id": "0.0-30.0-0.0", "time_elapsed": 252328, "key_press": -1, "type": "PRE_RECALL_DELAY", "trial_index": 39}, "uniqueid": "MTK3238:33NF62TLXK9DV0T2ZZJSXKEANUZJKJ", "dateTime": 1520276281486}, {"current_trial": 40, "trialdata": {"rt": -1000, "trial_type": "single-audio", "stimulus": "/static/audio/400Hz.wav", "internal_node_id": "0.0-31.0", "time_elapsed": 252831, "key_press": -1, "type": "PRE_RECALL_ALERT", "trial_index": 40}, "uniqueid": "MTK3238:33NF62TLXK9DV0T2ZZJSXKEANUZJKJ", "dateTime": 1520276281989}, {"current_trial": 41, "trialdata": {"rt": [3259, 6163, 8588, 11923, 14252, 15836, 26354], "recwords": ["coin", "football", "helmet", "cashier", "lady", "bug", "elbow"], "key_times": [1589, 1739, 1885, 2133, 3259, 4604, 4828, 4971, 5212, 5443, 5548, 5795, 5939, 6163, 6940, 7172, 7364, 7572, 7699, 7859, 8588, 9891, 10307, 10379, 10691, 10915, 11084, 11147, 11923, 13468, 13611, 13731, 13915, 14252, 14947, 15147, 15372, 15836, 24635, 24844, 25165, 25379, 25518, 26354], "trial_type": "free-recall", "conditions": [18, 1200, "v", 18000], "internal_node_id": "0.0-32.0-0.0", "key_presses": [67, 79, 73, 78, 13, 70, 79, 79, 84, 66, 65, 76, 76, 13, 72, 69, 76, 77, 69, 84, 13, 67, 65, 83, 72, 73, 69, 82, 13, 76, 65, 68, 89, 13, 66, 85, 71, 13, 69, 76, 66, 79, 87, 13], "trial": 0, "time_elapsed": 312835, "type": "FREE_RECALL", "trial_index": 41}, "uniqueid": "MTK3238:33NF62TLXK9DV0T2ZZJSXKEANUZJKJ", "dateTime": 1520276341997}, {"current_trial": 42, "trialdata": {"rt": 1782, "trial_type": "text", "internal_node_id": "0.0-33.0", "time_elapsed": 316623, "key_press": 32, "type": "INSTRUCTIONS", "trial_index": 42}, "uniqueid": "MTK3238:33NF62TLXK9DV0T2ZZJSXKEANUZJKJ", "dateTime": 1520276345781}, {"current_trial": 43, "trialdata": {"rt": [3233, 5800, 8873, 10568, 12600, 14032, 16288], "trial_type": "math-distractor", "key_times": [2234, 2778, 3233, 5322, 5449, 5800, 8625, 8706, 8873, 10202, 10328, 10568, 12105, 12265, 12600, 13809, 13865, 14032, 16001, 16185, 16288, 17906], "responses": ["15", "13", "23", "10", "15", "21", "14"], "num2": [3, 2, 7, 8, 6, 7, 3, 4], "num3": [4, 6, 9, 1, 2, 7, 8, 8], "conditions": [18, 1200, "v", 18000], "internal_node_id": "0.0-34.0", "key_presses": [49, 53, 13, 49, 51, 13, 50, 51, 13, 49, 48, 13, 49, 53, 13, 50, 49, 13, 49, 52, 13, 49], "trial": 1, "time_elapsed": 336628, "type": "DISTRACTOR", "trial_index": 43, "num1": [8, 5, 7, 1, 7, 7, 3, 5]}, "uniqueid": "MTK3238:33NF62TLXK9DV0T2ZZJSXKEANUZJKJ", "dateTime": 1520276365786}, {"current_trial": 44, "trialdata": {"rt": -1, "trial_type": "single-stim", "stimulus": "<p id=\"stim\">10</p>", "internal_node_id": "0.0-35.0-0.0", "time_elapsed": 339630, "key_press": -1, "trial_index": 44}, "uniqueid": "MTK3238:33NF62TLXK9DV0T2ZZJSXKEANUZJKJ", "dateTime": 1520276368789}, {"current_trial": 45, "trialdata": {"rt": -1, "trial_type": "single-stim", "stimulus": "<p id=\"stim\">9</p>", "internal_node_id": "0.0-35.0-1.0", "time_elapsed": 340632, "key_press": -1, "trial_index": 45}, "uniqueid": "MTK3238:33NF62TLXK9DV0T2ZZJSXKEANUZJKJ", "dateTime": 1520276369791}, {"current_trial": 46, "trialdata": {"rt": -1, "trial_type": "single-stim", "stimulus": "<p id=\"stim\">8</p>", "internal_node_id": "0.0-35.0-2.0", "time_elapsed": 341634, "key_press": -1, "trial_index": 46}, "uniqueid": "MTK3238:33NF62TLXK9DV0T2ZZJSXKEANUZJKJ", "dateTime": 1520276370792}, {"current_trial": 47, "trialdata": {"rt": -1, "trial_type": "single-stim", "stimulus": "<p id=\"stim\">7</p>", "internal_node_id": "0.0-35.0-3.0", "time_elapsed": 342637, "key_press": -1, "trial_index": 47}, "uniqueid": "MTK3238:33NF62TLXK9DV0T2ZZJSXKEANUZJKJ", "dateTime": 1520276371796}, {"current_trial": 48, "trialdata": {"rt": -1, "trial_type": "single-stim", "stimulus": "<p id=\"stim\">6</p>", "internal_node_id": "0.0-35.0-4.0", "time_elapsed": 343640, "key_press": -1, "trial_index": 48}, "uniqueid": "MTK3238:33NF62TLXK9DV0T2ZZJSXKEANUZJKJ", "dateTime": 1520276372798}, {"current_trial": 49, "trialdata": {"rt": -1, "trial_type": "single-stim", "stimulus": "<p id=\"stim\">5</p>", "internal_node_id": "0.0-35.0-5.0", "time_elapsed": 344642, "key_press": -1, "trial_index": 49}, "uniqueid": "MTK3238:33NF62TLXK9DV0T2ZZJSXKEANUZJKJ", "dateTime": 1520276373800}, {"current_trial": 50, "trialdata": {"rt": -1, "trial_type": "single-stim", "stimulus": "<p id=\"stim\">4</p>", "internal_node_id": "0.0-35.0-6.0", "time_elapsed": 345643, "key_press": -1, "trial_index": 50}, "uniqueid": "MTK3238:33NF62TLXK9DV0T2ZZJSXKEANUZJKJ", "dateTime": 1520276374801}, {"current_trial": 51, "trialdata": {"rt": -1, "trial_type": "single-stim", "stimulus": "<p id=\"stim\">3</p>", "internal_node_id": "0.0-35.0-7.0", "time_elapsed": 346645, "key_press": -1, "trial_index": 51}, "uniqueid": "MTK3238:33NF62TLXK9DV0T2ZZJSXKEANUZJKJ", "dateTime": 1520276375803}, {"current_trial": 52, "trialdata": {"rt": -1, "trial_type": "single-stim", "stimulus": "<p id=\"stim\">2</p>", "internal_node_id": "0.0-35.0-8.0", "time_elapsed": 347648, "key_press": -1, "trial_index": 52}, "uniqueid": "MTK3238:33NF62TLXK9DV0T2ZZJSXKEANUZJKJ", "dateTime": 1520276376806}, {"current_trial": 53, "trialdata": {"rt": -1, "trial_type": "single-stim", "stimulus": "<p id=\"stim\">1</p>", "internal_node_id": "0.0-35.0-9.0", "time_elapsed": 348651, "key_press": -1, "trial_index": 53}, "uniqueid": "MTK3238:33NF62TLXK9DV0T2ZZJSXKEANUZJKJ", "dateTime": 1520276377809}, {"current_trial": 54, "trialdata": {"rt": -1, "trial_type": "single-stim", "stimulus": "<p id=\"stim\">+</p>", "internal_node_id": "0.0-36.0-0.0", "time_elapsed": 350153, "key_press": -1, "type": "FIXATION", "trial_index": 54}, "uniqueid": "MTK3238:33NF62TLXK9DV0T2ZZJSXKEANUZJKJ", "dateTime": 1520276379311}, {"current_trial": 55, "trialdata": {"rt": -1, "trial_type": "single-stim", "word": "shark", "stimulus": "<p id=\"stim\">SHARK</p>", "conditions": [18, 1200, "v", 18000], "internal_node_id": "0.0-37.0", "trial": 1, "time_elapsed": 351356, "serialpos": 0, "key_press": -1, "wordID": 1274, "type": "PRES_VIS", "trial_index": 55}, "uniqueid": "MTK3238:33NF62TLXK9DV0T2ZZJSXKEANUZJKJ", "dateTime": 1520276380514}, {"current_trial": 56, "trialdata": {"rt": -1, "trial_type": "single-stim", "word": "trout", "stimulus": "<p id=\"stim\">TROUT</p>", "conditions": [18, 1200, "v", 18000], "internal_node_id": "0.0-38.0", "trial": 1, "time_elapsed": 353486, "serialpos": 1, "key_press": -1, "wordID": 1510, "type": "PRES_VIS", "trial_index": 56}, "uniqueid": "MTK3238:33NF62TLXK9DV0T2ZZJSXKEANUZJKJ", "dateTime": 1520276382644}, {"current_trial": 57, "trialdata": {"rt": -1, "trial_type": "single-stim", "word": "beaker", "stimulus": "<p id=\"stim\">BEAKER</p>", "conditions": [18, 1200, "v", 18000], "internal_node_id": "0.0-39.0", "trial": 1, "time_elapsed": 355777, "serialpos": 2, "key_press": -1, "wordID": 103, "type": "PRES_VIS", "trial_index": 57}, "uniqueid": "MTK3238:33NF62TLXK9DV0T2ZZJSXKEANUZJKJ", "dateTime": 1520276384935}, {"current_trial": 58, "trialdata": {"rt": -1, "trial_type": "single-stim", "word": "flower", "stimulus": "<p id=\"stim\">FLOWER</p>", "conditions": [18, 1200, "v", 18000], "internal_node_id": "0.0-40.0", "trial": 1, "time_elapsed": 357892, "serialpos": 3, "key_press": -1, "wordID": 583, "type": "PRES_VIS", "trial_index": 58}, "uniqueid": "MTK3238:33NF62TLXK9DV0T2ZZJSXKEANUZJKJ", "dateTime": 1520276387050}, {"current_trial": 59, "trialdata": {"rt": -1, "trial_type": "single-stim", "word": "tablet", "stimulus": "<p id=\"stim\">TABLET</p>", "conditions": [18, 1200, "v", 18000], "internal_node_id": "0.0-41.0", "trial": 1, "time_elapsed": 360230, "serialpos": 4, "key_press": -1, "wordID": 1426, "type": "PRES_VIS", "trial_index": 59}, "uniqueid": "MTK3238:33NF62TLXK9DV0T2ZZJSXKEANUZJKJ", "dateTime": 1520276389388}, {"current_trial": 60, "trialdata": {"rt": -1, "trial_type": "single-stim", "word": "flute", "stimulus": "<p id=\"stim\">FLUTE</p>", "conditions": [18, 1200, "v", 18000], "internal_node_id": "0.0-42.0", "trial": 1, "time_elapsed": 362476, "serialpos": 5, "key_press": -1, "wordID": 584, "type": "PRES_VIS", "trial_index": 60}, "uniqueid": "MTK3238:33NF62TLXK9DV0T2ZZJSXKEANUZJKJ", "dateTime": 1520276391634}, {"current_trial": 61, "trialdata": {"rt": -1, "trial_type": "single-stim", "word": "switch", "stimulus": "<p id=\"stim\">SWITCH</p>", "conditions": [18, 1200, "v", 18000], "internal_node_id": "0.0-43.0", "trial": 1, "time_elapsed": 364665, "serialpos": 6, "key_press": -1, "wordID": 1421, "type": "PRES_VIS", "trial_index": 61}, "uniqueid": "MTK3238:33NF62TLXK9DV0T2ZZJSXKEANUZJKJ", "dateTime": 1520276393823}, {"current_trial": 62, "trialdata": {"rt": -1, "trial_type": "single-stim", "word": "fox", "stimulus": "<p id=\"stim\">FOX</p>", "conditions": [18, 1200, "v", 18000], "internal_node_id": "0.0-44.0", "trial": 1, "time_elapsed": 367024, "serialpos": 7, "key_press": -1, "wordID": 597, "type": "PRES_VIS", "trial_index": 62}, "uniqueid": "MTK3238:33NF62TLXK9DV0T2ZZJSXKEANUZJKJ", "dateTime": 1520276396182}, {"current_trial": 63, "trialdata": {"rt": -1, "trial_type": "single-stim", "word": "widow", "stimulus": "<p id=\"stim\">WIDOW</p>", "conditions": [18, 1200, "v", 18000], "internal_node_id": "0.0-45.0", "trial": 1, "time_elapsed": 369244, "serialpos": 8, "key_press": -1, "wordID": 1607, "type": "PRES_VIS", "trial_index": 63}, "uniqueid": "MTK3238:33NF62TLXK9DV0T2ZZJSXKEANUZJKJ", "dateTime": 1520276398403}, {"current_trial": 64, "trialdata": {"rt": -1, "trial_type": "single-stim", "word": "hatchet", "stimulus": "<p id=\"stim\">HATCHET</p>", "conditions": [18, 1200, "v", 18000], "internal_node_id": "0.0-46.0", "trial": 1, "time_elapsed": 371475, "serialpos": 9, "key_press": -1, "wordID": 690, "type": "PRES_VIS", "trial_index": 64}, "uniqueid": "MTK3238:33NF62TLXK9DV0T2ZZJSXKEANUZJKJ", "dateTime": 1520276400633}, {"current_trial": 65, "trialdata": {"rt": -1, "trial_type": "single-stim", "word": "treat", "stimulus": "<p id=\"stim\">TREAT</p>", "conditions": [18, 1200, "v", 18000], "internal_node_id": "0.0-47.0", "trial": 1, "time_elapsed": 373546, "serialpos": 10, "key_press": -1, "wordID": 1500, "type": "PRES_VIS", "trial_index": 65}, "uniqueid": "MTK3238:33NF62TLXK9DV0T2ZZJSXKEANUZJKJ", "dateTime": 1520276402704}, {"current_trial": 66, "trialdata": {"rt": -1, "trial_type": "single-stim", "word": "rebel", "stimulus": "<p id=\"stim\">REBEL</p>", "conditions": [18, 1200, "v", 18000], "internal_node_id": "0.0-48.0", "trial": 1, "time_elapsed": 375880, "serialpos": 11, "key_press": -1, "wordID": 1171, "type": "PRES_VIS", "trial_index": 66}, "uniqueid": "MTK3238:33NF62TLXK9DV0T2ZZJSXKEANUZJKJ", "dateTime": 1520276405038}, {"current_trial": 67, "trialdata": {"rt": -1, "trial_type": "single-stim", "word": "office", "stimulus": "<p id=\"stim\">OFFICE</p>", "conditions": [18, 1200, "v", 18000], "internal_node_id": "0.0-49.0", "trial": 1, "time_elapsed": 377972, "serialpos": 12, "key_press": -1, "wordID": 971, "type": "PRES_VIS", "trial_index": 67}, "uniqueid": "MTK3238:33NF62TLXK9DV0T2ZZJSXKEANUZJKJ", "dateTime": 1520276407131}, {"current_trial": 68, "trialdata": {"rt": -1, "trial_type": "single-stim", "word": "staple", "stimulus": "<p id=\"stim\">STAPLE</p>", "conditions": [18, 1200, "v", 18000], "internal_node_id": "0.0-50.0", "trial": 1, "time_elapsed": 380364, "serialpos": 13, "key_press": -1, "wordID": 1370, "type": "PRES_VIS", "trial_index": 68}, "uniqueid": "MTK3238:33NF62TLXK9DV0T2ZZJSXKEANUZJKJ", "dateTime": 1520276409526}, {"current_trial": 69, "trialdata": {"rt": -1, "trial_type": "single-stim", "word": "piston", "stimulus": "<p id=\"stim\">PISTON</p>", "conditions": [18, 1200, "v", 18000], "internal_node_id": "0.0-51.0", "trial": 1, "time_elapsed": 382693, "serialpos": 14, "key_press": -1, "wordID": 1075, "type": "PRES_VIS", "trial_index": 69}, "uniqueid": "MTK3238:33NF62TLXK9DV0T2ZZJSXKEANUZJKJ", "dateTime": 1520276411851}, {"current_trial": 70, "trialdata": {"rt": -1, "trial_type": "single-stim", "word": "stove", "stimulus": "<p id=\"stim\">STOVE</p>", "conditions": [18, 1200, "v", 18000], "internal_node_id": "0.0-52.0", "trial": 1, "time_elapsed": 384899, "serialpos": 15, "key_press": -1, "wordID": 1387, "type": "PRES_VIS", "trial_index": 70}, "uniqueid": "MTK3238:33NF62TLXK9DV0T2ZZJSXKEANUZJKJ", "dateTime": 1520276414058}, {"current_trial": 71, "trialdata": {"rt": -1, "trial_type": "single-stim", "word": "waitress", "stimulus": "<p id=\"stim\">WAITRESS</p>", "conditions": [18, 1200, "v", 18000], "internal_node_id": "0.0-53.0", "trial": 1, "time_elapsed": 387289, "serialpos": 16, "key_press": -1, "wordID": 1580, "type": "PRES_VIS", "trial_index": 71}, "uniqueid": "MTK3238:33NF62TLXK9DV0T2ZZJSXKEANUZJKJ", "dateTime": 1520276416447}, {"current_trial": 72, "trialdata": {"rt": -1, "trial_type": "single-stim", "word": "drill", "stimulus": "<p id=\"stim\">DRILL</p>", "conditions": [18, 1200, "v", 18000], "internal_node_id": "0.0-54.0", "trial": 1, "time_elapsed": 389603, "serialpos": 17, "key_press": -1, "wordID": 496, "type": "PRES_VIS", "trial_index": 72}, "uniqueid": "MTK3238:33NF62TLXK9DV0T2ZZJSXKEANUZJKJ", "dateTime": 1520276418761}, {"current_trial": 73, "trialdata": {"rt": -1, "trial_type": "single-stim", "stimulus": "", "internal_node_id": "0.0-55.0-0.0", "time_elapsed": 392082, "key_press": -1, "type": "PRE_RECALL_DELAY", "trial_index": 73}, "uniqueid": "MTK3238:33NF62TLXK9DV0T2ZZJSXKEANUZJKJ", "dateTime": 1520276421240}, {"current_trial": 74, "trialdata": {"rt": -1000, "trial_type": "single-audio", "stimulus": "/static/audio/400Hz.wav", "internal_node_id": "0.0-56.0", "time_elapsed": 392584, "key_press": -1, "type": "PRE_RECALL_ALERT", "trial_index": 74}, "uniqueid": "MTK3238:33NF62TLXK9DV0T2ZZJSXKEANUZJKJ", "dateTime": 1520276421742}, {"current_trial": 75, "trialdata": {"rt": [4304, 5920, 7952, 10711, 12624, 20032], "recwords": ["waitress", "drill", "fox", "tablet", "shark", "hatchet"], "key_times": [1354, 1560, 1719, 1999, 3016, 3177, 3448, 3616, 4304, 5047, 5224, 5375, 5591, 5719, 5920, 7377, 7527, 7817, 7952, 9247, 9415, 9584, 9792, 9944, 10096, 10711, 11224, 11424, 11496, 11744, 11985, 12624, 16784, 17535, 17767, 18136, 18288, 18433, 18544, 20032], "trial_type": "free-recall", "conditions": [18, 1200, "v", 18000], "internal_node_id": "0.0-57.0-0.0", "key_presses": [87, 65, 73, 84, 82, 69, 83, 83, 13, 68, 82, 73, 76, 76, 13, 70, 79, 88, 13, 84, 65, 66, 76, 69, 84, 13, 83, 72, 65, 82, 75, 13, 72, 65, 84, 67, 72, 69, 84, 13], "trial": 1, "time_elapsed": 452590, "type": "FREE_RECALL", "trial_index": 75}, "uniqueid": "MTK3238:33NF62TLXK9DV0T2ZZJSXKEANUZJKJ", "dateTime": 1520276481751}, {"current_trial": 76, "trialdata": {"rt": 3608, "trial_type": "text", "internal_node_id": "0.0-58.0", "time_elapsed": 458203, "key_press": 32, "type": "INSTRUCTIONS", "trial_index": 76}, "uniqueid": "MTK3238:33NF62TLXK9DV0T2ZZJSXKEANUZJKJ", "dateTime": 1520276487362}, {"current_trial": 77, "trialdata": {"rt": [2891, 5554, 7323, 9028, 11285], "trial_type": "math-distractor", "key_times": [2534, 2631, 2891, 5101, 5301, 5554, 7230, 7323, 8716, 8902, 9028, 10516, 10814, 11285], "responses": ["18", "18", "6", "15", "13"], "num2": [3, 5, 3, 3, 3, 7], "num3": [9, 4, 1, 4, 1, 1], "conditions": [24, 800, "v", 12000], "internal_node_id": "0.0-59.0", "key_presses": [49, 56, 13, 49, 56, 13, 54, 13, 49, 53, 13, 49, 51, 13], "trial": 2, "time_elapsed": 471207, "type": "DISTRACTOR", "trial_index": 77, "num1": [6, 9, 2, 8, 9, 7]}, "uniqueid": "MTK3238:33NF62TLXK9DV0T2ZZJSXKEANUZJKJ", "dateTime": 1520276500365}, {"current_trial": 78, "trialdata": {"rt": -1, "trial_type": "single-stim", "stimulus": "<p id=\"stim\">10</p>", "internal_node_id": "0.0-60.0-0.0", "time_elapsed": 474210, "key_press": -1, "trial_index": 78}, "uniqueid": "MTK3238:33NF62TLXK9DV0T2ZZJSXKEANUZJKJ", "dateTime": 1520276503368}, {"current_trial": 79, "trialdata": {"rt": -1, "trial_type": "single-stim", "stimulus": "<p id=\"stim\">9</p>", "internal_node_id": "0.0-60.0-1.0", "time_elapsed": 475212, "key_press": -1, "trial_index": 79}, "uniqueid": "MTK3238:33NF62TLXK9DV0T2ZZJSXKEANUZJKJ", "dateTime": 1520276504370}, {"current_trial": 80, "trialdata": {"rt": -1, "trial_type": "single-stim", "stimulus": "<p id=\"stim\">8</p>", "internal_node_id": "0.0-60.0-2.0", "time_elapsed": 476213, "key_press": -1, "trial_index": 80}, "uniqueid": "MTK3238:33NF62TLXK9DV0T2ZZJSXKEANUZJKJ", "dateTime": 1520276505371}, {"current_trial": 81, "trialdata": {"rt": -1, "trial_type": "single-stim", "stimulus": "<p id=\"stim\">7</p>", "internal_node_id": "0.0-60.0-3.0", "time_elapsed": 477216, "key_press": -1, "trial_index": 81}, "uniqueid": "MTK3238:33NF62TLXK9DV0T2ZZJSXKEANUZJKJ", "dateTime": 1520276506374}, {"current_trial": 82, "trialdata": {"rt": -1, "trial_type": "single-stim", "stimulus": "<p id=\"stim\">6</p>", "internal_node_id": "0.0-60.0-4.0", "time_elapsed": 478218, "key_press": -1, "trial_index": 82}, "uniqueid": "MTK3238:33NF62TLXK9DV0T2ZZJSXKEANUZJKJ", "dateTime": 1520276507376}, {"current_trial": 83, "trialdata": {"rt": -1, "trial_type": "single-stim", "stimulus": "<p id=\"stim\">5</p>", "internal_node_id": "0.0-60.0-5.0", "time_elapsed": 479219, "key_press": -1, "trial_index": 83}, "uniqueid": "MTK3238:33NF62TLXK9DV0T2ZZJSXKEANUZJKJ", "dateTime": 1520276508377}, {"current_trial": 84, "trialdata": {"rt": -1, "trial_type": "single-stim", "stimulus": "<p id=\"stim\">4</p>", "internal_node_id": "0.0-60.0-6.0", "time_elapsed": 480221, "key_press": -1, "trial_index": 84}, "uniqueid": "MTK3238:33NF62TLXK9DV0T2ZZJSXKEANUZJKJ", "dateTime": 1520276509379}, {"current_trial": 85, "trialdata": {"rt": -1, "trial_type": "single-stim", "stimulus": "<p id=\"stim\">3</p>", "internal_node_id": "0.0-60.0-7.0", "time_elapsed": 481222, "key_press": -1, "trial_index": 85}, "uniqueid": "MTK3238:33NF62TLXK9DV0T2ZZJSXKEANUZJKJ", "dateTime": 1520276510380}, {"current_trial": 86, "trialdata": {"rt": -1, "trial_type": "single-stim", "stimulus": "<p id=\"stim\">2</p>", "internal_node_id": "0.0-60.0-8.0", "time_elapsed": 482224, "key_press": -1, "trial_index": 86}, "uniqueid": "MTK3238:33NF62TLXK9DV0T2ZZJSXKEANUZJKJ", "dateTime": 1520276511382}, {"current_trial": 87, "trialdata": {"rt": -1, "trial_type": "single-stim", "stimulus": "<p id=\"stim\">1</p>", "internal_node_id": "0.0-60.0-9.0", "time_elapsed": 483226, "key_press": -1, "trial_index": 87}, "uniqueid": "MTK3238:33NF62TLXK9DV0T2ZZJSXKEANUZJKJ", "dateTime": 1520276512384}, {"current_trial": 88, "trialdata": {"rt": -1, "trial_type": "single-stim", "stimulus": "<p id=\"stim\">+</p>", "internal_node_id": "0.0-61.0-0.0", "time_elapsed": 484729, "key_press": -1, "type": "FIXATION", "trial_index": 88}, "uniqueid": "MTK3238:33NF62TLXK9DV0T2ZZJSXKEANUZJKJ", "dateTime": 1520276513887}, {"current_trial": 89, "trialdata": {"rt": -1, "trial_type": "single-stim", "word": "couch", "stimulus": "<p id=\"stim\">COUCH</p>", "conditions": [24, 800, "v", 12000], "internal_node_id": "0.0-62.0", "trial": 2, "time_elapsed": 485530, "serialpos": 0, "key_press": -1, "wordID": 385, "type": "PRES_VIS", "trial_index": 89}, "uniqueid": "MTK3238:33NF62TLXK9DV0T2ZZJSXKEANUZJKJ", "dateTime": 1520276514688}, {"current_trial": 90, "trialdata": {"rt": -1, "trial_type": "single-stim", "word": "dentist", "stimulus": "<p id=\"stim\">DENTIST</p>", "conditions": [24, 800, "v", 12000], "internal_node_id": "0.0-63.0", "trial": 2, "time_elapsed": 487308, "serialpos": 1, "key_press": -1, "wordID": 446, "type": "PRES_VIS", "trial_index": 90}, "uniqueid": "MTK3238:33NF62TLXK9DV0T2ZZJSXKEANUZJKJ", "dateTime": 1520276516466}, {"current_trial": 91, "trialdata": {"rt": -1, "trial_type": "single-stim", "word": "ghetto", "stimulus": "<p id=\"stim\">GHETTO</p>", "conditions": [24, 800, "v", 12000], "internal_node_id": "0.0-64.0", "trial": 2, "time_elapsed": 489241, "serialpos": 2, "key_press": -1, "wordID": 632, "type": "PRES_VIS", "trial_index": 91}, "uniqueid": "MTK3238:33NF62TLXK9DV0T2ZZJSXKEANUZJKJ", "dateTime": 1520276518399}, {"current_trial": 92, "trialdata": {"rt": -1, "trial_type": "single-stim", "word": "report", "stimulus": "<p id=\"stim\">REPORT</p>", "conditions": [24, 800, "v", 12000], "internal_node_id": "0.0-65.0", "trial": 2, "time_elapsed": 491085, "serialpos": 3, "key_press": -1, "wordID": 1183, "type": "PRES_VIS", "trial_index": 92}, "uniqueid": "MTK3238:33NF62TLXK9DV0T2ZZJSXKEANUZJKJ", "dateTime": 1520276520243}, {"current_trial": 93, "trialdata": {"rt": -1, "trial_type": "single-stim", "word": "award", "stimulus": "<p id=\"stim\">AWARD</p>", "conditions": [24, 800, "v", 12000], "internal_node_id": "0.0-66.0", "trial": 2, "time_elapsed": 492952, "serialpos": 4, "key_press": -1, "wordID": 62, "type": "PRES_VIS", "trial_index": 93}, "uniqueid": "MTK3238:33NF62TLXK9DV0T2ZZJSXKEANUZJKJ", "dateTime": 1520276522110}, {"current_trial": 94, "trialdata": {"rt": -1, "trial_type": "single-stim", "word": "contract", "stimulus": "<p id=\"stim\">CONTRACT</p>", "conditions": [24, 800, "v", 12000], "internal_node_id": "0.0-67.0", "trial": 2, "time_elapsed": 494724, "serialpos": 5, "key_press": -1, "wordID": 367, "type": "PRES_VIS", "trial_index": 94}, "uniqueid": "MTK3238:33NF62TLXK9DV0T2ZZJSXKEANUZJKJ", "dateTime": 1520276523882}, {"current_trial": 95, "trialdata": {"rt": -1, "trial_type": "single-stim", "word": "quarter", "stimulus": "<p id=\"stim\">QUARTER</p>", "conditions": [24, 800, "v", 12000], "internal_node_id": "0.0-68.0", "trial": 2, "time_elapsed": 496459, "serialpos": 6, "key_press": -1, "wordID": 1147, "type": "PRES_VIS", "trial_index": 95}, "uniqueid": "MTK3238:33NF62TLXK9DV0T2ZZJSXKEANUZJKJ", "dateTime": 1520276525617}, {"current_trial": 96, "trialdata": {"rt": -1, "trial_type": "single-stim", "word": "survey", "stimulus": "<p id=\"stim\">SURVEY</p>", "conditions": [24, 800, "v", 12000], "internal_node_id": "0.0-69.0", "trial": 2, "time_elapsed": 498156, "serialpos": 7, "key_press": -1, "wordID": 1413, "type": "PRES_VIS", "trial_index": 96}, "uniqueid": "MTK3238:33NF62TLXK9DV0T2ZZJSXKEANUZJKJ", "dateTime": 1520276527315}, {"current_trial": 97, "trialdata": {"rt": -1, "trial_type": "single-stim", "word": "cattle", "stimulus": "<p id=\"stim\">CATTLE</p>", "conditions": [24, 800, "v", 12000], "internal_node_id": "0.0-70.0", "trial": 2, "time_elapsed": 500042, "serialpos": 8, "key_press": -1, "wordID": 260, "type": "PRES_VIS", "trial_index": 97}, "uniqueid": "MTK3238:33NF62TLXK9DV0T2ZZJSXKEANUZJKJ", "dateTime": 1520276529200}, {"current_trial": 98, "trialdata": {"rt": -1, "trial_type": "single-stim", "word": "beef", "stimulus": "<p id=\"stim\">BEEF</p>", "conditions": [24, 800, "v", 12000], "internal_node_id": "0.0-71.0", "trial": 2, "time_elapsed": 501843, "serialpos": 9, "key_press": -1, "wordID": 112, "type": "PRES_VIS", "trial_index": 98}, "uniqueid": "MTK3238:33NF62TLXK9DV0T2ZZJSXKEANUZJKJ", "dateTime": 1520276531001}, {"current_trial": 99, "trialdata": {"rt": -1, "trial_type": "single-stim", "word": "parrot", "stimulus": "<p id=\"stim\">PARROT</p>", "conditions": [24, 800, "v", 12000], "internal_node_id": "0.0-72.0", "trial": 2, "time_elapsed": 503745, "serialpos": 10, "key_press": -1, "wordID": 1014, "type": "PRES_VIS", "trial_index": 99}, "uniqueid": "MTK3238:33NF62TLXK9DV0T2ZZJSXKEANUZJKJ", "dateTime": 1520276532903}, {"current_trial": 100, "trialdata": {"rt": -1, "trial_type": "single-stim", "word": "cellar", "stimulus": "<p id=\"stim\">CELLAR</p>", "conditions": [24, 800, "v", 12000], "internal_node_id": "0.0-73.0", "trial": 2, "time_elapsed": 505483, "serialpos": 11, "key_press": -1, "wordID": 266, "type": "PRES_VIS", "trial_index": 100}, "uniqueid": "MTK3238:33NF62TLXK9DV0T2ZZJSXKEANUZJKJ", "dateTime": 1520276534641}, {"current_trial": 101, "trialdata": {"rt": -1, "trial_type": "single-stim", "word": "hostess", "stimulus": "<p id=\"stim\">HOSTESS</p>", "conditions": [24, 800, "v", 12000], "internal_node_id": "0.0-74.0", "trial": 2, "time_elapsed": 507397, "serialpos": 12, "key_press": -1, "wordID": 722, "type": "PRES_VIS", "trial_index": 101}, "uniqueid": "MTK3238:33NF62TLXK9DV0T2ZZJSXKEANUZJKJ", "dateTime": 1520276536555}, {"current_trial": 102, "trialdata": {"rt": -1, "trial_type": "single-stim", "word": "flag", "stimulus": "<p id=\"stim\">FLAG</p>", "conditions": [24, 800, "v", 12000], "internal_node_id": "0.0-75.0", "trial": 2, "time_elapsed": 509020, "serialpos": 13, "key_press": -1, "wordID": 572, "type": "PRES_VIS", "trial_index": 102}, "uniqueid": "MTK3238:33NF62TLXK9DV0T2ZZJSXKEANUZJKJ", "dateTime": 1520276538178}, {"current_trial": 103, "trialdata": {"rt": -1, "trial_type": "single-stim", "word": "balloon", "stimulus": "<p id=\"stim\">BALLOON</p>", "conditions": [24, 800, "v", 12000], "internal_node_id": "0.0-76.0", "trial": 2, "time_elapsed": 510645, "serialpos": 14, "key_press": -1, "wordID": 74, "type": "PRES_VIS", "trial_index": 103}, "uniqueid": "MTK3238:33NF62TLXK9DV0T2ZZJSXKEANUZJKJ", "dateTime": 1520276539804}, {"current_trial": 104, "trialdata": {"rt": -1, "trial_type": "single-stim", "word": "brick", "stimulus": "<p id=\"stim\">BRICK</p>", "conditions": [24, 800, "v", 12000], "internal_node_id": "0.0-77.0", "trial": 2, "time_elapsed": 512482, "serialpos": 15, "key_press": -1, "wordID": 171, "type": "PRES_VIS", "trial_index": 104}, "uniqueid": "MTK3238:33NF62TLXK9DV0T2ZZJSXKEANUZJKJ", "dateTime": 1520276541641}, {"current_trial": 105, "trialdata": {"rt": -1, "trial_type": "single-stim", "word": "pliers", "stimulus": "<p id=\"stim\">PLIERS</p>", "conditions": [24, 800, "v", 12000], "internal_node_id": "0.0-78.0", "trial": 2, "time_elapsed": 514316, "serialpos": 16, "key_press": -1, "wordID": 1088, "type": "PRES_VIS", "trial_index": 105}, "uniqueid": "MTK3238:33NF62TLXK9DV0T2ZZJSXKEANUZJKJ", "dateTime": 1520276543475}, {"current_trial": 106, "trialdata": {"rt": -1, "trial_type": "single-stim", "word": "spouse", "stimulus": "<p id=\"stim\">SPOUSE</p>", "conditions": [24, 800, "v", 12000], "internal_node_id": "0.0-79.0", "trial": 2, "time_elapsed": 515928, "serialpos": 17, "key_press": -1, "wordID": 1357, "type": "PRES_VIS", "trial_index": 106}, "uniqueid": "MTK3238:33NF62TLXK9DV0T2ZZJSXKEANUZJKJ", "dateTime": 1520276545086}, {"current_trial": 107, "trialdata": {"rt": -1, "trial_type": "single-stim", "word": "tile", "stimulus": "<p id=\"stim\">TILE</p>", "conditions": [24, 800, "v", 12000], "internal_node_id": "0.0-80.0", "trial": 2, "time_elapsed": 517647, "serialpos": 18, "key_press": -1, "wordID": 1467, "type": "PRES_VIS", "trial_index": 107}, "uniqueid": "MTK3238:33NF62TLXK9DV0T2ZZJSXKEANUZJKJ", "dateTime": 1520276546805}, {"current_trial": 108, "trialdata": {"rt": -1, "trial_type": "single-stim", "word": "eyelash", "stimulus": "<p id=\"stim\">EYELASH</p>", "conditions": [24, 800, "v", 12000], "internal_node_id": "0.0-81.0", "trial": 2, "time_elapsed": 519366, "serialpos": 19, "key_press": -1, "wordID": 545, "type": "PRES_VIS", "trial_index": 108}, "uniqueid": "MTK3238:33NF62TLXK9DV0T2ZZJSXKEANUZJKJ", "dateTime": 1520276548524}, {"current_trial": 109, "trialdata": {"rt": -1, "trial_type": "single-stim", "word": "leader", "stimulus": "<p id=\"stim\">LEADER</p>", "conditions": [24, 800, "v", 12000], "internal_node_id": "0.0-82.0", "trial": 2, "time_elapsed": 521158, "serialpos": 20, "key_press": -1, "wordID": 806, "type": "PRES_VIS", "trial_index": 109}, "uniqueid": "MTK3238:33NF62TLXK9DV0T2ZZJSXKEANUZJKJ", "dateTime": 1520276550317}, {"current_trial": 110, "trialdata": {"rt": -1, "trial_type": "single-stim", "word": "briefcase", "stimulus": "<p id=\"stim\">BRIEFCASE</p>", "conditions": [24, 800, "v", 12000], "internal_node_id": "0.0-83.0", "trial": 2, "time_elapsed": 522777, "serialpos": 21, "key_press": -1, "wordID": 174, "type": "PRES_VIS", "trial_index": 110}, "uniqueid": "MTK3238:33NF62TLXK9DV0T2ZZJSXKEANUZJKJ", "dateTime": 1520276551935}, {"current_trial": 111, "trialdata": {"rt": -1, "trial_type": "single-stim", "word": "knapsack", "stimulus": "<p id=\"stim\">KNAPSACK</p>", "conditions": [24, 800, "v", 12000], "internal_node_id": "0.0-84.0", "trial": 2, "time_elapsed": 524546, "serialpos": 22, "key_press": -1, "wordID": 782, "type": "PRES_VIS", "trial_index": 111}, "uniqueid": "MTK3238:33NF62TLXK9DV0T2ZZJSXKEANUZJKJ", "dateTime": 1520276553704}, {"current_trial": 112, "trialdata": {"rt": -1, "trial_type": "single-stim", "word": "dolphin", "stimulus": "<p id=\"stim\">DOLPHIN</p>", "conditions": [24, 800, "v", 12000], "internal_node_id": "0.0-85.0", "trial": 2, "time_elapsed": 526486, "serialpos": 23, "key_press": -1, "wordID": 482, "type": "PRES_VIS", "trial_index": 112}, "uniqueid": "MTK3238:33NF62TLXK9DV0T2ZZJSXKEANUZJKJ", "dateTime": 1520276555644}, {"current_trial": 113, "trialdata": {"rt": -1, "trial_type": "single-stim", "stimulus": "", "internal_node_id": "0.0-86.0-0.0", "time_elapsed": 528586, "key_press": -1, "type": "PRE_RECALL_DELAY", "trial_index": 113}, "uniqueid": "MTK3238:33NF62TLXK9DV0T2ZZJSXKEANUZJKJ", "dateTime": 1520276557744}, {"current_trial": 114, "trialdata": {"rt": -1000, "trial_type": "single-audio", "stimulus": "/static/audio/400Hz.wav", "internal_node_id": "0.0-87.0", "time_elapsed": 529087, "key_press": -1, "type": "PRE_RECALL_ALERT", "trial_index": 114}, "uniqueid": "MTK3238:33NF62TLXK9DV0T2ZZJSXKEANUZJKJ", "dateTime": 1520276558245}, {"current_trial": 115, "trialdata": {"rt": [2771, 5451, 12882, 14898, 17475, 18963, 24986, 51938], "recwords": ["leader", "dolphin", "eyelash", "award", "ghetto", "award", "dentist", "hostess"], "key_times": [1347, 1521, 1714, 1826, 1995, 2099, 2771, 3497, 3787, 4098, 4386, 4658, 4867, 5091, 5451, 6114, 6530, 6827, 7114, 7244, 7482, 7746, 7875, 8034, 8826, 9034, 9211, 9378, 9555, 10260, 10330, 10507, 12882, 13851, 14058, 14210, 14402, 14570, 14898, 15810, 16026, 16218, 16404, 16547, 16738, 17475, 18075, 18298, 18451, 18627, 18804, 18963, 20026, 20097, 20330, 20610, 20754, 21210, 21571, 21723, 22627, 22795, 22971, 23801, 23914, 24986, 48932, 49148, 49338, 49698, 50779, 50996, 51132, 51938], "trial_type": "free-recall", "conditions": [24, 800, "v", 12000], "internal_node_id": "0.0-88.0-0.0", "key_presses": [76, 69, 65, 68, 69, 82, 13, 68, 79, 76, 80, 72, 73, 78, 13, 69, 89, 69, 76, 65, 68, 73, 83, 72, 8, 8, 8, 8, 8, 65, 83, 72, 13, 65, 87, 65, 82, 68, 13, 71, 72, 69, 84, 84, 79, 13, 65, 87, 65, 82, 68, 13, 68, 69, 78, 84, 73, 83, 73, 84, 8, 8, 8, 83, 84, 13, 72, 79, 83, 84, 69, 83, 83, 13], "trial": 2, "time_elapsed": 589089, "type": "FREE_RECALL", "trial_index": 115}, "uniqueid": "MTK3238:33NF62TLXK9DV0T2ZZJSXKEANUZJKJ", "dateTime": 1520276618251}, {"current_trial": 116, "trialdata": {"rt": 25462, "trial_type": "text", "internal_node_id": "0.0-89.0", "time_elapsed": 616556, "key_press": 32, "type": "INSTRUCTIONS", "trial_index": 116}, "uniqueid": "MTK3238:33NF62TLXK9DV0T2ZZJSXKEANUZJKJ", "dateTime": 1520276645714}, {"current_trial": 117, "trialdata": {"rt": [2676, 5523, 7498, 12515, 14291, 16290, 18595, 21180, 22763], "trial_type": "math-distractor", "key_times": [2253, 2364, 2676, 5061, 5252, 5523, 7363, 7498, 12341, 12398, 12515, 13869, 14157, 14291, 15796, 16132, 16290, 17549, 17725, 18180, 18357, 18595, 20637, 20926, 21180, 22268, 22534, 22763], "responses": ["16", "19", "9", "21", "15", "18", "13", "17", "18"], "num2": [5, 8, 2, 5, 7, 4, 2, 8, 8, 3], "num3": [9, 4, 2, 7, 4, 6, 6, 6, 1, 9], "conditions": [12, 800, "v", 24000], "internal_node_id": "0.0-90.0", "key_presses": [49, 54, 13, 49, 57, 13, 57, 13, 50, 49, 13, 49, 53, 13, 49, 56, 13, 49, 50, 8, 51, 13, 49, 55, 13, 49, 56, 13], "trial": 3, "time_elapsed": 642559, "type": "DISTRACTOR", "trial_index": 117, "num1": [2, 7, 5, 9, 4, 8, 5, 3, 9, 7]}, "uniqueid": "MTK3238:33NF62TLXK9DV0T2ZZJSXKEANUZJKJ", "dateTime": 1520276671719}, {"current_trial": 118, "trialdata": {"rt": -1, "trial_type": "single-stim", "stimulus": "<p id=\"stim\">10</p>", "internal_node_id": "0.0-91.0-0.0", "time_elapsed": 645564, "key_press": -1, "trial_index": 118}, "uniqueid": "MTK3238:33NF62TLXK9DV0T2ZZJSXKEANUZJKJ", "dateTime": 1520276674722}, {"current_trial": 119, "trialdata": {"rt": -1, "trial_type": "single-stim", "stimulus": "<p id=\"stim\">9</p>", "internal_node_id": "0.0-91.0-1.0", "time_elapsed": 646566, "key_press": -1, "trial_index": 119}, "uniqueid": "MTK3238:33NF62TLXK9DV0T2ZZJSXKEANUZJKJ", "dateTime": 1520276675724}, {"current_trial": 120, "trialdata": {"rt": -1, "trial_type": "single-stim", "stimulus": "<p id=\"stim\">8</p>", "internal_node_id": "0.0-91.0-2.0", "time_elapsed": 647569, "key_press": -1, "trial_index": 120}, "uniqueid": "MTK3238:33NF62TLXK9DV0T2ZZJSXKEANUZJKJ", "dateTime": 1520276676727}, {"current_trial": 121, "trialdata": {"rt": -1, "trial_type": "single-stim", "stimulus": "<p id=\"stim\">7</p>", "internal_node_id": "0.0-91.0-3.0", "time_elapsed": 648572, "key_press": -1, "trial_index": 121}, "uniqueid": "MTK3238:33NF62TLXK9DV0T2ZZJSXKEANUZJKJ", "dateTime": 1520276677730}, {"current_trial": 122, "trialdata": {"rt": -1, "trial_type": "single-stim", "stimulus": "<p id=\"stim\">6</p>", "internal_node_id": "0.0-91.0-4.0", "time_elapsed": 649573, "key_press": -1, "trial_index": 122}, "uniqueid": "MTK3238:33NF62TLXK9DV0T2ZZJSXKEANUZJKJ", "dateTime": 1520276678731}, {"current_trial": 123, "trialdata": {"rt": -1, "trial_type": "single-stim", "stimulus": "<p id=\"stim\">5</p>", "internal_node_id": "0.0-91.0-5.0", "time_elapsed": 650575, "key_press": -1, "trial_index": 123}, "uniqueid": "MTK3238:33NF62TLXK9DV0T2ZZJSXKEANUZJKJ", "dateTime": 1520276679733}, {"current_trial": 124, "trialdata": {"rt": -1, "trial_type": "single-stim", "stimulus": "<p id=\"stim\">4</p>", "internal_node_id": "0.0-91.0-6.0", "time_elapsed": 651577, "key_press": -1, "trial_index": 124}, "uniqueid": "MTK3238:33NF62TLXK9DV0T2ZZJSXKEANUZJKJ", "dateTime": 1520276680735}, {"current_trial": 125, "trialdata": {"rt": -1, "trial_type": "single-stim", "stimulus": "<p id=\"stim\">3</p>", "internal_node_id": "0.0-91.0-7.0", "time_elapsed": 652578, "key_press": -1, "trial_index": 125}, "uniqueid": "MTK3238:33NF62TLXK9DV0T2ZZJSXKEANUZJKJ", "dateTime": 1520276681737}, {"current_trial": 126, "trialdata": {"rt": -1, "trial_type": "single-stim", "stimulus": "<p id=\"stim\">2</p>", "internal_node_id": "0.0-91.0-8.0", "time_elapsed": 653581, "key_press": -1, "trial_index": 126}, "uniqueid": "MTK3238:33NF62TLXK9DV0T2ZZJSXKEANUZJKJ", "dateTime": 1520276682739}, {"current_trial": 127, "trialdata": {"rt": -1, "trial_type": "single-stim", "stimulus": "<p id=\"stim\">1</p>", "internal_node_id": "0.0-91.0-9.0", "time_elapsed": 654582, "key_press": -1, "trial_index": 127}, "uniqueid": "MTK3238:33NF62TLXK9DV0T2ZZJSXKEANUZJKJ", "dateTime": 1520276683740}, {"current_trial": 128, "trialdata": {"rt": -1, "trial_type": "single-stim", "stimulus": "<p id=\"stim\">+</p>", "internal_node_id": "0.0-92.0-0.0", "time_elapsed": 656084, "key_press": -1, "type": "FIXATION", "trial_index": 128}, "uniqueid": "MTK3238:33NF62TLXK9DV0T2ZZJSXKEANUZJKJ", "dateTime": 1520276685242}, {"current_trial": 129, "trialdata": {"rt": -1, "trial_type": "single-stim", "word": "fungus", "stimulus": "<p id=\"stim\">FUNGUS</p>", "conditions": [12, 800, "v", 24000], "internal_node_id": "0.0-93.0", "trial": 3, "time_elapsed": 656886, "serialpos": 0, "key_press": -1, "wordID": 613, "type": "PRES_VIS", "trial_index": 129}, "uniqueid": "MTK3238:33NF62TLXK9DV0T2ZZJSXKEANUZJKJ", "dateTime": 1520276686044}, {"current_trial": 130, "trialdata": {"rt": -1, "trial_type": "single-stim", "word": "backbone", "stimulus": "<p id=\"stim\">BACKBONE</p>", "conditions": [12, 800, "v", 24000], "internal_node_id": "0.0-94.0", "trial": 3, "time_elapsed": 658581, "serialpos": 1, "key_press": -1, "wordID": 65, "type": "PRES_VIS", "trial_index": 130}, "uniqueid": "MTK3238:33NF62TLXK9DV0T2ZZJSXKEANUZJKJ", "dateTime": 1520276687739}, {"current_trial": 131, "trialdata": {"rt": -1, "trial_type": "single-stim", "word": "arm", "stimulus": "<p id=\"stim\">ARM</p>", "conditions": [12, 800, "v", 24000], "internal_node_id": "0.0-95.0", "trial": 3, "time_elapsed": 660537, "serialpos": 2, "key_press": -1, "wordID": 37, "type": "PRES_VIS", "trial_index": 131}, "uniqueid": "MTK3238:33NF62TLXK9DV0T2ZZJSXKEANUZJKJ", "dateTime": 1520276689695}, {"current_trial": 132, "trialdata": {"rt": -1, "trial_type": "single-stim", "word": "beast", "stimulus": "<p id=\"stim\">BEAST</p>", "conditions": [12, 800, "v", 24000], "internal_node_id": "0.0-96.0", "trial": 3, "time_elapsed": 662162, "serialpos": 3, "key_press": -1, "wordID": 107, "type": "PRES_VIS", "trial_index": 132}, "uniqueid": "MTK3238:33NF62TLXK9DV0T2ZZJSXKEANUZJKJ", "dateTime": 1520276691320}, {"current_trial": 133, "trialdata": {"rt": -1, "trial_type": "single-stim", "word": "portrait", "stimulus": "<p id=\"stim\">PORTRAIT</p>", "conditions": [12, 800, "v", 24000], "internal_node_id": "0.0-97.0", "trial": 3, "time_elapsed": 664001, "serialpos": 4, "key_press": -1, "wordID": 1110, "type": "PRES_VIS", "trial_index": 133}, "uniqueid": "MTK3238:33NF62TLXK9DV0T2ZZJSXKEANUZJKJ", "dateTime": 1520276693159}, {"current_trial": 134, "trialdata": {"rt": -1, "trial_type": "single-stim", "word": "picture", "stimulus": "<p id=\"stim\">PICTURE</p>", "conditions": [12, 800, "v", 24000], "internal_node_id": "0.0-98.0", "trial": 3, "time_elapsed": 665968, "serialpos": 5, "key_press": -1, "wordID": 1060, "type": "PRES_VIS", "trial_index": 134}, "uniqueid": "MTK3238:33NF62TLXK9DV0T2ZZJSXKEANUZJKJ", "dateTime": 1520276695127}, {"current_trial": 135, "trialdata": {"rt": -1, "trial_type": "single-stim", "word": "creature", "stimulus": "<p id=\"stim\">CREATURE</p>", "conditions": [12, 800, "v", 24000], "internal_node_id": "0.0-99.0", "trial": 3, "time_elapsed": 667915, "serialpos": 6, "key_press": -1, "wordID": 402, "type": "PRES_VIS", "trial_index": 135}, "uniqueid": "MTK3238:33NF62TLXK9DV0T2ZZJSXKEANUZJKJ", "dateTime": 1520276697073}, {"current_trial": 136, "trialdata": {"rt": -1, "trial_type": "single-stim", "word": "suitcase", "stimulus": "<p id=\"stim\">SUITCASE</p>", "conditions": [12, 800, "v", 24000], "internal_node_id": "0.0-100.0", "trial": 3, "time_elapsed": 669634, "serialpos": 7, "key_press": -1, "wordID": 1402, "type": "PRES_VIS", "trial_index": 136}, "uniqueid": "MTK3238:33NF62TLXK9DV0T2ZZJSXKEANUZJKJ", "dateTime": 1520276698792}, {"current_trial": 137, "trialdata": {"rt": -1, "trial_type": "single-stim", "word": "fragrance", "stimulus": "<p id=\"stim\">FRAGRANCE</p>", "conditions": [12, 800, "v", 24000], "internal_node_id": "0.0-101.0", "trial": 3, "time_elapsed": 671586, "serialpos": 8, "key_press": -1, "wordID": 598, "type": "PRES_VIS", "trial_index": 137}, "uniqueid": "MTK3238:33NF62TLXK9DV0T2ZZJSXKEANUZJKJ", "dateTime": 1520276700744}, {"current_trial": 138, "trialdata": {"rt": -1, "trial_type": "single-stim", "word": "county", "stimulus": "<p id=\"stim\">COUNTY</p>", "conditions": [12, 800, "v", 24000], "internal_node_id": "0.0-102.0", "trial": 3, "time_elapsed": 673344, "serialpos": 9, "key_press": -1, "wordID": 388, "type": "PRES_VIS", "trial_index": 138}, "uniqueid": "MTK3238:33NF62TLXK9DV0T2ZZJSXKEANUZJKJ", "dateTime": 1520276702502}, {"current_trial": 139, "trialdata": {"rt": -1, "trial_type": "single-stim", "word": "oyster", "stimulus": "<p id=\"stim\">OYSTER</p>", "conditions": [12, 800, "v", 24000], "internal_node_id": "0.0-103.0", "trial": 3, "time_elapsed": 675054, "serialpos": 10, "key_press": -1, "wordID": 994, "type": "PRES_VIS", "trial_index": 139}, "uniqueid": "MTK3238:33NF62TLXK9DV0T2ZZJSXKEANUZJKJ", "dateTime": 1520276704212}, {"current_trial": 140, "trialdata": {"rt": -1, "trial_type": "single-stim", "word": "message", "stimulus": "<p id=\"stim\">MESSAGE</p>", "conditions": [12, 800, "v", 24000], "internal_node_id": "0.0-104.0", "trial": 3, "time_elapsed": 676859, "serialpos": 11, "key_press": -1, "wordID": 887, "type": "PRES_VIS", "trial_index": 140}, "uniqueid": "MTK3238:33NF62TLXK9DV0T2ZZJSXKEANUZJKJ", "dateTime": 1520276706017}, {"current_trial": 141, "trialdata": {"rt": -1, "trial_type": "single-stim", "stimulus": "", "internal_node_id": "0.0-105.0-0.0", "time_elapsed": 679034, "key_press": -1, "type": "PRE_RECALL_DELAY", "trial_index": 141}, "uniqueid": "MTK3238:33NF62TLXK9DV0T2ZZJSXKEANUZJKJ", "dateTime": 1520276708193}, {"current_trial": 142, "trialdata": {"rt": -1000, "trial_type": "single-audio", "stimulus": "/static/audio/400Hz.wav", "internal_node_id": "0.0-106.0", "time_elapsed": 679537, "key_press": -1, "type": "PRE_RECALL_ALERT", "trial_index": 142}, "uniqueid": "MTK3238:33NF62TLXK9DV0T2ZZJSXKEANUZJKJ", "dateTime": 1520276708695}, {"current_trial": 143, "trialdata": {"rt": [4951, 8086, 10574, 13486], "recwords": ["backbone", "message", "beast", "fungus"], "key_times": [2007, 2126, 2272, 2535, 2816, 3016, 3223, 3326, 4951, 6999, 7175, 7391, 7558, 7662, 7799, 7902, 8086, 9566, 9711, 9879, 9926, 10071, 10574, 11912, 12081, 12286, 12470, 12615, 12712, 13486], "trial_type": "free-recall", "conditions": [12, 800, "v", 24000], "internal_node_id": "0.0-107.0-0.0", "key_presses": [66, 65, 67, 75, 66, 79, 78, 69, 13, 77, 69, 83, 83, 65, 71, 69, 13, 66, 69, 65, 83, 84, 13, 70, 85, 78, 71, 85, 83, 13], "trial": 3, "time_elapsed": 739541, "type": "FREE_RECALL", "trial_index": 143}, "uniqueid": "MTK3238:33NF62TLXK9DV0T2ZZJSXKEANUZJKJ", "dateTime": 1520276768703}, {"current_trial": 144, "trialdata": {"rt": 1706, "trial_type": "text", "internal_node_id": "0.0-108.0", "time_elapsed": 743252, "key_press": 32, "type": "INSTRUCTIONS", "trial_index": 144}, "uniqueid": "MTK3238:33NF62TLXK9DV0T2ZZJSXKEANUZJKJ", "dateTime": 1520276772410}, {"current_trial": 145, "trialdata": {"rt": [2516, 6507, 8276, 9996, 11651], "trial_type": "math-distractor", "key_times": [2181, 2284, 2516, 6172, 6373, 6507, 7941, 8133, 8276, 9644, 9843, 9996, 11380, 11437, 11651], "responses": ["17", "25", "13", "13", "12"], "num2": [1, 8, 5, 5, 8, 5], "num3": [9, 9, 4, 6, 1, 9], "conditions": [24, 1600, "v", 12000], "internal_node_id": "0.0-109.0", "key_presses": [49, 55, 13, 50, 53, 13, 49, 51, 13, 49, 51, 13, 49, 50, 13], "trial": 4, "time_elapsed": 757256, "type": "DISTRACTOR", "trial_index": 145, "num1": [7, 8, 4, 2, 3, 3]}, "uniqueid": "MTK3238:33NF62TLXK9DV0T2ZZJSXKEANUZJKJ", "dateTime": 1520276786414}, {"current_trial": 146, "trialdata": {"rt": -1, "trial_type": "single-stim", "stimulus": "<p id=\"stim\">10</p>", "internal_node_id": "0.0-110.0-0.0", "time_elapsed": 760259, "key_press": -1, "trial_index": 146}, "uniqueid": "MTK3238:33NF62TLXK9DV0T2ZZJSXKEANUZJKJ", "dateTime": 1520276789417}, {"current_trial": 147, "trialdata": {"rt": -1, "trial_type": "single-stim", "stimulus": "<p id=\"stim\">9</p>", "internal_node_id": "0.0-110.0-1.0", "time_elapsed": 761260, "key_press": -1, "trial_index": 147}, "uniqueid": "MTK3238:33NF62TLXK9DV0T2ZZJSXKEANUZJKJ", "dateTime": 1520276790419}, {"current_trial": 148, "trialdata": {"rt": -1, "trial_type": "single-stim", "stimulus": "<p id=\"stim\">8</p>", "internal_node_id": "0.0-110.0-2.0", "time_elapsed": 762262, "key_press": -1, "trial_index": 148}, "uniqueid": "MTK3238:33NF62TLXK9DV0T2ZZJSXKEANUZJKJ", "dateTime": 1520276791420}, {"current_trial": 149, "trialdata": {"rt": -1, "trial_type": "single-stim", "stimulus": "<p id=\"stim\">7</p>", "internal_node_id": "0.0-110.0-3.0", "time_elapsed": 763263, "key_press": -1, "trial_index": 149}, "uniqueid": "MTK3238:33NF62TLXK9DV0T2ZZJSXKEANUZJKJ", "dateTime": 1520276792421}, {"current_trial": 150, "trialdata": {"rt": -1, "trial_type": "single-stim", "stimulus": "<p id=\"stim\">6</p>", "internal_node_id": "0.0-110.0-4.0", "time_elapsed": 764265, "key_press": -1, "trial_index": 150}, "uniqueid": "MTK3238:33NF62TLXK9DV0T2ZZJSXKEANUZJKJ", "dateTime": 1520276793425}, {"current_trial": 151, "trialdata": {"rt": -1, "trial_type": "single-stim", "stimulus": "<p id=\"stim\">5</p>", "internal_node_id": "0.0-110.0-5.0", "time_elapsed": 765268, "key_press": -1, "trial_index": 151}, "uniqueid": "MTK3238:33NF62TLXK9DV0T2ZZJSXKEANUZJKJ", "dateTime": 1520276794426}, {"current_trial": 152, "trialdata": {"rt": -1, "trial_type": "single-stim", "stimulus": "<p id=\"stim\">4</p>", "internal_node_id": "0.0-110.0-6.0", "time_elapsed": 766271, "key_press": -1, "trial_index": 152}, "uniqueid": "MTK3238:33NF62TLXK9DV0T2ZZJSXKEANUZJKJ", "dateTime": 1520276795429}, {"current_trial": 153, "trialdata": {"rt": -1, "trial_type": "single-stim", "stimulus": "<p id=\"stim\">3</p>", "internal_node_id": "0.0-110.0-7.0", "time_elapsed": 767272, "key_press": -1, "trial_index": 153}, "uniqueid": "MTK3238:33NF62TLXK9DV0T2ZZJSXKEANUZJKJ", "dateTime": 1520276796430}, {"current_trial": 154, "trialdata": {"rt": -1, "trial_type": "single-stim", "stimulus": "<p id=\"stim\">2</p>", "internal_node_id": "0.0-110.0-8.0", "time_elapsed": 768274, "key_press": -1, "trial_index": 154}, "uniqueid": "MTK3238:33NF62TLXK9DV0T2ZZJSXKEANUZJKJ", "dateTime": 1520276797432}, {"current_trial": 155, "trialdata": {"rt": -1, "trial_type": "single-stim", "stimulus": "<p id=\"stim\">1</p>", "internal_node_id": "0.0-110.0-9.0", "time_elapsed": 769275, "key_press": -1, "trial_index": 155}, "uniqueid": "MTK3238:33NF62TLXK9DV0T2ZZJSXKEANUZJKJ", "dateTime": 1520276798433}, {"current_trial": 156, "trialdata": {"rt": -1, "trial_type": "single-stim", "stimulus": "<p id=\"stim\">+</p>", "internal_node_id": "0.0-111.0-0.0", "time_elapsed": 770778, "key_press": -1, "type": "FIXATION", "trial_index": 156}, "uniqueid": "MTK3238:33NF62TLXK9DV0T2ZZJSXKEANUZJKJ", "dateTime": 1520276799936}, {"current_trial": 157, "trialdata": {"rt": -1, "trial_type": "single-stim", "word": "poet", "stimulus": "<p id=\"stim\">POET</p>", "conditions": [24, 1600, "v", 12000], "internal_node_id": "0.0-112.0", "trial": 4, "time_elapsed": 772380, "serialpos": 0, "key_press": -1, "wordID": 1094, "type": "PRES_VIS", "trial_index": 157}, "uniqueid": "MTK3238:33NF62TLXK9DV0T2ZZJSXKEANUZJKJ", "dateTime": 1520276801538}, {"current_trial": 158, "trialdata": {"rt": -1, "trial_type": "single-stim", "word": "gavel", "stimulus": "<p id=\"stim\">GAVEL</p>", "conditions": [24, 1600, "v", 12000], "internal_node_id": "0.0-113.0", "trial": 4, "time_elapsed": 774948, "serialpos": 1, "key_press": -1, "wordID": 626, "type": "PRES_VIS", "trial_index": 158}, "uniqueid": "MTK3238:33NF62TLXK9DV0T2ZZJSXKEANUZJKJ", "dateTime": 1520276804106}, {"current_trial": 159, "trialdata": {"rt": -1, "trial_type": "single-stim", "word": "neutron", "stimulus": "<p id=\"stim\">NEUTRON</p>", "conditions": [24, 1600, "v", 12000], "internal_node_id": "0.0-114.0", "trial": 4, "time_elapsed": 777706, "serialpos": 2, "key_press": -1, "wordID": 946, "type": "PRES_VIS", "trial_index": 159}, "uniqueid": "MTK3238:33NF62TLXK9DV0T2ZZJSXKEANUZJKJ", "dateTime": 1520276806864}, {"current_trial": 160, "trialdata": {"rt": -1, "trial_type": "single-stim", "word": "bathtub", "stimulus": "<p id=\"stim\">BATHTUB</p>", "conditions": [24, 1600, "v", 12000], "internal_node_id": "0.0-115.0", "trial": 4, "time_elapsed": 780424, "serialpos": 3, "key_press": -1, "wordID": 99, "type": "PRES_VIS", "trial_index": 160}, "uniqueid": "MTK3238:33NF62TLXK9DV0T2ZZJSXKEANUZJKJ", "dateTime": 1520276809582}, {"current_trial": 161, "trialdata": {"rt": -1, "trial_type": "single-stim", "word": "boyfriend", "stimulus": "<p id=\"stim\">BOYFRIEND</p>", "conditions": [24, 1600, "v", 12000], "internal_node_id": "0.0-116.0", "trial": 4, "time_elapsed": 783105, "serialpos": 4, "key_press": -1, "wordID": 161, "type": "PRES_VIS", "trial_index": 161}, "uniqueid": "MTK3238:33NF62TLXK9DV0T2ZZJSXKEANUZJKJ", "dateTime": 1520276812264}, {"current_trial": 162, "trialdata": {"rt": -1, "trial_type": "single-stim", "word": "agent", "stimulus": "<p id=\"stim\">AGENT</p>", "conditions": [24, 1600, "v", 12000], "internal_node_id": "0.0-117.0", "trial": 4, "time_elapsed": 785821, "serialpos": 5, "key_press": -1, "wordID": 9, "type": "PRES_VIS", "trial_index": 162}, "uniqueid": "MTK3238:33NF62TLXK9DV0T2ZZJSXKEANUZJKJ", "dateTime": 1520276814979}, {"current_trial": 163, "trialdata": {"rt": -1, "trial_type": "single-stim", "word": "actor", "stimulus": "<p id=\"stim\">ACTOR</p>", "conditions": [24, 1600, "v", 12000], "internal_node_id": "0.0-118.0", "trial": 4, "time_elapsed": 788287, "serialpos": 6, "key_press": -1, "wordID": 4, "type": "PRES_VIS", "trial_index": 163}, "uniqueid": "MTK3238:33NF62TLXK9DV0T2ZZJSXKEANUZJKJ", "dateTime": 1520276817445}, {"current_trial": 164, "trialdata": {"rt": -1, "trial_type": "single-stim", "word": "crevice", "stimulus": "<p id=\"stim\">CREVICE</p>", "conditions": [24, 1600, "v", 12000], "internal_node_id": "0.0-119.0", "trial": 4, "time_elapsed": 791059, "serialpos": 7, "key_press": -1, "wordID": 404, "type": "PRES_VIS", "trial_index": 164}, "uniqueid": "MTK3238:33NF62TLXK9DV0T2ZZJSXKEANUZJKJ", "dateTime": 1520276820217}, {"current_trial": 165, "trialdata": {"rt": -1, "trial_type": "single-stim", "word": "skillet", "stimulus": "<p id=\"stim\">SKILLET</p>", "conditions": [24, 1600, "v", 12000], "internal_node_id": "0.0-120.0", "trial": 4, "time_elapsed": 793554, "serialpos": 8, "key_press": -1, "wordID": 1316, "type": "PRES_VIS", "trial_index": 165}, "uniqueid": "MTK3238:33NF62TLXK9DV0T2ZZJSXKEANUZJKJ", "dateTime": 1520276822712}, {"current_trial": 166, "trialdata": {"rt": -1, "trial_type": "single-stim", "word": "film", "stimulus": "<p id=\"stim\">FILM</p>", "conditions": [24, 1600, "v", 12000], "internal_node_id": "0.0-121.0", "trial": 4, "time_elapsed": 796083, "serialpos": 9, "key_press": -1, "wordID": 564, "type": "PRES_VIS", "trial_index": 166}, "uniqueid": "MTK3238:33NF62TLXK9DV0T2ZZJSXKEANUZJKJ", "dateTime": 1520276825241}, {"current_trial": 167, "trialdata": {"rt": -1, "trial_type": "single-stim", "word": "plaid", "stimulus": "<p id=\"stim\">PLAID</p>", "conditions": [24, 1600, "v", 12000], "internal_node_id": "0.0-122.0", "trial": 4, "time_elapsed": 798678, "serialpos": 10, "key_press": -1, "wordID": 1079, "type": "PRES_VIS", "trial_index": 167}, "uniqueid": "MTK3238:33NF62TLXK9DV0T2ZZJSXKEANUZJKJ", "dateTime": 1520276827836}, {"current_trial": 168, "trialdata": {"rt": -1, "trial_type": "single-stim", "word": "velvet", "stimulus": "<p id=\"stim\">VELVET</p>", "conditions": [24, 1600, "v", 12000], "internal_node_id": "0.0-123.0", "trial": 4, "time_elapsed": 801423, "serialpos": 11, "key_press": -1, "wordID": 1554, "type": "PRES_VIS", "trial_index": 168}, "uniqueid": "MTK3238:33NF62TLXK9DV0T2ZZJSXKEANUZJKJ", "dateTime": 1520276830581}, {"current_trial": 169, "trialdata": {"rt": -1, "trial_type": "single-stim", "word": "slide", "stimulus": "<p id=\"stim\">SLIDE</p>", "conditions": [24, 1600, "v", 12000], "internal_node_id": "0.0-124.0", "trial": 4, "time_elapsed": 803872, "serialpos": 12, "key_press": -1, "wordID": 1325, "type": "PRES_VIS", "trial_index": 169}, "uniqueid": "MTK3238:33NF62TLXK9DV0T2ZZJSXKEANUZJKJ", "dateTime": 1520276833030}, {"current_trial": 170, "trialdata": {"rt": -1, "trial_type": "single-stim", "word": "sidewalk", "stimulus": "<p id=\"stim\">SIDEWALK</p>", "conditions": [24, 1600, "v", 12000], "internal_node_id": "0.0-125.0", "trial": 4, "time_elapsed": 806581, "serialpos": 13, "key_press": -1, "wordID": 1302, "type": "PRES_VIS", "trial_index": 170}, "uniqueid": "MTK3238:33NF62TLXK9DV0T2ZZJSXKEANUZJKJ", "dateTime": 1520276835739}, {"current_trial": 171, "trialdata": {"rt": -1, "trial_type": "single-stim", "word": "lunch", "stimulus": "<p id=\"stim\">LUNCH</p>", "conditions": [24, 1600, "v", 12000], "internal_node_id": "0.0-126.0", "trial": 4, "time_elapsed": 809303, "serialpos": 14, "key_press": -1, "wordID": 848, "type": "PRES_VIS", "trial_index": 171}, "uniqueid": "MTK3238:33NF62TLXK9DV0T2ZZJSXKEANUZJKJ", "dateTime": 1520276838461}, {"current_trial": 172, "trialdata": {"rt": -1, "trial_type": "single-stim", "word": "seafood", "stimulus": "<p id=\"stim\">SEAFOOD</p>", "conditions": [24, 1600, "v", 12000], "internal_node_id": "0.0-127.0", "trial": 4, "time_elapsed": 811869, "serialpos": 15, "key_press": -1, "wordID": 1259, "type": "PRES_VIS", "trial_index": 172}, "uniqueid": "MTK3238:33NF62TLXK9DV0T2ZZJSXKEANUZJKJ", "dateTime": 1520276841028}, {"current_trial": 173, "trialdata": {"rt": -1, "trial_type": "single-stim", "word": "pork", "stimulus": "<p id=\"stim\">PORK</p>", "conditions": [24, 1600, "v", 12000], "internal_node_id": "0.0-128.0", "trial": 4, "time_elapsed": 814481, "serialpos": 16, "key_press": -1, "wordID": 1107, "type": "PRES_VIS", "trial_index": 173}, "uniqueid": "MTK3238:33NF62TLXK9DV0T2ZZJSXKEANUZJKJ", "dateTime": 1520276843639}, {"current_trial": 174, "trialdata": {"rt": -1, "trial_type": "single-stim", "word": "princess", "stimulus": "<p id=\"stim\">PRINCESS</p>", "conditions": [24, 1600, "v", 12000], "internal_node_id": "0.0-129.0", "trial": 4, "time_elapsed": 817123, "serialpos": 17, "key_press": -1, "wordID": 1124, "type": "PRES_VIS", "trial_index": 174}, "uniqueid": "MTK3238:33NF62TLXK9DV0T2ZZJSXKEANUZJKJ", "dateTime": 1520276846281}, {"current_trial": 175, "trialdata": {"rt": -1, "trial_type": "single-stim", "word": "window", "stimulus": "<p id=\"stim\">WINDOW</p>", "conditions": [24, 1600, "v", 12000], "internal_node_id": "0.0-130.0", "trial": 4, "time_elapsed": 819583, "serialpos": 18, "key_press": -1, "wordID": 1610, "type": "PRES_VIS", "trial_index": 175}, "uniqueid": "MTK3238:33NF62TLXK9DV0T2ZZJSXKEANUZJKJ", "dateTime": 1520276848741}, {"current_trial": 176, "trialdata": {"rt": -1, "trial_type": "single-stim", "word": "blueprint", "stimulus": "<p id=\"stim\">BLUEPRINT</p>", "conditions": [24, 1600, "v", 12000], "internal_node_id": "0.0-131.0", "trial": 4, "time_elapsed": 822192, "serialpos": 19, "key_press": -1, "wordID": 141, "type": "PRES_VIS", "trial_index": 176}, "uniqueid": "MTK3238:33NF62TLXK9DV0T2ZZJSXKEANUZJKJ", "dateTime": 1520276851351}, {"current_trial": 177, "trialdata": {"rt": -1, "trial_type": "single-stim", "word": "lightning", "stimulus": "<p id=\"stim\">LIGHTNING</p>", "conditions": [24, 1600, "v", 12000], "internal_node_id": "0.0-132.0", "trial": 4, "time_elapsed": 824902, "serialpos": 20, "key_press": -1, "wordID": 819, "type": "PRES_VIS", "trial_index": 177}, "uniqueid": "MTK3238:33NF62TLXK9DV0T2ZZJSXKEANUZJKJ", "dateTime": 1520276854060}, {"current_trial": 178, "trialdata": {"rt": -1, "trial_type": "single-stim", "word": "critic", "stimulus": "<p id=\"stim\">CRITIC</p>", "conditions": [24, 1600, "v", 12000], "internal_node_id": "0.0-133.0", "trial": 4, "time_elapsed": 827441, "serialpos": 21, "key_press": -1, "wordID": 409, "type": "PRES_VIS", "trial_index": 178}, "uniqueid": "MTK3238:33NF62TLXK9DV0T2ZZJSXKEANUZJKJ", "dateTime": 1520276856599}, {"current_trial": 179, "trialdata": {"rt": -1, "trial_type": "single-stim", "word": "girl", "stimulus": "<p id=\"stim\">GIRL</p>", "conditions": [24, 1600, "v", 12000], "internal_node_id": "0.0-134.0", "trial": 4, "time_elapsed": 830132, "serialpos": 22, "key_press": -1, "wordID": 636, "type": "PRES_VIS", "trial_index": 179}, "uniqueid": "MTK3238:33NF62TLXK9DV0T2ZZJSXKEANUZJKJ", "dateTime": 1520276859290}, {"current_trial": 180, "trialdata": {"rt": -1, "trial_type": "single-stim", "word": "crutch", "stimulus": "<p id=\"stim\">CRUTCH</p>", "conditions": [24, 1600, "v", 12000], "internal_node_id": "0.0-135.0", "trial": 4, "time_elapsed": 832575, "serialpos": 23, "key_press": -1, "wordID": 416, "type": "PRES_VIS", "trial_index": 180}, "uniqueid": "MTK3238:33NF62TLXK9DV0T2ZZJSXKEANUZJKJ", "dateTime": 1520276861733}, {"current_trial": 181, "trialdata": {"rt": -1, "trial_type": "single-stim", "stimulus": "", "internal_node_id": "0.0-136.0-0.0", "time_elapsed": 835006, "key_press": -1, "type": "PRE_RECALL_DELAY", "trial_index": 181}, "uniqueid": "MTK3238:33NF62TLXK9DV0T2ZZJSXKEANUZJKJ", "dateTime": 1520276864165}, {"current_trial": 182, "trialdata": {"rt": -1000, "trial_type": "single-audio", "stimulus": "/static/audio/400Hz.wav", "internal_node_id": "0.0-137.0", "time_elapsed": 835509, "key_press": -1, "type": "PRE_RECALL_ALERT", "trial_index": 182}, "uniqueid": "MTK3238:33NF62TLXK9DV0T2ZZJSXKEANUZJKJ", "dateTime": 1520276864667}, {"current_trial": 183, "trialdata": {"rt": [2995, 4338, 6771, 8906, 13826, 16643, 18906, 22674, 25906, 30163], "recwords": ["crutch", "girl", "plaid", "velvet", "pork", "seafood", "lunch", "bathtub", "agent", "boyfriend"], "key_times": [1445, 1700, 1906, 2155, 2315, 2451, 2995, 3602, 3811, 3946, 4098, 4338, 4986, 5146, 5459, 5587, 5803, 6771, 7891, 8042, 8259, 8410, 8538, 8707, 8906, 12547, 12683, 13363, 13507, 13826, 14691, 14987, 15410, 15771, 15979, 16139, 16306, 16643, 17491, 17786, 18010, 18173, 18380, 18906, 20251, 20427, 20603, 20843, 21491, 21618, 21804, 22674, 23939, 24139, 24325, 24573, 24812, 25906, 27091, 27363, 27691, 28338, 28547, 28723, 28859, 29075, 29165, 30163], "trial_type": "free-recall", "conditions": [24, 1600, "v", 12000], "internal_node_id": "0.0-138.0-0.0", "key_presses": [67, 82, 85, 84, 67, 72, 13, 71, 73, 82, 76, 13, 80, 76, 65, 73, 68, 13, 86, 69, 76, 86, 69, 84, 13, 80, 79, 82, 75, 13, 83, 69, 65, 70, 79, 79, 68, 13, 76, 85, 78, 67, 72, 13, 66, 65, 84, 72, 84, 85, 66, 13, 65, 71, 69, 78, 84, 13, 66, 79, 89, 70, 82, 73, 69, 78, 68, 13], "trial": 4, "time_elapsed": 895512, "type": "FREE_RECALL", "trial_index": 183}, "uniqueid": "MTK3238:33NF62TLXK9DV0T2ZZJSXKEANUZJKJ", "dateTime": 1520276924675}, {"current_trial": 184, "trialdata": {"rt": 2265, "trial_type": "text", "internal_node_id": "0.0-139.0", "time_elapsed": 899786, "key_press": 32, "type": "INSTRUCTIONS", "trial_index": 184}, "uniqueid": "MTK3238:33NF62TLXK9DV0T2ZZJSXKEANUZJKJ", "dateTime": 1520276928944}, {"current_trial": 185, "trialdata": {"rt": [1805, 3182, 5229, 6798, 8581, 10134, 11908, 13469, 14701, 16285, 18301, 20861, 22622], "trial_type": "math-distractor", "key_times": [1534, 1582, 1805, 2966, 3022, 3182, 5037, 5109, 5229, 6503, 6639, 6798, 8132, 8414, 8581, 9997, 10134, 11342, 11671, 11908, 13150, 13359, 13469, 14463, 14607, 14701, 15879, 16159, 16285, 17998, 18166, 18301, 20487, 20623, 20861, 22239, 22414, 22622], "responses": ["12", "12", "21", "13", "16", "9", "19", "14", "11", "15", "13", "18", "19"], "num2": [9, 7, 4, 3, 1, 2, 5, 4, 9, 8, 4, 7, 4, 8], "num3": [1, 2, 9, 1, 9, 5, 8, 5, 1, 5, 2, 9, 8, 4], "conditions": [24, 800, "v", 24000], "internal_node_id": "0.0-140.0", "key_presses": [49, 50, 13, 49, 50, 13, 50, 49, 13, 49, 51, 13, 49, 54, 13, 57, 13, 49, 57, 13, 49, 52, 13, 49, 49, 13, 49, 53, 13, 49, 51, 13, 49, 56, 13, 49, 57, 13], "trial": 5, "time_elapsed": 925789, "type": "DISTRACTOR", "trial_index": 185, "num1": [2, 3, 8, 9, 6, 2, 6, 5, 1, 2, 7, 2, 7, 1]}, "uniqueid": "MTK3238:33NF62TLXK9DV0T2ZZJSXKEANUZJKJ", "dateTime": 1520276954948}, {"current_trial": 186, "trialdata": {"rt": -1, "trial_type": "single-stim", "stimulus": "<p id=\"stim\">10</p>", "internal_node_id": "0.0-141.0-0.0", "time_elapsed": 928793, "key_press": -1, "trial_index": 186}, "uniqueid": "MTK3238:33NF62TLXK9DV0T2ZZJSXKEANUZJKJ", "dateTime": 1520276957951}, {"current_trial": 187, "trialdata": {"rt": -1, "trial_type": "single-stim", "stimulus": "<p id=\"stim\">9</p>", "internal_node_id": "0.0-141.0-1.0", "time_elapsed": 929796, "key_press": -1, "trial_index": 187}, "uniqueid": "MTK3238:33NF62TLXK9DV0T2ZZJSXKEANUZJKJ", "dateTime": 1520276958954}, {"current_trial": 188, "trialdata": {"rt": -1, "trial_type": "single-stim", "stimulus": "<p id=\"stim\">8</p>", "internal_node_id": "0.0-141.0-2.0", "time_elapsed": 930798, "key_press": -1, "trial_index": 188}, "uniqueid": "MTK3238:33NF62TLXK9DV0T2ZZJSXKEANUZJKJ", "dateTime": 1520276959956}, {"current_trial": 189, "trialdata": {"rt": -1, "trial_type": "single-stim", "stimulus": "<p id=\"stim\">7</p>", "internal_node_id": "0.0-141.0-3.0", "time_elapsed": 931800, "key_press": -1, "trial_index": 189}, "uniqueid": "MTK3238:33NF62TLXK9DV0T2ZZJSXKEANUZJKJ", "dateTime": 1520276960958}, {"current_trial": 190, "trialdata": {"rt": -1, "trial_type": "single-stim", "stimulus": "<p id=\"stim\">6</p>", "internal_node_id": "0.0-141.0-4.0", "time_elapsed": 932801, "key_press": -1, "trial_index": 190}, "uniqueid": "MTK3238:33NF62TLXK9DV0T2ZZJSXKEANUZJKJ", "dateTime": 1520276961959}, {"current_trial": 191, "trialdata": {"rt": -1, "trial_type": "single-stim", "stimulus": "<p id=\"stim\">5</p>", "internal_node_id": "0.0-141.0-5.0", "time_elapsed": 933803, "key_press": -1, "trial_index": 191}, "uniqueid": "MTK3238:33NF62TLXK9DV0T2ZZJSXKEANUZJKJ", "dateTime": 1520276962962}, {"current_trial": 192, "trialdata": {"rt": -1, "trial_type": "single-stim", "stimulus": "<p id=\"stim\">4</p>", "internal_node_id": "0.0-141.0-6.0", "time_elapsed": 934805, "key_press": -1, "trial_index": 192}, "uniqueid": "MTK3238:33NF62TLXK9DV0T2ZZJSXKEANUZJKJ", "dateTime": 1520276963963}, {"current_trial": 193, "trialdata": {"rt": -1, "trial_type": "single-stim", "stimulus": "<p id=\"stim\">3</p>", "internal_node_id": "0.0-141.0-7.0", "time_elapsed": 935807, "key_press": -1, "trial_index": 193}, "uniqueid": "MTK3238:33NF62TLXK9DV0T2ZZJSXKEANUZJKJ", "dateTime": 1520276964965}, {"current_trial": 194, "trialdata": {"rt": -1, "trial_type": "single-stim", "stimulus": "<p id=\"stim\">2</p>", "internal_node_id": "0.0-141.0-8.0", "time_elapsed": 936809, "key_press": -1, "trial_index": 194}, "uniqueid": "MTK3238:33NF62TLXK9DV0T2ZZJSXKEANUZJKJ", "dateTime": 1520276965967}, {"current_trial": 195, "trialdata": {"rt": -1, "trial_type": "single-stim", "stimulus": "<p id=\"stim\">1</p>", "internal_node_id": "0.0-141.0-9.0", "time_elapsed": 937810, "key_press": -1, "trial_index": 195}, "uniqueid": "MTK3238:33NF62TLXK9DV0T2ZZJSXKEANUZJKJ", "dateTime": 1520276966969}, {"current_trial": 196, "trialdata": {"rt": -1, "trial_type": "single-stim", "stimulus": "<p id=\"stim\">+</p>", "internal_node_id": "0.0-142.0-0.0", "time_elapsed": 939313, "key_press": -1, "type": "FIXATION", "trial_index": 196}, "uniqueid": "MTK3238:33NF62TLXK9DV0T2ZZJSXKEANUZJKJ", "dateTime": 1520276968472}, {"current_trial": 197, "trialdata": {"rt": -1, "trial_type": "single-stim", "word": "flipper", "stimulus": "<p id=\"stim\">FLIPPER</p>", "conditions": [24, 800, "v", 24000], "internal_node_id": "0.0-143.0", "trial": 5, "time_elapsed": 940115, "serialpos": 0, "key_press": -1, "wordID": 579, "type": "PRES_VIS", "trial_index": 197}, "uniqueid": "MTK3238:33NF62TLXK9DV0T2ZZJSXKEANUZJKJ", "dateTime": 1520276969273}, {"current_trial": 198, "trialdata": {"rt": -1, "trial_type": "single-stim", "word": "panther", "stimulus": "<p id=\"stim\">PANTHER</p>", "conditions": [24, 800, "v", 24000], "internal_node_id": "0.0-144.0", "trial": 5, "time_elapsed": 941981, "serialpos": 1, "key_press": -1, "wordID": 1008, "type": "PRES_VIS", "trial_index": 198}, "uniqueid": "MTK3238:33NF62TLXK9DV0T2ZZJSXKEANUZJKJ", "dateTime": 1520276971140}, {"current_trial": 199, "trialdata": {"rt": -1, "trial_type": "single-stim", "word": "victim", "stimulus": "<p id=\"stim\">VICTIM</p>", "conditions": [24, 800, "v", 24000], "internal_node_id": "0.0-145.0", "trial": 5, "time_elapsed": 943951, "serialpos": 2, "key_press": -1, "wordID": 1561, "type": "PRES_VIS", "trial_index": 199}, "uniqueid": "MTK3238:33NF62TLXK9DV0T2ZZJSXKEANUZJKJ", "dateTime": 1520276973110}, {"current_trial": 200, "trialdata": {"rt": -1, "trial_type": "single-stim", "word": "doughnut", "stimulus": "<p id=\"stim\">DOUGHNUT</p>", "conditions": [24, 800, "v", 24000], "internal_node_id": "0.0-146.0", "trial": 5, "time_elapsed": 945697, "serialpos": 3, "key_press": -1, "wordID": 489, "type": "PRES_VIS", "trial_index": 200}, "uniqueid": "MTK3238:33NF62TLXK9DV0T2ZZJSXKEANUZJKJ", "dateTime": 1520276974855}, {"current_trial": 201, "trialdata": {"rt": -1, "trial_type": "single-stim", "word": "primate", "stimulus": "<p id=\"stim\">PRIMATE</p>", "conditions": [24, 800, "v", 24000], "internal_node_id": "0.0-147.0", "trial": 5, "time_elapsed": 947384, "serialpos": 4, "key_press": -1, "wordID": 1122, "type": "PRES_VIS", "trial_index": 201}, "uniqueid": "MTK3238:33NF62TLXK9DV0T2ZZJSXKEANUZJKJ", "dateTime": 1520276976542}, {"current_trial": 202, "trialdata": {"rt": -1, "trial_type": "single-stim", "word": "drug", "stimulus": "<p id=\"stim\">DRUG</p>", "conditions": [24, 800, "v", 24000], "internal_node_id": "0.0-148.0", "trial": 5, "time_elapsed": 949296, "serialpos": 5, "key_press": -1, "wordID": 500, "type": "PRES_VIS", "trial_index": 202}, "uniqueid": "MTK3238:33NF62TLXK9DV0T2ZZJSXKEANUZJKJ", "dateTime": 1520276978454}, {"current_trial": 203, "trialdata": {"rt": -1, "trial_type": "single-stim", "word": "woman", "stimulus": "<p id=\"stim\">WOMAN</p>", "conditions": [24, 800, "v", 24000], "internal_node_id": "0.0-149.0", "trial": 5, "time_elapsed": 951182, "serialpos": 6, "key_press": -1, "wordID": 1619, "type": "PRES_VIS", "trial_index": 203}, "uniqueid": "MTK3238:33NF62TLXK9DV0T2ZZJSXKEANUZJKJ", "dateTime": 1520276980340}, {"current_trial": 204, "trialdata": {"rt": -1, "trial_type": "single-stim", "word": "zipper", "stimulus": "<p id=\"stim\">ZIPPER</p>", "conditions": [24, 800, "v", 24000], "internal_node_id": "0.0-150.0", "trial": 5, "time_elapsed": 952866, "serialpos": 7, "key_press": -1, "wordID": 1635, "type": "PRES_VIS", "trial_index": 204}, "uniqueid": "MTK3238:33NF62TLXK9DV0T2ZZJSXKEANUZJKJ", "dateTime": 1520276982024}, {"current_trial": 205, "trialdata": {"rt": -1, "trial_type": "single-stim", "word": "mask", "stimulus": "<p id=\"stim\">MASK</p>", "conditions": [24, 800, "v", 24000], "internal_node_id": "0.0-151.0", "trial": 5, "time_elapsed": 954487, "serialpos": 8, "key_press": -1, "wordID": 875, "type": "PRES_VIS", "trial_index": 205}, "uniqueid": "MTK3238:33NF62TLXK9DV0T2ZZJSXKEANUZJKJ", "dateTime": 1520276983645}, {"current_trial": 206, "trialdata": {"rt": -1, "trial_type": "single-stim", "word": "robin", "stimulus": "<p id=\"stim\">ROBIN</p>", "conditions": [24, 800, "v", 24000], "internal_node_id": "0.0-152.0", "trial": 5, "time_elapsed": 956123, "serialpos": 9, "key_press": -1, "wordID": 1198, "type": "PRES_VIS", "trial_index": 206}, "uniqueid": "MTK3238:33NF62TLXK9DV0T2ZZJSXKEANUZJKJ", "dateTime": 1520276985281}, {"current_trial": 207, "trialdata": {"rt": -1, "trial_type": "single-stim", "word": "wasp", "stimulus": "<p id=\"stim\">WASP</p>", "conditions": [24, 800, "v", 24000], "internal_node_id": "0.0-153.0", "trial": 5, "time_elapsed": 958117, "serialpos": 10, "key_press": -1, "wordID": 1592, "type": "PRES_VIS", "trial_index": 207}, "uniqueid": "MTK3238:33NF62TLXK9DV0T2ZZJSXKEANUZJKJ", "dateTime": 1520276987275}, {"current_trial": 208, "trialdata": {"rt": -1, "trial_type": "single-stim", "word": "popcorn", "stimulus": "<p id=\"stim\">POPCORN</p>", "conditions": [24, 800, "v", 24000], "internal_node_id": "0.0-154.0", "trial": 5, "time_elapsed": 960065, "serialpos": 11, "key_press": -1, "wordID": 1103, "type": "PRES_VIS", "trial_index": 208}, "uniqueid": "MTK3238:33NF62TLXK9DV0T2ZZJSXKEANUZJKJ", "dateTime": 1520276989223}, {"current_trial": 209, "trialdata": {"rt": -1, "trial_type": "single-stim", "word": "rocket", "stimulus": "<p id=\"stim\">ROCKET</p>", "conditions": [24, 800, "v", 24000], "internal_node_id": "0.0-155.0", "trial": 5, "time_elapsed": 961962, "serialpos": 12, "key_press": -1, "wordID": 1201, "type": "PRES_VIS", "trial_index": 209}, "uniqueid": "MTK3238:33NF62TLXK9DV0T2ZZJSXKEANUZJKJ", "dateTime": 1520276991120}, {"current_trial": 210, "trialdata": {"rt": -1, "trial_type": "single-stim", "word": "trombone", "stimulus": "<p id=\"stim\">TROMBONE</p>", "conditions": [24, 800, "v", 24000], "internal_node_id": "0.0-156.0", "trial": 5, "time_elapsed": 963662, "serialpos": 13, "key_press": -1, "wordID": 1507, "type": "PRES_VIS", "trial_index": 210}, "uniqueid": "MTK3238:33NF62TLXK9DV0T2ZZJSXKEANUZJKJ", "dateTime": 1520276992821}, {"current_trial": 211, "trialdata": {"rt": -1, "trial_type": "single-stim", "word": "church", "stimulus": "<p id=\"stim\">CHURCH</p>", "conditions": [24, 800, "v", 24000], "internal_node_id": "0.0-157.0", "trial": 5, "time_elapsed": 965554, "serialpos": 14, "key_press": -1, "wordID": 306, "type": "PRES_VIS", "trial_index": 211}, "uniqueid": "MTK3238:33NF62TLXK9DV0T2ZZJSXKEANUZJKJ", "dateTime": 1520276994713}, {"current_trial": 212, "trialdata": {"rt": -1, "trial_type": "single-stim", "word": "handbag", "stimulus": "<p id=\"stim\">HANDBAG</p>", "conditions": [24, 800, "v", 24000], "internal_node_id": "0.0-158.0", "trial": 5, "time_elapsed": 967304, "serialpos": 15, "key_press": -1, "wordID": 683, "type": "PRES_VIS", "trial_index": 212}, "uniqueid": "MTK3238:33NF62TLXK9DV0T2ZZJSXKEANUZJKJ", "dateTime": 1520276996462}, {"current_trial": 213, "trialdata": {"rt": -1, "trial_type": "single-stim", "word": "chapel", "stimulus": "<p id=\"stim\">CHAPEL</p>", "conditions": [24, 800, "v", 24000], "internal_node_id": "0.0-159.0", "trial": 5, "time_elapsed": 969040, "serialpos": 16, "key_press": -1, "wordID": 279, "type": "PRES_VIS", "trial_index": 213}, "uniqueid": "MTK3238:33NF62TLXK9DV0T2ZZJSXKEANUZJKJ", "dateTime": 1520276998198}, {"current_trial": 214, "trialdata": {"rt": -1, "trial_type": "single-stim", "word": "fiddle", "stimulus": "<p id=\"stim\">FIDDLE</p>", "conditions": [24, 800, "v", 24000], "internal_node_id": "0.0-160.0", "trial": 5, "time_elapsed": 970694, "serialpos": 17, "key_press": -1, "wordID": 560, "type": "PRES_VIS", "trial_index": 214}, "uniqueid": "MTK3238:33NF62TLXK9DV0T2ZZJSXKEANUZJKJ", "dateTime": 1520276999852}, {"current_trial": 215, "trialdata": {"rt": -1, "trial_type": "single-stim", "word": "banjo", "stimulus": "<p id=\"stim\">BANJO</p>", "conditions": [24, 800, "v", 24000], "internal_node_id": "0.0-161.0", "trial": 5, "time_elapsed": 972698, "serialpos": 18, "key_press": -1, "wordID": 81, "type": "PRES_VIS", "trial_index": 215}, "uniqueid": "MTK3238:33NF62TLXK9DV0T2ZZJSXKEANUZJKJ", "dateTime": 1520277001856}, {"current_trial": 216, "trialdata": {"rt": -1, "trial_type": "single-stim", "word": "permit", "stimulus": "<p id=\"stim\">PERMIT</p>", "conditions": [24, 800, "v", 24000], "internal_node_id": "0.0-162.0", "trial": 5, "time_elapsed": 974536, "serialpos": 19, "key_press": -1, "wordID": 1050, "type": "PRES_VIS", "trial_index": 216}, "uniqueid": "MTK3238:33NF62TLXK9DV0T2ZZJSXKEANUZJKJ", "dateTime": 1520277003695}, {"current_trial": 217, "trialdata": {"rt": -1, "trial_type": "single-stim", "word": "tribe", "stimulus": "<p id=\"stim\">TRIBE</p>", "conditions": [24, 800, "v", 24000], "internal_node_id": "0.0-163.0", "trial": 5, "time_elapsed": 976495, "serialpos": 20, "key_press": -1, "wordID": 1504, "type": "PRES_VIS", "trial_index": 217}, "uniqueid": "MTK3238:33NF62TLXK9DV0T2ZZJSXKEANUZJKJ", "dateTime": 1520277005653}, {"current_trial": 218, "trialdata": {"rt": -1, "trial_type": "single-stim", "word": "canyon", "stimulus": "<p id=\"stim\">CANYON</p>", "conditions": [24, 800, "v", 24000], "internal_node_id": "0.0-164.0", "trial": 5, "time_elapsed": 978255, "serialpos": 21, "key_press": -1, "wordID": 234, "type": "PRES_VIS", "trial_index": 218}, "uniqueid": "MTK3238:33NF62TLXK9DV0T2ZZJSXKEANUZJKJ", "dateTime": 1520277007413}, {"current_trial": 219, "trialdata": {"rt": -1, "trial_type": "single-stim", "word": "racket", "stimulus": "<p id=\"stim\">RACKET</p>", "conditions": [24, 800, "v", 24000], "internal_node_id": "0.0-165.0", "trial": 5, "time_elapsed": 980121, "serialpos": 22, "key_press": -1, "wordID": 1154, "type": "PRES_VIS", "trial_index": 219}, "uniqueid": "MTK3238:33NF62TLXK9DV0T2ZZJSXKEANUZJKJ", "dateTime": 1520277009279}, {"current_trial": 220, "trialdata": {"rt": -1, "trial_type": "single-stim", "word": "missile", "stimulus": "<p id=\"stim\">MISSILE</p>", "conditions": [24, 800, "v", 24000], "internal_node_id": "0.0-166.0", "trial": 5, "time_elapsed": 981931, "serialpos": 23, "key_press": -1, "wordID": 899, "type": "PRES_VIS", "trial_index": 220}, "uniqueid": "MTK3238:33NF62TLXK9DV0T2ZZJSXKEANUZJKJ", "dateTime": 1520277011089}, {"current_trial": 221, "trialdata": {"rt": -1, "trial_type": "single-stim", "stimulus": "", "internal_node_id": "0.0-167.0-0.0", "time_elapsed": 984315, "key_press": -1, "type": "PRE_RECALL_DELAY", "trial_index": 221}, "uniqueid": "MTK3238:33NF62TLXK9DV0T2ZZJSXKEANUZJKJ", "dateTime": 1520277013474}, {"current_trial": 222, "trialdata": {"rt": -1000, "trial_type": "single-audio", "stimulus": "/static/audio/400Hz.wav", "internal_node_id": "0.0-168.0", "time_elapsed": 984818, "key_press": -1, "type": "PRE_RECALL_ALERT", "trial_index": 222}, "uniqueid": "MTK3238:33NF62TLXK9DV0T2ZZJSXKEANUZJKJ", "dateTime": 1520277013976}, {"current_trial": 223, "trialdata": {"rt": [3766, 6493, 53118], "recwords": ["flipper", "woman", "zipper"], "key_times": [2102, 2277, 2477, 2655, 2797, 2893, 2966, 3766, 4534, 4693, 4869, 6061, 6214, 6493, 52214, 52391, 52615, 52759, 52911, 53006, 53118], "trial_type": "free-recall", "conditions": [24, 800, "v", 24000], "internal_node_id": "0.0-169.0-0.0", "key_presses": [70, 76, 73, 80, 80, 69, 82, 13, 87, 79, 77, 65, 78, 13, 90, 73, 80, 80, 69, 82, 13], "trial": 5, "time_elapsed": 1044822, "type": "FREE_RECALL", "trial_index": 223}, "uniqueid": "MTK3238:33NF62TLXK9DV0T2ZZJSXKEANUZJKJ", "dateTime": 1520277073985}, {"current_trial": 224, "trialdata": {"rt": 935, "trial_type": "text", "internal_node_id": "0.0-170.0", "time_elapsed": 1047762, "key_press": 32, "type": "INSTRUCTIONS", "trial_index": 224}, "uniqueid": "MTK3238:33NF62TLXK9DV0T2ZZJSXKEANUZJKJ", "dateTime": 1520277076920}, {"current_trial": 225, "trialdata": {"rt": [3258, 4873, 7752, 9265, 12657, 14697, 16249, 17826, 20298, 21857, 23250], "trial_type": "math-distractor", "key_times": [2881, 2995, 3258, 4648, 4746, 4873, 7536, 7683, 7752, 9019, 9171, 9265, 12427, 12571, 12657, 14250, 14482, 14697, 15858, 16114, 16249, 17499, 17626, 17826, 19963, 20178, 20298, 21427, 21635, 21857, 22898, 23060, 23250], "responses": ["20", "12", "22", "11", "22", "18", "15", "10", "25", "16", "18"], "num2": [5, 1, 5, 3, 8, 8, 5, 2, 7, 6, 5, 3], "num3": [7, 3, 9, 2, 5, 8, 1, 4, 9, 9, 5, 5], "conditions": [12, 1600, "v", 24000], "internal_node_id": "0.0-171.0", "key_presses": [50, 48, 13, 49, 50, 13, 50, 50, 13, 49, 49, 13, 50, 50, 13, 49, 56, 13, 49, 53, 13, 49, 48, 13, 50, 53, 13, 49, 54, 13, 49, 56, 13], "trial": 6, "time_elapsed": 1073768, "type": "DISTRACTOR", "trial_index": 225, "num1": [8, 8, 8, 6, 9, 2, 9, 4, 9, 1, 8, 9]}, "uniqueid": "MTK3238:33NF62TLXK9DV0T2ZZJSXKEANUZJKJ", "dateTime": 1520277102926}, {"current_trial": 226, "trialdata": {"rt": -1, "trial_type": "single-stim", "stimulus": "<p id=\"stim\">10</p>", "internal_node_id": "0.0-172.0-0.0", "time_elapsed": 1076770, "key_press": -1, "trial_index": 226}, "uniqueid": "MTK3238:33NF62TLXK9DV0T2ZZJSXKEANUZJKJ", "dateTime": 1520277105928}, {"current_trial": 227, "trialdata": {"rt": -1, "trial_type": "single-stim", "stimulus": "<p id=\"stim\">9</p>", "internal_node_id": "0.0-172.0-1.0", "time_elapsed": 1077771, "key_press": -1, "trial_index": 227}, "uniqueid": "MTK3238:33NF62TLXK9DV0T2ZZJSXKEANUZJKJ", "dateTime": 1520277106930}, {"current_trial": 228, "trialdata": {"rt": -1, "trial_type": "single-stim", "stimulus": "<p id=\"stim\">8</p>", "internal_node_id": "0.0-172.0-2.0", "time_elapsed": 1078774, "key_press": -1, "trial_index": 228}, "uniqueid": "MTK3238:33NF62TLXK9DV0T2ZZJSXKEANUZJKJ", "dateTime": 1520277107932}, {"current_trial": 229, "trialdata": {"rt": -1, "trial_type": "single-stim", "stimulus": "<p id=\"stim\">7</p>", "internal_node_id": "0.0-172.0-3.0", "time_elapsed": 1079775, "key_press": -1, "trial_index": 229}, "uniqueid": "MTK3238:33NF62TLXK9DV0T2ZZJSXKEANUZJKJ", "dateTime": 1520277108933}, {"current_trial": 230, "trialdata": {"rt": -1, "trial_type": "single-stim", "stimulus": "<p id=\"stim\">6</p>", "internal_node_id": "0.0-172.0-4.0", "time_elapsed": 1080777, "key_press": -1, "trial_index": 230}, "uniqueid": "MTK3238:33NF62TLXK9DV0T2ZZJSXKEANUZJKJ", "dateTime": 1520277109935}, {"current_trial": 231, "trialdata": {"rt": -1, "trial_type": "single-stim", "stimulus": "<p id=\"stim\">5</p>", "internal_node_id": "0.0-172.0-5.0", "time_elapsed": 1081780, "key_press": -1, "trial_index": 231}, "uniqueid": "MTK3238:33NF62TLXK9DV0T2ZZJSXKEANUZJKJ", "dateTime": 1520277110938}, {"current_trial": 232, "trialdata": {"rt": -1, "trial_type": "single-stim", "stimulus": "<p id=\"stim\">4</p>", "internal_node_id": "0.0-172.0-6.0", "time_elapsed": 1082783, "key_press": -1, "trial_index": 232}, "uniqueid": "MTK3238:33NF62TLXK9DV0T2ZZJSXKEANUZJKJ", "dateTime": 1520277111941}, {"current_trial": 233, "trialdata": {"rt": -1, "trial_type": "single-stim", "stimulus": "<p id=\"stim\">3</p>", "internal_node_id": "0.0-172.0-7.0", "time_elapsed": 1083784, "key_press": -1, "trial_index": 233}, "uniqueid": "MTK3238:33NF62TLXK9DV0T2ZZJSXKEANUZJKJ", "dateTime": 1520277112942}, {"current_trial": 234, "trialdata": {"rt": -1, "trial_type": "single-stim", "stimulus": "<p id=\"stim\">2</p>", "internal_node_id": "0.0-172.0-8.0", "time_elapsed": 1084787, "key_press": -1, "trial_index": 234}, "uniqueid": "MTK3238:33NF62TLXK9DV0T2ZZJSXKEANUZJKJ", "dateTime": 1520277113945}, {"current_trial": 235, "trialdata": {"rt": -1, "trial_type": "single-stim", "stimulus": "<p id=\"stim\">1</p>", "internal_node_id": "0.0-172.0-9.0", "time_elapsed": 1085789, "key_press": -1, "trial_index": 235}, "uniqueid": "MTK3238:33NF62TLXK9DV0T2ZZJSXKEANUZJKJ", "dateTime": 1520277114947}, {"current_trial": 236, "trialdata": {"rt": -1, "trial_type": "single-stim", "stimulus": "<p id=\"stim\">+</p>", "internal_node_id": "0.0-173.0-0.0", "time_elapsed": 1087292, "key_press": -1, "type": "FIXATION", "trial_index": 236}, "uniqueid": "MTK3238:33NF62TLXK9DV0T2ZZJSXKEANUZJKJ", "dateTime": 1520277116450}, {"current_trial": 237, "trialdata": {"rt": -1, "trial_type": "single-stim", "word": "knife", "stimulus": "<p id=\"stim\">KNIFE</p>", "conditions": [12, 1600, "v", 24000], "internal_node_id": "0.0-174.0", "trial": 6, "time_elapsed": 1088894, "serialpos": 0, "key_press": -1, "wordID": 784, "type": "PRES_VIS", "trial_index": 237}, "uniqueid": "MTK3238:33NF62TLXK9DV0T2ZZJSXKEANUZJKJ", "dateTime": 1520277118053}, {"current_trial": 238, "trialdata": {"rt": -1, "trial_type": "single-stim", "word": "teacher", "stimulus": "<p id=\"stim\">TEACHER</p>", "conditions": [12, 1600, "v", 24000], "internal_node_id": "0.0-175.0", "trial": 6, "time_elapsed": 1091419, "serialpos": 1, "key_press": -1, "wordID": 1439, "type": "PRES_VIS", "trial_index": 238}, "uniqueid": "MTK3238:33NF62TLXK9DV0T2ZZJSXKEANUZJKJ", "dateTime": 1520277120577}, {"current_trial": 239, "trialdata": {"rt": -1, "trial_type": "single-stim", "word": "canal", "stimulus": "<p id=\"stim\">CANAL</p>", "conditions": [12, 1600, "v", 24000], "internal_node_id": "0.0-176.0", "trial": 6, "time_elapsed": 1094024, "serialpos": 2, "key_press": -1, "wordID": 225, "type": "PRES_VIS", "trial_index": 239}, "uniqueid": "MTK3238:33NF62TLXK9DV0T2ZZJSXKEANUZJKJ", "dateTime": 1520277123182}, {"current_trial": 240, "trialdata": {"rt": -1, "trial_type": "single-stim", "word": "lagoon", "stimulus": "<p id=\"stim\">LAGOON</p>", "conditions": [12, 1600, "v", 24000], "internal_node_id": "0.0-177.0", "trial": 6, "time_elapsed": 1096624, "serialpos": 3, "key_press": -1, "wordID": 794, "type": "PRES_VIS", "trial_index": 240}, "uniqueid": "MTK3238:33NF62TLXK9DV0T2ZZJSXKEANUZJKJ", "dateTime": 1520277125782}, {"current_trial": 241, "trialdata": {"rt": -1, "trial_type": "single-stim", "word": "thread", "stimulus": "<p id=\"stim\">THREAD</p>", "conditions": [12, 1600, "v", 24000], "internal_node_id": "0.0-178.0", "trial": 6, "time_elapsed": 1099048, "serialpos": 4, "key_press": -1, "wordID": 1459, "type": "PRES_VIS", "trial_index": 241}, "uniqueid": "MTK3238:33NF62TLXK9DV0T2ZZJSXKEANUZJKJ", "dateTime": 1520277128206}, {"current_trial": 242, "trialdata": {"rt": -1, "trial_type": "single-stim", "word": "hiker", "stimulus": "<p id=\"stim\">HIKER</p>", "conditions": [12, 1600, "v", 24000], "internal_node_id": "0.0-179.0", "trial": 6, "time_elapsed": 1101458, "serialpos": 5, "key_press": -1, "wordID": 707, "type": "PRES_VIS", "trial_index": 242}, "uniqueid": "MTK3238:33NF62TLXK9DV0T2ZZJSXKEANUZJKJ", "dateTime": 1520277130616}, {"current_trial": 243, "trialdata": {"rt": -1, "trial_type": "single-stim", "word": "smog", "stimulus": "<p id=\"stim\">SMOG</p>", "conditions": [12, 1600, "v", 24000], "internal_node_id": "0.0-180.0", "trial": 6, "time_elapsed": 1103918, "serialpos": 6, "key_press": -1, "wordID": 1329, "type": "PRES_VIS", "trial_index": 243}, "uniqueid": "MTK3238:33NF62TLXK9DV0T2ZZJSXKEANUZJKJ", "dateTime": 1520277133077}, {"current_trial": 244, "trialdata": {"rt": -1, "trial_type": "single-stim", "word": "student", "stimulus": "<p id=\"stim\">STUDENT</p>", "conditions": [12, 1600, "v", 24000], "internal_node_id": "0.0-181.0", "trial": 6, "time_elapsed": 1106700, "serialpos": 7, "key_press": -1, "wordID": 1394, "type": "PRES_VIS", "trial_index": 244}, "uniqueid": "MTK3238:33NF62TLXK9DV0T2ZZJSXKEANUZJKJ", "dateTime": 1520277135858}, {"current_trial": 245, "trialdata": {"rt": -1, "trial_type": "single-stim", "word": "silk", "stimulus": "<p id=\"stim\">SILK</p>", "conditions": [12, 1600, "v", 24000], "internal_node_id": "0.0-182.0", "trial": 6, "time_elapsed": 1109376, "serialpos": 8, "key_press": -1, "wordID": 1306, "type": "PRES_VIS", "trial_index": 245}, "uniqueid": "MTK3238:33NF62TLXK9DV0T2ZZJSXKEANUZJKJ", "dateTime": 1520277138534}, {"current_trial": 246, "trialdata": {"rt": -1, "trial_type": "single-stim", "word": "crayon", "stimulus": "<p id=\"stim\">CRAYON</p>", "conditions": [12, 1600, "v", 24000], "internal_node_id": "0.0-183.0", "trial": 6, "time_elapsed": 1111976, "serialpos": 9, "key_press": -1, "wordID": 400, "type": "PRES_VIS", "trial_index": 246}, "uniqueid": "MTK3238:33NF62TLXK9DV0T2ZZJSXKEANUZJKJ", "dateTime": 1520277141135}, {"current_trial": 247, "trialdata": {"rt": -1, "trial_type": "single-stim", "word": "mildew", "stimulus": "<p id=\"stim\">MILDEW</p>", "conditions": [12, 1600, "v", 24000], "internal_node_id": "0.0-184.0", "trial": 6, "time_elapsed": 1114627, "serialpos": 10, "key_press": -1, "wordID": 892, "type": "PRES_VIS", "trial_index": 247}, "uniqueid": "MTK3238:33NF62TLXK9DV0T2ZZJSXKEANUZJKJ", "dateTime": 1520277143786}, {"current_trial": 248, "trialdata": {"rt": -1, "trial_type": "single-stim", "word": "apple", "stimulus": "<p id=\"stim\">APPLE</p>", "conditions": [12, 1600, "v", 24000], "internal_node_id": "0.0-185.0", "trial": 6, "time_elapsed": 1117404, "serialpos": 11, "key_press": -1, "wordID": 32, "type": "PRES_VIS", "trial_index": 248}, "uniqueid": "MTK3238:33NF62TLXK9DV0T2ZZJSXKEANUZJKJ", "dateTime": 1520277146562}, {"current_trial": 249, "trialdata": {"rt": -1, "trial_type": "single-stim", "stimulus": "", "internal_node_id": "0.0-186.0-0.0", "time_elapsed": 1119734, "key_press": -1, "type": "PRE_RECALL_DELAY", "trial_index": 249}, "uniqueid": "MTK3238:33NF62TLXK9DV0T2ZZJSXKEANUZJKJ", "dateTime": 1520277148892}, {"current_trial": 250, "trialdata": {"rt": -1000, "trial_type": "single-audio", "stimulus": "/static/audio/400Hz.wav", "internal_node_id": "0.0-187.0", "time_elapsed": 1120236, "key_press": -1, "type": "PRE_RECALL_ALERT", "trial_index": 250}, "uniqueid": "MTK3238:33NF62TLXK9DV0T2ZZJSXKEANUZJKJ", "dateTime": 1520277149394}, {"current_trial": 251, "trialdata": {"rt": [3522, 5739, 7402, 9522, 16723], "recwords": ["teacher", "student", "apple", "lagoon", "knife"], "key_times": [2523, 2659, 2818, 2931, 3068, 3212, 3275, 3522, 4179, 4372, 4564, 4651, 4707, 4828, 5043, 5739, 6124, 6378, 6514, 6698, 7059, 7402, 8219, 8379, 8611, 8779, 8898, 9114, 9522, 15394, 15587, 15787, 15940, 16011, 16723], "trial_type": "free-recall", "conditions": [12, 1600, "v", 24000], "internal_node_id": "0.0-188.0-0.0", "key_presses": [84, 69, 65, 67, 72, 69, 82, 13, 83, 84, 85, 68, 69, 78, 84, 13, 65, 80, 80, 76, 69, 13, 76, 65, 71, 79, 79, 78, 13, 75, 78, 73, 70, 69, 13], "trial": 6, "time_elapsed": 1180238, "type": "FREE_RECALL", "trial_index": 251}, "uniqueid": "MTK3238:33NF62TLXK9DV0T2ZZJSXKEANUZJKJ", "dateTime": 1520277209403}, {"current_trial": 252, "trialdata": {"rt": 1626, "trial_type": "text", "internal_node_id": "0.0-189.0", "time_elapsed": 1183873, "key_press": 38, "type": "INSTRUCTIONS", "trial_index": 252}, "uniqueid": "MTK3238:33NF62TLXK9DV0T2ZZJSXKEANUZJKJ", "dateTime": 1520277213031}, {"current_trial": 253, "trialdata": {"rt": [1891, 5049, 6442, 8186, 9690, 11131], "trial_type": "math-distractor", "key_times": [1666, 1891, 3773, 3774, 4217, 4395, 4532, 4755, 4964, 5049, 6228, 6299, 6442, 7956, 8028, 8186, 9579, 9690, 10898, 11019, 11131], "responses": ["9", "13", "13", "12", "5", "13"], "num2": [2, 2, 4, 5, 1, 6, 9], "num3": [2, 7, 3, 1, 1, 6, 2], "conditions": [12, 800, "v", 12000], "internal_node_id": "0.0-190.0", "key_presses": [57, 13, 192, 49, 8, 8, 8, 49, 51, 13, 49, 51, 13, 49, 50, 13, 53, 13, 49, 51, 13]