{"assignmentId": "33LK57MYLUC1JYBEMUVGC0TAMCDZS4", "workerId": "MTK3111", "questiondata": {"origin": "United States", "strat-rehearsal": "30", "marital": "Single", "education": "Associate degree", "ethnicity": "Not Hispanic", "color_depth": 24, "distracted": "No", "wrote-notes": "No", "strat-other": "For some words, I tried to picture other words that go with those words. For example, I think one word was \"kidney\", so, in my head, I said \"kidney stone\" and I think that helped me remember. Also, for some words like \"brother\" and \"girl,\" I thought about my brother, and myself for the word \"girl.\" Also, we have pizza in the fridge at my house. So, that helped me to remember the word \"pizza.\" I also did a lot of hand gestures and arm movements to help me remember the words. Like, if I moved my arm in a circle to remember one word, in order to try and recall that word again, I would do that same arm movement to try and help me remember it. It helped me some of the time.", "screen_width": 1366, "avail_screen_width": 1366, "avail_screen_height": 728, "strat-image": "53", "language": "English", "gender": "Female", "age": "26", "gender_other": "", "race": ["Black"], "strat-categorize": "80", "pixel_depth": 24, "strat-spatial": "50", "strat-story": "0", "race_other": "", "screen_height": 768}, "bonus": 0, "hitId": "3VMV5CHJZ8M0KXVUV07FCED6TFMGTZ", "counterbalance": 2221, "useragent": "Mozilla/5.0 (Windows NT 6.3; Win64; x64) AppleWebKit/537.36 (KHTML, like Gecko) Chrome/64.0.3282.167 Safari/537.36", "eventdata": [{"eventtype": "initialized", "interval": 0, "value": null, "timestamp": 1520020632024}, {"eventtype": "window_resize", "interval": 0, "value": [1090, 570], "timestamp": 1520020632024}, {"eventtype": "window_resize", "interval": 226942, "value": [1238, 648], "timestamp": 1520020858966}, {"eventtype": "window_resize", "interval": 3477121, "value": [1242, 698], "timestamp": 1520024336087}], "data": [{"current_trial": 0, "trialdata": {"rt": 13371, "trial_type": "text", "internal_node_id": "0.0-0.0", "time_elapsed": 13377, "key_press": 32, "type": "INSTRUCTIONS", "trial_index": 0}, "uniqueid": "MTK3111:33LK57MYLUC1JYBEMUVGC0TAMCDZS4", "dateTime": 1520020727596}, {"current_trial": 1, "trialdata": {"rt": 38725, "trial_type": "text", "internal_node_id": "0.0-1.0", "time_elapsed": 52107, "key_press": 32, "type": "INSTRUCTIONS", "trial_index": 1}, "uniqueid": "MTK3111:33LK57MYLUC1JYBEMUVGC0TAMCDZS4", "dateTime": 1520020766325}, {"current_trial": 2, "trialdata": {"rt": [19445], "trial_type": "audio-test", "responses": ["ocean"], "internal_node_id": "0.0-2.0", "time_elapsed": 71617, "type": "AUDIO_TEST", "trial_index": 2}, "uniqueid": "MTK3111:33LK57MYLUC1JYBEMUVGC0TAMCDZS4", "dateTime": 1520020785835}, {"current_trial": 3, "trialdata": {"rt": [8869], "trial_type": "audio-test", "responses": ["crystal"], "internal_node_id": "0.0-3.0", "time_elapsed": 80508, "type": "AUDIO_TEST", "trial_index": 3}, "uniqueid": "MTK3111:33LK57MYLUC1JYBEMUVGC0TAMCDZS4", "dateTime": 1520020794726}, {"current_trial": 4, "trialdata": {"rt": [7316], "trial_type": "audio-test", "responses": ["spice"], "internal_node_id": "0.0-4.0", "time_elapsed": 87838, "type": "AUDIO_TEST", "trial_index": 4}, "uniqueid": "MTK3111:33LK57MYLUC1JYBEMUVGC0TAMCDZS4", "dateTime": 1520020802055}, {"current_trial": 5, "trialdata": {"rt": 61474, "trial_type": "survey-text", "responses": "{\"Q0\":\"10:15 PM\",\"Q1\":\"3:30 AM\",\"Q2\":\"5\"}", "internal_node_id": "0.0-5.0", "time_elapsed": 150073, "type": "SLEEP_SURVEY", "trial_index": 5}, "uniqueid": "MTK3111:33LK57MYLUC1JYBEMUVGC0TAMCDZS4", "dateTime": 1520020864290}, {"current_trial": 6, "trialdata": {"rt": 51960, "trial_type": "text", "internal_node_id": "0.0-6.0", "time_elapsed": 203038, "key_press": 32, "type": "INSTRUCTIONS", "trial_index": 6}, "uniqueid": "MTK3111:33LK57MYLUC1JYBEMUVGC0TAMCDZS4", "dateTime": 1520020917256}, {"current_trial": 7, "trialdata": {"rt": 20494, "trial_type": "text", "internal_node_id": "0.0-7.0", "time_elapsed": 224036, "key_press": 32, "type": "INSTRUCTIONS", "trial_index": 7}, "uniqueid": "MTK3111:33LK57MYLUC1JYBEMUVGC0TAMCDZS4", "dateTime": 1520020938253}, {"current_trial": 8, "trialdata": {"rt": 14915, "trial_type": "text", "internal_node_id": "0.0-8.0", "time_elapsed": 239454, "key_press": 32, "type": "INSTRUCTIONS", "trial_index": 8}, "uniqueid": "MTK3111:33LK57MYLUC1JYBEMUVGC0TAMCDZS4", "dateTime": 1520020953671}, {"current_trial": 9, "trialdata": {"rt": [3088, 7766, 17077], "trial_type": "math-distractor", "key_times": [2367, 2508, 3088, 7398, 7520, 7766, 16365, 16505, 17077], "responses": ["12", "20", "22"], "num2": [1, 6, 8, 4], "num3": [6, 6, 9, 1], "conditions": [18, 1200, "a", 18000], "internal_node_id": "0.0-9.0", "key_presses": [49, 50, 13, 50, 48, 13, 50, 50, 13], "trial": 0, "time_elapsed": 258470, "type": "DISTRACTOR", "trial_index": 9, "num1": [5, 8, 5, 4]}, "uniqueid": "MTK3111:33LK57MYLUC1JYBEMUVGC0TAMCDZS4", "dateTime": 1520020972688}, {"current_trial": 10, "trialdata": {"rt": -1, "trial_type": "single-stim", "stimulus": "<p id=\"stim\">10</p>", "internal_node_id": "0.0-10.0-0.0", "time_elapsed": 261483, "key_press": -1, "trial_index": 10}, "uniqueid": "MTK3111:33LK57MYLUC1JYBEMUVGC0TAMCDZS4", "dateTime": 1520020975701}, {"current_trial": 11, "trialdata": {"rt": -1, "trial_type": "single-stim", "stimulus": "<p id=\"stim\">9</p>", "internal_node_id": "0.0-10.0-1.0", "time_elapsed": 262487, "key_press": -1, "trial_index": 11}, "uniqueid": "MTK3111:33LK57MYLUC1JYBEMUVGC0TAMCDZS4", "dateTime": 1520020976705}, {"current_trial": 12, "trialdata": {"rt": -1, "trial_type": "single-stim", "stimulus": "<p id=\"stim\">8</p>", "internal_node_id": "0.0-10.0-2.0", "time_elapsed": 263491, "key_press": -1, "trial_index": 12}, "uniqueid": "MTK3111:33LK57MYLUC1JYBEMUVGC0TAMCDZS4", "dateTime": 1520020977708}, {"current_trial": 13, "trialdata": {"rt": -1, "trial_type": "single-stim", "stimulus": "<p id=\"stim\">7</p>", "internal_node_id": "0.0-10.0-3.0", "time_elapsed": 264496, "key_press": -1, "trial_index": 13}, "uniqueid": "MTK3111:33LK57MYLUC1JYBEMUVGC0TAMCDZS4", "dateTime": 1520020978718}, {"current_trial": 14, "trialdata": {"rt": -1, "trial_type": "single-stim", "stimulus": "<p id=\"stim\">6</p>", "internal_node_id": "0.0-10.0-4.0", "time_elapsed": 265504, "key_press": -1, "trial_index": 14}, "uniqueid": "MTK3111:33LK57MYLUC1JYBEMUVGC0TAMCDZS4", "dateTime": 1520020979721}, {"current_trial": 15, "trialdata": {"rt": -1, "trial_type": "single-stim", "stimulus": "<p id=\"stim\">5</p>", "internal_node_id": "0.0-10.0-5.0", "time_elapsed": 266508, "key_press": -1, "trial_index": 15}, "uniqueid": "MTK3111:33LK57MYLUC1JYBEMUVGC0TAMCDZS4", "dateTime": 1520020980725}, {"current_trial": 16, "trialdata": {"rt": -1, "trial_type": "single-stim", "stimulus": "<p id=\"stim\">4</p>", "internal_node_id": "0.0-10.0-6.0", "time_elapsed": 267511, "key_press": -1, "trial_index": 16}, "uniqueid": "MTK3111:33LK57MYLUC1JYBEMUVGC0TAMCDZS4", "dateTime": 1520020981729}, {"current_trial": 17, "trialdata": {"rt": -1, "trial_type": "single-stim", "stimulus": "<p id=\"stim\">3</p>", "internal_node_id": "0.0-10.0-7.0", "time_elapsed": 268516, "key_press": -1, "trial_index": 17}, "uniqueid": "MTK3111:33LK57MYLUC1JYBEMUVGC0TAMCDZS4", "dateTime": 1520020982733}, {"current_trial": 18, "trialdata": {"rt": -1, "trial_type": "single-stim", "stimulus": "<p id=\"stim\">2</p>", "internal_node_id": "0.0-10.0-8.0", "time_elapsed": 269521, "key_press": -1, "trial_index": 18}, "uniqueid": "MTK3111:33LK57MYLUC1JYBEMUVGC0TAMCDZS4", "dateTime": 1520020983738}, {"current_trial": 19, "trialdata": {"rt": -1, "trial_type": "single-stim", "stimulus": "<p id=\"stim\">1</p>", "internal_node_id": "0.0-10.0-9.0", "time_elapsed": 270525, "key_press": -1, "trial_index": 19}, "uniqueid": "MTK3111:33LK57MYLUC1JYBEMUVGC0TAMCDZS4", "dateTime": 1520020984742}, {"current_trial": 20, "trialdata": {"rt": -1, "trial_type": "single-stim", "stimulus": "<p id=\"stim\">+</p>", "internal_node_id": "0.0-11.0-0.0", "time_elapsed": 272030, "key_press": -1, "type": "FIXATION", "trial_index": 20}, "uniqueid": "MTK3111:33LK57MYLUC1JYBEMUVGC0TAMCDZS4", "dateTime": 1520020986247}, {"current_trial": 21, "trialdata": {"rt": -1000, "trial_type": "single-audio", "word": "dashboard", "stimulus": "/static/audio/wordpool/DASHBOARD.wav", "conditions": [18, 1200, "a", 18000], "internal_node_id": "0.0-12.0", "trial": 0, "time_elapsed": 274063, "serialpos": 0, "key_press": -1, "wordID": 440, "type": "PRES_AUD", "trial_index": 21}, "uniqueid": "MTK3111:33LK57MYLUC1JYBEMUVGC0TAMCDZS4", "dateTime": 1520020988282}, {"current_trial": 22, "trialdata": {"rt": -1000, "trial_type": "single-audio", "word": "cabin", "stimulus": "/static/audio/wordpool/CABIN.wav", "conditions": [18, 1200, "a", 18000], "internal_node_id": "0.0-13.0", "trial": 0, "time_elapsed": 276253, "serialpos": 1, "key_press": -1, "wordID": 210, "type": "PRES_AUD", "trial_index": 22}, "uniqueid": "MTK3111:33LK57MYLUC1JYBEMUVGC0TAMCDZS4", "dateTime": 1520020990470}, {"current_trial": 23, "trialdata": {"rt": -1000, "trial_type": "single-audio", "word": "mailman", "stimulus": "/static/audio/wordpool/MAILMAN.wav", "conditions": [18, 1200, "a", 18000], "internal_node_id": "0.0-14.0", "trial": 0, "time_elapsed": 278545, "serialpos": 2, "key_press": -1, "wordID": 857, "type": "PRES_AUD", "trial_index": 23}, "uniqueid": "MTK3111:33LK57MYLUC1JYBEMUVGC0TAMCDZS4", "dateTime": 1520020992762}, {"current_trial": 24, "trialdata": {"rt": -1000, "trial_type": "single-audio", "word": "scalpel", "stimulus": "/static/audio/wordpool/SCALPEL.wav", "conditions": [18, 1200, "a", 18000], "internal_node_id": "0.0-15.0", "trial": 0, "time_elapsed": 280734, "serialpos": 3, "key_press": -1, "wordID": 1242, "type": "PRES_AUD", "trial_index": 24}, "uniqueid": "MTK3111:33LK57MYLUC1JYBEMUVGC0TAMCDZS4", "dateTime": 1520020994951}, {"current_trial": 25, "trialdata": {"rt": -1000, "trial_type": "single-audio", "word": "atlas", "stimulus": "/static/audio/wordpool/ATLAS.wav", "conditions": [18, 1200, "a", 18000], "internal_node_id": "0.0-16.0", "trial": 0, "time_elapsed": 282964, "serialpos": 4, "key_press": -1, "wordID": 52, "type": "PRES_AUD", "trial_index": 25}, "uniqueid": "MTK3111:33LK57MYLUC1JYBEMUVGC0TAMCDZS4", "dateTime": 1520020997181}, {"current_trial": 26, "trialdata": {"rt": 288.9342403627779, "trial_type": "single-audio", "word": "postage", "stimulus": "/static/audio/wordpool/POSTAGE.wav", "conditions": [18, 1200, "a", 18000], "internal_node_id": "0.0-17.0", "trial": 0, "time_elapsed": 285142, "serialpos": 5, "key_press": 175, "wordID": 1112, "type": "PRES_AUD", "trial_index": 26}, "uniqueid": "MTK3111:33LK57MYLUC1JYBEMUVGC0TAMCDZS4", "dateTime": 1520020999359}, {"current_trial": 27, "trialdata": {"rt": -1000, "trial_type": "single-audio", "word": "slug", "stimulus": "/static/audio/wordpool/SLUG.wav", "conditions": [18, 1200, "a", 18000], "internal_node_id": "0.0-18.0", "trial": 0, "time_elapsed": 287538, "serialpos": 6, "key_press": -1, "wordID": 1328, "type": "PRES_AUD", "trial_index": 27}, "uniqueid": "MTK3111:33LK57MYLUC1JYBEMUVGC0TAMCDZS4", "dateTime": 1520021001755}, {"current_trial": 28, "trialdata": {"rt": -1000, "trial_type": "single-audio", "word": "world", "stimulus": "/static/audio/wordpool/WORLD.wav", "conditions": [18, 1200, "a", 18000], "internal_node_id": "0.0-19.0", "trial": 0, "time_elapsed": 289739, "serialpos": 7, "key_press": -1, "wordID": 1621, "type": "PRES_AUD", "trial_index": 28}, "uniqueid": "MTK3111:33LK57MYLUC1JYBEMUVGC0TAMCDZS4", "dateTime": 1520021003956}, {"current_trial": 29, "trialdata": {"rt": -1000, "trial_type": "single-audio", "word": "trombone", "stimulus": "/static/audio/wordpool/TROMBONE.wav", "conditions": [18, 1200, "a", 18000], "internal_node_id": "0.0-20.0", "trial": 0, "time_elapsed": 292235, "serialpos": 8, "key_press": -1, "wordID": 1507, "type": "PRES_AUD", "trial_index": 29}, "uniqueid": "MTK3111:33LK57MYLUC1JYBEMUVGC0TAMCDZS4", "dateTime": 1520021006452}, {"current_trial": 30, "trialdata": {"rt": -1000, "trial_type": "single-audio", "word": "subway", "stimulus": "/static/audio/wordpool/SUBWAY.wav", "conditions": [18, 1200, "a", 18000], "internal_node_id": "0.0-21.0", "trial": 0, "time_elapsed": 294495, "serialpos": 9, "key_press": -1, "wordID": 1399, "type": "PRES_AUD", "trial_index": 30}, "uniqueid": "MTK3111:33LK57MYLUC1JYBEMUVGC0TAMCDZS4", "dateTime": 1520021008712}, {"current_trial": 31, "trialdata": {"rt": -1000, "trial_type": "single-audio", "word": "chemist", "stimulus": "/static/audio/wordpool/CHEMIST.wav", "conditions": [18, 1200, "a", 18000], "internal_node_id": "0.0-22.0", "trial": 0, "time_elapsed": 296827, "serialpos": 10, "key_press": -1, "wordID": 291, "type": "PRES_AUD", "trial_index": 31}, "uniqueid": "MTK3111:33LK57MYLUC1JYBEMUVGC0TAMCDZS4", "dateTime": 1520021011044}, {"current_trial": 32, "trialdata": {"rt": -1000, "trial_type": "single-audio", "word": "snail", "stimulus": "/static/audio/wordpool/SNAIL.wav", "conditions": [18, 1200, "a", 18000], "internal_node_id": "0.0-23.0", "trial": 0, "time_elapsed": 298909, "serialpos": 11, "key_press": -1, "wordID": 1331, "type": "PRES_AUD", "trial_index": 32}, "uniqueid": "MTK3111:33LK57MYLUC1JYBEMUVGC0TAMCDZS4", "dateTime": 1520021013126}, {"current_trial": 33, "trialdata": {"rt": -1000, "trial_type": "single-audio", "word": "film", "stimulus": "/static/audio/wordpool/FILM.wav", "conditions": [18, 1200, "a", 18000], "internal_node_id": "0.0-24.0", "trial": 0, "time_elapsed": 301024, "serialpos": 12, "key_press": -1, "wordID": 564, "type": "PRES_AUD", "trial_index": 33}, "uniqueid": "MTK3111:33LK57MYLUC1JYBEMUVGC0TAMCDZS4", "dateTime": 1520021015241}, {"current_trial": 34, "trialdata": {"rt": -1000, "trial_type": "single-audio", "word": "frame", "stimulus": "/static/audio/wordpool/FRAME.wav", "conditions": [18, 1200, "a", 18000], "internal_node_id": "0.0-25.0", "trial": 0, "time_elapsed": 303351, "serialpos": 13, "key_press": -1, "wordID": 599, "type": "PRES_AUD", "trial_index": 34}, "uniqueid": "MTK3111:33LK57MYLUC1JYBEMUVGC0TAMCDZS4", "dateTime": 1520021017568}, {"current_trial": 35, "trialdata": {"rt": -1000, "trial_type": "single-audio", "word": "supper", "stimulus": "/static/audio/wordpool/SUPPER.wav", "conditions": [18, 1200, "a", 18000], "internal_node_id": "0.0-26.0", "trial": 0, "time_elapsed": 305569, "serialpos": 14, "key_press": -1, "wordID": 1410, "type": "PRES_AUD", "trial_index": 35}, "uniqueid": "MTK3111:33LK57MYLUC1JYBEMUVGC0TAMCDZS4", "dateTime": 1520021019786}, {"current_trial": 36, "trialdata": {"rt": -1000, "trial_type": "single-audio", "word": "ulcer", "stimulus": "/static/audio/wordpool/ULCER.wav", "conditions": [18, 1200, "a", 18000], "internal_node_id": "0.0-27.0", "trial": 0, "time_elapsed": 307903, "serialpos": 15, "key_press": -1, "wordID": 1532, "type": "PRES_AUD", "trial_index": 36}, "uniqueid": "MTK3111:33LK57MYLUC1JYBEMUVGC0TAMCDZS4", "dateTime": 1520021022120}, {"current_trial": 37, "trialdata": {"rt": -1000, "trial_type": "single-audio", "word": "drill", "stimulus": "/static/audio/wordpool/DRILL.wav", "conditions": [18, 1200, "a", 18000], "internal_node_id": "0.0-28.0", "trial": 0, "time_elapsed": 310297, "serialpos": 16, "key_press": -1, "wordID": 496, "type": "PRES_AUD", "trial_index": 37}, "uniqueid": "MTK3111:33LK57MYLUC1JYBEMUVGC0TAMCDZS4", "dateTime": 1520021024514}, {"current_trial": 38, "trialdata": {"rt": -1000, "trial_type": "single-audio", "word": "waitress", "stimulus": "/static/audio/wordpool/WAITRESS.wav", "conditions": [18, 1200, "a", 18000], "internal_node_id": "0.0-29.0", "trial": 0, "time_elapsed": 312419, "serialpos": 17, "key_press": -1, "wordID": 1580, "type": "PRES_AUD", "trial_index": 38}, "uniqueid": "MTK3111:33LK57MYLUC1JYBEMUVGC0TAMCDZS4", "dateTime": 1520021026636}, {"current_trial": 39, "trialdata": {"rt": -1, "trial_type": "single-stim", "stimulus": "", "internal_node_id": "0.0-30.0-0.0", "time_elapsed": 313694, "key_press": -1, "type": "PRE_RECALL_DELAY", "trial_index": 39}, "uniqueid": "MTK3111:33LK57MYLUC1JYBEMUVGC0TAMCDZS4", "dateTime": 1520021027912}, {"current_trial": 40, "trialdata": {"rt": -1000, "trial_type": "single-audio", "stimulus": "/static/audio/400Hz.wav", "internal_node_id": "0.0-31.0", "time_elapsed": 314198, "key_press": -1, "type": "PRE_RECALL_ALERT", "trial_index": 40}, "uniqueid": "MTK3111:33LK57MYLUC1JYBEMUVGC0TAMCDZS4", "dateTime": 1520021028415}, {"current_trial": 41, "trialdata": {"rt": [5765, 9534, 11100, 12434, 14022, 16275, 18806, 22083, 25283, 48522], "recwords": ["waitress", "trumbone", "slug", "snail", "frame", "ulcer", "subway", "mailman", "mail", "scalpel"], "key_times": [1718, 1879, 2061, 2346, 2611, 2885, 3271, 3430, 5765, 6569, 6719, 6887, 8273, 8695, 8972, 9057, 9269, 9534, 10194, 10387, 10638, 10843, 11100, 11509, 11649, 11869, 11994, 12189, 12434, 12772, 12965, 13164, 13688, 13802, 14022, 15298, 15491, 15654, 15867, 16013, 16275, 17640, 17774, 18031, 18206, 18405, 18477, 18806, 19089, 19278, 19385, 19599, 19924, 20053, 20735, 22083, 23763, 24002, 24138, 24303, 25283, 46108, 46329, 46537, 47221, 47523, 47725, 47784, 48522], "trial_type": "free-recall", "conditions": [18, 1200, "a", 18000], "internal_node_id": "0.0-32.0-0.0", "key_presses": [87, 65, 73, 84, 82, 69, 83, 83, 13, 84, 82, 85, 77, 66, 79, 78, 69, 13, 83, 76, 85, 71, 13, 83, 78, 65, 73, 76, 13, 70, 82, 65, 77, 69, 13, 85, 76, 67, 69, 82, 13, 83, 85, 66, 87, 65, 89, 13, 77, 65, 73, 76, 77, 65, 78, 13, 77, 65, 73, 76, 13, 83, 67, 65, 76, 80, 69, 76, 13], "trial": 0, "time_elapsed": 374209, "type": "FREE_RECALL", "trial_index": 41}, "uniqueid": "MTK3111:33LK57MYLUC1JYBEMUVGC0TAMCDZS4", "dateTime": 1520021088503}, {"current_trial": 42, "trialdata": {"rt": 1491, "trial_type": "text", "internal_node_id": "0.0-33.0", "time_elapsed": 377780, "key_press": 32, "type": "INSTRUCTIONS", "trial_index": 42}, "uniqueid": "MTK3111:33LK57MYLUC1JYBEMUVGC0TAMCDZS4", "dateTime": 1520021091997}, {"current_trial": 43, "trialdata": {"rt": [1952, 8155, 15330], "trial_type": "math-distractor", "key_times": [1472, 1583, 1952, 7912, 8049, 8155, 14849, 15250, 15330], "responses": ["12", "22", "25"], "num2": [5, 9, 9, 1], "num3": [2, 5, 8, 8], "conditions": [18, 1200, "a", 18000], "internal_node_id": "0.0-34.0", "key_presses": [49, 50, 13, 50, 50, 13, 50, 53, 13], "trial": 1, "time_elapsed": 397791, "type": "DISTRACTOR", "trial_index": 43, "num1": [5, 8, 8, 3]}, "uniqueid": "MTK3111:33LK57MYLUC1JYBEMUVGC0TAMCDZS4", "dateTime": 1520021112008}, {"current_trial": 44, "trialdata": {"rt": -1, "trial_type": "single-stim", "stimulus": "<p id=\"stim\">10</p>", "internal_node_id": "0.0-35.0-0.0", "time_elapsed": 400793, "key_press": -1, "trial_index": 44}, "uniqueid": "MTK3111:33LK57MYLUC1JYBEMUVGC0TAMCDZS4", "dateTime": 1520021115011}, {"current_trial": 45, "trialdata": {"rt": -1, "trial_type": "single-stim", "stimulus": "<p id=\"stim\">9</p>", "internal_node_id": "0.0-35.0-1.0", "time_elapsed": 401795, "key_press": -1, "trial_index": 45}, "uniqueid": "MTK3111:33LK57MYLUC1JYBEMUVGC0TAMCDZS4", "dateTime": 1520021116012}, {"current_trial": 46, "trialdata": {"rt": -1, "trial_type": "single-stim", "stimulus": "<p id=\"stim\">8</p>", "internal_node_id": "0.0-35.0-2.0", "time_elapsed": 402797, "key_press": -1, "trial_index": 46}, "uniqueid": "MTK3111:33LK57MYLUC1JYBEMUVGC0TAMCDZS4", "dateTime": 1520021117015}, {"current_trial": 47, "trialdata": {"rt": -1, "trial_type": "single-stim", "stimulus": "<p id=\"stim\">7</p>", "internal_node_id": "0.0-35.0-3.0", "time_elapsed": 403799, "key_press": -1, "trial_index": 47}, "uniqueid": "MTK3111:33LK57MYLUC1JYBEMUVGC0TAMCDZS4", "dateTime": 1520021118016}, {"current_trial": 48, "trialdata": {"rt": -1, "trial_type": "single-stim", "stimulus": "<p id=\"stim\">6</p>", "internal_node_id": "0.0-35.0-4.0", "time_elapsed": 404802, "key_press": -1, "trial_index": 48}, "uniqueid": "MTK3111:33LK57MYLUC1JYBEMUVGC0TAMCDZS4", "dateTime": 1520021119019}, {"current_trial": 49, "trialdata": {"rt": -1, "trial_type": "single-stim", "stimulus": "<p id=\"stim\">5</p>", "internal_node_id": "0.0-35.0-5.0", "time_elapsed": 405804, "key_press": -1, "trial_index": 49}, "uniqueid": "MTK3111:33LK57MYLUC1JYBEMUVGC0TAMCDZS4", "dateTime": 1520021120021}, {"current_trial": 50, "trialdata": {"rt": -1, "trial_type": "single-stim", "stimulus": "<p id=\"stim\">4</p>", "internal_node_id": "0.0-35.0-6.0", "time_elapsed": 406807, "key_press": -1, "trial_index": 50}, "uniqueid": "MTK3111:33LK57MYLUC1JYBEMUVGC0TAMCDZS4", "dateTime": 1520021121024}, {"current_trial": 51, "trialdata": {"rt": -1, "trial_type": "single-stim", "stimulus": "<p id=\"stim\">3</p>", "internal_node_id": "0.0-35.0-7.0", "time_elapsed": 407810, "key_press": -1, "trial_index": 51}, "uniqueid": "MTK3111:33LK57MYLUC1JYBEMUVGC0TAMCDZS4", "dateTime": 1520021122028}, {"current_trial": 52, "trialdata": {"rt": -1, "trial_type": "single-stim", "stimulus": "<p id=\"stim\">2</p>", "internal_node_id": "0.0-35.0-8.0", "time_elapsed": 408813, "key_press": -1, "trial_index": 52}, "uniqueid": "MTK3111:33LK57MYLUC1JYBEMUVGC0TAMCDZS4", "dateTime": 1520021123031}, {"current_trial": 53, "trialdata": {"rt": -1, "trial_type": "single-stim", "stimulus": "<p id=\"stim\">1</p>", "internal_node_id": "0.0-35.0-9.0", "time_elapsed": 409816, "key_press": -1, "trial_index": 53}, "uniqueid": "MTK3111:33LK57MYLUC1JYBEMUVGC0TAMCDZS4", "dateTime": 1520021124033}, {"current_trial": 54, "trialdata": {"rt": -1, "trial_type": "single-stim", "stimulus": "<p id=\"stim\">+</p>", "internal_node_id": "0.0-36.0-0.0", "time_elapsed": 411318, "key_press": -1, "type": "FIXATION", "trial_index": 54}, "uniqueid": "MTK3111:33LK57MYLUC1JYBEMUVGC0TAMCDZS4", "dateTime": 1520021125536}, {"current_trial": 55, "trialdata": {"rt": -1000, "trial_type": "single-audio", "word": "actor", "stimulus": "/static/audio/wordpool/ACTOR.wav", "conditions": [18, 1200, "a", 18000], "internal_node_id": "0.0-37.0", "trial": 1, "time_elapsed": 413604, "serialpos": 0, "key_press": -1, "wordID": 4, "type": "PRES_AUD", "trial_index": 55}, "uniqueid": "MTK3111:33LK57MYLUC1JYBEMUVGC0TAMCDZS4", "dateTime": 1520021127828}, {"current_trial": 56, "trialdata": {"rt": -1000, "trial_type": "single-audio", "word": "grill", "stimulus": "/static/audio/wordpool/GRILL.wav", "conditions": [18, 1200, "a", 18000], "internal_node_id": "0.0-38.0", "trial": 1, "time_elapsed": 415831, "serialpos": 1, "key_press": -1, "wordID": 660, "type": "PRES_AUD", "trial_index": 56}, "uniqueid": "MTK3111:33LK57MYLUC1JYBEMUVGC0TAMCDZS4", "dateTime": 1520021130048}, {"current_trial": 57, "trialdata": {"rt": -1000, "trial_type": "single-audio", "word": "county", "stimulus": "/static/audio/wordpool/COUNTY.wav", "conditions": [18, 1200, "a", 18000], "internal_node_id": "0.0-39.0", "trial": 1, "time_elapsed": 418135, "serialpos": 2, "key_press": -1, "wordID": 388, "type": "PRES_AUD", "trial_index": 57}, "uniqueid": "MTK3111:33LK57MYLUC1JYBEMUVGC0TAMCDZS4", "dateTime": 1520021132352}, {"current_trial": 58, "trialdata": {"rt": -1000, "trial_type": "single-audio", "word": "compass", "stimulus": "/static/audio/wordpool/COMPASS.wav", "conditions": [18, 1200, "a", 18000], "internal_node_id": "0.0-40.0", "trial": 1, "time_elapsed": 420409, "serialpos": 3, "key_press": -1, "wordID": 357, "type": "PRES_AUD", "trial_index": 58}, "uniqueid": "MTK3111:33LK57MYLUC1JYBEMUVGC0TAMCDZS4", "dateTime": 1520021134626}, {"current_trial": 59, "trialdata": {"rt": -1000, "trial_type": "single-audio", "word": "jelly", "stimulus": "/static/audio/wordpool/JELLY.wav", "conditions": [18, 1200, "a", 18000], "internal_node_id": "0.0-41.0", "trial": 1, "time_elapsed": 422489, "serialpos": 4, "key_press": -1, "wordID": 754, "type": "PRES_AUD", "trial_index": 59}, "uniqueid": "MTK3111:33LK57MYLUC1JYBEMUVGC0TAMCDZS4", "dateTime": 1520021136706}, {"current_trial": 60, "trialdata": {"rt": -1000, "trial_type": "single-audio", "word": "doughnut", "stimulus": "/static/audio/wordpool/DOUGHNUT.wav", "conditions": [18, 1200, "a", 18000], "internal_node_id": "0.0-42.0", "trial": 1, "time_elapsed": 424849, "serialpos": 5, "key_press": -1, "wordID": 489, "type": "PRES_AUD", "trial_index": 60}, "uniqueid": "MTK3111:33LK57MYLUC1JYBEMUVGC0TAMCDZS4", "dateTime": 1520021139066}, {"current_trial": 61, "trialdata": {"rt": -1000, "trial_type": "single-audio", "word": "country", "stimulus": "/static/audio/wordpool/COUNTRY.wav", "conditions": [18, 1200, "a", 18000], "internal_node_id": "0.0-43.0", "trial": 1, "time_elapsed": 427163, "serialpos": 6, "key_press": -1, "wordID": 387, "type": "PRES_AUD", "trial_index": 61}, "uniqueid": "MTK3111:33LK57MYLUC1JYBEMUVGC0TAMCDZS4", "dateTime": 1520021141380}, {"current_trial": 62, "trialdata": {"rt": -1000, "trial_type": "single-audio", "word": "dentist", "stimulus": "/static/audio/wordpool/DENTIST.wav", "conditions": [18, 1200, "a", 18000], "internal_node_id": "0.0-44.0", "trial": 1, "time_elapsed": 429303, "serialpos": 7, "key_press": -1, "wordID": 446, "type": "PRES_AUD", "trial_index": 62}, "uniqueid": "MTK3111:33LK57MYLUC1JYBEMUVGC0TAMCDZS4", "dateTime": 1520021143521}, {"current_trial": 63, "trialdata": {"rt": -1000, "trial_type": "single-audio", "word": "egypt", "stimulus": "/static/audio/wordpool/EGYPT.wav", "conditions": [18, 1200, "a", 18000], "internal_node_id": "0.0-45.0", "trial": 1, "time_elapsed": 431601, "serialpos": 8, "key_press": -1, "wordID": 518, "type": "PRES_AUD", "trial_index": 63}, "uniqueid": "MTK3111:33LK57MYLUC1JYBEMUVGC0TAMCDZS4", "dateTime": 1520021145818}, {"current_trial": 64, "trialdata": {"rt": -1000, "trial_type": "single-audio", "word": "seafood", "stimulus": "/static/audio/wordpool/SEAFOOD.wav", "conditions": [18, 1200, "a", 18000], "internal_node_id": "0.0-46.0", "trial": 1, "time_elapsed": 433888, "serialpos": 9, "key_press": -1, "wordID": 1259, "type": "PRES_AUD", "trial_index": 64}, "uniqueid": "MTK3111:33LK57MYLUC1JYBEMUVGC0TAMCDZS4", "dateTime": 1520021148106}, {"current_trial": 65, "trialdata": {"rt": -1000, "trial_type": "single-audio", "word": "rifle", "stimulus": "/static/audio/wordpool/RIFLE.wav", "conditions": [18, 1200, "a", 18000], "internal_node_id": "0.0-47.0", "trial": 1, "time_elapsed": 435929, "serialpos": 10, "key_press": -1, "wordID": 1191, "type": "PRES_AUD", "trial_index": 65}, "uniqueid": "MTK3111:33LK57MYLUC1JYBEMUVGC0TAMCDZS4", "dateTime": 1520021150147}, {"current_trial": 66, "trialdata": {"rt": -1000, "trial_type": "single-audio", "word": "worker", "stimulus": "/static/audio/wordpool/WORKER.wav", "conditions": [18, 1200, "a", 18000], "internal_node_id": "0.0-48.0", "trial": 1, "time_elapsed": 438104, "serialpos": 11, "key_press": -1, "wordID": 1620, "type": "PRES_AUD", "trial_index": 66}, "uniqueid": "MTK3111:33LK57MYLUC1JYBEMUVGC0TAMCDZS4", "dateTime": 1520021152321}, {"current_trial": 67, "trialdata": {"rt": -1000, "trial_type": "single-audio", "word": "pastry", "stimulus": "/static/audio/wordpool/PASTRY.wav", "conditions": [18, 1200, "a", 18000], "internal_node_id": "0.0-49.0", "trial": 1, "time_elapsed": 440129, "serialpos": 12, "key_press": -1, "wordID": 1021, "type": "PRES_AUD", "trial_index": 67}, "uniqueid": "MTK3111:33LK57MYLUC1JYBEMUVGC0TAMCDZS4", "dateTime": 1520021154346}, {"current_trial": 68, "trialdata": {"rt": -1000, "trial_type": "single-audio", "word": "hedge", "stimulus": "/static/audio/wordpool/HEDGE.wav", "conditions": [18, 1200, "a", 18000], "internal_node_id": "0.0-50.0", "trial": 1, "time_elapsed": 442157, "serialpos": 13, "key_press": -1, "wordID": 698, "type": "PRES_AUD", "trial_index": 68}, "uniqueid": "MTK3111:33LK57MYLUC1JYBEMUVGC0TAMCDZS4", "dateTime": 1520021156374}, {"current_trial": 69, "trialdata": {"rt": -1000, "trial_type": "single-audio", "word": "tart", "stimulus": "/static/audio/wordpool/TART.wav", "conditions": [18, 1200, "a", 18000], "internal_node_id": "0.0-51.0", "trial": 1, "time_elapsed": 444326, "serialpos": 14, "key_press": -1, "wordID": 1435, "type": "PRES_AUD", "trial_index": 69}, "uniqueid": "MTK3111:33LK57MYLUC1JYBEMUVGC0TAMCDZS4", "dateTime": 1520021158544}, {"current_trial": 70, "trialdata": {"rt": -1000, "trial_type": "single-audio", "word": "basement", "stimulus": "/static/audio/wordpool/BASEMENT.wav", "conditions": [18, 1200, "a", 18000], "internal_node_id": "0.0-52.0", "trial": 1, "time_elapsed": 446708, "serialpos": 15, "key_press": -1, "wordID": 93, "type": "PRES_AUD", "trial_index": 70}, "uniqueid": "MTK3111:33LK57MYLUC1JYBEMUVGC0TAMCDZS4", "dateTime": 1520021160926}, {"current_trial": 71, "trialdata": {"rt": -1000, "trial_type": "single-audio", "word": "notebook", "stimulus": "/static/audio/wordpool/NOTEBOOK.wav", "conditions": [18, 1200, "a", 18000], "internal_node_id": "0.0-53.0", "trial": 1, "time_elapsed": 449058, "serialpos": 16, "key_press": -1, "wordID": 958, "type": "PRES_AUD", "trial_index": 71}, "uniqueid": "MTK3111:33LK57MYLUC1JYBEMUVGC0TAMCDZS4", "dateTime": 1520021163275}, {"current_trial": 72, "trialdata": {"rt": -1000, "trial_type": "single-audio", "word": "helmet", "stimulus": "/static/audio/wordpool/HELMET.wav", "conditions": [18, 1200, "a", 18000], "internal_node_id": "0.0-54.0", "trial": 1, "time_elapsed": 451401, "serialpos": 17, "key_press": -1, "wordID": 701, "type": "PRES_AUD", "trial_index": 72}, "uniqueid": "MTK3111:33LK57MYLUC1JYBEMUVGC0TAMCDZS4", "dateTime": 1520021165618}, {"current_trial": 73, "trialdata": {"rt": -1, "trial_type": "single-stim", "stimulus": "", "internal_node_id": "0.0-55.0-0.0", "time_elapsed": 452783, "key_press": -1, "type": "PRE_RECALL_DELAY", "trial_index": 73}, "uniqueid": "MTK3111:33LK57MYLUC1JYBEMUVGC0TAMCDZS4", "dateTime": 1520021167000}, {"current_trial": 74, "trialdata": {"rt": -1000, "trial_type": "single-audio", "stimulus": "/static/audio/400Hz.wav", "internal_node_id": "0.0-56.0", "time_elapsed": 453287, "key_press": -1, "type": "PRE_RECALL_ALERT", "trial_index": 74}, "uniqueid": "MTK3111:33LK57MYLUC1JYBEMUVGC0TAMCDZS4", "dateTime": 1520021167504}, {"current_trial": 75, "trialdata": {"rt": [3680, 6011, 7760, 9649, 11427, 16481, 20254, 27225, 37919, 46715, 52408], "recwords": ["helmet", "notebook", "hedge", "jelly", "pastry", "worker", "egypt", "doctor", "dentist", "compass", "atlas"], "key_times": [1084, 1388, 1944, 2677, 2830, 3038, 3680, 4247, 4389, 4636, 4879, 5315, 5518, 5652, 5800, 6011, 6335, 6594, 6797, 7360, 7528, 7760, 8358, 8640, 8845, 8984, 9343, 9649, 9940, 10353, 10628, 10855, 11019, 11118, 11427, 15766, 15888, 16019, 16081, 16197, 16287, 16481, 18459, 18528, 19313, 19521, 19771, 19955, 20254, 26329, 26516, 26646, 26891, 26976, 27077, 27225, 36197, 36360, 36500, 36664, 36776, 36950, 37172, 37919, 44798, 44959, 45135, 45271, 45407, 45621, 45768, 46715, 51275, 51580, 51829, 51960, 52117, 52408], "trial_type": "free-recall", "conditions": [18, 1200, "a", 18000], "internal_node_id": "0.0-57.0-0.0", "key_presses": [72, 69, 76, 77, 69, 84, 13, 78, 79, 84, 69, 66, 79, 79, 75, 13, 72, 69, 68, 71, 69, 13, 74, 69, 76, 76, 89, 13, 80, 65, 83, 84, 82, 89, 13, 87, 79, 82, 75, 69, 82, 13, 16, 69, 71, 89, 80, 84, 13, 68, 79, 67, 84, 79, 82, 13, 68, 69, 78, 84, 73, 83, 84, 13, 67, 79, 77, 80, 65, 83, 83, 13, 65, 84, 76, 65, 83, 13], "trial": 1, "time_elapsed": 513296, "type": "FREE_RECALL", "trial_index": 75}, "uniqueid": "MTK3111:33LK57MYLUC1JYBEMUVGC0TAMCDZS4", "dateTime": 1520021227518}, {"current_trial": 76, "trialdata": {"rt": 3416, "trial_type": "text", "internal_node_id": "0.0-58.0", "time_elapsed": 518719, "key_press": 32, "type": "INSTRUCTIONS", "trial_index": 76}, "uniqueid": "MTK3111:33LK57MYLUC1JYBEMUVGC0TAMCDZS4", "dateTime": 1520021232936}, {"current_trial": 77, "trialdata": {"rt": [3506, 6091, 11270, 14627, 18292], "trial_type": "math-distractor", "key_times": [2258, 2592, 3506, 5593, 5854, 6091, 10554, 10692, 11270, 13835, 13971, 14627, 17353, 17861, 18292], "responses": ["17", "12", "22", "18", "15"], "num2": [1, 2, 8, 5, 3, 7], "num3": [7, 1, 5, 6, 7, 6], "conditions": [12, 800, "a", 24000], "internal_node_id": "0.0-59.0", "key_presses": [49, 55, 13, 49, 50, 13, 50, 50, 13, 49, 56, 13, 49, 53, 13], "trial": 2, "time_elapsed": 543728, "type": "DISTRACTOR", "trial_index": 77, "num1": [9, 9, 9, 7, 5, 8]}, "uniqueid": "MTK3111:33LK57MYLUC1JYBEMUVGC0TAMCDZS4", "dateTime": 1520021257945}, {"current_trial": 78, "trialdata": {"rt": -1, "trial_type": "single-stim", "stimulus": "<p id=\"stim\">10</p>", "internal_node_id": "0.0-60.0-0.0", "time_elapsed": 546733, "key_press": -1, "trial_index": 78}, "uniqueid": "MTK3111:33LK57MYLUC1JYBEMUVGC0TAMCDZS4", "dateTime": 1520021260950}, {"current_trial": 79, "trialdata": {"rt": -1, "trial_type": "single-stim", "stimulus": "<p id=\"stim\">9</p>", "internal_node_id": "0.0-60.0-1.0", "time_elapsed": 547736, "key_press": -1, "trial_index": 79}, "uniqueid": "MTK3111:33LK57MYLUC1JYBEMUVGC0TAMCDZS4", "dateTime": 1520021261953}, {"current_trial": 80, "trialdata": {"rt": -1, "trial_type": "single-stim", "stimulus": "<p id=\"stim\">8</p>", "internal_node_id": "0.0-60.0-2.0", "time_elapsed": 548739, "key_press": -1, "trial_index": 80}, "uniqueid": "MTK3111:33LK57MYLUC1JYBEMUVGC0TAMCDZS4", "dateTime": 1520021262956}, {"current_trial": 81, "trialdata": {"rt": -1, "trial_type": "single-stim", "stimulus": "<p id=\"stim\">7</p>", "internal_node_id": "0.0-60.0-3.0", "time_elapsed": 549741, "key_press": -1, "trial_index": 81}, "uniqueid": "MTK3111:33LK57MYLUC1JYBEMUVGC0TAMCDZS4", "dateTime": 1520021263958}, {"current_trial": 82, "trialdata": {"rt": -1, "trial_type": "single-stim", "stimulus": "<p id=\"stim\">6</p>", "internal_node_id": "0.0-60.0-4.0", "time_elapsed": 550743, "key_press": -1, "trial_index": 82}, "uniqueid": "MTK3111:33LK57MYLUC1JYBEMUVGC0TAMCDZS4", "dateTime": 1520021264960}, {"current_trial": 83, "trialdata": {"rt": -1, "trial_type": "single-stim", "stimulus": "<p id=\"stim\">5</p>", "internal_node_id": "0.0-60.0-5.0", "time_elapsed": 551747, "key_press": -1, "trial_index": 83}, "uniqueid": "MTK3111:33LK57MYLUC1JYBEMUVGC0TAMCDZS4", "dateTime": 1520021265964}, {"current_trial": 84, "trialdata": {"rt": -1, "trial_type": "single-stim", "stimulus": "<p id=\"stim\">4</p>", "internal_node_id": "0.0-60.0-6.0", "time_elapsed": 552750, "key_press": -1, "trial_index": 84}, "uniqueid": "MTK3111:33LK57MYLUC1JYBEMUVGC0TAMCDZS4", "dateTime": 1520021266967}, {"current_trial": 85, "trialdata": {"rt": -1, "trial_type": "single-stim", "stimulus": "<p id=\"stim\">3</p>", "internal_node_id": "0.0-60.0-7.0", "time_elapsed": 553751, "key_press": -1, "trial_index": 85}, "uniqueid": "MTK3111:33LK57MYLUC1JYBEMUVGC0TAMCDZS4", "dateTime": 1520021267968}, {"current_trial": 86, "trialdata": {"rt": -1, "trial_type": "single-stim", "stimulus": "<p id=\"stim\">2</p>", "internal_node_id": "0.0-60.0-8.0", "time_elapsed": 554755, "key_press": -1, "trial_index": 86}, "uniqueid": "MTK3111:33LK57MYLUC1JYBEMUVGC0TAMCDZS4", "dateTime": 1520021268972}, {"current_trial": 87, "trialdata": {"rt": -1, "trial_type": "single-stim", "stimulus": "<p id=\"stim\">1</p>", "internal_node_id": "0.0-60.0-9.0", "time_elapsed": 555757, "key_press": -1, "trial_index": 87}, "uniqueid": "MTK3111:33LK57MYLUC1JYBEMUVGC0TAMCDZS4", "dateTime": 1520021269974}, {"current_trial": 88, "trialdata": {"rt": -1, "trial_type": "single-stim", "stimulus": "<p id=\"stim\">+</p>", "internal_node_id": "0.0-61.0-0.0", "time_elapsed": 557259, "key_press": -1, "type": "FIXATION", "trial_index": 88}, "uniqueid": "MTK3111:33LK57MYLUC1JYBEMUVGC0TAMCDZS4", "dateTime": 1520021271476}, {"current_trial": 89, "trialdata": {"rt": -1000, "trial_type": "single-audio", "word": "spider", "stimulus": "/static/audio/wordpool/SPIDER.wav", "conditions": [12, 800, "a", 24000], "internal_node_id": "0.0-62.0", "trial": 2, "time_elapsed": 559167, "serialpos": 0, "key_press": -1, "wordID": 1350, "type": "PRES_AUD", "trial_index": 89}, "uniqueid": "MTK3111:33LK57MYLUC1JYBEMUVGC0TAMCDZS4", "dateTime": 1520021273384}, {"current_trial": 90, "trialdata": {"rt": -1000, "trial_type": "single-audio", "word": "brother", "stimulus": "/static/audio/wordpool/BROTHER.wav", "conditions": [12, 800, "a", 24000], "internal_node_id": "0.0-63.0", "trial": 2, "time_elapsed": 560970, "serialpos": 1, "key_press": -1, "wordID": 178, "type": "PRES_AUD", "trial_index": 90}, "uniqueid": "MTK3111:33LK57MYLUC1JYBEMUVGC0TAMCDZS4", "dateTime": 1520021275187}, {"current_trial": 91, "trialdata": {"rt": -1000, "trial_type": "single-audio", "word": "diner", "stimulus": "/static/audio/wordpool/DINER.wav", "conditions": [12, 800, "a", 24000], "internal_node_id": "0.0-64.0", "trial": 2, "time_elapsed": 562862, "serialpos": 2, "key_press": -1, "wordID": 466, "type": "PRES_AUD", "trial_index": 91}, "uniqueid": "MTK3111:33LK57MYLUC1JYBEMUVGC0TAMCDZS4", "dateTime": 1520021277079}, {"current_trial": 92, "trialdata": {"rt": -1000, "trial_type": "single-audio", "word": "sunset", "stimulus": "/static/audio/wordpool/SUNSET.wav", "conditions": [12, 800, "a", 24000], "internal_node_id": "0.0-65.0", "trial": 2, "time_elapsed": 564596, "serialpos": 3, "key_press": -1, "wordID": 1407, "type": "PRES_AUD", "trial_index": 92}, "uniqueid": "MTK3111:33LK57MYLUC1JYBEMUVGC0TAMCDZS4", "dateTime": 1520021278814}, {"current_trial": 93, "trialdata": {"rt": -1000, "trial_type": "single-audio", "word": "barrel", "stimulus": "/static/audio/wordpool/BARREL.wav", "conditions": [12, 800, "a", 24000], "internal_node_id": "0.0-66.0", "trial": 2, "time_elapsed": 566327, "serialpos": 4, "key_press": -1, "wordID": 90, "type": "PRES_AUD", "trial_index": 93}, "uniqueid": "MTK3111:33LK57MYLUC1JYBEMUVGC0TAMCDZS4", "dateTime": 1520021280544}, {"current_trial": 94, "trialdata": {"rt": -1000, "trial_type": "single-audio", "word": "bubble", "stimulus": "/static/audio/wordpool/BUBBLE.wav", "conditions": [12, 800, "a", 24000], "internal_node_id": "0.0-67.0", "trial": 2, "time_elapsed": 568195, "serialpos": 5, "key_press": -1, "wordID": 182, "type": "PRES_AUD", "trial_index": 94}, "uniqueid": "MTK3111:33LK57MYLUC1JYBEMUVGC0TAMCDZS4", "dateTime": 1520021282413}, {"current_trial": 95, "trialdata": {"rt": -1000, "trial_type": "single-audio", "word": "cafe", "stimulus": "/static/audio/wordpool/CAFE.wav", "conditions": [12, 800, "a", 24000], "internal_node_id": "0.0-68.0", "trial": 2, "time_elapsed": 569951, "serialpos": 6, "key_press": -1, "wordID": 215, "type": "PRES_AUD", "trial_index": 95}, "uniqueid": "MTK3111:33LK57MYLUC1JYBEMUVGC0TAMCDZS4", "dateTime": 1520021284168}, {"current_trial": 96, "trialdata": {"rt": -1000, "trial_type": "single-audio", "word": "nurse", "stimulus": "/static/audio/wordpool/NURSE.wav", "conditions": [12, 800, "a", 24000], "internal_node_id": "0.0-69.0", "trial": 2, "time_elapsed": 571741, "serialpos": 7, "key_press": -1, "wordID": 962, "type": "PRES_AUD", "trial_index": 96}, "uniqueid": "MTK3111:33LK57MYLUC1JYBEMUVGC0TAMCDZS4", "dateTime": 1520021285958}, {"current_trial": 97, "trialdata": {"rt": -1000, "trial_type": "single-audio", "word": "lunch", "stimulus": "/static/audio/wordpool/LUNCH.wav", "conditions": [12, 800, "a", 24000], "internal_node_id": "0.0-70.0", "trial": 2, "time_elapsed": 573443, "serialpos": 8, "key_press": -1, "wordID": 848, "type": "PRES_AUD", "trial_index": 97}, "uniqueid": "MTK3111:33LK57MYLUC1JYBEMUVGC0TAMCDZS4", "dateTime": 1520021287660}, {"current_trial": 98, "trialdata": {"rt": -1000, "trial_type": "single-audio", "word": "drink", "stimulus": "/static/audio/wordpool/DRINK.wav", "conditions": [12, 800, "a", 24000], "internal_node_id": "0.0-71.0", "trial": 2, "time_elapsed": 575108, "serialpos": 9, "key_press": -1, "wordID": 497, "type": "PRES_AUD", "trial_index": 98}, "uniqueid": "MTK3111:33LK57MYLUC1JYBEMUVGC0TAMCDZS4", "dateTime": 1520021289325}, {"current_trial": 99, "trialdata": {"rt": -1000, "trial_type": "single-audio", "word": "soda", "stimulus": "/static/audio/wordpool/SODA.wav", "conditions": [12, 800, "a", 24000], "internal_node_id": "0.0-72.0", "trial": 2, "time_elapsed": 576743, "serialpos": 10, "key_press": -1, "wordID": 1340, "type": "PRES_AUD", "trial_index": 99}, "uniqueid": "MTK3111:33LK57MYLUC1JYBEMUVGC0TAMCDZS4", "dateTime": 1520021290960}, {"current_trial": 100, "trialdata": {"rt": -1000, "trial_type": "single-audio", "word": "carrot", "stimulus": "/static/audio/wordpool/CARROT.wav", "conditions": [12, 800, "a", 24000], "internal_node_id": "0.0-73.0", "trial": 2, "time_elapsed": 578403, "serialpos": 11, "key_press": -1, "wordID": 248, "type": "PRES_AUD", "trial_index": 100}, "uniqueid": "MTK3111:33LK57MYLUC1JYBEMUVGC0TAMCDZS4", "dateTime": 1520021292620}, {"current_trial": 101, "trialdata": {"rt": -1, "trial_type": "single-stim", "stimulus": "", "internal_node_id": "0.0-74.0-0.0", "time_elapsed": 579687, "key_press": -1, "type": "PRE_RECALL_DELAY", "trial_index": 101}, "uniqueid": "MTK3111:33LK57MYLUC1JYBEMUVGC0TAMCDZS4", "dateTime": 1520021293905}, {"current_trial": 102, "trialdata": {"rt": -1000, "trial_type": "single-audio", "stimulus": "/static/audio/400Hz.wav", "internal_node_id": "0.0-75.0", "time_elapsed": 580189, "key_press": -1, "type": "PRE_RECALL_ALERT", "trial_index": 102}, "uniqueid": "MTK3111:33LK57MYLUC1JYBEMUVGC0TAMCDZS4", "dateTime": 1520021294407}, {"current_trial": 103, "trialdata": {"rt": [3236, 5393, 6883, 8189, 11059, 13806, 20532, 33302, 37259], "recwords": ["carrot", "soda", "brother", "nurse", "cafe", "nurse", "diner", "sunset", "barrel"], "key_times": [1201, 1669, 2112, 2286, 2511, 2715, 3236, 4076, 4300, 4887, 5107, 5393, 5762, 6011, 6178, 6352, 6466, 6573, 6615, 6883, 7148, 7404, 7530, 7755, 7909, 8189, 10329, 10512, 10677, 10799, 11059, 12887, 13093, 13219, 13438, 13597, 13806, 18844, 19028, 19171, 19595, 19819, 20532, 32386, 32502, 32676, 32738, 32912, 33072, 33302, 35885, 35994, 36286, 36414, 36703, 36827, 37259], "trial_type": "free-recall", "conditions": [12, 800, "a", 24000], "internal_node_id": "0.0-76.0-0.0", "key_presses": [67, 65, 82, 82, 79, 84, 13, 83, 79, 68, 65, 13, 66, 82, 79, 84, 72, 69, 82, 13, 78, 85, 82, 83, 69, 13, 67, 65, 70, 69, 13, 78, 85, 82, 83, 69, 13, 68, 73, 78, 69, 82, 13, 83, 85, 78, 83, 69, 84, 13, 66, 65, 82, 82, 69, 76, 13], "trial": 2, "time_elapsed": 640196, "type": "FREE_RECALL", "trial_index": 103}, "uniqueid": "MTK3111:33LK57MYLUC1JYBEMUVGC0TAMCDZS4", "dateTime": 1520021354417}, {"current_trial": 104, "trialdata": {"rt": 1592, "trial_type": "text", "internal_node_id": "0.0-77.0", "time_elapsed": 643797, "key_press": 32, "type": "INSTRUCTIONS", "trial_index": 104}, "uniqueid": "MTK3111:33LK57MYLUC1JYBEMUVGC0TAMCDZS4", "dateTime": 1520021358014}, {"current_trial": 105, "trialdata": {"rt": [6276, 11173], "trial_type": "math-distractor", "key_times": [5285, 6032, 6276, 10507, 10769, 11173], "responses": ["25", "12"], "num2": [9, 4, 1], "num3": [9, 5, 6], "conditions": [24, 1600, "a", 12000], "internal_node_id": "0.0-78.0", "key_presses": [50, 53, 13, 49, 50, 13], "trial": 3, "time_elapsed": 657804, "type": "DISTRACTOR", "trial_index": 105, "num1": [7, 3, 3]}, "uniqueid": "MTK3111:33LK57MYLUC1JYBEMUVGC0TAMCDZS4", "dateTime": 1520021372021}, {"current_trial": 106, "trialdata": {"rt": -1, "trial_type": "single-stim", "stimulus": "<p id=\"stim\">10</p>", "internal_node_id": "0.0-79.0-0.0", "time_elapsed": 660807, "key_press": -1, "trial_index": 106}, "uniqueid": "MTK3111:33LK57MYLUC1JYBEMUVGC0TAMCDZS4", "dateTime": 1520021375024}, {"current_trial": 107, "trialdata": {"rt": -1, "trial_type": "single-stim", "stimulus": "<p id=\"stim\">9</p>", "internal_node_id": "0.0-79.0-1.0", "time_elapsed": 661810, "key_press": -1, "trial_index": 107}, "uniqueid": "MTK3111:33LK57MYLUC1JYBEMUVGC0TAMCDZS4", "dateTime": 1520021376027}, {"current_trial": 108, "trialdata": {"rt": -1, "trial_type": "single-stim", "stimulus": "<p id=\"stim\">8</p>", "internal_node_id": "0.0-79.0-2.0", "time_elapsed": 662811, "key_press": -1, "trial_index": 108}, "uniqueid": "MTK3111:33LK57MYLUC1JYBEMUVGC0TAMCDZS4", "dateTime": 1520021377029}, {"current_trial": 109, "trialdata": {"rt": -1, "trial_type": "single-stim", "stimulus": "<p id=\"stim\">7</p>", "internal_node_id": "0.0-79.0-3.0", "time_elapsed": 663815, "key_press": -1, "trial_index": 109}, "uniqueid": "MTK3111:33LK57MYLUC1JYBEMUVGC0TAMCDZS4", "dateTime": 1520021378032}, {"current_trial": 110, "trialdata": {"rt": -1, "trial_type": "single-stim", "stimulus": "<p id=\"stim\">6</p>", "internal_node_id": "0.0-79.0-4.0", "time_elapsed": 664818, "key_press": -1, "trial_index": 110}, "uniqueid": "MTK3111:33LK57MYLUC1JYBEMUVGC0TAMCDZS4", "dateTime": 1520021379035}, {"current_trial": 111, "trialdata": {"rt": -1, "trial_type": "single-stim", "stimulus": "<p id=\"stim\">5</p>", "internal_node_id": "0.0-79.0-5.0", "time_elapsed": 665819, "key_press": -1, "trial_index": 111}, "uniqueid": "MTK3111:33LK57MYLUC1JYBEMUVGC0TAMCDZS4", "dateTime": 1520021380036}, {"current_trial": 112, "trialdata": {"rt": -1, "trial_type": "single-stim", "stimulus": "<p id=\"stim\">4</p>", "internal_node_id": "0.0-79.0-6.0", "time_elapsed": 666823, "key_press": -1, "trial_index": 112}, "uniqueid": "MTK3111:33LK57MYLUC1JYBEMUVGC0TAMCDZS4", "dateTime": 1520021381040}, {"current_trial": 113, "trialdata": {"rt": -1, "trial_type": "single-stim", "stimulus": "<p id=\"stim\">3</p>", "internal_node_id": "0.0-79.0-7.0", "time_elapsed": 667824, "key_press": -1, "trial_index": 113}, "uniqueid": "MTK3111:33LK57MYLUC1JYBEMUVGC0TAMCDZS4", "dateTime": 1520021382042}, {"current_trial": 114, "trialdata": {"rt": -1, "trial_type": "single-stim", "stimulus": "<p id=\"stim\">2</p>", "internal_node_id": "0.0-79.0-8.0", "time_elapsed": 668827, "key_press": -1, "trial_index": 114}, "uniqueid": "MTK3111:33LK57MYLUC1JYBEMUVGC0TAMCDZS4", "dateTime": 1520021383044}, {"current_trial": 115, "trialdata": {"rt": -1, "trial_type": "single-stim", "stimulus": "<p id=\"stim\">1</p>", "internal_node_id": "0.0-79.0-9.0", "time_elapsed": 669831, "key_press": -1, "trial_index": 115}, "uniqueid": "MTK3111:33LK57MYLUC1JYBEMUVGC0TAMCDZS4", "dateTime": 1520021384048}, {"current_trial": 116, "trialdata": {"rt": -1, "trial_type": "single-stim", "stimulus": "<p id=\"stim\">+</p>", "internal_node_id": "0.0-80.0-0.0", "time_elapsed": 671339, "key_press": -1, "type": "FIXATION", "trial_index": 116}, "uniqueid": "MTK3111:33LK57MYLUC1JYBEMUVGC0TAMCDZS4", "dateTime": 1520021385556}, {"current_trial": 117, "trialdata": {"rt": -1000, "trial_type": "single-audio", "word": "panther", "stimulus": "/static/audio/wordpool/PANTHER.wav", "conditions": [24, 1600, "a", 12000], "internal_node_id": "0.0-81.0", "trial": 3, "time_elapsed": 674012, "serialpos": 0, "key_press": -1, "wordID": 1008, "type": "PRES_AUD", "trial_index": 117}, "uniqueid": "MTK3111:33LK57MYLUC1JYBEMUVGC0TAMCDZS4", "dateTime": 1520021388229}, {"current_trial": 118, "trialdata": {"rt": -1000, "trial_type": "single-audio", "word": "dolphin", "stimulus": "/static/audio/wordpool/DOLPHIN.wav", "conditions": [24, 1600, "a", 12000], "internal_node_id": "0.0-82.0", "trial": 3, "time_elapsed": 676471, "serialpos": 1, "key_press": -1, "wordID": 482, "type": "PRES_AUD", "trial_index": 118}, "uniqueid": "MTK3111:33LK57MYLUC1JYBEMUVGC0TAMCDZS4", "dateTime": 1520021390688}, {"current_trial": 119, "trialdata": {"rt": -1000, "trial_type": "single-audio", "word": "clam", "stimulus": "/static/audio/wordpool/CLAM.wav", "conditions": [24, 1600, "a", 12000], "internal_node_id": "0.0-83.0", "trial": 3, "time_elapsed": 679232, "serialpos": 2, "key_press": -1, "wordID": 314, "type": "PRES_AUD", "trial_index": 119}, "uniqueid": "MTK3111:33LK57MYLUC1JYBEMUVGC0TAMCDZS4", "dateTime": 1520021393449}, {"current_trial": 120, "trialdata": {"rt": -1000, "trial_type": "single-audio", "word": "oyster", "stimulus": "/static/audio/wordpool/OYSTER.wav", "conditions": [24, 1600, "a", 12000], "internal_node_id": "0.0-84.0", "trial": 3, "time_elapsed": 681643, "serialpos": 3, "key_press": -1, "wordID": 994, "type": "PRES_AUD", "trial_index": 120}, "uniqueid": "MTK3111:33LK57MYLUC1JYBEMUVGC0TAMCDZS4", "dateTime": 1520021395860}, {"current_trial": 121, "trialdata": {"rt": -1000, "trial_type": "single-audio", "word": "cobra", "stimulus": "/static/audio/wordpool/COBRA.wav", "conditions": [24, 1600, "a", 12000], "internal_node_id": "0.0-85.0", "trial": 3, "time_elapsed": 684270, "serialpos": 4, "key_press": -1, "wordID": 335, "type": "PRES_AUD", "trial_index": 121}, "uniqueid": "MTK3111:33LK57MYLUC1JYBEMUVGC0TAMCDZS4", "dateTime": 1520021398487}, {"current_trial": 122, "trialdata": {"rt": -1000, "trial_type": "single-audio", "word": "japan", "stimulus": "/static/audio/wordpool/JAPAN.wav", "conditions": [24, 1600, "a", 12000], "internal_node_id": "0.0-86.0", "trial": 3, "time_elapsed": 686805, "serialpos": 5, "key_press": -1, "wordID": 748, "type": "PRES_AUD", "trial_index": 122}, "uniqueid": "MTK3111:33LK57MYLUC1JYBEMUVGC0TAMCDZS4", "dateTime": 1520021401022}, {"current_trial": 123, "trialdata": {"rt": -1000, "trial_type": "single-audio", "word": "garden", "stimulus": "/static/audio/wordpool/GARDEN.wav", "conditions": [24, 1600, "a", 12000], "internal_node_id": "0.0-87.0", "trial": 3, "time_elapsed": 689488, "serialpos": 6, "key_press": -1, "wordID": 622, "type": "PRES_AUD", "trial_index": 123}, "uniqueid": "MTK3111:33LK57MYLUC1JYBEMUVGC0TAMCDZS4", "dateTime": 1520021403705}, {"current_trial": 124, "trialdata": {"rt": -1000, "trial_type": "single-audio", "word": "belly", "stimulus": "/static/audio/wordpool/BELLY.wav", "conditions": [24, 1600, "a", 12000], "internal_node_id": "0.0-88.0", "trial": 3, "time_elapsed": 692068, "serialpos": 7, "key_press": -1, "wordID": 118, "type": "PRES_AUD", "trial_index": 124}, "uniqueid": "MTK3111:33LK57MYLUC1JYBEMUVGC0TAMCDZS4", "dateTime": 1520021406285}, {"current_trial": 125, "trialdata": {"rt": -1000, "trial_type": "single-audio", "word": "rocket", "stimulus": "/static/audio/wordpool/ROCKET.wav", "conditions": [24, 1600, "a", 12000], "internal_node_id": "0.0-89.0", "trial": 3, "time_elapsed": 694591, "serialpos": 8, "key_press": -1, "wordID": 1201, "type": "PRES_AUD", "trial_index": 125}, "uniqueid": "MTK3111:33LK57MYLUC1JYBEMUVGC0TAMCDZS4", "dateTime": 1520021408808}, {"current_trial": 126, "trialdata": {"rt": -1000, "trial_type": "single-audio", "word": "lagoon", "stimulus": "/static/audio/wordpool/LAGOON.wav", "conditions": [24, 1600, "a", 12000], "internal_node_id": "0.0-90.0", "trial": 3, "time_elapsed": 697144, "serialpos": 9, "key_press": -1, "wordID": 794, "type": "PRES_AUD", "trial_index": 126}, "uniqueid": "MTK3111:33LK57MYLUC1JYBEMUVGC0TAMCDZS4", "dateTime": 1520021411361}, {"current_trial": 127, "trialdata": {"rt": -1000, "trial_type": "single-audio", "word": "snake", "stimulus": "/static/audio/wordpool/SNAKE.wav", "conditions": [24, 1600, "a", 12000], "internal_node_id": "0.0-91.0", "trial": 3, "time_elapsed": 699812, "serialpos": 10, "key_press": -1, "wordID": 1332, "type": "PRES_AUD", "trial_index": 127}, "uniqueid": "MTK3111:33LK57MYLUC1JYBEMUVGC0TAMCDZS4", "dateTime": 1520021414029}, {"current_trial": 128, "trialdata": {"rt": -1000, "trial_type": "single-audio", "word": "skirt", "stimulus": "/static/audio/wordpool/SKIRT.wav", "conditions": [24, 1600, "a", 12000], "internal_node_id": "0.0-92.0", "trial": 3, "time_elapsed": 702599, "serialpos": 11, "key_press": -1, "wordID": 1318, "type": "PRES_AUD", "trial_index": 128}, "uniqueid": "MTK3111:33LK57MYLUC1JYBEMUVGC0TAMCDZS4", "dateTime": 1520021416816}, {"current_trial": 129, "trialdata": {"rt": -1000, "trial_type": "single-audio", "word": "window", "stimulus": "/static/audio/wordpool/WINDOW.wav", "conditions": [24, 1600, "a", 12000], "internal_node_id": "0.0-93.0", "trial": 3, "time_elapsed": 705357, "serialpos": 12, "key_press": -1, "wordID": 1610, "type": "PRES_AUD", "trial_index": 129}, "uniqueid": "MTK3111:33LK57MYLUC1JYBEMUVGC0TAMCDZS4", "dateTime": 1520021419574}, {"current_trial": 130, "trialdata": {"rt": -1000, "trial_type": "single-audio", "word": "crab", "stimulus": "/static/audio/wordpool/CRAB.wav", "conditions": [24, 1600, "a", 12000], "internal_node_id": "0.0-94.0", "trial": 3, "time_elapsed": 708018, "serialpos": 13, "key_press": -1, "wordID": 396, "type": "PRES_AUD", "trial_index": 130}, "uniqueid": "MTK3111:33LK57MYLUC1JYBEMUVGC0TAMCDZS4", "dateTime": 1520021422235}, {"current_trial": 131, "trialdata": {"rt": -1000, "trial_type": "single-audio", "word": "tourist", "stimulus": "/static/audio/wordpool/TOURIST.wav", "conditions": [24, 1600, "a", 12000], "internal_node_id": "0.0-95.0", "trial": 3, "time_elapsed": 710790, "serialpos": 14, "key_press": -1, "wordID": 1487, "type": "PRES_AUD", "trial_index": 131}, "uniqueid": "MTK3111:33LK57MYLUC1JYBEMUVGC0TAMCDZS4", "dateTime": 1520021425007}, {"current_trial": 132, "trialdata": {"rt": -1000, "trial_type": "single-audio", "word": "wardrobe", "stimulus": "/static/audio/wordpool/WARDROBE.wav", "conditions": [24, 1600, "a", 12000], "internal_node_id": "0.0-96.0", "trial": 3, "time_elapsed": 713276, "serialpos": 15, "key_press": -1, "wordID": 1586, "type": "PRES_AUD", "trial_index": 132}, "uniqueid": "MTK3111:33LK57MYLUC1JYBEMUVGC0TAMCDZS4", "dateTime": 1520021427493}, {"current_trial": 133, "trialdata": {"rt": -1000, "trial_type": "single-audio", "word": "pasta", "stimulus": "/static/audio/wordpool/PASTA.wav", "conditions": [24, 1600, "a", 12000], "internal_node_id": "0.0-97.0", "trial": 3, "time_elapsed": 715988, "serialpos": 16, "key_press": -1, "wordID": 1020, "type": "PRES_AUD", "trial_index": 133}, "uniqueid": "MTK3111:33LK57MYLUC1JYBEMUVGC0TAMCDZS4", "dateTime": 1520021430205}, {"current_trial": 134, "trialdata": {"rt": -1000, "trial_type": "single-audio", "word": "tweezers", "stimulus": "/static/audio/wordpool/TWEEZERS.wav", "conditions": [24, 1600, "a", 12000], "internal_node_id": "0.0-98.0", "trial": 3, "time_elapsed": 718412, "serialpos": 17, "key_press": -1, "wordID": 1525, "type": "PRES_AUD", "trial_index": 134}, "uniqueid": "MTK3111:33LK57MYLUC1JYBEMUVGC0TAMCDZS4", "dateTime": 1520021432629}, {"current_trial": 135, "trialdata": {"rt": -1000, "trial_type": "single-audio", "word": "label", "stimulus": "/static/audio/wordpool/LABEL.wav", "conditions": [24, 1600, "a", 12000], "internal_node_id": "0.0-99.0", "trial": 3, "time_elapsed": 720930, "serialpos": 18, "key_press": -1, "wordID": 789, "type": "PRES_AUD", "trial_index": 135}, "uniqueid": "MTK3111:33LK57MYLUC1JYBEMUVGC0TAMCDZS4", "dateTime": 1520021435148}, {"current_trial": 136, "trialdata": {"rt": -1000, "trial_type": "single-audio", "word": "salmon", "stimulus": "/static/audio/wordpool/SALMON.wav", "conditions": [24, 1600, "a", 12000], "internal_node_id": "0.0-100.0", "trial": 3, "time_elapsed": 723375, "serialpos": 19, "key_press": -1, "wordID": 1226, "type": "PRES_AUD", "trial_index": 136}, "uniqueid": "MTK3111:33LK57MYLUC1JYBEMUVGC0TAMCDZS4", "dateTime": 1520021437593}, {"current_trial": 137, "trialdata": {"rt": -1000, "trial_type": "single-audio", "word": "lace", "stimulus": "/static/audio/wordpool/LACE.wav", "conditions": [24, 1600, "a", 12000], "internal_node_id": "0.0-101.0", "trial": 3, "time_elapsed": 726142, "serialpos": 20, "key_press": -1, "wordID": 791, "type": "PRES_AUD", "trial_index": 137}, "uniqueid": "MTK3111:33LK57MYLUC1JYBEMUVGC0TAMCDZS4", "dateTime": 1520021440359}, {"current_trial": 138, "trialdata": {"rt": -1000, "trial_type": "single-audio", "word": "plaid", "stimulus": "/static/audio/wordpool/PLAID.wav", "conditions": [24, 1600, "a", 12000], "internal_node_id": "0.0-102.0", "trial": 3, "time_elapsed": 728692, "serialpos": 21, "key_press": -1, "wordID": 1079, "type": "PRES_AUD", "trial_index": 138}, "uniqueid": "MTK3111:33LK57MYLUC1JYBEMUVGC0TAMCDZS4", "dateTime": 1520021442912}, {"current_trial": 139, "trialdata": {"rt": -1000, "trial_type": "single-audio", "word": "dress", "stimulus": "/static/audio/wordpool/DRESS.wav", "conditions": [24, 1600, "a", 12000], "internal_node_id": "0.0-103.0", "trial": 3, "time_elapsed": 731258, "serialpos": 22, "key_press": -1, "wordID": 494, "type": "PRES_AUD", "trial_index": 139}, "uniqueid": "MTK3111:33LK57MYLUC1JYBEMUVGC0TAMCDZS4", "dateTime": 1520021445475}, {"current_trial": 140, "trialdata": {"rt": -1000, "trial_type": "single-audio", "word": "breast", "stimulus": "/static/audio/wordpool/BREAST.wav", "conditions": [24, 1600, "a", 12000], "internal_node_id": "0.0-104.0", "trial": 3, "time_elapsed": 733898, "serialpos": 23, "key_press": -1, "wordID": 170, "type": "PRES_AUD", "trial_index": 140}, "uniqueid": "MTK3111:33LK57MYLUC1JYBEMUVGC0TAMCDZS4", "dateTime": 1520021448115}, {"current_trial": 141, "trialdata": {"rt": -1, "trial_type": "single-stim", "stimulus": "", "internal_node_id": "0.0-105.0-0.0", "time_elapsed": 735193, "key_press": -1, "type": "PRE_RECALL_DELAY", "trial_index": 141}, "uniqueid": "MTK3111:33LK57MYLUC1JYBEMUVGC0TAMCDZS4", "dateTime": 1520021449411}, {"current_trial": 142, "trialdata": {"rt": -1000, "trial_type": "single-audio", "stimulus": "/static/audio/400Hz.wav", "internal_node_id": "0.0-106.0", "time_elapsed": 735698, "key_press": -1, "type": "PRE_RECALL_ALERT", "trial_index": 142}, "uniqueid": "MTK3111:33LK57MYLUC1JYBEMUVGC0TAMCDZS4", "dateTime": 1520021449915}, {"current_trial": 143, "trialdata": {"rt": [3323, 5312, 8424, 10567, 13346, 15427, 22453, 24624, 28399, 30662], "recwords": ["breast", "skirt", "dress", "plaid", "window", "label", "tweezers", "salmon", "oysters", "crabs"], "key_times": [815, 1755, 1973, 2211, 2412, 2651, 3323, 3973, 4411, 4584, 4837, 4992, 5312, 5692, 5998, 6265, 7033, 7246, 8424, 9247, 9500, 9871, 10089, 10249, 10567, 12204, 12412, 12564, 12795, 13007, 13116, 13346, 13730, 13949, 14123, 14328, 14486, 15427, 15849, 16049, 16295, 16554, 17108, 17729, 18255, 18702, 18804, 18807, 18810, 18877, 19028, 19168, 19516, 19758, 20086, 20650, 21306, 21696, 21872, 22120, 22453, 22809, 23401, 23606, 23874, 24101, 24246, 24624, 26340, 26708, 27076, 27479, 27672, 27763, 28112, 28399, 29543, 29795, 30021, 30215, 30345, 30662, 58736, 59002, 59352, 59632, 59944], "trial_type": "free-recall", "conditions": [24, 1600, "a", 12000], "internal_node_id": "0.0-107.0-0.0", "key_presses": [66, 82, 69, 65, 83, 84, 13, 83, 75, 73, 82, 84, 13, 68, 82, 69, 83, 83, 13, 80, 76, 65, 73, 68, 13, 87, 73, 78, 68, 79, 87, 13, 76, 65, 66, 69, 76, 13, 84, 87, 73, 90, 90, 69, 8, 8, 8, 8, 8, 8, 8, 8, 84, 87, 69, 69, 90, 69, 82, 83, 13, 83, 65, 76, 77, 79, 78, 13, 79, 89, 83, 84, 69, 82, 83, 13, 67, 82, 65, 66, 83, 13, 76, 65, 71, 79, 79], "trial": 3, "time_elapsed": 795708, "type": "FREE_RECALL", "trial_index": 143}, "uniqueid": "MTK3111:33LK57MYLUC1JYBEMUVGC0TAMCDZS4", "dateTime": 1520021509933}, {"current_trial": 144, "trialdata": {"rt": 2147, "trial_type": "text", "internal_node_id": "0.0-108.0", "time_elapsed": 799867, "key_press": 32, "type": "INSTRUCTIONS", "trial_index": 144}, "uniqueid": "MTK3111:33LK57MYLUC1JYBEMUVGC0TAMCDZS4", "dateTime": 1520021514084}, {"current_trial": 145, "trialdata": {"rt": [5440, 11039], "trial_type": "math-distractor", "key_times": [4771, 4849, 5440, 9920, 10262, 11039], "responses": ["19", "13"], "num2": [7, 3, 3], "num3": [7, 6, 9], "conditions": [24, 1600, "a", 12000], "internal_node_id": "0.0-109.0", "key_presses": [49, 57, 13, 49, 51, 13], "trial": 4, "time_elapsed": 813874, "type": "DISTRACTOR", "trial_index": 145, "num1": [5, 4, 3]}, "uniqueid": "MTK3111:33LK57MYLUC1JYBEMUVGC0TAMCDZS4", "dateTime": 1520021528091}, {"current_trial": 146, "trialdata": {"rt": -1, "trial_type": "single-stim", "stimulus": "<p id=\"stim\">10</p>", "internal_node_id": "0.0-110.0-0.0", "time_elapsed": 816881, "key_press": -1, "trial_index": 146}, "uniqueid": "MTK3111:33LK57MYLUC1JYBEMUVGC0TAMCDZS4", "dateTime": 1520021531098}, {"current_trial": 147, "trialdata": {"rt": -1, "trial_type": "single-stim", "stimulus": "<p id=\"stim\">9</p>", "internal_node_id": "0.0-110.0-1.0", "time_elapsed": 817885, "key_press": -1, "trial_index": 147}, "uniqueid": "MTK3111:33LK57MYLUC1JYBEMUVGC0TAMCDZS4", "dateTime": 1520021532102}, {"current_trial": 148, "trialdata": {"rt": -1, "trial_type": "single-stim", "stimulus": "<p id=\"stim\">8</p>", "internal_node_id": "0.0-110.0-2.0", "time_elapsed": 818886, "key_press": -1, "trial_index": 148}, "uniqueid": "MTK3111:33LK57MYLUC1JYBEMUVGC0TAMCDZS4", "dateTime": 1520021533103}, {"current_trial": 149, "trialdata": {"rt": -1, "trial_type": "single-stim", "stimulus": "<p id=\"stim\">7</p>", "internal_node_id": "0.0-110.0-3.0", "time_elapsed": 819890, "key_press": -1, "trial_index": 149}, "uniqueid": "MTK3111:33LK57MYLUC1JYBEMUVGC0TAMCDZS4", "dateTime": 1520021534107}, {"current_trial": 150, "trialdata": {"rt": -1, "trial_type": "single-stim", "stimulus": "<p id=\"stim\">6</p>", "internal_node_id": "0.0-110.0-4.0", "time_elapsed": 820892, "key_press": -1, "trial_index": 150}, "uniqueid": "MTK3111:33LK57MYLUC1JYBEMUVGC0TAMCDZS4", "dateTime": 1520021535110}, {"current_trial": 151, "trialdata": {"rt": -1, "trial_type": "single-stim", "stimulus": "<p id=\"stim\">5</p>", "internal_node_id": "0.0-110.0-5.0", "time_elapsed": 821897, "key_press": -1, "trial_index": 151}, "uniqueid": "MTK3111:33LK57MYLUC1JYBEMUVGC0TAMCDZS4", "dateTime": 1520021536114}, {"current_trial": 152, "trialdata": {"rt": -1, "trial_type": "single-stim", "stimulus": "<p id=\"stim\">4</p>", "internal_node_id": "0.0-110.0-6.0", "time_elapsed": 822900, "key_press": -1, "trial_index": 152}, "uniqueid": "MTK3111:33LK57MYLUC1JYBEMUVGC0TAMCDZS4", "dateTime": 1520021537117}, {"current_trial": 153, "trialdata": {"rt": -1, "trial_type": "single-stim", "stimulus": "<p id=\"stim\">3</p>", "internal_node_id": "0.0-110.0-7.0", "time_elapsed": 823902, "key_press": -1, "trial_index": 153}, "uniqueid": "MTK3111:33LK57MYLUC1JYBEMUVGC0TAMCDZS4", "dateTime": 1520021538119}, {"current_trial": 154, "trialdata": {"rt": -1, "trial_type": "single-stim", "stimulus": "<p id=\"stim\">2</p>", "internal_node_id": "0.0-110.0-8.0", "time_elapsed": 824905, "key_press": -1, "trial_index": 154}, "uniqueid": "MTK3111:33LK57MYLUC1JYBEMUVGC0TAMCDZS4", "dateTime": 1520021539123}, {"current_trial": 155, "trialdata": {"rt": -1, "trial_type": "single-stim", "stimulus": "<p id=\"stim\">1</p>", "internal_node_id": "0.0-110.0-9.0", "time_elapsed": 825909, "key_press": -1, "trial_index": 155}, "uniqueid": "MTK3111:33LK57MYLUC1JYBEMUVGC0TAMCDZS4", "dateTime": 1520021540126}, {"current_trial": 156, "trialdata": {"rt": -1, "trial_type": "single-stim", "stimulus": "<p id=\"stim\">+</p>", "internal_node_id": "0.0-111.0-0.0", "time_elapsed": 827411, "key_press": -1, "type": "FIXATION", "trial_index": 156}, "uniqueid": "MTK3111:33LK57MYLUC1JYBEMUVGC0TAMCDZS4", "dateTime": 1520021541629}, {"current_trial": 157, "trialdata": {"rt": 2332.290249433072, "trial_type": "single-audio", "word": "thread", "stimulus": "/static/audio/wordpool/THREAD.wav", "conditions": [24, 1600, "a", 12000], "internal_node_id": "0.0-112.0", "trial": 4, "time_elapsed": 829989, "serialpos": 0, "key_press": 175, "wordID": 1459, "type": "PRES_AUD", "trial_index": 157}, "uniqueid": "MTK3111:33LK57MYLUC1JYBEMUVGC0TAMCDZS4", "dateTime": 1520021544206}, {"current_trial": 158, "trialdata": {"rt": 297.6417233559232, "trial_type": "single-audio", "word": "stone", "stimulus": "/static/audio/wordpool/STONE.wav", "conditions": [24, 1600, "a", 12000], "internal_node_id": "0.0-113.0", "trial": 4, "time_elapsed": 832461, "serialpos": 1, "key_press": 175, "wordID": 1384, "type": "PRES_AUD", "trial_index": 158}, "uniqueid": "MTK3111:33LK57MYLUC1JYBEMUVGC0TAMCDZS4", "dateTime": 1520021546678}, {"current_trial": 159, "trialdata": {"rt": -1000, "trial_type": "single-audio", "word": "trench", "stimulus": "/static/audio/wordpool/TRENCH.wav", "conditions": [24, 1600, "a", 12000], "internal_node_id": "0.0-114.0", "trial": 4, "time_elapsed": 835060, "serialpos": 2, "key_press": -1, "wordID": 1502, "type": "PRES_AUD", "trial_index": 159}, "uniqueid": "MTK3111:33LK57MYLUC1JYBEMUVGC0TAMCDZS4", "dateTime": 1520021549277}, {"current_trial": 160, "trialdata": {"rt": -1000, "trial_type": "single-audio", "word": "pimple", "stimulus": "/static/audio/wordpool/PIMPLE.wav", "conditions": [24, 1600, "a", 12000], "internal_node_id": "0.0-115.0", "trial": 4, "time_elapsed": 837828, "serialpos": 3, "key_press": -1, "wordID": 1070, "type": "PRES_AUD", "trial_index": 160}, "uniqueid": "MTK3111:33LK57MYLUC1JYBEMUVGC0TAMCDZS4", "dateTime": 1520021552045}, {"current_trial": 161, "trialdata": {"rt": -1000, "trial_type": "single-audio", "word": "freckle", "stimulus": "/static/audio/wordpool/FRECKLE.wav", "conditions": [24, 1600, "a", 12000], "internal_node_id": "0.0-116.0", "trial": 4, "time_elapsed": 840464, "serialpos": 4, "key_press": -1, "wordID": 601, "type": "PRES_AUD", "trial_index": 161}, "uniqueid": "MTK3111:33LK57MYLUC1JYBEMUVGC0TAMCDZS4", "dateTime": 1520021554682}, {"current_trial": 162, "trialdata": {"rt": -1000, "trial_type": "single-audio", "word": "hamper", "stimulus": "/static/audio/wordpool/HAMPER.wav", "conditions": [24, 1600, "a", 12000], "internal_node_id": "0.0-117.0", "trial": 4, "time_elapsed": 843136, "serialpos": 5, "key_press": -1, "wordID": 681, "type": "PRES_AUD", "trial_index": 162}, "uniqueid": "MTK3111:33LK57MYLUC1JYBEMUVGC0TAMCDZS4", "dateTime": 1520021557354}, {"current_trial": 163, "trialdata": {"rt": -1000, "trial_type": "single-audio", "word": "couch", "stimulus": "/static/audio/wordpool/COUCH.wav", "conditions": [24, 1600, "a", 12000], "internal_node_id": "0.0-118.0", "trial": 4, "time_elapsed": 845717, "serialpos": 6, "key_press": -1, "wordID": 385, "type": "PRES_AUD", "trial_index": 163}, "uniqueid": "MTK3111:33LK57MYLUC1JYBEMUVGC0TAMCDZS4", "dateTime": 1520021559934}, {"current_trial": 164, "trialdata": {"rt": -1000, "trial_type": "single-audio", "word": "church", "stimulus": "/static/audio/wordpool/CHURCH.wav", "conditions": [24, 1600, "a", 12000], "internal_node_id": "0.0-119.0", "trial": 4, "time_elapsed": 848185, "serialpos": 7, "key_press": -1, "wordID": 306, "type": "PRES_AUD", "trial_index": 164}, "uniqueid": "MTK3111:33LK57MYLUC1JYBEMUVGC0TAMCDZS4", "dateTime": 1520021562402}, {"current_trial": 165, "trialdata": {"rt": -1000, "trial_type": "single-audio", "word": "cookbook", "stimulus": "/static/audio/wordpool/COOKBOOK.wav", "conditions": [24, 1600, "a", 12000], "internal_node_id": "0.0-120.0", "trial": 4, "time_elapsed": 850684, "serialpos": 8, "key_press": -1, "wordID": 372, "type": "PRES_AUD", "trial_index": 165}, "uniqueid": "MTK3111:33LK57MYLUC1JYBEMUVGC0TAMCDZS4", "dateTime": 1520021564901}, {"current_trial": 166, "trialdata": {"rt": -1000, "trial_type": "single-audio", "word": "blueprint", "stimulus": "/static/audio/wordpool/BLUEPRINT.wav", "conditions": [24, 1600, "a", 12000], "internal_node_id": "0.0-121.0", "trial": 4, "time_elapsed": 853167, "serialpos": 9, "key_press": -1, "wordID": 141, "type": "PRES_AUD", "trial_index": 166}, "uniqueid": "MTK3111:33LK57MYLUC1JYBEMUVGC0TAMCDZS4", "dateTime": 1520021567384}, {"current_trial": 167, "trialdata": {"rt": -1000, "trial_type": "single-audio", "word": "brick", "stimulus": "/static/audio/wordpool/BRICK.wav", "conditions": [24, 1600, "a", 12000], "internal_node_id": "0.0-122.0", "trial": 4, "time_elapsed": 855911, "serialpos": 10, "key_press": -1, "wordID": 171, "type": "PRES_AUD", "trial_index": 167}, "uniqueid": "MTK3111:33LK57MYLUC1JYBEMUVGC0TAMCDZS4", "dateTime": 1520021570128}, {"current_trial": 168, "trialdata": {"rt": -1000, "trial_type": "single-audio", "word": "flashlight", "stimulus": "/static/audio/wordpool/FLASHLIGHT.wav", "conditions": [24, 1600, "a", 12000], "internal_node_id": "0.0-123.0", "trial": 4, "time_elapsed": 858456, "serialpos": 11, "key_press": -1, "wordID": 574, "type": "PRES_AUD", "trial_index": 168}, "uniqueid": "MTK3111:33LK57MYLUC1JYBEMUVGC0TAMCDZS4", "dateTime": 1520021572674}, {"current_trial": 169, "trialdata": {"rt": -1000, "trial_type": "single-audio", "word": "police", "stimulus": "/static/audio/wordpool/POLICE.wav", "conditions": [24, 1600, "a", 12000], "internal_node_id": "0.0-124.0", "trial": 4, "time_elapsed": 861051, "serialpos": 12, "key_press": -1, "wordID": 1097, "type": "PRES_AUD", "trial_index": 169}, "uniqueid": "MTK3111:33LK57MYLUC1JYBEMUVGC0TAMCDZS4", "dateTime": 1520021575268}, {"current_trial": 170, "trialdata": {"rt": -1000, "trial_type": "single-audio", "word": "match", "stimulus": "/static/audio/wordpool/MATCH.wav", "conditions": [24, 1600, "a", 12000], "internal_node_id": "0.0-125.0", "trial": 4, "time_elapsed": 863539, "serialpos": 13, "key_press": -1, "wordID": 877, "type": "PRES_AUD", "trial_index": 170}, "uniqueid": "MTK3111:33LK57MYLUC1JYBEMUVGC0TAMCDZS4", "dateTime": 1520021577756}, {"current_trial": 171, "trialdata": {"rt": -1000, "trial_type": "single-audio", "word": "thief", "stimulus": "/static/audio/wordpool/THIEF.wav", "conditions": [24, 1600, "a", 12000], "internal_node_id": "0.0-126.0", "trial": 4, "time_elapsed": 866239, "serialpos": 14, "key_press": -1, "wordID": 1455, "type": "PRES_AUD", "trial_index": 171}, "uniqueid": "MTK3111:33LK57MYLUC1JYBEMUVGC0TAMCDZS4", "dateTime": 1520021580456}, {"current_trial": 172, "trialdata": {"rt": -1000, "trial_type": "single-audio", "word": "badge", "stimulus": "/static/audio/wordpool/BADGE.wav", "conditions": [24, 1600, "a", 12000], "internal_node_id": "0.0-127.0", "trial": 4, "time_elapsed": 868757, "serialpos": 15, "key_press": -1, "wordID": 67, "type": "PRES_AUD", "trial_index": 172}, "uniqueid": "MTK3111:33LK57MYLUC1JYBEMUVGC0TAMCDZS4", "dateTime": 1520021582974}, {"current_trial": 173, "trialdata": {"rt": -1000, "trial_type": "single-audio", "word": "salad", "stimulus": "/static/audio/wordpool/SALAD.wav", "conditions": [24, 1600, "a", 12000], "internal_node_id": "0.0-128.0", "trial": 4, "time_elapsed": 871529, "serialpos": 16, "key_press": -1, "wordID": 1223, "type": "PRES_AUD", "trial_index": 173}, "uniqueid": "MTK3111:33LK57MYLUC1JYBEMUVGC0TAMCDZS4", "dateTime": 1520021585746}, {"current_trial": 174, "trialdata": {"rt": -1000, "trial_type": "single-audio", "word": "clothes", "stimulus": "/static/audio/wordpool/CLOTHES.wav", "conditions": [24, 1600, "a", 12000], "internal_node_id": "0.0-129.0", "trial": 4, "time_elapsed": 874276, "serialpos": 17, "key_press": -1, "wordID": 326, "type": "PRES_AUD", "trial_index": 174}, "uniqueid": "MTK3111:33LK57MYLUC1JYBEMUVGC0TAMCDZS4", "dateTime": 1520021588493}, {"current_trial": 175, "trialdata": {"rt": -1000, "trial_type": "single-audio", "word": "nightgown", "stimulus": "/static/audio/wordpool/NIGHTGOWN.wav", "conditions": [24, 1600, "a", 12000], "internal_node_id": "0.0-130.0", "trial": 4, "time_elapsed": 877006, "serialpos": 18, "key_press": -1, "wordID": 952, "type": "PRES_AUD", "trial_index": 175}, "uniqueid": "MTK3111:33LK57MYLUC1JYBEMUVGC0TAMCDZS4", "dateTime": 1520021591223}, {"current_trial": 176, "trialdata": {"rt": -1000, "trial_type": "single-audio", "word": "kleenex", "stimulus": "/static/audio/wordpool/KLEENEX.wav", "conditions": [24, 1600, "a", 12000], "internal_node_id": "0.0-131.0", "trial": 4, "time_elapsed": 879730, "serialpos": 19, "key_press": -1, "wordID": 781, "type": "PRES_AUD", "trial_index": 176}, "uniqueid": "MTK3111:33LK57MYLUC1JYBEMUVGC0TAMCDZS4", "dateTime": 1520021593948}, {"current_trial": 177, "trialdata": {"rt": -1000, "trial_type": "single-audio", "word": "coffee", "stimulus": "/static/audio/wordpool/COFFEE.wav", "conditions": [24, 1600, "a", 12000], "internal_node_id": "0.0-132.0", "trial": 4, "time_elapsed": 882136, "serialpos": 20, "key_press": -1, "wordID": 340, "type": "PRES_AUD", "trial_index": 177}, "uniqueid": "MTK3111:33LK57MYLUC1JYBEMUVGC0TAMCDZS4", "dateTime": 1520021596353}, {"current_trial": 178, "trialdata": {"rt": -1000, "trial_type": "single-audio", "word": "garlic", "stimulus": "/static/audio/wordpool/GARLIC.wav", "conditions": [24, 1600, "a", 12000], "internal_node_id": "0.0-133.0", "trial": 4, "time_elapsed": 884639, "serialpos": 21, "key_press": -1, "wordID": 623, "type": "PRES_AUD", "trial_index": 178}, "uniqueid": "MTK3111:33LK57MYLUC1JYBEMUVGC0TAMCDZS4", "dateTime": 1520021598856}, {"current_trial": 179, "trialdata": {"rt": -1000, "trial_type": "single-audio", "word": "wrench", "stimulus": "/static/audio/wordpool/WRENCH.wav", "conditions": [24, 1600, "a", 12000], "internal_node_id": "0.0-134.0", "trial": 4, "time_elapsed": 887413, "serialpos": 22, "key_press": -1, "wordID": 1624, "type": "PRES_AUD", "trial_index": 179}, "uniqueid": "MTK3111:33LK57MYLUC1JYBEMUVGC0TAMCDZS4", "dateTime": 1520021601631}, {"current_trial": 180, "trialdata": {"rt": -1000, "trial_type": "single-audio", "word": "baby", "stimulus": "/static/audio/wordpool/BABY.wav", "conditions": [24, 1600, "a", 12000], "internal_node_id": "0.0-135.0", "trial": 4, "time_elapsed": 889993, "serialpos": 23, "key_press": -1, "wordID": 63, "type": "PRES_AUD", "trial_index": 180}, "uniqueid": "MTK3111:33LK57MYLUC1JYBEMUVGC0TAMCDZS4", "dateTime": 1520021604210}, {"current_trial": 181, "trialdata": {"rt": -1, "trial_type": "single-stim", "stimulus": "", "internal_node_id": "0.0-136.0-0.0", "time_elapsed": 891216, "key_press": -1, "type": "PRE_RECALL_DELAY", "trial_index": 181}, "uniqueid": "MTK3111:33LK57MYLUC1JYBEMUVGC0TAMCDZS4", "dateTime": 1520021605433}, {"current_trial": 182, "trialdata": {"rt": -1000, "trial_type": "single-audio", "stimulus": "/static/audio/400Hz.wav", "internal_node_id": "0.0-137.0", "time_elapsed": 891720, "key_press": -1, "type": "PRE_RECALL_ALERT", "trial_index": 182}, "uniqueid": "MTK3111:33LK57MYLUC1JYBEMUVGC0TAMCDZS4", "dateTime": 1520021605937}, {"current_trial": 183, "trialdata": {"rt": [2194, 5060, 8501, 11536, 13374, 16029, 24649, 29363, 40143], "recwords": ["baby", "kleenex", "policeman", "clothes", "badgw", "badge", "wrench", "garlic", "coffee"], "key_times": [1261, 1464, 1577, 1826, 2194, 2718, 3269, 3635, 3792, 3934, 4459, 4718, 5060, 5754, 5973, 6175, 6381, 6634, 6828, 7312, 7549, 7668, 8501, 9150, 9630, 9897, 10015, 10278, 10606, 10794, 10922, 11162, 11536, 11894, 12146, 12450, 12805, 13025, 13374, 14169, 14791, 14993, 15368, 15585, 16029, 16601, 17191, 17385, 17880, 18512, 18785, 18896, 19508, 19885, 20022, 20162, 20305, 20452, 20602, 20899, 21226, 21388, 22494, 23185, 23445, 24190, 24267, 24649, 28047, 28221, 28476, 28807, 28991, 29092, 29363, 38575, 38730, 39027, 39188, 39477, 39597, 40143], "trial_type": "free-recall", "conditions": [24, 1600, "a", 12000], "internal_node_id": "0.0-138.0-0.0", "key_presses": [66, 65, 66, 89, 13, 75, 76, 69, 69, 78, 69, 88, 13, 80, 79, 76, 73, 67, 69, 77, 65, 78, 13, 66, 8, 67, 76, 79, 84, 72, 69, 83, 13, 66, 65, 68, 71, 87, 13, 66, 65, 68, 71, 69, 13, 87, 82, 69, 78, 84, 67, 72, 8, 8, 8, 8, 8, 8, 8, 87, 82, 69, 84, 8, 78, 67, 72, 13, 71, 65, 82, 76, 73, 67, 13, 67, 79, 70, 70, 69, 69, 13], "trial": 4, "time_elapsed": 951726, "type": "FREE_RECALL", "trial_index": 183}, "uniqueid": "MTK3111:33LK57MYLUC1JYBEMUVGC0TAMCDZS4", "dateTime": 1520021665947}, {"current_trial": 184, "trialdata": {"rt": 6512, "trial_type": "text", "internal_node_id": "0.0-139.0", "time_elapsed": 960248, "key_press": 32, "type": "INSTRUCTIONS", "trial_index": 184}, "uniqueid": "MTK3111:33LK57MYLUC1JYBEMUVGC0TAMCDZS4", "dateTime": 1520021674465}, {"current_trial": 185, "trialdata": {"rt": [4384, 7551, 11090, 13620, 22361], "trial_type": "math-distractor", "key_times": [3248, 3401, 4384, 7155, 7329, 7551, 10159, 10754, 11090, 13208, 13620, 21769, 22018, 22361], "responses": ["17", "12", "16", "9", "22"], "num2": [5, 7, 9, 2, 5, 5], "num3": [9, 3, 2, 6, 9, 4], "conditions": [24, 1600, "a", 24000], "internal_node_id": "0.0-140.0", "key_presses": [49, 55, 13, 49, 50, 13, 49, 54, 13, 57, 13, 50, 50, 13], "trial": 5, "time_elapsed": 986256, "type": "DISTRACTOR", "trial_index": 185, "num1": [3, 2, 5, 1, 8, 5]}, "uniqueid": "MTK3111:33LK57MYLUC1JYBEMUVGC0TAMCDZS4", "dateTime": 1520021700473}, {"current_trial": 186, "trialdata": {"rt": -1, "trial_type": "single-stim", "stimulus": "<p id=\"stim\">10</p>", "internal_node_id": "0.0-141.0-0.0", "time_elapsed": 989259, "key_press": -1, "trial_index": 186}, "uniqueid": "MTK3111:33LK57MYLUC1JYBEMUVGC0TAMCDZS4", "dateTime": 1520021703477}, {"current_trial": 187, "trialdata": {"rt": -1, "trial_type": "single-stim", "stimulus": "<p id=\"stim\">9</p>", "internal_node_id": "0.0-141.0-1.0", "time_elapsed": 990261, "key_press": -1, "trial_index": 187}, "uniqueid": "MTK3111:33LK57MYLUC1JYBEMUVGC0TAMCDZS4", "dateTime": 1520021704479}, {"current_trial": 188, "trialdata": {"rt": -1, "trial_type": "single-stim", "stimulus": "<p id=\"stim\">8</p>", "internal_node_id": "0.0-141.0-2.0", "time_elapsed": 991264, "key_press": -1, "trial_index": 188}, "uniqueid": "MTK3111:33LK57MYLUC1JYBEMUVGC0TAMCDZS4", "dateTime": 1520021705481}, {"current_trial": 189, "trialdata": {"rt": -1, "trial_type": "single-stim", "stimulus": "<p id=\"stim\">7</p>", "internal_node_id": "0.0-141.0-3.0", "time_elapsed": 992267, "key_press": -1, "trial_index": 189}, "uniqueid": "MTK3111:33LK57MYLUC1JYBEMUVGC0TAMCDZS4", "dateTime": 1520021706484}, {"current_trial": 190, "trialdata": {"rt": -1, "trial_type": "single-stim", "stimulus": "<p id=\"stim\">6</p>", "internal_node_id": "0.0-141.0-4.0", "time_elapsed": 993271, "key_press": -1, "trial_index": 190}, "uniqueid": "MTK3111:33LK57MYLUC1JYBEMUVGC0TAMCDZS4", "dateTime": 1520021707489}, {"current_trial": 191, "trialdata": {"rt": -1, "trial_type": "single-stim", "stimulus": "<p id=\"stim\">5</p>", "internal_node_id": "0.0-141.0-5.0", "time_elapsed": 994276, "key_press": -1, "trial_index": 191}, "uniqueid": "MTK3111:33LK57MYLUC1JYBEMUVGC0TAMCDZS4", "dateTime": 1520021708493}, {"current_trial": 192, "trialdata": {"rt": -1, "trial_type": "single-stim", "stimulus": "<p id=\"stim\">4</p>", "internal_node_id": "0.0-141.0-6.0", "time_elapsed": 995279, "key_press": -1, "trial_index": 192}, "uniqueid": "MTK3111:33LK57MYLUC1JYBEMUVGC0TAMCDZS4", "dateTime": 1520021709496}, {"current_trial": 193, "trialdata": {"rt": -1, "trial_type": "single-stim", "stimulus": "<p id=\"stim\">3</p>", "internal_node_id": "0.0-141.0-7.0", "time_elapsed": 996284, "key_press": -1, "trial_index": 193}, "uniqueid": "MTK3111:33LK57MYLUC1JYBEMUVGC0TAMCDZS4", "dateTime": 1520021710501}, {"current_trial": 194, "trialdata": {"rt": -1, "trial_type": "single-stim", "stimulus": "<p id=\"stim\">2</p>", "internal_node_id": "0.0-141.0-8.0", "time_elapsed": 997287, "key_press": -1, "trial_index": 194}, "uniqueid": "MTK3111:33LK57MYLUC1JYBEMUVGC0TAMCDZS4", "dateTime": 1520021711504}, {"current_trial": 195, "trialdata": {"rt": -1, "trial_type": "single-stim", "stimulus": "<p id=\"stim\">1</p>", "internal_node_id": "0.0-141.0-9.0", "time_elapsed": 998290, "key_press": -1, "trial_index": 195}, "uniqueid": "MTK3111:33LK57MYLUC1JYBEMUVGC0TAMCDZS4", "dateTime": 1520021712508}, {"current_trial": 196, "trialdata": {"rt": -1, "trial_type": "single-stim", "stimulus": "<p id=\"stim\">+</p>", "internal_node_id": "0.0-142.0-0.0", "time_elapsed": 999794, "key_press": -1, "type": "FIXATION", "trial_index": 196}, "uniqueid": "MTK3111:33LK57MYLUC1JYBEMUVGC0TAMCDZS4", "dateTime": 1520021714011}, {"current_trial": 197, "trialdata": {"rt": -1000, "trial_type": "single-audio", "word": "ozone", "stimulus": "/static/audio/wordpool/OZONE.wav", "conditions": [24, 1600, "a", 24000], "internal_node_id": "0.0-143.0", "trial": 5, "time_elapsed": 1002512, "serialpos": 0, "key_press": -1, "wordID": 995, "type": "PRES_AUD", "trial_index": 197}, "uniqueid": "MTK3111:33LK57MYLUC1JYBEMUVGC0TAMCDZS4", "dateTime": 1520021716729}, {"current_trial": 198, "trialdata": {"rt": -1000, "trial_type": "single-audio", "word": "college", "stimulus": "/static/audio/wordpool/COLLEGE.wav", "conditions": [24, 1600, "a", 24000], "internal_node_id": "0.0-144.0", "trial": 5, "time_elapsed": 1005233, "serialpos": 1, "key_press": -1, "wordID": 345, "type": "PRES_AUD", "trial_index": 198}, "uniqueid": "MTK3111:33LK57MYLUC1JYBEMUVGC0TAMCDZS4", "dateTime": 1520021719450}, {"current_trial": 199, "trialdata": {"rt": -1000, "trial_type": "single-audio", "word": "student", "stimulus": "/static/audio/wordpool/STUDENT.wav", "conditions": [24, 1600, "a", 24000], "internal_node_id": "0.0-145.0", "trial": 5, "time_elapsed": 1007895, "serialpos": 2, "key_press": -1, "wordID": 1394, "type": "PRES_AUD", "trial_index": 199}, "uniqueid": "MTK3111:33LK57MYLUC1JYBEMUVGC0TAMCDZS4", "dateTime": 1520021722112}, {"current_trial": 200, "trialdata": {"rt": -1000, "trial_type": "single-audio", "word": "sausage", "stimulus": "/static/audio/wordpool/SAUSAGE.wav", "conditions": [24, 1600, "a", 24000], "internal_node_id": "0.0-146.0", "trial": 5, "time_elapsed": 1010548, "serialpos": 3, "key_press": -1, "wordID": 1237, "type": "PRES_AUD", "trial_index": 200}, "uniqueid": "MTK3111:33LK57MYLUC1JYBEMUVGC0TAMCDZS4", "dateTime": 1520021724765}, {"current_trial": 201, "trialdata": {"rt": -1000, "trial_type": "single-audio", "word": "parsley", "stimulus": "/static/audio/wordpool/PARSLEY.wav", "conditions": [24, 1600, "a", 24000], "internal_node_id": "0.0-147.0", "trial": 5, "time_elapsed": 1013099, "serialpos": 4, "key_press": -1, "wordID": 1015, "type": "PRES_AUD", "trial_index": 201}, "uniqueid": "MTK3111:33LK57MYLUC1JYBEMUVGC0TAMCDZS4", "dateTime": 1520021727316}, {"current_trial": 202, "trialdata": {"rt": -1000, "trial_type": "single-audio", "word": "cashew", "stimulus": "/static/audio/wordpool/CASHEW.wav", "conditions": [24, 1600, "a", 24000], "internal_node_id": "0.0-148.0", "trial": 5, "time_elapsed": 1015707, "serialpos": 5, "key_press": -1, "wordID": 252, "type": "PRES_AUD", "trial_index": 202}, "uniqueid": "MTK3111:33LK57MYLUC1JYBEMUVGC0TAMCDZS4", "dateTime": 1520021729924}, {"current_trial": 203, "trialdata": {"rt": -1000, "trial_type": "single-audio", "word": "coin", "stimulus": "/static/audio/wordpool/COIN.wav", "conditions": [24, 1600, "a", 24000], "internal_node_id": "0.0-149.0", "trial": 5, "time_elapsed": 1018471, "serialpos": 6, "key_press": -1, "wordID": 342, "type": "PRES_AUD", "trial_index": 203}, "uniqueid": "MTK3111:33LK57MYLUC1JYBEMUVGC0TAMCDZS4", "dateTime": 1520021732688}, {"current_trial": 204, "trialdata": {"rt": -1000, "trial_type": "single-audio", "word": "mummy", "stimulus": "/static/audio/wordpool/MUMMY.wav", "conditions": [24, 1600, "a", 24000], "internal_node_id": "0.0-150.0", "trial": 5, "time_elapsed": 1021189, "serialpos": 7, "key_press": -1, "wordID": 931, "type": "PRES_AUD", "trial_index": 204}, "uniqueid": "MTK3111:33LK57MYLUC1JYBEMUVGC0TAMCDZS4", "dateTime": 1520021735406}, {"current_trial": 205, "trialdata": {"rt": -1000, "trial_type": "single-audio", "word": "victim", "stimulus": "/static/audio/wordpool/VICTIM.wav", "conditions": [24, 1600, "a", 24000], "internal_node_id": "0.0-151.0", "trial": 5, "time_elapsed": 1023690, "serialpos": 8, "key_press": -1, "wordID": 1561, "type": "PRES_AUD", "trial_index": 205}, "uniqueid": "MTK3111:33LK57MYLUC1JYBEMUVGC0TAMCDZS4", "dateTime": 1520021737907}, {"current_trial": 206, "trialdata": {"rt": -1000, "trial_type": "single-audio", "word": "hook", "stimulus": "/static/audio/wordpool/HOOK.wav", "conditions": [24, 1600, "a", 24000], "internal_node_id": "0.0-152.0", "trial": 5, "time_elapsed": 1026253, "serialpos": 9, "key_press": -1, "wordID": 714, "type": "PRES_AUD", "trial_index": 206}, "uniqueid": "MTK3111:33LK57MYLUC1JYBEMUVGC0TAMCDZS4", "dateTime": 1520021740470}, {"current_trial": 207, "trialdata": {"rt": -1000, "trial_type": "single-audio", "word": "pork", "stimulus": "/static/audio/wordpool/PORK.wav", "conditions": [24, 1600, "a", 24000], "internal_node_id": "0.0-153.0", "trial": 5, "time_elapsed": 1028914, "serialpos": 10, "key_press": -1, "wordID": 1107, "type": "PRES_AUD", "trial_index": 207}, "uniqueid": "MTK3111:33LK57MYLUC1JYBEMUVGC0TAMCDZS4", "dateTime": 1520021743131}, {"current_trial": 208, "trialdata": {"rt": -1000, "trial_type": "single-audio", "word": "crib", "stimulus": "/static/audio/wordpool/CRIB.wav", "conditions": [24, 1600, "a", 24000], "internal_node_id": "0.0-154.0", "trial": 5, "time_elapsed": 1031342, "serialpos": 11, "key_press": -1, "wordID": 406, "type": "PRES_AUD", "trial_index": 208}, "uniqueid": "MTK3111:33LK57MYLUC1JYBEMUVGC0TAMCDZS4", "dateTime": 1520021745559}, {"current_trial": 209, "trialdata": {"rt": -1000, "trial_type": "single-audio", "word": "relish", "stimulus": "/static/audio/wordpool/RELISH.wav", "conditions": [24, 1600, "a", 24000], "internal_node_id": "0.0-155.0", "trial": 5, "time_elapsed": 1034035, "serialpos": 12, "key_press": -1, "wordID": 1182, "type": "PRES_AUD", "trial_index": 209}, "uniqueid": "MTK3111:33LK57MYLUC1JYBEMUVGC0TAMCDZS4", "dateTime": 1520021748252}, {"current_trial": 210, "trialdata": {"rt": -1000, "trial_type": "single-audio", "word": "spoon", "stimulus": "/static/audio/wordpool/SPOON.wav", "conditions": [24, 1600, "a", 24000], "internal_node_id": "0.0-156.0", "trial": 5, "time_elapsed": 1036558, "serialpos": 13, "key_press": -1, "wordID": 1356, "type": "PRES_AUD", "trial_index": 210}, "uniqueid": "MTK3111:33LK57MYLUC1JYBEMUVGC0TAMCDZS4", "dateTime": 1520021750775}, {"current_trial": 211, "trialdata": {"rt": -1000, "trial_type": "single-audio", "word": "quail", "stimulus": "/static/audio/wordpool/QUAIL.wav", "conditions": [24, 1600, "a", 24000], "internal_node_id": "0.0-157.0", "trial": 5, "time_elapsed": 1039222, "serialpos": 14, "key_press": -1, "wordID": 1146, "type": "PRES_AUD", "trial_index": 211}, "uniqueid": "MTK3111:33LK57MYLUC1JYBEMUVGC0TAMCDZS4", "dateTime": 1520021753439}, {"current_trial": 212, "trialdata": {"rt": -1000, "trial_type": "single-audio", "word": "daisy", "stimulus": "/static/audio/wordpool/DAISY.wav", "conditions": [24, 1600, "a", 24000], "internal_node_id": "0.0-158.0", "trial": 5, "time_elapsed": 1041715, "serialpos": 15, "key_press": -1, "wordID": 434, "type": "PRES_AUD", "trial_index": 212}, "uniqueid": "MTK3111:33LK57MYLUC1JYBEMUVGC0TAMCDZS4", "dateTime": 1520021755933}, {"current_trial": 213, "trialdata": {"rt": -1000, "trial_type": "single-audio", "word": "blackboard", "stimulus": "/static/audio/wordpool/BLACKBOARD.wav", "conditions": [24, 1600, "a", 24000], "internal_node_id": "0.0-159.0", "trial": 5, "time_elapsed": 1044260, "serialpos": 16, "key_press": -1, "wordID": 132, "type": "PRES_AUD", "trial_index": 213}, "uniqueid": "MTK3111:33LK57MYLUC1JYBEMUVGC0TAMCDZS4", "dateTime": 1520021758477}, {"current_trial": 214, "trialdata": {"rt": -1000, "trial_type": "single-audio", "word": "creature", "stimulus": "/static/audio/wordpool/CREATURE.wav", "conditions": [24, 1600, "a", 24000], "internal_node_id": "0.0-160.0", "trial": 5, "time_elapsed": 1046827, "serialpos": 17, "key_press": -1, "wordID": 402, "type": "PRES_AUD", "trial_index": 214}, "uniqueid": "MTK3111:33LK57MYLUC1JYBEMUVGC0TAMCDZS4", "dateTime": 1520021761044}, {"current_trial": 215, "trialdata": {"rt": -1000, "trial_type": "single-audio", "word": "chest", "stimulus": "/static/audio/wordpool/CHEST.wav", "conditions": [24, 1600, "a", 24000], "internal_node_id": "0.0-161.0", "trial": 5, "time_elapsed": 1049395, "serialpos": 18, "key_press": -1, "wordID": 294, "type": "PRES_AUD", "trial_index": 215}, "uniqueid": "MTK3111:33LK57MYLUC1JYBEMUVGC0TAMCDZS4", "dateTime": 1520021763612}, {"current_trial": 216, "trialdata": {"rt": -1000, "trial_type": "single-audio", "word": "seal", "stimulus": "/static/audio/wordpool/SEAL.wav", "conditions": [24, 1600, "a", 24000], "internal_node_id": "0.0-162.0", "trial": 5, "time_elapsed": 1051892, "serialpos": 19, "key_press": -1, "wordID": 1261, "type": "PRES_AUD", "trial_index": 216}, "uniqueid": "MTK3111:33LK57MYLUC1JYBEMUVGC0TAMCDZS4", "dateTime": 1520021766109}, {"current_trial": 217, "trialdata": {"rt": -1000, "trial_type": "single-audio", "word": "candy", "stimulus": "/static/audio/wordpool/CANDY.wav", "conditions": [24, 1600, "a", 24000], "internal_node_id": "0.0-163.0", "trial": 5, "time_elapsed": 1054459, "serialpos": 20, "key_press": -1, "wordID": 229, "type": "PRES_AUD", "trial_index": 217}, "uniqueid": "MTK3111:33LK57MYLUC1JYBEMUVGC0TAMCDZS4", "dateTime": 1520021768676}, {"current_trial": 218, "trialdata": {"rt": -1000, "trial_type": "single-audio", "word": "popcorn", "stimulus": "/static/audio/wordpool/POPCORN.wav", "conditions": [24, 1600, "a", 24000], "internal_node_id": "0.0-164.0", "trial": 5, "time_elapsed": 1057169, "serialpos": 21, "key_press": -1, "wordID": 1103, "type": "PRES_AUD", "trial_index": 218}, "uniqueid": "MTK3111:33LK57MYLUC1JYBEMUVGC0TAMCDZS4", "dateTime": 1520021771386}, {"current_trial": 219, "trialdata": {"rt": -1000, "trial_type": "single-audio", "word": "stomach", "stimulus": "/static/audio/wordpool/STOMACH.wav", "conditions": [24, 1600, "a", 24000], "internal_node_id": "0.0-165.0", "trial": 5, "time_elapsed": 1059796, "serialpos": 22, "key_press": -1, "wordID": 1383, "type": "PRES_AUD", "trial_index": 219}, "uniqueid": "MTK3111:33LK57MYLUC1JYBEMUVGC0TAMCDZS4", "dateTime": 1520021774013}, {"current_trial": 220, "trialdata": {"rt": -1000, "trial_type": "single-audio", "word": "bacon", "stimulus": "/static/audio/wordpool/BACON.wav", "conditions": [24, 1600, "a", 24000], "internal_node_id": "0.0-166.0", "trial": 5, "time_elapsed": 1062577, "serialpos": 23, "key_press": -1, "wordID": 66, "type": "PRES_AUD", "trial_index": 220}, "uniqueid": "MTK3111:33LK57MYLUC1JYBEMUVGC0TAMCDZS4", "dateTime": 1520021776794}, {"current_trial": 221, "trialdata": {"rt": -1, "trial_type": "single-stim", "stimulus": "", "internal_node_id": "0.0-167.0-0.0", "time_elapsed": 1063867, "key_press": -1, "type": "PRE_RECALL_DELAY", "trial_index": 221}, "uniqueid": "MTK3111:33LK57MYLUC1JYBEMUVGC0TAMCDZS4", "dateTime": 1520021778084}, {"current_trial": 222, "trialdata": {"rt": -1000, "trial_type": "single-audio", "stimulus": "/static/audio/400Hz.wav", "internal_node_id": "0.0-168.0", "time_elapsed": 1064370, "key_press": -1, "type": "PRE_RECALL_ALERT", "trial_index": 222}, "uniqueid": "MTK3111:33LK57MYLUC1JYBEMUVGC0TAMCDZS4", "dateTime": 1520021778587}, {"current_trial": 223, "trialdata": {"rt": [2153, 3707, 6010, 7712, 10583, 11988, 15578, 32872, 40305], "recwords": ["stomach", "bacon", "popcorn", "candy", "creature", "seal", "ozone", "hook", "quail"], "key_times": [751, 1123, 1284, 1453, 1623, 1784, 1881, 2153, 2648, 2866, 3032, 3128, 3183, 3707, 4468, 4748, 4934, 5206, 5347, 5568, 5628, 6010, 6384, 6568, 6651, 6801, 7039, 7712, 8200, 8484, 8808, 9028, 9419, 9685, 9973, 10244, 10583, 10898, 11176, 11381, 11597, 11988, 14238, 14515, 14786, 14890, 15339, 15578, 32099, 32299, 32434, 32602, 32872, 38034, 39190, 39584, 39772, 39960, 40305], "trial_type": "free-recall", "conditions": [24, 1600, "a", 24000], "internal_node_id": "0.0-169.0-0.0", "key_presses": [83, 84, 79, 77, 65, 67, 72, 13, 66, 65, 67, 79, 78, 13, 80, 79, 80, 67, 79, 82, 78, 13, 67, 65, 78, 68, 89, 13, 67, 82, 69, 65, 84, 85, 82, 69, 13, 83, 69, 65, 76, 13, 79, 90, 79, 78, 69, 13, 72, 79, 79, 75, 13, 81, 85, 65, 73, 76, 13], "trial": 5, "time_elapsed": 1124375, "type": "FREE_RECALL", "trial_index": 223}, "uniqueid": "MTK3111:33LK57MYLUC1JYBEMUVGC0TAMCDZS4", "dateTime": 1520021838597}, {"current_trial": 224, "trialdata": {"rt": 2439, "trial_type": "text", "internal_node_id": "0.0-170.0", "time_elapsed": 1128822, "key_press": 32, "type": "INSTRUCTIONS", "trial_index": 224}, "uniqueid": "MTK3111:33LK57MYLUC1JYBEMUVGC0TAMCDZS4", "dateTime": 1520021843039}, {"current_trial": 225, "trialdata": {"rt": [6269, 8555, 14002, 20500], "trial_type": "math-distractor", "key_times": [5677, 5990, 6269, 8168, 8350, 8555, 13315, 13469, 14002, 17616, 20500], "responses": ["14", "21", "23", "9"], "num2": [1, 7, 7, 3, 3], "num3": [8, 7, 8, 4, 3], "conditions": [12, 1600, "a", 24000], "internal_node_id": "0.0-171.0", "key_presses": [49, 52, 13, 50, 49, 13, 50, 51, 13, 57, 13], "trial": 6, "time_elapsed": 1154833, "type": "DISTRACTOR", "trial_index": 225, "num1": [5, 7, 8, 2, 6]}, "uniqueid": "MTK3111:33LK57MYLUC1JYBEMUVGC0TAMCDZS4", "dateTime": 1520021869050}, {"current_trial": 226, "trialdata": {"rt": -1, "trial_type": "single-stim", "stimulus": "<p id=\"stim\">10</p>", "internal_node_id": "0.0-172.0-0.0", "time_elapsed": 1157837, "key_press": -1, "trial_index": 226}, "uniqueid": "MTK3111:33LK57MYLUC1JYBEMUVGC0TAMCDZS4", "dateTime": 1520021872055}, {"current_trial": 227, "trialdata": {"rt": -1, "trial_type": "single-stim", "stimulus": "<p id=\"stim\">9</p>", "internal_node_id": "0.0-172.0-1.0", "time_elapsed": 1158842, "key_press": -1, "trial_index": 227}, "uniqueid": "MTK3111:33LK57MYLUC1JYBEMUVGC0TAMCDZS4", "dateTime": 1520021873059}, {"current_trial": 228, "trialdata": {"rt": -1, "trial_type": "single-stim", "stimulus": "<p id=\"stim\">8</p>", "internal_node_id": "0.0-172.0-2.0", "time_elapsed": 1159846, "key_press": -1, "trial_index": 228}, "uniqueid": "MTK3111:33LK57MYLUC1JYBEMUVGC0TAMCDZS4", "dateTime": 1520021874063}, {"current_trial": 229, "trialdata": {"rt": -1, "trial_type": "single-stim", "stimulus": "<p id=\"stim\">7</p>", "internal_node_id": "0.0-172.0-3.0", "time_elapsed": 1160851, "key_press": -1, "trial_index": 229}, "uniqueid": "MTK3111:33LK57MYLUC1JYBEMUVGC0TAMCDZS4", "dateTime": 1520021875068}, {"current_trial": 230, "trialdata": {"rt": -1, "trial_type": "single-stim", "stimulus": "<p id=\"stim\">6</p>", "internal_node_id": "0.0-172.0-4.0", "time_elapsed": 1161853, "key_press": -1, "trial_index": 230}, "uniqueid": "MTK3111:33LK57MYLUC1JYBEMUVGC0TAMCDZS4", "dateTime": 1520021876070}, {"current_trial": 231, "trialdata": {"rt": -1, "trial_type": "single-stim", "stimulus": "<p id=\"stim\">5</p>", "internal_node_id": "0.0-172.0-5.0", "time_elapsed": 1162855, "key_press": -1, "trial_index": 231}, "uniqueid": "MTK3111:33LK57MYLUC1JYBEMUVGC0TAMCDZS4", "dateTime": 1520021877073}, {"current_trial": 232, "trialdata": {"rt": -1, "trial_type": "single-stim", "stimulus": "<p id=\"stim\">4</p>", "internal_node_id": "0.0-172.0-6.0", "time_elapsed": 1163875, "key_press": -1, "trial_index": 232}, "uniqueid": "MTK3111:33LK57MYLUC1JYBEMUVGC0TAMCDZS4", "dateTime": 1520021878093}, {"current_trial": 233, "trialdata": {"rt": -1, "trial_type": "single-stim", "stimulus": "<p id=\"stim\">3</p>", "internal_node_id": "0.0-172.0-7.0", "time_elapsed": 1164880, "key_press": -1, "trial_index": 233}, "uniqueid": "MTK3111:33LK57MYLUC1JYBEMUVGC0TAMCDZS4", "dateTime": 1520021879097}, {"current_trial": 234, "trialdata": {"rt": -1, "trial_type": "single-stim", "stimulus": "<p id=\"stim\">2</p>", "internal_node_id": "0.0-172.0-8.0", "time_elapsed": 1165884, "key_press": -1, "trial_index": 234}, "uniqueid": "MTK3111:33LK57MYLUC1JYBEMUVGC0TAMCDZS4", "dateTime": 1520021880101}, {"current_trial": 235, "trialdata": {"rt": -1, "trial_type": "single-stim", "stimulus": "<p id=\"stim\">1</p>", "internal_node_id": "0.0-172.0-9.0", "time_elapsed": 1166887, "key_press": -1, "trial_index": 235}, "uniqueid": "MTK3111:33LK57MYLUC1JYBEMUVGC0TAMCDZS4", "dateTime": 1520021881104}, {"current_trial": 236, "trialdata": {"rt": -1, "trial_type": "single-stim", "stimulus": "<p id=\"stim\">+</p>", "internal_node_id": "0.0-173.0-0.0", "time_elapsed": 1168390, "key_press": -1, "type": "FIXATION", "trial_index": 236}, "uniqueid": "MTK3111:33LK57MYLUC1JYBEMUVGC0TAMCDZS4", "dateTime": 1520021882607}, {"current_trial": 237, "trialdata": {"rt": 2010.1133786849914, "trial_type": "single-audio", "word": "sparrow", "stimulus": "/static/audio/wordpool/SPARROW.wav", "conditions": [12, 1600, "a", 24000], "internal_node_id": "0.0-174.0", "trial": 6, "time_elapsed": 1170855, "serialpos": 0, "key_press": 175, "wordID": 1346, "type": "PRES_AUD", "trial_index": 237}, "uniqueid": "MTK3111:33LK57MYLUC1JYBEMUVGC0TAMCDZS4", "dateTime": 1520021885072}, {"current_trial": 238, "trialdata": {"rt": 10.294784580537453, "trial_type": "single-audio", "word": "pigment", "stimulus": "/static/audio/wordpool/PIGMENT.wav", "conditions": [12, 1600, "a", 24000], "internal_node_id": "0.0-175.0", "trial": 6, "time_elapsed": 1173332, "serialpos": 1, "key_press": 175, "wordID": 1065, "type": "PRES_AUD", "trial_index": 238}, "uniqueid": "MTK3111:33LK57MYLUC1JYBEMUVGC0TAMCDZS4", "dateTime": 1520021887550}, {"current_trial": 239, "trialdata": {"rt": -1000, "trial_type": "single-audio", "word": "scissors", "stimulus": "/static/audio/wordpool/SCISSORS.wav", "conditions": [12, 1600, "a", 24000], "internal_node_id": "0.0-176.0", "trial": 6, "time_elapsed": 1175836, "serialpos": 2, "key_press": -1, "wordID": 1249, "type": "PRES_AUD", "trial_index": 239}, "uniqueid": "MTK3111:33LK57MYLUC1JYBEMUVGC0TAMCDZS4", "dateTime": 1520021890053}, {"current_trial": 240, "trialdata": {"rt": -1000, "trial_type": "single-audio", "word": "camel", "stimulus": "/static/audio/wordpool/CAMEL.wav", "conditions": [12, 1600, "a", 24000], "internal_node_id": "0.0-177.0", "trial": 6, "time_elapsed": 1178566, "serialpos": 3, "key_press": -1, "wordID": 222, "type": "PRES_AUD", "trial_index": 240}, "uniqueid": "MTK3111:33LK57MYLUC1JYBEMUVGC0TAMCDZS4", "dateTime": 1520021892784}, {"current_trial": 241, "trialdata": {"rt": -1000, "trial_type": "single-audio", "word": "poet", "stimulus": "/static/audio/wordpool/POET.wav", "conditions": [12, 1600, "a", 24000], "internal_node_id": "0.0-178.0", "trial": 6, "time_elapsed": 1181151, "serialpos": 4, "key_press": -1, "wordID": 1094, "type": "PRES_AUD", "trial_index": 241}, "uniqueid": "MTK3111:33LK57MYLUC1JYBEMUVGC0TAMCDZS4", "dateTime": 1520021895368}, {"current_trial": 242, "trialdata": {"rt": -1000, "trial_type": "single-audio", "word": "author", "stimulus": "/static/audio/wordpool/AUTHOR.wav", "conditions": [12, 1600, "a", 24000], "internal_node_id": "0.0-179.0", "trial": 6, "time_elapsed": 1183578, "serialpos": 5, "key_press": -1, "wordID": 60, "type": "PRES_AUD", "trial_index": 242}, "uniqueid": "MTK3111:33LK57MYLUC1JYBEMUVGC0TAMCDZS4", "dateTime": 1520021897796}, {"current_trial": 243, "trialdata": {"rt": -1000, "trial_type": "single-audio", "word": "hiker", "stimulus": "/static/audio/wordpool/HIKER.wav", "conditions": [12, 1600, "a", 24000], "internal_node_id": "0.0-180.0", "trial": 6, "time_elapsed": 1186096, "serialpos": 6, "key_press": -1, "wordID": 707, "type": "PRES_AUD", "trial_index": 243}, "uniqueid": "MTK3111:33LK57MYLUC1JYBEMUVGC0TAMCDZS4", "dateTime": 1520021900313}, {"current_trial": 244, "trialdata": {"rt": -1000, "trial_type": "single-audio", "word": "perch", "stimulus": "/static/audio/wordpool/PERCH.wav", "conditions": [12, 1600, "a", 24000], "internal_node_id": "0.0-181.0", "trial": 6, "time_elapsed": 1188594, "serialpos": 7, "key_press": -1, "wordID": 1047, "type": "PRES_AUD", "trial_index": 244}, "uniqueid": "MTK3111:33LK57MYLUC1JYBEMUVGC0TAMCDZS4", "dateTime": 1520021902812}, {"current_trial": 245, "trialdata": {"rt": -1000, "trial_type": "single-audio", "word": "shirt", "stimulus": "/static/audio/wordpool/SHIRT.wav", "conditions": [12, 1600, "a", 24000], "internal_node_id": "0.0-182.0", "trial": 6, "time_elapsed": 1191153, "serialpos": 8, "key_press": -1, "wordID": 1286, "type": "PRES_AUD", "trial_index": 245}, "uniqueid": "MTK3111:33LK57MYLUC1JYBEMUVGC0TAMCDZS4", "dateTime": 1520021905371}, {"current_trial": 246, "trialdata": {"rt": -1000, "trial_type": "single-audio", "word": "scarf", "stimulus": "/static/audio/wordpool/SCARF.wav", "conditions": [12, 1600, "a", 24000], "internal_node_id": "0.0-183.0", "trial": 6, "time_elapsed": 1193600, "serialpos": 9, "key_press": -1, "wordID": 1245, "type": "PRES_AUD", "trial_index": 246}, "uniqueid": "MTK3111:33LK57MYLUC1JYBEMUVGC0TAMCDZS4", "dateTime": 1520021907818}, {"current_trial": 247, "trialdata": {"rt": -1000, "trial_type": "single-audio", "word": "climber", "stimulus": "/static/audio/wordpool/CLIMBER.wav", "conditions": [12, 1600, "a", 24000], "internal_node_id": "0.0-184.0", "trial": 6, "time_elapsed": 1196347, "serialpos": 10, "key_press": -1, "wordID": 322, "type": "PRES_AUD", "trial_index": 247}, "uniqueid": "MTK3111:33LK57MYLUC1JYBEMUVGC0TAMCDZS4", "dateTime": 1520021910564}, {"current_trial": 248, "trialdata": {"rt": -1000, "trial_type": "single-audio", "word": "space", "stimulus": "/static/audio/wordpool/SPACE.wav", "conditions": [12, 1600, "a", 24000], "internal_node_id": "0.0-185.0", "trial": 6, "time_el