{"assignmentId": "3OF2M9AATHV3VFY6HLMELE206CHZKT", "workerId": "MTK3564", "questiondata": {"avail_screen_height": 566, "color_depth": 24, "screen_width": 1024, "pixel_depth": 24, "avail_screen_width": 1024, "screen_height": 600}, "bonus": 0, "hitId": "33KMQD9OFJLUT6NMPU0K158V5MH77U", "counterbalance": 687, "useragent": "Mozilla/5.0 (Windows NT 5.1) AppleWebKit/537.36 (KHTML, like Gecko) Chrome/49.0.2623.112 Safari/537.36", "eventdata": [{"eventtype": "initialized", "interval": 0, "value": null, "timestamp": 1520789065169}, {"eventtype": "window_resize", "interval": 0, "value": [1024, 555], "timestamp": 1520789065169}, {"eventtype": "focus", "interval": 271166, "value": "off", "timestamp": 1520789336335}, {"eventtype": "focus", "interval": 39867, "value": "on", "timestamp": 1520789376202}], "data": [{"current_trial": 0, "trialdata": {"rt": 5343, "trial_type": "text", "internal_node_id": "0.0-0.0", "time_elapsed": 5365, "key_press": 78, "type": "INSTRUCTIONS", "trial_index": 0}, "uniqueid": "MTK3564:3OF2M9AATHV3VFY6HLMELE206CHZKT", "dateTime": 1520789098799}, {"current_trial": 1, "trialdata": {"rt": 220404, "trial_type": "text", "internal_node_id": "0.0-1.0", "time_elapsed": 225794, "key_press": 78, "type": "INSTRUCTIONS", "trial_index": 1}, "uniqueid": "MTK3564:3OF2M9AATHV3VFY6HLMELE206CHZKT", "dateTime": 1520789319221}, {"current_trial": 2, "trialdata": {"rt": [80745], "trial_type": "audio-test", "responses": ["ocean"], "internal_node_id": "0.0-2.0", "time_elapsed": 307066, "type": "AUDIO_TEST", "trial_index": 2}, "uniqueid": "MTK3564:3OF2M9AATHV3VFY6HLMELE206CHZKT", "dateTime": 1520789400493}, {"current_trial": 3, "trialdata": {"rt": [73727], "trial_type": "audio-test", "responses": ["crystal"], "internal_node_id": "0.0-3.0", "time_elapsed": 380839, "type": "AUDIO_TEST", "trial_index": 3}, "uniqueid": "MTK3564:3OF2M9AATHV3VFY6HLMELE206CHZKT", "dateTime": 1520789474265}, {"current_trial": 4, "trialdata": {"rt": [7744], "trial_type": "audio-test", "responses": ["spice"], "internal_node_id": "0.0-4.0", "time_elapsed": 388620, "type": "AUDIO_TEST", "trial_index": 4}, "uniqueid": "MTK3564:3OF2M9AATHV3VFY6HLMELE206CHZKT", "dateTime": 1520789482045}, {"current_trial": 5, "trialdata": {"rt": 42333, "trial_type": "survey-text", "responses": "{\"Q0\":\"10:30\",\"Q1\":\"7:30\",\"Q2\":\"3\"}", "internal_node_id": "0.0-5.0", "time_elapsed": 431718, "type": "SLEEP_SURVEY", "trial_index": 5}, "uniqueid": "MTK3564:3OF2M9AATHV3VFY6HLMELE206CHZKT", "dateTime": 1520789525144}, {"current_trial": 6, "trialdata": {"rt": 74443, "trial_type": "text", "internal_node_id": "0.0-6.0", "time_elapsed": 507170, "key_press": 74, "type": "INSTRUCTIONS", "trial_index": 6}, "uniqueid": "MTK3564:3OF2M9AATHV3VFY6HLMELE206CHZKT", "dateTime": 1520789600596}, {"current_trial": 7, "trialdata": {"rt": 27570, "trial_type": "text", "internal_node_id": "0.0-7.0", "time_elapsed": 535244, "key_press": 75, "type": "INSTRUCTIONS", "trial_index": 7}, "uniqueid": "MTK3564:3OF2M9AATHV3VFY6HLMELE206CHZKT", "dateTime": 1520789628670}, {"current_trial": 8, "trialdata": {"rt": 16485, "trial_type": "text", "internal_node_id": "0.0-8.0", "time_elapsed": 552233, "key_press": 74, "type": "INSTRUCTIONS", "trial_index": 8}, "uniqueid": "MTK3564:3OF2M9AATHV3VFY6HLMELE206CHZKT", "dateTime": 1520789645659}, {"current_trial": 9, "trialdata": {"rt": [5331, 8692, 11198, 16017], "trial_type": "math-distractor", "key_times": [3830, 4398, 5331, 8101, 8516, 8692, 10804, 10996, 11198, 15228, 15554, 16017], "responses": ["14", "13", "11", "20"], "num2": [4, 6, 1, 5, 9], "num3": [8, 6, 3, 8, 7], "conditions": [18, 1200, "a", 18000], "internal_node_id": "0.0-9.0", "key_presses": [49, 52, 13, 49, 51, 13, 49, 49, 13, 50, 48, 13], "trial": 0, "time_elapsed": 571270, "type": "DISTRACTOR", "trial_index": 9, "num1": [2, 1, 7, 7, 7]}, "uniqueid": "MTK3564:3OF2M9AATHV3VFY6HLMELE206CHZKT", "dateTime": 1520789664696}, {"current_trial": 10, "trialdata": {"rt": -1, "trial_type": "single-stim", "stimulus": "<p id=\"stim\">10</p>", "internal_node_id": "0.0-10.0-0.0", "time_elapsed": 574282, "key_press": -1, "trial_index": 10}, "uniqueid": "MTK3564:3OF2M9AATHV3VFY6HLMELE206CHZKT", "dateTime": 1520789667708}, {"current_trial": 11, "trialdata": {"rt": -1, "trial_type": "single-stim", "stimulus": "<p id=\"stim\">9</p>", "internal_node_id": "0.0-10.0-1.0", "time_elapsed": 575288, "key_press": -1, "trial_index": 11}, "uniqueid": "MTK3564:3OF2M9AATHV3VFY6HLMELE206CHZKT", "dateTime": 1520789668713}, {"current_trial": 12, "trialdata": {"rt": -1, "trial_type": "single-stim", "stimulus": "<p id=\"stim\">8</p>", "internal_node_id": "0.0-10.0-2.0", "time_elapsed": 576292, "key_press": -1, "trial_index": 12}, "uniqueid": "MTK3564:3OF2M9AATHV3VFY6HLMELE206CHZKT", "dateTime": 1520789669718}, {"current_trial": 13, "trialdata": {"rt": -1, "trial_type": "single-stim", "stimulus": "<p id=\"stim\">7</p>", "internal_node_id": "0.0-10.0-3.0", "time_elapsed": 577294, "key_press": -1, "trial_index": 13}, "uniqueid": "MTK3564:3OF2M9AATHV3VFY6HLMELE206CHZKT", "dateTime": 1520789670720}, {"current_trial": 14, "trialdata": {"rt": -1, "trial_type": "single-stim", "stimulus": "<p id=\"stim\">6</p>", "internal_node_id": "0.0-10.0-4.0", "time_elapsed": 578302, "key_press": -1, "trial_index": 14}, "uniqueid": "MTK3564:3OF2M9AATHV3VFY6HLMELE206CHZKT", "dateTime": 1520789671730}, {"current_trial": 15, "trialdata": {"rt": -1, "trial_type": "single-stim", "stimulus": "<p id=\"stim\">5</p>", "internal_node_id": "0.0-10.0-5.0", "time_elapsed": 579309, "key_press": -1, "trial_index": 15}, "uniqueid": "MTK3564:3OF2M9AATHV3VFY6HLMELE206CHZKT", "dateTime": 1520789672734}, {"current_trial": 16, "trialdata": {"rt": -1, "trial_type": "single-stim", "stimulus": "<p id=\"stim\">4</p>", "internal_node_id": "0.0-10.0-6.0", "time_elapsed": 580312, "key_press": -1, "trial_index": 16}, "uniqueid": "MTK3564:3OF2M9AATHV3VFY6HLMELE206CHZKT", "dateTime": 1520789673738}, {"current_trial": 17, "trialdata": {"rt": -1, "trial_type": "single-stim", "stimulus": "<p id=\"stim\">3</p>", "internal_node_id": "0.0-10.0-7.0", "time_elapsed": 581316, "key_press": -1, "trial_index": 17}, "uniqueid": "MTK3564:3OF2M9AATHV3VFY6HLMELE206CHZKT", "dateTime": 1520789674742}, {"current_trial": 18, "trialdata": {"rt": -1, "trial_type": "single-stim", "stimulus": "<p id=\"stim\">2</p>", "internal_node_id": "0.0-10.0-8.0", "time_elapsed": 582322, "key_press": -1, "trial_index": 18}, "uniqueid": "MTK3564:3OF2M9AATHV3VFY6HLMELE206CHZKT", "dateTime": 1520789675748}, {"current_trial": 19, "trialdata": {"rt": -1, "trial_type": "single-stim", "stimulus": "<p id=\"stim\">1</p>", "internal_node_id": "0.0-10.0-9.0", "time_elapsed": 583326, "key_press": -1, "trial_index": 19}, "uniqueid": "MTK3564:3OF2M9AATHV3VFY6HLMELE206CHZKT", "dateTime": 1520789676752}, {"current_trial": 20, "trialdata": {"rt": -1, "trial_type": "single-stim", "stimulus": "<p id=\"stim\">+</p>", "internal_node_id": "0.0-11.0-0.0", "time_elapsed": 584831, "key_press": -1, "type": "FIXATION", "trial_index": 20}, "uniqueid": "MTK3564:3OF2M9AATHV3VFY6HLMELE206CHZKT", "dateTime": 1520789678257}, {"current_trial": 21, "trialdata": {"rt": -1000, "trial_type": "single-audio", "word": "captive", "stimulus": "/static/audio/wordpool/CAPTIVE.wav", "conditions": [18, 1200, "a", 18000], "internal_node_id": "0.0-12.0", "trial": 0, "time_elapsed": 587167, "serialpos": 0, "key_press": -1, "wordID": 239, "type": "PRES_AUD", "trial_index": 21}, "uniqueid": "MTK3564:3OF2M9AATHV3VFY6HLMELE206CHZKT", "dateTime": 1520789680593}, {"current_trial": 22, "trialdata": {"rt": -1000, "trial_type": "single-audio", "word": "tribe", "stimulus": "/static/audio/wordpool/TRIBE.wav", "conditions": [18, 1200, "a", 18000], "internal_node_id": "0.0-13.0", "trial": 0, "time_elapsed": 589291, "serialpos": 1, "key_press": -1, "wordID": 1504, "type": "PRES_AUD", "trial_index": 22}, "uniqueid": "MTK3564:3OF2M9AATHV3VFY6HLMELE206CHZKT", "dateTime": 1520789682717}, {"current_trial": 23, "trialdata": {"rt": -1000, "trial_type": "single-audio", "word": "drill", "stimulus": "/static/audio/wordpool/DRILL.wav", "conditions": [18, 1200, "a", 18000], "internal_node_id": "0.0-14.0", "trial": 0, "time_elapsed": 591468, "serialpos": 2, "key_press": -1, "wordID": 496, "type": "PRES_AUD", "trial_index": 23}, "uniqueid": "MTK3564:3OF2M9AATHV3VFY6HLMELE206CHZKT", "dateTime": 1520789684893}, {"current_trial": 24, "trialdata": {"rt": -1000, "trial_type": "single-audio", "word": "seafood", "stimulus": "/static/audio/wordpool/SEAFOOD.wav", "conditions": [18, 1200, "a", 18000], "internal_node_id": "0.0-15.0", "trial": 0, "time_elapsed": 593528, "serialpos": 3, "key_press": -1, "wordID": 1259, "type": "PRES_AUD", "trial_index": 24}, "uniqueid": "MTK3564:3OF2M9AATHV3VFY6HLMELE206CHZKT", "dateTime": 1520789686954}, {"current_trial": 25, "trialdata": {"rt": -1000, "trial_type": "single-audio", "word": "mister", "stimulus": "/static/audio/wordpool/MISTER.wav", "conditions": [18, 1200, "a", 18000], "internal_node_id": "0.0-16.0", "trial": 0, "time_elapsed": 595643, "serialpos": 4, "key_press": -1, "wordID": 900, "type": "PRES_AUD", "trial_index": 25}, "uniqueid": "MTK3564:3OF2M9AATHV3VFY6HLMELE206CHZKT", "dateTime": 1520789689069}, {"current_trial": 26, "trialdata": {"rt": -1000, "trial_type": "single-audio", "word": "agent", "stimulus": "/static/audio/wordpool/AGENT.wav", "conditions": [18, 1200, "a", 18000], "internal_node_id": "0.0-17.0", "trial": 0, "time_elapsed": 597672, "serialpos": 5, "key_press": -1, "wordID": 9, "type": "PRES_AUD", "trial_index": 26}, "uniqueid": "MTK3564:3OF2M9AATHV3VFY6HLMELE206CHZKT", "dateTime": 1520789691098}, {"current_trial": 27, "trialdata": {"rt": -1000, "trial_type": "single-audio", "word": "poet", "stimulus": "/static/audio/wordpool/POET.wav", "conditions": [18, 1200, "a", 18000], "internal_node_id": "0.0-18.0", "trial": 0, "time_elapsed": 599817, "serialpos": 6, "key_press": -1, "wordID": 1094, "type": "PRES_AUD", "trial_index": 27}, "uniqueid": "MTK3564:3OF2M9AATHV3VFY6HLMELE206CHZKT", "dateTime": 1520789693242}, {"current_trial": 28, "trialdata": {"rt": -1000, "trial_type": "single-audio", "word": "label", "stimulus": "/static/audio/wordpool/LABEL.wav", "conditions": [18, 1200, "a", 18000], "internal_node_id": "0.0-19.0", "trial": 0, "time_elapsed": 602003, "serialpos": 7, "key_press": -1, "wordID": 789, "type": "PRES_AUD", "trial_index": 28}, "uniqueid": "MTK3564:3OF2M9AATHV3VFY6HLMELE206CHZKT", "dateTime": 1520789695429}, {"current_trial": 29, "trialdata": {"rt": -1000, "trial_type": "single-audio", "word": "cowboy", "stimulus": "/static/audio/wordpool/COWBOY.wav", "conditions": [18, 1200, "a", 18000], "internal_node_id": "0.0-20.0", "trial": 0, "time_elapsed": 604323, "serialpos": 8, "key_press": -1, "wordID": 394, "type": "PRES_AUD", "trial_index": 29}, "uniqueid": "MTK3564:3OF2M9AATHV3VFY6HLMELE206CHZKT", "dateTime": 1520789697749}, {"current_trial": 30, "trialdata": {"rt": -1000, "trial_type": "single-audio", "word": "cigar", "stimulus": "/static/audio/wordpool/CIGAR.wav", "conditions": [18, 1200, "a", 18000], "internal_node_id": "0.0-21.0", "trial": 0, "time_elapsed": 606393, "serialpos": 9, "key_press": -1, "wordID": 307, "type": "PRES_AUD", "trial_index": 30}, "uniqueid": "MTK3564:3OF2M9AATHV3VFY6HLMELE206CHZKT", "dateTime": 1520789699819}, {"current_trial": 31, "trialdata": {"rt": -1000, "trial_type": "single-audio", "word": "bouquet", "stimulus": "/static/audio/wordpool/BOUQUET.wav", "conditions": [18, 1200, "a", 18000], "internal_node_id": "0.0-22.0", "trial": 0, "time_elapsed": 608591, "serialpos": 10, "key_press": -1, "wordID": 156, "type": "PRES_AUD", "trial_index": 31}, "uniqueid": "MTK3564:3OF2M9AATHV3VFY6HLMELE206CHZKT", "dateTime": 1520789702017}, {"current_trial": 32, "trialdata": {"rt": -1000, "trial_type": "single-audio", "word": "denim", "stimulus": "/static/audio/wordpool/DENIM.wav", "conditions": [18, 1200, "a", 18000], "internal_node_id": "0.0-23.0", "trial": 0, "time_elapsed": 610966, "serialpos": 11, "key_press": -1, "wordID": 445, "type": "PRES_AUD", "trial_index": 32}, "uniqueid": "MTK3564:3OF2M9AATHV3VFY6HLMELE206CHZKT", "dateTime": 1520789704392}, {"current_trial": 33, "trialdata": {"rt": -1000, "trial_type": "single-audio", "word": "treat", "stimulus": "/static/audio/wordpool/TREAT.wav", "conditions": [18, 1200, "a", 18000], "internal_node_id": "0.0-24.0", "trial": 0, "time_elapsed": 613286, "serialpos": 12, "key_press": -1, "wordID": 1500, "type": "PRES_AUD", "trial_index": 33}, "uniqueid": "MTK3564:3OF2M9AATHV3VFY6HLMELE206CHZKT", "dateTime": 1520789706712}, {"current_trial": 34, "trialdata": {"rt": -1000, "trial_type": "single-audio", "word": "iceberg", "stimulus": "/static/audio/wordpool/ICEBERG.wav", "conditions": [18, 1200, "a", 18000], "internal_node_id": "0.0-25.0", "trial": 0, "time_elapsed": 615372, "serialpos": 13, "key_press": -1, "wordID": 730, "type": "PRES_AUD", "trial_index": 34}, "uniqueid": "MTK3564:3OF2M9AATHV3VFY6HLMELE206CHZKT", "dateTime": 1520789708798}, {"current_trial": 35, "trialdata": {"rt": -1000, "trial_type": "single-audio", "word": "rebel", "stimulus": "/static/audio/wordpool/REBEL.wav", "conditions": [18, 1200, "a", 18000], "internal_node_id": "0.0-26.0", "trial": 0, "time_elapsed": 617569, "serialpos": 14, "key_press": -1, "wordID": 1171, "type": "PRES_AUD", "trial_index": 35}, "uniqueid": "MTK3564:3OF2M9AATHV3VFY6HLMELE206CHZKT", "dateTime": 1520789710994}, {"current_trial": 36, "trialdata": {"rt": -1000, "trial_type": "single-audio", "word": "banker", "stimulus": "/static/audio/wordpool/BANKER.wav", "conditions": [18, 1200, "a", 18000], "internal_node_id": "0.0-27.0", "trial": 0, "time_elapsed": 619811, "serialpos": 15, "key_press": -1, "wordID": 83, "type": "PRES_AUD", "trial_index": 36}, "uniqueid": "MTK3564:3OF2M9AATHV3VFY6HLMELE206CHZKT", "dateTime": 1520789713237}, {"current_trial": 37, "trialdata": {"rt": -1000, "trial_type": "single-audio", "word": "actor", "stimulus": "/static/audio/wordpool/ACTOR.wav", "conditions": [18, 1200, "a", 18000], "internal_node_id": "0.0-28.0", "trial": 0, "time_elapsed": 621824, "serialpos": 16, "key_press": -1, "wordID": 4, "type": "PRES_AUD", "trial_index": 37}, "uniqueid": "MTK3564:3OF2M9AATHV3VFY6HLMELE206CHZKT", "dateTime": 1520789715250}, {"current_trial": 38, "trialdata": {"rt": -1000, "trial_type": "single-audio", "word": "cellar", "stimulus": "/static/audio/wordpool/CELLAR.wav", "conditions": [18, 1200, "a", 18000], "internal_node_id": "0.0-29.0", "trial": 0, "time_elapsed": 624110, "serialpos": 17, "key_press": -1, "wordID": 266, "type": "PRES_AUD", "trial_index": 38}, "uniqueid": "MTK3564:3OF2M9AATHV3VFY6HLMELE206CHZKT", "dateTime": 1520789717536}, {"current_trial": 39, "trialdata": {"rt": -1, "trial_type": "single-stim", "stimulus": "", "internal_node_id": "0.0-30.0-0.0", "time_elapsed": 625376, "key_press": -1, "type": "PRE_RECALL_DELAY", "trial_index": 39}, "uniqueid": "MTK3564:3OF2M9AATHV3VFY6HLMELE206CHZKT", "dateTime": 1520789718802}, {"current_trial": 40, "trialdata": {"rt": -1000, "trial_type": "single-audio", "stimulus": "/static/audio/400Hz.wav", "internal_node_id": "0.0-31.0", "time_elapsed": 625880, "key_press": -1, "type": "PRE_RECALL_ALERT", "trial_index": 40}, "uniqueid": "MTK3564:3OF2M9AATHV3VFY6HLMELE206CHZKT", "dateTime": 1520789719306}, {"current_trial": 41, "trialdata": {"rt": [4245, 5995, 9138, 11173, 15660, 20480, 34745, 45310, 57361], "recwords": ["captive", "seller", "banker", "rebel", "iceburg", "tribe", "seller", "treat", "drill"], "key_times": [1859, 2076, 2611, 3043, 3203, 3560, 3784, 4245, 4907, 5111, 5246, 5405, 5559, 5718, 5995, 7863, 8123, 8268, 8468, 8823, 8988, 9138, 9620, 10002, 10311, 10628, 10768, 11173, 13546, 14124, 14386, 14680, 15035, 15154, 15446, 15660, 19318, 19629, 19898, 20077, 20325, 20480, 33754, 34004, 34168, 34338, 34445, 34578, 34745, 44303, 44559, 44753, 45013, 45188, 45310, 56362, 56600, 56739, 56973, 57129, 57361], "trial_type": "free-recall", "conditions": [18, 1200, "a", 18000], "internal_node_id": "0.0-32.0-0.0", "key_presses": [67, 65, 80, 84, 73, 86, 69, 13, 83, 69, 76, 76, 69, 82, 13, 66, 65, 78, 75, 69, 82, 13, 82, 69, 66, 69, 76, 13, 73, 67, 69, 66, 85, 82, 71, 13, 84, 82, 73, 66, 69, 13, 83, 69, 76, 76, 69, 82, 13, 84, 82, 69, 65, 84, 13, 68, 82, 73, 76, 76, 13], "trial": 0, "time_elapsed": 685898, "type": "FREE_RECALL", "trial_index": 41}, "uniqueid": "MTK3564:3OF2M9AATHV3VFY6HLMELE206CHZKT", "dateTime": 1520789779367}, {"current_trial": 42, "trialdata": {"rt": 2281, "trial_type": "text", "internal_node_id": "0.0-33.0", "time_elapsed": 690227, "key_press": 13, "type": "INSTRUCTIONS", "trial_index": 42}, "uniqueid": "MTK3564:3OF2M9AATHV3VFY6HLMELE206CHZKT", "dateTime": 1520789783652}, {"current_trial": 43, "trialdata": {"rt": [4734, 7793, 11910, 15263], "trial_type": "math-distractor", "key_times": [3455, 3774, 4734, 7046, 7289, 7793, 11395, 11606, 11910, 14465, 14971, 15263], "responses": ["14", "18", "17", "13"], "num2": [5, 4, 6, 9, 3], "num3": [2, 7, 8, 2, 5], "conditions": [18, 1200, "a", 18000], "internal_node_id": "0.0-34.0", "key_presses": [49, 52, 13, 49, 56, 13, 49, 55, 13, 49, 51, 13], "trial": 1, "time_elapsed": 710239, "type": "DISTRACTOR", "trial_index": 43, "num1": [7, 7, 3, 2, 9]}, "uniqueid": "MTK3564:3OF2M9AATHV3VFY6HLMELE206CHZKT", "dateTime": 1520789803664}, {"current_trial": 44, "trialdata": {"rt": -1, "trial_type": "single-stim", "stimulus": "<p id=\"stim\">10</p>", "internal_node_id": "0.0-35.0-0.0", "time_elapsed": 713243, "key_press": -1, "trial_index": 44}, "uniqueid": "MTK3564:3OF2M9AATHV3VFY6HLMELE206CHZKT", "dateTime": 1520789806668}, {"current_trial": 45, "trialdata": {"rt": -1, "trial_type": "single-stim", "stimulus": "<p id=\"stim\">9</p>", "internal_node_id": "0.0-35.0-1.0", "time_elapsed": 714247, "key_press": -1, "trial_index": 45}, "uniqueid": "MTK3564:3OF2M9AATHV3VFY6HLMELE206CHZKT", "dateTime": 1520789807672}, {"current_trial": 46, "trialdata": {"rt": -1, "trial_type": "single-stim", "stimulus": "<p id=\"stim\">8</p>", "internal_node_id": "0.0-35.0-2.0", "time_elapsed": 715249, "key_press": -1, "trial_index": 46}, "uniqueid": "MTK3564:3OF2M9AATHV3VFY6HLMELE206CHZKT", "dateTime": 1520789808675}, {"current_trial": 47, "trialdata": {"rt": -1, "trial_type": "single-stim", "stimulus": "<p id=\"stim\">7</p>", "internal_node_id": "0.0-35.0-3.0", "time_elapsed": 716253, "key_press": -1, "trial_index": 47}, "uniqueid": "MTK3564:3OF2M9AATHV3VFY6HLMELE206CHZKT", "dateTime": 1520789809679}, {"current_trial": 48, "trialdata": {"rt": -1, "trial_type": "single-stim", "stimulus": "<p id=\"stim\">6</p>", "internal_node_id": "0.0-35.0-4.0", "time_elapsed": 717257, "key_press": -1, "trial_index": 48}, "uniqueid": "MTK3564:3OF2M9AATHV3VFY6HLMELE206CHZKT", "dateTime": 1520789810688}, {"current_trial": 49, "trialdata": {"rt": -1, "trial_type": "single-stim", "stimulus": "<p id=\"stim\">5</p>", "internal_node_id": "0.0-35.0-5.0", "time_elapsed": 718270, "key_press": -1, "trial_index": 49}, "uniqueid": "MTK3564:3OF2M9AATHV3VFY6HLMELE206CHZKT", "dateTime": 1520789811696}, {"current_trial": 50, "trialdata": {"rt": -1, "trial_type": "single-stim", "stimulus": "<p id=\"stim\">4</p>", "internal_node_id": "0.0-35.0-6.0", "time_elapsed": 719275, "key_press": -1, "trial_index": 50}, "uniqueid": "MTK3564:3OF2M9AATHV3VFY6HLMELE206CHZKT", "dateTime": 1520789812701}, {"current_trial": 51, "trialdata": {"rt": -1, "trial_type": "single-stim", "stimulus": "<p id=\"stim\">3</p>", "internal_node_id": "0.0-35.0-7.0", "time_elapsed": 720279, "key_press": -1, "trial_index": 51}, "uniqueid": "MTK3564:3OF2M9AATHV3VFY6HLMELE206CHZKT", "dateTime": 1520789813705}, {"current_trial": 52, "trialdata": {"rt": -1, "trial_type": "single-stim", "stimulus": "<p id=\"stim\">2</p>", "internal_node_id": "0.0-35.0-8.0", "time_elapsed": 721282, "key_press": -1, "trial_index": 52}, "uniqueid": "MTK3564:3OF2M9AATHV3VFY6HLMELE206CHZKT", "dateTime": 1520789814708}, {"current_trial": 53, "trialdata": {"rt": -1, "trial_type": "single-stim", "stimulus": "<p id=\"stim\">1</p>", "internal_node_id": "0.0-35.0-9.0", "time_elapsed": 722285, "key_press": -1, "trial_index": 53}, "uniqueid": "MTK3564:3OF2M9AATHV3VFY6HLMELE206CHZKT", "dateTime": 1520789815711}, {"current_trial": 54, "trialdata": {"rt": -1, "trial_type": "single-stim", "stimulus": "<p id=\"stim\">+</p>", "internal_node_id": "0.0-36.0-0.0", "time_elapsed": 723788, "key_press": -1, "type": "FIXATION", "trial_index": 54}, "uniqueid": "MTK3564:3OF2M9AATHV3VFY6HLMELE206CHZKT", "dateTime": 1520789817213}, {"current_trial": 55, "trialdata": {"rt": -1000, "trial_type": "single-audio", "word": "badge", "stimulus": "/static/audio/wordpool/BADGE.wav", "conditions": [18, 1200, "a", 18000], "internal_node_id": "0.0-37.0", "trial": 1, "time_elapsed": 726025, "serialpos": 0, "key_press": -1, "wordID": 67, "type": "PRES_AUD", "trial_index": 55}, "uniqueid": "MTK3564:3OF2M9AATHV3VFY6HLMELE206CHZKT", "dateTime": 1520789819451}, {"current_trial": 56, "trialdata": {"rt": -1000, "trial_type": "single-audio", "word": "banjo", "stimulus": "/static/audio/wordpool/BANJO.wav", "conditions": [18, 1200, "a", 18000], "internal_node_id": "0.0-38.0", "trial": 1, "time_elapsed": 728219, "serialpos": 1, "key_press": -1, "wordID": 81, "type": "PRES_AUD", "trial_index": 56}, "uniqueid": "MTK3564:3OF2M9AATHV3VFY6HLMELE206CHZKT", "dateTime": 1520789821645}, {"current_trial": 57, "trialdata": {"rt": -1000, "trial_type": "single-audio", "word": "mummy", "stimulus": "/static/audio/wordpool/MUMMY.wav", "conditions": [18, 1200, "a", 18000], "internal_node_id": "0.0-39.0", "trial": 1, "time_elapsed": 730349, "serialpos": 2, "key_press": -1, "wordID": 931, "type": "PRES_AUD", "trial_index": 57}, "uniqueid": "MTK3564:3OF2M9AATHV3VFY6HLMELE206CHZKT", "dateTime": 1520789823775}, {"current_trial": 58, "trialdata": {"rt": -1000, "trial_type": "single-audio", "word": "camel", "stimulus": "/static/audio/wordpool/CAMEL.wav", "conditions": [18, 1200, "a", 18000], "internal_node_id": "0.0-40.0", "trial": 1, "time_elapsed": 732678, "serialpos": 3, "key_press": -1, "wordID": 222, "type": "PRES_AUD", "trial_index": 58}, "uniqueid": "MTK3564:3OF2M9AATHV3VFY6HLMELE206CHZKT", "dateTime": 1520789826104}, {"current_trial": 59, "trialdata": {"rt": -1000, "trial_type": "single-audio", "word": "rattle", "stimulus": "/static/audio/wordpool/RATTLE.wav", "conditions": [18, 1200, "a", 18000], "internal_node_id": "0.0-41.0", "trial": 1, "time_elapsed": 734923, "serialpos": 4, "key_press": -1, "wordID": 1169, "type": "PRES_AUD", "trial_index": 59}, "uniqueid": "MTK3564:3OF2M9AATHV3VFY6HLMELE206CHZKT", "dateTime": 1520789828348}, {"current_trial": 60, "trialdata": {"rt": -1000, "trial_type": "single-audio", "word": "author", "stimulus": "/static/audio/wordpool/AUTHOR.wav", "conditions": [18, 1200, "a", 18000], "internal_node_id": "0.0-42.0", "trial": 1, "time_elapsed": 737284, "serialpos": 5, "key_press": -1, "wordID": 60, "type": "PRES_AUD", "trial_index": 60}, "uniqueid": "MTK3564:3OF2M9AATHV3VFY6HLMELE206CHZKT", "dateTime": 1520789830710}, {"current_trial": 61, "trialdata": {"rt": -1000, "trial_type": "single-audio", "word": "award", "stimulus": "/static/audio/wordpool/AWARD.wav", "conditions": [18, 1200, "a", 18000], "internal_node_id": "0.0-43.0", "trial": 1, "time_elapsed": 739354, "serialpos": 6, "key_press": -1, "wordID": 62, "type": "PRES_AUD", "trial_index": 61}, "uniqueid": "MTK3564:3OF2M9AATHV3VFY6HLMELE206CHZKT", "dateTime": 1520789832780}, {"current_trial": 62, "trialdata": {"rt": -1000, "trial_type": "single-audio", "word": "guitar", "stimulus": "/static/audio/wordpool/GUITAR.wav", "conditions": [18, 1200, "a", 18000], "internal_node_id": "0.0-44.0", "trial": 1, "time_elapsed": 741379, "serialpos": 7, "key_press": -1, "wordID": 669, "type": "PRES_AUD", "trial_index": 62}, "uniqueid": "MTK3564:3OF2M9AATHV3VFY6HLMELE206CHZKT", "dateTime": 1520789834804}, {"current_trial": 63, "trialdata": {"rt": -1000, "trial_type": "single-audio", "word": "crayon", "stimulus": "/static/audio/wordpool/CRAYON.wav", "conditions": [18, 1200, "a", 18000], "internal_node_id": "0.0-45.0", "trial": 1, "time_elapsed": 743710, "serialpos": 8, "key_press": -1, "wordID": 400, "type": "PRES_AUD", "trial_index": 63}, "uniqueid": "MTK3564:3OF2M9AATHV3VFY6HLMELE206CHZKT", "dateTime": 1520789837136}, {"current_trial": 64, "trialdata": {"rt": -1000, "trial_type": "single-audio", "word": "stream", "stimulus": "/static/audio/wordpool/STREAM.wav", "conditions": [18, 1200, "a", 18000], "internal_node_id": "0.0-46.0", "trial": 1, "time_elapsed": 745910, "serialpos": 9, "key_press": -1, "wordID": 1391, "type": "PRES_AUD", "trial_index": 64}, "uniqueid": "MTK3564:3OF2M9AATHV3VFY6HLMELE206CHZKT", "dateTime": 1520789839335}, {"current_trial": 65, "trialdata": {"rt": -1000, "trial_type": "single-audio", "word": "plaster", "stimulus": "/static/audio/wordpool/PLASTER.wav", "conditions": [18, 1200, "a", 18000], "internal_node_id": "0.0-47.0", "trial": 1, "time_elapsed": 748154, "serialpos": 10, "key_press": -1, "wordID": 1084, "type": "PRES_AUD", "trial_index": 65}, "uniqueid": "MTK3564:3OF2M9AATHV3VFY6HLMELE206CHZKT", "dateTime": 1520789841580}, {"current_trial": 66, "trialdata": {"rt": -1000, "trial_type": "single-audio", "word": "flower", "stimulus": "/static/audio/wordpool/FLOWER.wav", "conditions": [18, 1200, "a", 18000], "internal_node_id": "0.0-48.0", "trial": 1, "time_elapsed": 750296, "serialpos": 11, "key_press": -1, "wordID": 583, "type": "PRES_AUD", "trial_index": 66}, "uniqueid": "MTK3564:3OF2M9AATHV3VFY6HLMELE206CHZKT", "dateTime": 1520789843722}, {"current_trial": 67, "trialdata": {"rt": -1000, "trial_type": "single-audio", "word": "hornet", "stimulus": "/static/audio/wordpool/HORNET.wav", "conditions": [18, 1200, "a", 18000], "internal_node_id": "0.0-49.0", "trial": 1, "time_elapsed": 752668, "serialpos": 12, "key_press": -1, "wordID": 717, "type": "PRES_AUD", "trial_index": 67}, "uniqueid": "MTK3564:3OF2M9AATHV3VFY6HLMELE206CHZKT", "dateTime": 1520789846094}, {"current_trial": 68, "trialdata": {"rt": -1000, "trial_type": "single-audio", "word": "space", "stimulus": "/static/audio/wordpool/SPACE.wav", "conditions": [18, 1200, "a", 18000], "internal_node_id": "0.0-50.0", "trial": 1, "time_elapsed": 755061, "serialpos": 13, "key_press": -1, "wordID": 1344, "type": "PRES_AUD", "trial_index": 68}, "uniqueid": "MTK3564:3OF2M9AATHV3VFY6HLMELE206CHZKT", "dateTime": 1520789848486}, {"current_trial": 69, "trialdata": {"rt": -1000, "trial_type": "single-audio", "word": "donor", "stimulus": "/static/audio/wordpool/DONOR.wav", "conditions": [18, 1200, "a", 18000], "internal_node_id": "0.0-51.0", "trial": 1, "time_elapsed": 757166, "serialpos": 14, "key_press": -1, "wordID": 484, "type": "PRES_AUD", "trial_index": 69}, "uniqueid": "MTK3564:3OF2M9AATHV3VFY6HLMELE206CHZKT", "dateTime": 1520789850592}, {"current_trial": 70, "trialdata": {"rt": -1000, "trial_type": "single-audio", "word": "mop", "stimulus": "/static/audio/wordpool/MOP.wav", "conditions": [18, 1200, "a", 18000], "internal_node_id": "0.0-52.0", "trial": 1, "time_elapsed": 759278, "serialpos": 15, "key_press": -1, "wordID": 915, "type": "PRES_AUD", "trial_index": 70}, "uniqueid": "MTK3564:3OF2M9AATHV3VFY6HLMELE206CHZKT", "dateTime": 1520789852703}, {"current_trial": 71, "trialdata": {"rt": -1000, "trial_type": "single-audio", "word": "actress", "stimulus": "/static/audio/wordpool/ACTRESS.wav", "conditions": [18, 1200, "a", 18000], "internal_node_id": "0.0-53.0", "trial": 1, "time_elapsed": 761572, "serialpos": 16, "key_press": -1, "wordID": 5, "type": "PRES_AUD", "trial_index": 71}, "uniqueid": "MTK3564:3OF2M9AATHV3VFY6HLMELE206CHZKT", "dateTime": 1520789854998}, {"current_trial": 72, "trialdata": {"rt": -1000, "trial_type": "single-audio", "word": "leg", "stimulus": "/static/audio/wordpool/LEG.wav", "conditions": [18, 1200, "a", 18000], "internal_node_id": "0.0-54.0", "trial": 1, "time_elapsed": 763705, "serialpos": 17, "key_press": -1, "wordID": 808, "type": "PRES_AUD", "trial_index": 72}, "uniqueid": "MTK3564:3OF2M9AATHV3VFY6HLMELE206CHZKT", "dateTime": 1520789857131}, {"current_trial": 73, "trialdata": {"rt": -1, "trial_type": "single-stim", "stimulus": "", "internal_node_id": "0.0-55.0-0.0", "time_elapsed": 765015, "key_press": -1, "type": "PRE_RECALL_DELAY", "trial_index": 73}, "uniqueid": "MTK3564:3OF2M9AATHV3VFY6HLMELE206CHZKT", "dateTime": 1520789858441}, {"current_trial": 74, "trialdata": {"rt": -1000, "trial_type": "single-audio", "stimulus": "/static/audio/400Hz.wav", "internal_node_id": "0.0-56.0", "time_elapsed": 765519, "key_press": -1, "type": "PRE_RECALL_ALERT", "trial_index": 74}, "uniqueid": "MTK3564:3OF2M9AATHV3VFY6HLMELE206CHZKT", "dateTime": 1520789858945}, {"current_trial": 75, "trialdata": {"rt": [1504, 4273, 6594, 8674, 12633, 20323, 23091, 27219, 29882, 41854], "recwords": ["leg", "actress", "banjo", "guitar", "rattle", "badge", "mop", "author", "mummy", "actress"], "key_times": [615, 825, 1142, 1504, 1899, 2166, 2447, 2689, 3259, 3819, 4026, 4273, 4822, 5020, 5186, 5437, 5796, 6594, 7171, 7323, 7553, 7807, 8191, 8416, 8674, 11155, 11507, 11780, 11926, 12123, 12244, 12633, 18885, 19116, 19453, 19865, 20093, 20323, 22290, 22476, 22773, 23091, 26015, 26224, 26471, 26597, 26775, 26889, 27219, 28562, 28781, 29151, 29309, 29523, 29882, 39127, 39438, 39746, 40009, 40285, 40460, 41147, 41367, 41580, 41854], "trial_type": "free-recall", "conditions": [18, 1200, "a", 18000], "internal_node_id": "0.0-57.0-0.0", "key_presses": [76, 69, 71, 13, 65, 67, 84, 82, 69, 83, 83, 13, 66, 65, 78, 74, 79, 13, 71, 85, 73, 84, 65, 82, 13, 82, 65, 84, 84, 76, 69, 13, 66, 65, 68, 71, 69, 13, 77, 79, 80, 13, 65, 85, 84, 72, 79, 82, 13, 77, 85, 77, 77, 89, 13, 65, 67, 84, 82, 69, 69, 8, 83, 83, 13], "trial": 1, "time_elapsed": 825530, "type": "FREE_RECALL", "trial_index": 75}, "uniqueid": "MTK3564:3OF2M9AATHV3VFY6HLMELE206CHZKT", "dateTime": 1520789918971}, {"current_trial": 76, "trialdata": {"rt": 9190, "trial_type": "text", "internal_node_id": "0.0-58.0", "time_elapsed": 836738, "key_press": 13, "type": "INSTRUCTIONS", "trial_index": 76}, "uniqueid": "MTK3564:3OF2M9AATHV3VFY6HLMELE206CHZKT", "dateTime": 1520789930163}, {"current_trial": 77, "trialdata": {"rt": [5196, 8225, 11993, 14701, 17319, 19625, 22972], "trial_type": "math-distractor", "key_times": [4228, 4464, 5196, 7727, 8041, 8225, 11075, 11348, 11993, 14161, 14315, 14701, 16859, 17067, 17319, 19328, 19625, 22195, 22703, 22972], "responses": ["20", "13", "20", "10", "12", "9", "14"], "num2": [9, 3, 5, 7, 6, 3, 1, 4], "num3": [7, 8, 7, 2, 3, 5, 5, 9], "conditions": [24, 800, "a", 24000], "internal_node_id": "0.0-59.0", "key_presses": [50, 48, 13, 49, 51, 13, 50, 48, 13, 49, 48, 13, 49, 50, 13, 57, 13, 49, 52, 13], "trial": 2, "time_elapsed": 861758, "type": "DISTRACTOR", "trial_index": 77, "num1": [4, 2, 8, 1, 3, 1, 7, 3]}, "uniqueid": "MTK3564:3OF2M9AATHV3VFY6HLMELE206CHZKT", "dateTime": 1520789955185}, {"current_trial": 78, "trialdata": {"rt": -1, "trial_type": "single-stim", "stimulus": "<p id=\"stim\">10</p>", "internal_node_id": "0.0-60.0-0.0", "time_elapsed": 864762, "key_press": -1, "trial_index": 78}, "uniqueid": "MTK3564:3OF2M9AATHV3VFY6HLMELE206CHZKT", "dateTime": 1520789958188}, {"current_trial": 79, "trialdata": {"rt": -1, "trial_type": "single-stim", "stimulus": "<p id=\"stim\">9</p>", "internal_node_id": "0.0-60.0-1.0", "time_elapsed": 865765, "key_press": -1, "trial_index": 79}, "uniqueid": "MTK3564:3OF2M9AATHV3VFY6HLMELE206CHZKT", "dateTime": 1520789959191}, {"current_trial": 80, "trialdata": {"rt": -1, "trial_type": "single-stim", "stimulus": "<p id=\"stim\">8</p>", "internal_node_id": "0.0-60.0-2.0", "time_elapsed": 866768, "key_press": -1, "trial_index": 80}, "uniqueid": "MTK3564:3OF2M9AATHV3VFY6HLMELE206CHZKT", "dateTime": 1520789960194}, {"current_trial": 81, "trialdata": {"rt": -1, "trial_type": "single-stim", "stimulus": "<p id=\"stim\">7</p>", "internal_node_id": "0.0-60.0-3.0", "time_elapsed": 867772, "key_press": -1, "trial_index": 81}, "uniqueid": "MTK3564:3OF2M9AATHV3VFY6HLMELE206CHZKT", "dateTime": 1520789961198}, {"current_trial": 82, "trialdata": {"rt": -1, "trial_type": "single-stim", "stimulus": "<p id=\"stim\">6</p>", "internal_node_id": "0.0-60.0-4.0", "time_elapsed": 868776, "key_press": -1, "trial_index": 82}, "uniqueid": "MTK3564:3OF2M9AATHV3VFY6HLMELE206CHZKT", "dateTime": 1520789962201}, {"current_trial": 83, "trialdata": {"rt": -1, "trial_type": "single-stim", "stimulus": "<p id=\"stim\">5</p>", "internal_node_id": "0.0-60.0-5.0", "time_elapsed": 869780, "key_press": -1, "trial_index": 83}, "uniqueid": "MTK3564:3OF2M9AATHV3VFY6HLMELE206CHZKT", "dateTime": 1520789963205}, {"current_trial": 84, "trialdata": {"rt": -1, "trial_type": "single-stim", "stimulus": "<p id=\"stim\">4</p>", "internal_node_id": "0.0-60.0-6.0", "time_elapsed": 870783, "key_press": -1, "trial_index": 84}, "uniqueid": "MTK3564:3OF2M9AATHV3VFY6HLMELE206CHZKT", "dateTime": 1520789964209}, {"current_trial": 85, "trialdata": {"rt": -1, "trial_type": "single-stim", "stimulus": "<p id=\"stim\">3</p>", "internal_node_id": "0.0-60.0-7.0", "time_elapsed": 871788, "key_press": -1, "trial_index": 85}, "uniqueid": "MTK3564:3OF2M9AATHV3VFY6HLMELE206CHZKT", "dateTime": 1520789965213}, {"current_trial": 86, "trialdata": {"rt": -1, "trial_type": "single-stim", "stimulus": "<p id=\"stim\">2</p>", "internal_node_id": "0.0-60.0-8.0", "time_elapsed": 872791, "key_press": -1, "trial_index": 86}, "uniqueid": "MTK3564:3OF2M9AATHV3VFY6HLMELE206CHZKT", "dateTime": 1520789966217}, {"current_trial": 87, "trialdata": {"rt": -1, "trial_type": "single-stim", "stimulus": "<p id=\"stim\">1</p>", "internal_node_id": "0.0-60.0-9.0", "time_elapsed": 873794, "key_press": -1, "trial_index": 87}, "uniqueid": "MTK3564:3OF2M9AATHV3VFY6HLMELE206CHZKT", "dateTime": 1520789967219}, {"current_trial": 88, "trialdata": {"rt": -1, "trial_type": "single-stim", "stimulus": "<p id=\"stim\">+</p>", "internal_node_id": "0.0-61.0-0.0", "time_elapsed": 875297, "key_press": -1, "type": "FIXATION", "trial_index": 88}, "uniqueid": "MTK3564:3OF2M9AATHV3VFY6HLMELE206CHZKT", "dateTime": 1520789968722}, {"current_trial": 89, "trialdata": {"rt": -1000, "trial_type": "single-audio", "word": "breast", "stimulus": "/static/audio/wordpool/BREAST.wav", "conditions": [24, 800, "a", 24000], "internal_node_id": "0.0-62.0", "trial": 2, "time_elapsed": 877040, "serialpos": 0, "key_press": -1, "wordID": 170, "type": "PRES_AUD", "trial_index": 89}, "uniqueid": "MTK3564:3OF2M9AATHV3VFY6HLMELE206CHZKT", "dateTime": 1520789970466}, {"current_trial": 90, "trialdata": {"rt": -1000, "trial_type": "single-audio", "word": "dashboard", "stimulus": "/static/audio/wordpool/DASHBOARD.wav", "conditions": [24, 800, "a", 24000], "internal_node_id": "0.0-63.0", "trial": 2, "time_elapsed": 878764, "serialpos": 1, "key_press": -1, "wordID": 440, "type": "PRES_AUD", "trial_index": 90}, "uniqueid": "MTK3564:3OF2M9AATHV3VFY6HLMELE206CHZKT", "dateTime": 1520789972189}, {"current_trial": 91, "trialdata": {"rt": -1000, "trial_type": "single-audio", "word": "shortcake", "stimulus": "/static/audio/wordpool/SHORTCAKE.wav", "conditions": [24, 800, "a", 24000], "internal_node_id": "0.0-64.0", "trial": 2, "time_elapsed": 880412, "serialpos": 2, "key_press": -1, "wordID": 1291, "type": "PRES_AUD", "trial_index": 91}, "uniqueid": "MTK3564:3OF2M9AATHV3VFY6HLMELE206CHZKT", "dateTime": 1520789973838}, {"current_trial": 92, "trialdata": {"rt": -1000, "trial_type": "single-audio", "word": "kidney", "stimulus": "/static/audio/wordpool/KIDNEY.wav", "conditions": [24, 800, "a", 24000], "internal_node_id": "0.0-65.0", "trial": 2, "time_elapsed": 882202, "serialpos": 3, "key_press": -1, "wordID": 775, "type": "PRES_AUD", "trial_index": 92}, "uniqueid": "MTK3564:3OF2M9AATHV3VFY6HLMELE206CHZKT", "dateTime": 1520789975628}, {"current_trial": 93, "trialdata": {"rt": -1000, "trial_type": "single-audio", "word": "saddle", "stimulus": "/static/audio/wordpool/SADDLE.wav", "conditions": [24, 800, "a", 24000], "internal_node_id": "0.0-66.0", "trial": 2, "time_elapsed": 883941, "serialpos": 4, "key_press": -1, "wordID": 1220, "type": "PRES_AUD", "trial_index": 93}, "uniqueid": "MTK3564:3OF2M9AATHV3VFY6HLMELE206CHZKT", "dateTime": 1520789977367}, {"current_trial": 94, "trialdata": {"rt": -1000, "trial_type": "single-audio", "word": "flipper", "stimulus": "/static/audio/wordpool/FLIPPER.wav", "conditions": [24, 800, "a", 24000], "internal_node_id": "0.0-67.0", "trial": 2, "time_elapsed": 885926, "serialpos": 5, "key_press": -1, "wordID": 579, "type": "PRES_AUD", "trial_index": 94}, "uniqueid": "MTK3564:3OF2M9AATHV3VFY6HLMELE206CHZKT", "dateTime": 1520789979352}, {"current_trial": 95, "trialdata": {"rt": -1000, "trial_type": "single-audio", "word": "orange", "stimulus": "/static/audio/wordpool/ORANGE.wav", "conditions": [24, 800, "a", 24000], "internal_node_id": "0.0-68.0", "trial": 2, "time_elapsed": 887642, "serialpos": 6, "key_press": -1, "wordID": 979, "type": "PRES_AUD", "trial_index": 95}, "uniqueid": "MTK3564:3OF2M9AATHV3VFY6HLMELE206CHZKT", "dateTime": 1520789981068}, {"current_trial": 96, "trialdata": {"rt": -1000, "trial_type": "single-audio", "word": "pistol", "stimulus": "/static/audio/wordpool/PISTOL.wav", "conditions": [24, 800, "a", 24000], "internal_node_id": "0.0-69.0", "trial": 2, "time_elapsed": 889396, "serialpos": 7, "key_press": -1, "wordID": 1074, "type": "PRES_AUD", "trial_index": 96}, "uniqueid": "MTK3564:3OF2M9AATHV3VFY6HLMELE206CHZKT", "dateTime": 1520789982822}, {"current_trial": 97, "trialdata": {"rt": -1000, "trial_type": "single-audio", "word": "knife", "stimulus": "/static/audio/wordpool/KNIFE.wav", "conditions": [24, 800, "a", 24000], "internal_node_id": "0.0-70.0", "trial": 2, "time_elapsed": 891201, "serialpos": 8, "key_press": -1, "wordID": 784, "type": "PRES_AUD", "trial_index": 97}, "uniqueid": "MTK3564:3OF2M9AATHV3VFY6HLMELE206CHZKT", "dateTime": 1520789984627}, {"current_trial": 98, "trialdata": {"rt": -1000, "trial_type": "single-audio", "word": "soda", "stimulus": "/static/audio/wordpool/SODA.wav", "conditions": [24, 800, "a", 24000], "internal_node_id": "0.0-71.0", "trial": 2, "time_elapsed": 893061, "serialpos": 9, "key_press": -1, "wordID": 1340, "type": "PRES_AUD", "trial_index": 98}, "uniqueid": "MTK3564:3OF2M9AATHV3VFY6HLMELE206CHZKT", "dateTime": 1520789986487}, {"current_trial": 99, "trialdata": {"rt": -1000, "trial_type": "single-audio", "word": "slime", "stimulus": "/static/audio/wordpool/SLIME.wav", "conditions": [24, 800, "a", 24000], "internal_node_id": "0.0-72.0", "trial": 2, "time_elapsed": 894863, "serialpos": 10, "key_press": -1, "wordID": 1326, "type": "PRES_AUD", "trial_index": 99}, "uniqueid": "MTK3564:3OF2M9AATHV3VFY6HLMELE206CHZKT", "dateTime": 1520789988289}, {"current_trial": 100, "trialdata": {"rt": -1000, "trial_type": "single-audio", "word": "pastry", "stimulus": "/static/audio/wordpool/PASTRY.wav", "conditions": [24, 800, "a", 24000], "internal_node_id": "0.0-73.0", "trial": 2, "time_elapsed": 896492, "serialpos": 11, "key_press": -1, "wordID": 1021, "type": "PRES_AUD", "trial_index": 100}, "uniqueid": "MTK3564:3OF2M9AATHV3VFY6HLMELE206CHZKT", "dateTime": 1520789989918}, {"current_trial": 101, "trialdata": {"rt": -1000, "trial_type": "single-audio", "word": "lion", "stimulus": "/static/audio/wordpool/LION.wav", "conditions": [24, 800, "a", 24000], "internal_node_id": "0.0-74.0", "trial": 2, "time_elapsed": 898171, "serialpos": 12, "key_press": -1, "wordID": 826, "type": "PRES_AUD", "trial_index": 101}, "uniqueid": "MTK3564:3OF2M9AATHV3VFY6HLMELE206CHZKT", "dateTime": 1520789991597}, {"current_trial": 102, "trialdata": {"rt": -1000, "trial_type": "single-audio", "word": "mildew", "stimulus": "/static/audio/wordpool/MILDEW.wav", "conditions": [24, 800, "a", 24000], "internal_node_id": "0.0-75.0", "trial": 2, "time_elapsed": 899999, "serialpos": 13, "key_press": -1, "wordID": 892, "type": "PRES_AUD", "trial_index": 102}, "uniqueid": "MTK3564:3OF2M9AATHV3VFY6HLMELE206CHZKT", "dateTime": 1520789993425}, {"current_trial": 103, "trialdata": {"rt": -1000, "trial_type": "single-audio", "word": "scarf", "stimulus": "/static/audio/wordpool/SCARF.wav", "conditions": [24, 800, "a", 24000], "internal_node_id": "0.0-76.0", "trial": 2, "time_elapsed": 901640, "serialpos": 14, "key_press": -1, "wordID": 1245, "type": "PRES_AUD", "trial_index": 103}, "uniqueid": "MTK3564:3OF2M9AATHV3VFY6HLMELE206CHZKT", "dateTime": 1520789995066}, {"current_trial": 104, "trialdata": {"rt": -1000, "trial_type": "single-audio", "word": "shirt", "stimulus": "/static/audio/wordpool/SHIRT.wav", "conditions": [24, 800, "a", 24000], "internal_node_id": "0.0-77.0", "trial": 2, "time_elapsed": 903506, "serialpos": 15, "key_press": -1, "wordID": 1286, "type": "PRES_AUD", "trial_index": 104}, "uniqueid": "MTK3564:3OF2M9AATHV3VFY6HLMELE206CHZKT", "dateTime": 1520789996931}, {"current_trial": 105, "trialdata": {"rt": -1000, "trial_type": "single-audio", "word": "citrus", "stimulus": "/static/audio/wordpool/CITRUS.wav", "conditions": [24, 800, "a", 24000], "internal_node_id": "0.0-78.0", "trial": 2, "time_elapsed": 905399, "serialpos": 16, "key_press": -1, "wordID": 312, "type": "PRES_AUD", "trial_index": 105}, "uniqueid": "MTK3564:3OF2M9AATHV3VFY6HLMELE206CHZKT", "dateTime": 1520789998825}, {"current_trial": 106, "trialdata": {"rt": -1000, "trial_type": "single-audio", "word": "cloud", "stimulus": "/static/audio/wordpool/CLOUD.wav", "conditions": [24, 800, "a", 24000], "internal_node_id": "0.0-79.0", "trial": 2, "time_elapsed": 907361, "serialpos": 17, "key_press": -1, "wordID": 327, "type": "PRES_AUD", "trial_index": 106}, "uniqueid": "MTK3564:3OF2M9AATHV3VFY6HLMELE206CHZKT", "dateTime": 1520790000787}, {"current_trial": 107, "trialdata": {"rt": -1000, "trial_type": "single-audio", "word": "army", "stimulus": "/static/audio/wordpool/ARMY.wav", "conditions": [24, 800, "a", 24000], "internal_node_id": "0.0-80.0", "trial": 2, "time_elapsed": 909056, "serialpos": 18, "key_press": -1, "wordID": 38, "type": "PRES_AUD", "trial_index": 107}, "uniqueid": "MTK3564:3OF2M9AATHV3VFY6HLMELE206CHZKT", "dateTime": 1520790002482}, {"current_trial": 108, "trialdata": {"rt": -1000, "trial_type": "single-audio", "word": "france", "stimulus": "/static/audio/wordpool/FRANCE.wav", "conditions": [24, 800, "a", 24000], "internal_node_id": "0.0-81.0", "trial": 2, "time_elapsed": 910861, "serialpos": 19, "key_press": -1, "wordID": 600, "type": "PRES_AUD", "trial_index": 108}, "uniqueid": "MTK3564:3OF2M9AATHV3VFY6HLMELE206CHZKT", "dateTime": 1520790004288}, {"current_trial": 109, "trialdata": {"rt": -1000, "trial_type": "single-audio", "word": "champagne", "stimulus": "/static/audio/wordpool/CHAMPAGNE.wav", "conditions": [24, 800, "a", 24000], "internal_node_id": "0.0-82.0", "trial": 2, "time_elapsed": 912834, "serialpos": 20, "key_press": -1, "wordID": 277, "type": "PRES_AUD", "trial_index": 109}, "uniqueid": "MTK3564:3OF2M9AATHV3VFY6HLMELE206CHZKT", "dateTime": 1520790006260}, {"current_trial": 110, "trialdata": {"rt": -1000, "trial_type": "single-audio", "word": "lunch", "stimulus": "/static/audio/wordpool/LUNCH.wav", "conditions": [24, 800, "a", 24000], "internal_node_id": "0.0-83.0", "trial": 2, "time_elapsed": 914606, "serialpos": 21, "key_press": -1, "wordID": 848, "type": "PRES_AUD", "trial_index": 110}, "uniqueid": "MTK3564:3OF2M9AATHV3VFY6HLMELE206CHZKT", "dateTime": 1520790008031}, {"current_trial": 111, "trialdata": {"rt": -1000, "trial_type": "single-audio", "word": "rooster", "stimulus": "/static/audio/wordpool/ROOSTER.wav", "conditions": [24, 800, "a", 24000], "internal_node_id": "0.0-84.0", "trial": 2, "time_elapsed": 916257, "serialpos": 22, "key_press": -1, "wordID": 1208, "type": "PRES_AUD", "trial_index": 111}, "uniqueid": "MTK3564:3OF2M9AATHV3VFY6HLMELE206CHZKT", "dateTime": 1520790009683}, {"current_trial": 112, "trialdata": {"rt": -1000, "trial_type": "single-audio", "word": "pecan", "stimulus": "/static/audio/wordpool/PECAN.wav", "conditions": [24, 800, "a", 24000], "internal_node_id": "0.0-85.0", "trial": 2, "time_elapsed": 918183, "serialpos": 23, "key_press": -1, "wordID": 1035, "type": "PRES_AUD", "trial_index": 112}, "uniqueid": "MTK3564:3OF2M9AATHV3VFY6HLMELE206CHZKT", "dateTime": 1520790011609}, {"current_trial": 113, "trialdata": {"rt": -1, "trial_type": "single-stim", "stimulus": "", "internal_node_id": "0.0-86.0-0.0", "time_elapsed": 919578, "key_press": -1, "type": "PRE_RECALL_DELAY", "trial_index": 113}, "uniqueid": "MTK3564:3OF2M9AATHV3VFY6HLMELE206CHZKT", "dateTime": 1520790013005}, {"current_trial": 114, "trialdata": {"rt": -1000, "trial_type": "single-audio", "stimulus": "/static/audio/400Hz.wav", "internal_node_id": "0.0-87.0", "time_elapsed": 920084, "key_press": -1, "type": "PRE_RECALL_ALERT", "trial_index": 114}, "uniqueid": "MTK3564:3OF2M9AATHV3VFY6HLMELE206CHZKT", "dateTime": 1520790013510}, {"current_trial": 115, "trialdata": {"rt": [5888, 8867, 10774, 12770, 15741, 21184, 24192, 28376, 50380], "recwords": ["shortcake", "pecan", "rooster", "france", "champagne", "pistol", "slime", "breast", "soda"], "key_times": [3002, 3212, 3558, 3809, 4030, 5122, 5340, 5513, 5650, 5888, 7673, 7811, 8113, 8385, 8557, 8867, 9273, 9425, 9595, 9750, 9972, 10245, 10303, 10774, 11220, 11696, 11905, 12058, 12199, 12445, 12770, 13682, 13873, 13911, 14241, 14648, 14803, 15005, 15302, 15411, 15741, 19703, 19926, 20055, 20240, 20370, 20898, 21184, 23264, 23425, 23603, 23816, 23992, 24192, 26798, 27126, 27302, 27508, 27923, 28141, 28376, 49663, 49811, 49984, 50207, 50380], "trial_type": "free-recall", "conditions": [24, 800, "a", 24000], "internal_node_id": "0.0-88.0-0.0", "key_presses": [83, 72, 79, 82, 84, 67, 65, 75, 69, 13, 80, 69, 67, 65, 78, 13, 82, 79, 79, 83, 84, 69, 82, 13, 70, 82, 65, 78, 67, 69, 13, 67, 72, 65, 77, 80, 65, 71, 78, 69, 13, 80, 73, 83, 84, 79, 76, 13, 83, 76, 73, 77, 69, 13, 66, 82, 69, 65, 83, 84, 13, 83, 79, 68, 65, 13], "trial": 2, "time_elapsed": 980099, "type": "FREE_RECALL", "trial_index": 115}, "uniqueid": "MTK3564:3OF2M9AATHV3VFY6HLMELE206CHZKT", "dateTime": 1520790073552}, {"current_trial": 116, "trialdata": {"rt": 2106, "trial_type": "text", "internal_node_id": "0.0-89.0", "time_elapsed": 984237, "key_press": 13, "type": "INSTRUCTIONS", "trial_index": 116}, "uniqueid": "MTK3564:3OF2M9AATHV3VFY6HLMELE206CHZKT", "dateTime": 1520790077662}, {"current_trial": 117, "trialdata": {"rt": [4048, 6930, 9928, 13218, 16113, 19542], "trial_type": "math-distractor", "key_times": [3260, 3827, 4048, 6339, 6765, 6930, 9213, 9432, 9928, 12749, 13018, 13218, 15634, 15935, 16113, 19073, 19317, 19542], "responses": ["14", "13", "20", "15", "13", "12"], "num2": [5, 8, 9, 4, 6, 6, 7], "num3": [8, 3, 2, 4, 3, 3, 9], "conditions": [12, 1600, "a", 24000], "internal_node_id": "0.0-90.0", "key_presses": [49, 52, 13, 49, 51, 13, 50, 48, 13, 49, 53, 13, 49, 51, 13, 49, 50, 13], "trial": 3, "time_elapsed": 1010249, "type": "DISTRACTOR", "trial_index": 117, "num1": [1, 2, 9, 7, 4, 3, 7]}, "uniqueid": "MTK3564:3OF2M9AATHV3VFY6HLMELE206CHZKT", "dateTime": 1520790103674}, {"current_trial": 118, "trialdata": {"rt": -1, "trial_type": "single-stim", "stimulus": "<p id=\"stim\">10</p>", "internal_node_id": "0.0-91.0-0.0", "time_elapsed": 1013252, "key_press": -1, "trial_index": 118}, "uniqueid": "MTK3564:3OF2M9AATHV3VFY6HLMELE206CHZKT", "dateTime": 1520790106678}, {"current_trial": 119, "trialdata": {"rt": -1, "trial_type": "single-stim", "stimulus": "<p id=\"stim\">9</p>", "internal_node_id": "0.0-91.0-1.0", "time_elapsed": 1014255, "key_press": -1, "trial_index": 119}, "uniqueid": "MTK3564:3OF2M9AATHV3VFY6HLMELE206CHZKT", "dateTime": 1520790107681}, {"current_trial": 120, "trialdata": {"rt": -1, "trial_type": "single-stim", "stimulus": "<p id=\"stim\">8</p>", "internal_node_id": "0.0-91.0-2.0", "time_elapsed": 1015259, "key_press": -1, "trial_index": 120}, "uniqueid": "MTK3564:3OF2M9AATHV3VFY6HLMELE206CHZKT", "dateTime": 1520790108685}, {"current_trial": 121, "trialdata": {"rt": -1, "trial_type": "single-stim", "stimulus": "<p id=\"stim\">7</p>", "internal_node_id": "0.0-91.0-3.0", "time_elapsed": 1016264, "key_press": -1, "trial_index": 121}, "uniqueid": "MTK3564:3OF2M9AATHV3VFY6HLMELE206CHZKT", "dateTime": 1520790109690}, {"current_trial": 122, "trialdata": {"rt": -1, "trial_type": "single-stim", "stimulus": "<p id=\"stim\">6</p>", "internal_node_id": "0.0-91.0-4.0", "time_elapsed": 1017271, "key_press": -1, "trial_index": 122}, "uniqueid": "MTK3564:3OF2M9AATHV3VFY6HLMELE206CHZKT", "dateTime": 1520790110697}, {"current_trial": 123, "trialdata": {"rt": -1, "trial_type": "single-stim", "stimulus": "<p id=\"stim\">5</p>", "internal_node_id": "0.0-91.0-5.0", "time_elapsed": 1018278, "key_press": -1, "trial_index": 123}, "uniqueid": "MTK3564:3OF2M9AATHV3VFY6HLMELE206CHZKT", "dateTime": 1520790111704}, {"current_trial": 124, "trialdata": {"rt": -1, "trial_type": "single-stim", "stimulus": "<p id=\"stim\">4</p>", "internal_node_id": "0.0-91.0-6.0", "time_elapsed": 1019282, "key_press": -1, "trial_index": 124}, "uniqueid": "MTK3564:3OF2M9AATHV3VFY6HLMELE206CHZKT", "dateTime": 1520790112708}, {"current_trial": 125, "trialdata": {"rt": -1, "trial_type": "single-stim", "stimulus": "<p id=\"stim\">3</p>", "internal_node_id": "0.0-91.0-7.0", "time_elapsed": 1020285, "key_press": -1, "trial_index": 125}, "uniqueid": "MTK3564:3OF2M9AATHV3VFY6HLMELE206CHZKT", "dateTime": 1520790113711}, {"current_trial": 126, "trialdata": {"rt": -1, "trial_type": "single-stim", "stimulus": "<p id=\"stim\">2</p>", "internal_node_id": "0.0-91.0-8.0", "time_elapsed": 1021289, "key_press": -1, "trial_index": 126}, "uniqueid": "MTK3564:3OF2M9AATHV3VFY6HLMELE206CHZKT", "dateTime": 1520790114715}, {"current_trial": 127, "trialdata": {"rt": -1, "trial_type": "single-stim", "stimulus": "<p id=\"stim\">1</p>", "internal_node_id": "0.0-91.0-9.0", "time_elapsed": 1022292, "key_press": -1, "trial_index": 127}, "uniqueid": "MTK3564:3OF2M9AATHV3VFY6HLMELE206CHZKT", "dateTime": 1520790115718}, {"current_trial": 128, "trialdata": {"rt": -1, "trial_type": "single-stim", "stimulus": "<p id=\"stim\">+</p>", "internal_node_id": "0.0-92.0-0.0", "time_elapsed": 1023797, "key_press": -1, "type": "FIXATION", "trial_index": 128}, "uniqueid": "MTK3564:3OF2M9AATHV3VFY6HLMELE206CHZKT", "dateTime": 1520790117223}, {"current_trial": 129, "trialdata": {"rt": -1000, "trial_type": "single-audio", "word": "mailman", "stimulus": "/static/audio/wordpool/MAILMAN.wav", "conditions": [12, 1600, "a", 24000], "internal_node_id": "0.0-93.0", "trial": 3, "time_elapsed": 1026466, "serialpos": 0, "key_press": -1, "wordID": 857, "type": "PRES_AUD", "trial_index": 129}, "uniqueid": "MTK3564:3OF2M9AATHV3VFY6HLMELE206CHZKT", "dateTime": 1520790119894}, {"current_trial": 130, "trialdata": {"rt": -1000, "trial_type": "single-audio", "word": "tourist", "stimulus": "/static/audio/wordpool/TOURIST.wav", "conditions": [12, 1600, "a", 24000], "internal_node_id": "0.0-94.0", "trial": 3, "time_elapsed": 1029197, "serialpos": 1, "key_press": -1, "wordID": 1487, "type": "PRES_AUD", "trial_index": 130}, "uniqueid": "MTK3564:3OF2M9AATHV3VFY6HLMELE206CHZKT", "dateTime": 1520790122623}, {"current_trial": 131, "trialdata": {"rt": -1000, "trial_type": "single-audio", "word": "trombone", "stimulus": "/static/audio/wordpool/TROMBONE.wav", "conditions": [12, 1600, "a", 24000], "internal_node_id": "0.0-95.0", "trial": 3, "time_elapsed": 1031686, "serialpos": 2, "key_press": -1, "wordID": 1507, "type": "PRES_AUD", "trial_index": 131}, "uniqueid": "MTK3564:3OF2M9AATHV3VFY6HLMELE206CHZKT", "dateTime": 1520790125119}, {"current_trial": 132, "trialdata": {"rt": -1000, "trial_type": "single-audio", "word": "whistle", "stimulus": "/static/audio/wordpool/WHISTLE.wav", "conditions": [12, 1600, "a", 24000], "internal_node_id": "0.0-96.0", "trial": 3, "time_elapsed": 1034412, "serialpos": 3, "key_press": -1, "wordID": 1605, "type": "PRES_AUD", "trial_index": 132}, "uniqueid": "MTK3564:3OF2M9AATHV3VFY6HLMELE206CHZKT", "dateTime": 1520790127838}, {"current_trial": 133, "trialdata": {"rt": -1000, "trial_type": "single-audio", "word": "mailbox", "stimulus": "/static/audio/wordpool/MAILBOX.wav", "conditions": [12, 1600, "a", 24000], "internal_node_id": "0.0-97.0", "trial": 3, "time_elapsed": 1036912, "serialpos": 4, "key_press": -1, "wordID": 856, "type": "PRES_AUD", "trial_index": 133}, "uniqueid": "MTK3564:3OF2M9AATHV3VFY6HLMELE206CHZKT", "dateTime": 1520790130338}, {"current_trial": 134, "trialdata": {"rt": -1000, "trial_type": "single-audio", "word": "journal", "stimulus": "/static/audio/wordpool/JOURNAL.wav", "conditions": [12, 1600, "a", 24000], "internal_node_id": "0.0-98.0", "trial": 3, "time_elapsed": 1039423, "serialpos": 5, "key_press": -1, "wordID": 759, "type": "PRES_AUD", "trial_index": 134}, "uniqueid": "MTK3564:3OF2M9AATHV3VFY6HLMELE206CHZKT", "dateTime": 1520790132849}, {"current_trial": 135, "trialdata": {"rt": -1000, "trial_type": "single-audio", "word": "london", "stimulus": "/static/audio/wordpool/LONDON.wav", "conditions": [12, 1600, "a", 24000], "internal_node_id": "0.0-99.0", "trial": 3, "time_elapsed": 1042527, "serialpos": 6, "key_press": -1, "wordID": 842, "type": "PRES_AUD", "trial_index": 135}, "uniqueid": "MTK3564:3OF2M9AATHV3VFY6HLMELE206CHZKT", "dateTime": 1520790135953}, {"current_trial": 136, "trialdata": {"rt": -1000, "trial_type": "single-audio", "word": "crib", "stimulus": "/static/audio/wordpool/CRIB.wav", "conditions": [12, 1600, "a", 24000], "internal_node_id": "0.0-100.0", "trial": 3, "time_elapsed": 1045228, "serialpos": 7, "key_press": -1, "wordID": 406, "type": "PRES_AUD", "trial_index": 136}, "uniqueid": "MTK3564:3OF2M9AATHV3VFY6HLMELE206CHZKT", "dateTime": 1520790138654}, {"current_trial": 137, "trialdata": {"rt": -1000, "trial_type": "single-audio", "word": "dorm", "stimulus": "/static/audio/wordpool/DORM.wav", "conditions": [12, 1600, "a", 24000], "internal_node_id": "0.0-101.0", "trial": 3, "time_elapsed": 1047973, "serialpos": 8, "key_press": -1, "wordID": 487, "type": "PRES_AUD", "trial_index": 137}, "uniqueid": "MTK3564:3OF2M9AATHV3VFY6HLMELE206CHZKT", "dateTime": 1520790141399}, {"current_trial": 138, "trialdata": {"rt": -1000, "trial_type": "single-audio", "word": "student", "stimulus": "/static/audio/wordpool/STUDENT.wav", "conditions": [12, 1600, "a", 24000], "internal_node_id": "0.0-102.0", "trial": 3, "time_elapsed": 1050678, "serialpos": 9, "key_press": -1, "wordID": 1394, "type": "PRES_AUD", "trial_index": 138}, "uniqueid": "MTK3564:3OF2M9AATHV3VFY6HLMELE206CHZKT", "dateTime": 1520790144104}, {"current_trial": 139, "trialdata": {"rt": -1000, "trial_type": "single-audio", "word": "snake", "stimulus": "/static/audio/wordpool/SNAKE.wav", "conditions": [12, 1600, "a", 24000], "internal_node_id": "0.0-103.0", "trial": 3, "time_elapsed": 1053277, "serialpos": 10, "key_press": -1, "wordID": 1332, "type": "PRES_AUD", "trial_index": 139}, "uniqueid": "MTK3564:3OF2M9AATHV3VFY6HLMELE206CHZKT", "dateTime": 1520790146703}, {"current_trial": 140, "trialdata": {"rt": -1000, "trial_type": "single-audio", "word": "airport", "stimulus": "/static/audio/wordpool/AIRPORT.wav", "conditions": [12, 1600, "a", 24000], "internal_node_id": "0.0-104.0", "trial": 3, "time_elapsed": 1056051, "serialpos": 11, "key_press": -1, "wordID": 12, "type": "PRES_AUD", "trial_index": 140}, "uniqueid": "MTK3564:3OF2M9AATHV3VFY6HLMELE206CHZKT", "dateTime": 1520790149477}, {"current_trial": 141, "trialdata": {"rt": -1, "trial_type": "single-stim", "stimulus": "", "internal_node_id": "0.0-105.0-0.0", "time_elapsed": 1057338, "key_press": -1, "type": "PRE_RECALL_DELAY", "trial_index": 141}, "uniqueid": "MTK3564:3OF2M9AATHV3VFY6HLMELE206CHZKT", "dateTime": 1520790150764}, {"current_trial": 142, "trialdata": {"rt": -1000, "trial_type": "single-audio", "stimulus": "/static/audio/400Hz.wav", "internal_node_id": "0.0-106.0", "time_elapsed": 1057842, "key_press": -1, "type": "PRE_RECALL_ALERT", "trial_index": 142}, "uniqueid": "MTK3564:3OF2M9AATHV3VFY6HLMELE206CHZKT", "dateTime": 1520790151269}, {"current_trial": 143, "trialdata": {"rt": [4468, 6232, 8307, 10079, 12385, 17326], "recwords": ["airport", "student", "dorm", "snake", "crib", "tourist"], "key_times": [2450, 2672, 2783, 3424, 3672, 3813, 4078, 4468, 4781, 5073, 5210, 5474, 5704, 5856, 6079, 6232, 6740, 7106, 7195, 7499, 8307, 8632, 8976, 9128, 9324, 9507, 10079, 11310, 11618, 11796, 12001, 12385, 15739, 15917, 16063, 16185, 16693, 16876, 17057, 17326], "trial_type": "free-recall", "conditions": [12, 1600, "a", 24000], "internal_node_id": "0.0-107.0-0.0", "key_presses": [65, 73, 82, 80, 79, 82, 84, 13, 83, 84, 85, 68, 69, 78, 84, 13, 68, 79, 82, 77, 13, 83, 78, 65, 75, 69, 13, 67, 82, 73, 66, 13, 84, 79, 85, 82, 73, 83, 84, 13], "trial": 3, "time_elapsed": 1117860, "type": "FREE_RECALL", "trial_index": 143}, "uniqueid": "MTK3564:3OF2M9AATHV3VFY6HLMELE206CHZKT", "dateTime": 1520790211309}, {"current_trial": 144, "trialdata": {"rt": 960, "trial_type": "text", "internal_node_id": "0.0-108.0", "time_elapsed": 1120846, "key_press": 13, "type": "INSTRUCTIONS", "trial_index": 144}, "uniqueid": "MTK3564:3OF2M9AATHV3VFY6HLMELE206CHZKT", "dateTime": 1520790214272}, {"current_trial": 145, "trialdata": {"rt": [3299, 6145, 9756], "trial_type": "math-distractor", "key_times": [2599, 2802, 3299, 5841, 6145, 9352, 9577, 9756, 11499, 11660], "responses": ["20", "9", "12"], "num2": [6, 1, 2, 5], "num3": [8, 5, 6, 3], "conditions": [12, 800, "a", 12000], "internal_node_id": "0.0-109.0", "key_presses": [50, 48, 13, 57, 13, 49, 50, 13, 49, 48], "trial": 4, "time_elapsed": 1134861, "type": "DISTRACTOR", "trial_index": 145, "num1": [6, 3, 4, 2]}, "uniqueid": "MTK3564:3OF2M9AATHV3VFY6HLMELE206CHZKT", "dateTime": 1520790228287}, {"current_trial": 146, "trialdata": {"rt": -1, "trial_type": "single-stim", "stimulus": "<p id=\"stim\">10</p>", "internal_node_id": "0.0-110.0-0.0", "time_elapsed": 1137865, "key_press": -1, "trial_index": 146}, "uniqueid": "MTK3564:3OF2M9AATHV3VFY6HLMELE206CHZKT", "dateTime": 1520790231291}, {"current_trial": 147, "trialdata": {"rt": -1, "trial_type": "single-stim", "stimulus": "<p id=\"stim\">9</p>", "internal_node_id": "0.0-110.0-1.0", "time_elapsed": 1138869, "key_press": -1, "trial_index": 147}, "uniqueid": "MTK3564:3OF2M9AATHV3VFY6HLMELE206CHZKT", "dateTime": 1520790232294}, {"current_trial": 148, "trialdata": {"rt": -1, "trial_type": "single-stim", "stimulus": "<p id=\"stim\">8</p>", "internal_node_id": "0.0-110.0-2.0", "time_elapsed": 1139871, "key_press": -1, "trial_index": 148}, "uniqueid": "MTK3564:3OF2M9AATHV3VFY6HLMELE206CHZKT", "dateTime": 1520790233297}, {"current_trial": 149, "trialdata": {"rt": -1, "trial_type": "single-stim", "stimulus": "<p id=\"stim\">7</p>", "internal_node_id": "0.0-110.0-3.0", "time_elapsed": 1140874, "key_press": -1, "trial_index": 149}, "uniqueid": "MTK3564:3OF2M9AATHV3VFY6HLMELE206CHZKT", "dateTime": 1520790234300}, {"current_trial": 150, "trialdata": {"rt": -1, "trial_type": "single-stim", "stimulus": "<p id=\"stim\">6</p>", "internal_node_id": "0.0-110.0-4.0", "time_elapsed": 1141878, "key_press": -1, "trial_index": 150}, "uniqueid": "MTK3564:3OF2M9AATHV3VFY6HLMELE206CHZKT", "dateTime": 1520790235303}, {"current_trial": 151, "trialdata": {"rt": -1, "trial_type": "single-stim", "stimulus": "<p id=\"stim\">5</p>", "internal_node_id": "0.0-110.0-5.0", "time_elapsed": 1142880, "key_press": -1, "trial_index": 151}, "uniqueid": "MTK3564:3OF2M9AATHV3VFY6HLMELE206CHZKT", "dateTime": 1520790236306}, {"current_trial": 152, "trialdata": {"rt": -1, "trial_type": "single-stim", "stimulus": "<p id=\"stim\">4</p>", "internal_node_id": "0.0-110.0-6.0", "time_elapsed": 1143883, "key_press": -1, "trial_index": 152}, "uniqueid": "MTK3564:3OF2M9AATHV3VFY6HLMELE206CHZKT", "dateTime": 1520790237309}, {"current_trial": 153, "trialdata": {"rt": -1, "trial_type": "single-stim", "stimulus": "<p id=\"stim\">3</p>", "internal_node_id": "0.0-110.0-7.0", "time_elapsed": 1144886, "key_press": -1, "trial_index": 153}, "uniqueid": "MTK3564:3OF2M9AATHV3VFY6HLMELE206CHZKT", "dateTime": 1520790238312}, {"current_trial": 154, "trialdata": {"rt": -1, "trial_type": "single-stim", "stimulus": "<p id=\"stim\">2</p>", "internal_node_id": "0.0-110.0-8.0", "time_elapsed": 1145889, "key_press": -1, "trial_index": 154}, "uniqueid": "MTK3564:3OF2M9AATHV3VFY6HLMELE206CHZKT", "dateTime": 1520790239315}, {"current_trial": 155, "trialdata": {"rt": -1, "trial_type": "single-stim", "stimulus": "<p id=\"stim\">1</p>", "internal_node_id": "0.0-110.0-9.0", "time_elapsed": 1146892, "key_press": -1, "trial_index": 155}, "uniqueid": "MTK3564:3OF2M9AATHV3VFY6HLMELE206CHZKT", "dateTime": 1520790240318}, {"current_trial": 156, "trialdata": {"rt": -1, "trial_type": "single-stim", "stimulus": "<p id=\"stim\">+</p>", "internal_node_id": "0.0-111.0-0.0", "time_elapsed": 1148396, "key_press": -1, "type": "FIXATION", "trial_index": 156}, "uniqueid": "MTK3564:3OF2M9AATHV3VFY6HLMELE206CHZKT", "dateTime": 1520790241822}, {"current_trial": 157, "trialdata": {"rt": -1000, "trial_type": "single-audio", "word": "gavel", "stimulus": "/static/audio/wordpool/GAVEL.wav", "conditions": [12, 800, "a", 12000], "internal_node_id": "0.0-112.0", "trial": 4, "time_elapsed": 1150341, "serialpos": 0, "key_press": -1, "wordID": 626, "type": "PRES_AUD", "trial_index": 157}, "uniqueid": "MTK3564:3OF2M9AATHV3VFY6HLMELE206CHZKT", "dateTime": 1520790243767}, {"current_trial": 158, "trialdata": {"rt": -1000, "trial_type": "single-audio", "word": "dentist", "stimulus": "/static/audio/wordpool/DENTIST.wav", "conditions": [12, 800, "a", 12000], "internal_node_id": "0.0-113.0", "trial": 4, "time_elapsed": 1152082, "serialpos": 1, "key_press": -1, "wordID": 446, "type": "PRES_AUD", "trial_index": 158}, "uniqueid": "MTK3564:3OF2M9AATHV3VFY6HLMELE206CHZKT", "dateTime": 1520790245509}, {"current_trial": 159, "trialdata": {"rt": -1000, "trial_type": "single-audio", "word": "infant", "stimulus": "/static/audio/wordpool/INFANT.wav", "conditions": [12, 800, "a", 12000], "internal_node_id": "0.0-114.0", "trial": 4, "time_elapsed": 1154082, "serialpos": 2, "key_press": -1, "wordID": 736, "type": "PRES_AUD", "trial_index": 159}, "uniqueid": "MTK3564:3OF2M9AATHV3VFY6HLMELE206CHZKT", "dateTime": 1520790247508}, {"current_trial": 160, "trialdata": {"rt": -1000, "trial_type": "single-audio", "word": "tweezers", "stimulus": "/static/audio/wordpool/TWEEZERS.wav", "conditions": [12, 800, "a", 12000], "internal_node_id": "0.0-115.0", "trial": 4, "time_elapsed": 1155691, "serialpos": 3, "key_press": -1, "wordID": 1525, "type": "PRES_AUD", "trial_index": 160}, "uniqueid": "MTK3564:3OF2M9AATHV3VFY6HLMELE206CHZKT", "dateTime": 1520790249117}, {"current_trial": 161, "trialdata": {"rt": -1000, "trial_type": "single-audio", "word": "shark", "stimulus": "/static/audio/wordpool/SHARK.wav", "conditions": [12, 800, "a", 12000], "internal_node_id": "0.0-116.0", "trial": 4, "time_elapsed": 1157293, "serialpos": 4, "key_press": -1, "wordID": 1274, "type": "PRES_AUD", "trial_index": 161}, "uniqueid": "MTK3564:3OF2M9AATHV3VFY6HLMELE206CHZKT", "dateTime": 1520790250719}, {"current_trial": 162, "trialdata": {"rt": -1000, "trial_type": "single-audio", "word": "gangster", "stimulus": "/static/audio/wordpool/GANGSTER.wav", "conditions": [12, 800, "a", 12000], "internal_node_id": "0.0-117.0", "trial": 4, "time_elapsed": 1159290, "serialpos": 5, "key_press": -1, "wordID": 619, "type": "PRES_AUD", "trial_index": 162}, "uniqueid": "MTK3564:3OF2M9AATHV3VFY6HLMELE206CHZKT", "dateTime": 1520790252716}, {"current_trial": 163, "trialdata": {"rt": -1000, "trial_type": "single-audio", "word": "shrub", "stimulus": "/static/audio/wordpool/SHRUB.wav", "conditions": [12, 800, "a", 12000], "internal_node_id": "0.0-118.0", "trial": 4, "time_elapsed": 1161170, "serialpos": 6, "key_press": -1, "wordID": 1298, "type": "PRES_AUD", "trial_index": 163}, "uniqueid": "MTK3564:3OF2M9AATHV3VFY6HLMELE206CHZKT", "dateTime": 1520790254596}, {"current_trial": 164, "trialdata": {"rt": -1000, "trial_type": "single-audio", "word": "rocket", "stimulus": "/static/audio/wordpool/ROCKET.wav", "conditions": [12, 800, "a", 12000], "internal_node_id": "0.0-119.0", "trial": 4, "time_elapsed": 1162801, "serialpos": 7, "key_press": -1, "wordID": 1201, "type": "PRES_AUD", "trial_index": 164}, "uniqueid": "MTK3564:3OF2M9AATHV3VFY6HLMELE206CHZKT", "dateTime": 1520790256227}, {"current_trial": 165, "trialdata": {"rt": -1000, "trial_type": "single-audio", "word": "freckle", "stimulus": "/static/audio/wordpool/FRECKLE.wav", "conditions": [12, 800, "a", 12000], "internal_node_id": "0.0-120.0", "trial": 4, "time_elapsed": 1164574, "serialpos": 8, "key_press": -1, "wordID": 601, "type": "PRES_AUD", "trial_index": 165}, "uniqueid": "MTK3564:3OF2M9AATHV3VFY6HLMELE206CHZKT", "dateTime": 1520790258000}, {"current_trial": 166, "trialdata": {"rt": -1000, "trial_type": "single-audio", "word": "pimple", "stimulus": "/static/audio/wordpool/PIMPLE.wav", "conditions": [12, 800, "a", 12000], "internal_node_id": "0.0-121.0", "trial": 4, "time_elapsed": 1166514, "serialpos": 9, "key_press": -1, "wordID": 1070, "type": "PRES_AUD", "trial_index": 166}, "uniqueid": "MTK3564:3OF2M9AATHV3VFY6HLMELE206CHZKT", "dateTime": 1520790259940}, {"current_trial": 167, "trialdata": {"rt": -1000, "trial_type": "single-audio", "word": "bucket", "stimulus": "/static/audio/wordpool/BUCKET.wav", "conditions": [12, 800, "a", 12000], "internal_node_id": "0.0-122.0", "trial": 4, "time_elapsed": 1168254, "serialpos": 10, "key_press": -1, "wordID": 183, "type": "PRES_AUD", "trial_index": 167}, "uniqueid": "MTK3564:3OF2M9AATHV3VFY6HLMELE206CHZKT", "dateTime": 1520790261680}, {"current_trial": 168, "trialdata": {"rt": -1000, "trial_type": "single-audio", "word": "missile", "stimulus": "/static/audio/wordpool/MISSILE.wav", "conditions": [12, 800, "a", 12000], "internal_node_id": "0.0-123.0", "trial": 4, "time_elapsed": 1170136, "serialpos": 11, "key_press": -1, "wordID": 899, "type": "PRES_AUD", "trial_index": 168}, "uniqueid": "MTK3564:3OF2M9AATHV3VFY6HLMELE206CHZKT", "dateTime": 1520790263562}, {"current_trial": 169, "trialdata": {"rt": -1, "trial_type": "single-stim", "stimulus": "", "internal_node_id": "0.0-124.0-0.0", "time_elapsed": 1171511, "key_press": -1, "type": "PRE_RECALL_DELAY", "trial_index": 169}, "uniqueid": "MTK3564:3OF2M9AATHV3VFY6HLMELE206CHZKT", "dateTime": 1520790264937}, {"current_trial": 170, "trialdata": {"rt": -1000, "trial_type": "single-audio", "stimulus": "/static/audio/400Hz.wav", "internal_node_id": "0.0-125.0", "time_elapsed": 1172015, "key_press": -1, "type": "PRE_RECALL_ALERT", "trial_index": 170}, "uniqueid": "MTK3564:3OF2M9AATHV3VFY6HLMELE206CHZKT", "dateTime": 1520790265441}, {"current_trial": 171, "trialdata": {"rt": [3123, 9208, 10948, 13104, 14846, 19940, 28078], "recwords": ["freckle", "pimple", "missle", "bucket", "gavel", "tweezer", "infant"], "key_times": [649, 899, 1107, 1482, 1851, 2442, 2594, 3123, 4022, 4317, 4591, 5056, 5248, 5413, 7225, 7712, 7955, 8213, 8504, 8678, 9208, 9652, 9821, 9940, 10097, 10424, 10767, 10948, 11338, 11512, 11919, 12141, 12296, 12894, 13104, 13764, 13945, 14159, 14378, 14537, 14846, 17396, 17623, 17940, 18076, 18545, 18840, 18999, 19940, 26838, 27030, 27274, 27435, 27628, 27919, 28078], "trial_type": "free-recall", "conditions": [12, 800, "a", 12000], "internal_node_id": "0.0-126.0-0.0", "key_presses": [70, 82, 69, 67, 75, 76, 69, 13, 77, 80, 73, 8, 8, 8, 80, 73, 77, 80, 76, 69, 13, 77, 73, 83, 83, 76, 69, 13, 66, 85, 67, 75, 69, 84, 13, 71, 65, 86, 69, 76, 13, 84, 87, 69, 69, 90, 69, 82, 13, 73, 78, 70, 65, 78, 84, 13], "trial": 4, "time_elapsed": 1232033, "type": "FREE_RECALL", "trial_index": 171}, "uniqueid": "MTK3564:3OF2M9AATHV3VFY6HLMELE206CHZKT", "dateTime": 1520790325482}, {"current_trial": 172, "trialdata": {"rt": 1347, "trial_type": "text", "internal_node_id": "0.0-127.0", "time_elapsed": 1235407, "key_press": 13, "type": "INSTRUCTIONS", "trial_index": 172}, "uniqueid": "MTK3564:3OF2M9AATHV3VFY6HLMELE206CHZKT", "dateTime": 1520790328833}, {"current_trial": 173, "trialdata": {"rt": [3030, 7091, 9795, 14342, 18842], "trial_type": "math-distractor", "key_times": [2493, 2793, 3030, 6374, 6905, 7091, 9204, 9606, 9795, 13519, 14036, 14342, 18173, 18493, 18842, 23600, 23892], "responses": ["15", "16", "14", "26", "16"], "num2": [4, 6, 7, 9, 2, 6], "num3": [2, 2, 4, 8, 9, 4], "conditions": [24, 1600, "a", 24000], "internal_node_id": "0.0-128.0", "key_presses": [49, 53, 13, 49, 54, 13, 49, 52, 13, 50, 54, 13, 49, 54, 13, 49, 55], "trial": 5, "time_elapsed": 1261416, "type": "DISTRACTOR", "trial_index": 173, "num1": [9, 8, 3, 9, 5, 7]}, "uniqueid": "MTK3564:3OF2M9AATHV3VFY6HLMELE206CHZKT", "dateTime": 1520790354843}, {"current_trial": 174, "trialdata": {"rt": -1, "trial_type": "single-stim", "stimulus": "<p id=\"stim\">10</p>", "internal_node_id": "0.0-129.0-0.0", "time_elapsed": 1264420, "key_press": -1, "trial_index": 174}, "uniqueid": "MTK3564:3OF2M9AATHV3VFY6HLMELE206CHZKT", "dateTime": 1520790357846}, {"current_trial": 175, "trialdata": {"rt": -1, "trial_type": "single-stim", "stimulus": "<p id=\"stim\">9</p>", "internal_node_id": "0.0-129.0-1.0", "time_elapsed": 1265423, "key_press": -1, "trial_index": 175}, "uniqueid": "MTK3564:3OF2M9AATHV3VFY6HLMELE206CHZKT", "dateTime": 1520790358851}, {"current_trial": 176, "trialdata": {"rt": -1, "trial_type": "single-stim", "stimulus": "<p id=\"stim\">8</p>", "internal_node_id": "0.0-129.0-2.0", "time_elapsed": 1266429, "key_press": -1, "trial_index": 176}, "uniqueid": "MTK3564:3OF2M9AATHV3VFY6HLMELE206CHZKT", "dateTime": 1520790359855}, {"current_trial": 177, "trialdata": {"rt": -1, "trial_type": "single-stim", "stimulus": "<p id=\"stim\">7</p>", "internal_node_id": "0.0-129.0-3.0", "time_elapsed": 1267435, "key_press": -1, "trial_index": 177}, "uniqueid": "MTK3564:3OF2M9AATHV3VFY6HLMELE206CHZKT", "dateTime": 1520790360861}, {"current_trial": 178, "trialdata": {"rt": -1, "trial_type": "single-stim", "stimulus": "<p id=\"stim\">6</p>", "internal_node_id": "0.0-129.0-4.0", "time_elapsed": 1268438, "key_press": -1, "trial_index": 178}, "uniqueid": "MTK3564:3OF2M9AATHV3VFY6HLMELE206CHZKT", "dateTime": 1520790361865}, {"current_trial": 179, "trialdata": {"rt": -1, "trial_type": "single-stim", "stimulus": "<p id=\"stim\">5</p>", "internal_node_id": "0.0-129.0-5.0", "time_elapsed": 1269443, "key_press": -1, "trial_index": 179}, "uniqueid": "MTK3564:3OF2M9AATHV3VFY6HLMELE206CHZKT", "dateTime": 1520790362869}, {"current_trial": 180, "trialdata": {"rt": -1, "trial_type": "single-stim", "stimulus": "<p id=\"stim\">4</p>", "internal_node_id": "0.0-129.0-6.0", "time_elapsed": 1270447, "key_press": -1, "trial_index": 180}, "uniqueid": "MTK3564:3OF2M9AATHV3VFY6HLMELE206CHZKT", "dateTime": 1520790363873}, {"current_trial": 181, "trialdata": {"rt": -1, "trial_type": "single-stim", "stimulus": "<p id=\"stim\">3</p>", "internal_node_id": "0.0-129.0-7.0", "time_elapsed": 1271451, "key_press": -1, "trial_index": 181}, "uniqueid": "MTK3564:3OF2M9AATHV3VFY6HLMELE206CHZKT", "dateTime": 1520790364876}, {"current_trial": 182, "trialdata": {"rt": -1, "trial_type": "single-stim", "stimulus": "<p id=\"stim\">2</p>", "internal_node_id": "0.0-129.0-8.0", "time_elapsed": 1272453, "key_press": -1, "trial_index": 182}, "uniqueid": "MTK3564:3OF2M9AATHV3VFY6HLMELE206CHZKT", "dateTime": 1520790365879}, {"current_trial": 183, "trialdata": {"rt": -1, "trial_type": "single-stim", "stimulus": "<p id=\"stim\">1</p>", "internal_node_id": "0.0-129.0-9.0", "time_elapsed": 1273456, "key_press": -1, "trial_index": 183}, "uniqueid": "MTK3564:3OF2M9AATHV3VFY6HLMELE206CHZKT", "dateTime": 1520790366882}, {"current_trial": 184, "trialdata": {"rt": -1, "trial_type": "single-stim", "stimulus": "<p id=\"stim\">+</p>", "internal_node_id": "0.0-130.0-0.0", "time_elapsed": 1274959, "key_press": -1, "type": "FIXATION", "trial_index": 184}, "uniqueid": "MTK3564:3OF2M9AATHV3VFY6HLMELE206CHZKT", "dateTime": 1520790368385}, {"current_trial": 185, "trialdata": {"rt": -1000, "trial_type": "single-audio", "word": "convict", "stimulus": "/static/audio/wordpool/CONVICT.wav", "conditions": [24, 1600, "a", 24000], "internal_node_id": "0.0-131.0", "trial": 5, "time_elapsed": 1277443, "serialpos": 0, "key_press": -1, "wordID": 370, "type": "PRES_AUD", "trial_index": 185}, "uniqueid": "MTK3564:3OF2M9AATHV3VFY6HLMELE206CHZKT", "dateTime": 1520790370869}, {"current_trial": 186, "trialdata": {"rt": -1000, "trial_type": "single-audio", "word": "braces", "stimulus": "/static/audio/wordpool/BRACES.wav", "conditions": [24, 1600, "a", 24000], "internal_node_id": "0.0-132.0", "trial": 5, "time_elapsed": 1279920, "serialpos": 1, "key_press": -1, "wordID": 163, "type": "PRES_AUD", "trial_index": 186}, "uniqueid": "MTK3564:3OF2M9AATHV3VFY6HLMELE206CHZKT", "dateTime": 1520790373346}, {"current_trial": 187, "trialdata": {"rt": -1000, "trial_type": "single-audio", "word": "venus", "stimulus": "/static/audio/wordpool/VENUS.wav", "conditions": [24, 1600, "a", 24000], "internal_node_id": "0.0-133.0", "trial": 5, "time_elapsed": 1282466, "serialpos": 2, "key_press": -1, "wordID": 1556, "type": "PRES_AUD", "trial_index": 187}, "uniqueid": "MTK3564:3OF2M9AATHV3VFY6HLMELE206CHZKT", "dateTime": 1520790375892}, {"current_trial": 188, "trialdata": {"rt": -1000, "trial_type": "single-audio", "word": "wasp", "stimulus": "/static/audio/wordpool/WASP.wav", "conditions": [24, 1600, "a", 24000], "internal_node_id": "0.0-134.0", "trial": 5, "time_elapsed": 1285169, "serialpos": 3, "key_press": -1, "wordID": 1592, "type": "PRES_AUD", "trial_index": 188}, "uniqueid": "MTK3564:3OF2M9AATHV3VFY6HLMELE206CHZKT", "dateTime": 1520790378595}, {"current_trial": 189, "trialdata": {"rt": -1000, "trial_type": "single-audio", "word": "flask", "stimulus": "/static/audio/wordpool/FLASK.wav", "conditions": [24, 1600, "a", 24000], "internal_node_id": "0.0-135.0", "trial": 5, "time_elapsed": 1287613, "serialpos": 4, "key_press": -1, "wordID": 575, "type": "PRES_AUD", "trial_index": 189}, "uniqueid": "MTK3564:3OF2M9AATHV3VFY6HLMELE206CHZKT", "dateTime": 1520790381039}, {"current_trial": 190, "trialdata": {"rt": -1000, "trial_type": "single-audio", "word": "spool", "stimulus": "/static/audio/wordpool/SPOOL.wav", "conditions": [24, 1600, "a", 24000], "internal_node_id": "0.0-136.0", "trial": 5, "time_elapsed": 1290340, "serialpos": 5, "key_press": -1, "wordID": 1355, "type": "PRES_AUD", "trial_index": 190}, "uniqueid": "MTK3564:3OF2M9AATHV3VFY6HLMELE206CHZKT", "dateTime": 1520790383766}, {"current_trial": 191, "trialdata": {"rt": -1000, "trial_type": "single-audio", "word": "rod", "stimulus": "/static/audio/wordpool/ROD.wav", "conditions": [24, 1600, "a", 24000], "internal_node_id": "0.0-137.0", "trial": 5, "time_elapsed": 1292758, "serialpos": 6, "key_press": -1, "wordID": 1202, "type": "PRES_AUD", "trial_index": 191}, "uniqueid": "MTK3564:3OF2M9AATHV3VFY6HLMELE206CHZKT", "dateTime": 1520790386184}, {"current_trial": 192, "trialdata": {"rt": -1000, "trial_type": "single-audio", "word": "handbag", "stimulus": "/static/audio/wordpool/HANDBAG.wav", "conditions": [24, 1600, "a", 24000], "internal_node_id": "0.0-138.0", "trial": 5, "time_elapsed": 1295338, "serialpos": 7, "key_press": -1, "wordID": 683, "type": "PRES_AUD", "trial_index": 192}, "uniqueid": "MTK3564:3OF2M9AATHV3VFY6HLMELE206CHZKT", "dateTime": 1520790388764}, {"current_trial": 193, "trialdata": {"rt": -1000, "trial_type": "single-audio", "word": "husband", "stimulus": "/static/audio/wordpool/HUSBAND.wav", "conditions": [24, 1600, "a", 24000], "internal_node_id": "0.0-139.0", "trial": 5, "time_elapsed": 1297826, "serialpos": 8, "key_press": -1, "wordID": 727, "type": "PRES_AUD", "trial_index": 193}, "uniqueid": "MTK3564:3OF2M9AATHV3VFY6HLMELE206CHZKT", "dateTime": 1520790391251}, {"current_trial": 194, "trialdata": {"rt": -1000, "trial_type": "single-audio", "word": "kleenex", "stimulus": "/static/audio/wordpool/KLEENEX.wav", "conditions": [24, 1600, "a", 24000], "internal_node_id": "0.0-140.0", "trial": 5, "time_elapsed": 1300232, "serialpos": 9, "key_press": -1, "wordID": 781, "type": "PRES_AUD", "trial_index": 194}, "uniqueid": "MTK3564:3OF2M9AATHV3VFY6HLMELE206CHZKT", "dateTime": 1520790393658}, {"current_trial": 195, "trialdata": {"rt": -1000, "trial_type": "single-audio", "word": "banquet", "stimulus": "/static/audio/wordpool/BANQUET.wav", "conditions": [24, 1600, "a", 24000], "internal_node_id": "0.0-141.0", "trial": 5, "time_elapsed": 1302951, "serialpos": 10, "key_press": -1, "wordID": 85, "type": "PRES_AUD", "trial_index": 195}, "uniqueid": "MTK3564:3OF2M9AATHV3VFY6HLMELE206CHZKT", "dateTime": 1520790396377}, {"current_trial": 196, "trialdata": {"rt": -1000, "trial_type": "single-audio", "word": "lover", "stimulus": "/static/audio/wordpool/LOVER.wav", "conditions": [24, 1600, "a", 24000], "internal_node_id": "0.0-142.0", "trial": 5, "time_elapsed": 1305405, "serialpos": 11, "key_press": -1, "wordID": 845, "type": "PRES_AUD", "trial_index": 196}, "uniqueid": "MTK3564:3OF2M9AATHV3VFY6HLMELE206CHZKT", "dateTime": 1520790398831}, {"current_trial": 197, "trialdata": {"rt": -1000, "trial_type": "single-audio", "word": "bullet", "stimulus": "/static/audio/wordpool/BULLET.wav", "conditions": [24, 1600, "a", 24000], "internal_node_id": "0.0-143.0", "trial": 5, "time_elapsed": 1307872, "serialpos": 12, "key_press": -1, "wordID": 193, "type": "PRES_AUD", "trial_index": 197}, "uniqueid": "MTK3564:3OF2M9AATHV3VFY6HLMELE206CHZKT", "dateTime": 1520790401298}, {"current_trial": 198, "trialdata": {"rt": -1000, "trial_type": "single-audio", "word": "ointment", "stimulus": "/static/audio/wordpool/OINTMENT.wav", "conditions": [24, 1600, "a", 24000], "internal_node_id": "0.0-144.0", "trial": 5, "time_elapsed": 1310650, "serialpos": 13, "key_press": -1, "wordID": 973, "type": "PRES_AUD", "trial_index": 198}, "uniqueid": "MTK3564:3OF2M9AATHV3VFY6HLMELE206CHZKT", "dateTime": 1520790404076}, {"current_trial": 199, "trialdata": {"rt": -1000, "trial_type": "single-audio", "word": "fungus", "stimulus": "/static/audio/wordpool/FUNGUS.wav", "conditions": [24, 1600, "a", 24000], "internal_node_id": "0.0-145.0", "trial": 5, "time_elapsed": 1313148, "serialpos": 14, "key_press": -1, "wordID": 613, "type": "PRES_AUD", "trial_index": 199}, "uniqueid": "MTK3564:3OF2M9AATHV3VFY6HLMELE206CHZKT", "dateTime": 1520790406574}, {"current_trial": 200, "trialdata": {"rt": -1000, "trial_type": "single-audio", "word": "tart", "stimulus": "/static/audio/wordpool/TART.wav", "conditions": [24, 1600, "a", 24000], "internal_node_id": "0.0-146.0", "trial": 5, "time_elapsed": 1315797, "serialpos": 15, "key_press": -1, "wordID": 1435, "type": "PRES_AUD", "trial_index": 200}, "uniqueid": "MTK3564:3OF2M9AATHV3VFY6HLMELE206CHZKT", "dateTime": 1520790409223}, {"current_trial": 201, "trialdata": {"rt": -1000, "trial_type": "single-audio", "word": "pluto", "stimulus": "/static/audio/wordpool/PLUTO.wav", "conditions": [24, 1600, "a", 24000], "internal_node_id": "0.0-147.0", "trial": 5, "time_elapsed": 1318484, "serialpos": 16, "key_press": -1, "wordID": 1091, "type": "PRES_AUD", "trial_index": 201}, "uniqueid": "MTK3564:3OF2M9AATHV3VFY6HLMELE206CHZKT", "dateTime": 1520790411910}, {"current_trial": 202, "trialdata": {"rt": -1000, "trial_type": "single-audio", "word": "wife", "stimulus": "/static/audio/wordpool/WIFE.wav", "conditions": [24, 1600, "a", 24000], "internal_node_id": "0.0-148.0", "trial": 5, "time_elapsed": 1320911, "serialpos": 17, "key_press": -1, "wordID": 1608, "type": "PRES_AUD", "trial_index": 202}, "uniqueid": "MTK3564:3OF2M9AATHV3VFY6HLMELE206CHZKT", "dateTime": 1520790414338}, {"current_trial": 203, "trialdata": {"rt": -1000, "trial_type": "single-audio", "word": "burglar", "stimulus": "/static/audio/wordpool/BURGLAR.wav", "conditions": [24, 1600, "a", 24000], "internal_node_id": "0.0-149.0", "trial": 5, "time_elapsed": 1323380, "serialpos": 18, "key_press": -1, "wordID": 199, "type": "PRES_AUD", "trial_index": 203}, "uniqueid": "MTK3564:3OF2M9AATHV3VFY6HLMELE206CHZKT", "dateTime": 1520790416806}, {"current_trial": 204, "trialdata": {"rt": -1000, "trial_type": "single-audio", "word": "fiddle", "stimulus": "/static/audio/wordpool/FIDDLE.wav", "conditions": [24, 1600, "a", 24000], "internal_node_id": "0.0-150.0", "trial": 5, "time_elapsed": 1325832, "serialpos": 19, "key_press": -1, "wordID": 560, "type": "PRES_AUD", "trial_index": 204}, "uniqueid": "MTK3564:3OF2M9AATHV3VFY6HLMELE206CHZKT", "dateTime": 1520790419258}, {"current_trial": 205, "trialdata": {"rt": -1000, "trial_type": "single-audio", "word": "apple", "stimulus": "/static/audio/wordpool/APPLE.wav", "conditions": [24, 1600, "a", 24000], "internal_node_id": "0.0-151.0", "trial": 5, "time_elapsed": 1328347, "serialpos": 20, "key_press": -1, "wordID": 32, "type": "PRES_AUD", "trial_index": 205}, "uniqueid": "MTK3564:3OF2M9AATHV3VFY6HLMELE206CHZKT", "dateTime": 1520790421773}, {"current_trial": 206, "trialdata": {"rt": -1000, "trial_type": "single-audio", "word": "grape", "stimulus": "/static/audio/wordpool/GRAPE.wav", "conditions": [24, 1600, "a", 24000], "internal_node_id": "0.0-152.0", "trial": 5, "time_elapsed": 1330910, "serialpos": 21, "key_press": -1, "wordID": 653, "type": "PRES_AUD", "trial_index": 206}, "uniqueid": "MTK3564:3OF2M9AATHV3VFY6HLMELE206CHZKT", "dateTime": 1520790424336}, {"current_trial": 207, "trialdata": {"rt": -1000, "trial_type": "single-audio", "word": "widow", "stimulus": "/static/audio/wordpool/WIDOW.wav", "conditions": [24, 1600, "a", 24000], "internal_node_id": "0.0-153.0", "trial": 5, "time_elapsed": 1333655, "serialpos": 22, "key_press": -1, "wordID": 1607, "type": "PRES_AUD", "trial_index": 207}, "uniqueid": "MTK3564:3OF2M9AATHV3VFY6HLMELE206CHZKT", "dateTime": 1520790427081}, {"current_trial": 208, "trialdata": {"rt": -1000, "trial_type": "single-audio", "word": "drawing", "stimulus": "/static/audio/wordpool/DRAWING.wav", "conditions": [24, 1600, "a", 24000], "internal_node_id": "0.0-154.0", "trial": 5, "time_elapsed": 1336174, "serialpos": 23, "key_press": -1, "wordID": 493, "type": "PRES_AUD", "trial_index": 208}, "uniqueid": "MTK3564:3OF2M9AATHV3VFY6HLMELE206CHZKT", "dateTime": 1520790429600}, {"current_trial": 209, "trialdata": {"rt": -1, "trial_type": "single-stim", "stimulus": "", "internal_node_id": "0.0-155.0-0.0", "time_elapsed": 1337512, "key_press": -1, "type": "PRE_RECALL_DELAY", "trial_index": 209}, "uniqueid": "MTK3564:3OF2M9AATHV3VFY6HLMELE206CHZKT", "dateTime": 1520790430938}, {"current_trial": 210, "trialdata": {"rt": -1000, "trial_type": "single-audio", "stimulus": "/static/audio/400Hz.wav", "internal_node_id": "0.0-156.0", "time_elapsed": 1338015, "key_press": -1, "type": "PRE_RECALL_ALERT", "trial_index": 210}, "uniqueid": "MTK3564:3OF2M9AATHV3VFY6HLMELE206CHZKT", "dateTime": 1520790431441}, {"current_trial": 211, "trialdata": {"rt": [3533, 6460, 10330, 13102, 16153, 23705, 24924, 39067, 47600, 59379], "recwords": ["drawing", "convict", "braces", "venus", "pluto", "husband", "wife", "burgler", "fiddle", "wasp"], "key_times": [430, 1329, 1775, 2064, 2403, 2602, 2673, 3533, 3868, 4036, 4182, 4387, 4529, 4955, 5330, 6460, 6770, 7020, 7204, 7450, 7659, 8178, 8418, 9710, 10330, 11394, 11659, 11807, 12496, 12652, 13102, 14569, 14863, 15126, 15399, 15555, 16153, 22284, 22458, 22581, 22949, 23180, 23323, 23479, 23705, 24175, 24314, 24489, 24693, 24924, 36891, 37104, 37257, 37630, 37857, 38688, 38864, 39067, 46262, 46441, 46670, 46858, 47223, 47363, 47600, 58249, 58487, 58729, 59038, 59379], "trial_type": "free-recall", "conditions": [24, 1600, "a", 24000], "internal_node_id": "0.0-157.0-0.0", "key_presses": [68, 82, 65, 87, 73, 78, 71, 13, 67, 79, 78, 86, 73, 67, 84, 13, 66, 82, 65, 67, 75, 8, 69, 83, 13, 86, 69, 78, 85, 83, 13, 80, 76, 85, 84, 79, 13, 72, 85, 83, 66, 65, 78, 68, 13, 87, 73, 70, 69, 13, 66, 85, 82, 71, 76, 69, 82, 13, 70, 73, 68, 68, 76, 69, 13, 87, 65, 83, 80, 13], "trial": 5, "time_elapsed": 1398025, "type": "FREE_RECALL", "trial_index": 211}, "uniqueid": "MTK3564:3OF2M9AATHV3VFY6HLMELE206CHZKT", "dateTime": 1520790491476}, {"current_trial": 212, "trialdata": {"rt": 854, "trial_type": "text", "internal_node_id": "0.0-158.0", "time_elapsed": 1400915, "key_press": 13, "type": "INSTRUCTIONS", "trial_index": 212}, "uniqueid": "MTK3564:3OF2M9AATHV3VFY6HLMELE206CHZKT", "dateTime": 1520790494341}, {"current_trial": 213, "trialdata": {"rt": [2175, 5819, 18428, 23076], "trial_type": "math-distractor", "key_times": [1768, 1969, 2175, 5017, 5378, 5819, 18012, 18199, 18428, 22476, 22689, 23076], "responses": ["11", "17", "22", "18"], "num2": [8, 9, 6, 7, 7], "num3": [1, 1, 7, 2, 6], "conditions": [12, 1600, "a", 24000], "internal_node_id": "0.0-159.0", "key_presses": [49, 49, 13, 49, 55, 13, 50, 50, 13, 49, 56, 13], "trial": 6, "time_elapsed": 1426928, "type": "DISTRACTOR", "trial_index": 213, "num1": [2, 7, 9, 9, 1]}, "uniqueid": "MTK3564:3OF2M9AATHV3VFY6HLMELE206CHZKT", "dateTime": 1520790520354}, {"current_trial": 214, "trialdata": {"rt": -1, "trial_type": "single-stim", "stimulus": "<p id=\"stim\">10</p>", "internal_node_id": "0.0-160.0-0.0", "time_elapsed": 1429930, "key_press": -1, "trial_index": 214}, "uniqueid": "MTK3564:3OF2M9AATHV3VFY6HLMELE206CHZKT", "dateTime": 1520790523356}, {"current_trial": 215, "trialdata": {"rt": -1, "trial_type": "single-stim", "stimulus": "<p id=\"stim\">9</p>", "internal_node_id": "0.0-160.0-1.0", "time_elapsed": 1430933, "key_press": -1, "trial_index": 215}, "uniqueid": "MTK3564:3OF2M9AATHV3VFY6HLMELE206CHZKT", "dateTime": 1520790524359}, {"current_trial": 216, "trialdata": {"rt": -1, "trial_type": "single-stim", "stimulus": "<p id=\"stim\">8</p>", "internal_node_id": "0.0-160.0-2.0", "time_elapsed": 1431936, "key_press": -1, "trial_index": 216}, "uniqueid": "MTK3564:3OF2M9AATHV3VFY6HLMELE206CHZKT", "dateTime": 1520790525362}, {"current_trial": 217, "trialdata": {"rt": -1, "trial_type": "single-stim", "stimulus": "<p id=\"stim\">7</p>", "internal_node_id": "0.0-160.0-3.0", "time_elapsed": 1432939, "key_press": -1, "trial_index": 217}, "uniqueid": "MTK3564:3OF2M9AATHV3VFY6HLMELE206CHZKT", "dateTime": 1520790526365}, {"current_trial": 218, "trialdata": {"rt": -1, "trial_type": "single-stim", "stimulus": "<p id=\"stim\">6</p>", "internal_node_id": "0.0-160.0-4.0", "time_elapsed": 1433942, "key_press": -1, "trial_index": 218}, "uniqueid": "MTK3564:3OF2M9AATHV3VFY6HLMELE206CHZKT", "dateTime": 1520790527368}, {"current_trial": 219, "trialdata": {"rt": -1, "trial_type": "single-stim", "stimulus": "<p id=\"stim\">5</p>", "internal_node_id": "0.0-160.0-5.0", "time_elapsed": 1434945, "key_press": -1, "trial_index": 219}, "uniqueid": "MTK3564:3OF2M9AATHV3VFY6HLMELE206CHZKT", "dateTime": 1520790528371}, {"current_trial": 220, "trialdata": {"rt": -1, "trial_type": "single-stim", "stimulus": "<p id=\"stim\">4</p>", "internal_node_id": "0.0-160.0-6.0", "time_elapsed": 1435950, "key_press": -1, "trial_index": 220}, "uniqueid": "MTK3564:3OF2M9AATHV3VFY6HLMELE206CHZKT", "dateTime": 1520790529376}, {"current_trial": 221, "trialdata": {"rt": -1, "trial_type": "single-stim", "stimulus": "<p id=\"stim\">3</p>", "internal_node_id": "0.0-160.0-7.0", "time_elapsed": 1436955, "key_press": -1, "trial_index": 221}, "uniqueid": "MTK3564:3OF2M9AATHV3VFY6HLMELE206CHZKT", "dateTime": 1520790530381}, {"current_trial": 222, "trialdata": {"rt": -1, "trial_type": "single-stim", "stimulus": "<p id=\"stim\">2</p>", "internal_node_id": "0.0-160.0-8.0", "time_elapsed": 1437958, "key_press": -1, "trial_index": 222}, "uniqueid": "MTK3564:3OF2M9AATHV3VFY6HLMELE206CHZKT", "dateTime": 1520790531384}, {"current_trial": 223, "trialdata": {"rt": -1, "trial_type": "single-stim", "stimulus": "<p id=\"stim\">1</p>", "internal_node_id": "0.0-160.0-9.0", "time_elapsed": 1438961, "key_press": -1, "trial_index": 223}, "uniqueid": "MTK3564:3OF2M9AATHV3VFY6HLMELE206CHZKT", "dateTime": 1520790532387}, {"current_trial": 224, "trialdata": {"rt": -1, "trial_type": "single-stim", "stimulus": "<p id=\"stim\">+</p>", "internal_node_id": "0.0-161.0-0.0", "time_elapsed": 1440464, "key_press": -1, "type": "FIXATION", "trial_index": 224}, "uniqueid": "MTK3564:3OF2M9AATHV3VFY6HLMELE206CHZKT", "dateTime": 1520790533890}, {"current_trial": 225, "trialdata": {"rt": -1000, "trial_type": "single-audio", "word": "canal", "stimulus": "/static/audio/wordpool/CANAL.wav", "conditions": [12, 1600, "a", 24000], "internal_node_id": "0.0-162.0", "trial": 6, "time_elapsed": 1443215, "serialpos": 0, "key_press": -1, "wordID": 225, "type": "PRES_AUD", "trial_index": 225}, "uniqueid": "MTK3564:3OF2M9AATHV3VFY6HLMELE206CHZKT", "dateTime": 1520790536641}, {"current_trial": 226, "trialdata": {"rt": -1000, "trial_type": "single-audio", "word": "canyon", "stimulus": "/static/audio/wordpool/CANYON.wav", "conditions": [12, 1600, "a", 24000], "internal_node_id": "0.0-163.0", "trial": 6, "time_elapsed": 1445892, "serialpos": 1, "key_press": -1, "wordID": 234, "type": "PRES_AUD", "trial_index": 226}, "uniqueid": "MTK3564:3OF2M9AATHV3VFY6HLMELE206CHZKT", "dateTime": 1520790539318}, {"current_trial": 227, "trialdata": {"rt": -1000, "trial_type": "single-audio", "word": "cousin", "stimulus": "/static/audio/wordpool/COUSIN.wav", "conditions": [12, 1600, "a", 24000], "internal_node_id": "0.0-164.0", "trial": 6, "time_elapsed": 1448343, "serialpos": 2, "key_press": -1, "wordID": 391, "type": "PRES_AUD", "trial_index": 227}, "uniqueid": "MTK3564:3OF2M9AATHV3VFY6HLMELE206CHZKT", "dateTime": 1520790541769}, {"current_trial": 228, "trialdata": {"rt": -1000, "trial_type": "single-audio", "word": "creature", "stimulus": "/static/audio/wordpool/CREATURE.wav", "conditions": [12, 1600, "a", 24000], "internal_node_id": "0.0-165.0", "trial": 6, "time_elapsed": 1451058, "serialpos": 3, "key_press": -1, "wordID": 402, "type": "PRES_AUD", "trial_index": 228}, "uniqueid": "MTK3564:3OF2M9AATHV3VFY6HLMELE206CHZKT", "dateTime": 1520790544484}, {"current_trial": 229, "trialdata": {"rt": -1000, "trial_type": "single-audio", "word": "sunset", "stimulus": "/static/audio/wordpool/SUNSET.wav", "conditions": [12, 1600, "a", 24000], "internal_node_id": "0.0-166.0", "trial": 6, "time_elapsed": 1453679, "serialpos": 4, "key_press": -1, "wordID": 1407, "type": "PRES_AUD", "trial_index": 229}, "uniqueid": "MTK3564:3OF2M9AATHV3VFY6HLMELE206CHZKT", "dateTime": 1520790547105}, {"current_trial": 230, "trialdata": {"rt": -1000, "trial_type": "single-audio", "word": "friend", "stimulus": "/static/audio/wordpool/FRIEND.wav", "conditions": [12, 1600, "a", 24000], "internal_node_id": "0.0-167.0", "trial": 6, "time_elapsed": 1456225, "serialpos": 5, "key_press": -1, "wordID": 605, "type": "PRES_AUD", "trial_index": 230}, "uniqueid": "MTK3564:3OF2M9AATHV3VFY6HLMELE206CHZKT", "dateTime": 1520790549651}, {"current_trial": 231, "trialdata": {"rt": -1000, "trial_type": "single-audio", "word": "grill", "stimulus": "/static/audio/wordpool/GRILL.wav", "conditions": [12, 1600, "a", 24000], "internal_node_id": "0.0-168.0", "trial": 6, "time_elapsed": 1458871, "serialpos": 6, "key_press": -1, "wordID": 660, "type": "PRES_AUD", "trial_index": 231}, "uniqueid": "MTK3564:3OF2M9AATHV3VFY6HLMELE206CHZKT", "dateTime": 1520790552297}, {"current_trial": 232, "trialdata": {"rt": -1000, "trial_type": "single-audio", "word": "kitchen", "stimulus": "/static/audio/wordpool/KITCHEN.wav", "conditions": [12, 1600, "a", 24000], "internal_node_id": "0.0-169.0", "trial": 6, "time_elapsed": 1461325, "serialpos": 7, "key_press": -1, "wordID": 777, "type": "PRES_AUD", "trial_index": 232}, "uniqueid": "MTK3564:3OF2M9AATHV3VFY6HLMELE206CHZKT", "dateTime": 1520790554751}, {"current_trial": 233, "trialdata": {"rt": -1000, "trial_type": "single-audio", "word": "basement", "stimulus": "/static/audio/wordpool/BASEMENT.wav", "conditions": [12, 1600, "a", 24000], "internal_node_id": "0.0-170.0", "trial": 6, "time_elapsed": 1464085, "serialpos": 8, "key_press": -1, "wordID": 93, "type": "PRES_AUD", "trial_index": 233}, "uniqueid": "MTK3564:3OF2M9AATHV3VFY6HLMELE206CHZKT", "dateTime": 1520790557511}, {"current_trial": 234, "trialdata": {"rt": -1000, "trial_type": "single-audio", "word": "liver", "stimulus": "/static/audio/wordpool/LIVER.wav", "conditions": [12, 1600, "a", 24000], "internal_node_id": "0.0-171.0", "trial": 6, "time_elapsed": 1466515, "serialpos": 9, "key_press": -1, "wordID": 832, "type": "PRES_AUD", "trial_index": 234}, "uniqueid": "MTK3564:3OF2M9AATHV3VFY6HLMELE206CHZKT", "dateTime": 1520790559941}, {"current_trial": 235, "trialdata": {"rt": -1000, "trial_type": "single-audio", "word": "princess", "stimulus": "/static/audio/wordpool/PRINCESS.wav", "conditions": [12, 1600, "a", 24000], "internal_node_id": "0.0-172.0", "trial": 6, "time_elapsed": 1469193, "serialpos": 10, "key_press": -1, "wordID": 1124, "type": "PRES_AUD", "trial_index": 235}, "uniqueid": "MTK3564:3OF2M9AATHV3VFY6HLMELE206CHZKT", "dateTime": 1520790562619}, {"current_trial": 236, "trialdata": {"rt": -1000, "trial_type": "single-audio", "word": "frame", "stimulus": "/static/audio/wordpool/FRAME.wav", "conditions": [12, 1600, "a", 24000], "internal_node_id": "0.0-173.0", "trial": 6, "time_elapsed": 1471630, "serialpos": 11, "key_press": -1, "wordID": 599, "type": "PRES_AUD", "trial_index": 236}, "uniqueid": "MTK3564:3OF2M9AATHV3VFY6HLMELE206CHZKT", "dateTime": 1520790565057}, {"current_trial": 237, "trialdata": {"rt": -1, "trial_type": "single-stim", "stimulus": "", "internal_node_id": "0.0-174.0-0.0", "time_elapsed": 1472923, "key_press": -1, "type": "PRE_RECALL_DELAY", "trial_index": 237}, "uniqueid": "MTK3564:3OF2M9AATHV3VFY6HLMELE206CHZKT", "dateTime": 1520790566349}, {"current_trial": 238, "trialdata": {"rt": -1000, "trial_type": "single-audio", "stimulus": "/static/audio/400Hz.wav", "internal_node_id": "0.0-175.0", "time_elapsed": 1473427, "key_press": -1, "type": "PRE_RECALL_ALERT", "trial_index": 238}, "uniqueid": "MTK3564:3OF2M9AATHV3VFY6HLMELE206CHZKT", "dateTime": 1520790566854}, {"current_trial": 239, "trialdata": {"rt": [2662, 5686, 8710, 10196, 17403, 22068], "recwords": ["canal", "canyon", "cousin", "frame", "princess", "frame"], "key_times": [1423, 1629, 1795, 1942, 2207, 2662, 3153, 3331, 3469, 3891, 4177, 4256, 4879, 5195, 5686, 6368, 6562, 6681, 6862, 7127, 7281, 8710, 9121, 9336, 9549, 9679, 10011, 10196, 15263, 15437, 15998, 16173, 16508, 16745, 17017, 17147, 17403, 21139, 21370, 21567, 21756, 21870, 22068], "trial_type": "free-recall", "conditions": [12, 1600, "a", 24000], "internal_node_id": "0.0-176.0-0.0", "key_presses": [67, 65, 78, 65, 76, 13, 67, 65, 78, 89, 79, 85, 8, 78, 13, 67, 79, 85, 83, 73, 78, 13, 70, 82, 65, 77, 69, 13, 80, 82, 73, 78, 67, 69, 83, 83, 13, 70, 82, 65, 77, 69, 13], "trial": 6, "time_elapsed": 1533438, "type": "FREE_RECALL", "trial_index": 239}, "uniqueid": "MTK3564:3OF2M9AATHV3VFY6HLMELE206CHZKT", "dateTime": 1520790626892}, {"current_trial": 240, "trialdata": {"rt": 1086, "trial_type": "text", "internal_node_id": "0.0-177.0", "time_elapsed": 1536555, "key_press": 13, "type": "INSTRUCTIONS", "trial_index": 240}, "uniqueid": "MTK3564:3OF2M9AATHV3VFY6HLMELE206CHZKT", "dateTime": 1520790629981}, {"current_trial": 241, "trialdata": {"rt": [9125], "trial_type": "math-distractor", "key_times": [8708, 8954, 9125], "responses": ["14"], "num2": [2, 9], "num3": [5, 3], "conditions": [24, 800, "a", 12000], "internal_node_id": "0.0-178.0", "key_presses": [49, 52, 13], "trial": 7, "time_elapsed": 1550567, "type": "DISTRACTOR", "trial_index": 241, "num1": [4, 3]}, "uniqueid": "MTK3564:3OF2M9AATHV3VFY6HLMELE206CHZKT", "dateTime": 1520790643993}, {"current_trial": 242, "trialdata": {"rt": -1, "trial_type": "single-stim", "stimulus": "<p id=\"stim\">10</p>", "internal_node_id": "0.0-179.0-0.0", "time_elapsed": 1553572, "key_press": -1, "trial_index": 242}, "uniqueid": "MTK3564:3OF2M9AATHV3VFY6HLMELE206CHZKT", "dateTime": 1520790646998}, {"current_trial": 243, "trialdata": {"rt": -1, "trial_type": "single-stim", "stimulus": "<p id=\"stim\">9</p>", "internal_node_id": "0.0-179.0-1.0", "time_elapsed": 1554576, "key_press": -1, "trial_index": 243}, "uniqueid": "MTK3564:3OF2M9AATHV3VFY6HLMELE206CHZKT", "dateTime": 1520790648001}, {"current_trial": 244, "trialdata": {"rt": -1, "trial_type": "single-stim", "stimulus": "<p id=\"stim\">8</p>", "internal_node_id": "0.0-179.0-2.0", "time_elapsed": 1555578, "key_press": -1, "trial_index": 244}, "uniqueid": "MTK3564:3OF2M9AATHV3VFY6HLMELE206CHZKT", "dateTime": 1520790649004}, {"current_trial": 245, "trialdata": {"rt": -1, "trial_type": "single-stim", "stimulus": "<p id=\"stim\">7</p>", "internal_node_id": "0.0-179.0-3.0", "time_elapsed": 1556581, "key_press": -1, "trial_index": 245}, "uniqueid": "MTK3564:3OF2M9AATHV3VFY6HLMELE206CHZKT", "dateTime": 1520790650007}, {"current_trial": 246, "trialdata": {"rt": -1, "trial_type": "single-stim", "stimulus": "<p id=\"stim\">6</p>", "internal_node_id": "0.0-179.0-4.0", "time_elapsed": 1557585, "key_press": -1, "trial_index": 246}, "uniqueid": "MTK3564:3OF2M9AATHV3VFY6HLMELE206CHZKT", "dateTime": 1520790651011}, {"current_trial": 247, "trialdata": {"rt": -1, "trial_type": "single-stim", "stimulus": "<p id=\"stim\">5</p>", "internal_node_id": "0.0-179.0-5.0", "time_elapsed": 1558590, "key_press": -1, "trial_index": 247}, "uniqueid": "MTK3564:3OF2M9AATHV3VFY6HLMELE206CHZKT", "dateTime": 1520790652016}, {"current_trial": 248, "trialdata": {"rt": -1, "trial_type": "single-stim", "stimulus": "<p id=\"stim\">4</p>", "internal_node_id": "0.0-179.0-6.0", "time_elapsed": 1559593, "key_press": -1, "trial_index": 248}, "uniqueid": "MTK3564:3OF2M9AATHV3VFY6HLMELE206CHZKT", "dateTime": 1520790653019}, {"current_trial": 249, "trialdata": {"rt": -1, "trial_type": "single-stim", "stimulus": "<p id=\"stim\">3</p>", "internal_node_id": "0.0-179.0-7.0", "time_elapsed": 1560597, "key_press": -1, "trial_index": 249}, "uniqueid": "MTK3564:3OF2M9AATHV3VFY6HLMELE206CHZKT", "dateTime": 1520790654023}, {"current_trial": 250, "trialdata": {"rt": -1, "trial_type": "single-stim", "stimulus": "<p id=\"stim\">2</p>", "internal_node_id": "0.0-179.0-8.0", "time_elapsed": 1561601, "key_press": -1, "trial_index": 250}, "uniqueid": "MTK3564:3OF2M9AATHV3VFY6HLMELE206CHZKT", "dateTime": 1520790655027}, {"current_trial": 251, "trialdata": {"rt": -1, "trial_type": "single-stim", "stimulus": "<p id=\"stim\">1</p>", "internal_node_id": "0.0-179.0-9.0", "time_elapsed": 1562605, "key_press": -1, "trial_index": 251}, "uniqueid": "MTK3564:3OF2M9AATHV3VFY6HLMELE206CHZKT", "dateTime": 1520790656031}, {"current_trial": 252, "trialdata": {"rt": -1, "trial_type": "single-stim", "stimulus": "<p id=\"stim\">+</p>", "internal_node_id": "0.0-180.0-0.0", "time_elapsed": 1564109, "key_press": -1, "type": "FIXATION", "trial_index": 252}, "uniqueid": "MTK3564:3OF2M9AATHV3VFY6HLMELE206CHZKT", "dateTime": 1520790657535}, {"current_trial": 253, "trialdata": {"rt": -1000, "trial_type": "single-audio", "word": "county", "stimulus": "/static/audio/wordpool/COUNTY.wav", "conditions": [24, 800, "a", 12000], "internal_node_id": "0.0-181.0", "trial": 7, "time_elapsed": 1565802, "serialpos": 0, "key_press": -1, "wordID": 388, "type": "PRES_AUD", "trial_index": 253}, "uniqueid": "MTK3564:3OF2M9AATHV3VFY6HLMELE206CHZKT", "dateTime": 1520790659228}, {"current_trial": 254, "trialdata": {"rt": -1000, "trial_type": "single-audio", "word": "tortoise", "stimulus": "/static/audio/wordpool/TORTOISE.wav", "conditions": [24, 800, "a", 12000], "internal_node_id": "0.0-182.0", "trial": 7, "time_elapsed": 1567749, "serialpos": 1, "key_press": -1, "wordID": 1485, "type": "PRES_AUD", "trial_index": 254}, "uniqueid": "MTK3564:3OF2M9AATHV3VFY6HLMELE206CHZKT", "dateTime": 1520790661176}, {"current_trial": 255, "trialdata": {"rt": -1000, "trial_type": "single-audio", "word": "child", "stimulus": "/static/audio/wordpool