{"assignmentId": "3HOSI13XH0VSE8N0XMBUQ9O7YLBDDW", "workerId": "MTK3562", "questiondata": {"origin": "United States", "strat-rehearsal": "100", "marital": "Single", "education": "Bachelor's degree", "ethnicity": "Not Hispanic", "color_depth": 24, "distracted": "No", "wrote-notes": "No", "strat-other": "", "screen_width": 1280, "avail_screen_width": 1280, "avail_screen_height": 773, "strat-image": "85", "language": "English", "gender": "Female", "age": "44", "gender_other": "", "race": ["White"], "strat-categorize": "100", "pixel_depth": 24, "strat-spatial": "0", "strat-story": "100", "race_other": "", "screen_height": 800}, "bonus": 0, "hitId": "356ZPKYPUHO2EWNN8PK1E4JD9FWPYK", "counterbalance": 144, "useragent": "Mozilla/5.0 (Macintosh; Intel Mac OS X 10_10_5) AppleWebKit/537.36 (KHTML, like Gecko) Chrome/64.0.3282.186 Safari/537.36", "eventdata": [{"eventtype": "initialized", "interval": 0, "value": null, "timestamp": 1520789992059}, {"eventtype": "window_resize", "interval": 0, "value": [1280, 722], "timestamp": 1520789992059}], "data": [{"current_trial": 0, "trialdata": {"rt": 2149, "trial_type": "text", "internal_node_id": "0.0-0.0", "time_elapsed": 2150, "key_press": 32, "type": "INSTRUCTIONS", "trial_index": 0}, "uniqueid": "MTK3562:3HOSI13XH0VSE8N0XMBUQ9O7YLBDDW", "dateTime": 1520790008737}, {"current_trial": 1, "trialdata": {"rt": 33308, "trial_type": "text", "internal_node_id": "0.0-1.0", "time_elapsed": 35460, "key_press": 32, "type": "INSTRUCTIONS", "trial_index": 1}, "uniqueid": "MTK3562:3HOSI13XH0VSE8N0XMBUQ9O7YLBDDW", "dateTime": 1520790042047}, {"current_trial": 2, "trialdata": {"rt": [10290], "trial_type": "audio-test", "responses": ["ocean"], "internal_node_id": "0.0-2.0", "time_elapsed": 45763, "type": "AUDIO_TEST", "trial_index": 2}, "uniqueid": "MTK3562:3HOSI13XH0VSE8N0XMBUQ9O7YLBDDW", "dateTime": 1520790052350}, {"current_trial": 3, "trialdata": {"rt": [6154], "trial_type": "audio-test", "responses": ["crystal"], "internal_node_id": "0.0-3.0", "time_elapsed": 51920, "type": "AUDIO_TEST", "trial_index": 3}, "uniqueid": "MTK3562:3HOSI13XH0VSE8N0XMBUQ9O7YLBDDW", "dateTime": 1520790058507}, {"current_trial": 4, "trialdata": {"rt": [7250], "trial_type": "audio-test", "responses": ["spice"], "internal_node_id": "0.0-4.0", "time_elapsed": 59171, "type": "AUDIO_TEST", "trial_index": 4}, "uniqueid": "MTK3562:3HOSI13XH0VSE8N0XMBUQ9O7YLBDDW", "dateTime": 1520790065759}, {"current_trial": 5, "trialdata": {"rt": 31701, "trial_type": "survey-text", "responses": "{\"Q0\":\"3:00 am\",\"Q1\":\"11:00 am\",\"Q2\":\"4\"}", "internal_node_id": "0.0-5.0", "time_elapsed": 91625, "type": "SLEEP_SURVEY", "trial_index": 5}, "uniqueid": "MTK3562:3HOSI13XH0VSE8N0XMBUQ9O7YLBDDW", "dateTime": 1520790098212}, {"current_trial": 6, "trialdata": {"rt": 77749, "trial_type": "text", "internal_node_id": "0.0-6.0", "time_elapsed": 170380, "key_press": 32, "type": "INSTRUCTIONS", "trial_index": 6}, "uniqueid": "MTK3562:3HOSI13XH0VSE8N0XMBUQ9O7YLBDDW", "dateTime": 1520790176967}, {"current_trial": 7, "trialdata": {"rt": 49387, "trial_type": "text", "internal_node_id": "0.0-7.0", "time_elapsed": 220269, "key_press": 32, "type": "INSTRUCTIONS", "trial_index": 7}, "uniqueid": "MTK3562:3HOSI13XH0VSE8N0XMBUQ9O7YLBDDW", "dateTime": 1520790226856}, {"current_trial": 8, "trialdata": {"rt": 71663, "trial_type": "text", "internal_node_id": "0.0-8.0", "time_elapsed": 292437, "key_press": 32, "type": "INSTRUCTIONS", "trial_index": 8}, "uniqueid": "MTK3562:3HOSI13XH0VSE8N0XMBUQ9O7YLBDDW", "dateTime": 1520790299024}, {"current_trial": 9, "trialdata": {"rt": [2970, 6025, 9027, 11777, 13145, 16158], "trial_type": "math-distractor", "key_times": [2444, 2596, 2970, 5385, 5765, 6025, 8548, 8717, 9027, 11262, 11491, 11777, 12914, 13145, 15682, 15854, 16158], "responses": ["10", "13", "20", "15", "3", "12"], "num2": [1, 3, 6, 3, 1, 6, 8], "num3": [4, 4, 9, 5, 1, 4, 5], "conditions": [18, 1200, "a", 18000], "internal_node_id": "0.0-9.0", "key_presses": [49, 48, 13, 49, 51, 13, 50, 48, 13, 49, 53, 13, 51, 13, 49, 50, 13], "trial": 0, "time_elapsed": 311450, "type": "DISTRACTOR", "trial_index": 9, "num1": [5, 6, 5, 7, 1, 2, 3]}, "uniqueid": "MTK3562:3HOSI13XH0VSE8N0XMBUQ9O7YLBDDW", "dateTime": 1520790318037}, {"current_trial": 10, "trialdata": {"rt": -1, "trial_type": "single-stim", "stimulus": "<p id=\"stim\">10</p>", "internal_node_id": "0.0-10.0-0.0", "time_elapsed": 314457, "key_press": -1, "trial_index": 10}, "uniqueid": "MTK3562:3HOSI13XH0VSE8N0XMBUQ9O7YLBDDW", "dateTime": 1520790321044}, {"current_trial": 11, "trialdata": {"rt": -1, "trial_type": "single-stim", "stimulus": "<p id=\"stim\">9</p>", "internal_node_id": "0.0-10.0-1.0", "time_elapsed": 315459, "key_press": -1, "trial_index": 11}, "uniqueid": "MTK3562:3HOSI13XH0VSE8N0XMBUQ9O7YLBDDW", "dateTime": 1520790322046}, {"current_trial": 12, "trialdata": {"rt": -1, "trial_type": "single-stim", "stimulus": "<p id=\"stim\">8</p>", "internal_node_id": "0.0-10.0-2.0", "time_elapsed": 316463, "key_press": -1, "trial_index": 12}, "uniqueid": "MTK3562:3HOSI13XH0VSE8N0XMBUQ9O7YLBDDW", "dateTime": 1520790323050}, {"current_trial": 13, "trialdata": {"rt": -1, "trial_type": "single-stim", "stimulus": "<p id=\"stim\">7</p>", "internal_node_id": "0.0-10.0-3.0", "time_elapsed": 317466, "key_press": -1, "trial_index": 13}, "uniqueid": "MTK3562:3HOSI13XH0VSE8N0XMBUQ9O7YLBDDW", "dateTime": 1520790324053}, {"current_trial": 14, "trialdata": {"rt": -1, "trial_type": "single-stim", "stimulus": "<p id=\"stim\">6</p>", "internal_node_id": "0.0-10.0-4.0", "time_elapsed": 318471, "key_press": -1, "trial_index": 14}, "uniqueid": "MTK3562:3HOSI13XH0VSE8N0XMBUQ9O7YLBDDW", "dateTime": 1520790325058}, {"current_trial": 15, "trialdata": {"rt": -1, "trial_type": "single-stim", "stimulus": "<p id=\"stim\">5</p>", "internal_node_id": "0.0-10.0-5.0", "time_elapsed": 319475, "key_press": -1, "trial_index": 15}, "uniqueid": "MTK3562:3HOSI13XH0VSE8N0XMBUQ9O7YLBDDW", "dateTime": 1520790326063}, {"current_trial": 16, "trialdata": {"rt": -1, "trial_type": "single-stim", "stimulus": "<p id=\"stim\">4</p>", "internal_node_id": "0.0-10.0-6.0", "time_elapsed": 320479, "key_press": -1, "trial_index": 16}, "uniqueid": "MTK3562:3HOSI13XH0VSE8N0XMBUQ9O7YLBDDW", "dateTime": 1520790327066}, {"current_trial": 17, "trialdata": {"rt": -1, "trial_type": "single-stim", "stimulus": "<p id=\"stim\">3</p>", "internal_node_id": "0.0-10.0-7.0", "time_elapsed": 321484, "key_press": -1, "trial_index": 17}, "uniqueid": "MTK3562:3HOSI13XH0VSE8N0XMBUQ9O7YLBDDW", "dateTime": 1520790328071}, {"current_trial": 18, "trialdata": {"rt": -1, "trial_type": "single-stim", "stimulus": "<p id=\"stim\">2</p>", "internal_node_id": "0.0-10.0-8.0", "time_elapsed": 322489, "key_press": -1, "trial_index": 18}, "uniqueid": "MTK3562:3HOSI13XH0VSE8N0XMBUQ9O7YLBDDW", "dateTime": 1520790329076}, {"current_trial": 19, "trialdata": {"rt": -1, "trial_type": "single-stim", "stimulus": "<p id=\"stim\">1</p>", "internal_node_id": "0.0-10.0-9.0", "time_elapsed": 323491, "key_press": -1, "trial_index": 19}, "uniqueid": "MTK3562:3HOSI13XH0VSE8N0XMBUQ9O7YLBDDW", "dateTime": 1520790330078}, {"current_trial": 20, "trialdata": {"rt": -1, "trial_type": "single-stim", "stimulus": "<p id=\"stim\">+</p>", "internal_node_id": "0.0-11.0-0.0", "time_elapsed": 324996, "key_press": -1, "type": "FIXATION", "trial_index": 20}, "uniqueid": "MTK3562:3HOSI13XH0VSE8N0XMBUQ9O7YLBDDW", "dateTime": 1520790331584}, {"current_trial": 21, "trialdata": {"rt": -1000, "trial_type": "single-audio", "word": "stallion", "stimulus": "/static/audio/wordpool/STALLION.wav", "conditions": [18, 1200, "a", 18000], "internal_node_id": "0.0-12.0", "trial": 0, "time_elapsed": 327349, "serialpos": 0, "key_press": -1, "wordID": 1368, "type": "PRES_AUD", "trial_index": 21}, "uniqueid": "MTK3562:3HOSI13XH0VSE8N0XMBUQ9O7YLBDDW", "dateTime": 1520790333937}, {"current_trial": 22, "trialdata": {"rt": -1000, "trial_type": "single-audio", "word": "mars", "stimulus": "/static/audio/wordpool/MARS.wav", "conditions": [18, 1200, "a", 18000], "internal_node_id": "0.0-13.0", "trial": 0, "time_elapsed": 329587, "serialpos": 1, "key_press": -1, "wordID": 872, "type": "PRES_AUD", "trial_index": 22}, "uniqueid": "MTK3562:3HOSI13XH0VSE8N0XMBUQ9O7YLBDDW", "dateTime": 1520790336174}, {"current_trial": 23, "trialdata": {"rt": -1000, "trial_type": "single-audio", "word": "pecan", "stimulus": "/static/audio/wordpool/PECAN.wav", "conditions": [18, 1200, "a", 18000], "internal_node_id": "0.0-14.0", "trial": 0, "time_elapsed": 331839, "serialpos": 2, "key_press": -1, "wordID": 1035, "type": "PRES_AUD", "trial_index": 23}, "uniqueid": "MTK3562:3HOSI13XH0VSE8N0XMBUQ9O7YLBDDW", "dateTime": 1520790338426}, {"current_trial": 24, "trialdata": {"rt": -1000, "trial_type": "single-audio", "word": "chest", "stimulus": "/static/audio/wordpool/CHEST.wav", "conditions": [18, 1200, "a", 18000], "internal_node_id": "0.0-15.0", "trial": 0, "time_elapsed": 333906, "serialpos": 3, "key_press": -1, "wordID": 294, "type": "PRES_AUD", "trial_index": 24}, "uniqueid": "MTK3562:3HOSI13XH0VSE8N0XMBUQ9O7YLBDDW", "dateTime": 1520790340494}, {"current_trial": 25, "trialdata": {"rt": -1000, "trial_type": "single-audio", "word": "swamp", "stimulus": "/static/audio/wordpool/SWAMP.wav", "conditions": [18, 1200, "a", 18000], "internal_node_id": "0.0-16.0", "trial": 0, "time_elapsed": 335980, "serialpos": 4, "key_press": -1, "wordID": 1415, "type": "PRES_AUD", "trial_index": 25}, "uniqueid": "MTK3562:3HOSI13XH0VSE8N0XMBUQ9O7YLBDDW", "dateTime": 1520790342567}, {"current_trial": 26, "trialdata": {"rt": -1000, "trial_type": "single-audio", "word": "clamp", "stimulus": "/static/audio/wordpool/CLAMP.wav", "conditions": [18, 1200, "a", 18000], "internal_node_id": "0.0-17.0", "trial": 0, "time_elapsed": 338194, "serialpos": 5, "key_press": -1, "wordID": 315, "type": "PRES_AUD", "trial_index": 26}, "uniqueid": "MTK3562:3HOSI13XH0VSE8N0XMBUQ9O7YLBDDW", "dateTime": 1520790344781}, {"current_trial": 27, "trialdata": {"rt": -1000, "trial_type": "single-audio", "word": "girl", "stimulus": "/static/audio/wordpool/GIRL.wav", "conditions": [18, 1200, "a", 18000], "internal_node_id": "0.0-18.0", "trial": 0, "time_elapsed": 340207, "serialpos": 6, "key_press": -1, "wordID": 636, "type": "PRES_AUD", "trial_index": 27}, "uniqueid": "MTK3562:3HOSI13XH0VSE8N0XMBUQ9O7YLBDDW", "dateTime": 1520790346794}, {"current_trial": 28, "trialdata": {"rt": -1000, "trial_type": "single-audio", "word": "knife", "stimulus": "/static/audio/wordpool/KNIFE.wav", "conditions": [18, 1200, "a", 18000], "internal_node_id": "0.0-19.0", "trial": 0, "time_elapsed": 342565, "serialpos": 7, "key_press": -1, "wordID": 784, "type": "PRES_AUD", "trial_index": 28}, "uniqueid": "MTK3562:3HOSI13XH0VSE8N0XMBUQ9O7YLBDDW", "dateTime": 1520790349152}, {"current_trial": 29, "trialdata": {"rt": -1000, "trial_type": "single-audio", "word": "rug", "stimulus": "/static/audio/wordpool/RUG.wav", "conditions": [18, 1200, "a", 18000], "internal_node_id": "0.0-20.0", "trial": 0, "time_elapsed": 344827, "serialpos": 8, "key_press": -1, "wordID": 1214, "type": "PRES_AUD", "trial_index": 29}, "uniqueid": "MTK3562:3HOSI13XH0VSE8N0XMBUQ9O7YLBDDW", "dateTime": 1520790351414}, {"current_trial": 30, "trialdata": {"rt": -1000, "trial_type": "single-audio", "word": "dragon", "stimulus": "/static/audio/wordpool/DRAGON.wav", "conditions": [18, 1200, "a", 18000], "internal_node_id": "0.0-21.0", "trial": 0, "time_elapsed": 347163, "serialpos": 9, "key_press": -1, "wordID": 491, "type": "PRES_AUD", "trial_index": 30}, "uniqueid": "MTK3562:3HOSI13XH0VSE8N0XMBUQ9O7YLBDDW", "dateTime": 1520790353750}, {"current_trial": 31, "trialdata": {"rt": -1000, "trial_type": "single-audio", "word": "teacher", "stimulus": "/static/audio/wordpool/TEACHER.wav", "conditions": [18, 1200, "a", 18000], "internal_node_id": "0.0-22.0", "trial": 0, "time_elapsed": 349477, "serialpos": 10, "key_press": -1, "wordID": 1439, "type": "PRES_AUD", "trial_index": 31}, "uniqueid": "MTK3562:3HOSI13XH0VSE8N0XMBUQ9O7YLBDDW", "dateTime": 1520790356065}, {"current_trial": 32, "trialdata": {"rt": -1000, "trial_type": "single-audio", "word": "market", "stimulus": "/static/audio/wordpool/MARKET.wav", "conditions": [18, 1200, "a", 18000], "internal_node_id": "0.0-23.0", "trial": 0, "time_elapsed": 351540, "serialpos": 11, "key_press": -1, "wordID": 870, "type": "PRES_AUD", "trial_index": 32}, "uniqueid": "MTK3562:3HOSI13XH0VSE8N0XMBUQ9O7YLBDDW", "dateTime": 1520790358127}, {"current_trial": 33, "trialdata": {"rt": -1000, "trial_type": "single-audio", "word": "diver", "stimulus": "/static/audio/wordpool/DIVER.wav", "conditions": [18, 1200, "a", 18000], "internal_node_id": "0.0-24.0", "trial": 0, "time_elapsed": 353687, "serialpos": 12, "key_press": -1, "wordID": 475, "type": "PRES_AUD", "trial_index": 33}, "uniqueid": "MTK3562:3HOSI13XH0VSE8N0XMBUQ9O7YLBDDW", "dateTime": 1520790360274}, {"current_trial": 34, "trialdata": {"rt": -1000, "trial_type": "single-audio", "word": "fireplace", "stimulus": "/static/audio/wordpool/FIREPLACE.wav", "conditions": [18, 1200, "a", 18000], "internal_node_id": "0.0-25.0", "trial": 0, "time_elapsed": 355930, "serialpos": 13, "key_press": -1, "wordID": 569, "type": "PRES_AUD", "trial_index": 34}, "uniqueid": "MTK3562:3HOSI13XH0VSE8N0XMBUQ9O7YLBDDW", "dateTime": 1520790362517}, {"current_trial": 35, "trialdata": {"rt": -1000, "trial_type": "single-audio", "word": "dentist", "stimulus": "/static/audio/wordpool/DENTIST.wav", "conditions": [18, 1200, "a", 18000], "internal_node_id": "0.0-26.0", "trial": 0, "time_elapsed": 358042, "serialpos": 14, "key_press": -1, "wordID": 446, "type": "PRES_AUD", "trial_index": 35}, "uniqueid": "MTK3562:3HOSI13XH0VSE8N0XMBUQ9O7YLBDDW", "dateTime": 1520790364629}, {"current_trial": 36, "trialdata": {"rt": -1000, "trial_type": "single-audio", "word": "outlaw", "stimulus": "/static/audio/wordpool/OUTLAW.wav", "conditions": [18, 1200, "a", 18000], "internal_node_id": "0.0-27.0", "trial": 0, "time_elapsed": 360246, "serialpos": 15, "key_press": -1, "wordID": 988, "type": "PRES_AUD", "trial_index": 36}, "uniqueid": "MTK3562:3HOSI13XH0VSE8N0XMBUQ9O7YLBDDW", "dateTime": 1520790366833}, {"current_trial": 37, "trialdata": {"rt": -1000, "trial_type": "single-audio", "word": "mildew", "stimulus": "/static/audio/wordpool/MILDEW.wav", "conditions": [18, 1200, "a", 18000], "internal_node_id": "0.0-28.0", "trial": 0, "time_elapsed": 362358, "serialpos": 16, "key_press": -1, "wordID": 892, "type": "PRES_AUD", "trial_index": 37}, "uniqueid": "MTK3562:3HOSI13XH0VSE8N0XMBUQ9O7YLBDDW", "dateTime": 1520790368945}, {"current_trial": 38, "trialdata": {"rt": -1000, "trial_type": "single-audio", "word": "expert", "stimulus": "/static/audio/wordpool/EXPERT.wav", "conditions": [18, 1200, "a", 18000], "internal_node_id": "0.0-29.0", "trial": 0, "time_elapsed": 364517, "serialpos": 17, "key_press": -1, "wordID": 542, "type": "PRES_AUD", "trial_index": 38}, "uniqueid": "MTK3562:3HOSI13XH0VSE8N0XMBUQ9O7YLBDDW", "dateTime": 1520790371104}, {"current_trial": 39, "trialdata": {"rt": -1, "trial_type": "single-stim", "stimulus": "", "internal_node_id": "0.0-30.0-0.0", "time_elapsed": 365738, "key_press": -1, "type": "PRE_RECALL_DELAY", "trial_index": 39}, "uniqueid": "MTK3562:3HOSI13XH0VSE8N0XMBUQ9O7YLBDDW", "dateTime": 1520790372325}, {"current_trial": 40, "trialdata": {"rt": -1000, "trial_type": "single-audio", "stimulus": "/static/audio/400Hz.wav", "internal_node_id": "0.0-31.0", "time_elapsed": 366239, "key_press": -1, "type": "PRE_RECALL_ALERT", "trial_index": 40}, "uniqueid": "MTK3562:3HOSI13XH0VSE8N0XMBUQ9O7YLBDDW", "dateTime": 1520790372826}, {"current_trial": 41, "trialdata": {"rt": [3706, 5771, 8934, 11076, 13419, 53294], "recwords": ["stallion", "pecan", "expert", "outlaw", "rug", "diver"], "key_times": [1874, 2049, 2661, 2776, 2919, 3138, 3217, 3297, 3706, 4398, 4533, 5188, 5359, 5447, 5771, 6650, 6802, 7096, 7221, 7499, 7731, 8060, 8212, 8331, 8608, 8934, 9295, 9356, 9518, 9869, 10118, 10317, 11076, 12855, 13002, 13172, 13419, 52259, 52401, 52604, 52824, 52932, 53294], "trial_type": "free-recall", "conditions": [18, 1200, "a", 18000], "internal_node_id": "0.0-32.0-0.0", "key_presses": [83, 84, 65, 76, 76, 73, 79, 78, 13, 80, 69, 67, 65, 78, 13, 84, 69, 8, 8, 69, 88, 80, 69, 82, 84, 13, 79, 85, 84, 76, 65, 87, 13, 82, 85, 71, 13, 68, 73, 86, 69, 82, 13], "trial": 0, "time_elapsed": 426243, "type": "FREE_RECALL", "trial_index": 41}, "uniqueid": "MTK3562:3HOSI13XH0VSE8N0XMBUQ9O7YLBDDW", "dateTime": 1520790432832}, {"current_trial": 42, "trialdata": {"rt": 1481, "trial_type": "text", "internal_node_id": "0.0-33.0", "time_elapsed": 429733, "key_press": 32, "type": "INSTRUCTIONS", "trial_index": 42}, "uniqueid": "MTK3562:3HOSI13XH0VSE8N0XMBUQ9O7YLBDDW", "dateTime": 1520790436320}, {"current_trial": 43, "trialdata": {"rt": [2407, 4655, 10657, 12917], "trial_type": "math-distractor", "key_times": [2063, 2407, 4249, 4473, 4655, 10215, 10361, 10657, 12556, 12712, 12917, 17984], "responses": ["8", "15", "19", "17"], "num2": [3, 7, 6, 2, 5], "num3": [2, 3, 5, 7, 9], "conditions": [18, 1200, "a", 18000], "internal_node_id": "0.0-34.0", "key_presses": [56, 13, 49, 53, 13, 49, 57, 13, 49, 55, 13, 50], "trial": 1, "time_elapsed": 449743, "type": "DISTRACTOR", "trial_index": 43, "num1": [3, 5, 8, 8, 8]}, "uniqueid": "MTK3562:3HOSI13XH0VSE8N0XMBUQ9O7YLBDDW", "dateTime": 1520790456331}, {"current_trial": 44, "trialdata": {"rt": -1, "trial_type": "single-stim", "stimulus": "<p id=\"stim\">10</p>", "internal_node_id": "0.0-35.0-0.0", "time_elapsed": 452751, "key_press": -1, "trial_index": 44}, "uniqueid": "MTK3562:3HOSI13XH0VSE8N0XMBUQ9O7YLBDDW", "dateTime": 1520790459338}, {"current_trial": 45, "trialdata": {"rt": -1, "trial_type": "single-stim", "stimulus": "<p id=\"stim\">9</p>", "internal_node_id": "0.0-35.0-1.0", "time_elapsed": 453754, "key_press": -1, "trial_index": 45}, "uniqueid": "MTK3562:3HOSI13XH0VSE8N0XMBUQ9O7YLBDDW", "dateTime": 1520790460342}, {"current_trial": 46, "trialdata": {"rt": -1, "trial_type": "single-stim", "stimulus": "<p id=\"stim\">8</p>", "internal_node_id": "0.0-35.0-2.0", "time_elapsed": 454761, "key_press": -1, "trial_index": 46}, "uniqueid": "MTK3562:3HOSI13XH0VSE8N0XMBUQ9O7YLBDDW", "dateTime": 1520790461348}, {"current_trial": 47, "trialdata": {"rt": -1, "trial_type": "single-stim", "stimulus": "<p id=\"stim\">7</p>", "internal_node_id": "0.0-35.0-3.0", "time_elapsed": 455763, "key_press": -1, "trial_index": 47}, "uniqueid": "MTK3562:3HOSI13XH0VSE8N0XMBUQ9O7YLBDDW", "dateTime": 1520790462350}, {"current_trial": 48, "trialdata": {"rt": -1, "trial_type": "single-stim", "stimulus": "<p id=\"stim\">6</p>", "internal_node_id": "0.0-35.0-4.0", "time_elapsed": 456768, "key_press": -1, "trial_index": 48}, "uniqueid": "MTK3562:3HOSI13XH0VSE8N0XMBUQ9O7YLBDDW", "dateTime": 1520790463355}, {"current_trial": 49, "trialdata": {"rt": -1, "trial_type": "single-stim", "stimulus": "<p id=\"stim\">5</p>", "internal_node_id": "0.0-35.0-5.0", "time_elapsed": 457771, "key_press": -1, "trial_index": 49}, "uniqueid": "MTK3562:3HOSI13XH0VSE8N0XMBUQ9O7YLBDDW", "dateTime": 1520790464359}, {"current_trial": 50, "trialdata": {"rt": -1, "trial_type": "single-stim", "stimulus": "<p id=\"stim\">4</p>", "internal_node_id": "0.0-35.0-6.0", "time_elapsed": 458776, "key_press": -1, "trial_index": 50}, "uniqueid": "MTK3562:3HOSI13XH0VSE8N0XMBUQ9O7YLBDDW", "dateTime": 1520790465363}, {"current_trial": 51, "trialdata": {"rt": -1, "trial_type": "single-stim", "stimulus": "<p id=\"stim\">3</p>", "internal_node_id": "0.0-35.0-7.0", "time_elapsed": 459780, "key_press": -1, "trial_index": 51}, "uniqueid": "MTK3562:3HOSI13XH0VSE8N0XMBUQ9O7YLBDDW", "dateTime": 1520790466367}, {"current_trial": 52, "trialdata": {"rt": -1, "trial_type": "single-stim", "stimulus": "<p id=\"stim\">2</p>", "internal_node_id": "0.0-35.0-8.0", "time_elapsed": 460783, "key_press": -1, "trial_index": 52}, "uniqueid": "MTK3562:3HOSI13XH0VSE8N0XMBUQ9O7YLBDDW", "dateTime": 1520790467370}, {"current_trial": 53, "trialdata": {"rt": -1, "trial_type": "single-stim", "stimulus": "<p id=\"stim\">1</p>", "internal_node_id": "0.0-35.0-9.0", "time_elapsed": 461788, "key_press": -1, "trial_index": 53}, "uniqueid": "MTK3562:3HOSI13XH0VSE8N0XMBUQ9O7YLBDDW", "dateTime": 1520790468375}, {"current_trial": 54, "trialdata": {"rt": -1, "trial_type": "single-stim", "stimulus": "<p id=\"stim\">+</p>", "internal_node_id": "0.0-36.0-0.0", "time_elapsed": 463291, "key_press": -1, "type": "FIXATION", "trial_index": 54}, "uniqueid": "MTK3562:3HOSI13XH0VSE8N0XMBUQ9O7YLBDDW", "dateTime": 1520790469878}, {"current_trial": 55, "trialdata": {"rt": -1000, "trial_type": "single-audio", "word": "critic", "stimulus": "/static/audio/wordpool/CRITIC.wav", "conditions": [18, 1200, "a", 18000], "internal_node_id": "0.0-37.0", "trial": 1, "time_elapsed": 465358, "serialpos": 0, "key_press": -1, "wordID": 409, "type": "PRES_AUD", "trial_index": 55}, "uniqueid": "MTK3562:3HOSI13XH0VSE8N0XMBUQ9O7YLBDDW", "dateTime": 1520790471945}, {"current_trial": 56, "trialdata": {"rt": -1000, "trial_type": "single-audio", "word": "wife", "stimulus": "/static/audio/wordpool/WIFE.wav", "conditions": [18, 1200, "a", 18000], "internal_node_id": "0.0-38.0", "trial": 1, "time_elapsed": 467380, "serialpos": 1, "key_press": -1, "wordID": 1608, "type": "PRES_AUD", "trial_index": 56}, "uniqueid": "MTK3562:3HOSI13XH0VSE8N0XMBUQ9O7YLBDDW", "dateTime": 1520790473967}, {"current_trial": 57, "trialdata": {"rt": -1000, "trial_type": "single-audio", "word": "cabin", "stimulus": "/static/audio/wordpool/CABIN.wav", "conditions": [18, 1200, "a", 18000], "internal_node_id": "0.0-39.0", "trial": 1, "time_elapsed": 469475, "serialpos": 2, "key_press": -1, "wordID": 210, "type": "PRES_AUD", "trial_index": 57}, "uniqueid": "MTK3562:3HOSI13XH0VSE8N0XMBUQ9O7YLBDDW", "dateTime": 1520790476062}, {"current_trial": 58, "trialdata": {"rt": -1000, "trial_type": "single-audio", "word": "ground", "stimulus": "/static/audio/wordpool/GROUND.wav", "conditions": [18, 1200, "a", 18000], "internal_node_id": "0.0-40.0", "trial": 1, "time_elapsed": 471844, "serialpos": 3, "key_press": -1, "wordID": 665, "type": "PRES_AUD", "trial_index": 58}, "uniqueid": "MTK3562:3HOSI13XH0VSE8N0XMBUQ9O7YLBDDW", "dateTime": 1520790478431}, {"current_trial": 59, "trialdata": {"rt": -1000, "trial_type": "single-audio", "word": "sphinx", "stimulus": "/static/audio/wordpool/SPHINX.wav", "conditions": [18, 1200, "a", 18000], "internal_node_id": "0.0-41.0", "trial": 1, "time_elapsed": 474011, "serialpos": 4, "key_press": -1, "wordID": 1348, "type": "PRES_AUD", "trial_index": 59}, "uniqueid": "MTK3562:3HOSI13XH0VSE8N0XMBUQ9O7YLBDDW", "dateTime": 1520790480598}, {"current_trial": 60, "trialdata": {"rt": -1000, "trial_type": "single-audio", "word": "drawing", "stimulus": "/static/audio/wordpool/DRAWING.wav", "conditions": [18, 1200, "a", 18000], "internal_node_id": "0.0-42.0", "trial": 1, "time_elapsed": 476158, "serialpos": 5, "key_press": -1, "wordID": 493, "type": "PRES_AUD", "trial_index": 60}, "uniqueid": "MTK3562:3HOSI13XH0VSE8N0XMBUQ9O7YLBDDW", "dateTime": 1520790482745}, {"current_trial": 61, "trialdata": {"rt": -1000, "trial_type": "single-audio", "word": "rattle", "stimulus": "/static/audio/wordpool/RATTLE.wav", "conditions": [18, 1200, "a", 18000], "internal_node_id": "0.0-43.0", "trial": 1, "time_elapsed": 478291, "serialpos": 6, "key_press": -1, "wordID": 1169, "type": "PRES_AUD", "trial_index": 61}, "uniqueid": "MTK3562:3HOSI13XH0VSE8N0XMBUQ9O7YLBDDW", "dateTime": 1520790484879}, {"current_trial": 62, "trialdata": {"rt": -1000, "trial_type": "single-audio", "word": "laser", "stimulus": "/static/audio/wordpool/LASER.wav", "conditions": [18, 1200, "a", 18000], "internal_node_id": "0.0-44.0", "trial": 1, "time_elapsed": 480493, "serialpos": 7, "key_press": -1, "wordID": 800, "type": "PRES_AUD", "trial_index": 62}, "uniqueid": "MTK3562:3HOSI13XH0VSE8N0XMBUQ9O7YLBDDW", "dateTime": 1520790487080}, {"current_trial": 63, "trialdata": {"rt": -1000, "trial_type": "single-audio", "word": "france", "stimulus": "/static/audio/wordpool/FRANCE.wav", "conditions": [18, 1200, "a", 18000], "internal_node_id": "0.0-45.0", "trial": 1, "time_elapsed": 482711, "serialpos": 8, "key_press": -1, "wordID": 600, "type": "PRES_AUD", "trial_index": 63}, "uniqueid": "MTK3562:3HOSI13XH0VSE8N0XMBUQ9O7YLBDDW", "dateTime": 1520790489298}, {"current_trial": 64, "trialdata": {"rt": -1000, "trial_type": "single-audio", "word": "trench", "stimulus": "/static/audio/wordpool/TRENCH.wav", "conditions": [18, 1200, "a", 18000], "internal_node_id": "0.0-46.0", "trial": 1, "time_elapsed": 484894, "serialpos": 9, "key_press": -1, "wordID": 1502, "type": "PRES_AUD", "trial_index": 64}, "uniqueid": "MTK3562:3HOSI13XH0VSE8N0XMBUQ9O7YLBDDW", "dateTime": 1520790491481}, {"current_trial": 65, "trialdata": {"rt": -1000, "trial_type": "single-audio", "word": "scotch", "stimulus": "/static/audio/wordpool/SCOTCH.wav", "conditions": [18, 1200, "a", 18000], "internal_node_id": "0.0-47.0", "trial": 1, "time_elapsed": 487045, "serialpos": 10, "key_press": -1, "wordID": 1250, "type": "PRES_AUD", "trial_index": 65}, "uniqueid": "MTK3562:3HOSI13XH0VSE8N0XMBUQ9O7YLBDDW", "dateTime": 1520790493632}, {"current_trial": 66, "trialdata": {"rt": -1000, "trial_type": "single-audio", "word": "sheriff", "stimulus": "/static/audio/wordpool/SHERIFF.wav", "conditions": [18, 1200, "a", 18000], "internal_node_id": "0.0-48.0", "trial": 1, "time_elapsed": 489221, "serialpos": 11, "key_press": -1, "wordID": 1283, "type": "PRES_AUD", "trial_index": 66}, "uniqueid": "MTK3562:3HOSI13XH0VSE8N0XMBUQ9O7YLBDDW", "dateTime": 1520790495809}, {"current_trial": 67, "trialdata": {"rt": -1000, "trial_type": "single-audio", "word": "penguin", "stimulus": "/static/audio/wordpool/PENGUIN.wav", "conditions": [18, 1200, "a", 18000], "internal_node_id": "0.0-49.0", "trial": 1, "time_elapsed": 491332, "serialpos": 12, "key_press": -1, "wordID": 1043, "type": "PRES_AUD", "trial_index": 67}, "uniqueid": "MTK3562:3HOSI13XH0VSE8N0XMBUQ9O7YLBDDW", "dateTime": 1520790497919}, {"current_trial": 68, "trialdata": {"rt": -1000, "trial_type": "single-audio", "word": "temple", "stimulus": "/static/audio/wordpool/TEMPLE.wav", "conditions": [18, 1200, "a", 18000], "internal_node_id": "0.0-50.0", "trial": 1, "time_elapsed": 493424, "serialpos": 13, "key_press": -1, "wordID": 1447, "type": "PRES_AUD", "trial_index": 68}, "uniqueid": "MTK3562:3HOSI13XH0VSE8N0XMBUQ9O7YLBDDW", "dateTime": 1520790500013}, {"current_trial": 69, "trialdata": {"rt": -1000, "trial_type": "single-audio", "word": "bug", "stimulus": "/static/audio/wordpool/BUG.wav", "conditions": [18, 1200, "a", 18000], "internal_node_id": "0.0-51.0", "trial": 1, "time_elapsed": 495721, "serialpos": 14, "key_press": -1, "wordID": 186, "type": "PRES_AUD", "trial_index": 69}, "uniqueid": "MTK3562:3HOSI13XH0VSE8N0XMBUQ9O7YLBDDW", "dateTime": 1520790502308}, {"current_trial": 70, "trialdata": {"rt": -1000, "trial_type": "single-audio", "word": "airport", "stimulus": "/static/audio/wordpool/AIRPORT.wav", "conditions": [18, 1200, "a", 18000], "internal_node_id": "0.0-52.0", "trial": 1, "time_elapsed": 497871, "serialpos": 15, "key_press": -1, "wordID": 12, "type": "PRES_AUD", "trial_index": 70}, "uniqueid": "MTK3562:3HOSI13XH0VSE8N0XMBUQ9O7YLBDDW", "dateTime": 1520790504458}, {"current_trial": 71, "trialdata": {"rt": -1000, "trial_type": "single-audio", "word": "venus", "stimulus": "/static/audio/wordpool/VENUS.wav", "conditions": [18, 1200, "a", 18000], "internal_node_id": "0.0-53.0", "trial": 1, "time_elapsed": 500104, "serialpos": 16, "key_press": -1, "wordID": 1556, "type": "PRES_AUD", "trial_index": 71}, "uniqueid": "MTK3562:3HOSI13XH0VSE8N0XMBUQ9O7YLBDDW", "dateTime": 1520790506692}, {"current_trial": 72, "trialdata": {"rt": -1000, "trial_type": "single-audio", "word": "champagne", "stimulus": "/static/audio/wordpool/CHAMPAGNE.wav", "conditions": [18, 1200, "a", 18000], "internal_node_id": "0.0-54.0", "trial": 1, "time_elapsed": 502365, "serialpos": 17, "key_press": -1, "wordID": 277, "type": "PRES_AUD", "trial_index": 72}, "uniqueid": "MTK3562:3HOSI13XH0VSE8N0XMBUQ9O7YLBDDW", "dateTime": 1520790508952}, {"current_trial": 73, "trialdata": {"rt": -1, "trial_type": "single-stim", "stimulus": "", "internal_node_id": "0.0-55.0-0.0", "time_elapsed": 503581, "key_press": -1, "type": "PRE_RECALL_DELAY", "trial_index": 73}, "uniqueid": "MTK3562:3HOSI13XH0VSE8N0XMBUQ9O7YLBDDW", "dateTime": 1520790510168}, {"current_trial": 74, "trialdata": {"rt": -1000, "trial_type": "single-audio", "stimulus": "/static/audio/400Hz.wav", "internal_node_id": "0.0-56.0", "time_elapsed": 504082, "key_press": -1, "type": "PRE_RECALL_ALERT", "trial_index": 74}, "uniqueid": "MTK3562:3HOSI13XH0VSE8N0XMBUQ9O7YLBDDW", "dateTime": 1520790510669}, {"current_trial": 75, "trialdata": {"rt": [3027, 5930, 8092, 10022, 16457, 22736, 30904, 34192], "recwords": ["wife", "paris", "airport", "venus", "champaign", "trench", "chalice", "drawing"], "key_times": [2102, 2187, 2385, 2607, 3027, 5198, 5318, 5434, 5558, 5709, 5930, 6472, 6660, 6748, 7038, 7174, 7298, 7672, 8092, 8538, 8698, 8783, 9149, 9459, 10022, 10693, 10818, 10961, 11222, 12235, 12432, 12659, 12809, 14814, 14969, 15290, 15456, 15548, 16457, 21709, 21895, 21980, 22079, 22360, 22452, 22736, 29622, 29704, 29800, 29971, 30231, 30363, 30635, 30904, 33240, 33388, 33472, 33661, 33775, 33812, 33912, 34192], "trial_type": "free-recall", "conditions": [18, 1200, "a", 18000], "internal_node_id": "0.0-57.0-0.0", "key_presses": [87, 73, 70, 69, 13, 80, 65, 82, 73, 83, 13, 65, 73, 82, 80, 79, 82, 84, 13, 86, 69, 78, 85, 83, 13, 67, 72, 65, 77, 80, 65, 71, 78, 8, 8, 73, 71, 78, 13, 84, 82, 69, 78, 67, 72, 13, 67, 72, 65, 76, 73, 67, 69, 13, 68, 82, 65, 87, 73, 78, 71, 13], "trial": 1, "time_elapsed": 564091, "type": "FREE_RECALL", "trial_index": 75}, "uniqueid": "MTK3562:3HOSI13XH0VSE8N0XMBUQ9O7YLBDDW", "dateTime": 1520790570679}, {"current_trial": 76, "trialdata": {"rt": 2472, "trial_type": "text", "internal_node_id": "0.0-58.0", "time_elapsed": 568571, "key_press": 32, "type": "INSTRUCTIONS", "trial_index": 76}, "uniqueid": "MTK3562:3HOSI13XH0VSE8N0XMBUQ9O7YLBDDW", "dateTime": 1520790575158}, {"current_trial": 77, "trialdata": {"rt": [4411, 7530, 11530, 16034, 18231, 20793], "trial_type": "math-distractor", "key_times": [3917, 4044, 4411, 7059, 7199, 7530, 10750, 11104, 11530, 14738, 15795, 16034, 18009, 18231, 20162, 20320, 20793, 23707, 23826], "responses": ["22", "20", "15", "14", "9", "11"], "num2": [8, 8, 4, 2, 2, 1, 9], "num3": [5, 8, 2, 3, 6, 2, 4], "conditions": [24, 800, "a", 24000], "internal_node_id": "0.0-59.0", "key_presses": [50, 50, 13, 50, 48, 13, 49, 53, 13, 49, 52, 13, 57, 13, 49, 49, 13, 50, 48], "trial": 2, "time_elapsed": 593582, "type": "DISTRACTOR", "trial_index": 77, "num1": [9, 4, 9, 9, 1, 8, 7]}, "uniqueid": "MTK3562:3HOSI13XH0VSE8N0XMBUQ9O7YLBDDW", "dateTime": 1520790600169}, {"current_trial": 78, "trialdata": {"rt": -1, "trial_type": "single-stim", "stimulus": "<p id=\"stim\">10</p>", "internal_node_id": "0.0-60.0-0.0", "time_elapsed": 596588, "key_press": -1, "trial_index": 78}, "uniqueid": "MTK3562:3HOSI13XH0VSE8N0XMBUQ9O7YLBDDW", "dateTime": 1520790603175}, {"current_trial": 79, "trialdata": {"rt": -1, "trial_type": "single-stim", "stimulus": "<p id=\"stim\">9</p>", "internal_node_id": "0.0-60.0-1.0", "time_elapsed": 597592, "key_press": -1, "trial_index": 79}, "uniqueid": "MTK3562:3HOSI13XH0VSE8N0XMBUQ9O7YLBDDW", "dateTime": 1520790604180}, {"current_trial": 80, "trialdata": {"rt": -1, "trial_type": "single-stim", "stimulus": "<p id=\"stim\">8</p>", "internal_node_id": "0.0-60.0-2.0", "time_elapsed": 598598, "key_press": -1, "trial_index": 80}, "uniqueid": "MTK3562:3HOSI13XH0VSE8N0XMBUQ9O7YLBDDW", "dateTime": 1520790605185}, {"current_trial": 81, "trialdata": {"rt": -1, "trial_type": "single-stim", "stimulus": "<p id=\"stim\">7</p>", "internal_node_id": "0.0-60.0-3.0", "time_elapsed": 599601, "key_press": -1, "trial_index": 81}, "uniqueid": "MTK3562:3HOSI13XH0VSE8N0XMBUQ9O7YLBDDW", "dateTime": 1520790606188}, {"current_trial": 82, "trialdata": {"rt": -1, "trial_type": "single-stim", "stimulus": "<p id=\"stim\">6</p>", "internal_node_id": "0.0-60.0-4.0", "time_elapsed": 600604, "key_press": -1, "trial_index": 82}, "uniqueid": "MTK3562:3HOSI13XH0VSE8N0XMBUQ9O7YLBDDW", "dateTime": 1520790607191}, {"current_trial": 83, "trialdata": {"rt": -1, "trial_type": "single-stim", "stimulus": "<p id=\"stim\">5</p>", "internal_node_id": "0.0-60.0-5.0", "time_elapsed": 601609, "key_press": -1, "trial_index": 83}, "uniqueid": "MTK3562:3HOSI13XH0VSE8N0XMBUQ9O7YLBDDW", "dateTime": 1520790608196}, {"current_trial": 84, "trialdata": {"rt": -1, "trial_type": "single-stim", "stimulus": "<p id=\"stim\">4</p>", "internal_node_id": "0.0-60.0-6.0", "time_elapsed": 602614, "key_press": -1, "trial_index": 84}, "uniqueid": "MTK3562:3HOSI13XH0VSE8N0XMBUQ9O7YLBDDW", "dateTime": 1520790609201}, {"current_trial": 85, "trialdata": {"rt": -1, "trial_type": "single-stim", "stimulus": "<p id=\"stim\">3</p>", "internal_node_id": "0.0-60.0-7.0", "time_elapsed": 603617, "key_press": -1, "trial_index": 85}, "uniqueid": "MTK3562:3HOSI13XH0VSE8N0XMBUQ9O7YLBDDW", "dateTime": 1520790610206}, {"current_trial": 86, "trialdata": {"rt": -1, "trial_type": "single-stim", "stimulus": "<p id=\"stim\">2</p>", "internal_node_id": "0.0-60.0-8.0", "time_elapsed": 604621, "key_press": -1, "trial_index": 86}, "uniqueid": "MTK3562:3HOSI13XH0VSE8N0XMBUQ9O7YLBDDW", "dateTime": 1520790611208}, {"current_trial": 87, "trialdata": {"rt": -1, "trial_type": "single-stim", "stimulus": "<p id=\"stim\">1</p>", "internal_node_id": "0.0-60.0-9.0", "time_elapsed": 605625, "key_press": -1, "trial_index": 87}, "uniqueid": "MTK3562:3HOSI13XH0VSE8N0XMBUQ9O7YLBDDW", "dateTime": 1520790612212}, {"current_trial": 88, "trialdata": {"rt": -1, "trial_type": "single-stim", "stimulus": "<p id=\"stim\">+</p>", "internal_node_id": "0.0-61.0-0.0", "time_elapsed": 607128, "key_press": -1, "type": "FIXATION", "trial_index": 88}, "uniqueid": "MTK3562:3HOSI13XH0VSE8N0XMBUQ9O7YLBDDW", "dateTime": 1520790613715}, {"current_trial": 89, "trialdata": {"rt": -1000, "trial_type": "single-audio", "word": "grape", "stimulus": "/static/audio/wordpool/GRAPE.wav", "conditions": [24, 800, "a", 24000], "internal_node_id": "0.0-62.0", "trial": 2, "time_elapsed": 608756, "serialpos": 0, "key_press": -1, "wordID": 653, "type": "PRES_AUD", "trial_index": 89}, "uniqueid": "MTK3562:3HOSI13XH0VSE8N0XMBUQ9O7YLBDDW", "dateTime": 1520790615343}, {"current_trial": 90, "trialdata": {"rt": -1000, "trial_type": "single-audio", "word": "barley", "stimulus": "/static/audio/wordpool/BARLEY.wav", "conditions": [24, 800, "a", 24000], "internal_node_id": "0.0-63.0", "trial": 2, "time_elapsed": 610369, "serialpos": 1, "key_press": -1, "wordID": 87, "type": "PRES_AUD", "trial_index": 90}, "uniqueid": "MTK3562:3HOSI13XH0VSE8N0XMBUQ9O7YLBDDW", "dateTime": 1520790616956}, {"current_trial": 91, "trialdata": {"rt": -1000, "trial_type": "single-audio", "word": "waitress", "stimulus": "/static/audio/wordpool/WAITRESS.wav", "conditions": [24, 800, "a", 24000], "internal_node_id": "0.0-64.0", "trial": 2, "time_elapsed": 612286, "serialpos": 2, "key_press": -1, "wordID": 1580, "type": "PRES_AUD", "trial_index": 91}, "uniqueid": "MTK3562:3HOSI13XH0VSE8N0XMBUQ9O7YLBDDW", "dateTime": 1520790618873}, {"current_trial": 92, "trialdata": {"rt": -1000, "trial_type": "single-audio", "word": "baby", "stimulus": "/static/audio/wordpool/BABY.wav", "conditions": [24, 800, "a", 24000], "internal_node_id": "0.0-65.0", "trial": 2, "time_elapsed": 614253, "serialpos": 3, "key_press": -1, "wordID": 63, "type": "PRES_AUD", "trial_index": 92}, "uniqueid": "MTK3562:3HOSI13XH0VSE8N0XMBUQ9O7YLBDDW", "dateTime": 1520790620840}, {"current_trial": 93, "trialdata": {"rt": -1000, "trial_type": "single-audio", "word": "parsley", "stimulus": "/static/audio/wordpool/PARSLEY.wav", "conditions": [24, 800, "a", 24000], "internal_node_id": "0.0-66.0", "trial": 2, "time_elapsed": 615958, "serialpos": 4, "key_press": -1, "wordID": 1015, "type": "PRES_AUD", "trial_index": 93}, "uniqueid": "MTK3562:3HOSI13XH0VSE8N0XMBUQ9O7YLBDDW", "dateTime": 1520790622545}, {"current_trial": 94, "trialdata": {"rt": -1000, "trial_type": "single-audio", "word": "quarter", "stimulus": "/static/audio/wordpool/QUARTER.wav", "conditions": [24, 800, "a", 24000], "internal_node_id": "0.0-67.0", "trial": 2, "time_elapsed": 617786, "serialpos": 5, "key_press": -1, "wordID": 1147, "type": "PRES_AUD", "trial_index": 94}, "uniqueid": "MTK3562:3HOSI13XH0VSE8N0XMBUQ9O7YLBDDW", "dateTime": 1520790624373}, {"current_trial": 95, "trialdata": {"rt": -1000, "trial_type": "single-audio", "word": "shortcake", "stimulus": "/static/audio/wordpool/SHORTCAKE.wav", "conditions": [24, 800, "a", 24000], "internal_node_id": "0.0-68.0", "trial": 2, "time_elapsed": 619594, "serialpos": 6, "key_press": -1, "wordID": 1291, "type": "PRES_AUD", "trial_index": 95}, "uniqueid": "MTK3562:3HOSI13XH0VSE8N0XMBUQ9O7YLBDDW", "dateTime": 1520790626181}, {"current_trial": 96, "trialdata": {"rt": -1000, "trial_type": "single-audio", "word": "hostess", "stimulus": "/static/audio/wordpool/HOSTESS.wav", "conditions": [24, 800, "a", 24000], "internal_node_id": "0.0-69.0", "trial": 2, "time_elapsed": 621596, "serialpos": 7, "key_press": -1, "wordID": 722, "type": "PRES_AUD", "trial_index": 96}, "uniqueid": "MTK3562:3HOSI13XH0VSE8N0XMBUQ9O7YLBDDW", "dateTime": 1520790628183}, {"current_trial": 97, "trialdata": {"rt": -1000, "trial_type": "single-audio", "word": "hero", "stimulus": "/static/audio/wordpool/HERO.wav", "conditions": [24, 800, "a", 24000], "internal_node_id": "0.0-70.0", "trial": 2, "time_elapsed": 623412, "serialpos": 8, "key_press": -1, "wordID": 705, "type": "PRES_AUD", "trial_index": 97}, "uniqueid": "MTK3562:3HOSI13XH0VSE8N0XMBUQ9O7YLBDDW", "dateTime": 1520790629999}, {"current_trial": 98, "trialdata": {"rt": -1000, "trial_type": "single-audio", "word": "honey", "stimulus": "/static/audio/wordpool/HONEY.wav", "conditions": [24, 800, "a", 24000], "internal_node_id": "0.0-71.0", "trial": 2, "time_elapsed": 625146, "serialpos": 9, "key_press": -1, "wordID": 712, "type": "PRES_AUD", "trial_index": 98}, "uniqueid": "MTK3562:3HOSI13XH0VSE8N0XMBUQ9O7YLBDDW", "dateTime": 1520790631733}, {"current_trial": 99, "trialdata": {"rt": -1000, "trial_type": "single-audio", "word": "dandruff", "stimulus": "/static/audio/wordpool/DANDRUFF.wav", "conditions": [24, 800, "a", 24000], "internal_node_id": "0.0-72.0", "trial": 2, "time_elapsed": 627054, "serialpos": 10, "key_press": -1, "wordID": 438, "type": "PRES_AUD", "trial_index": 99}, "uniqueid": "MTK3562:3HOSI13XH0VSE8N0XMBUQ9O7YLBDDW", "dateTime": 1520790633641}, {"current_trial": 100, "trialdata": {"rt": -1000, "trial_type": "single-audio", "word": "drink", "stimulus": "/static/audio/wordpool/DRINK.wav", "conditions": [24, 800, "a", 24000], "internal_node_id": "0.0-73.0", "trial": 2, "time_elapsed": 628909, "serialpos": 11, "key_press": -1, "wordID": 497, "type": "PRES_AUD", "trial_index": 100}, "uniqueid": "MTK3562:3HOSI13XH0VSE8N0XMBUQ9O7YLBDDW", "dateTime": 1520790635496}, {"current_trial": 101, "trialdata": {"rt": -1000, "trial_type": "single-audio", "word": "skillet", "stimulus": "/static/audio/wordpool/SKILLET.wav", "conditions": [24, 800, "a", 24000], "internal_node_id": "0.0-74.0", "trial": 2, "time_elapsed": 630616, "serialpos": 12, "key_press": -1, "wordID": 1316, "type": "PRES_AUD", "trial_index": 101}, "uniqueid": "MTK3562:3HOSI13XH0VSE8N0XMBUQ9O7YLBDDW", "dateTime": 1520790637203}, {"current_trial": 102, "trialdata": {"rt": -1000, "trial_type": "single-audio", "word": "climber", "stimulus": "/static/audio/wordpool/CLIMBER.wav", "conditions": [24, 800, "a", 24000], "internal_node_id": "0.0-75.0", "trial": 2, "time_elapsed": 632486, "serialpos": 13, "key_press": -1, "wordID": 322, "type": "PRES_AUD", "trial_index": 102}, "uniqueid": "MTK3562:3HOSI13XH0VSE8N0XMBUQ9O7YLBDDW", "dateTime": 1520790639073}, {"current_trial": 103, "trialdata": {"rt": -1000, "trial_type": "single-audio", "word": "turnip", "stimulus": "/static/audio/wordpool/TURNIP.wav", "conditions": [24, 800, "a", 24000], "internal_node_id": "0.0-76.0", "trial": 2, "time_elapsed": 634089, "serialpos": 14, "key_press": -1, "wordID": 1520, "type": "PRES_AUD", "trial_index": 103}, "uniqueid": "MTK3562:3HOSI13XH0VSE8N0XMBUQ9O7YLBDDW", "dateTime": 1520790640676}, {"current_trial": 104, "trialdata": {"rt": -1000, "trial_type": "single-audio", "word": "chipmunk", "stimulus": "/static/audio/wordpool/CHIPMUNK.wav", "conditions": [24, 800, "a", 24000], "internal_node_id": "0.0-77.0", "trial": 2, "time_elapsed": 636079, "serialpos": 15, "key_press": -1, "wordID": 303, "type": "PRES_AUD", "trial_index": 104}, "uniqueid": "MTK3562:3HOSI13XH0VSE8N0XMBUQ9O7YLBDDW", "dateTime": 1520790642666}, {"current_trial": 105, "trialdata": {"rt": -1000, "trial_type": "single-audio", "word": "hiker", "stimulus": "/static/audio/wordpool/HIKER.wav", "conditions": [24, 800, "a", 24000], "internal_node_id": "0.0-78.0", "trial": 2, "time_elapsed": 637926, "serialpos": 16, "key_press": -1, "wordID": 707, "type": "PRES_AUD", "trial_index": 105}, "uniqueid": "MTK3562:3HOSI13XH0VSE8N0XMBUQ9O7YLBDDW", "dateTime": 1520790644513}, {"current_trial": 106, "trialdata": {"rt": -1000, "trial_type": "single-audio", "word": "tombstone", "stimulus": "/static/audio/wordpool/TOMBSTONE.wav", "conditions": [24, 800, "a", 24000], "internal_node_id": "0.0-79.0", "trial": 2, "time_elapsed": 639547, "serialpos": 17, "key_press": -1, "wordID": 1477, "type": "PRES_AUD", "trial_index": 106}, "uniqueid": "MTK3562:3HOSI13XH0VSE8N0XMBUQ9O7YLBDDW", "dateTime": 1520790646134}, {"current_trial": 107, "trialdata": {"rt": -1000, "trial_type": "single-audio", "word": "blockade", "stimulus": "/static/audio/wordpool/BLOCKADE.wav", "conditions": [24, 800, "a", 24000], "internal_node_id": "0.0-80.0", "trial": 2, "time_elapsed": 641254, "serialpos": 18, "key_press": -1, "wordID": 136, "type": "PRES_AUD", "trial_index": 107}, "uniqueid": "MTK3562:3HOSI13XH0VSE8N0XMBUQ9O7YLBDDW", "dateTime": 1520790647841}, {"current_trial": 108, "trialdata": {"rt": -1000, "trial_type": "single-audio", "word": "valley", "stimulus": "/static/audio/wordpool/VALLEY.wav", "conditions": [24, 800, "a", 24000], "internal_node_id": "0.0-81.0", "trial": 2, "time_elapsed": 643076, "serialpos": 19, "key_press": -1, "wordID": 1544, "type": "PRES_AUD", "trial_index": 108}, "uniqueid": "MTK3562:3HOSI13XH0VSE8N0XMBUQ9O7YLBDDW", "dateTime": 1520790649663}, {"current_trial": 109, "trialdata": {"rt": -1000, "trial_type": "single-audio", "word": "washer", "stimulus": "/static/audio/wordpool/WASHER.wav", "conditions": [24, 800, "a", 24000], "internal_node_id": "0.0-82.0", "trial": 2, "time_elapsed": 644696, "serialpos": 20, "key_press": -1, "wordID": 1591, "type": "PRES_AUD", "trial_index": 109}, "uniqueid": "MTK3562:3HOSI13XH0VSE8N0XMBUQ9O7YLBDDW", "dateTime": 1520790651283}, {"current_trial": 110, "trialdata": {"rt": -1000, "trial_type": "single-audio", "word": "pasta", "stimulus": "/static/audio/wordpool/PASTA.wav", "conditions": [24, 800, "a", 24000], "internal_node_id": "0.0-83.0", "trial": 2, "time_elapsed": 646559, "serialpos": 21, "key_press": -1, "wordID": 1020, "type": "PRES_AUD", "trial_index": 110}, "uniqueid": "MTK3562:3HOSI13XH0VSE8N0XMBUQ9O7YLBDDW", "dateTime": 1520790653146}, {"current_trial": 111, "trialdata": {"rt": -1000, "trial_type": "single-audio", "word": "custard", "stimulus": "/static/audio/wordpool/CUSTARD.wav", "conditions": [24, 800, "a", 24000], "internal_node_id": "0.0-84.0", "trial": 2, "time_elapsed": 648436, "serialpos": 22, "key_press": -1, "wordID": 428, "type": "PRES_AUD", "trial_index": 111}, "uniqueid": "MTK3562:3HOSI13XH0VSE8N0XMBUQ9O7YLBDDW", "dateTime": 1520790655023}, {"current_trial": 112, "trialdata": {"rt": -1000, "trial_type": "single-audio", "word": "napkin", "stimulus": "/static/audio/wordpool/NAPKIN.wav", "conditions": [24, 800, "a", 24000], "internal_node_id": "0.0-85.0", "trial": 2, "time_elapsed": 650405, "serialpos": 23, "key_press": -1, "wordID": 936, "type": "PRES_AUD", "trial_index": 112}, "uniqueid": "MTK3562:3HOSI13XH0VSE8N0XMBUQ9O7YLBDDW", "dateTime": 1520790656992}, {"current_trial": 113, "trialdata": {"rt": -1, "trial_type": "single-stim", "stimulus": "", "internal_node_id": "0.0-86.0-0.0", "time_elapsed": 651703, "key_press": -1, "type": "PRE_RECALL_DELAY", "trial_index": 113}, "uniqueid": "MTK3562:3HOSI13XH0VSE8N0XMBUQ9O7YLBDDW", "dateTime": 1520790658290}, {"current_trial": 114, "trialdata": {"rt": -1000, "trial_type": "single-audio", "stimulus": "/static/audio/400Hz.wav", "internal_node_id": "0.0-87.0", "time_elapsed": 652205, "key_press": -1, "type": "PRE_RECALL_ALERT", "trial_index": 114}, "uniqueid": "MTK3562:3HOSI13XH0VSE8N0XMBUQ9O7YLBDDW", "dateTime": 1520790658792}, {"current_trial": 115, "trialdata": {"rt": [4809, 7454, 9368, 10793, 13972, 16091, 24485, 27419, 33741], "recwords": ["waitress", "hostess", "napkin", "baby", "barley", "custard", "hiker", "blockade", "skillet"], "key_times": [1473, 1853, 3431, 3620, 3918, 4038, 4433, 4590, 4809, 5232, 5286, 5434, 5849, 5980, 6208, 6348, 6780, 6896, 6998, 7085, 7454, 7955, 8071, 8171, 8772, 8954, 9022, 9368, 9912, 10044, 10152, 10376, 10793, 11236, 11343, 11495, 11701, 11828, 12531, 13972, 14478, 14574, 14698, 14841, 14958, 15234, 15566, 16091, 18016, 18417, 19328, 19500, 19567, 22721, 22844, 22927, 23064, 23175, 23476, 23572, 23877, 24017, 24096, 24485, 25345, 25461, 25779, 26068, 26136, 26387, 27050, 27222, 27419, 32648, 32724, 32884, 33031, 33161, 33303, 33481, 33741], "trial_type": "free-recall", "conditions": [24, 800, "a", 24000], "internal_node_id": "0.0-88.0-0.0", "key_presses": [87, 65, 73, 84, 82, 69, 83, 83, 13, 72, 79, 83, 84, 69, 76, 76, 8, 8, 83, 83, 13, 78, 65, 80, 75, 73, 78, 13, 66, 65, 66, 89, 13, 66, 65, 82, 76, 69, 89, 13, 67, 85, 83, 84, 65, 82, 68, 13, 68, 73, 86, 69, 82, 8, 8, 8, 8, 8, 72, 73, 75, 69, 82, 13, 66, 76, 79, 67, 75, 65, 68, 69, 13, 83, 75, 73, 76, 76, 69, 84, 13], "trial": 2, "time_elapsed": 712212, "type": "FREE_RECALL", "trial_index": 115}, "uniqueid": "MTK3562:3HOSI13XH0VSE8N0XMBUQ9O7YLBDDW", "dateTime": 1520790718801}, {"current_trial": 116, "trialdata": {"rt": 1922, "trial_type": "text", "internal_node_id": "0.0-89.0", "time_elapsed": 716141, "key_press": 32, "type": "INSTRUCTIONS", "trial_index": 116}, "uniqueid": "MTK3562:3HOSI13XH0VSE8N0XMBUQ9O7YLBDDW", "dateTime": 1520790722728}, {"current_trial": 117, "trialdata": {"rt": [3047, 5003, 7039, 9256, 12023, 14489, 17275, 20529, 22287], "trial_type": "math-distractor", "key_times": [2711, 3047, 4653, 4804, 5003, 6651, 6763, 7039, 8870, 9054, 9256, 11489, 11565, 12023, 14257, 14489, 16862, 17040, 17275, 20156, 20268, 20529, 22074, 22287], "responses": ["6", "14", "20", "14", "18", "9", "21", "17", "8"], "num2": [3, 4, 8, 6, 6, 4, 7, 5, 2, 9], "num3": [1, 5, 5, 4, 8, 1, 8, 3, 4, 4], "conditions": [12, 1600, "a", 24000], "internal_node_id": "0.0-90.0", "key_presses": [54, 13, 49, 52, 13, 50, 48, 13, 49, 52, 13, 49, 56, 13, 57, 13, 50, 49, 13, 49, 55, 13, 56, 13], "trial": 3, "time_elapsed": 742147, "type": "DISTRACTOR", "trial_index": 117, "num1": [2, 5, 7, 4, 4, 4, 6, 9, 2, 2]}, "uniqueid": "MTK3562:3HOSI13XH0VSE8N0XMBUQ9O7YLBDDW", "dateTime": 1520790748735}, {"current_trial": 118, "trialdata": {"rt": -1, "trial_type": "single-stim", "stimulus": "<p id=\"stim\">10</p>", "internal_node_id": "0.0-91.0-0.0", "time_elapsed": 745157, "key_press": -1, "trial_index": 118}, "uniqueid": "MTK3562:3HOSI13XH0VSE8N0XMBUQ9O7YLBDDW", "dateTime": 1520790751744}, {"current_trial": 119, "trialdata": {"rt": -1, "trial_type": "single-stim", "stimulus": "<p id=\"stim\">9</p>", "internal_node_id": "0.0-91.0-1.0", "time_elapsed": 746160, "key_press": -1, "trial_index": 119}, "uniqueid": "MTK3562:3HOSI13XH0VSE8N0XMBUQ9O7YLBDDW", "dateTime": 1520790752747}, {"current_trial": 120, "trialdata": {"rt": -1, "trial_type": "single-stim", "stimulus": "<p id=\"stim\">8</p>", "internal_node_id": "0.0-91.0-2.0", "time_elapsed": 747164, "key_press": -1, "trial_index": 120}, "uniqueid": "MTK3562:3HOSI13XH0VSE8N0XMBUQ9O7YLBDDW", "dateTime": 1520790753752}, {"current_trial": 121, "trialdata": {"rt": -1, "trial_type": "single-stim", "stimulus": "<p id=\"stim\">7</p>", "internal_node_id": "0.0-91.0-3.0", "time_elapsed": 748169, "key_press": -1, "trial_index": 121}, "uniqueid": "MTK3562:3HOSI13XH0VSE8N0XMBUQ9O7YLBDDW", "dateTime": 1520790754756}, {"current_trial": 122, "trialdata": {"rt": -1, "trial_type": "single-stim", "stimulus": "<p id=\"stim\">6</p>", "internal_node_id": "0.0-91.0-4.0", "time_elapsed": 749173, "key_press": -1, "trial_index": 122}, "uniqueid": "MTK3562:3HOSI13XH0VSE8N0XMBUQ9O7YLBDDW", "dateTime": 1520790755760}, {"current_trial": 123, "trialdata": {"rt": -1, "trial_type": "single-stim", "stimulus": "<p id=\"stim\">5</p>", "internal_node_id": "0.0-91.0-5.0", "time_elapsed": 750177, "key_press": -1, "trial_index": 123}, "uniqueid": "MTK3562:3HOSI13XH0VSE8N0XMBUQ9O7YLBDDW", "dateTime": 1520790756764}, {"current_trial": 124, "trialdata": {"rt": -1, "trial_type": "single-stim", "stimulus": "<p id=\"stim\">4</p>", "internal_node_id": "0.0-91.0-6.0", "time_elapsed": 751183, "key_press": -1, "trial_index": 124}, "uniqueid": "MTK3562:3HOSI13XH0VSE8N0XMBUQ9O7YLBDDW", "dateTime": 1520790757770}, {"current_trial": 125, "trialdata": {"rt": -1, "trial_type": "single-stim", "stimulus": "<p id=\"stim\">3</p>", "internal_node_id": "0.0-91.0-7.0", "time_elapsed": 752185, "key_press": -1, "trial_index": 125}, "uniqueid": "MTK3562:3HOSI13XH0VSE8N0XMBUQ9O7YLBDDW", "dateTime": 1520790758773}, {"current_trial": 126, "trialdata": {"rt": -1, "trial_type": "single-stim", "stimulus": "<p id=\"stim\">2</p>", "internal_node_id": "0.0-91.0-8.0", "time_elapsed": 753189, "key_press": -1, "trial_index": 126}, "uniqueid": "MTK3562:3HOSI13XH0VSE8N0XMBUQ9O7YLBDDW", "dateTime": 1520790759777}, {"current_trial": 127, "trialdata": {"rt": -1, "trial_type": "single-stim", "stimulus": "<p id=\"stim\">1</p>", "internal_node_id": "0.0-91.0-9.0", "time_elapsed": 754193, "key_press": -1, "trial_index": 127}, "uniqueid": "MTK3562:3HOSI13XH0VSE8N0XMBUQ9O7YLBDDW", "dateTime": 1520790760780}, {"current_trial": 128, "trialdata": {"rt": -1, "trial_type": "single-stim", "stimulus": "<p id=\"stim\">+</p>", "internal_node_id": "0.0-92.0-0.0", "time_elapsed": 755699, "key_press": -1, "type": "FIXATION", "trial_index": 128}, "uniqueid": "MTK3562:3HOSI13XH0VSE8N0XMBUQ9O7YLBDDW", "dateTime": 1520790762286}, {"current_trial": 129, "trialdata": {"rt": -1000, "trial_type": "single-audio", "word": "pastry", "stimulus": "/static/audio/wordpool/PASTRY.wav", "conditions": [12, 1600, "a", 24000], "internal_node_id": "0.0-93.0", "trial": 3, "time_elapsed": 758492, "serialpos": 0, "key_press": -1, "wordID": 1021, "type": "PRES_AUD", "trial_index": 129}, "uniqueid": "MTK3562:3HOSI13XH0VSE8N0XMBUQ9O7YLBDDW", "dateTime": 1520790765079}, {"current_trial": 130, "trialdata": {"rt": -1000, "trial_type": "single-audio", "word": "umpire", "stimulus": "/static/audio/wordpool/UMPIRE.wav", "conditions": [12, 1600, "a", 24000], "internal_node_id": "0.0-94.0", "trial": 3, "time_elapsed": 761283, "serialpos": 1, "key_press": -1, "wordID": 1534, "type": "PRES_AUD", "trial_index": 130}, "uniqueid": "MTK3562:3HOSI13XH0VSE8N0XMBUQ9O7YLBDDW", "dateTime": 1520790767870}, {"current_trial": 131, "trialdata": {"rt": -1000, "trial_type": "single-audio", "word": "velvet", "stimulus": "/static/audio/wordpool/VELVET.wav", "conditions": [12, 1600, "a", 24000], "internal_node_id": "0.0-95.0", "trial": 3, "time_elapsed": 763763, "serialpos": 2, "key_press": -1, "wordID": 1554, "type": "PRES_AUD", "trial_index": 131}, "uniqueid": "MTK3562:3HOSI13XH0VSE8N0XMBUQ9O7YLBDDW", "dateTime": 1520790770350}, {"current_trial": 132, "trialdata": {"rt": -1000, "trial_type": "single-audio", "word": "parrot", "stimulus": "/static/audio/wordpool/PARROT.wav", "conditions": [12, 1600, "a", 24000], "internal_node_id": "0.0-96.0", "trial": 3, "time_elapsed": 766391, "serialpos": 3, "key_press": -1, "wordID": 1014, "type": "PRES_AUD", "trial_index": 132}, "uniqueid": "MTK3562:3HOSI13XH0VSE8N0XMBUQ9O7YLBDDW", "dateTime": 1520790772978}, {"current_trial": 133, "trialdata": {"rt": -1000, "trial_type": "single-audio", "word": "mailman", "stimulus": "/static/audio/wordpool/MAILMAN.wav", "conditions": [12, 1600, "a", 24000], "internal_node_id": "0.0-97.0", "trial": 3, "time_elapsed": 768959, "serialpos": 4, "key_press": -1, "wordID": 857, "type": "PRES_AUD", "trial_index": 133}, "uniqueid": "MTK3562:3HOSI13XH0VSE8N0XMBUQ9O7YLBDDW", "dateTime": 1520790775546}, {"current_trial": 134, "trialdata": {"rt": -1000, "trial_type": "single-audio", "word": "comet", "stimulus": "/static/audio/wordpool/COMET.wav", "conditions": [12, 1600, "a", 24000], "internal_node_id": "0.0-98.0", "trial": 3, "time_elapsed": 771734, "serialpos": 5, "key_press": -1, "wordID": 352, "type": "PRES_AUD", "trial_index": 134}, "uniqueid": "MTK3562:3HOSI13XH0VSE8N0XMBUQ9O7YLBDDW", "dateTime": 1520790778321}, {"current_trial": 135, "trialdata": {"rt": -1000, "trial_type": "single-audio", "word": "camel", "stimulus": "/static/audio/wordpool/CAMEL.wav", "conditions": [12, 1600, "a", 24000], "internal_node_id": "0.0-99.0", "trial": 3, "time_elapsed": 774150, "serialpos": 6, "key_press": -1, "wordID": 222, "type": "PRES_AUD", "trial_index": 135}, "uniqueid": "MTK3562:3HOSI13XH0VSE8N0XMBUQ9O7YLBDDW", "dateTime": 1520790780737}, {"current_trial": 136, "trialdata": {"rt": -1000, "trial_type": "single-audio", "word": "eagle", "stimulus": "/static/audio/wordpool/EAGLE.wav", "conditions": [12, 1600, "a", 24000], "internal_node_id": "0.0-100.0", "trial": 3, "time_elapsed": 776749, "serialpos": 7, "key_press": -1, "wordID": 511, "type": "PRES_AUD", "trial_index": 136}, "uniqueid": "MTK3562:3HOSI13XH0VSE8N0XMBUQ9O7YLBDDW", "dateTime": 1520790783336}, {"current_trial": 137, "trialdata": {"rt": -1000, "trial_type": "single-audio", "word": "mummy", "stimulus": "/static/audio/wordpool/MUMMY.wav", "conditions": [12, 1600, "a", 24000], "internal_node_id": "0.0-101.0", "trial": 3, "time_elapsed": 779250, "serialpos": 8, "key_press": -1, "wordID": 931, "type": "PRES_AUD", "trial_index": 137}, "uniqueid": "MTK3562:3HOSI13XH0VSE8N0XMBUQ9O7YLBDDW", "dateTime": 1520790785838}, {"current_trial": 138, "trialdata": {"rt": -1000, "trial_type": "single-audio", "word": "bunny", "stimulus": "/static/audio/wordpool/BUNNY.wav", "conditions": [12, 1600, "a", 24000], "internal_node_id": "0.0-102.0", "trial": 3, "time_elapsed": 781780, "serialpos": 9, "key_press": -1, "wordID": 197, "type": "PRES_AUD", "trial_index": 138}, "uniqueid": "MTK3562:3HOSI13XH0VSE8N0XMBUQ9O7YLBDDW", "dateTime": 1520790788367}, {"current_trial": 139, "trialdata": {"rt": -1000, "trial_type": "single-audio", "word": "puppy", "stimulus": "/static/audio/wordpool/PUPPY.wav", "conditions": [12, 1600, "a", 24000], "internal_node_id": "0.0-103.0", "trial": 3, "time_elapsed": 784571, "serialpos": 10, "key_press": -1, "wordID": 1143, "type": "PRES_AUD", "trial_index": 139}, "uniqueid": "MTK3562:3HOSI13XH0VSE8N0XMBUQ9O7YLBDDW", "dateTime": 1520790791158}, {"current_trial": 140, "trialdata": {"rt": -1000, "trial_type": "single-audio", "word": "plaid", "stimulus": "/static/audio/wordpool/PLAID.wav", "conditions": [12, 1600, "a", 24000], "internal_node_id": "0.0-104.0", "trial": 3, "time_elapsed": 787054, "serialpos": 11, "key_press": -1, "wordID": 1079, "type": "PRES_AUD", "trial_index": 140}, "uniqueid": "MTK3562:3HOSI13XH0VSE8N0XMBUQ9O7YLBDDW", "dateTime": 1520790793641}, {"current_trial": 141, "trialdata": {"rt": -1, "trial_type": "single-stim", "stimulus": "", "internal_node_id": "0.0-105.0-0.0", "time_elapsed": 788341, "key_press": -1, "type": "PRE_RECALL_DELAY", "trial_index": 141}, "uniqueid": "MTK3562:3HOSI13XH0VSE8N0XMBUQ9O7YLBDDW", "dateTime": 1520790794928}, {"current_trial": 142, "trialdata": {"rt": -1000, "trial_type": "single-audio", "stimulus": "/static/audio/400Hz.wav", "internal_node_id": "0.0-106.0", "time_elapsed": 788842, "key_press": -1, "type": "PRE_RECALL_ALERT", "trial_index": 142}, "uniqueid": "MTK3562:3HOSI13XH0VSE8N0XMBUQ9O7YLBDDW", "dateTime": 1520790795430}, {"current_trial": 143, "trialdata": {"rt": [3428, 5687, 9002, 11073, 12864, 14075, 21738], "recwords": ["mummy", "veltet", "bunny", "plaid", "keyhole", "puppy", "camel"], "key_times": [2293, 2594, 2794, 2918, 3106, 3428, 3905, 4099, 4183, 4458, 5068, 5232, 5687, 7545, 7632, 7843, 7979, 8186, 9002, 9447, 9593, 9768, 9923, 10208, 11073, 11440, 11592, 11696, 12050, 12103, 12266, 12561, 12864, 13225, 13338, 13529, 13654, 13818, 14075, 21012, 21121, 21214, 21404, 21520, 21738], "trial_type": "free-recall", "conditions": [12, 1600, "a", 24000], "internal_node_id": "0.0-107.0-0.0", "key_presses": [77, 85, 77, 77, 89, 13, 86, 69, 76, 84, 69, 84, 13, 66, 85, 78, 78, 89, 13, 80, 76, 65, 73, 68, 13, 75, 69, 89, 72, 79, 76, 69, 13, 80, 85, 80, 80, 89, 13, 67, 65, 77, 69, 76, 13], "trial": 3, "time_elapsed": 848846, "type": "FREE_RECALL", "trial_index": 143}, "uniqueid": "MTK3562:3HOSI13XH0VSE8N0XMBUQ9O7YLBDDW", "dateTime": 1520790855436}, {"current_trial": 144, "trialdata": {"rt": 1461, "trial_type": "text", "internal_node_id": "0.0-108.0", "time_elapsed": 852314, "key_press": 32, "type": "INSTRUCTIONS", "trial_index": 144}, "uniqueid": "MTK3562:3HOSI13XH0VSE8N0XMBUQ9O7YLBDDW", "dateTime": 1520790858901}, {"current_trial": 145, "trialdata": {"rt": [1865, 4113, 6539, 9175, 11572], "trial_type": "math-distractor", "key_times": [1476, 1652, 1865, 3743, 3907, 4113, 6238, 6342, 6539, 8811, 8919, 9175, 11238, 11372, 11572], "responses": ["12", "14", "18", "10", "19"], "num2": [8, 4, 9, 5, 9, 7], "num3": [2, 1, 5, 3, 8, 8], "conditions": [24, 800, "a", 12000], "internal_node_id": "0.0-109.0", "key_presses": [49, 50, 13, 49, 52, 13, 49, 56, 13, 49, 48, 13, 49, 57, 13], "trial": 4, "time_elapsed": 866323, "type": "DISTRACTOR", "trial_index": 145, "num1": [2, 9, 4, 2, 2, 2]}, "uniqueid": "MTK3562:3HOSI13XH0VSE8N0XMBUQ9O7YLBDDW", "dateTime": 1520790872910}, {"current_trial": 146, "trialdata": {"rt": -1, "trial_type": "single-stim", "stimulus": "<p id=\"stim\">10</p>", "internal_node_id": "0.0-110.0-0.0", "time_elapsed": 869329, "key_press": -1, "trial_index": 146}, "uniqueid": "MTK3562:3HOSI13XH0VSE8N0XMBUQ9O7YLBDDW", "dateTime": 1520790875916}, {"current_trial": 147, "trialdata": {"rt": -1, "trial_type": "single-stim", "stimulus": "<p id=\"stim\">9</p>", "internal_node_id": "0.0-110.0-1.0", "time_elapsed": 870333, "key_press": -1, "trial_index": 147}, "uniqueid": "MTK3562:3HOSI13XH0VSE8N0XMBUQ9O7YLBDDW", "dateTime": 1520790876921}, {"current_trial": 148, "trialdata": {"rt": -1, "trial_type": "single-stim", "stimulus": "<p id=\"stim\">8</p>", "internal_node_id": "0.0-110.0-2.0", "time_elapsed": 871337, "key_press": -1, "trial_index": 148}, "uniqueid": "MTK3562:3HOSI13XH0VSE8N0XMBUQ9O7YLBDDW", "dateTime": 1520790877924}, {"current_trial": 149, "trialdata": {"rt": -1, "trial_type": "single-stim", "stimulus": "<p id=\"stim\">7</p>", "internal_node_id": "0.0-110.0-3.0", "time_elapsed": 872341, "key_press": -1, "trial_index": 149}, "uniqueid": "MTK3562:3HOSI13XH0VSE8N0XMBUQ9O7YLBDDW", "dateTime": 1520790878928}, {"current_trial": 150, "trialdata": {"rt": -1, "trial_type": "single-stim", "stimulus": "<p id=\"stim\">6</p>", "internal_node_id": "0.0-110.0-4.0", "time_elapsed": 873345, "key_press": -1, "trial_index": 150}, "uniqueid": "MTK3562:3HOSI13XH0VSE8N0XMBUQ9O7YLBDDW", "dateTime": 1520790879933}, {"current_trial": 151, "trialdata": {"rt": -1, "trial_type": "single-stim", "stimulus": "<p id=\"stim\">5</p>", "internal_node_id": "0.0-110.0-5.0", "time_elapsed": 874350, "key_press": -1, "trial_index": 151}, "uniqueid": "MTK3562:3HOSI13XH0VSE8N0XMBUQ9O7YLBDDW", "dateTime": 1520790880937}, {"current_trial": 152, "trialdata": {"rt": -1, "trial_type": "single-stim", "stimulus": "<p id=\"stim\">4</p>", "internal_node_id": "0.0-110.0-6.0", "time_elapsed": 875354, "key_press": -1, "trial_index": 152}, "uniqueid": "MTK3562:3HOSI13XH0VSE8N0XMBUQ9O7YLBDDW", "dateTime": 1520790881941}, {"current_trial": 153, "trialdata": {"rt": -1, "trial_type": "single-stim", "stimulus": "<p id=\"stim\">3</p>", "internal_node_id": "0.0-110.0-7.0", "time_elapsed": 876357, "key_press": -1, "trial_index": 153}, "uniqueid": "MTK3562:3HOSI13XH0VSE8N0XMBUQ9O7YLBDDW", "dateTime": 1520790882944}, {"current_trial": 154, "trialdata": {"rt": -1, "trial_type": "single-stim", "stimulus": "<p id=\"stim\">2</p>", "internal_node_id": "0.0-110.0-8.0", "time_elapsed": 877362, "key_press": -1, "trial_index": 154}, "uniqueid": "MTK3562:3HOSI13XH0VSE8N0XMBUQ9O7YLBDDW", "dateTime": 1520790883949}, {"current_trial": 155, "trialdata": {"rt": -1, "trial_type": "single-stim", "stimulus": "<p id=\"stim\">1</p>", "internal_node_id": "0.0-110.0-9.0", "time_elapsed": 878367, "key_press": -1, "trial_index": 155}, "uniqueid": "MTK3562:3HOSI13XH0VSE8N0XMBUQ9O7YLBDDW", "dateTime": 1520790884954}, {"current_trial": 156, "trialdata": {"rt": -1, "trial_type": "single-stim", "stimulus": "<p id=\"stim\">+</p>", "internal_node_id": "0.0-111.0-0.0", "time_elapsed": 879869, "key_press": -1, "type": "FIXATION", "trial_index": 156}, "uniqueid": "MTK3562:3HOSI13XH0VSE8N0XMBUQ9O7YLBDDW", "dateTime": 1520790886456}, {"current_trial": 157, "trialdata": {"rt": -1000, "trial_type": "single-audio", "word": "sunrise", "stimulus": "/static/audio/wordpool/SUNRISE.wav", "conditions": [24, 800, "a", 12000], "internal_node_id": "0.0-112.0", "trial": 4, "time_elapsed": 881799, "serialpos": 0, "key_press": -1, "wordID": 1406, "type": "PRES_AUD", "trial_index": 157}, "uniqueid": "MTK3562:3HOSI13XH0VSE8N0XMBUQ9O7YLBDDW", "dateTime": 1520790888386}, {"current_trial": 158, "trialdata": {"rt": -1000, "trial_type": "single-audio", "word": "cabbage", "stimulus": "/static/audio/wordpool/CABBAGE.wav", "conditions": [24, 800, "a", 12000], "internal_node_id": "0.0-113.0", "trial": 4, "time_elapsed": 883542, "serialpos": 1, "key_press": -1, "wordID": 209, "type": "PRES_AUD", "trial_index": 158}, "uniqueid": "MTK3562:3HOSI13XH0VSE8N0XMBUQ9O7YLBDDW", "dateTime": 1520790890129}, {"current_trial": 159, "trialdata": {"rt": -1000, "trial_type": "single-audio", "word": "robber", "stimulus": "/static/audio/wordpool/ROBBER.wav", "conditions": [24, 800, "a", 12000], "internal_node_id": "0.0-114.0", "trial": 4, "time_elapsed": 885204, "serialpos": 2, "key_press": -1, "wordID": 1196, "type": "PRES_AUD", "trial_index": 159}, "uniqueid": "MTK3562:3HOSI13XH0VSE8N0XMBUQ9O7YLBDDW", "dateTime": 1520790891791}, {"current_trial": 160, "trialdata": {"rt": -1000, "trial_type": "single-audio", "word": "curtain", "stimulus": "/static/audio/wordpool/CURTAIN.wav", "conditions": [24, 800, "a", 12000], "internal_node_id": "0.0-115.0", "trial": 4, "time_elapsed": 886967, "serialpos": 3, "key_press": -1, "wordID": 426, "type": "PRES_AUD", "trial_index": 160}, "uniqueid": "MTK3562:3HOSI13XH0VSE8N0XMBUQ9O7YLBDDW", "dateTime": 1520790893554}, {"current_trial": 161, "trialdata": {"rt": -1000, "trial_type": "single-audio", "word": "hook", "stimulus": "/static/audio/wordpool/HOOK.wav", "conditions": [24, 800, "a", 12000], "internal_node_id": "0.0-116.0", "trial": 4, "time_elapsed": 888838, "serialpos": 4, "key_press": -1, "wordID": 714, "type": "PRES_AUD", "trial_index": 161}, "uniqueid": "MTK3562:3HOSI13XH0VSE8N0XMBUQ9O7YLBDDW", "dateTime": 1520790895425}, {"current_trial": 162, "trialdata": {"rt": -1000, "trial_type": "single-audio", "word": "braces", "stimulus": "/static/audio/wordpool/BRACES.wav", "conditions": [24, 800, "a", 12000], "internal_node_id": "0.0-117.0", "trial": 4, "time_elapsed": 890740, "serialpos": 5, "key_press": -1, "wordID": 163, "type": "PRES_AUD", "trial_index": 162}, "uniqueid": "MTK3562:3HOSI13XH0VSE8N0XMBUQ9O7YLBDDW", "dateTime": 1520790897327}, {"current_trial": 163, "trialdata": {"rt": -1000, "trial_type": "single-audio", "word": "tourist", "stimulus": "/static/audio/wordpool/TOURIST.wav", "conditions": [24, 800, "a", 12000], "internal_node_id": "0.0-118.0", "trial": 4, "time_elapsed": 892694, "serialpos": 6, "key_press": -1, "wordID": 1487, "type": "PRES_AUD", "trial_index": 163}, "uniqueid": "MTK3562:3HOSI13XH0VSE8N0XMBUQ9O7YLBDDW", "dateTime": 1520790899282}, {"current_trial": 164, "trialdata": {"rt": -1000, "trial_type": "single-audio", "word": "atlas", "stimulus": "/static/audio/wordpool/ATLAS.wav", "conditions": [24, 800, "a", 12000], "internal_node_id": "0.0-119.0", "trial": 4, "time_elapsed": 894504, "serialpos": 7, "key_press": -1, "wordID": 52, "type": "PRES_AUD", "trial_index": 164}, "uniqueid": "MTK3562:3HOSI13XH0VSE8N0XMBUQ9O7YLBDDW", "dateTime": 1520790901091}, {"current_trial": 165, "trialdata": {"rt": -1000, "trial_type": "single-audio", "word": "japan", "stimulus": "/static/audio/wordpool/JAPAN.wav", "conditions": [24, 800, "a", 12000], "internal_node_id": "0.0-120.0", "trial": 4, "time_elapsed": 896454, "serialpos": 8, "key_press": -1, "wordID": 748, "type": "PRES_AUD", "trial_index": 165}, "uniqueid": "MTK3562:3HOSI13XH0VSE8N0XMBUQ9O7YLBDDW", "dateTime": 1520790903042}, {"current_trial": 166, "trialdata": {"rt": -1000, "trial_type": "single-audio", "word": "europe", "stimulus": "/static/audio/wordpool/EUROPE.wav", "conditions": [24, 800, "a", 12000], "internal_node_id": "0.0-121.0", "trial": 4, "time_elapsed": 898193, "serialpos": 9, "key_press": -1, "wordID": 540, "type": "PRES_AUD", "trial_index": 166}, "uniqueid": "MTK3562:3HOSI13XH0VSE8N0XMBUQ9O7YLBDDW", "dateTime": 1520790904780}, {"current_trial": 167, "trialdata": {"rt": -1000, "trial_type": "single-audio", "word": "grill", "stimulus": "/static/audio/wordpool/GRILL.wav", "conditions": [24, 800, "a", 12000], "internal_node_id": "0.0-122.0", "trial": 4, "time_elapsed": 899924, "serialpos": 10, "key_press": -1, "wordID": 660, "type": "PRES_AUD", "trial_index": 167}, "uniqueid": "MTK3562:3HOSI13XH0VSE8N0XMBUQ9O7YLBDDW", "dateTime": 1520790906511}, {"current_trial": 168, "trialdata": {"rt": -1000, "trial_type": "single-audio", "word": "sunset", "stimulus": "/static/audio/wordpool/SUNSET.wav", "conditions": [24, 800, "a", 12000], "internal_node_id": "0.0-123.0", "trial": 4, "time_elapsed": 901894, "serialpos": 11, "key_press": -1, "wordID": 1407, "type": "PRES_AUD", "trial_index": 168}, "uniqueid": "MTK3562:3HOSI13XH0VSE8N0XMBUQ9O7YLBDDW", "dateTime": 1520790908481}, {"current_trial": 169, "trialdata": {"rt": -1000, "trial_type": "single-audio", "word": "mister", "stimulus": "/static/audio/wordpool/MISTER.wav", "conditions": [24, 800, "a", 12000], "internal_node_id": "0.0-124.0", "trial": 4, "time_elapsed": 903508, "serialpos": 12, "key_press": -1, "wordID": 900, "type": "PRES_AUD", "trial_index": 169}, "uniqueid": "MTK3562:3HOSI13XH0VSE8N0XMBUQ9O7YLBDDW", "dateTime": 1520790910095}, {"current_trial": 170, "trialdata": {"rt": -1000, "trial_type": "single-audio", "word": "river", "stimulus": "/static/audio/wordpool/RIVER.wav", "conditions": [24, 800, "a", 12000], "internal_node_id": "0.0-125.0", "trial": 4, "time_elapsed": 905495, "serialpos": 13, "key_press": -1, "wordID": 1193, "type": "PRES_AUD", "trial_index": 170}, "uniqueid": "MTK3562:3HOSI13XH0VSE8N0XMBUQ9O7YLBDDW", "dateTime": 1520790912082}, {"current_trial": 171, "trialdata": {"rt": -1000, "trial_type": "single-audio", "word": "fox", "stimulus": "/static/audio/wordpool/FOX.wav", "conditions": [24, 800, "a", 12000], "internal_node_id": "0.0-126.0", "trial": 4, "time_elapsed": 907134, "serialpos": 14, "key_press": -1, "wordID": 597, "type": "PRES_AUD", "trial_index": 171}, "uniqueid": "MTK3562:3HOSI13XH0VSE8N0XMBUQ9O7YLBDDW", "dateTime": 1520790913721}, {"current_trial": 172, "trialdata": {"rt": -1000, "trial_type": "single-audio", "word": "lizard", "stimulus": "/static/audio/wordpool/LIZARD.wav", "conditions": [24, 800, "a", 12000], "internal_node_id": "0.0-127.0", "trial": 4, "time_elapsed": 909118, "serialpos": 15, "key_press": -1, "wordID": 833, "type": "PRES_AUD", "trial_index": 172}, "uniqueid": "MTK3562:3HOSI13XH0VSE8N0XMBUQ9O7YLBDDW", "dateTime": 1520790915705}, {"current_trial": 173, "trialdata": {"rt": -1000, "trial_type": "single-audio", "word": "brook", "stimulus": "/static/audio/wordpool/BROOK.wav", "conditions": [24, 800, "a", 12000], "internal_node_id": "0.0-128.0", "trial": 4, "time_elapsed": 910751, "serialpos": 16, "key_press": -1, "wordID": 176, "type": "PRES_AUD", "trial_index": 173}, "uniqueid": "MTK3562:3HOSI13XH0VSE8N0XMBUQ9O7YLBDDW", "dateTime": 1520790917338}, {"current_trial": 174, "trialdata": {"rt": -1000, "trial_type": "single-audio", "word": "stove", "stimulus": "/static/audio/wordpool/STOVE.wav", "conditions": [24, 800, "a", 12000], "internal_node_id": "0.0-129.0", "trial": 4, "time_elapsed": 912528, "serialpos": 17, "key_press": -1, "wordID": 1387, "type": "PRES_AUD", "trial_index": 174}, "uniqueid": "MTK3562:3HOSI13XH0VSE8N0XMBUQ9O7YLBDDW", "dateTime": 1520790919115}, {"current_trial": 175, "trialdata": {"rt": -1000, "trial_type": "single-audio", "word": "agent", "stimulus": "/static/audio/wordpool/AGENT.wav", "conditions": [24, 800, "a", 12000], "internal_node_id": "0.0-130.0", "trial": 4, "time_elapsed": 914346, "serialpos": 18, "key_press": -1, "wordID": 9, "type": "PRES_AUD", "trial_index": 175}, "uniqueid": "MTK3562:3HOSI13XH0VSE8N0XMBUQ9O7YLBDDW", "dateTime": 1520790920933}, {"current_trial": 176, "trialdata": {"rt": -1000, "trial_type": "single-audio", "word": "forehead", "stimulus": "/static/audio/wordpool/FOREHEAD.wav", "conditions": [24, 800, "a", 12000], "internal_node_id": "0.0-131.0", "trial": 4, "time_elapsed": 916189, "serialpos": 19, "key_press": -1, "wordID": 591, "type": "PRES_AUD", "trial_index": 176}, "uniqueid": "MTK3562:3HOSI13XH0VSE8N0XMBUQ9O7YLBDDW", "dateTime": 1520790922776}, {"current_trial": 177, "trialdata": {"rt": -1000, "trial_type": "single-audio", "word": "shoulder", "stimulus": "/static/audio/wordpool/SHOULDER.wav", "conditions": [24, 800, "a", 12000], "internal_node_id": "0.0-132.0", "trial": 4, "time_elapsed": 917859, "serialpos": 20, "key_press": -1, "wordID": 1293, "type": "PRES_AUD", "trial_index": 177}, "uniqueid": "MTK3562:3HOSI13XH0VSE8N0XMBUQ9O7YLBDDW", "dateTime": 1520790924446}, {"current_trial": 178, "trialdata": {"rt": -1000, "trial_type": "single-audio", "word": "icing", "stimulus": "/static/audio/wordpool/ICING.wav", "conditions": [24, 800, "a", 12000], "internal_node_id": "0.0-133.0", "trial": 4, "time_elapsed": 919675, "serialpos": 21, "key_press": -1, "wordID": 731, "type": "PRES_AUD", "trial_index": 178}, "uniqueid": "MTK3562:3HOSI13XH0VSE8N0XMBUQ9O7YLBDDW", "dateTime": 1520790926263}, {"current_trial": 179, "trialdata": {"rt": -1000, "trial_type": "single-audio", "word": "lion", "stimulus": "/static/audio/wordpool/LION.wav", "conditions": [24, 800, "a", 12000], "internal_node_id": "0.0-134.0", "trial": 4, "time_elapsed": 921658, "serialpos": 22, "key_press": -1, "wordID": 826, "type": "PRES_AUD", "trial_index": 179}, "uniqueid": "MTK3562:3HOSI13XH0VSE8N0XMBUQ9O7YLBDDW", "dateTime": 1520790928246}, {"current_trial": 180, "trialdata": {"rt": -1000, "trial_type": "single-audio", "word": "brother", "stimulus": "/static/audio/wordpool/BROTHER.wav", "conditions": [24, 800, "a", 12000], "internal_node_id": "0.0-135.0", "trial": 4, "time_elapsed": 923359, "serialpos": 23, "key_press": -1, "wordID": 178, "type": "PRES_AUD", "trial_index": 180}, "uniqueid": "MTK3562:3HOSI13XH0VSE8N0XMBUQ9O7YLBDDW", "dateTime": 1520790929946}, {"current_trial": 181, "trialdata": {"rt": -1, "trial_type": "single-stim", "stimulus": "", "internal_node_id": "0.0-136.0-0.0", "time_elapsed": 924739, "key_press": -1, "type": "PRE_RECALL_DELAY", "trial_index": 181}, "uniqueid": "MTK3562:3HOSI13XH0VSE8N0XMBUQ9O7YLBDDW", "dateTime": 1520790931326}, {"current_trial": 182, "trialdata": {"rt": -1000, "trial_type": "single-audio", "stimulus": "/static/audio/400Hz.wav", "internal_node_id": "0.0-137.0", "time_elapsed": 925240, "key_press": -1, "type": "PRE_RECALL_ALERT", "trial_index": 182}, "uniqueid": "MTK3562:3HOSI13XH0VSE8N0XMBUQ9O7YLBDDW", "dateTime": 1520790931827}, {"current_trial": 183, "trialdata": {"rt": [3510, 6093, 8754, 14600, 19299, 22249, 25184, 48701, 50218], "recwords": ["tourist", "japan", "europe", "hook", "sunrise", "curtain", "brother", "river", "brooke"], "key_times": [1434, 1495, 1559, 1879, 2594, 2715, 2900, 3051, 3170, 3510, 4176, 4224, 4396, 4651, 5014, 5116, 6093, 6488, 6560, 6687, 7071, 7167, 7273, 7860, 8754, 13509, 13561, 13712, 13857, 14600, 17664, 17737, 17897, 18099, 18208, 18623, 18734, 19299, 21115, 21200, 21316, 21634, 21750, 21869, 21945, 22249, 24048, 24235, 24318, 24446, 24519, 24602, 24690, 25184, 47893, 47983, 48251, 48393, 48485, 48701, 49094, 49292, 49397, 49544, 49656, 49881, 50218], "trial_type": "free-recall", "conditions": [24, 800, "a", 12000], "internal_node_id": "0.0-138.0-0.0", "key_presses": [84, 79, 85, 73, 8, 82, 73, 83, 84, 13, 16, 74, 65, 80, 65, 78, 13, 16, 69, 85, 82, 79, 80, 69, 13, 72, 79, 79, 75, 13, 83, 85, 78, 82, 73, 83, 69, 13, 67, 85, 82, 84, 65, 73, 78, 13, 66, 82, 79, 84, 72, 69, 82, 13, 82, 73, 86, 69, 82, 13, 66, 82, 79, 79, 75, 69, 13], "trial": 4, "time_elapsed": 985248, "type": "FREE_RECALL", "trial_index": 183}, "uniqueid": "MTK3562:3HOSI13XH0VSE8N0XMBUQ9O7YLBDDW", "dateTime": 1520790991837}, {"current_trial": 184, "trialdata": {"rt": 2666, "trial_type": "text", "internal_node_id": "0.0-139.0", "time_elapsed": 989919, "key_press": 32, "type": "INSTRUCTIONS", "trial_index": 184}, "uniqueid": "MTK3562:3HOSI13XH0VSE8N0XMBUQ9O7YLBDDW", "dateTime": 1520790996506}, {"current_trial": 185, "trialdata": {"rt": [2819, 5086, 6820, 9725, 11857], "trial_type": "math-distractor", "key_times": [2375, 2516, 2819, 4558, 4820, 5086, 6648, 6820, 9144, 9494, 9725, 11497, 11653, 11857], "responses": ["20", "13", "6", "13", "18"], "num2": [6, 4, 2, 2, 6, 7], "num3": [8, 3, 3, 4, 7, 9], "conditions": [12, 800, "a", 12000], "internal_node_id": "0.0-140.0", "key_presses": [50, 48, 13, 49, 51, 13, 54, 13, 49, 51, 13, 49, 56, 13], "trial": 5, "time_elapsed": 1003923, "type": "DISTRACTOR", "trial_index": 185, "num1": [6, 6, 1, 7, 5, 7]}, "uniqueid": "MTK3562:3HOSI13XH0VSE8N0XMBUQ9O7YLBDDW", "dateTime": 1520791010510}, {"current_trial": 186, "trialdata": {"rt": -1, "trial_type": "single-stim", "stimulus": "<p id=\"stim\">10</p>", "internal_node_id": "0.0-141.0-0.0", "time_elapsed": 1006927, "key_press": -1, "trial_index": 186}, "uniqueid": "MTK3562:3HOSI13XH0VSE8N0XMBUQ9O7YLBDDW", "dateTime": 1520791013514}, {"current_trial": 187, "trialdata": {"rt": -1, "trial_type": "single-stim", "stimulus": "<p id=\"stim\">9</p>", "internal_node_id": "0.0-141.0-1.0", "time_elapsed": 1007930, "key_press": -1, "trial_index": 187}, "uniqueid": "MTK3562:3HOSI13XH0VSE8N0XMBUQ9O7YLBDDW", "dateTime": 1520791014517}, {"current_trial": 188, "trialdata": {"rt": -1, "trial_type": "single-stim", "stimulus": "<p id=\"stim\">8</p>", "internal_node_id": "0.0-141.0-2.0", "time_elapsed": 1008931, "key_press": -1, "trial_index": 188}, "uniqueid": "MTK3562:3HOSI13XH0VSE8N0XMBUQ9O7YLBDDW", "dateTime": 1520791015518}, {"current_trial": 189, "trialdata": {"rt": -1, "trial_type": "single-stim", "stimulus": "<p id=\"stim\">7</p>", "internal_node_id": "0.0-141.0-3.0", "time_elapsed": 1009933, "key_press": -1, "trial_index": 189}, "uniqueid": "MTK3562:3HOSI13XH0VSE8N0XMBUQ9O7YLBDDW", "dateTime": 1520791016520}, {"current_trial": 190, "trialdata": {"rt": -1, "trial_type": "single-stim", "stimulus": "<p id=\"stim\">6</p>", "internal_node_id": "0.0-141.0-4.0", "time_elapsed": 1010934, "key_press": -1, "trial_index": 190}, "uniqueid": "MTK3562:3HOSI13XH0VSE8N0XMBUQ9O7YLBDDW", "dateTime": 1520791017522}, {"current_trial": 191, "trialdata": {"rt": -1, "trial_type": "single-stim", "stimulus": "<p id=\"stim\">5</p>", "internal_node_id": "0.0-141.0-5.0", "time_elapsed": 1011938, "key_press": -1, "trial_index": 191}, "uniqueid": "MTK3562:3HOSI13XH0VSE8N0XMBUQ9O7YLBDDW", "dateTime": 1520791018525}, {"current_trial": 192, "trialdata": {"rt": -1, "trial_type": "single-stim", "stimulus": "<p id=\"stim\">4</p>", "internal_node_id": "0.0-141.0-6.0", "time_elapsed": 1012942, "key_press": -1, "trial_index": 192}, "uniqueid": "MTK3562:3HOSI13XH0VSE8N0XMBUQ9O7YLBDDW", "dateTime": 1520791019529}, {"current_trial": 193, "trialdata": {"rt": -1, "trial_type": "single-stim", "stimulus": "<p id=\"stim\">3</p>", "internal_node_id": "0.0-141.0-7.0", "time_elapsed": 1013947, "key_press": -1, "trial_index": 193}, "uniqueid": "MTK3562:3HOSI13XH0VSE8N0XMBUQ9O7YLBDDW", "dateTime": 1520791020534}, {"current_trial": 194, "trialdata": {"rt": -1, "trial_type": "single-stim", "stimulus": "<p id=\"stim\">2</p>", "internal_node_id": "0.0-141.0-8.0", "time_elapsed": 1014951, "key_press": -1, "trial_index": 194}, "uniqueid": "MTK3562:3HOSI13XH0VSE8N0XMBUQ9O7YLBDDW", "dateTime": 1520791021538}, {"current_trial": 195, "trialdata": {"rt": -1, "trial_type": "single-stim", "stimulus": "<p id=\"stim\">1</p>", "internal_node_id": "0.0-141.0-9.0", "time_elapsed": 1015951, "key_press": -1, "trial_index": 195}, "uniqueid": "MTK3562:3HOSI13XH0VSE8N0XMBUQ9O7YLBDDW", "dateTime": 1520791022538}, {"current_trial": 196, "trialdata": {"rt": -1, "trial_type": "single-stim", "stimulus": "<p id=\"stim\">+</p>", "internal_node_id": "0.0-142.0-0.0", "time_elapsed": 1017457, "key_press": -1, "type": "FIXATION", "trial_index": 196}, "uniqueid": "MTK3562:3HOSI13XH0VSE8N0XMBUQ9O7YLBDDW", "dateTime": 1520791024045}, {"current_trial": 197, "trialdata": {"rt": -1000, "trial_type": "single-audio", "word": "crown", "stimulus": "/static/audio/wordpool/CROWN.wav", "conditions": [12, 800, "a", 12000], "internal_node_id": "0.0-143.0", "trial": 5, "time_elapsed": 1019408, "serialpos": 0, "key_press": -1, "wordID": 414, "type": "PRES_AUD", "trial_index": 197}, "uniqueid": "MTK3562:3HOSI13XH0VSE8N0XMBUQ9O7YLBDDW", "dateTime": 1520791025996}, {"current_trial": 198, "trialdata": {"rt": -1000, "trial_type": "single-audio", "word": "salt", "stimulus": "/static/audio/wordpool/SALT.wav", "conditions": [12, 800, "a", 12000], "internal_node_id": "0.0-144.0", "trial": 5, "time_elapsed": 1021217, "serialpos": 1, "key_press": -1, "wordID": 1228, "type": "PRES_AUD", "trial_index": 198}, "uniqueid": "MTK3562:3HOSI13XH0VSE8N0XMBUQ9O7YLBDDW", "dateTime": 1520791027804}, {"current_trial": 199, "trialdata": {"rt": -1000, "trial_type": "single-audio", "word": "crab", "stimulus": "/static/audio/wordpool/CRAB.wav", "conditions": [12, 800, "a", 12000], "internal_node_id": "0.0-145.0", "trial": 5, "time_elapsed": 1022950, "serialpos": 2, "key_press": -1, "wordID": 396, "type": "PRES_AUD", "trial_index": 199}, "uniqueid": "MTK3562:3HOSI13XH0VSE8N0XMBUQ9O7YLBDDW", "dateTime": 1520791029537}, {"current_trial": 200, "trialdata": {"rt": -1000, "trial_type": "single-audio", "word": "tweezers", "stimulus": "/static/audio/wordpool/TWEEZERS.wav", "conditions": [12, 800, "a", 12000], "internal_node_id": "0.0-146.0", "trial": 5, "time_elapsed": 1024718, "serialpos": 3, "key_press": -1, "wordID": 1525, "type": "PRES_AUD", "trial_index": 200}, "uniqueid": "MTK3562:3HOSI13XH0VSE8N0XMBUQ9O7YLBDDW", "dateTime": 1520791031305}, {"current_trial": 201, "trialdata": {"rt": -1000, "trial_type": "single-audio", "word": "flipper", "stimulus": "/static/audio/wordpool/FLIPPER.wav", "conditions": [12, 800, "a", 12000], "internal_node_id": "0.0-147.0", "trial": 5, "time_elapsed": 1026462, "serialpos": 4, "key_press": -1, "wordID": 579, "type": "PRES_AUD", "trial_index": 201}, "uniqueid": "MTK3562:3HOSI13XH0VSE8N0XMBUQ9O7YLBDDW", "dateTime": 1520791033049}, {"current_trial": 202, "trialdata": {"rt": -1000, "trial_type": "single-audio", "word": "space", "stimulus": "/static/audio/wordpool/SPACE.wav", "conditions": [12, 800, "a", 12000], "internal_node_id": "0.0-148.0", "trial": 5, "time_elapsed": 1028139, "serialpos": 5, "key_press": -1, "wordID": 1344, "type": "PRES_AUD", "trial_index": 202}, "uniqueid": "MTK3562:3HOSI13XH0VSE8N0XMBUQ9O7YLBDDW", "dateTime": 1520791034726}, {"current_trial": 203, "trialdata": {"rt": -1000, "trial_type": "single-audio", "word": "sidewalk", "stimulus": "/static/audio/wordpool/SIDEWALK.wav", "conditions": [12, 800, "a", 12000], "internal_node_id": "0.0-149.0", "trial": 5, "time_elapsed": 1030104, "serialpos": 6, "key_press": -1, "wordID": 1302, "type": "PRES_AUD", "trial_index": 203}, "uniqueid": "MTK3562:3HOSI13XH0VSE8N0XMBUQ9O7YLBDDW", "dateTime": 1520791036692}, {"current_trial": 204, "trialdata": {"rt": -1000, "trial_type": "single-audio", "word": "thief", "stimulus": "/static/audio/wordpool/THIEF.wav", "conditions": [12, 800, "a", 12000], "internal_node_id": "0.0-150.0", "trial": 5, "time_elapsed": 1032062, "serialpos": 7, "key_press": -1, "wordID": 1455, "type": "PRES_AUD", "trial_index": 204}, "uniqueid": "MTK3562:3HOSI13XH0VSE8N0XMBUQ9O7YLBDDW", "dateTime": 1520791038649}, {"current_trial": 205, "trialdata": {"rt": -1000, "trial_type": "single-audio", "word": "burglar", "stimulus": "/static/audio/wordpool/BURGLAR.wav", "conditions": [12, 800, "a", 12000], "internal_node_id": "0.0-151.0", "trial": 5, "time_elapsed": 1033932, "serialpos": 8, "key_press": -1, "wordID": 199, "type": "PRES_AUD", "trial_index": 205}, "uniqueid": "MTK3562:3HOSI13XH0VSE8N0XMBUQ9O7YLBDDW", "dateTime": 1520791040519}, {"current_trial": 206, "trialdata": {"rt": -1000, "trial_type": "single-audio", "word": "compass", "stimulus": "/static/audio/wordpool/COMPASS.wav", "conditions": [12, 800, "a", 12000], "internal_node_id": "0.0-152.0", "trial": 5, "time_elapsed": 1035592, "serialpos": 9, "key_press": -1, "wordID": 357, "type": "PRES_AUD", "trial_index": 206}, "uniqueid": "MTK3562:3HOSI13XH0VSE8N0XMBUQ9O7YLBDDW", "dateTime": 1520791042179}, {"current_trial": 207, "trialdata": {"rt": -1000, "trial_type": "single-audio", "word": "lunch", "stimulus": "/static/audio/wordpool/LUNCH.wav", "conditions": [12, 800, "a", 12000], "internal_node_id": "0.0-153.0", "trial": 5, "time_elapsed": 1037523, "serialpos": 10, "key_press": -1, "wordID": 848, "type": "PRES_AUD", "trial_index": 207}, "uniqueid": "MTK3562:3HOSI13XH0VSE8N0XMBUQ9O7YLBDDW", "dateTime": 1520791044110}, {"current_trial": 208, "trialdata": {"rt": -1000, "trial_type": "single-audio", "word": "plaza", "stimulus": "/static/audio/wordpool/PLAZA.wav", "conditions": [12, 800, "a", 12000], "internal_node_id": "0.0-154.0", "trial": 5, "time_elapsed": 1039159, "serialpos": 11, "key_press": -1, "wordID": 1087, "type": "PRES_AUD", "trial_index": 208}, "uniqueid": "MTK3562:3HOSI13XH0VSE8N0XMBUQ9O7YLBDDW", "dateTime": 1520791045746}, {"current_trial": 209, "trialdata": {"rt": -1, "trial_type": "single-stim", "stimulus": "", "internal_node_id": "0.0-155.0-0.0", "time_elapsed": 1040392, "key_press": -1, "type": "PRE_RECALL_DELAY", "trial_index": 209}, "uniqueid": "MTK3562:3HOSI13XH0VSE8N0XMBUQ9O7YLBDDW", "dateTime": 1520791046979}, {"current_trial": 210, "trialdata": {"rt": -1000, "trial_type": "single-audio", "stimulus": "/static/audio/400Hz.wav", "internal_node_id": "0.0-156.0", "time_elapsed": 1040894, "key_press": -1, "type": "PRE_RECALL_ALERT", "trial_index": 210}, "uniqueid": "MTK3562:3HOSI13XH0VSE8N0XMBUQ9O7YLBDDW", "dateTime": 1520791047481}, {"current_trial": 211, "trialdata": {"rt": [2586, 6219, 8366, 9826, 11664, 13327, 15976, 18642, 24844], "recwords": ["crown", "crab", "flipper", "lunch", "plaza", "robber", "burgler", "lunch", "sidewalk"], "key_times": [1436, 1650, 1734, 1878, 2002, 2586, 2979, 3174, 3261, 4747, 6219, 6805, 6909, 7029, 7488, 7627, 7806, 7882, 8366, 8872, 9018, 9166, 9325, 9417, 9826, 10236, 10386, 10503, 10785, 11046, 11664, 12429, 12507, 12773, 12883, 13069, 13153, 13327, 13689, 13755, 13909, 14429, 14686, 14955, 15062, 15976, 17790, 17922, 18092, 18237, 18333, 18642, 23391, 23449, 23525, 23696, 23988, 24168, 24240, 24360, 24844], "trial_type": "free-recall", "conditions": [12, 800, "a", 12000], "internal_node_id": "0.0-157.0-0.0", "key_presses": [67, 82, 79, 87, 78, 13, 67, 82, 65, 66, 13, 70, 76, 73, 80, 80, 69, 82, 13, 76, 85, 78, 67, 72, 13, 80, 76, 65, 90, 65, 13, 82, 79, 66, 66, 69, 82, 13, 66, 85, 82, 71, 76, 69, 82, 13, 76, 85, 78, 67, 72, 13, 83, 73, 68, 69, 87, 65, 76, 75, 13], "trial": 5, "time_elapsed": 1100903, "type": "FREE_RECALL", "trial_index": 211}, "uniqueid": "MTK3562:3HOSI13XH0VSE8N0XMBUQ9O7YLBDDW", "dateTime": 1520791107492}, {"current_trial": 212, "trialdata": {"rt": 9724, "trial_type": "text", "internal_node_id": "0.0-158.0", "time_elapsed": 1112636, "key_press": 32, "type": "INSTRUCTIONS", "trial_index": 212}, "uniqueid": "MTK3562:3HOSI13XH0VSE8N0XMBUQ9O7YLBDDW", "dateTime": 1520791119223}, {"current_trial": 213, "trialdata": {"rt": [3271, 5799, 7535, 9387, 11356], "trial_type": "math-distractor", "key_times": [2932, 3074, 3271, 5380, 5580, 5799, 7161, 7296, 7535, 9159, 9387, 10908, 11049, 11356], "responses": ["13", "15", "14", "9", "20"], "num2": [9, 5, 6, 2, 8, 1], "num3": [2, 9, 4, 1, 5, 1], "conditions": [12, 800, "a", 12000], "internal_node_id": "0.0-159.0", "key_presses": [49, 51, 13, 49, 53, 13, 49, 52, 13, 57, 13, 50, 48, 13], "trial": 6, "time_elapsed": 1126649, "type": "DISTRACTOR", "trial_index": 213, "num1": [2, 1, 4, 6, 7, 4]}, "uniqueid": "MTK3562:3HOSI13XH0VSE8N0XMBUQ9O7YLBDDW", "dateTime": 1520791133236}, {"current_trial": 214, "trialdata": {"rt": -1, "trial_type": "single-stim", "stimulus": "<p id=\"stim\">10</p>", "internal_node_id": "0.0-160.0-0.0", "time_elapsed": 1129655, "key_press": -1, "trial_index": 214}, "uniqueid": "MTK3562:3HOSI13XH0VSE8N0XMBUQ9O7YLBDDW", "dateTime": 1520791136242}, {"current_trial": 215, "trialdata": {"rt": -1, "trial_type": "single-stim", "stimulus": "<p id=\"stim\">9</p>", "internal_node_id": "0.0-160.0-1.0", "time_elapsed": 1130659, "key_press": -1, "trial_index": 215}, "uniqueid": "MTK3562:3HOSI13XH0VSE8N0XMBUQ9O7YLBDDW", "dateTime": 1520791137246}, {"current_trial": 216, "trialdata": {"rt": -1, "trial_type": "single-stim", "stimulus": "<p id=\"stim\">8</p>", "internal_node_id": "0.0-160.0-2.0", "time_elapsed": 1131663, "key_press": -1, "trial_index": 216}, "uniqueid": "MTK3562:3HOSI13XH0VSE8N0XMBUQ9O7YLBDDW", "dateTime": 1520791138250}, {"current_trial": 217, "trialdata": {"rt": -1, "trial_type": "single-stim", "stimulus": "<p id=\"stim\">7</p>", "internal_node_id": "0.0-160.0-3.0", "time_elapsed": 1132666, "key_press": -1, "trial_index": 217}, "uniqueid": "MTK3562:3HOSI13XH0VSE8N0XMBUQ9O7YLBDDW", "dateTime": 1520791139253}, {"current_trial": 218, "trialdata": {"rt": -1, "trial_type": "single-stim", "stimulus": "<p id=\"stim\">6</p>", "internal_node_id": "0.0-160.0-4.0", "time_elapsed": 1133671, "key_press": -1, "trial_index": 218}, "uniqueid": "MTK3562:3HOSI13XH0VSE8N0XMBUQ9O7YLBDDW", "dateTime": 1520791140258}, {"current_trial": 219, "trialdata": {"rt": -1, "trial_type": "single-stim", "stimulus": "<p id=\"stim\">5</p>", "internal_node_id": "0.0-160.0-5.0", "time_elapsed": 1134675, "key_press": -1, "trial_index": 219}, "uniqueid": "MTK3562:3HOSI13XH0VSE8N0XMBUQ9O7YLBDDW", "dateTime": 1520791141262}, {"current_trial": 220, "trialdata": {"rt": -1, "trial_type": "single-stim", "stimulus": "<p id=\"stim\">4</p>", "internal_node_id": "0.0-160.0-6.0", "time_elapsed": 1135679, "key_press": -1, "trial_index": 220}, "uniqueid": "MTK3562:3HOSI13XH0VSE8N0XMBUQ9O7YLBDDW", "dateTime": 1520791142267}, {"current_trial": 221, "trialdata": {"rt": -1, "trial_type": "single-stim", "stimulus": "<p id=\"stim\">3</p>", "internal_node_id": "0.0-160.0-7.0", "time_elapsed": 1136683, "key_press": -1, "trial_index": 221}, "uniqueid": "MTK3562:3HOSI13XH0VSE8N0XMBUQ9O7YLBDDW", "dateTime": 1520791143270}, {"current_trial": 222, "trialdata": {"rt": -1, "trial_type": "single-stim", "stimulus": "<p id=\"stim\">2</p>", "internal_node_id": "0.0-160.0-8.0", "time_elapsed": 1137688, "key_press": -1, "trial_index": 222}, "uniqueid": "MTK3562:3HOSI13XH0VSE8N0XMBUQ9O7YLBDDW", "dateTime": 1520791144275}, {"current_trial": 223, "trialdata": {"rt": -1, "trial_type": "single-stim", "stimulus": "<p id=\"stim\">1</p>", "internal_node_id": "0.0-160.0-9.0", "time_elapsed": 1138692, "key_press": -1, "trial_index": 223}, "uniqueid": "MTK3562:3HOSI13XH0VSE8N0XMBUQ9O7YLBDDW", "dateTime": 1520791145279}, {"current_trial": 224, "trialdata": {"rt": -1, "trial_type": "single-stim", "stimulus": "<p id=\"stim\">+</p>", "internal_node_id": "0.0-161.0-0.0", "time_elapsed": 1140196, "key_press": -1, "type": "FIXATION", "trial_index": 224}, "uniqueid": "MTK3562:3HOSI13XH0VSE8N0XMBUQ9O7YLBDDW", "dateTime": 1520791146783}, {"current_trial": 225, "trialdata": {"rt": -1000, "trial_type": "single-audio", "word": "rabbit", "stimulus": "/static/audio/wordpool/RABBIT.wav", "conditions": [12, 800, "a", 12000], "internal_node_id": "0.0-162.0", "trial": 6, "time_elapsed": 1141973, "serialpos": 0, "key_press": -1, "wordID": 1151, "type": "PRES_AUD", "trial_index": 225}, "uniqueid": "MTK3562:3HOSI13XH0VSE8N0XMBUQ9O7YLBDDW", "dateTime": 1520791148560}, {"current_trial": 226, "trialdata": {"rt": -1000, "trial_type": "single-audio", "word": "chapel", "stimulus": "/static/audio/wordpool/CHAPEL.wav", "conditions": [12, 800, "a", 12000], "internal_node_id": "0.0-163.0", "trial": 6, "time_elapsed": 1143895, "serialpos": 1, "key_press": -1, "wordID": 279, "type": "PRES_AUD", "trial_index": 226}, "uniqueid": "MTK3562:3HOSI13XH0VSE8N0XMBUQ9O7YLBDDW", "dateTime": 1520791150482}, {"current_trial": 227, "trialdata": {"rt": -1000, "trial_type": "single-audio", "word": "loft", "stimulus": "/static/audio/wordpool/LOFT.wav", "conditions": [12, 800, "a", 12000], "internal_node_id": "0.0-164.0", "trial": 6, "time_elapsed": 1145553, "serialpos": 2, "key_press": -1, "wordID": 839, "type": "PRES_AUD", "trial_index": 227}, "uniqueid": "MTK3562:3HOSI13XH0VSE8N0XMBUQ9O7YLBDDW", "dateTime": 1520791152140}, {"current_trial": 228, "trialdata": {"rt": -1000, "trial_type": "single-audio", "word": "tile", "stimulus": "/static/audio/wordpool/TILE.wav", "conditions": [12, 800, "a", 12000], "internal_node_id": "0.0-165.0", "trial": 6, "time_elapsed": 1147199, "serialpos": 3, "key_press": -1, "wordID": 1467, "type": "PRES_AUD", "trial_index": 228}, "uniqueid": "MTK3562:3HOSI13XH0VSE8N0XMBUQ9O7YLBDDW", "dateTime": 1520791153786}, {"current_trial": 229, "trialdata": {"rt": -1000, "trial_type": "single-audio", "word": "cupboard", "stimulus": "/static/audio/wordpool/CUPBOARD.wav", "conditions": [12, 800, "a", 12000], "internal_node_id": "0.0-166.0", "trial": 6, "time_elapsed": 1148873, "serialpos": 4, "key_press": -1, "wordID": 424, "type": "PRES_AUD", "trial_index": 229}, "uniqueid": "MTK3562:3HOSI13XH0VSE8N0XMBUQ9O7YLBDDW", "dateTime": 1520791155460}, {"current_trial": 230, "trialdata": {"rt": -1000, "trial_type": "single-audio", "word": "cyclone", "stimulus": "/static/audio/wordpool/CYCLONE.wav", "conditions": [12, 800, "a", 12000], "internal_node_id": "0.0-167.0", "trial": 6, "time_elapsed": 1150662, "serialpos": 5, "key_press": -1, "wordID": 430, "type": "PRES_AUD", "trial_index": 230}, "uniqueid": "MTK3562:3HOSI13XH0VSE8N0XMBUQ9O7YLBDDW", "dateTime": 1520791157250}, {"current_trial": 231, "trialdata": {"rt": -1000, "trial_type": "single-audio", "word": "beaver", "stimulus": "/static/audio/wordpool/BEAVER.wav", "conditions": [12, 800, "a", 12000], "internal_node_id": "0.0-168.0", "trial": 6, "time_elapsed": 1152285, "serialpos": 6, "key_press": -1, "wordID": 108, "type": "PRES_AUD", "trial_index": 231}, "uniqueid": "MTK3562:3HOSI13XH0VSE8N0XMBUQ9O7YLBDDW", "dateTime": 1520791158872}, {"current_trial": 232, "trialdata": {"rt": -1000, "trial_type": "single-audio", "word": "fireman", "stimulus": "/static/audio/wordpool/FIREMAN.wav", "conditions": [12, 800, "a", 12000], "internal_node_id": "0.0-169.0", "trial": 6, "time_elapsed": 1154106, "serialpos": 7, "key_press": -1, "wordID": 568, "type": "PRES_AUD", "trial_index": 232}, "uniqueid": "MTK3562:3HOSI13XH0VSE8N0XMBUQ9O7YLBDDW", "dateTime": 1520791160693}, {"current_trial": 233, "trialdata": {"rt": -1000, "trial_type": "single-audio", "word": "blouse", "stimulus": "/static/audio/wordpool/BLOUSE.wav", "conditions": [12, 800, "a", 12000], "internal_node_id": "0.0-170.0", "trial": 6, "time_elapsed": 1156040, "serialpos": 8, "key_press": -1, "wordID": 138, "type": "PRES_AUD", "trial_index": 233}, "uniqueid": "MTK3562:3HOSI13XH0VSE8N0XMBUQ9O7YLBDDW", "dateTime": 1520791162627}, {"current_trial": 234, "trialdata": {"rt": -1000, "trial_type": "single-audio", "word": "shirt", "stimulus": "/static/audio/wordpool/SHIRT.wav", "conditions": [12, 800, "a", 12000], "internal_node_id": "0.0-171.0", "trial": 6, "time_elapsed": 1157853, "serialpos": 9, "key_press": -1, "wordID": 1286, "type": "PRES_AUD", "trial_index": 234}, "uniqueid": "MTK3562:3HOSI13XH0VSE8N0XMBUQ9O7YLBDDW", "dateTime": 1520791164440}, {"current_trial": 235, "trialdata": {"rt": -1000, "trial_type": "single-audio", "word": "highway", "stimulus": "/static/audio/wordpool/HIGHWAY.wav", "conditions": [12, 800, "a", 12000], "internal_node_id": "0.0-172.0", "trial": 6, "time_elapsed": 1159686, "serialpos": 10, "key_press": -1, "wordID": 706, "type": "PRES_AUD", "trial_index": 235}, "uniqueid": "MTK3562:3HOSI13XH0VSE8N0XMBUQ9O7YLBDDW", "dateTime": 1520791166273}, {"current_trial": 236, "trialdata": {"rt": -1000, "trial_type": "single-audio", "word": "uncle", "stimulus": "/static/audio/wordpool/UNCLE.wav", "conditions": [12, 800, "a", 12000], "internal_node_id": "0.0-173.0", "trial": 6, "time_elapsed": 1161583, "serialpos": 11, "key_press": -1, "wordID": 1535, "type": "PRES_AUD", "trial_index": 236}, "uniqueid": "MTK3562:3HOSI13XH0VSE8N0XMBUQ9O7YLBDDW", "dateTime": 1520791168170}, {"current_trial": 237, "trialdata": {"rt": -1, "trial_type": "single-stim", "stimulus": "", "internal_node_id": "0.0-174.0-0.0", "time_elapsed": 1162985, "key_press": -1, "type": "PRE_RECALL_DELAY", "trial_index": 237}, "uniqueid": "MTK3562:3HOSI13XH0VSE8N0XMBUQ9O7YLBDDW", "dateTime": 1520791169572}, {"current_trial": 238, "trialdata": {"rt": -1000, "trial_type": "single-audio", "stimulus": "/static/audio/400Hz.wav", "internal_node_id": "0.0-175.0", "time_elapsed": 1163486, "key_press": -1, "type": "PRE_RECALL_ALERT", "trial_index": 238}, "uniqueid": "MTK3562:3HOSI13XH0VSE8N0XMBUQ9O7YLBDDW", "dateTime": 1520791170073}, {"current_trial": 239, "trialdata": {"rt": [2125, 4366, 6050, 8454, 9950, 11625], "recwords": ["rabbit", "chapel", "locked", "highway", "blouse", "shirt"], "key_times": [822, 943, 1126, 1318, 1746, 1881, 2125, 2597, 2705, 2901, 3029, 3408, 3715, 4366, 4700, 4887, 5090, 5183, 5655, 5857, 6050, 6421, 6531, 6791, 7654, 7953, 8025, 8197, 8454, 8935, 9022, 9171, 9240, 9536, 9652, 9950, 10299, 10412, 10487, 10571, 10784, 11625], "trial_type": "free-recall", "conditions": [12, 800, "a", 12000], "internal_node_id": "0.0-176.0-0.0", "key_presses": [82, 65, 66, 66, 73, 84, 13, 67, 72, 65, 80, 69, 76, 13, 76, 79, 67, 75, 69, 68, 13, 72, 73, 71, 72, 87, 65, 89, 13, 66, 76, 79, 85, 83, 69, 13, 83, 72, 73, 82, 84, 13], "trial": 6, "time_elapsed": 1223492, "type": "FREE_RECALL", "trial_index": 239}, "uniqueid": "MTK3562:3HOSI13XH0VSE8N0XMBUQ9O7YLBDDW", "dateTime": 1520791230082}, {"current_trial": 240, "trialdata": {"rt": 849, "trial_type": "text", "internal_node_id": "0.0-177.0", "time_elapsed": 1226349, "key_press": 32, "type": "INSTRUCTIONS", "trial_index": 240}, "uniqueid": "MTK3562:3HOSI13XH0VSE8N0XMBUQ9O7YLBDDW", "dateTime": 1520791232936}, {"current_trial": 241, "trialdata": {"rt": [2314, 5352, 8363, 10348, 12664, 21071, 23479], "trial_type": "math-distractor", "key_times": [1905, 2079, 2314, 4966, 5125, 5352, 8051, 8126, 8363, 9933, 10084, 10348, 12194, 12426, 12664, 20659, 20816, 21071, 22987, 23195, 23479], "responses": ["13", "12", "17", "12", "16", "23", "17"], "num2": [9, 3, 5, 2, 6, 7, 4, 3], "num3": [1, 4, 9, 6, 3, 9, 7, 8], "conditions": [12, 800, "a", 24000], "internal_node_id": "0.0-178.0", "key_presses": [49, 51, 13, 49, 50, 13, 49, 55, 13, 49, 50, 13, 49, 54, 13, 50, 51, 13, 49, 55, 13], "trial": 7, "time_elapsed": 1252359, "type": "DISTRACTOR", "trial_index": 241, "num1": [3, 5, 3, 4, 7, 7, 6, 2]}, "uniqueid": "MTK3562:3HOSI13XH0VSE8N0XMBUQ9O7YLBDDW", "dateTime": 1520791258946}, {"current_trial": 242, "trialdata": {"rt": -1, "trial_type": "single-stim", "stimulus": "<p id=\"stim\">10</p>", "internal_node_id": "0.0-179.0-0.0", "time_elapsed": 1255369, "key_press": -1, "trial_index": 242}, "uniqueid": "MTK3562:3HOSI13XH0VSE8N0XMBUQ9O7YLBDDW", "dateTime": 1520791261956}, {"current_trial": 243, "trialdata": {"rt": -1, "trial_type": "single-stim", "stimulus": "<p id=\"stim\">9</p>", "internal_node_id": "0.0-179.0-1.0", "time_elapsed": 1256372, "key_press": -1, "trial_index": 243}, "uniqueid": "MTK3562:3HOSI13XH0VSE8N0XMBUQ9O7YLBDDW", "dateTime": 1520791262959}, {"current_trial": 244, "trialdata": {"rt": -1, "trial_type": "single-stim", "stimulus": "<p id=\"stim\">8</p>", "internal_node_id": "0.0-179.0-2.0", "time_elapsed": 1257376, "key_press": -1, "trial_index": 244}, "uniqueid": "MTK3562:3HOSI13XH0VSE8N0XMBUQ9O7YLBDDW", "dateTime": 1520791263964}, {"current_trial": 245, "trialdata": {"rt": -1, "trial_type": "single-stim", "stimulus": "<p id=\"stim\">7</p>", "internal_node_id": "0.0-179.0-3.0", "time_elapsed": 1258380, "key_press": -1, "trial_index": 245}, "uniqueid": "MTK3562:3HOSI13XH0VSE8N0XMBUQ9O7YLBDDW", "dateTime": 1520791264968}, {"current_trial": 246, "trialdata": {"rt": -1, "trial_type": "single-stim", "stimulus": "<p id=\"stim\">6</p>", "internal_node_id": "0.0-179.0-4.0", "time_elapsed": 1259384, "key_press": -1, "trial_index": 246}, "uniqueid": "MTK3562:3HOSI13XH0VSE8N0XMBUQ9O7YLBDDW", "dateTime": 1520791265971}, {"current_trial": 247, "trialdata": {"rt": -1, "trial_type": "single-stim", "stimulus": "<p id=\"stim\">5</p>", "internal_node_id": "0.0-179.0-5.0", "time_elapsed": 1260389, "key_press": -1, "trial_index": 247}, "uniqueid": "MTK3562:3HOSI13XH0VSE8N0XMBUQ9O7YLBDDW", "dateTime": 1520791266976}, {"current_trial": 248, "trialdata": {"rt": -1, "trial_type": "single-stim", "stimulus": "<p id=\"stim\">4</p>", "internal_node_id": "0.0-179.0-6.0", "time_elapsed": 1261393, "key_press": -1, "trial_index": 248}, "uniqueid": "MTK3562:3HOSI13XH0VSE8N0XMBUQ9O7YLBDDW", "dateTime": 1520791267980}, {"current_trial": 249, "trialdata": {"rt": -1, "trial_type": "single-stim", "stimulus": "<p id=\"stim\">3</p>", "internal_node_id": "0.0-179.0-7.0", "time_elapsed": 1262397, "key_press": -1, "trial_index": 249}, "uniqueid": "MTK3562:3HOSI13XH0VSE8N0XMBUQ9O7YLBDDW", "dateTime": 1520791268984}, {"current_trial": 250, "trialdata": {"rt": -1, "trial_type": "single-stim", "stimulus": "<p id=\"stim\">2</p>", "internal_node_id": "0.0-179.0-8.0", "time_elapsed": 1263400, "key_press": -1, "trial_index": 250}, "uniqueid": "MTK3562:3HOSI13XH0VSE8N0XMBUQ9O7YLBDDW", "dateTime": 1520791269987}, {"current_trial": 251, "trialdata": {"rt": -1, "trial_type": "single-stim", "stimulus": "<p id=\"stim\">1</p>", "internal_node_id": "0.0-179.0-9.0", "time_elapsed": 1264405, "key_press": -1, "trial_index": 251}, "uniqueid": "MTK3562:3HOSI13XH0VSE8N0XMBUQ9O7YLBDDW", "dateTime": 1520791270992}, {"current_trial": 252, "trialdata": {"rt": -1, "trial_type": "single-stim", "stimulus": "<p id=\"stim\">+</p>", "internal_node_id": "0.0-180.0-0.0", "time_elapsed": 1265910, "key_press": -1, "type": "FIXATION", "trial_index": 252}, "uniqueid": "MTK3562:3HOSI13XH0VSE8N0XMBUQ9O7YLBDDW", "dateTime": 1520791272497}, {"current_trial": 253, "trialdata": {"rt": -1000, "trial_type": "single-audio", "word": "world", "stimulus": "/static/audio/wordpool/WORLD.wav", "conditions": [12, 800, "a", 24000], "internal_node_id": "0.0-181.0", "trial": 7, "time_elapsed": 1267689, "serialpos": 0, "key_press": -1, "wordI