{"assignmentId": "30MVJZJNHNKTE4ABV2S37B0UBP29J7", "workerId": "MTK3016", "questiondata": {"origin": "United States", "strat-rehearsal": "74", "marital": "Married/Domestic Partnership", "education": "Some college", "ethnicity": "Not Hispanic", "color_depth": 24, "distracted": "No", "wrote-notes": "No", "strat-other": "", "screen_width": 1280, "avail_screen_width": 1280, "avail_screen_height": 800, "strat-image": "73", "language": "english", "gender": "Female", "age": "43", "gender_other": "", "race": ["White"], "strat-categorize": "92", "pixel_depth": 24, "strat-spatial": "55", "strat-story": "26", "race_other": "", "screen_height": 800}, "bonus": 0, "hitId": "37M4O367VJPYR5GQ57NCM3RP9YCM5M", "counterbalance": 1115, "useragent": "Mozilla/5.0 (Linux; Android 6.0; RCT6K03W13 Build/MRA58K) AppleWebKit/537.36 (KHTML, like Gecko) Chrome/64.0.3282.137 Safari/537.36", "eventdata": [{"eventtype": "initialized", "interval": 0, "value": null, "timestamp": 1520020415037}, {"eventtype": "window_resize", "interval": 1, "value": [1280, 632], "timestamp": 1520020415038}, {"eventtype": "focus", "interval": 15720, "value": "off", "timestamp": 1520020430758}, {"eventtype": "focus", "interval": 7464, "value": "on", "timestamp": 1520020438222}, {"eventtype": "window_resize", "interval": 104892, "value": [1280, 728], "timestamp": 1520020543114}, {"eventtype": "window_resize", "interval": 54235, "value": [1280, 632], "timestamp": 1520020597349}, {"eventtype": "focus", "interval": 2624, "value": "off", "timestamp": 1520020599973}, {"eventtype": "focus", "interval": 1093, "value": "on", "timestamp": 1520020601066}, {"eventtype": "focus", "interval": 3, "value": "on", "timestamp": 1520020601069}, {"eventtype": "focus", "interval": 2322074, "value": "off", "timestamp": 1520022923143}, {"eventtype": "focus", "interval": 3816, "value": "on", "timestamp": 1520022926959}, {"eventtype": "focus", "interval": 110543, "value": "off", "timestamp": 1520023037502}, {"eventtype": "focus", "interval": 4703, "value": "on", "timestamp": 1520023042205}, {"eventtype": "focus", "interval": 980942, "value": "off", "timestamp": 1520024023147}, {"eventtype": "focus", "interval": 2380, "value": "on", "timestamp": 1520024025527}], "data": [{"current_trial": 0, "trialdata": {"rt": 1303, "trial_type": "text", "internal_node_id": "0.0-0.0", "time_elapsed": 1321, "key_press": 32, "type": "INSTRUCTIONS", "trial_index": 0}, "uniqueid": "MTK3016:30MVJZJNHNKTE4ABV2S37B0UBP29J7", "dateTime": 1520020416927}, {"current_trial": 1, "trialdata": {"rt": 934, "trial_type": "text", "internal_node_id": "0.0-1.0", "time_elapsed": 2268, "key_press": 32, "type": "INSTRUCTIONS", "trial_index": 1}, "uniqueid": "MTK3016:30MVJZJNHNKTE4ABV2S37B0UBP29J7", "dateTime": 1520020417870}, {"current_trial": 2, "trialdata": {"rt": [25637], "trial_type": "audio-test", "responses": ["ocean"], "internal_node_id": "0.0-2.0", "time_elapsed": 27941, "type": "AUDIO_TEST", "trial_index": 2}, "uniqueid": "MTK3016:30MVJZJNHNKTE4ABV2S37B0UBP29J7", "dateTime": 1520020443544}, {"current_trial": 3, "trialdata": {"rt": [9100, 16710], "trial_type": "audio-test", "responses": ["crysta", "crystal"], "internal_node_id": "0.0-3.0", "time_elapsed": 44678, "type": "AUDIO_TEST", "trial_index": 3}, "uniqueid": "MTK3016:30MVJZJNHNKTE4ABV2S37B0UBP29J7", "dateTime": 1520020460280}, {"current_trial": 4, "trialdata": {"rt": [9836], "trial_type": "audio-test", "responses": ["spice"], "internal_node_id": "0.0-4.0", "time_elapsed": 54566, "type": "AUDIO_TEST", "trial_index": 4}, "uniqueid": "MTK3016:30MVJZJNHNKTE4ABV2S37B0UBP29J7", "dateTime": 1520020470167}, {"current_trial": 5, "trialdata": {"rt": 24590, "trial_type": "survey-text", "responses": "{\"Q0\":\"midnight\",\"Q1\":\"ten a.m.\",\"Q2\":\"5\"}", "internal_node_id": "0.0-5.0", "time_elapsed": 79921, "type": "SLEEP_SURVEY", "trial_index": 5}, "uniqueid": "MTK3016:30MVJZJNHNKTE4ABV2S37B0UBP29J7", "dateTime": 1520020495522}, {"current_trial": 6, "trialdata": {"rt": 58416, "trial_type": "text", "internal_node_id": "0.0-6.0", "time_elapsed": 139350, "key_press": 32, "type": "INSTRUCTIONS", "trial_index": 6}, "uniqueid": "MTK3016:30MVJZJNHNKTE4ABV2S37B0UBP29J7", "dateTime": 1520020554951}, {"current_trial": 7, "trialdata": {"rt": 25941, "trial_type": "text", "internal_node_id": "0.0-7.0", "time_elapsed": 165796, "key_press": 32, "type": "INSTRUCTIONS", "trial_index": 7}, "uniqueid": "MTK3016:30MVJZJNHNKTE4ABV2S37B0UBP29J7", "dateTime": 1520020581397}, {"current_trial": 8, "trialdata": {"rt": 14193, "trial_type": "text", "internal_node_id": "0.0-8.0", "time_elapsed": 180495, "key_press": 32, "type": "INSTRUCTIONS", "trial_index": 8}, "uniqueid": "MTK3016:30MVJZJNHNKTE4ABV2S37B0UBP29J7", "dateTime": 1520020596097}, {"current_trial": 9, "trialdata": {"rt": [7509, 10197, 14046], "trial_type": "math-distractor", "key_times": [2859, 5481, 6118, 7509, 9294, 9552, 10197, 12806, 13236, 14046], "responses": ["17", "10", "16"], "num2": [8, 1, 4, 2], "num3": [7, 1, 5, 3], "conditions": [18, 1200, "v", 18000], "internal_node_id": "0.0-9.0", "key_presses": [9, 49, 55, 13, 49, 48, 13, 49, 54, 13], "trial": 0, "time_elapsed": 199511, "type": "DISTRACTOR", "trial_index": 9, "num1": [2, 8, 7, 3]}, "uniqueid": "MTK3016:30MVJZJNHNKTE4ABV2S37B0UBP29J7", "dateTime": 1520020615113}, {"current_trial": 10, "trialdata": {"rt": -1, "trial_type": "single-stim", "stimulus": "<p id=\"stim\">10</p>", "internal_node_id": "0.0-10.0-0.0", "time_elapsed": 202527, "key_press": -1, "trial_index": 10}, "uniqueid": "MTK3016:30MVJZJNHNKTE4ABV2S37B0UBP29J7", "dateTime": 1520020618129}, {"current_trial": 11, "trialdata": {"rt": -1, "trial_type": "single-stim", "stimulus": "<p id=\"stim\">9</p>", "internal_node_id": "0.0-10.0-1.0", "time_elapsed": 203532, "key_press": -1, "trial_index": 11}, "uniqueid": "MTK3016:30MVJZJNHNKTE4ABV2S37B0UBP29J7", "dateTime": 1520020619133}, {"current_trial": 12, "trialdata": {"rt": -1, "trial_type": "single-stim", "stimulus": "<p id=\"stim\">8</p>", "internal_node_id": "0.0-10.0-2.0", "time_elapsed": 204540, "key_press": -1, "trial_index": 12}, "uniqueid": "MTK3016:30MVJZJNHNKTE4ABV2S37B0UBP29J7", "dateTime": 1520020620142}, {"current_trial": 13, "trialdata": {"rt": -1, "trial_type": "single-stim", "stimulus": "<p id=\"stim\">7</p>", "internal_node_id": "0.0-10.0-3.0", "time_elapsed": 205546, "key_press": -1, "trial_index": 13}, "uniqueid": "MTK3016:30MVJZJNHNKTE4ABV2S37B0UBP29J7", "dateTime": 1520020621148}, {"current_trial": 14, "trialdata": {"rt": -1, "trial_type": "single-stim", "stimulus": "<p id=\"stim\">6</p>", "internal_node_id": "0.0-10.0-4.0", "time_elapsed": 206555, "key_press": -1, "trial_index": 14}, "uniqueid": "MTK3016:30MVJZJNHNKTE4ABV2S37B0UBP29J7", "dateTime": 1520020622156}, {"current_trial": 15, "trialdata": {"rt": -1, "trial_type": "single-stim", "stimulus": "<p id=\"stim\">5</p>", "internal_node_id": "0.0-10.0-5.0", "time_elapsed": 207560, "key_press": -1, "trial_index": 15}, "uniqueid": "MTK3016:30MVJZJNHNKTE4ABV2S37B0UBP29J7", "dateTime": 1520020623162}, {"current_trial": 16, "trialdata": {"rt": -1, "trial_type": "single-stim", "stimulus": "<p id=\"stim\">4</p>", "internal_node_id": "0.0-10.0-6.0", "time_elapsed": 208565, "key_press": -1, "trial_index": 16}, "uniqueid": "MTK3016:30MVJZJNHNKTE4ABV2S37B0UBP29J7", "dateTime": 1520020624170}, {"current_trial": 17, "trialdata": {"rt": -1, "trial_type": "single-stim", "stimulus": "<p id=\"stim\">3</p>", "internal_node_id": "0.0-10.0-7.0", "time_elapsed": 209572, "key_press": -1, "trial_index": 17}, "uniqueid": "MTK3016:30MVJZJNHNKTE4ABV2S37B0UBP29J7", "dateTime": 1520020625173}, {"current_trial": 18, "trialdata": {"rt": -1, "trial_type": "single-stim", "stimulus": "<p id=\"stim\">2</p>", "internal_node_id": "0.0-10.0-8.0", "time_elapsed": 210576, "key_press": -1, "trial_index": 18}, "uniqueid": "MTK3016:30MVJZJNHNKTE4ABV2S37B0UBP29J7", "dateTime": 1520020626177}, {"current_trial": 19, "trialdata": {"rt": -1, "trial_type": "single-stim", "stimulus": "<p id=\"stim\">1</p>", "internal_node_id": "0.0-10.0-9.0", "time_elapsed": 211592, "key_press": -1, "trial_index": 19}, "uniqueid": "MTK3016:30MVJZJNHNKTE4ABV2S37B0UBP29J7", "dateTime": 1520020627194}, {"current_trial": 20, "trialdata": {"rt": -1, "trial_type": "single-stim", "stimulus": "<p id=\"stim\">+</p>", "internal_node_id": "0.0-11.0-0.0", "time_elapsed": 213098, "key_press": -1, "type": "FIXATION", "trial_index": 20}, "uniqueid": "MTK3016:30MVJZJNHNKTE4ABV2S37B0UBP29J7", "dateTime": 1520020628700}, {"current_trial": 21, "trialdata": {"rt": -1, "trial_type": "single-stim", "word": "slug", "stimulus": "<p id=\"stim\">SLUG</p>", "conditions": [18, 1200, "v", 18000], "internal_node_id": "0.0-12.0", "trial": 0, "time_elapsed": 214302, "serialpos": 0, "key_press": -1, "wordID": 1328, "type": "PRES_VIS", "trial_index": 21}, "uniqueid": "MTK3016:30MVJZJNHNKTE4ABV2S37B0UBP29J7", "dateTime": 1520020629904}, {"current_trial": 22, "trialdata": {"rt": -1, "trial_type": "single-stim", "word": "buggy", "stimulus": "<p id=\"stim\">BUGGY</p>", "conditions": [18, 1200, "v", 18000], "internal_node_id": "0.0-13.0", "trial": 0, "time_elapsed": 216591, "serialpos": 1, "key_press": -1, "wordID": 187, "type": "PRES_VIS", "trial_index": 22}, "uniqueid": "MTK3016:30MVJZJNHNKTE4ABV2S37B0UBP29J7", "dateTime": 1520020632193}, {"current_trial": 23, "trialdata": {"rt": -1, "trial_type": "single-stim", "word": "suitcase", "stimulus": "<p id=\"stim\">SUITCASE</p>", "conditions": [18, 1200, "v", 18000], "internal_node_id": "0.0-14.0", "trial": 0, "time_elapsed": 218952, "serialpos": 2, "key_press": -1, "wordID": 1402, "type": "PRES_VIS", "trial_index": 23}, "uniqueid": "MTK3016:30MVJZJNHNKTE4ABV2S37B0UBP29J7", "dateTime": 1520020634554}, {"current_trial": 24, "trialdata": {"rt": -1, "trial_type": "single-stim", "word": "crevice", "stimulus": "<p id=\"stim\">CREVICE</p>", "conditions": [18, 1200, "v", 18000], "internal_node_id": "0.0-15.0", "trial": 0, "time_elapsed": 221323, "serialpos": 3, "key_press": -1, "wordID": 404, "type": "PRES_VIS", "trial_index": 24}, "uniqueid": "MTK3016:30MVJZJNHNKTE4ABV2S37B0UBP29J7", "dateTime": 1520020636925}, {"current_trial": 25, "trialdata": {"rt": -1, "trial_type": "single-stim", "word": "saddle", "stimulus": "<p id=\"stim\">SADDLE</p>", "conditions": [18, 1200, "v", 18000], "internal_node_id": "0.0-16.0", "trial": 0, "time_elapsed": 223441, "serialpos": 4, "key_press": -1, "wordID": 1220, "type": "PRES_VIS", "trial_index": 25}, "uniqueid": "MTK3016:30MVJZJNHNKTE4ABV2S37B0UBP29J7", "dateTime": 1520020639042}, {"current_trial": 26, "trialdata": {"rt": -1, "trial_type": "single-stim", "word": "popcorn", "stimulus": "<p id=\"stim\">POPCORN</p>", "conditions": [18, 1200, "v", 18000], "internal_node_id": "0.0-17.0", "trial": 0, "time_elapsed": 225844, "serialpos": 5, "key_press": -1, "wordID": 1103, "type": "PRES_VIS", "trial_index": 26}, "uniqueid": "MTK3016:30MVJZJNHNKTE4ABV2S37B0UBP29J7", "dateTime": 1520020641445}, {"current_trial": 27, "trialdata": {"rt": -1, "trial_type": "single-stim", "word": "hawk", "stimulus": "<p id=\"stim\">HAWK</p>", "conditions": [18, 1200, "v", 18000], "internal_node_id": "0.0-18.0", "trial": 0, "time_elapsed": 227863, "serialpos": 6, "key_press": -1, "wordID": 691, "type": "PRES_VIS", "trial_index": 27}, "uniqueid": "MTK3016:30MVJZJNHNKTE4ABV2S37B0UBP29J7", "dateTime": 1520020643464}, {"current_trial": 28, "trialdata": {"rt": -1, "trial_type": "single-stim", "word": "garlic", "stimulus": "<p id=\"stim\">GARLIC</p>", "conditions": [18, 1200, "v", 18000], "internal_node_id": "0.0-19.0", "trial": 0, "time_elapsed": 230154, "serialpos": 7, "key_press": -1, "wordID": 623, "type": "PRES_VIS", "trial_index": 28}, "uniqueid": "MTK3016:30MVJZJNHNKTE4ABV2S37B0UBP29J7", "dateTime": 1520020645757}, {"current_trial": 29, "trialdata": {"rt": -1, "trial_type": "single-stim", "word": "omelet", "stimulus": "<p id=\"stim\">OMELET</p>", "conditions": [18, 1200, "v", 18000], "internal_node_id": "0.0-20.0", "trial": 0, "time_elapsed": 232543, "serialpos": 8, "key_press": -1, "wordID": 975, "type": "PRES_VIS", "trial_index": 29}, "uniqueid": "MTK3016:30MVJZJNHNKTE4ABV2S37B0UBP29J7", "dateTime": 1520020648144}, {"current_trial": 30, "trialdata": {"rt": -1, "trial_type": "single-stim", "word": "novel", "stimulus": "<p id=\"stim\">NOVEL</p>", "conditions": [18, 1200, "v", 18000], "internal_node_id": "0.0-21.0", "trial": 0, "time_elapsed": 234920, "serialpos": 9, "key_press": -1, "wordID": 959, "type": "PRES_VIS", "trial_index": 30}, "uniqueid": "MTK3016:30MVJZJNHNKTE4ABV2S37B0UBP29J7", "dateTime": 1520020650521}, {"current_trial": 31, "trialdata": {"rt": -1, "trial_type": "single-stim", "word": "chemist", "stimulus": "<p id=\"stim\">CHEMIST</p>", "conditions": [18, 1200, "v", 18000], "internal_node_id": "0.0-22.0", "trial": 0, "time_elapsed": 237221, "serialpos": 10, "key_press": -1, "wordID": 291, "type": "PRES_VIS", "trial_index": 31}, "uniqueid": "MTK3016:30MVJZJNHNKTE4ABV2S37B0UBP29J7", "dateTime": 1520020652824}, {"current_trial": 32, "trialdata": {"rt": -1, "trial_type": "single-stim", "word": "badge", "stimulus": "<p id=\"stim\">BADGE</p>", "conditions": [18, 1200, "v", 18000], "internal_node_id": "0.0-23.0", "trial": 0, "time_elapsed": 239414, "serialpos": 11, "key_press": -1, "wordID": 67, "type": "PRES_VIS", "trial_index": 32}, "uniqueid": "MTK3016:30MVJZJNHNKTE4ABV2S37B0UBP29J7", "dateTime": 1520020655016}, {"current_trial": 33, "trialdata": {"rt": -1, "trial_type": "single-stim", "word": "bison", "stimulus": "<p id=\"stim\">BISON</p>", "conditions": [18, 1200, "v", 18000], "internal_node_id": "0.0-24.0", "trial": 0, "time_elapsed": 241800, "serialpos": 12, "key_press": -1, "wordID": 130, "type": "PRES_VIS", "trial_index": 33}, "uniqueid": "MTK3016:30MVJZJNHNKTE4ABV2S37B0UBP29J7", "dateTime": 1520020657401}, {"current_trial": 34, "trialdata": {"rt": -1, "trial_type": "single-stim", "word": "donkey", "stimulus": "<p id=\"stim\">DONKEY</p>", "conditions": [18, 1200, "v", 18000], "internal_node_id": "0.0-25.0", "trial": 0, "time_elapsed": 244082, "serialpos": 13, "key_press": -1, "wordID": 483, "type": "PRES_VIS", "trial_index": 34}, "uniqueid": "MTK3016:30MVJZJNHNKTE4ABV2S37B0UBP29J7", "dateTime": 1520020659683}, {"current_trial": 35, "trialdata": {"rt": -1, "trial_type": "single-stim", "word": "sketch", "stimulus": "<p id=\"stim\">SKETCH</p>", "conditions": [18, 1200, "v", 18000], "internal_node_id": "0.0-26.0", "trial": 0, "time_elapsed": 246454, "serialpos": 14, "key_press": -1, "wordID": 1314, "type": "PRES_VIS", "trial_index": 35}, "uniqueid": "MTK3016:30MVJZJNHNKTE4ABV2S37B0UBP29J7", "dateTime": 1520020662055}, {"current_trial": 36, "trialdata": {"rt": -1, "trial_type": "single-stim", "word": "plaid", "stimulus": "<p id=\"stim\">PLAID</p>", "conditions": [18, 1200, "v", 18000], "internal_node_id": "0.0-27.0", "trial": 0, "time_elapsed": 248666, "serialpos": 15, "key_press": -1, "wordID": 1079, "type": "PRES_VIS", "trial_index": 36}, "uniqueid": "MTK3016:30MVJZJNHNKTE4ABV2S37B0UBP29J7", "dateTime": 1520020664268}, {"current_trial": 37, "trialdata": {"rt": -1, "trial_type": "single-stim", "word": "pocket", "stimulus": "<p id=\"stim\">POCKET</p>", "conditions": [18, 1200, "v", 18000], "internal_node_id": "0.0-28.0", "trial": 0, "time_elapsed": 250888, "serialpos": 16, "key_press": -1, "wordID": 1092, "type": "PRES_VIS", "trial_index": 37}, "uniqueid": "MTK3016:30MVJZJNHNKTE4ABV2S37B0UBP29J7", "dateTime": 1520020666490}, {"current_trial": 38, "trialdata": {"rt": -1, "trial_type": "single-stim", "word": "flask", "stimulus": "<p id=\"stim\">FLASK</p>", "conditions": [18, 1200, "v", 18000], "internal_node_id": "0.0-29.0", "trial": 0, "time_elapsed": 253036, "serialpos": 17, "key_press": -1, "wordID": 575, "type": "PRES_VIS", "trial_index": 38}, "uniqueid": "MTK3016:30MVJZJNHNKTE4ABV2S37B0UBP29J7", "dateTime": 1520020668638}, {"current_trial": 39, "trialdata": {"rt": -1, "trial_type": "single-stim", "stimulus": "", "internal_node_id": "0.0-30.0-0.0", "time_elapsed": 255086, "key_press": -1, "type": "PRE_RECALL_DELAY", "trial_index": 39}, "uniqueid": "MTK3016:30MVJZJNHNKTE4ABV2S37B0UBP29J7", "dateTime": 1520020670688}, {"current_trial": 40, "trialdata": {"rt": -1000, "trial_type": "single-audio", "stimulus": "/static/audio/400Hz.wav", "internal_node_id": "0.0-31.0", "time_elapsed": 255599, "key_press": -1, "type": "PRE_RECALL_ALERT", "trial_index": 40}, "uniqueid": "MTK3016:30MVJZJNHNKTE4ABV2S37B0UBP29J7", "dateTime": 1520020671202}, {"current_trial": 41, "trialdata": {"rt": [2848, 5678, 7657, 8856, 11537, 13456, 16503, 33049, 45521, 58022], "recwords": ["flask", "pocket", "popcord", "slug", "buggu", "crevis", "omelet", "spicy", "deivce", "suitcase"], "key_times": [1433, 1864, 1960, 2175, 2383, 2848, 3600, 3855, 4275, 4815, 4928, 5134, 5289, 5438, 5678, 6033, 6247, 6439, 6941, 7063, 7230, 7450, 7657, 7944, 8095, 8321, 8592, 8856, 9674, 10220, 10649, 10809, 11175, 11537, 12303, 12567, 12646, 12882, 13030, 13190, 13456, 14998, 15562, 15689, 15894, 16000, 16247, 16503, 31141, 31254, 31518, 31712, 32553, 33049, 43969, 44144, 44303, 44432, 44871, 45184, 45521, 54195, 54777, 54910, 55070, 57057, 57302, 57550, 57705, 58022], "trial_type": "free-recall", "conditions": [18, 1200, "v", 18000], "internal_node_id": "0.0-32.0-0.0", "key_presses": [70, 76, 65, 83, 75, 13, 80, 79, 75, 8, 67, 75, 69, 84, 13, 80, 79, 80, 67, 79, 82, 68, 13, 83, 76, 85, 71, 13, 66, 85, 71, 71, 85, 13, 67, 82, 69, 86, 73, 83, 13, 79, 77, 69, 76, 69, 84, 13, 83, 80, 73, 67, 89, 13, 68, 69, 73, 86, 67, 69, 13, 83, 85, 73, 84, 67, 65, 83, 69, 13], "trial": 0, "time_elapsed": 315614, "type": "FREE_RECALL", "trial_index": 41}, "uniqueid": "MTK3016:30MVJZJNHNKTE4ABV2S37B0UBP29J7", "dateTime": 1520020731228}, {"current_trial": 42, "trialdata": {"rt": 1907, "trial_type": "text", "internal_node_id": "0.0-33.0", "time_elapsed": 319539, "key_press": 32, "type": "INSTRUCTIONS", "trial_index": 42}, "uniqueid": "MTK3016:30MVJZJNHNKTE4ABV2S37B0UBP29J7", "dateTime": 1520020735140}, {"current_trial": 43, "trialdata": {"rt": [3327, 6671, 8886, 11286, 13039, 15130], "trial_type": "math-distractor", "key_times": [2591, 2679, 3327, 6200, 6358, 6671, 8627, 8886, 10435, 11012, 11286, 12633, 12792, 13039, 14551, 14886, 15130], "responses": ["12", "11", "9", "17", "11", "13"], "num2": [1, 2, 3, 1, 9, 8, 8], "num3": [7, 4, 3, 9, 1, 3, 6], "conditions": [18, 1200, "v", 18000], "internal_node_id": "0.0-34.0", "key_presses": [49, 50, 13, 49, 49, 13, 57, 13, 49, 55, 13, 49, 49, 13, 49, 51, 13], "trial": 1, "time_elapsed": 339580, "type": "DISTRACTOR", "trial_index": 43, "num1": [4, 5, 3, 7, 1, 2, 7]}, "uniqueid": "MTK3016:30MVJZJNHNKTE4ABV2S37B0UBP29J7", "dateTime": 1520020755182}, {"current_trial": 44, "trialdata": {"rt": -1, "trial_type": "single-stim", "stimulus": "<p id=\"stim\">10</p>", "internal_node_id": "0.0-35.0-0.0", "time_elapsed": 342586, "key_press": -1, "trial_index": 44}, "uniqueid": "MTK3016:30MVJZJNHNKTE4ABV2S37B0UBP29J7", "dateTime": 1520020758187}, {"current_trial": 45, "trialdata": {"rt": -1, "trial_type": "single-stim", "stimulus": "<p id=\"stim\">9</p>", "internal_node_id": "0.0-35.0-1.0", "time_elapsed": 343591, "key_press": -1, "trial_index": 45}, "uniqueid": "MTK3016:30MVJZJNHNKTE4ABV2S37B0UBP29J7", "dateTime": 1520020759193}, {"current_trial": 46, "trialdata": {"rt": -1, "trial_type": "single-stim", "stimulus": "<p id=\"stim\">8</p>", "internal_node_id": "0.0-35.0-2.0", "time_elapsed": 344599, "key_press": -1, "trial_index": 46}, "uniqueid": "MTK3016:30MVJZJNHNKTE4ABV2S37B0UBP29J7", "dateTime": 1520020760201}, {"current_trial": 47, "trialdata": {"rt": -1, "trial_type": "single-stim", "stimulus": "<p id=\"stim\">7</p>", "internal_node_id": "0.0-35.0-3.0", "time_elapsed": 345623, "key_press": -1, "trial_index": 47}, "uniqueid": "MTK3016:30MVJZJNHNKTE4ABV2S37B0UBP29J7", "dateTime": 1520020761225}, {"current_trial": 48, "trialdata": {"rt": -1, "trial_type": "single-stim", "stimulus": "<p id=\"stim\">6</p>", "internal_node_id": "0.0-35.0-4.0", "time_elapsed": 346630, "key_press": -1, "trial_index": 48}, "uniqueid": "MTK3016:30MVJZJNHNKTE4ABV2S37B0UBP29J7", "dateTime": 1520020762232}, {"current_trial": 49, "trialdata": {"rt": -1, "trial_type": "single-stim", "stimulus": "<p id=\"stim\">5</p>", "internal_node_id": "0.0-35.0-5.0", "time_elapsed": 347635, "key_press": -1, "trial_index": 49}, "uniqueid": "MTK3016:30MVJZJNHNKTE4ABV2S37B0UBP29J7", "dateTime": 1520020763237}, {"current_trial": 50, "trialdata": {"rt": -1, "trial_type": "single-stim", "stimulus": "<p id=\"stim\">4</p>", "internal_node_id": "0.0-35.0-6.0", "time_elapsed": 348640, "key_press": -1, "trial_index": 50}, "uniqueid": "MTK3016:30MVJZJNHNKTE4ABV2S37B0UBP29J7", "dateTime": 1520020764242}, {"current_trial": 51, "trialdata": {"rt": -1, "trial_type": "single-stim", "stimulus": "<p id=\"stim\">3</p>", "internal_node_id": "0.0-35.0-7.0", "time_elapsed": 349644, "key_press": -1, "trial_index": 51}, "uniqueid": "MTK3016:30MVJZJNHNKTE4ABV2S37B0UBP29J7", "dateTime": 1520020765246}, {"current_trial": 52, "trialdata": {"rt": -1, "trial_type": "single-stim", "stimulus": "<p id=\"stim\">2</p>", "internal_node_id": "0.0-35.0-8.0", "time_elapsed": 350650, "key_press": -1, "trial_index": 52}, "uniqueid": "MTK3016:30MVJZJNHNKTE4ABV2S37B0UBP29J7", "dateTime": 1520020766253}, {"current_trial": 53, "trialdata": {"rt": -1, "trial_type": "single-stim", "stimulus": "<p id=\"stim\">1</p>", "internal_node_id": "0.0-35.0-9.0", "time_elapsed": 351657, "key_press": -1, "trial_index": 53}, "uniqueid": "MTK3016:30MVJZJNHNKTE4ABV2S37B0UBP29J7", "dateTime": 1520020767259}, {"current_trial": 54, "trialdata": {"rt": -1, "trial_type": "single-stim", "stimulus": "<p id=\"stim\">+</p>", "internal_node_id": "0.0-36.0-0.0", "time_elapsed": 353162, "key_press": -1, "type": "FIXATION", "trial_index": 54}, "uniqueid": "MTK3016:30MVJZJNHNKTE4ABV2S37B0UBP29J7", "dateTime": 1520020768763}, {"current_trial": 55, "trialdata": {"rt": -1, "trial_type": "single-stim", "word": "typist", "stimulus": "<p id=\"stim\">TYPIST</p>", "conditions": [18, 1200, "v", 18000], "internal_node_id": "0.0-37.0", "trial": 1, "time_elapsed": 354366, "serialpos": 0, "key_press": -1, "wordID": 1531, "type": "PRES_VIS", "trial_index": 55}, "uniqueid": "MTK3016:30MVJZJNHNKTE4ABV2S37B0UBP29J7", "dateTime": 1520020769967}, {"current_trial": 56, "trialdata": {"rt": -1, "trial_type": "single-stim", "word": "peach", "stimulus": "<p id=\"stim\">PEACH</p>", "conditions": [18, 1200, "v", 18000], "internal_node_id": "0.0-38.0", "trial": 1, "time_elapsed": 356639, "serialpos": 1, "key_press": -1, "wordID": 1030, "type": "PRES_VIS", "trial_index": 56}, "uniqueid": "MTK3016:30MVJZJNHNKTE4ABV2S37B0UBP29J7", "dateTime": 1520020772240}, {"current_trial": 57, "trialdata": {"rt": -1, "trial_type": "single-stim", "word": "pilot", "stimulus": "<p id=\"stim\">PILOT</p>", "conditions": [18, 1200, "v", 18000], "internal_node_id": "0.0-39.0", "trial": 1, "time_elapsed": 358875, "serialpos": 2, "key_press": -1, "wordID": 1069, "type": "PRES_VIS", "trial_index": 57}, "uniqueid": "MTK3016:30MVJZJNHNKTE4ABV2S37B0UBP29J7", "dateTime": 1520020774477}, {"current_trial": 58, "trialdata": {"rt": -1, "trial_type": "single-stim", "word": "lodge", "stimulus": "<p id=\"stim\">LODGE</p>", "conditions": [18, 1200, "v", 18000], "internal_node_id": "0.0-40.0", "trial": 1, "time_elapsed": 361106, "serialpos": 3, "key_press": -1, "wordID": 838, "type": "PRES_VIS", "trial_index": 58}, "uniqueid": "MTK3016:30MVJZJNHNKTE4ABV2S37B0UBP29J7", "dateTime": 1520020776708}, {"current_trial": 59, "trialdata": {"rt": -1, "trial_type": "single-stim", "word": "pecan", "stimulus": "<p id=\"stim\">PECAN</p>", "conditions": [18, 1200, "v", 18000], "internal_node_id": "0.0-41.0", "trial": 1, "time_elapsed": 363427, "serialpos": 4, "key_press": -1, "wordID": 1035, "type": "PRES_VIS", "trial_index": 59}, "uniqueid": "MTK3016:30MVJZJNHNKTE4ABV2S37B0UBP29J7", "dateTime": 1520020779028}, {"current_trial": 60, "trialdata": {"rt": -1, "trial_type": "single-stim", "word": "lace", "stimulus": "<p id=\"stim\">LACE</p>", "conditions": [18, 1200, "v", 18000], "internal_node_id": "0.0-42.0", "trial": 1, "time_elapsed": 365788, "serialpos": 5, "key_press": -1, "wordID": 791, "type": "PRES_VIS", "trial_index": 60}, "uniqueid": "MTK3016:30MVJZJNHNKTE4ABV2S37B0UBP29J7", "dateTime": 1520020781390}, {"current_trial": 61, "trialdata": {"rt": -1, "trial_type": "single-stim", "word": "child", "stimulus": "<p id=\"stim\">CHILD</p>", "conditions": [18, 1200, "v", 18000], "internal_node_id": "0.0-43.0", "trial": 1, "time_elapsed": 367820, "serialpos": 6, "key_press": -1, "wordID": 298, "type": "PRES_VIS", "trial_index": 61}, "uniqueid": "MTK3016:30MVJZJNHNKTE4ABV2S37B0UBP29J7", "dateTime": 1520020783421}, {"current_trial": 62, "trialdata": {"rt": -1, "trial_type": "single-stim", "word": "brandy", "stimulus": "<p id=\"stim\">BRANDY</p>", "conditions": [18, 1200, "v", 18000], "internal_node_id": "0.0-44.0", "trial": 1, "time_elapsed": 370015, "serialpos": 7, "key_press": -1, "wordID": 168, "type": "PRES_VIS", "trial_index": 62}, "uniqueid": "MTK3016:30MVJZJNHNKTE4ABV2S37B0UBP29J7", "dateTime": 1520020785618}, {"current_trial": 63, "trialdata": {"rt": -1, "trial_type": "single-stim", "word": "blade", "stimulus": "<p id=\"stim\">BLADE</p>", "conditions": [18, 1200, "v", 18000], "internal_node_id": "0.0-45.0", "trial": 1, "time_elapsed": 372363, "serialpos": 8, "key_press": -1, "wordID": 133, "type": "PRES_VIS", "trial_index": 63}, "uniqueid": "MTK3016:30MVJZJNHNKTE4ABV2S37B0UBP29J7", "dateTime": 1520020787964}, {"current_trial": 64, "trialdata": {"rt": -1, "trial_type": "single-stim", "word": "antler", "stimulus": "<p id=\"stim\">ANTLER</p>", "conditions": [18, 1200, "v", 18000], "internal_node_id": "0.0-46.0", "trial": 1, "time_elapsed": 374537, "serialpos": 9, "key_press": -1, "wordID": 28, "type": "PRES_VIS", "trial_index": 64}, "uniqueid": "MTK3016:30MVJZJNHNKTE4ABV2S37B0UBP29J7", "dateTime": 1520020790139}, {"current_trial": 65, "trialdata": {"rt": -1, "trial_type": "single-stim", "word": "report", "stimulus": "<p id=\"stim\">REPORT</p>", "conditions": [18, 1200, "v", 18000], "internal_node_id": "0.0-47.0", "trial": 1, "time_elapsed": 376703, "serialpos": 10, "key_press": -1, "wordID": 1183, "type": "PRES_VIS", "trial_index": 65}, "uniqueid": "MTK3016:30MVJZJNHNKTE4ABV2S37B0UBP29J7", "dateTime": 1520020792304}, {"current_trial": 66, "trialdata": {"rt": -1, "trial_type": "single-stim", "word": "vagrant", "stimulus": "<p id=\"stim\">VAGRANT</p>", "conditions": [18, 1200, "v", 18000], "internal_node_id": "0.0-48.0", "trial": 1, "time_elapsed": 379077, "serialpos": 11, "key_press": -1, "wordID": 1543, "type": "PRES_VIS", "trial_index": 66}, "uniqueid": "MTK3016:30MVJZJNHNKTE4ABV2S37B0UBP29J7", "dateTime": 1520020794685}, {"current_trial": 67, "trialdata": {"rt": -1, "trial_type": "single-stim", "word": "pork", "stimulus": "<p id=\"stim\">PORK</p>", "conditions": [18, 1200, "v", 18000], "internal_node_id": "0.0-49.0", "trial": 1, "time_elapsed": 381376, "serialpos": 12, "key_press": -1, "wordID": 1107, "type": "PRES_VIS", "trial_index": 67}, "uniqueid": "MTK3016:30MVJZJNHNKTE4ABV2S37B0UBP29J7", "dateTime": 1520020796978}, {"current_trial": 68, "trialdata": {"rt": -1, "trial_type": "single-stim", "word": "dragon", "stimulus": "<p id=\"stim\">DRAGON</p>", "conditions": [18, 1200, "v", 18000], "internal_node_id": "0.0-50.0", "trial": 1, "time_elapsed": 383733, "serialpos": 13, "key_press": -1, "wordID": 491, "type": "PRES_VIS", "trial_index": 68}, "uniqueid": "MTK3016:30MVJZJNHNKTE4ABV2S37B0UBP29J7", "dateTime": 1520020799347}, {"current_trial": 69, "trialdata": {"rt": -1, "trial_type": "single-stim", "word": "custard", "stimulus": "<p id=\"stim\">CUSTARD</p>", "conditions": [18, 1200, "v", 18000], "internal_node_id": "0.0-51.0", "trial": 1, "time_elapsed": 385782, "serialpos": 14, "key_press": -1, "wordID": 428, "type": "PRES_VIS", "trial_index": 69}, "uniqueid": "MTK3016:30MVJZJNHNKTE4ABV2S37B0UBP29J7", "dateTime": 1520020801385}, {"current_trial": 70, "trialdata": {"rt": -1, "trial_type": "single-stim", "word": "mailman", "stimulus": "<p id=\"stim\">MAILMAN</p>", "conditions": [18, 1200, "v", 18000], "internal_node_id": "0.0-52.0", "trial": 1, "time_elapsed": 387845, "serialpos": 15, "key_press": -1, "wordID": 857, "type": "PRES_VIS", "trial_index": 70}, "uniqueid": "MTK3016:30MVJZJNHNKTE4ABV2S37B0UBP29J7", "dateTime": 1520020803447}, {"current_trial": 71, "trialdata": {"rt": -1, "trial_type": "single-stim", "word": "canyon", "stimulus": "<p id=\"stim\">CANYON</p>", "conditions": [18, 1200, "v", 18000], "internal_node_id": "0.0-53.0", "trial": 1, "time_elapsed": 390012, "serialpos": 16, "key_press": -1, "wordID": 234, "type": "PRES_VIS", "trial_index": 71}, "uniqueid": "MTK3016:30MVJZJNHNKTE4ABV2S37B0UBP29J7", "dateTime": 1520020805613}, {"current_trial": 72, "trialdata": {"rt": -1, "trial_type": "single-stim", "word": "lion", "stimulus": "<p id=\"stim\">LION</p>", "conditions": [18, 1200, "v", 18000], "internal_node_id": "0.0-54.0", "trial": 1, "time_elapsed": 392038, "serialpos": 17, "key_press": -1, "wordID": 826, "type": "PRES_VIS", "trial_index": 72}, "uniqueid": "MTK3016:30MVJZJNHNKTE4ABV2S37B0UBP29J7", "dateTime": 1520020807639}, {"current_trial": 73, "trialdata": {"rt": -1, "trial_type": "single-stim", "stimulus": "", "internal_node_id": "0.0-55.0-0.0", "time_elapsed": 394399, "key_press": -1, "type": "PRE_RECALL_DELAY", "trial_index": 73}, "uniqueid": "MTK3016:30MVJZJNHNKTE4ABV2S37B0UBP29J7", "dateTime": 1520020810000}, {"current_trial": 74, "trialdata": {"rt": -1000, "trial_type": "single-audio", "stimulus": "/static/audio/400Hz.wav", "internal_node_id": "0.0-56.0", "time_elapsed": 394904, "key_press": -1, "type": "PRE_RECALL_ALERT", "trial_index": 74}, "uniqueid": "MTK3016:30MVJZJNHNKTE4ABV2S37B0UBP29J7", "dateTime": 1520020810506}, {"current_trial": 75, "trialdata": {"rt": [5777, 7771, 10212, 11796, 13066, 14940, 20793, 30638, 57052], "recwords": ["lion", "canyon", "mailman", "peach", "lace", "child", "canyon", "peach", "custard"], "key_times": [1184, 1610, 1779, 1835, 2074, 2760, 3059, 3202, 3323, 4323, 4523, 5429, 5777, 6107, 6290, 6603, 6972, 7227, 7465, 7771, 8036, 8210, 8340, 8621, 9019, 9442, 9683, 9841, 9947, 10212, 10651, 10913, 11018, 11292, 11449, 11796, 12361, 12458, 12666, 12913, 13066, 13281, 14128, 14322, 14506, 14690, 14940, 18428, 18619, 19326, 19842, 20234, 20491, 20793, 29540, 29746, 29819, 30131, 30290, 30638, 54455, 54707, 54979, 55188, 55493, 56132, 56419, 57052], "trial_type": "free-recall", "conditions": [18, 1200, "v", 18000], "internal_node_id": "0.0-57.0-0.0", "key_presses": [76, 73, 73, 79, 78, 8, 8, 8, 8, 73, 79, 78, 13, 67, 65, 78, 89, 79, 78, 13, 77, 65, 73, 76, 80, 8, 77, 65, 78, 13, 80, 69, 65, 67, 72, 13, 76, 65, 67, 69, 13, 67, 72, 73, 76, 68, 13, 67, 65, 78, 89, 79, 78, 13, 80, 69, 65, 67, 72, 13, 67, 85, 83, 84, 65, 82, 68, 13], "trial": 1, "time_elapsed": 454918, "type": "FREE_RECALL", "trial_index": 75}, "uniqueid": "MTK3016:30MVJZJNHNKTE4ABV2S37B0UBP29J7", "dateTime": 1520020870547}, {"current_trial": 76, "trialdata": {"rt": 10526, "trial_type": "text", "internal_node_id": "0.0-58.0", "time_elapsed": 467475, "key_press": 32, "type": "INSTRUCTIONS", "trial_index": 76}, "uniqueid": "MTK3016:30MVJZJNHNKTE4ABV2S37B0UBP29J7", "dateTime": 1520020883077}, {"current_trial": 77, "trialdata": {"rt": [3598, 9774], "trial_type": "math-distractor", "key_times": [3051, 3260, 3598, 7816, 8032, 8719, 8860, 9261, 9533, 9774, 11689], "responses": ["13", "21"], "num2": [4, 6, 5], "num3": [3, 8, 5], "conditions": [12, 1600, "v", 12000], "internal_node_id": "0.0-59.0", "key_presses": [49, 51, 13, 49, 50, 8, 8, 50, 49, 13, 49], "trial": 2, "time_elapsed": 480487, "type": "DISTRACTOR", "trial_index": 77, "num1": [6, 7, 4]}, "uniqueid": "MTK3016:30MVJZJNHNKTE4ABV2S37B0UBP29J7", "dateTime": 1520020896088}, {"current_trial": 78, "trialdata": {"rt": -1, "trial_type": "single-stim", "stimulus": "<p id=\"stim\">10</p>", "internal_node_id": "0.0-60.0-0.0", "time_elapsed": 483491, "key_press": -1, "trial_index": 78}, "uniqueid": "MTK3016:30MVJZJNHNKTE4ABV2S37B0UBP29J7", "dateTime": 1520020899093}, {"current_trial": 79, "trialdata": {"rt": -1, "trial_type": "single-stim", "stimulus": "<p id=\"stim\">9</p>", "internal_node_id": "0.0-60.0-1.0", "time_elapsed": 484496, "key_press": -1, "trial_index": 79}, "uniqueid": "MTK3016:30MVJZJNHNKTE4ABV2S37B0UBP29J7", "dateTime": 1520020900098}, {"current_trial": 80, "trialdata": {"rt": -1, "trial_type": "single-stim", "stimulus": "<p id=\"stim\">8</p>", "internal_node_id": "0.0-60.0-2.0", "time_elapsed": 485501, "key_press": -1, "trial_index": 80}, "uniqueid": "MTK3016:30MVJZJNHNKTE4ABV2S37B0UBP29J7", "dateTime": 1520020901102}, {"current_trial": 81, "trialdata": {"rt": -1, "trial_type": "single-stim", "stimulus": "<p id=\"stim\">7</p>", "internal_node_id": "0.0-60.0-3.0", "time_elapsed": 486507, "key_press": -1, "trial_index": 81}, "uniqueid": "MTK3016:30MVJZJNHNKTE4ABV2S37B0UBP29J7", "dateTime": 1520020902109}, {"current_trial": 82, "trialdata": {"rt": -1, "trial_type": "single-stim", "stimulus": "<p id=\"stim\">6</p>", "internal_node_id": "0.0-60.0-4.0", "time_elapsed": 487515, "key_press": -1, "trial_index": 82}, "uniqueid": "MTK3016:30MVJZJNHNKTE4ABV2S37B0UBP29J7", "dateTime": 1520020903116}, {"current_trial": 83, "trialdata": {"rt": -1, "trial_type": "single-stim", "stimulus": "<p id=\"stim\">5</p>", "internal_node_id": "0.0-60.0-5.0", "time_elapsed": 488520, "key_press": -1, "trial_index": 83}, "uniqueid": "MTK3016:30MVJZJNHNKTE4ABV2S37B0UBP29J7", "dateTime": 1520020904121}, {"current_trial": 84, "trialdata": {"rt": -1, "trial_type": "single-stim", "stimulus": "<p id=\"stim\">4</p>", "internal_node_id": "0.0-60.0-6.0", "time_elapsed": 489524, "key_press": -1, "trial_index": 84}, "uniqueid": "MTK3016:30MVJZJNHNKTE4ABV2S37B0UBP29J7", "dateTime": 1520020905126}, {"current_trial": 85, "trialdata": {"rt": -1, "trial_type": "single-stim", "stimulus": "<p id=\"stim\">3</p>", "internal_node_id": "0.0-60.0-7.0", "time_elapsed": 490541, "key_press": -1, "trial_index": 85}, "uniqueid": "MTK3016:30MVJZJNHNKTE4ABV2S37B0UBP29J7", "dateTime": 1520020906143}, {"current_trial": 86, "trialdata": {"rt": -1, "trial_type": "single-stim", "stimulus": "<p id=\"stim\">2</p>", "internal_node_id": "0.0-60.0-8.0", "time_elapsed": 491547, "key_press": -1, "trial_index": 86}, "uniqueid": "MTK3016:30MVJZJNHNKTE4ABV2S37B0UBP29J7", "dateTime": 1520020907148}, {"current_trial": 87, "trialdata": {"rt": -1, "trial_type": "single-stim", "stimulus": "<p id=\"stim\">1</p>", "internal_node_id": "0.0-60.0-9.0", "time_elapsed": 492550, "key_press": -1, "trial_index": 87}, "uniqueid": "MTK3016:30MVJZJNHNKTE4ABV2S37B0UBP29J7", "dateTime": 1520020908152}, {"current_trial": 88, "trialdata": {"rt": -1, "trial_type": "single-stim", "stimulus": "<p id=\"stim\">+</p>", "internal_node_id": "0.0-61.0-0.0", "time_elapsed": 494054, "key_press": -1, "type": "FIXATION", "trial_index": 88}, "uniqueid": "MTK3016:30MVJZJNHNKTE4ABV2S37B0UBP29J7", "dateTime": 1520020909656}, {"current_trial": 89, "trialdata": {"rt": -1, "trial_type": "single-stim", "word": "helmet", "stimulus": "<p id=\"stim\">HELMET</p>", "conditions": [12, 1600, "v", 12000], "internal_node_id": "0.0-62.0", "trial": 2, "time_elapsed": 495658, "serialpos": 0, "key_press": -1, "wordID": 701, "type": "PRES_VIS", "trial_index": 89}, "uniqueid": "MTK3016:30MVJZJNHNKTE4ABV2S37B0UBP29J7", "dateTime": 1520020911259}, {"current_trial": 90, "trialdata": {"rt": -1, "trial_type": "single-stim", "word": "umpire", "stimulus": "<p id=\"stim\">UMPIRE</p>", "conditions": [12, 1600, "v", 12000], "internal_node_id": "0.0-63.0", "trial": 2, "time_elapsed": 498188, "serialpos": 1, "key_press": -1, "wordID": 1534, "type": "PRES_VIS", "trial_index": 90}, "uniqueid": "MTK3016:30MVJZJNHNKTE4ABV2S37B0UBP29J7", "dateTime": 1520020913789}, {"current_trial": 91, "trialdata": {"rt": -1, "trial_type": "single-stim", "word": "mattress", "stimulus": "<p id=\"stim\">MATTRESS</p>", "conditions": [12, 1600, "v", 12000], "internal_node_id": "0.0-64.0", "trial": 2, "time_elapsed": 500947, "serialpos": 2, "key_press": -1, "wordID": 878, "type": "PRES_VIS", "trial_index": 91}, "uniqueid": "MTK3016:30MVJZJNHNKTE4ABV2S37B0UBP29J7", "dateTime": 1520020916549}, {"current_trial": 92, "trialdata": {"rt": -1, "trial_type": "single-stim", "word": "scissors", "stimulus": "<p id=\"stim\">SCISSORS</p>", "conditions": [12, 1600, "v", 12000], "internal_node_id": "0.0-65.0", "trial": 2, "time_elapsed": 503601, "serialpos": 3, "key_press": -1, "wordID": 1249, "type": "PRES_VIS", "trial_index": 92}, "uniqueid": "MTK3016:30MVJZJNHNKTE4ABV2S37B0UBP29J7", "dateTime": 1520020919202}, {"current_trial": 93, "trialdata": {"rt": -1, "trial_type": "single-stim", "word": "mop", "stimulus": "<p id=\"stim\">MOP</p>", "conditions": [12, 1600, "v", 12000], "internal_node_id": "0.0-66.0", "trial": 2, "time_elapsed": 506341, "serialpos": 4, "key_press": -1, "wordID": 915, "type": "PRES_VIS", "trial_index": 93}, "uniqueid": "MTK3016:30MVJZJNHNKTE4ABV2S37B0UBP29J7", "dateTime": 1520020921943}, {"current_trial": 94, "trialdata": {"rt": -1, "trial_type": "single-stim", "word": "crib", "stimulus": "<p id=\"stim\">CRIB</p>", "conditions": [12, 1600, "v", 12000], "internal_node_id": "0.0-67.0", "trial": 2, "time_elapsed": 508769, "serialpos": 5, "key_press": -1, "wordID": 406, "type": "PRES_VIS", "trial_index": 94}, "uniqueid": "MTK3016:30MVJZJNHNKTE4ABV2S37B0UBP29J7", "dateTime": 1520020924371}, {"current_trial": 95, "trialdata": {"rt": -1, "trial_type": "single-stim", "word": "princess", "stimulus": "<p id=\"stim\">PRINCESS</p>", "conditions": [12, 1600, "v", 12000], "internal_node_id": "0.0-68.0", "trial": 2, "time_elapsed": 511412, "serialpos": 6, "key_press": -1, "wordID": 1124, "type": "PRES_VIS", "trial_index": 95}, "uniqueid": "MTK3016:30MVJZJNHNKTE4ABV2S37B0UBP29J7", "dateTime": 1520020927013}, {"current_trial": 96, "trialdata": {"rt": -1, "trial_type": "single-stim", "word": "blouse", "stimulus": "<p id=\"stim\">BLOUSE</p>", "conditions": [12, 1600, "v", 12000], "internal_node_id": "0.0-69.0", "trial": 2, "time_elapsed": 513931, "serialpos": 7, "key_press": -1, "wordID": 138, "type": "PRES_VIS", "trial_index": 96}, "uniqueid": "MTK3016:30MVJZJNHNKTE4ABV2S37B0UBP29J7", "dateTime": 1520020929533}, {"current_trial": 97, "trialdata": {"rt": -1, "trial_type": "single-stim", "word": "lover", "stimulus": "<p id=\"stim\">LOVER</p>", "conditions": [12, 1600, "v", 12000], "internal_node_id": "0.0-70.0", "trial": 2, "time_elapsed": 516698, "serialpos": 8, "key_press": -1, "wordID": 845, "type": "PRES_VIS", "trial_index": 97}, "uniqueid": "MTK3016:30MVJZJNHNKTE4ABV2S37B0UBP29J7", "dateTime": 1520020932299}, {"current_trial": 98, "trialdata": {"rt": -1, "trial_type": "single-stim", "word": "finger", "stimulus": "<p id=\"stim\">FINGER</p>", "conditions": [12, 1600, "v", 12000], "internal_node_id": "0.0-71.0", "trial": 2, "time_elapsed": 519420, "serialpos": 9, "key_press": -1, "wordID": 566, "type": "PRES_VIS", "trial_index": 98}, "uniqueid": "MTK3016:30MVJZJNHNKTE4ABV2S37B0UBP29J7", "dateTime": 1520020935021}, {"current_trial": 99, "trialdata": {"rt": -1, "trial_type": "single-stim", "word": "gymnast", "stimulus": "<p id=\"stim\">GYMNAST</p>", "conditions": [12, 1600, "v", 12000], "internal_node_id": "0.0-72.0", "trial": 2, "time_elapsed": 522147, "serialpos": 10, "key_press": -1, "wordID": 674, "type": "PRES_VIS", "trial_index": 99}, "uniqueid": "MTK3016:30MVJZJNHNKTE4ABV2S37B0UBP29J7", "dateTime": 1520020937748}, {"current_trial": 100, "trialdata": {"rt": -1, "trial_type": "single-stim", "word": "swimmer", "stimulus": "<p id=\"stim\">SWIMMER</p>", "conditions": [12, 1600, "v", 12000], "internal_node_id": "0.0-73.0", "trial": 2, "time_elapsed": 524801, "serialpos": 11, "key_press": -1, "wordID": 1419, "type": "PRES_VIS", "trial_index": 100}, "uniqueid": "MTK3016:30MVJZJNHNKTE4ABV2S37B0UBP29J7", "dateTime": 1520020940403}, {"current_trial": 101, "trialdata": {"rt": -1, "trial_type": "single-stim", "stimulus": "", "internal_node_id": "0.0-74.0-0.0", "time_elapsed": 527112, "key_press": -1, "type": "PRE_RECALL_DELAY", "trial_index": 101}, "uniqueid": "MTK3016:30MVJZJNHNKTE4ABV2S37B0UBP29J7", "dateTime": 1520020942714}, {"current_trial": 102, "trialdata": {"rt": -1000, "trial_type": "single-audio", "stimulus": "/static/audio/400Hz.wav", "internal_node_id": "0.0-75.0", "time_elapsed": 527616, "key_press": -1, "type": "PRE_RECALL_ALERT", "trial_index": 102}, "uniqueid": "MTK3016:30MVJZJNHNKTE4ABV2S37B0UBP29J7", "dateTime": 1520020943217}, {"current_trial": 103, "trialdata": {"rt": [2367, 4696, 6294, 7753, 10135, 16398, 20050, 34942, 44094, 59089], "recwords": ["swimmer", "gymnist", "lover", "finger", "mattress", "scissors", "swimmer", "blouse", "umpire", "hitter"], "key_times": [888, 1120, 1263, 1511, 1669, 1859, 1873, 2367, 2766, 2985, 3681, 4000, 4193, 4313, 4415, 4696, 5434, 5638, 5751, 5976, 6128, 6294, 6765, 6871, 7048, 7233, 7402, 7457, 7753, 8520, 8639, 8808, 8999, 9183, 9288, 9511, 9646, 10135, 13626, 13936, 14295, 14511, 14662, 15016, 15489, 15760, 15928, 16146, 16398, 18816, 19048, 19190, 19442, 19575, 19711, 19815, 20050, 33593, 33966, 34153, 34350, 34510, 34687, 34942, 42864, 43129, 43399, 43688, 43873, 43945, 44094, 58156, 58295, 58457, 58600, 58791, 58872, 59089], "trial_type": "free-recall", "conditions": [12, 1600, "v", 12000], "internal_node_id": "0.0-76.0-0.0", "key_presses": [83, 87, 73, 77, 77, 69, 82, 13, 71, 89, 77, 78, 73, 83, 84, 13, 76, 79, 86, 69, 82, 13, 70, 73, 78, 71, 69, 82, 13, 77, 65, 84, 84, 82, 69, 83, 83, 13, 83, 67, 73, 83, 83, 82, 8, 79, 82, 83, 13, 83, 87, 73, 77, 77, 69, 82, 13, 66, 76, 79, 85, 83, 69, 13, 85, 77, 80, 73, 82, 69, 13, 72, 73, 84, 84, 69, 82, 13], "trial": 2, "time_elapsed": 587638, "type": "FREE_RECALL", "trial_index": 103}, "uniqueid": "MTK3016:30MVJZJNHNKTE4ABV2S37B0UBP29J7", "dateTime": 1520021003277}, {"current_trial": 104, "trialdata": {"rt": 1319, "trial_type": "text", "internal_node_id": "0.0-77.0", "time_elapsed": 590999, "key_press": 32, "type": "INSTRUCTIONS", "trial_index": 104}, "uniqueid": "MTK3016:30MVJZJNHNKTE4ABV2S37B0UBP29J7", "dateTime": 1520021006606}, {"current_trial": 105, "trialdata": {"rt": [2543, 5082, 8316, 10622, 12508, 14906, 18236, 20668, 23036], "trial_type": "math-distractor", "key_times": [1862, 2333, 2543, 4182, 4615, 5082, 7257, 7917, 8316, 9805, 10252, 10622, 12142, 12308, 12508, 14015, 14498, 14906, 17388, 17932, 18236, 20046, 20467, 20668, 22449, 22828, 23036], "responses": ["15", "10", "20", "14", "11", "10", "15", "15", "14"], "num2": [8, 3, 8, 6, 4, 1, 3, 7, 4, 7], "num3": [2, 3, 7, 7, 5, 2, 4, 6, 3, 1], "conditions": [24, 800, "v", 24000], "internal_node_id": "0.0-78.0", "key_presses": [49, 53, 13, 49, 48, 13, 50, 48, 13, 49, 52, 13, 49, 49, 13, 49, 48, 13, 49, 53, 13, 49, 53, 13, 49, 52, 13], "trial": 3, "time_elapsed": 617041, "type": "DISTRACTOR", "trial_index": 105, "num1": [5, 4, 5, 1, 2, 7, 8, 2, 7, 9]}, "uniqueid": "MTK3016:30MVJZJNHNKTE4ABV2S37B0UBP29J7", "dateTime": 1520021032644}, {"current_trial": 106, "trialdata": {"rt": -1, "trial_type": "single-stim", "stimulus": "<p id=\"stim\">10</p>", "internal_node_id": "0.0-79.0-0.0", "time_elapsed": 620047, "key_press": -1, "trial_index": 106}, "uniqueid": "MTK3016:30MVJZJNHNKTE4ABV2S37B0UBP29J7", "dateTime": 1520021035648}, {"current_trial": 107, "trialdata": {"rt": -1, "trial_type": "single-stim", "stimulus": "<p id=\"stim\">9</p>", "internal_node_id": "0.0-79.0-1.0", "time_elapsed": 621051, "key_press": -1, "trial_index": 107}, "uniqueid": "MTK3016:30MVJZJNHNKTE4ABV2S37B0UBP29J7", "dateTime": 1520021036653}, {"current_trial": 108, "trialdata": {"rt": -1, "trial_type": "single-stim", "stimulus": "<p id=\"stim\">8</p>", "internal_node_id": "0.0-79.0-2.0", "time_elapsed": 622056, "key_press": -1, "trial_index": 108}, "uniqueid": "MTK3016:30MVJZJNHNKTE4ABV2S37B0UBP29J7", "dateTime": 1520021037657}, {"current_trial": 109, "trialdata": {"rt": -1, "trial_type": "single-stim", "stimulus": "<p id=\"stim\">7</p>", "internal_node_id": "0.0-79.0-3.0", "time_elapsed": 623059, "key_press": -1, "trial_index": 109}, "uniqueid": "MTK3016:30MVJZJNHNKTE4ABV2S37B0UBP29J7", "dateTime": 1520021038661}, {"current_trial": 110, "trialdata": {"rt": -1, "trial_type": "single-stim", "stimulus": "<p id=\"stim\">6</p>", "internal_node_id": "0.0-79.0-4.0", "time_elapsed": 624063, "key_press": -1, "trial_index": 110}, "uniqueid": "MTK3016:30MVJZJNHNKTE4ABV2S37B0UBP29J7", "dateTime": 1520021039665}, {"current_trial": 111, "trialdata": {"rt": -1, "trial_type": "single-stim", "stimulus": "<p id=\"stim\">5</p>", "internal_node_id": "0.0-79.0-5.0", "time_elapsed": 625068, "key_press": -1, "trial_index": 111}, "uniqueid": "MTK3016:30MVJZJNHNKTE4ABV2S37B0UBP29J7", "dateTime": 1520021040669}, {"current_trial": 112, "trialdata": {"rt": -1, "trial_type": "single-stim", "stimulus": "<p id=\"stim\">4</p>", "internal_node_id": "0.0-79.0-6.0", "time_elapsed": 626073, "key_press": -1, "trial_index": 112}, "uniqueid": "MTK3016:30MVJZJNHNKTE4ABV2S37B0UBP29J7", "dateTime": 1520021041675}, {"current_trial": 113, "trialdata": {"rt": -1, "trial_type": "single-stim", "stimulus": "<p id=\"stim\">3</p>", "internal_node_id": "0.0-79.0-7.0", "time_elapsed": 627078, "key_press": -1, "trial_index": 113}, "uniqueid": "MTK3016:30MVJZJNHNKTE4ABV2S37B0UBP29J7", "dateTime": 1520021042680}, {"current_trial": 114, "trialdata": {"rt": -1, "trial_type": "single-stim", "stimulus": "<p id=\"stim\">2</p>", "internal_node_id": "0.0-79.0-8.0", "time_elapsed": 628082, "key_press": -1, "trial_index": 114}, "uniqueid": "MTK3016:30MVJZJNHNKTE4ABV2S37B0UBP29J7", "dateTime": 1520021043684}, {"current_trial": 115, "trialdata": {"rt": -1, "trial_type": "single-stim", "stimulus": "<p id=\"stim\">1</p>", "internal_node_id": "0.0-79.0-9.0", "time_elapsed": 629088, "key_press": -1, "trial_index": 115}, "uniqueid": "MTK3016:30MVJZJNHNKTE4ABV2S37B0UBP29J7", "dateTime": 1520021044689}, {"current_trial": 116, "trialdata": {"rt": -1, "trial_type": "single-stim", "stimulus": "<p id=\"stim\">+</p>", "internal_node_id": "0.0-80.0-0.0", "time_elapsed": 630592, "key_press": -1, "type": "FIXATION", "trial_index": 116}, "uniqueid": "MTK3016:30MVJZJNHNKTE4ABV2S37B0UBP29J7", "dateTime": 1520021046194}, {"current_trial": 117, "trialdata": {"rt": -1, "trial_type": "single-stim", "word": "patrol", "stimulus": "<p id=\"stim\">PATROL</p>", "conditions": [24, 800, "v", 24000], "internal_node_id": "0.0-81.0", "trial": 3, "time_elapsed": 631397, "serialpos": 0, "key_press": -1, "wordID": 1026, "type": "PRES_VIS", "trial_index": 117}, "uniqueid": "MTK3016:30MVJZJNHNKTE4ABV2S37B0UBP29J7", "dateTime": 1520021046998}, {"current_trial": 118, "trialdata": {"rt": -1, "trial_type": "single-stim", "word": "hiker", "stimulus": "<p id=\"stim\">HIKER</p>", "conditions": [24, 800, "v", 24000], "internal_node_id": "0.0-82.0", "trial": 3, "time_elapsed": 633119, "serialpos": 1, "key_press": -1, "wordID": 707, "type": "PRES_VIS", "trial_index": 118}, "uniqueid": "MTK3016:30MVJZJNHNKTE4ABV2S37B0UBP29J7", "dateTime": 1520021048721}, {"current_trial": 119, "trialdata": {"rt": -1, "trial_type": "single-stim", "word": "nomad", "stimulus": "<p id=\"stim\">NOMAD</p>", "conditions": [24, 800, "v", 24000], "internal_node_id": "0.0-83.0", "trial": 3, "time_elapsed": 634762, "serialpos": 2, "key_press": -1, "wordID": 954, "type": "PRES_VIS", "trial_index": 119}, "uniqueid": "MTK3016:30MVJZJNHNKTE4ABV2S37B0UBP29J7", "dateTime": 1520021050365}, {"current_trial": 120, "trialdata": {"rt": -1, "trial_type": "single-stim", "word": "trout", "stimulus": "<p id=\"stim\">TROUT</p>", "conditions": [24, 800, "v", 24000], "internal_node_id": "0.0-84.0", "trial": 3, "time_elapsed": 636683, "serialpos": 3, "key_press": -1, "wordID": 1510, "type": "PRES_VIS", "trial_index": 120}, "uniqueid": "MTK3016:30MVJZJNHNKTE4ABV2S37B0UBP29J7", "dateTime": 1520021052284}, {"current_trial": 121, "trialdata": {"rt": -1, "trial_type": "single-stim", "word": "hedge", "stimulus": "<p id=\"stim\">HEDGE</p>", "conditions": [24, 800, "v", 24000], "internal_node_id": "0.0-85.0", "trial": 3, "time_elapsed": 638558, "serialpos": 4, "key_press": -1, "wordID": 698, "type": "PRES_VIS", "trial_index": 121}, "uniqueid": "MTK3016:30MVJZJNHNKTE4ABV2S37B0UBP29J7", "dateTime": 1520021054161}, {"current_trial": 122, "trialdata": {"rt": -1, "trial_type": "single-stim", "word": "cabin", "stimulus": "<p id=\"stim\">CABIN</p>", "conditions": [24, 800, "v", 24000], "internal_node_id": "0.0-86.0", "trial": 3, "time_elapsed": 640194, "serialpos": 5, "key_press": -1, "wordID": 210, "type": "PRES_VIS", "trial_index": 122}, "uniqueid": "MTK3016:30MVJZJNHNKTE4ABV2S37B0UBP29J7", "dateTime": 1520021055795}, {"current_trial": 123, "trialdata": {"rt": -1, "trial_type": "single-stim", "word": "statue", "stimulus": "<p id=\"stim\">STATUE</p>", "conditions": [24, 800, "v", 24000], "internal_node_id": "0.0-87.0", "trial": 3, "time_elapsed": 642166, "serialpos": 6, "key_press": -1, "wordID": 1373, "type": "PRES_VIS", "trial_index": 123}, "uniqueid": "MTK3016:30MVJZJNHNKTE4ABV2S37B0UBP29J7", "dateTime": 1520021057768}, {"current_trial": 124, "trialdata": {"rt": -1, "trial_type": "single-stim", "word": "sculpture", "stimulus": "<p id=\"stim\">SCULPTURE</p>", "conditions": [24, 800, "v", 24000], "internal_node_id": "0.0-88.0", "trial": 3, "time_elapsed": 644003, "serialpos": 7, "key_press": -1, "wordID": 1257, "type": "PRES_VIS", "trial_index": 124}, "uniqueid": "MTK3016:30MVJZJNHNKTE4ABV2S37B0UBP29J7", "dateTime": 1520021059604}, {"current_trial": 125, "trialdata": {"rt": -1, "trial_type": "single-stim", "word": "picnic", "stimulus": "<p id=\"stim\">PICNIC</p>", "conditions": [24, 800, "v", 24000], "internal_node_id": "0.0-89.0", "trial": 3, "time_elapsed": 645807, "serialpos": 8, "key_press": -1, "wordID": 1059, "type": "PRES_VIS", "trial_index": 125}, "uniqueid": "MTK3016:30MVJZJNHNKTE4ABV2S37B0UBP29J7", "dateTime": 1520021061408}, {"current_trial": 126, "trialdata": {"rt": -1, "trial_type": "single-stim", "word": "taxi", "stimulus": "<p id=\"stim\">TAXI</p>", "conditions": [24, 800, "v", 24000], "internal_node_id": "0.0-90.0", "trial": 3, "time_elapsed": 647516, "serialpos": 9, "key_press": -1, "wordID": 1437, "type": "PRES_VIS", "trial_index": 126}, "uniqueid": "MTK3016:30MVJZJNHNKTE4ABV2S37B0UBP29J7", "dateTime": 1520021063117}, {"current_trial": 127, "trialdata": {"rt": -1, "trial_type": "single-stim", "word": "couch", "stimulus": "<p id=\"stim\">COUCH</p>", "conditions": [24, 800, "v", 24000], "internal_node_id": "0.0-91.0", "trial": 3, "time_elapsed": 649204, "serialpos": 10, "key_press": -1, "wordID": 385, "type": "PRES_VIS", "trial_index": 127}, "uniqueid": "MTK3016:30MVJZJNHNKTE4ABV2S37B0UBP29J7", "dateTime": 1520021064805}, {"current_trial": 128, "trialdata": {"rt": -1, "trial_type": "single-stim", "word": "salmon", "stimulus": "<p id=\"stim\">SALMON</p>", "conditions": [24, 800, "v", 24000], "internal_node_id": "0.0-92.0", "trial": 3, "time_elapsed": 651062, "serialpos": 11, "key_press": -1, "wordID": 1226, "type": "PRES_VIS", "trial_index": 128}, "uniqueid": "MTK3016:30MVJZJNHNKTE4ABV2S37B0UBP29J7", "dateTime": 1520021066664}, {"current_trial": 129, "trialdata": {"rt": -1, "trial_type": "single-stim", "word": "waiter", "stimulus": "<p id=\"stim\">WAITER</p>", "conditions": [24, 800, "v", 24000], "internal_node_id": "0.0-93.0", "trial": 3, "time_elapsed": 652978, "serialpos": 12, "key_press": -1, "wordID": 1579, "type": "PRES_VIS", "trial_index": 129}, "uniqueid": "MTK3016:30MVJZJNHNKTE4ABV2S37B0UBP29J7", "dateTime": 1520021068580}, {"current_trial": 130, "trialdata": {"rt": -1, "trial_type": "single-stim", "word": "carrot", "stimulus": "<p id=\"stim\">CARROT</p>", "conditions": [24, 800, "v", 24000], "internal_node_id": "0.0-94.0", "trial": 3, "time_elapsed": 654707, "serialpos": 13, "key_press": -1, "wordID": 248, "type": "PRES_VIS", "trial_index": 130}, "uniqueid": "MTK3016:30MVJZJNHNKTE4ABV2S37B0UBP29J7", "dateTime": 1520021070310}, {"current_trial": 131, "trialdata": {"rt": -1, "trial_type": "single-stim", "word": "crater", "stimulus": "<p id=\"stim\">CRATER</p>", "conditions": [24, 800, "v", 24000], "internal_node_id": "0.0-95.0", "trial": 3, "time_elapsed": 656635, "serialpos": 14, "key_press": -1, "wordID": 399, "type": "PRES_VIS", "trial_index": 131}, "uniqueid": "MTK3016:30MVJZJNHNKTE4ABV2S37B0UBP29J7", "dateTime": 1520021072237}, {"current_trial": 132, "trialdata": {"rt": -1, "trial_type": "single-stim", "word": "knife", "stimulus": "<p id=\"stim\">KNIFE</p>", "conditions": [24, 800, "v", 24000], "internal_node_id": "0.0-96.0", "trial": 3, "time_elapsed": 658605, "serialpos": 15, "key_press": -1, "wordID": 784, "type": "PRES_VIS", "trial_index": 132}, "uniqueid": "MTK3016:30MVJZJNHNKTE4ABV2S37B0UBP29J7", "dateTime": 1520021074207}, {"current_trial": 133, "trialdata": {"rt": -1, "trial_type": "single-stim", "word": "razor", "stimulus": "<p id=\"stim\">RAZOR</p>", "conditions": [24, 800, "v", 24000], "internal_node_id": "0.0-97.0", "trial": 3, "time_elapsed": 660500, "serialpos": 16, "key_press": -1, "wordID": 1170, "type": "PRES_VIS", "trial_index": 133}, "uniqueid": "MTK3016:30MVJZJNHNKTE4ABV2S37B0UBP29J7", "dateTime": 1520021076101}, {"current_trial": 134, "trialdata": {"rt": -1, "trial_type": "single-stim", "word": "cashier", "stimulus": "<p id=\"stim\">CASHIER</p>", "conditions": [24, 800, "v", 24000], "internal_node_id": "0.0-98.0", "trial": 3, "time_elapsed": 662312, "serialpos": 17, "key_press": -1, "wordID": 253, "type": "PRES_VIS", "trial_index": 134}, "uniqueid": "MTK3016:30MVJZJNHNKTE4ABV2S37B0UBP29J7", "dateTime": 1520021077914}, {"current_trial": 135, "trialdata": {"rt": -1, "trial_type": "single-stim", "word": "wardrobe", "stimulus": "<p id=\"stim\">WARDROBE</p>", "conditions": [24, 800, "v", 24000], "internal_node_id": "0.0-99.0", "trial": 3, "time_elapsed": 664120, "serialpos": 18, "key_press": -1, "wordID": 1586, "type": "PRES_VIS", "trial_index": 135}, "uniqueid": "MTK3016:30MVJZJNHNKTE4ABV2S37B0UBP29J7", "dateTime": 1520021079721}, {"current_trial": 136, "trialdata": {"rt": -1, "trial_type": "single-stim", "word": "kitchen", "stimulus": "<p id=\"stim\">KITCHEN</p>", "conditions": [24, 800, "v", 24000], "internal_node_id": "0.0-100.0", "trial": 3, "time_elapsed": 665789, "serialpos": 19, "key_press": -1, "wordID": 777, "type": "PRES_VIS", "trial_index": 136}, "uniqueid": "MTK3016:30MVJZJNHNKTE4ABV2S37B0UBP29J7", "dateTime": 1520021081391}, {"current_trial": 137, "trialdata": {"rt": -1, "trial_type": "single-stim", "word": "diner", "stimulus": "<p id=\"stim\">DINER</p>", "conditions": [24, 800, "v", 24000], "internal_node_id": "0.0-101.0", "trial": 3, "time_elapsed": 667424, "serialpos": 20, "key_press": -1, "wordID": 466, "type": "PRES_VIS", "trial_index": 137}, "uniqueid": "MTK3016:30MVJZJNHNKTE4ABV2S37B0UBP29J7", "dateTime": 1520021083025}, {"current_trial": 138, "trialdata": {"rt": -1, "trial_type": "single-stim", "word": "termite", "stimulus": "<p id=\"stim\">TERMITE</p>", "conditions": [24, 800, "v", 24000], "internal_node_id": "0.0-102.0", "trial": 3, "time_elapsed": 669436, "serialpos": 21, "key_press": -1, "wordID": 1450, "type": "PRES_VIS", "trial_index": 138}, "uniqueid": "MTK3016:30MVJZJNHNKTE4ABV2S37B0UBP29J7", "dateTime": 1520021085038}, {"current_trial": 139, "trialdata": {"rt": -1, "trial_type": "single-stim", "word": "ointment", "stimulus": "<p id=\"stim\">OINTMENT</p>", "conditions": [24, 800, "v", 24000], "internal_node_id": "0.0-103.0", "trial": 3, "time_elapsed": 671226, "serialpos": 22, "key_press": -1, "wordID": 973, "type": "PRES_VIS", "trial_index": 139}, "uniqueid": "MTK3016:30MVJZJNHNKTE4ABV2S37B0UBP29J7", "dateTime": 1520021086828}, {"current_trial": 140, "trialdata": {"rt": -1, "trial_type": "single-stim", "word": "neutron", "stimulus": "<p id=\"stim\">NEUTRON</p>", "conditions": [24, 800, "v", 24000], "internal_node_id": "0.0-104.0", "trial": 3, "time_elapsed": 672877, "serialpos": 23, "key_press": -1, "wordID": 946, "type": "PRES_VIS", "trial_index": 140}, "uniqueid": "MTK3016:30MVJZJNHNKTE4ABV2S37B0UBP29J7", "dateTime": 1520021088479}, {"current_trial": 141, "trialdata": {"rt": -1, "trial_type": "single-stim", "stimulus": "", "internal_node_id": "0.0-105.0-0.0", "time_elapsed": 675430, "key_press": -1, "type": "PRE_RECALL_DELAY", "trial_index": 141}, "uniqueid": "MTK3016:30MVJZJNHNKTE4ABV2S37B0UBP29J7", "dateTime": 1520021091032}, {"current_trial": 142, "trialdata": {"rt": -1000, "trial_type": "single-audio", "stimulus": "/static/audio/400Hz.wav", "internal_node_id": "0.0-106.0", "time_elapsed": 675935, "key_press": -1, "type": "PRE_RECALL_ALERT", "trial_index": 142}, "uniqueid": "MTK3016:30MVJZJNHNKTE4ABV2S37B0UBP29J7", "dateTime": 1520021091536}, {"current_trial": 143, "trialdata": {"rt": [3316, 4938, 6580, 9799, 13269, 14891, 19458, 20796, 25329, 28132, 32635, 39805, 45691, 52531], "recwords": ["neutron", "hiker", "cabin", "patrol", "c", "knife", "kitchen", "diner", "patrolman", "hiker", "statue", "sulpter", "ointment", "couch"], "key_times": [718, 915, 1107, 1385, 1660, 1805, 2378, 3316, 4036, 4219, 4438, 4563, 4708, 4938, 5127, 5307, 5540, 5933, 6147, 6580, 7804, 7907, 8084, 8671, 8822, 9050, 9163, 9427, 9799, 11509, 13269, 13869, 14131, 14307, 14498, 14691, 14891, 17508, 17683, 17802, 18045, 18172, 18276, 19116, 19458, 20033, 20123, 20308, 20459, 20515, 20796, 21684, 21877, 22614, 22685, 23325, 23560, 24092, 24387, 24628, 24778, 24884, 25329, 27205, 27363, 27612, 27772, 27885, 28132, 30964, 31149, 31670, 31899, 32220, 32404, 32635, 32908, 33266, 34288, 34500, 34691, 35211, 35381, 35507, 35661, 36887, 37204, 37428, 39012, 39243, 39348, 39805, 44232, 44459, 44683, 44842, 45066, 45189, 45315, 45427, 45691, 51477, 51630, 51806, 51980, 52132, 52531], "trial_type": "free-recall", "conditions": [24, 800, "v", 24000], "internal_node_id": "0.0-107.0-0.0", "key_presses": [78, 69, 85, 84, 82, 79, 78, 13, 72, 73, 75, 69, 82, 13, 67, 65, 66, 73, 78, 13, 80, 65, 82, 8, 84, 82, 79, 76, 13, 67, 13, 75, 78, 73, 70, 69, 13, 75, 73, 84, 67, 72, 69, 78, 13, 68, 73, 78, 69, 82, 13, 80, 79, 8, 65, 84, 82, 79, 76, 77, 65, 78, 13, 72, 73, 75, 69, 82, 13, 83, 84, 65, 84, 85, 69, 13, 83, 67, 72, 85, 76, 8, 8, 8, 8, 85, 76, 80, 84, 69, 82, 13, 79, 73, 78, 84, 77, 69, 78, 84, 13, 67, 79, 85, 67, 72, 13], "trial": 3, "time_elapsed": 735949, "type": "FREE_RECALL", "trial_index": 143}, "uniqueid": "MTK3016:30MVJZJNHNKTE4ABV2S37B0UBP29J7", "dateTime": 1520021151585}, {"current_trial": 144, "trialdata": {"rt": 584, "trial_type": "text", "internal_node_id": "0.0-108.0", "time_elapsed": 738572, "key_press": 32, "type": "INSTRUCTIONS", "trial_index": 144}, "uniqueid": "MTK3016:30MVJZJNHNKTE4ABV2S37B0UBP29J7", "dateTime": 1520021154175}, {"current_trial": 145, "trialdata": {"rt": [2241, 5989, 8148, 13263, 16037, 18542, 20462, 22181], "trial_type": "math-distractor", "key_times": [1653, 1846, 2241, 4734, 5400, 5989, 7169, 7660, 8148, 11407, 12858, 13263, 15179, 15835, 16037, 17213, 17853, 18542, 19965, 20189, 20462, 21584, 21918, 22181, 23965], "responses": ["19", "17", "18", "17", "15", "17", "12", "12"], "num2": [9, 4, 6, 8, 5, 5, 2, 5, 4], "num3": [9, 6, 6, 9, 9, 7, 5, 2, 1], "conditions": [12, 1600, "v", 24000], "internal_node_id": "0.0-109.0", "key_presses": [49, 57, 13, 49, 55, 13, 49, 56, 13, 49, 55, 13, 49, 53, 13, 49, 55, 13, 49, 50, 13, 49, 50, 13, 49], "trial": 4, "time_elapsed": 764582, "type": "DISTRACTOR", "trial_index": 145, "num1": [1, 7, 6, 7, 1, 5, 5, 5, 5]}, "uniqueid": "MTK3016:30MVJZJNHNKTE4ABV2S37B0UBP29J7", "dateTime": 1520021180184}, {"current_trial": 146, "trialdata": {"rt": -1, "trial_type": "single-stim", "stimulus": "<p id=\"stim\">10</p>", "internal_node_id": "0.0-110.0-0.0", "time_elapsed": 767588, "key_press": -1, "trial_index": 146}, "uniqueid": "MTK3016:30MVJZJNHNKTE4ABV2S37B0UBP29J7", "dateTime": 1520021183189}, {"current_trial": 147, "trialdata": {"rt": -1, "trial_type": "single-stim", "stimulus": "<p id=\"stim\">9</p>", "internal_node_id": "0.0-110.0-1.0", "time_elapsed": 768591, "key_press": -1, "trial_index": 147}, "uniqueid": "MTK3016:30MVJZJNHNKTE4ABV2S37B0UBP29J7", "dateTime": 1520021184193}, {"current_trial": 148, "trialdata": {"rt": -1, "trial_type": "single-stim", "stimulus": "<p id=\"stim\">8</p>", "internal_node_id": "0.0-110.0-2.0", "time_elapsed": 769597, "key_press": -1, "trial_index": 148}, "uniqueid": "MTK3016:30MVJZJNHNKTE4ABV2S37B0UBP29J7", "dateTime": 1520021185198}, {"current_trial": 149, "trialdata": {"rt": -1, "trial_type": "single-stim", "stimulus": "<p id=\"stim\">7</p>", "internal_node_id": "0.0-110.0-3.0", "time_elapsed": 770601, "key_press": -1, "trial_index": 149}, "uniqueid": "MTK3016:30MVJZJNHNKTE4ABV2S37B0UBP29J7", "dateTime": 1520021186202}, {"current_trial": 150, "trialdata": {"rt": -1, "trial_type": "single-stim", "stimulus": "<p id=\"stim\">6</p>", "internal_node_id": "0.0-110.0-4.0", "time_elapsed": 771608, "key_press": -1, "trial_index": 150}, "uniqueid": "MTK3016:30MVJZJNHNKTE4ABV2S37B0UBP29J7", "dateTime": 1520021187209}, {"current_trial": 151, "trialdata": {"rt": -1, "trial_type": "single-stim", "stimulus": "<p id=\"stim\">5</p>", "internal_node_id": "0.0-110.0-5.0", "time_elapsed": 772612, "key_press": -1, "trial_index": 151}, "uniqueid": "MTK3016:30MVJZJNHNKTE4ABV2S37B0UBP29J7", "dateTime": 1520021188213}, {"current_trial": 152, "trialdata": {"rt": -1, "trial_type": "single-stim", "stimulus": "<p id=\"stim\">4</p>", "internal_node_id": "0.0-110.0-6.0", "time_elapsed": 773617, "key_press": -1, "trial_index": 152}, "uniqueid": "MTK3016:30MVJZJNHNKTE4ABV2S37B0UBP29J7", "dateTime": 1520021189219}, {"current_trial": 153, "trialdata": {"rt": -1, "trial_type": "single-stim", "stimulus": "<p id=\"stim\">3</p>", "internal_node_id": "0.0-110.0-7.0", "time_elapsed": 774623, "key_press": -1, "trial_index": 153}, "uniqueid": "MTK3016:30MVJZJNHNKTE4ABV2S37B0UBP29J7", "dateTime": 1520021190226}, {"current_trial": 154, "trialdata": {"rt": -1, "trial_type": "single-stim", "stimulus": "<p id=\"stim\">2</p>", "internal_node_id": "0.0-110.0-8.0", "time_elapsed": 775630, "key_press": -1, "trial_index": 154}, "uniqueid": "MTK3016:30MVJZJNHNKTE4ABV2S37B0UBP29J7", "dateTime": 1520021191231}, {"current_trial": 155, "trialdata": {"rt": -1, "trial_type": "single-stim", "stimulus": "<p id=\"stim\">1</p>", "internal_node_id": "0.0-110.0-9.0", "time_elapsed": 776638, "key_press": -1, "trial_index": 155}, "uniqueid": "MTK3016:30MVJZJNHNKTE4ABV2S37B0UBP29J7", "dateTime": 1520021192239}, {"current_trial": 156, "trialdata": {"rt": -1, "trial_type": "single-stim", "stimulus": "<p id=\"stim\">+</p>", "internal_node_id": "0.0-111.0-0.0", "time_elapsed": 778142, "key_press": -1, "type": "FIXATION", "trial_index": 156}, "uniqueid": "MTK3016:30MVJZJNHNKTE4ABV2S37B0UBP29J7", "dateTime": 1520021193743}, {"current_trial": 157, "trialdata": {"rt": -1, "trial_type": "single-stim", "word": "stomach", "stimulus": "<p id=\"stim\">STOMACH</p>", "conditions": [12, 1600, "v", 24000], "internal_node_id": "0.0-112.0", "trial": 4, "time_elapsed": 779750, "serialpos": 0, "key_press": -1, "wordID": 1383, "type": "PRES_VIS", "trial_index": 157}, "uniqueid": "MTK3016:30MVJZJNHNKTE4ABV2S37B0UBP29J7", "dateTime": 1520021195351}, {"current_trial": 158, "trialdata": {"rt": -1, "trial_type": "single-stim", "word": "spouse", "stimulus": "<p id=\"stim\">SPOUSE</p>", "conditions": [12, 1600, "v", 24000], "internal_node_id": "0.0-113.0", "trial": 4, "time_elapsed": 782388, "serialpos": 1, "key_press": -1, "wordID": 1357, "type": "PRES_VIS", "trial_index": 158}, "uniqueid": "MTK3016:30MVJZJNHNKTE4ABV2S37B0UBP29J7", "dateTime": 1520021197990}, {"current_trial": 159, "trialdata": {"rt": -1, "trial_type": "single-stim", "word": "mailbox", "stimulus": "<p id=\"stim\">MAILBOX</p>", "conditions": [12, 1600, "v", 24000], "internal_node_id": "0.0-114.0", "trial": 4, "time_elapsed": 785039, "serialpos": 2, "key_press": -1, "wordID": 856, "type": "PRES_VIS", "trial_index": 159}, "uniqueid": "MTK3016:30MVJZJNHNKTE4ABV2S37B0UBP29J7", "dateTime": 1520021200643}, {"current_trial": 160, "trialdata": {"rt": -1, "trial_type": "single-stim", "word": "lady", "stimulus": "<p id=\"stim\">LADY</p>", "conditions": [12, 1600, "v", 24000], "internal_node_id": "0.0-115.0", "trial": 4, "time_elapsed": 787577, "serialpos": 3, "key_press": -1, "wordID": 793, "type": "PRES_VIS", "trial_index": 160}, "uniqueid": "MTK3016:30MVJZJNHNKTE4ABV2S37B0UBP29J7", "dateTime": 1520021203179}, {"current_trial": 161, "trialdata": {"rt": -1, "trial_type": "single-stim", "word": "gallon", "stimulus": "<p id=\"stim\">GALLON</p>", "conditions": [12, 1600, "v", 24000], "internal_node_id": "0.0-116.0", "trial": 4, "time_elapsed": 790166, "serialpos": 4, "key_press": -1, "wordID": 617, "type": "PRES_VIS", "trial_index": 161}, "uniqueid": "MTK3016:30MVJZJNHNKTE4ABV2S37B0UBP29J7", "dateTime": 1520021205768}, {"current_trial": 162, "trialdata": {"rt": -1, "trial_type": "single-stim", "word": "cabbage", "stimulus": "<p id=\"stim\">CABBAGE</p>", "conditions": [12, 1600, "v", 24000], "internal_node_id": "0.0-117.0", "trial": 4, "time_elapsed": 792720, "serialpos": 5, "key_press": -1, "wordID": 209, "type": "PRES_VIS", "trial_index": 162}, "uniqueid": "MTK3016:30MVJZJNHNKTE4ABV2S37B0UBP29J7", "dateTime": 1520021208322}, {"current_trial": 163, "trialdata": {"rt": -1, "trial_type": "single-stim", "word": "braces", "stimulus": "<p id=\"stim\">BRACES</p>", "conditions": [12, 1600, "v", 24000], "internal_node_id": "0.0-118.0", "trial": 4, "time_elapsed": 795478, "serialpos": 6, "key_press": -1, "wordID": 163, "type": "PRES_VIS", "trial_index": 163}, "uniqueid": "MTK3016:30MVJZJNHNKTE4ABV2S37B0UBP29J7", "dateTime": 1520021211080}, {"current_trial": 164, "trialdata": {"rt": -1, "trial_type": "single-stim", "word": "bucket", "stimulus": "<p id=\"stim\">BUCKET</p>", "conditions": [12, 1600, "v", 24000], "internal_node_id": "0.0-119.0", "trial": 4, "time_elapsed": 797910, "serialpos": 7, "key_press": -1, "wordID": 183, "type": "PRES_VIS", "trial_index": 164}, "uniqueid": "MTK3016:30MVJZJNHNKTE4ABV2S37B0UBP29J7", "dateTime": 1520021213512}, {"current_trial": 165, "trialdata": {"rt": -1, "trial_type": "single-stim", "word": "hook", "stimulus": "<p id=\"stim\">HOOK</p>", "conditions": [12, 1600, "v", 24000], "internal_node_id": "0.0-120.0", "trial": 4, "time_elapsed": 800696, "serialpos": 8, "key_press": -1, "wordID": 714, "type": "PRES_VIS", "trial_index": 165}, "uniqueid": "MTK3016:30MVJZJNHNKTE4ABV2S37B0UBP29J7", "dateTime": 1520021216297}, {"current_trial": 166, "trialdata": {"rt": -1, "trial_type": "single-stim", "word": "barrel", "stimulus": "<p id=\"stim\">BARREL</p>", "conditions": [12, 1600, "v", 24000], "internal_node_id": "0.0-121.0", "trial": 4, "time_elapsed": 803327, "serialpos": 9, "key_press": -1, "wordID": 90, "type": "PRES_VIS", "trial_index": 166}, "uniqueid": "MTK3016:30MVJZJNHNKTE4ABV2S37B0UBP29J7", "dateTime": 1520021218928}, {"current_trial": 167, "trialdata": {"rt": -1, "trial_type": "single-stim", "word": "boyfriend", "stimulus": "<p id=\"stim\">BOYFRIEND</p>", "conditions": [12, 1600, "v", 24000], "internal_node_id": "0.0-122.0", "trial": 4, "time_elapsed": 805879, "serialpos": 10, "key_press": -1, "wordID": 161, "type": "PRES_VIS", "trial_index": 167}, "uniqueid": "MTK3016:30MVJZJNHNKTE4ABV2S37B0UBP29J7", "dateTime": 1520021221481}, {"current_trial": 168, "trialdata": {"rt": -1, "trial_type": "single-stim", "word": "cousin", "stimulus": "<p id=\"stim\">COUSIN</p>", "conditions": [12, 1600, "v", 24000], "internal_node_id": "0.0-123.0", "trial": 4, "time_elapsed": 808421, "serialpos": 11, "key_press": -1, "wordID": 391, "type": "PRES_VIS", "trial_index": 168}, "uniqueid": "MTK3016:30MVJZJNHNKTE4ABV2S37B0UBP29J7", "dateTime": 1520021224022}, {"current_trial": 169, "trialdata": {"rt": -1, "trial_type": "single-stim", "stimulus": "", "internal_node_id": "0.0-124.0-0.0", "time_elapsed": 810535, "key_press": -1, "type": "PRE_RECALL_DELAY", "trial_index": 169}, "uniqueid": "MTK3016:30MVJZJNHNKTE4ABV2S37B0UBP29J7", "dateTime": 1520021226137}, {"current_trial": 170, "trialdata": {"rt": -1000, "trial_type": "single-audio", "stimulus": "/static/audio/400Hz.wav", "internal_node_id": "0.0-125.0", "time_elapsed": 811040, "key_press": -1, "type": "PRE_RECALL_ALERT", "trial_index": 170}, "uniqueid": "MTK3016:30MVJZJNHNKTE4ABV2S37B0UBP29J7", "dateTime": 1520021226643}, {"current_trial": 171, "trialdata": {"rt": [5657, 8665, 11207, 12356, 14873, 21457, 32089, 34553, 53456], "recwords": ["cousin", "barrel", "boyfriend", "lady", "spouce", "bucket", "mainman", "mailman", "stomache"], "key_times": [2062, 2561, 4517, 4680, 4808, 5000, 5657, 6170, 6850, 7145, 7322, 7528, 7687, 7849, 8305, 8665, 9394, 9832, 10045, 10321, 10515, 10624, 10720, 10824, 10995, 11207, 11488, 11609, 11808, 11962, 12356, 12889, 13035, 13264, 13802, 14346, 14568, 14873, 20361, 20575, 20745, 20897, 21120, 21233, 21457, 30546, 30642, 30953, 31170, 31396, 31560, 31697, 32089, 33139, 33351, 33447, 33595, 33953, 34106, 34217, 34553, 49816, 49968, 50440, 50745, 50931, 51096, 51451, 51602, 51736, 52170, 52352, 52585, 52721, 52929, 53041, 53274, 53456], "trial_type": "free-recall", "conditions": [12, 1600, "v", 24000], "internal_node_id": "0.0-126.0-0.0", "key_presses": [67, 79, 85, 83, 73, 78, 13, 65, 8, 66, 65, 82, 82, 69, 76, 13, 66, 79, 89, 70, 82, 73, 69, 78, 68, 13, 76, 65, 68, 89, 13, 83, 80, 79, 85, 67, 69, 13, 66, 85, 67, 75, 69, 84, 13, 77, 65, 73, 78, 77, 65, 78, 13, 77, 65, 73, 76, 77, 65, 78, 13, 83, 79, 8, 79, 77, 65, 8, 8, 8, 84, 79, 77, 65, 67, 72, 69, 13], "trial": 4, "time_elapsed": 871065, "type": "FREE_RECALL", "trial_index": 171}, "uniqueid": "MTK3016:30MVJZJNHNKTE4ABV2S37B0UBP29J7", "dateTime": 1520021286713}, {"current_trial": 172, "trialdata": {"rt": 723, "trial_type": "text", "internal_node_id": "0.0-127.0", "time_elapsed": 873844, "key_press": 32, "type": "INSTRUCTIONS", "trial_index": 172}, "uniqueid": "MTK3016:30MVJZJNHNKTE4ABV2S37B0UBP29J7", "dateTime": 1520021289446}, {"current_trial": 173, "trialdata": {"rt": [2363, 4966, 10007], "trial_type": "math-distractor", "key_times": [1992, 2146, 2363, 4319, 4828, 4966, 8845, 9838, 10007], "responses": ["12", "17", "21"], "num2": [7, 3, 9, 1], "num3": [3, 5, 8, 9], "conditions": [12, 800, "v", 12000], "internal_node_id": "0.0-128.0", "key_presses": [49, 50, 13, 49, 55, 13, 50, 49, 13], "trial": 5, "time_elapsed": 887885, "type": "DISTRACTOR", "trial_index": 173, "num1": [2, 9, 4, 7]}, "uniqueid": "MTK3016:30MVJZJNHNKTE4ABV2S37B0UBP29J7", "dateTime": 1520021303486}, {"current_trial": 174, "trialdata": {"rt": -1, "trial_type": "single-stim", "stimulus": "<p id=\"stim\">10</p>", "internal_node_id": "0.0-129.0-0.0", "time_elapsed": 890891, "key_press": -1, "trial_index": 174}, "uniqueid": "MTK3016:30MVJZJNHNKTE4ABV2S37B0UBP29J7", "dateTime": 1520021306492}, {"current_trial": 175, "trialdata": {"rt": -1, "trial_type": "single-stim", "stimulus": "<p id=\"stim\">9</p>", "internal_node_id": "0.0-129.0-1.0", "time_elapsed": 891894, "key_press": -1, "trial_index": 175}, "uniqueid": "MTK3016:30MVJZJNHNKTE4ABV2S37B0UBP29J7", "dateTime": 1520021307495}, {"current_trial": 176, "trialdata": {"rt": -1, "trial_type": "single-stim", "stimulus": "<p id=\"stim\">8</p>", "internal_node_id": "0.0-129.0-2.0", "time_elapsed": 892898, "key_press": -1, "trial_index": 176}, "uniqueid": "MTK3016:30MVJZJNHNKTE4ABV2S37B0UBP29J7", "dateTime": 1520021308499}, {"current_trial": 177, "trialdata": {"rt": -1, "trial_type": "single-stim", "stimulus": "<p id=\"stim\">7</p>", "internal_node_id": "0.0-129.0-3.0", "time_elapsed": 893902, "key_press": -1, "trial_index": 177}, "uniqueid": "MTK3016:30MVJZJNHNKTE4ABV2S37B0UBP29J7", "dateTime": 1520021309504}, {"current_trial": 178, "trialdata": {"rt": -1, "trial_type": "single-stim", "stimulus": "<p id=\"stim\">6</p>", "internal_node_id": "0.0-129.0-4.0", "time_elapsed": 894906, "key_press": -1, "trial_index": 178}, "uniqueid": "MTK3016:30MVJZJNHNKTE4ABV2S37B0UBP29J7", "dateTime": 1520021310507}, {"current_trial": 179, "trialdata": {"rt": -1, "trial_type": "single-stim", "stimulus": "<p id=\"stim\">5</p>", "internal_node_id": "0.0-129.0-5.0", "time_elapsed": 895911, "key_press": -1, "trial_index": 179}, "uniqueid": "MTK3016:30MVJZJNHNKTE4ABV2S37B0UBP29J7", "dateTime": 1520021311513}, {"current_trial": 180, "trialdata": {"rt": -1, "trial_type": "single-stim", "stimulus": "<p id=\"stim\">4</p>", "internal_node_id": "0.0-129.0-6.0", "time_elapsed": 896916, "key_press": -1, "trial_index": 180}, "uniqueid": "MTK3016:30MVJZJNHNKTE4ABV2S37B0UBP29J7", "dateTime": 1520021312517}, {"current_trial": 181, "trialdata": {"rt": -1, "trial_type": "single-stim", "stimulus": "<p id=\"stim\">3</p>", "internal_node_id": "0.0-129.0-7.0", "time_elapsed": 897926, "key_press": -1, "trial_index": 181}, "uniqueid": "MTK3016:30MVJZJNHNKTE4ABV2S37B0UBP29J7", "dateTime": 1520021313527}, {"current_trial": 182, "trialdata": {"rt": -1, "trial_type": "single-stim", "stimulus": "<p id=\"stim\">2</p>", "internal_node_id": "0.0-129.0-8.0", "time_elapsed": 898931, "key_press": -1, "trial_index": 182}, "uniqueid": "MTK3016:30MVJZJNHNKTE4ABV2S37B0UBP29J7", "dateTime": 1520021314532}, {"current_trial": 183, "trialdata": {"rt": -1, "trial_type": "single-stim", "stimulus": "<p id=\"stim\">1</p>", "internal_node_id": "0.0-129.0-9.0", "time_elapsed": 899935, "key_press": -1, "trial_index": 183}, "uniqueid": "MTK3016:30MVJZJNHNKTE4ABV2S37B0UBP29J7", "dateTime": 1520021315537}, {"current_trial": 184, "trialdata": {"rt": -1, "trial_type": "single-stim", "stimulus": "<p id=\"stim\">+</p>", "internal_node_id": "0.0-130.0-0.0", "time_elapsed": 901439, "key_press": -1, "type": "FIXATION", "trial_index": 184}, "uniqueid": "MTK3016:30MVJZJNHNKTE4ABV2S37B0UBP29J7", "dateTime": 1520021317040}, {"current_trial": 185, "trialdata": {"rt": -1, "trial_type": "single-stim", "word": "sister", "stimulus": "<p id=\"stim\">SISTER</p>", "conditions": [12, 800, "v", 12000], "internal_node_id": "0.0-131.0", "trial": 5, "time_elapsed": 902243, "serialpos": 0, "key_press": -1, "wordID": 1311, "type": "PRES_VIS", "trial_index": 185}, "uniqueid": "MTK3016:30MVJZJNHNKTE4ABV2S37B0UBP29J7", "dateTime": 1520021317845}, {"current_trial": 186, "trialdata": {"rt": -1, "trial_type": "single-stim", "word": "flesh", "stimulus": "<p id=\"stim\">FLESH</p>", "conditions": [12, 800, "v", 12000], "internal_node_id": "0.0-132.0", "trial": 5, "time_elapsed": 904199, "serialpos": 1, "key_press": -1, "wordID": 578, "type": "PRES_VIS", "trial_index": 186}, "uniqueid": "MTK3016:30MVJZJNHNKTE4ABV2S37B0UBP29J7", "dateTime": 1520021319801}, {"current_trial": 187, "trialdata": {"rt": -1, "trial_type": "single-stim", "word": "coffee", "stimulus": "<p id=\"stim\">COFFEE</p>", "conditions": [12, 800, "v", 12000], "internal_node_id": "0.0-133.0", "trial": 5, "time_elapsed": 905892, "serialpos": 2, "key_press": -1, "wordID": 340, "type": "PRES_VIS", "trial_index": 187}, "uniqueid": "MTK3016:30MVJZJNHNKTE4ABV2S37B0UBP29J7", "dateTime": 1520021321493}, {"current_trial": 188, "trialdata": {"rt": -1, "trial_type": "single-stim", "word": "pistol", "stimulus": "<p id=\"stim\">PISTOL</p>", "conditions": [12, 800, "v", 12000], "internal_node_id": "0.0-134.0", "trial": 5, "time_elapsed": 907645, "serialpos": 3, "key_press": -1, "wordID": 1074, "type": "PRES_VIS", "trial_index": 188}, "uniqueid": "MTK3016:30MVJZJNHNKTE4ABV2S37B0UBP29J7", "dateTime": 1520021323247}, {"current_trial": 189, "trialdata": {"rt": -1, "trial_type": "single-stim", "word": "citrus", "stimulus": "<p id=\"stim\">CITRUS</p>", "conditions": [12, 800, "v", 12000], "internal_node_id": "0.0-135.0", "trial": 5, "time_elapsed": 909565, "serialpos": 4, "key_press": -1, "wordID": 312, "type": "PRES_VIS", "trial_index": 189}, "uniqueid": "MTK3016:30MVJZJNHNKTE4ABV2S37B0UBP29J7", "dateTime": 1520021325166}, {"current_trial": 190, "trialdata": {"rt": -1, "trial_type": "single-stim", "word": "marine", "stimulus": "<p id=\"stim\">MARINE</p>", "conditions": [12, 800, "v", 12000], "internal_node_id": "0.0-136.0", "trial": 5, "time_elapsed": 911329, "serialpos": 5, "key_press": -1, "wordID": 868, "type": "PRES_VIS", "trial_index": 190}, "uniqueid": "MTK3016:30MVJZJNHNKTE4ABV2S37B0UBP29J7", "dateTime": 1520021326931}, {"current_trial": 191, "trialdata": {"rt": -1, "trial_type": "single-stim", "word": "fireman", "stimulus": "<p id=\"stim\">FIREMAN</p>", "conditions": [12, 800, "v", 12000], "internal_node_id": "0.0-137.0", "trial": 5, "time_elapsed": 913067, "serialpos": 6, "key_press": -1, "wordID": 568, "type": "PRES_VIS", "trial_index": 191}, "uniqueid": "MTK3016:30MVJZJNHNKTE4ABV2S37B0UBP29J7", "dateTime": 1520021328669}, {"current_trial": 192, "trialdata": {"rt": -1, "trial_type": "single-stim", "word": "husband", "stimulus": "<p id=\"stim\">HUSBAND</p>", "conditions": [12, 800, "v", 12000], "internal_node_id": "0.0-138.0", "trial": 5, "time_elapsed": 914825, "serialpos": 7, "key_press": -1, "wordID": 727, "type": "PRES_VIS", "trial_index": 192}, "uniqueid": "MTK3016:30MVJZJNHNKTE4ABV2S37B0UBP29J7", "dateTime": 1520021330427}, {"current_trial": 193, "trialdata": {"rt": -1, "trial_type": "single-stim", "word": "denim", "stimulus": "<p id=\"stim\">DENIM</p>", "conditions": [12, 800, "v", 12000], "internal_node_id": "0.0-139.0", "trial": 5, "time_elapsed": 916491, "serialpos": 8, "key_press": -1, "wordID": 445, "type": "PRES_VIS", "trial_index": 193}, "uniqueid": "MTK3016:30MVJZJNHNKTE4ABV2S37B0UBP29J7", "dateTime": 1520021332092}, {"current_trial": 194, "trialdata": {"rt": -1, "trial_type": "single-stim", "word": "racket", "stimulus": "<p id=\"stim\">RACKET</p>", "conditions": [12, 800, "v", 12000], "internal_node_id": "0.0-140.0", "trial": 5, "time_elapsed": 918117, "serialpos": 9, "key_press": -1, "wordID": 1154, "type": "PRES_VIS", "trial_index": 194}, "uniqueid": "MTK3016:30MVJZJNHNKTE4ABV2S37B0UBP29J7", "dateTime": 1520021333718}, {"current_trial": 195, "trialdata": {"rt": -1, "trial_type": "single-stim", "word": "mammal", "stimulus": "<p id=\"stim\">MAMMAL</p>", "conditions": [12, 800, "v", 12000], "internal_node_id": "0.0-141.0", "trial": 5, "time_elapsed": 920008, "serialpos": 10, "key_press": -1, "wordID": 860, "type": "PRES_VIS", "trial_index": 195}, "uniqueid": "MTK3016:30MVJZJNHNKTE4ABV2S37B0UBP29J7", "dateTime": 1520021335609}, {"current_trial": 196, "trialdata": {"rt": -1, "trial_type": "single-stim", "word": "dolphin", "stimulus": "<p id=\"stim\">DOLPHIN</p>", "conditions": [12, 800, "v", 12000], "internal_node_id": "0.0-142.0", "trial": 5, "time_elapsed": 921906, "serialpos": 11, "key_press": -1, "wordID": 482, "type": "PRES_VIS", "trial_index": 196}, "uniqueid": "MTK3016:30MVJZJNHNKTE4ABV2S37B0UBP29J7", "dateTime": 1520021337508}, {"current_trial": 197, "trialdata": {"rt": -1, "trial_type": "single-stim", "stimulus": "", "internal_node_id": "0.0-143.0-0.0", "time_elapsed": 924228, "key_press": -1, "type": "PRE_RECALL_DELAY", "trial_index": 197}, "uniqueid": "MTK3016:30MVJZJNHNKTE4ABV2S37B0UBP29J7", "dateTime": 1520021339830}, {"current_trial": 198, "trialdata": {"rt": -1000, "trial_type": "single-audio", "stimulus": "/static/audio/400Hz.wav", "internal_node_id": "0.0-144.0", "time_elapsed": 924733, "key_press": -1, "type": "PRE_RECALL_ALERT", "trial_index": 198}, "uniqueid": "MTK3016:30MVJZJNHNKTE4ABV2S37B0UBP29J7", "dateTime": 1520021340334}, {"current_trial": 199, "trialdata": {"rt": [4303, 6383, 7621, 12244, 15029, 24244, 27595, 27894, 31196, 36869, 46943], "recwords": ["dolphin", "mammel", "racket", "sister", "cousin", "flesh", "pisto", "", "pistol", "racket", "fireman"], "key_times": [2088, 2864, 3083, 3277, 3564, 3755, 3973, 4303, 4563, 4754, 5054, 5220, 5357, 5660, 6383, 6653, 6733, 6957, 7084, 7244, 7429, 7621, 11438, 11535, 11653, 11819, 11980, 12085, 12244, 14038, 14148, 14267, 14460, 14566, 14755, 15029, 23181, 23333, 23460, 23752, 23939, 24244, 26231, 26667, 26860, 27086, 27293, 27595, 27894, 29736, 29940, 30101, 30325, 30484, 30881, 31196, 35750, 35822, 36148, 36324, 36493, 36638, 36869, 45821, 45924, 46068, 46180, 46413, 46540, 46653, 46943], "trial_type": "free-recall", "conditions": [12, 800, "v", 12000], "internal_node_id": "0.0-145.0-0.0", "key_presses": [68, 79, 76, 80, 72, 73, 78, 13, 77, 65, 77, 77, 69, 76, 13, 82, 65, 67, 75, 69, 84, 13, 83, 73, 83, 84, 69, 82, 13, 67, 79, 85, 83, 73, 78, 13, 70, 76, 69, 83, 72, 13, 80, 73, 83, 84, 79, 186, 13, 80, 73, 83, 84, 79, 76, 13, 82, 65, 67, 75, 69, 84, 13, 70, 73, 82, 69, 77, 65, 78, 13], "trial": 5, "time_elapsed": 984745, "type": "FREE_RECALL", "trial_index": 199}, "uniqueid": "MTK3016:30MVJZJNHNKTE4ABV2S37B0UBP29J7", "dateTime": 1520021400362}, {"current_trial": 200, "trialdata": {"rt": 999, "trial_type": "text", "internal_node_id": "0.0-146.0", "time_elapsed": 987764, "key_press": 32, "type": "INSTRUCTIONS", "trial_index": 200}, "uniqueid": "MTK3016:30MVJZJNHNKTE4ABV2S37B0UBP29J7", "dateTime": 1520021403366}, {"current_trial": 201, "trialdata": {"rt": [2006, 5838, 8150], "trial_type": "math-distractor", "key_times": [1390, 1676, 2006, 4898, 5417, 5838, 7822, 8150, 11729], "responses": ["19", "17", "3"], "num2": [5, 6, 9, 9], "num3": [9, 9, 1, 4], "conditions": [24, 1600, "v", 12000], "internal_node_id": "0.0-147.0", "key_presses": [49, 57, 13, 49, 55, 13, 51, 13, 50], "trial": 6, "time_elapsed": 1001774, "type": "DISTRACTOR", "trial_index": 201, "num1": [5, 9, 3, 8]}, "uniqueid": "MTK3016:30MVJZJNHNKTE4ABV2S37B0UBP29J7", "dateTime": 1520021417375}, {"current_trial": 202, "trialdata": {"rt": -1, "trial_type": "single-stim", "stimulus": "<p id=\"stim\">10</p>", "internal_node_id": "0.0-148.0-0.0", "time_elapsed": 1004778, "key_press": -1, "trial_index": 202}, "uniqueid": "MTK3016:30MVJZJNHNKTE4ABV2S37B0UBP29J7", "dateTime": 1520021420379}, {"current_trial": 203, "trialdata": {"rt": -1, "trial_type": "single-stim", "stimulus": "<p id=\"stim\">9</p>", "internal_node_id": "0.0-148.0-1.0", "time_elapsed": 1005786, "key_press": -1, "trial_index": 203}, "uniqueid": "MTK3016:30MVJZJNHNKTE4ABV2S37B0UBP29J7", "dateTime": 1520021421388}, {"current_trial": 204, "trialdata": {"rt": -1, "trial_type": "single-stim", "stimulus": "<p id=\"stim\">8</p>", "internal_node_id": "0.0-148.0-2.0", "time_elapsed": 1006791, "key_press": -1, "trial_index": 204}, "uniqueid": "MTK3016:30MVJZJNHNKTE4ABV2S37B0UBP29J7", "dateTime": 1520021422393}, {"current_trial": 205, "trialdata": {"rt": -1, "trial_type": "single-stim", "stimulus": "<p id=\"stim\">7</p>", "internal_node_id": "0.0-148.0-3.0", "time_elapsed": 1007797, "key_press": -1, "trial_index": 205}, "uniqueid": "MTK3016:30MVJZJNHNKTE4ABV2S37B0UBP29J7", "dateTime": 1520021423399}, {"current_trial": 206, "trialdata": {"rt": -1, "trial_type": "single-stim", "stimulus": "<p id=\"stim\">6</p>", "internal_node_id": "0.0-148.0-4.0", "time_elapsed": 1008802, "key_press": -1, "trial_index": 206}, "uniqueid": "MTK3016:30MVJZJNHNKTE4ABV2S37B0UBP29J7", "dateTime": 1520021424404}, {"current_trial": 207, "trialdata": {"rt": -1, "trial_type": "single-stim", "stimulus": "<p id=\"stim\">5</p>", "internal_node_id": "0.0-148.0-5.0", "time_elapsed": 1009807, "key_press": -1, "trial_index": 207}, "uniqueid": "MTK3016:30MVJZJNHNKTE4ABV2S37B0UBP29J7", "dateTime": 1520021425409}, {"current_trial": 208, "trialdata": {"rt": -1, "trial_type": "single-stim", "stimulus": "<p id=\"stim\">4</p>", "internal_node_id": "0.0-148.0-6.0", "time_elapsed": 1010813, "key_press": -1, "trial_index": 208}, "uniqueid": "MTK3016:30MVJZJNHNKTE4ABV2S37B0UBP29J7", "dateTime": 1520021426414}, {"current_trial": 209, "trialdata": {"rt": -1, "trial_type": "single-stim", "stimulus": "<p id=\"stim\">3</p>", "internal_node_id": "0.0-148.0-7.0", "time_elapsed": 1011816, "key_press": -1, "trial_index": 209}, "uniqueid": "MTK3016:30MVJZJNHNKTE4ABV2S37B0UBP29J7", "dateTime": 1520021427418}, {"current_trial": 210, "trialdata": {"rt": -1, "trial_type": "single-stim", "stimulus": "<p id=\"stim\">2</p>", "internal_node_id": "0.0-148.0-8.0", "time_elapsed": 1012819, "key_press": -1, "trial_index": 210}, "uniqueid": "MTK3016:30MVJZJNHNKTE4ABV2S37B0UBP29J7", "dateTime": 1520021428421}, {"current_trial": 211, "trialdata": {"rt": -1, "trial_type": "single-stim", "stimulus": "<p id=\"stim\">1</p>", "internal_node_id": "0.0-148.0-9.0", "time_elapsed": 1013823, "key_press": -1, "trial_index": 211}, "uniqueid": "MTK3016:30MVJZJNHNKTE4ABV2S37B0UBP29J7", "dateTime": 1520021429425}, {"current_trial": 212, "trialdata": {"rt": -1, "trial_type": "single-stim", "stimulus": "<p id=\"stim\">+</p>", "internal_node_id": "0.0-149.0-0.0", "time_elapsed": 1015329, "key_press": -1, "type": "FIXATION", "trial_index": 212}, "uniqueid": "MTK3016:30MVJZJNHNKTE4ABV2S37B0UBP29J7", "dateTime": 1520021430931}, {"current_trial": 213, "trialdata": {"rt": -1, "trial_type": "single-stim", "word": "college", "stimulus": "<p id=\"stim\">COLLEGE</p>", "conditions": [24, 1600, "v", 12000], "internal_node_id": "0.0-150.0", "trial": 6, "time_elapsed": 1016934, "serialpos": 0, "key_press": -1, "wordID": 345, "type": "PRES_VIS", "trial_index": 213}, "uniqueid": "MTK3016:30MVJZJNHNKTE4ABV2S37B0UBP29J7", "dateTime": 1520021432536}, {"current_trial": 214, "trialdata": {"rt": -1, "trial_type": "single-stim", "word": "bacon", "stimulus": "<p id=\"stim\">BACON</p>", "conditions": [24, 1600, "v", 12000], "internal_node_id": "0.0-151.0", "trial": 6, "time_elapsed": 1019675, "serialpos": 1, "key_press": -1, "wordID": 66, "type": "PRES_VIS", "trial_index": 214}, "uniqueid": "MTK3016:30MVJZJNHNKTE4ABV2S37B0UBP29J7", "dateTime": 1520021435278}, {"current_trial": 215, "trialdata": {"rt": -1, "trial_type": "single-stim", "word": "cattle", "stimulus": "<p id=\"stim\">CATTLE</p>", "conditions": [24, 1600, "v", 12000], "internal_node_id": "0.0-152.0", "trial": 6, "time_elapsed": 1022340, "serialpos": 2, "key_press": -1, "wordID": 260, "type": "PRES_VIS", "trial_index": 215}, "uniqueid": "MTK3016:30MVJZJNHNKTE4ABV2S37B0UBP29J7", "dateTime": 1520021437942}, {"current_trial": 216, "trialdata": {"rt": -1, "trial_type": "single-stim", "word": "possum", "stimulus": "<p id=\"stim\">POSSUM</p>", "conditions": [24, 1600, "v", 12000], "internal_node_id": "0.0-153.0", "trial": 6, "time_elapsed": 1024996, "serialpos": 3, "key_press": -1, "wordID": 1111, "type": "PRES_VIS", "trial_index": 216}, "uniqueid": "MTK3016:30MVJZJNHNKTE4ABV2S37B0UBP29J7", "dateTime": 1520021440597}, {"current_trial": 217, "trialdata": {"rt": -1, "trial_type": "single-stim", "word": "panther", "stimulus": "<p id=\"stim\">PANTHER</p>", "conditions": [24, 1600, "v", 12000], "internal_node_id": "0.0-154.0", "trial": 6, "time_elapsed": 1027669, "serialpos": 4, "key_press": -1, "wordID": 1008, "type": "PRES_VIS", "trial_index": 217}, "uniqueid": "MTK3016:30MVJZJNHNKTE4ABV2S37B0UBP29J7", "dateTime": 1520021443270}, {"current_trial": 218, "trialdata": {"rt": -1, "trial_type": "single-stim", "word": "tart", "stimulus": "<p id=\"stim\">TART</p>", "conditions": [24, 1600, "v", 12000], "internal_node_id": "0.0-155.0", "trial": 6, "time_elapsed": 1030330, "serialpos": 5, "key_press": -1, "wordID": 1435, "type": "PRES_VIS", "trial_index": 218}, "uniqueid": "MTK3016:30MVJZJNHNKTE4ABV2S37B0UBP29J7", "dateTime": 1520021445932}, {"current_trial": 219, "trialdata": {"rt": -1, "trial_type": "single-stim", "word": "orange", "stimulus": "<p id=\"stim\">ORANGE</p>", "conditions": [24, 1600, "v", 12000], "internal_node_id": "0.0-156.0", "trial": 6, "time_elapsed": 1032762, "serialpos": 6, "key_press": -1, "wordID": 979, "type": "PRES_VIS", "trial_index": 219}, "uniqueid": "MTK3016:30MVJZJNHNKTE4ABV2S37B0UBP29J7", "dateTime": 1520021448364}, {"current_trial": 220, "trialdata": {"rt": -1, "trial_type": "single-stim", "word": "scribble", "stimulus": "<p id=\"stim\">SCRIBBLE</p>", "conditions": [24, 1600, "v", 12000], "internal_node_id": "0.0-157.0", "trial": 6, "time_elapsed": 1035257, "serialpos": 7, "key_press": -1, "wordID": 1255, "type": "PRES_VIS", "trial_index": 220}, "uniqueid": "MTK3016:30MVJZJNHNKTE4ABV2S37B0UBP29J7", "dateTime": 1520021450859}, {"current_trial": 221, "trialdata": {"rt": -1, "trial_type": "single-stim", "word": "goblin", "stimulus": "<p id=\"stim\">GOBLIN</p>", "conditions": [24, 1600, "v", 12000], "internal_node_id": "0.0-158.0", "trial": 6, "time_elapsed": 1037899, "serialpos": 8, "key_press": -1, "wordID": 644, "type": "PRES_VIS", "trial_index": 221}, "uniqueid": "MTK3016:30MVJZJNHNKTE4ABV2S37B0UBP29J7", "dateTime": 1520021453502}, {"current_trial": 222, "trialdata": {"rt": -1, "trial_type": "single-stim", "word": "beef", "stimulus": "<p id=\"stim\">BEEF</p>", "conditions": [24, 1600, "v", 12000], "internal_node_id": "0.0-159.0", "trial": 6, "time_elapsed": 1040653, "serialpos": 9, "key_press": -1, "wordID": 112, "type": "PRES_VIS", "trial_index": 222}, "uniqueid": "MTK3016:30MVJZJNHNKTE4ABV2S37B0UBP29J7", "dateTime": 1520021456255}, {"current_trial": 223, "trialdata": {"rt": -1, "trial_type": "single-stim", "word": "scarecrow", "stimulus": "<p id=\"stim\">SCARECROW</p>", "conditions": [24, 1600, "v", 12000], "internal_node_id": "0.0-160.0", "trial": 6, "time_elapsed": 1043346, "serialpos": 10, "key_press": -1, "wordID": 1244, "type": "PRES_VIS", "trial_index": 223}, "uniqueid": "MTK3016:30MVJZJNHNKTE4ABV2S37B0UBP29J7", "dateTime": 1520021458948}, {"current_trial": 224, "trialdata": {"rt": -1, "trial_type": "single-stim", "word": "cowboy", "stimulus": "<p id=\"stim\">COWBOY</p>", "conditions": [24, 1600, "v", 12000], "internal_node_id": "0.0-161.0", "trial": 6, "time_elapsed": 1045893, "serialpos": 11, "key_press": -1, "wordID": 394, "type": "PRES_VIS", "trial_index": 224}, "uniqueid": "MTK3016:30MVJZJNHNKTE4ABV2S37B0UBP29J7", "dateTime": 1520021461496}, {"current_trial": 225, "trialdata": {"rt": -1, "trial_type": "single-stim", "word": "parrot", "stimulus": "<p id=\"stim\">PARROT</p>", "conditions": [24, 1600, "v", 12000], "internal_node_id": "0.0-162.0", "trial": 6, "time_elapsed": 1048691, "serialpos": 12, "key_press": -1, "wordID": 1014, "type": "PRES_VIS", "trial_index": 225}, "uniqueid": "MTK3016:30MVJZJNHNKTE4ABV2S37B0UBP29J7", "dateTime": 1520021464297}, {"current_trial": 226, "trialdata": {"rt": -1, "trial_type": "single-stim", "word": "rooster", "stimulus": "<p id=\"stim\">ROOSTER</p>", "conditions": [24, 1600, "v", 12000], "internal_node_id": "0.0-163.0", "trial": 6, "time_elapsed": 1051433, "serialpos": 13, "key_press": -1, "wordID": 1208, "type": "PRES_VIS", "trial_index": 226}, "uniqueid": "MTK3016:30MVJZJNHNKTE4ABV2S37B0UBP29J7", "dateTime": 1520021467035}, {"current_trial": 227, "trialdata": {"rt": -1, "trial_type": "single-stim", "word": "poet", "stimulus": "<p id=\"stim\">POET</p>", "conditions": [24, 1600, "v", 12000], "internal_node_id": "0.0-164.0", "trial": 6, "time_elapsed": 1053978, "serialpos": 14, "key_press": -1, "wordID": 1094, "type": "PRES_VIS", "trial_index": 227}, "uniqueid": "MTK3016:30MVJZJNHNKTE4ABV2S37B0UBP29J7", "dateTime": 1520021469580}, {"current_trial": 228, "trialdata": {"rt": -1, "trial_type": "single-stim", "word": "silk", "stimulus": "<p id=\"stim\">SILK</p>", "conditions": [24, 1600, "v", 12000], "internal_node_id": "0.0-165.0", "trial": 6, "time_elapsed": 1056776, "serialpos": 15, "key_press": -1, "wordID": 1306, "type": "PRES_VIS", "trial_index": 228}, "uniqueid": "MTK3016:30MVJZJNHNKTE4ABV2S37B0UBP29J7", "dateTime": 1520021472377}, {"current_trial": 229, "trialdata": {"rt": -1, "trial_type": "single-stim", "word": "muffin", "stimulus": "<p id=\"stim\">MUFFIN</p>", "conditions": [24, 1600, "v", 12000], "internal_node_id": "0.0-166.0", "trial": 6, "time_elapsed": 1059249, "serialpos": 16, "key_press": -1, "wordID": 928, "type": "PRES_VIS", "trial_index": 229}, "uniqueid": "MTK3016:30MVJZJNHNKTE4ABV2S37B0UBP29J7", "dateTime": 1520021474851}, {"current_trial": 230, "trialdata": {"rt": -1, "trial_type": "single-stim", "word": "beaker", "stimulus": "<p id=\"stim\">BEAKER</p>", "conditions": [24, 1600, "v", 12000], "internal_node_id": "0.0-167.0", "trial": 6, "time_elapsed": 1061945, "serialpos": 17, "key_press": -1, "wordID": 103, "type": "PRES_VIS", "trial_index": 230}, "uniqueid": "MTK3016:30MVJZJNHNKTE4ABV2S37B0UBP29J7", "dateTime": 1520021477547}, {"current_trial": 231, "trialdata": {"rt": -1, "trial_type": "single-stim", "word": "cod", "stimulus": "<p id=\"stim\">COD</p>", "conditions": [24, 1600, "v", 12000], "internal_node_id": "0.0-168.0", "trial": 6, "time_elapsed": 1064463, "serialpos": 18, "key_press": -1, "wordID": 339, "type": "PRES_VIS", "trial_index": 231}, "uniqueid": "MTK3016:30MVJZJNHNKTE4ABV2S37B0UBP29J7", "dateTime": 1520021480066}, {"current_trial": 232, "trialdata": {"rt": -1, "trial_type": "single-stim", "word": "pudding", "stimulus": "<p id=\"stim\">PUDDING</p>", "conditions": [24, 1600, "v", 12000], "internal_node_id": "0.0-169.0", "trial": 6, "time_elapsed": 1067122, "serialpos": 19, "key_press": -1, "wordID": 1138, "type": "PRES_VIS", "trial_index": 232}, "uniqueid": "MTK3016:30MVJZJNHNKTE4ABV2S37B0UBP29J7", "dateTime": 1520021482723}, {"current_trial": 233, "trialdata": {"rt": -1, "trial_type": "single-stim", "word": "cookbook", "stimulus": "<p id=\"stim\">COOKBOOK</p>", "conditions": [24, 1600, "v", 12000], "internal_node_id": "0.0-170.0", "trial": 6, "time_elapsed": 1069600, "serialpos": 20, "key_press": -1, "wordID": 372, "type": "PRES_VIS", "trial_index": 233}, "uniqueid": "MTK3016:30MVJZJNHNKTE4ABV2S37B0UBP29J7", "dateTime": 1520021485201}, {"current_trial": 234, "trialdata": {"rt": -1, "trial_type": "single-stim", "word": "motel", "stimulus": "<p id=\"stim\">MOTEL</p>", "conditions": [24, 1600, "v", 12000], "internal_node_id": "0.0-171.0", "trial": 6, "time_elapsed": 1072299, "serialpos": 21, "key_press": -1, "wordID": 918, "type": "PRES_VIS", "trial_index": 234}, "uniqueid": "MTK3016:30MVJZJNHNKTE4ABV2S37B0UBP29J7", "dateTime": 1520021487900}, {"current_trial": 235, "trialdata": {"rt": -1, "trial_type": "single-stim", "word": "velvet", "stimulus": "<p id=\"stim\">VELVET</p>", "conditions": [24, 1600, "v", 12000], "internal_node_id": "0.0-172.0", "trial": 6, "time_elapsed": 1075077, "serialpos": 22, "key_press": -1, "wordID": 1554, "type": "PRES_VIS", "trial_index": 235}, "uniqueid": "MTK3016:30MVJZJNHNKTE4ABV2S37B0UBP29J7", "dateTime": 1520021490685}, {"current_trial": 236, "trialdata": {"rt": -1, "trial_type": "single-stim", "word": "drink", "stimulus": "<p id=\"stim\">DRINK</p>", "conditions": [24, 1600, "v", 12000], "internal_node_id": "0.0-173.0", "trial": 6, "time_elapsed": 1077783, "serialpos": 23, "key_press": -1, "wordID": 497, "type": "PRES_VIS", "trial_index": 236}, "uniqueid": "MTK3016:30MVJZJNHNKTE4ABV2S37B0UBP29J7", "dateTime": 1520021493384}, {"current_trial": 237, "trialdata": {"rt": -1, "trial_type": "single-stim", "stimulus": "", "internal_node_id": "0.0-174.0-0.0", "time_elapsed": 1079966, "key_press": -1, "type": "PRE_RECALL_DELAY", "trial_index": 237}, "uniqueid": "MTK3016:30MVJZJNHNKTE4ABV2S37B0UBP29J7", "dateTime": 1520021495567}, {"current_trial": 238, "trialdata": {"rt": -1000, "trial_type": "single-audio", "stimulus": "/static/audio/400Hz.wav", "internal_node_id": "0.0-175.0", "time_elapsed": 1080469, "key_press": -1, "type": "PRE_RECALL_ALERT", "trial_index": 238}, "uniqueid": "MTK3016:30MVJZJNHNKTE4ABV2S37B0UBP29J7", "dateTime": 1520021496070}, {"current_trial": 239, "trialdata": {"rt": [7611, 8950, 11589, 13549, 14963, 22573, 27275, 29611, 31112, 46456, 52357], "recwords": ["drink", "ve", "velvet", "motel", "drink", "badger", "pork", "bacon", "beef", "scarecrow", "cowboy"], "key_times": [1463, 1683, 4826, 5053, 5293, 5812, 5941, 6951, 7286, 7611, 8199, 8429, 8950, 9942, 10187, 10716, 10931, 11188, 11358, 11589, 12185, 12380, 12824, 13036, 13205, 13549, 13893, 14060, 14172, 14381, 14604, 14963, 21263, 21397, 21668, 21903, 22053, 22323, 22573, 25821, 26043, 26245, 26435, 26755, 27019, 27275, 27621, 27780, 27981, 28059, 28781, 29097, 29309, 29611, 29925, 30340, 30527, 30748, 31112, 44001, 44195, 44573, 44740, 44867, 45293, 45580, 45781, 46222, 46456, 50519, 50645, 50847, 51255, 51483, 51943, 52357], "trial_type": "free-recall", "conditions": [24, 1600, "v", 12000], "internal_node_id": "0.0-176.0-0.0", "key_presses": [68, 82, 73, 66, 74, 8, 8, 78, 75, 13, 86, 69, 188, 86, 69, 76, 86, 69, 84, 13, 77, 79, 84, 69, 76, 13, 68, 82, 73, 78, 75, 13, 66, 65, 68, 71, 69, 82, 13, 80, 79, 82, 84, 8, 75, 13, 66, 65, 67, 75, 8, 79, 78, 13, 66, 69, 69, 70, 13, 83, 67, 65, 82, 69, 67, 82, 79, 87, 13, 67, 79, 87, 66, 79, 89, 13], "trial": 6, "time_elapsed": 1140480, "type": "FREE_RECALL", "trial_index": 239}, "uniqueid": "MTK3016:30MVJZJNHNKTE4ABV2S37B0UBP29J7", "dateTime": 1520021556101}, {"current_trial": 240, "trialdata": {"rt": 1546, "trial_type": "text", "internal_node_id": "0.0-177.0", "time_elapsed": 1144050, "key_press": 32, "type": "INSTRUCTIONS", "trial_index": 240}, "uniqueid": "MTK3016:30MVJZJNHNKTE4ABV2S37B0UBP29J7", "dateTime": 1520021559651}, {"current_trial": 241, "trialdata": {"rt": [2357, 4807, 7825, 10193], "trial_type": "math-distractor", "key_times": [1813, 1943, 2357, 4637, 4807, 7273, 7497, 7825, 9573, 10031, 10193], "responses": ["12", "7", "20", "15"], "num2": [5, 2, 4, 7, 9], "num3": [1, 3, 9, 5, 6], "conditions": [12, 1600, "v", 24000], "internal_node_id": "0.0-178.0", "key_presses": [49, 50, 13, 55, 13, 50, 48, 13, 49, 53, 13], "trial": 7, "time_elapsed": 1170063, "type": "DISTRACTOR", "trial_index": 241, "num1": [6, 2, 7, 3, 3]}, "uniqueid": "MTK3016:30MVJZJNHNKTE4ABV2S37B0UBP29J7", "dateTime": 1520021585666}, {"current_trial": 242, "trialdata": {"rt": -1, "trial_type": "single-stim", "stimulus": "<p id=\"stim\">10</p>", "internal_node_id": "0.0-179.0-0.0", "time_elapsed": 1173079, "key_press": -1, "trial_index": 242}, "uniqueid": "MTK3016:30MVJZJNHNKTE4ABV2S37B0UBP29J7", "dateTime": 1520021588681}, {"current_trial": 243, "trialdata": {"rt": -1, "trial_type": "single-stim", "stimulus": "<p id=\"stim\">9</p>", "internal_node_id": "0.0-179.0-1.0", "time_elapsed": 1174084, "key_press": -1, "trial_index": 243}, "uniqueid": "MTK3016:30MVJZJNHNKTE4ABV2S37B0UBP29J7", "dateTime": 1520021589690}, {"current_trial": 244, "trialdata": {"rt": -1, "trial_type": "single-stim", "stimulus": "<p id=\"stim\">8</p>", "internal_node_id": "0.0-179.0-2.0", "time_elapsed": 1175094, "key_press": -1, "trial_index": 244}, "uniqueid": "MTK3016:30MVJZJNHNKTE4ABV2S37B0UBP29J7", "dateTime": 1520021590699}, {"current_trial": 245, "trialdata": {"rt": -1, "trial_type": "single-stim", "stimulus": "<p id=\"stim\">7</p>", "internal_node_id": "0.0-179.0-3.0", "time_elapsed": 1176102, "key_press": -1, "trial_index": 245}, "uniqueid": "MTK3016:30MVJZJNHNKTE4ABV2S37B0UBP29J7", "dateTime": 1520021591704}, {"current_trial": 246, "trialdata": {"rt": -1, "trial_type": "single-stim", "stimulus": "<p id=\"stim\">6</p>", "internal_node_id": "0.0-179.0-4.0", "time_elapsed": 1177109, "key_press": -1, "trial_index": 246}, "uniqueid": "MTK3016:30MVJZJNHNKTE4ABV2S37B0UBP29J7", "dateTime": 1520021592710}, {"current_trial": 247, "trialdata": {"rt": -1, "trial_type": "single-stim", "stimulus": "<p id=\"stim\">5</p>", "internal_node_id": "0.0-179.0-5.0", "time_elapsed": 1178127, "key_press": -1, "trial_index": 247}, "uniqueid": "MTK3016:30MVJZJNHNKTE4ABV2S37B0UBP29J7", "dateTime": 1520021593730}, {"current_trial": 248, "trialdata": {"rt": -1, "trial_type": "single-stim", "stimulus": "<p id=\"stim\">4</p>", "internal_node_id": "0.0-179.0-6.0", "time_elapsed": 1179137, "key_press": -1, "trial_index": 248}, "uniqueid": "MTK3016:30MVJZJNHNKTE4ABV2S37B0UBP29J7", "dateTime": 1520021594739}, {"current_trial": 249, "trialdata": {"rt": -1, "trial_type": "single-stim", "stimulus": "<p id=\"stim\">3</p>", "internal_node_id": 