{"assignmentId": "3G5F9DBFOQ4VK5SOA3UENG9CQM3HV7", "workerId": "MTK3628", "questiondata": {"avail_screen_height": 972, "color_depth": 24, "screen_width": 1920, "pixel_depth": 24, "avail_screen_width": 1920, "screen_height": 1080}, "bonus": 0, "hitId": "3BO3NEOQM0O91S2GFOG12L0UKBOIAJ", "counterbalance": 1563, "useragent": "Mozilla/5.0 (Macintosh; Intel Mac OS X 10_13_2) AppleWebKit/537.36 (KHTML, like Gecko) Chrome/64.0.3282.186 Safari/537.36", "eventdata": [{"eventtype": "initialized", "interval": 0, "value": null, "timestamp": 1520870049871}, {"eventtype": "window_resize", "interval": 0, "value": [1920, 1006], "timestamp": 1520870049871}, {"eventtype": "focus", "interval": 42305, "value": "off", "timestamp": 1520870092176}, {"eventtype": "focus", "interval": 162, "value": "on", "timestamp": 1520870092338}, {"eventtype": "focus", "interval": 9794, "value": "off", "timestamp": 1520870102132}, {"eventtype": "focus", "interval": 174, "value": "on", "timestamp": 1520870102306}, {"eventtype": "focus", "interval": 4476, "value": "off", "timestamp": 1520870106782}, {"eventtype": "focus", "interval": 174, "value": "on", "timestamp": 1520870106956}, {"eventtype": "focus", "interval": 3832, "value": "off", "timestamp": 1520870110788}, {"eventtype": "focus", "interval": 11341, "value": "on", "timestamp": 1520870122129}, {"eventtype": "focus", "interval": 878830, "value": "off", "timestamp": 1520871000959}, {"eventtype": "focus", "interval": 3135, "value": "on", "timestamp": 1520871004094}, {"eventtype": "focus", "interval": 88652, "value": "off", "timestamp": 1520871092746}, {"eventtype": "focus", "interval": 1912, "value": "on", "timestamp": 1520871094658}, {"eventtype": "focus", "interval": 150225, "value": "off", "timestamp": 1520871244883}, {"eventtype": "focus", "interval": 8843, "value": "on", "timestamp": 1520871253726}, {"eventtype": "focus", "interval": 159074, "value": "off", "timestamp": 1520871412800}, {"eventtype": "focus", "interval": 2296, "value": "on", "timestamp": 1520871415096}, {"eventtype": "focus", "interval": 296795, "value": "off", "timestamp": 1520871711891}, {"eventtype": "focus", "interval": 3657, "value": "on", "timestamp": 1520871715548}, {"eventtype": "focus", "interval": 19575, "value": "off", "timestamp": 1520871735123}, {"eventtype": "focus", "interval": 12031, "value": "on", "timestamp": 1520871747154}, {"eventtype": "focus", "interval": 330476, "value": "off", "timestamp": 1520872077630}, {"eventtype": "focus", "interval": 3141, "value": "on", "timestamp": 1520872080771}, {"eventtype": "focus", "interval": 114093, "value": "off", "timestamp": 1520872194864}, {"eventtype": "focus", "interval": 1736, "value": "on", "timestamp": 1520872196600}, {"eventtype": "focus", "interval": 168282, "value": "off", "timestamp": 1520872364882}, {"eventtype": "focus", "interval": 2670, "value": "on", "timestamp": 1520872367552}, {"eventtype": "focus", "interval": 172088, "value": "off", "timestamp": 1520872539640}, {"eventtype": "focus", "interval": 2450, "value": "on", "timestamp": 1520872542090}, {"eventtype": "focus", "interval": 127388, "value": "off", "timestamp": 1520872669478}, {"eventtype": "focus", "interval": 2734, "value": "on", "timestamp": 1520872672212}, {"eventtype": "focus", "interval": 122219, "value": "off", "timestamp": 1520872794431}, {"eventtype": "focus", "interval": 1815, "value": "on", "timestamp": 1520872796246}, {"eventtype": "focus", "interval": 322079, "value": "off", "timestamp": 1520873118325}, {"eventtype": "focus", "interval": 33582, "value": "on", "timestamp": 1520873151907}, {"eventtype": "focus", "interval": 1075, "value": "off", "timestamp": 1520873152982}, {"eventtype": "focus", "interval": 23882, "value": "on", "timestamp": 1520873176864}], "data": [{"current_trial": 0, "trialdata": {"rt": 1948, "trial_type": "text", "internal_node_id": "0.0-0.0", "time_elapsed": 1949, "key_press": 32, "type": "INSTRUCTIONS", "trial_index": 0}, "uniqueid": "MTK3628:3G5F9DBFOQ4VK5SOA3UENG9CQM3HV7", "dateTime": 1520870053007}, {"current_trial": 1, "trialdata": {"rt": 23615, "trial_type": "text", "internal_node_id": "0.0-1.0", "time_elapsed": 25565, "key_press": 32, "type": "INSTRUCTIONS", "trial_index": 1}, "uniqueid": "MTK3628:3G5F9DBFOQ4VK5SOA3UENG9CQM3HV7", "dateTime": 1520870076623}, {"current_trial": 2, "trialdata": {"rt": [6779], "trial_type": "audio-test", "responses": ["ocean"], "internal_node_id": "0.0-2.0", "time_elapsed": 32350, "type": "AUDIO_TEST", "trial_index": 2}, "uniqueid": "MTK3628:3G5F9DBFOQ4VK5SOA3UENG9CQM3HV7", "dateTime": 1520870083407}, {"current_trial": 3, "trialdata": {"rt": [7244, 15852, 22140, 42413], "trial_type": "audio-test", "responses": ["cristal", "cristel", "cristal", "crystal"], "internal_node_id": "0.0-3.0", "time_elapsed": 74767, "type": "AUDIO_TEST", "trial_index": 3}, "uniqueid": "MTK3628:3G5F9DBFOQ4VK5SOA3UENG9CQM3HV7", "dateTime": 1520870125824}, {"current_trial": 4, "trialdata": {"rt": [8724], "trial_type": "audio-test", "responses": ["spice"], "internal_node_id": "0.0-4.0", "time_elapsed": 83495, "type": "AUDIO_TEST", "trial_index": 4}, "uniqueid": "MTK3628:3G5F9DBFOQ4VK5SOA3UENG9CQM3HV7", "dateTime": 1520870134552}, {"current_trial": 5, "trialdata": {"rt": 20778, "trial_type": "survey-text", "responses": "{\"Q0\":\"12\",\"Q1\":\"7\",\"Q2\":\"3\"}", "internal_node_id": "0.0-5.0", "time_elapsed": 105027, "type": "SLEEP_SURVEY", "trial_index": 5}, "uniqueid": "MTK3628:3G5F9DBFOQ4VK5SOA3UENG9CQM3HV7", "dateTime": 1520870156084}, {"current_trial": 6, "trialdata": {"rt": 39352, "trial_type": "text", "internal_node_id": "0.0-6.0", "time_elapsed": 145385, "key_press": 32, "type": "INSTRUCTIONS", "trial_index": 6}, "uniqueid": "MTK3628:3G5F9DBFOQ4VK5SOA3UENG9CQM3HV7", "dateTime": 1520870196442}, {"current_trial": 7, "trialdata": {"rt": 2264, "trial_type": "text", "internal_node_id": "0.0-7.0", "time_elapsed": 148152, "key_press": 32, "type": "INSTRUCTIONS", "trial_index": 7}, "uniqueid": "MTK3628:3G5F9DBFOQ4VK5SOA3UENG9CQM3HV7", "dateTime": 1520870199209}, {"current_trial": 8, "trialdata": {"rt": 1247, "trial_type": "text", "internal_node_id": "0.0-8.0", "time_elapsed": 149903, "key_press": 32, "type": "INSTRUCTIONS", "trial_index": 8}, "uniqueid": "MTK3628:3G5F9DBFOQ4VK5SOA3UENG9CQM3HV7", "dateTime": 1520870200960}, {"current_trial": 9, "trialdata": {"rt": [5856, 9969, 13617, 17376], "trial_type": "math-distractor", "key_times": [4585, 5081, 5856, 8904, 9536, 9969, 12712, 13152, 13617, 16584, 16888, 17376], "responses": ["16", "15", "14", "14"], "num2": [5, 8, 3, 6, 8], "num3": [7, 5, 6, 3, 9], "conditions": [18, 1200, "v", 18000], "internal_node_id": "0.0-9.0", "key_presses": [49, 54, 13, 49, 53, 13, 49, 52, 13, 49, 52, 13], "trial": 0, "time_elapsed": 168914, "type": "DISTRACTOR", "trial_index": 9, "num1": [4, 2, 5, 5, 8]}, "uniqueid": "MTK3628:3G5F9DBFOQ4VK5SOA3UENG9CQM3HV7", "dateTime": 1520870219971}, {"current_trial": 10, "trialdata": {"rt": -1, "trial_type": "single-stim", "stimulus": "<p id=\"stim\">10</p>", "internal_node_id": "0.0-10.0-0.0", "time_elapsed": 171921, "key_press": -1, "trial_index": 10}, "uniqueid": "MTK3628:3G5F9DBFOQ4VK5SOA3UENG9CQM3HV7", "dateTime": 1520870222978}, {"current_trial": 11, "trialdata": {"rt": -1, "trial_type": "single-stim", "stimulus": "<p id=\"stim\">9</p>", "internal_node_id": "0.0-10.0-1.0", "time_elapsed": 172924, "key_press": -1, "trial_index": 11}, "uniqueid": "MTK3628:3G5F9DBFOQ4VK5SOA3UENG9CQM3HV7", "dateTime": 1520870223981}, {"current_trial": 12, "trialdata": {"rt": -1, "trial_type": "single-stim", "stimulus": "<p id=\"stim\">8</p>", "internal_node_id": "0.0-10.0-2.0", "time_elapsed": 173929, "key_press": -1, "trial_index": 12}, "uniqueid": "MTK3628:3G5F9DBFOQ4VK5SOA3UENG9CQM3HV7", "dateTime": 1520870224986}, {"current_trial": 13, "trialdata": {"rt": -1, "trial_type": "single-stim", "stimulus": "<p id=\"stim\">7</p>", "internal_node_id": "0.0-10.0-3.0", "time_elapsed": 174932, "key_press": -1, "trial_index": 13}, "uniqueid": "MTK3628:3G5F9DBFOQ4VK5SOA3UENG9CQM3HV7", "dateTime": 1520870225989}, {"current_trial": 14, "trialdata": {"rt": -1, "trial_type": "single-stim", "stimulus": "<p id=\"stim\">6</p>", "internal_node_id": "0.0-10.0-4.0", "time_elapsed": 175936, "key_press": -1, "trial_index": 14}, "uniqueid": "MTK3628:3G5F9DBFOQ4VK5SOA3UENG9CQM3HV7", "dateTime": 1520870226993}, {"current_trial": 15, "trialdata": {"rt": -1, "trial_type": "single-stim", "stimulus": "<p id=\"stim\">5</p>", "internal_node_id": "0.0-10.0-5.0", "time_elapsed": 176940, "key_press": -1, "trial_index": 15}, "uniqueid": "MTK3628:3G5F9DBFOQ4VK5SOA3UENG9CQM3HV7", "dateTime": 1520870227997}, {"current_trial": 16, "trialdata": {"rt": -1, "trial_type": "single-stim", "stimulus": "<p id=\"stim\">4</p>", "internal_node_id": "0.0-10.0-6.0", "time_elapsed": 177944, "key_press": -1, "trial_index": 16}, "uniqueid": "MTK3628:3G5F9DBFOQ4VK5SOA3UENG9CQM3HV7", "dateTime": 1520870229001}, {"current_trial": 17, "trialdata": {"rt": -1, "trial_type": "single-stim", "stimulus": "<p id=\"stim\">3</p>", "internal_node_id": "0.0-10.0-7.0", "time_elapsed": 178949, "key_press": -1, "trial_index": 17}, "uniqueid": "MTK3628:3G5F9DBFOQ4VK5SOA3UENG9CQM3HV7", "dateTime": 1520870230006}, {"current_trial": 18, "trialdata": {"rt": -1, "trial_type": "single-stim", "stimulus": "<p id=\"stim\">2</p>", "internal_node_id": "0.0-10.0-8.0", "time_elapsed": 179953, "key_press": -1, "trial_index": 18}, "uniqueid": "MTK3628:3G5F9DBFOQ4VK5SOA3UENG9CQM3HV7", "dateTime": 1520870231010}, {"current_trial": 19, "trialdata": {"rt": -1, "trial_type": "single-stim", "stimulus": "<p id=\"stim\">1</p>", "internal_node_id": "0.0-10.0-9.0", "time_elapsed": 180957, "key_press": -1, "trial_index": 19}, "uniqueid": "MTK3628:3G5F9DBFOQ4VK5SOA3UENG9CQM3HV7", "dateTime": 1520870232014}, {"current_trial": 20, "trialdata": {"rt": -1, "trial_type": "single-stim", "stimulus": "<p id=\"stim\">+</p>", "internal_node_id": "0.0-11.0-0.0", "time_elapsed": 182460, "key_press": -1, "type": "FIXATION", "trial_index": 20}, "uniqueid": "MTK3628:3G5F9DBFOQ4VK5SOA3UENG9CQM3HV7", "dateTime": 1520870233517}, {"current_trial": 21, "trialdata": {"rt": -1, "trial_type": "single-stim", "word": "drawing", "stimulus": "<p id=\"stim\">DRAWING</p>", "conditions": [18, 1200, "v", 18000], "internal_node_id": "0.0-12.0", "trial": 0, "time_elapsed": 183662, "serialpos": 0, "key_press": -1, "wordID": 493, "type": "PRES_VIS", "trial_index": 21}, "uniqueid": "MTK3628:3G5F9DBFOQ4VK5SOA3UENG9CQM3HV7", "dateTime": 1520870234719}, {"current_trial": 22, "trialdata": {"rt": -1, "trial_type": "single-stim", "word": "diner", "stimulus": "<p id=\"stim\">DINER</p>", "conditions": [18, 1200, "v", 18000], "internal_node_id": "0.0-13.0", "trial": 0, "time_elapsed": 186041, "serialpos": 1, "key_press": -1, "wordID": 466, "type": "PRES_VIS", "trial_index": 22}, "uniqueid": "MTK3628:3G5F9DBFOQ4VK5SOA3UENG9CQM3HV7", "dateTime": 1520870237098}, {"current_trial": 23, "trialdata": {"rt": -1, "trial_type": "single-stim", "word": "tourist", "stimulus": "<p id=\"stim\">TOURIST</p>", "conditions": [18, 1200, "v", 18000], "internal_node_id": "0.0-14.0", "trial": 0, "time_elapsed": 188398, "serialpos": 2, "key_press": -1, "wordID": 1487, "type": "PRES_VIS", "trial_index": 23}, "uniqueid": "MTK3628:3G5F9DBFOQ4VK5SOA3UENG9CQM3HV7", "dateTime": 1520870239455}, {"current_trial": 24, "trialdata": {"rt": -1, "trial_type": "single-stim", "word": "postage", "stimulus": "<p id=\"stim\">POSTAGE</p>", "conditions": [18, 1200, "v", 18000], "internal_node_id": "0.0-15.0", "trial": 0, "time_elapsed": 190431, "serialpos": 3, "key_press": -1, "wordID": 1112, "type": "PRES_VIS", "trial_index": 24}, "uniqueid": "MTK3628:3G5F9DBFOQ4VK5SOA3UENG9CQM3HV7", "dateTime": 1520870241488}, {"current_trial": 25, "trialdata": {"rt": -1, "trial_type": "single-stim", "word": "seal", "stimulus": "<p id=\"stim\">SEAL</p>", "conditions": [18, 1200, "v", 18000], "internal_node_id": "0.0-16.0", "trial": 0, "time_elapsed": 192798, "serialpos": 4, "key_press": -1, "wordID": 1261, "type": "PRES_VIS", "trial_index": 25}, "uniqueid": "MTK3628:3G5F9DBFOQ4VK5SOA3UENG9CQM3HV7", "dateTime": 1520870243855}, {"current_trial": 26, "trialdata": {"rt": -1, "trial_type": "single-stim", "word": "banquet", "stimulus": "<p id=\"stim\">BANQUET</p>", "conditions": [18, 1200, "v", 18000], "internal_node_id": "0.0-17.0", "trial": 0, "time_elapsed": 195189, "serialpos": 5, "key_press": -1, "wordID": 85, "type": "PRES_VIS", "trial_index": 26}, "uniqueid": "MTK3628:3G5F9DBFOQ4VK5SOA3UENG9CQM3HV7", "dateTime": 1520870246246}, {"current_trial": 27, "trialdata": {"rt": -1, "trial_type": "single-stim", "word": "nightgown", "stimulus": "<p id=\"stim\">NIGHTGOWN</p>", "conditions": [18, 1200, "v", 18000], "internal_node_id": "0.0-18.0", "trial": 0, "time_elapsed": 197284, "serialpos": 6, "key_press": -1, "wordID": 952, "type": "PRES_VIS", "trial_index": 27}, "uniqueid": "MTK3628:3G5F9DBFOQ4VK5SOA3UENG9CQM3HV7", "dateTime": 1520870248342}, {"current_trial": 28, "trialdata": {"rt": -1, "trial_type": "single-stim", "word": "crown", "stimulus": "<p id=\"stim\">CROWN</p>", "conditions": [18, 1200, "v", 18000], "internal_node_id": "0.0-19.0", "trial": 0, "time_elapsed": 199652, "serialpos": 7, "key_press": -1, "wordID": 414, "type": "PRES_VIS", "trial_index": 28}, "uniqueid": "MTK3628:3G5F9DBFOQ4VK5SOA3UENG9CQM3HV7", "dateTime": 1520870250709}, {"current_trial": 29, "trialdata": {"rt": -1, "trial_type": "single-stim", "word": "grave", "stimulus": "<p id=\"stim\">GRAVE</p>", "conditions": [18, 1200, "v", 18000], "internal_node_id": "0.0-20.0", "trial": 0, "time_elapsed": 201684, "serialpos": 8, "key_press": -1, "wordID": 657, "type": "PRES_VIS", "trial_index": 29}, "uniqueid": "MTK3628:3G5F9DBFOQ4VK5SOA3UENG9CQM3HV7", "dateTime": 1520870252741}, {"current_trial": 30, "trialdata": {"rt": -1, "trial_type": "single-stim", "word": "eagle", "stimulus": "<p id=\"stim\">EAGLE</p>", "conditions": [18, 1200, "v", 18000], "internal_node_id": "0.0-21.0", "trial": 0, "time_elapsed": 203845, "serialpos": 9, "key_press": -1, "wordID": 511, "type": "PRES_VIS", "trial_index": 30}, "uniqueid": "MTK3628:3G5F9DBFOQ4VK5SOA3UENG9CQM3HV7", "dateTime": 1520870254902}, {"current_trial": 31, "trialdata": {"rt": -1, "trial_type": "single-stim", "word": "lover", "stimulus": "<p id=\"stim\">LOVER</p>", "conditions": [18, 1200, "v", 18000], "internal_node_id": "0.0-22.0", "trial": 0, "time_elapsed": 206153, "serialpos": 10, "key_press": -1, "wordID": 845, "type": "PRES_VIS", "trial_index": 31}, "uniqueid": "MTK3628:3G5F9DBFOQ4VK5SOA3UENG9CQM3HV7", "dateTime": 1520870257210}, {"current_trial": 32, "trialdata": {"rt": -1, "trial_type": "single-stim", "word": "razor", "stimulus": "<p id=\"stim\">RAZOR</p>", "conditions": [18, 1200, "v", 18000], "internal_node_id": "0.0-23.0", "trial": 0, "time_elapsed": 208428, "serialpos": 11, "key_press": -1, "wordID": 1170, "type": "PRES_VIS", "trial_index": 32}, "uniqueid": "MTK3628:3G5F9DBFOQ4VK5SOA3UENG9CQM3HV7", "dateTime": 1520870259485}, {"current_trial": 33, "trialdata": {"rt": -1, "trial_type": "single-stim", "word": "message", "stimulus": "<p id=\"stim\">MESSAGE</p>", "conditions": [18, 1200, "v", 18000], "internal_node_id": "0.0-24.0", "trial": 0, "time_elapsed": 210813, "serialpos": 12, "key_press": -1, "wordID": 887, "type": "PRES_VIS", "trial_index": 33}, "uniqueid": "MTK3628:3G5F9DBFOQ4VK5SOA3UENG9CQM3HV7", "dateTime": 1520870261870}, {"current_trial": 34, "trialdata": {"rt": -1, "trial_type": "single-stim", "word": "ox", "stimulus": "<p id=\"stim\">OX</p>", "conditions": [18, 1200, "v", 18000], "internal_node_id": "0.0-25.0", "trial": 0, "time_elapsed": 213095, "serialpos": 13, "key_press": -1, "wordID": 993, "type": "PRES_VIS", "trial_index": 34}, "uniqueid": "MTK3628:3G5F9DBFOQ4VK5SOA3UENG9CQM3HV7", "dateTime": 1520870264152}, {"current_trial": 35, "trialdata": {"rt": -1, "trial_type": "single-stim", "word": "mister", "stimulus": "<p id=\"stim\">MISTER</p>", "conditions": [18, 1200, "v", 18000], "internal_node_id": "0.0-26.0", "trial": 0, "time_elapsed": 215474, "serialpos": 14, "key_press": -1, "wordID": 900, "type": "PRES_VIS", "trial_index": 35}, "uniqueid": "MTK3628:3G5F9DBFOQ4VK5SOA3UENG9CQM3HV7", "dateTime": 1520870266531}, {"current_trial": 36, "trialdata": {"rt": -1, "trial_type": "single-stim", "word": "sandwich", "stimulus": "<p id=\"stim\">SANDWICH</p>", "conditions": [18, 1200, "v", 18000], "internal_node_id": "0.0-27.0", "trial": 0, "time_elapsed": 217494, "serialpos": 15, "key_press": -1, "wordID": 1231, "type": "PRES_VIS", "trial_index": 36}, "uniqueid": "MTK3628:3G5F9DBFOQ4VK5SOA3UENG9CQM3HV7", "dateTime": 1520870268551}, {"current_trial": 37, "trialdata": {"rt": -1, "trial_type": "single-stim", "word": "sketch", "stimulus": "<p id=\"stim\">SKETCH</p>", "conditions": [18, 1200, "v", 18000], "internal_node_id": "0.0-28.0", "trial": 0, "time_elapsed": 219828, "serialpos": 16, "key_press": -1, "wordID": 1314, "type": "PRES_VIS", "trial_index": 37}, "uniqueid": "MTK3628:3G5F9DBFOQ4VK5SOA3UENG9CQM3HV7", "dateTime": 1520870270885}, {"current_trial": 38, "trialdata": {"rt": -1, "trial_type": "single-stim", "word": "chest", "stimulus": "<p id=\"stim\">CHEST</p>", "conditions": [18, 1200, "v", 18000], "internal_node_id": "0.0-29.0", "trial": 0, "time_elapsed": 222143, "serialpos": 17, "key_press": -1, "wordID": 294, "type": "PRES_VIS", "trial_index": 38}, "uniqueid": "MTK3628:3G5F9DBFOQ4VK5SOA3UENG9CQM3HV7", "dateTime": 1520870273200}, {"current_trial": 39, "trialdata": {"rt": -1, "trial_type": "single-stim", "stimulus": "", "internal_node_id": "0.0-30.0-0.0", "time_elapsed": 224534, "key_press": -1, "type": "PRE_RECALL_DELAY", "trial_index": 39}, "uniqueid": "MTK3628:3G5F9DBFOQ4VK5SOA3UENG9CQM3HV7", "dateTime": 1520870275591}, {"current_trial": 40, "trialdata": {"rt": -1000, "trial_type": "single-audio", "stimulus": "/static/audio/400Hz.wav", "internal_node_id": "0.0-31.0", "time_elapsed": 225037, "key_press": -1, "type": "PRE_RECALL_ALERT", "trial_index": 40}, "uniqueid": "MTK3628:3G5F9DBFOQ4VK5SOA3UENG9CQM3HV7", "dateTime": 1520870276094}, {"current_trial": 41, "trialdata": {"rt": [8475, 12643, 15195, 21275, 24532, 27580, 30676, 46068], "recwords": ["ox", "drawing", "mister", "lover", "grave", "crown", "sandwich", ""], "key_times": [3021, 3811, 5315, 5530, 6322, 6683, 8035, 8475, 9660, 10219, 10586, 10835, 11091, 11667, 12035, 12643, 13467, 13707, 13971, 14155, 14332, 14547, 15195, 19451, 19651, 20011, 20307, 20564, 21275, 22987, 23243, 23563, 23899, 24091, 24532, 25068, 25379, 25700, 26964, 27155, 27580, 27900, 28107, 28380, 28619, 28987, 29259, 29891, 30004, 30676, 46068], "trial_type": "free-recall", "conditions": [18, 1200, "v", 18000], "internal_node_id": "0.0-32.0-0.0", "key_presses": [79, 88, 8, 8, 20, 79, 88, 13, 68, 82, 65, 87, 73, 78, 71, 13, 77, 73, 83, 84, 69, 82, 13, 76, 79, 86, 69, 82, 13, 71, 82, 65, 86, 69, 13, 67, 82, 79, 87, 78, 13, 83, 65, 78, 68, 87, 73, 67, 72, 13, 13], "trial": 0, "time_elapsed": 285043, "type": "FREE_RECALL", "trial_index": 41}, "uniqueid": "MTK3628:3G5F9DBFOQ4VK5SOA3UENG9CQM3HV7", "dateTime": 1520870336101}, {"current_trial": 42, "trialdata": {"rt": 2330, "trial_type": "text", "internal_node_id": "0.0-33.0", "time_elapsed": 289380, "key_press": 32, "type": "INSTRUCTIONS", "trial_index": 42}, "uniqueid": "MTK3628:3G5F9DBFOQ4VK5SOA3UENG9CQM3HV7", "dateTime": 1520870340437}, {"current_trial": 43, "trialdata": {"rt": [3601, 7082, 9793, 14081], "trial_type": "math-distractor", "key_times": [2369, 3025, 3601, 6002, 6738, 7082, 9154, 9370, 9793, 12929, 13665, 14081, 16298, 17322], "responses": ["16", "19", "12", "18"], "num2": [8, 5, 3, 9, 3], "num3": [2, 9, 3, 7, 3], "conditions": [18, 1200, "v", 18000], "internal_node_id": "0.0-34.0", "key_presses": [49, 54, 13, 49, 57, 13, 49, 50, 13, 49, 56, 13, 53, 8], "trial": 1, "time_elapsed": 309390, "type": "DISTRACTOR", "trial_index": 43, "num1": [6, 5, 6, 2, 1]}, "uniqueid": "MTK3628:3G5F9DBFOQ4VK5SOA3UENG9CQM3HV7", "dateTime": 1520870360447}, {"current_trial": 44, "trialdata": {"rt": -1, "trial_type": "single-stim", "stimulus": "<p id=\"stim\">10</p>", "internal_node_id": "0.0-35.0-0.0", "time_elapsed": 312396, "key_press": -1, "trial_index": 44}, "uniqueid": "MTK3628:3G5F9DBFOQ4VK5SOA3UENG9CQM3HV7", "dateTime": 1520870363453}, {"current_trial": 45, "trialdata": {"rt": -1, "trial_type": "single-stim", "stimulus": "<p id=\"stim\">9</p>", "internal_node_id": "0.0-35.0-1.0", "time_elapsed": 313400, "key_press": -1, "trial_index": 45}, "uniqueid": "MTK3628:3G5F9DBFOQ4VK5SOA3UENG9CQM3HV7", "dateTime": 1520870364457}, {"current_trial": 46, "trialdata": {"rt": -1, "trial_type": "single-stim", "stimulus": "<p id=\"stim\">8</p>", "internal_node_id": "0.0-35.0-2.0", "time_elapsed": 314404, "key_press": -1, "trial_index": 46}, "uniqueid": "MTK3628:3G5F9DBFOQ4VK5SOA3UENG9CQM3HV7", "dateTime": 1520870365461}, {"current_trial": 47, "trialdata": {"rt": -1, "trial_type": "single-stim", "stimulus": "<p id=\"stim\">7</p>", "internal_node_id": "0.0-35.0-3.0", "time_elapsed": 315408, "key_press": -1, "trial_index": 47}, "uniqueid": "MTK3628:3G5F9DBFOQ4VK5SOA3UENG9CQM3HV7", "dateTime": 1520870366465}, {"current_trial": 48, "trialdata": {"rt": -1, "trial_type": "single-stim", "stimulus": "<p id=\"stim\">6</p>", "internal_node_id": "0.0-35.0-4.0", "time_elapsed": 316412, "key_press": -1, "trial_index": 48}, "uniqueid": "MTK3628:3G5F9DBFOQ4VK5SOA3UENG9CQM3HV7", "dateTime": 1520870367469}, {"current_trial": 49, "trialdata": {"rt": -1, "trial_type": "single-stim", "stimulus": "<p id=\"stim\">5</p>", "internal_node_id": "0.0-35.0-5.0", "time_elapsed": 317416, "key_press": -1, "trial_index": 49}, "uniqueid": "MTK3628:3G5F9DBFOQ4VK5SOA3UENG9CQM3HV7", "dateTime": 1520870368474}, {"current_trial": 50, "trialdata": {"rt": -1, "trial_type": "single-stim", "stimulus": "<p id=\"stim\">4</p>", "internal_node_id": "0.0-35.0-6.0", "time_elapsed": 318421, "key_press": -1, "trial_index": 50}, "uniqueid": "MTK3628:3G5F9DBFOQ4VK5SOA3UENG9CQM3HV7", "dateTime": 1520870369478}, {"current_trial": 51, "trialdata": {"rt": -1, "trial_type": "single-stim", "stimulus": "<p id=\"stim\">3</p>", "internal_node_id": "0.0-35.0-7.0", "time_elapsed": 319425, "key_press": -1, "trial_index": 51}, "uniqueid": "MTK3628:3G5F9DBFOQ4VK5SOA3UENG9CQM3HV7", "dateTime": 1520870370482}, {"current_trial": 52, "trialdata": {"rt": -1, "trial_type": "single-stim", "stimulus": "<p id=\"stim\">2</p>", "internal_node_id": "0.0-35.0-8.0", "time_elapsed": 320428, "key_press": -1, "trial_index": 52}, "uniqueid": "MTK3628:3G5F9DBFOQ4VK5SOA3UENG9CQM3HV7", "dateTime": 1520870371485}, {"current_trial": 53, "trialdata": {"rt": -1, "trial_type": "single-stim", "stimulus": "<p id=\"stim\">1</p>", "internal_node_id": "0.0-35.0-9.0", "time_elapsed": 321433, "key_press": -1, "trial_index": 53}, "uniqueid": "MTK3628:3G5F9DBFOQ4VK5SOA3UENG9CQM3HV7", "dateTime": 1520870372490}, {"current_trial": 54, "trialdata": {"rt": -1, "trial_type": "single-stim", "stimulus": "<p id=\"stim\">+</p>", "internal_node_id": "0.0-36.0-0.0", "time_elapsed": 322938, "key_press": -1, "type": "FIXATION", "trial_index": 54}, "uniqueid": "MTK3628:3G5F9DBFOQ4VK5SOA3UENG9CQM3HV7", "dateTime": 1520870373995}, {"current_trial": 55, "trialdata": {"rt": -1, "trial_type": "single-stim", "word": "turkey", "stimulus": "<p id=\"stim\">TURKEY</p>", "conditions": [18, 1200, "v", 18000], "internal_node_id": "0.0-37.0", "trial": 1, "time_elapsed": 324143, "serialpos": 0, "key_press": -1, "wordID": 1519, "type": "PRES_VIS", "trial_index": 55}, "uniqueid": "MTK3628:3G5F9DBFOQ4VK5SOA3UENG9CQM3HV7", "dateTime": 1520870375200}, {"current_trial": 56, "trialdata": {"rt": -1, "trial_type": "single-stim", "word": "france", "stimulus": "<p id=\"stim\">FRANCE</p>", "conditions": [18, 1200, "v", 18000], "internal_node_id": "0.0-38.0", "trial": 1, "time_elapsed": 326511, "serialpos": 1, "key_press": -1, "wordID": 600, "type": "PRES_VIS", "trial_index": 56}, "uniqueid": "MTK3628:3G5F9DBFOQ4VK5SOA3UENG9CQM3HV7", "dateTime": 1520870377568}, {"current_trial": 57, "trialdata": {"rt": -1, "trial_type": "single-stim", "word": "permit", "stimulus": "<p id=\"stim\">PERMIT</p>", "conditions": [18, 1200, "v", 18000], "internal_node_id": "0.0-39.0", "trial": 1, "time_elapsed": 328763, "serialpos": 2, "key_press": -1, "wordID": 1050, "type": "PRES_VIS", "trial_index": 57}, "uniqueid": "MTK3628:3G5F9DBFOQ4VK5SOA3UENG9CQM3HV7", "dateTime": 1520870379820}, {"current_trial": 58, "trialdata": {"rt": -1, "trial_type": "single-stim", "word": "trombone", "stimulus": "<p id=\"stim\">TROMBONE</p>", "conditions": [18, 1200, "v", 18000], "internal_node_id": "0.0-40.0", "trial": 1, "time_elapsed": 330818, "serialpos": 3, "key_press": -1, "wordID": 1507, "type": "PRES_VIS", "trial_index": 58}, "uniqueid": "MTK3628:3G5F9DBFOQ4VK5SOA3UENG9CQM3HV7", "dateTime": 1520870381875}, {"current_trial": 59, "trialdata": {"rt": -1, "trial_type": "single-stim", "word": "hero", "stimulus": "<p id=\"stim\">HERO</p>", "conditions": [18, 1200, "v", 18000], "internal_node_id": "0.0-41.0", "trial": 1, "time_elapsed": 333009, "serialpos": 4, "key_press": -1, "wordID": 705, "type": "PRES_VIS", "trial_index": 59}, "uniqueid": "MTK3628:3G5F9DBFOQ4VK5SOA3UENG9CQM3HV7", "dateTime": 1520870384066}, {"current_trial": 60, "trialdata": {"rt": -1, "trial_type": "single-stim", "word": "empire", "stimulus": "<p id=\"stim\">EMPIRE</p>", "conditions": [18, 1200, "v", 18000], "internal_node_id": "0.0-42.0", "trial": 1, "time_elapsed": 335037, "serialpos": 5, "key_press": -1, "wordID": 529, "type": "PRES_VIS", "trial_index": 60}, "uniqueid": "MTK3628:3G5F9DBFOQ4VK5SOA3UENG9CQM3HV7", "dateTime": 1520870386095}, {"current_trial": 61, "trialdata": {"rt": -1, "trial_type": "single-stim", "word": "judge", "stimulus": "<p id=\"stim\">JUDGE</p>", "conditions": [18, 1200, "v", 18000], "internal_node_id": "0.0-43.0", "trial": 1, "time_elapsed": 337289, "serialpos": 6, "key_press": -1, "wordID": 760, "type": "PRES_VIS", "trial_index": 61}, "uniqueid": "MTK3628:3G5F9DBFOQ4VK5SOA3UENG9CQM3HV7", "dateTime": 1520870388346}, {"current_trial": 62, "trialdata": {"rt": -1, "trial_type": "single-stim", "word": "paper", "stimulus": "<p id=\"stim\">PAPER</p>", "conditions": [18, 1200, "v", 18000], "internal_node_id": "0.0-44.0", "trial": 1, "time_elapsed": 339507, "serialpos": 7, "key_press": -1, "wordID": 1010, "type": "PRES_VIS", "trial_index": 62}, "uniqueid": "MTK3628:3G5F9DBFOQ4VK5SOA3UENG9CQM3HV7", "dateTime": 1520870390564}, {"current_trial": 63, "trialdata": {"rt": -1, "trial_type": "single-stim", "word": "ozone", "stimulus": "<p id=\"stim\">OZONE</p>", "conditions": [18, 1200, "v", 18000], "internal_node_id": "0.0-45.0", "trial": 1, "time_elapsed": 341520, "serialpos": 8, "key_press": -1, "wordID": 995, "type": "PRES_VIS", "trial_index": 63}, "uniqueid": "MTK3628:3G5F9DBFOQ4VK5SOA3UENG9CQM3HV7", "dateTime": 1520870392577}, {"current_trial": 64, "trialdata": {"rt": -1, "trial_type": "single-stim", "word": "comet", "stimulus": "<p id=\"stim\">COMET</p>", "conditions": [18, 1200, "v", 18000], "internal_node_id": "0.0-46.0", "trial": 1, "time_elapsed": 343831, "serialpos": 9, "key_press": -1, "wordID": 352, "type": "PRES_VIS", "trial_index": 64}, "uniqueid": "MTK3628:3G5F9DBFOQ4VK5SOA3UENG9CQM3HV7", "dateTime": 1520870394888}, {"current_trial": 65, "trialdata": {"rt": -1, "trial_type": "single-stim", "word": "garlic", "stimulus": "<p id=\"stim\">GARLIC</p>", "conditions": [18, 1200, "v", 18000], "internal_node_id": "0.0-47.0", "trial": 1, "time_elapsed": 345874, "serialpos": 10, "key_press": -1, "wordID": 623, "type": "PRES_VIS", "trial_index": 65}, "uniqueid": "MTK3628:3G5F9DBFOQ4VK5SOA3UENG9CQM3HV7", "dateTime": 1520870396931}, {"current_trial": 66, "trialdata": {"rt": -1, "trial_type": "single-stim", "word": "snail", "stimulus": "<p id=\"stim\">SNAIL</p>", "conditions": [18, 1200, "v", 18000], "internal_node_id": "0.0-48.0", "trial": 1, "time_elapsed": 348178, "serialpos": 11, "key_press": -1, "wordID": 1331, "type": "PRES_VIS", "trial_index": 66}, "uniqueid": "MTK3628:3G5F9DBFOQ4VK5SOA3UENG9CQM3HV7", "dateTime": 1520870399235}, {"current_trial": 67, "trialdata": {"rt": -1, "trial_type": "single-stim", "word": "beast", "stimulus": "<p id=\"stim\">BEAST</p>", "conditions": [18, 1200, "v", 18000], "internal_node_id": "0.0-49.0", "trial": 1, "time_elapsed": 350209, "serialpos": 12, "key_press": -1, "wordID": 107, "type": "PRES_VIS", "trial_index": 67}, "uniqueid": "MTK3628:3G5F9DBFOQ4VK5SOA3UENG9CQM3HV7", "dateTime": 1520870401267}, {"current_trial": 68, "trialdata": {"rt": -1, "trial_type": "single-stim", "word": "bacon", "stimulus": "<p id=\"stim\">BACON</p>", "conditions": [18, 1200, "v", 18000], "internal_node_id": "0.0-50.0", "trial": 1, "time_elapsed": 352566, "serialpos": 13, "key_press": -1, "wordID": 66, "type": "PRES_VIS", "trial_index": 68}, "uniqueid": "MTK3628:3G5F9DBFOQ4VK5SOA3UENG9CQM3HV7", "dateTime": 1520870403625}, {"current_trial": 69, "trialdata": {"rt": -1, "trial_type": "single-stim", "word": "luggage", "stimulus": "<p id=\"stim\">LUGGAGE</p>", "conditions": [18, 1200, "v", 18000], "internal_node_id": "0.0-51.0", "trial": 1, "time_elapsed": 354679, "serialpos": 14, "key_press": -1, "wordID": 846, "type": "PRES_VIS", "trial_index": 69}, "uniqueid": "MTK3628:3G5F9DBFOQ4VK5SOA3UENG9CQM3HV7", "dateTime": 1520870405736}, {"current_trial": 70, "trialdata": {"rt": -1, "trial_type": "single-stim", "word": "crab", "stimulus": "<p id=\"stim\">CRAB</p>", "conditions": [18, 1200, "v", 18000], "internal_node_id": "0.0-52.0", "trial": 1, "time_elapsed": 357047, "serialpos": 15, "key_press": -1, "wordID": 396, "type": "PRES_VIS", "trial_index": 70}, "uniqueid": "MTK3628:3G5F9DBFOQ4VK5SOA3UENG9CQM3HV7", "dateTime": 1520870408104}, {"current_trial": 71, "trialdata": {"rt": -1, "trial_type": "single-stim", "word": "teacher", "stimulus": "<p id=\"stim\">TEACHER</p>", "conditions": [18, 1200, "v", 18000], "internal_node_id": "0.0-53.0", "trial": 1, "time_elapsed": 359310, "serialpos": 16, "key_press": -1, "wordID": 1439, "type": "PRES_VIS", "trial_index": 71}, "uniqueid": "MTK3628:3G5F9DBFOQ4VK5SOA3UENG9CQM3HV7", "dateTime": 1520870410367}, {"current_trial": 72, "trialdata": {"rt": -1, "trial_type": "single-stim", "word": "lion", "stimulus": "<p id=\"stim\">LION</p>", "conditions": [18, 1200, "v", 18000], "internal_node_id": "0.0-54.0", "trial": 1, "time_elapsed": 361702, "serialpos": 17, "key_press": -1, "wordID": 826, "type": "PRES_VIS", "trial_index": 72}, "uniqueid": "MTK3628:3G5F9DBFOQ4VK5SOA3UENG9CQM3HV7", "dateTime": 1520870412759}, {"current_trial": 73, "trialdata": {"rt": -1, "trial_type": "single-stim", "stimulus": "", "internal_node_id": "0.0-55.0-0.0", "time_elapsed": 363856, "key_press": -1, "type": "PRE_RECALL_DELAY", "trial_index": 73}, "uniqueid": "MTK3628:3G5F9DBFOQ4VK5SOA3UENG9CQM3HV7", "dateTime": 1520870414913}, {"current_trial": 74, "trialdata": {"rt": -1000, "trial_type": "single-audio", "stimulus": "/static/audio/400Hz.wav", "internal_node_id": "0.0-56.0", "time_elapsed": 364356, "key_press": -1, "type": "PRE_RECALL_ALERT", "trial_index": 74}, "uniqueid": "MTK3628:3G5F9DBFOQ4VK5SOA3UENG9CQM3HV7", "dateTime": 1520870415413}, {"current_trial": 75, "trialdata": {"rt": [3767, 6783, 10312, 14335, 19752, 22968, 28135, 53096, 55696], "recwords": ["france", "garlic", "bacon", "trombone", "crab", "permit", "judge", "sanke", "beast"], "key_times": [1912, 2095, 2391, 2887, 3239, 3399, 3767, 4151, 4287, 4911, 5591, 5823, 6183, 6783, 8136, 8271, 8511, 8927, 9560, 10312, 11256, 11439, 11623, 12240, 12535, 12799, 13079, 13455, 13784, 13951, 14335, 18312, 18520, 18703, 18999, 19752, 20975, 21160, 21416, 21815, 22032, 22488, 22968, 26545, 26728, 27016, 27400, 27552, 28135, 50817, 51073, 51928, 52553, 52720, 53096, 53705, 53889, 54593, 54873, 55152, 55696], "trial_type": "free-recall", "conditions": [18, 1200, "v", 18000], "internal_node_id": "0.0-57.0-0.0", "key_presses": [70, 82, 65, 78, 67, 69, 13, 71, 65, 82, 76, 73, 67, 13, 66, 65, 67, 79, 78, 13, 84, 82, 65, 8, 79, 77, 66, 79, 78, 69, 13, 67, 82, 65, 66, 13, 80, 69, 82, 77, 73, 84, 13, 74, 85, 68, 71, 69, 13, 83, 65, 78, 75, 69, 13, 66, 69, 65, 83, 84, 13], "trial": 1, "time_elapsed": 424361, "type": "FREE_RECALL", "trial_index": 75}, "uniqueid": "MTK3628:3G5F9DBFOQ4VK5SOA3UENG9CQM3HV7", "dateTime": 1520870475421}, {"current_trial": 76, "trialdata": {"rt": 4470, "trial_type": "text", "internal_node_id": "0.0-58.0", "time_elapsed": 430839, "key_press": 32, "type": "INSTRUCTIONS", "trial_index": 76}, "uniqueid": "MTK3628:3G5F9DBFOQ4VK5SOA3UENG9CQM3HV7", "dateTime": 1520870481896}, {"current_trial": 77, "trialdata": {"rt": [4035, 10220, 13332, 16148, 20572], "trial_type": "math-distractor", "key_times": [2876, 3339, 4035, 9580, 9764, 10220, 12516, 13004, 13332, 15757, 16148, 19724, 20164, 20572, 23276, 23716], "responses": ["12", "21", "20", "8", "16"], "num2": [5, 7, 6, 1, 3, 6], "num3": [6, 9, 8, 3, 7, 5], "conditions": [12, 1600, "v", 24000], "internal_node_id": "0.0-59.0", "key_presses": [49, 50, 13, 50, 49, 13, 50, 48, 13, 56, 13, 49, 54, 13, 50, 48], "trial": 2, "time_elapsed": 455847, "type": "DISTRACTOR", "trial_index": 77, "num1": [1, 5, 6, 4, 6, 9]}, "uniqueid": "MTK3628:3G5F9DBFOQ4VK5SOA3UENG9CQM3HV7", "dateTime": 1520870506904}, {"current_trial": 78, "trialdata": {"rt": -1, "trial_type": "single-stim", "stimulus": "<p id=\"stim\">10</p>", "internal_node_id": "0.0-60.0-0.0", "time_elapsed": 458854, "key_press": -1, "trial_index": 78}, "uniqueid": "MTK3628:3G5F9DBFOQ4VK5SOA3UENG9CQM3HV7", "dateTime": 1520870509912}, {"current_trial": 79, "trialdata": {"rt": -1, "trial_type": "single-stim", "stimulus": "<p id=\"stim\">9</p>", "internal_node_id": "0.0-60.0-1.0", "time_elapsed": 459859, "key_press": -1, "trial_index": 79}, "uniqueid": "MTK3628:3G5F9DBFOQ4VK5SOA3UENG9CQM3HV7", "dateTime": 1520870510916}, {"current_trial": 80, "trialdata": {"rt": -1, "trial_type": "single-stim", "stimulus": "<p id=\"stim\">8</p>", "internal_node_id": "0.0-60.0-2.0", "time_elapsed": 460859, "key_press": -1, "trial_index": 80}, "uniqueid": "MTK3628:3G5F9DBFOQ4VK5SOA3UENG9CQM3HV7", "dateTime": 1520870511916}, {"current_trial": 81, "trialdata": {"rt": -1, "trial_type": "single-stim", "stimulus": "<p id=\"stim\">7</p>", "internal_node_id": "0.0-60.0-3.0", "time_elapsed": 461860, "key_press": -1, "trial_index": 81}, "uniqueid": "MTK3628:3G5F9DBFOQ4VK5SOA3UENG9CQM3HV7", "dateTime": 1520870512917}, {"current_trial": 82, "trialdata": {"rt": -1, "trial_type": "single-stim", "stimulus": "<p id=\"stim\">6</p>", "internal_node_id": "0.0-60.0-4.0", "time_elapsed": 462864, "key_press": -1, "trial_index": 82}, "uniqueid": "MTK3628:3G5F9DBFOQ4VK5SOA3UENG9CQM3HV7", "dateTime": 1520870513921}, {"current_trial": 83, "trialdata": {"rt": -1, "trial_type": "single-stim", "stimulus": "<p id=\"stim\">5</p>", "internal_node_id": "0.0-60.0-5.0", "time_elapsed": 463870, "key_press": -1, "trial_index": 83}, "uniqueid": "MTK3628:3G5F9DBFOQ4VK5SOA3UENG9CQM3HV7", "dateTime": 1520870514927}, {"current_trial": 84, "trialdata": {"rt": -1, "trial_type": "single-stim", "stimulus": "<p id=\"stim\">4</p>", "internal_node_id": "0.0-60.0-6.0", "time_elapsed": 464876, "key_press": -1, "trial_index": 84}, "uniqueid": "MTK3628:3G5F9DBFOQ4VK5SOA3UENG9CQM3HV7", "dateTime": 1520870515934}, {"current_trial": 85, "trialdata": {"rt": -1, "trial_type": "single-stim", "stimulus": "<p id=\"stim\">3</p>", "internal_node_id": "0.0-60.0-7.0", "time_elapsed": 465881, "key_press": -1, "trial_index": 85}, "uniqueid": "MTK3628:3G5F9DBFOQ4VK5SOA3UENG9CQM3HV7", "dateTime": 1520870516939}, {"current_trial": 86, "trialdata": {"rt": -1, "trial_type": "single-stim", "stimulus": "<p id=\"stim\">2</p>", "internal_node_id": "0.0-60.0-8.0", "time_elapsed": 466887, "key_press": -1, "trial_index": 86}, "uniqueid": "MTK3628:3G5F9DBFOQ4VK5SOA3UENG9CQM3HV7", "dateTime": 1520870517944}, {"current_trial": 87, "trialdata": {"rt": -1, "trial_type": "single-stim", "stimulus": "<p id=\"stim\">1</p>", "internal_node_id": "0.0-60.0-9.0", "time_elapsed": 467894, "key_press": -1, "trial_index": 87}, "uniqueid": "MTK3628:3G5F9DBFOQ4VK5SOA3UENG9CQM3HV7", "dateTime": 1520870518951}, {"current_trial": 88, "trialdata": {"rt": -1, "trial_type": "single-stim", "stimulus": "<p id=\"stim\">+</p>", "internal_node_id": "0.0-61.0-0.0", "time_elapsed": 469399, "key_press": -1, "type": "FIXATION", "trial_index": 88}, "uniqueid": "MTK3628:3G5F9DBFOQ4VK5SOA3UENG9CQM3HV7", "dateTime": 1520870520456}, {"current_trial": 89, "trialdata": {"rt": -1, "trial_type": "single-stim", "word": "leader", "stimulus": "<p id=\"stim\">LEADER</p>", "conditions": [12, 1600, "v", 24000], "internal_node_id": "0.0-62.0", "trial": 2, "time_elapsed": 471002, "serialpos": 0, "key_press": -1, "wordID": 806, "type": "PRES_VIS", "trial_index": 89}, "uniqueid": "MTK3628:3G5F9DBFOQ4VK5SOA3UENG9CQM3HV7", "dateTime": 1520870522059}, {"current_trial": 90, "trialdata": {"rt": -1, "trial_type": "single-stim", "word": "infant", "stimulus": "<p id=\"stim\">INFANT</p>", "conditions": [12, 1600, "v", 24000], "internal_node_id": "0.0-63.0", "trial": 2, "time_elapsed": 473647, "serialpos": 1, "key_press": -1, "wordID": 736, "type": "PRES_VIS", "trial_index": 90}, "uniqueid": "MTK3628:3G5F9DBFOQ4VK5SOA3UENG9CQM3HV7", "dateTime": 1520870524704}, {"current_trial": 91, "trialdata": {"rt": -1, "trial_type": "single-stim", "word": "zebra", "stimulus": "<p id=\"stim\">ZEBRA</p>", "conditions": [12, 1600, "v", 24000], "internal_node_id": "0.0-64.0", "trial": 2, "time_elapsed": 476313, "serialpos": 2, "key_press": -1, "wordID": 1634, "type": "PRES_VIS", "trial_index": 91}, "uniqueid": "MTK3628:3G5F9DBFOQ4VK5SOA3UENG9CQM3HV7", "dateTime": 1520870527370}, {"current_trial": 92, "trialdata": {"rt": -1, "trial_type": "single-stim", "word": "lake", "stimulus": "<p id=\"stim\">LAKE</p>", "conditions": [12, 1600, "v", 24000], "internal_node_id": "0.0-65.0", "trial": 2, "time_elapsed": 478928, "serialpos": 3, "key_press": -1, "wordID": 795, "type": "PRES_VIS", "trial_index": 92}, "uniqueid": "MTK3628:3G5F9DBFOQ4VK5SOA3UENG9CQM3HV7", "dateTime": 1520870529985}, {"current_trial": 93, "trialdata": {"rt": -1, "trial_type": "single-stim", "word": "robber", "stimulus": "<p id=\"stim\">ROBBER</p>", "conditions": [12, 1600, "v", 24000], "internal_node_id": "0.0-66.0", "trial": 2, "time_elapsed": 481614, "serialpos": 4, "key_press": -1, "wordID": 1196, "type": "PRES_VIS", "trial_index": 93}, "uniqueid": "MTK3628:3G5F9DBFOQ4VK5SOA3UENG9CQM3HV7", "dateTime": 1520870532671}, {"current_trial": 94, "trialdata": {"rt": -1, "trial_type": "single-stim", "word": "thief", "stimulus": "<p id=\"stim\">THIEF</p>", "conditions": [12, 1600, "v", 24000], "internal_node_id": "0.0-67.0", "trial": 2, "time_elapsed": 484311, "serialpos": 5, "key_press": -1, "wordID": 1455, "type": "PRES_VIS", "trial_index": 94}, "uniqueid": "MTK3628:3G5F9DBFOQ4VK5SOA3UENG9CQM3HV7", "dateTime": 1520870535368}, {"current_trial": 95, "trialdata": {"rt": -1, "trial_type": "single-stim", "word": "barley", "stimulus": "<p id=\"stim\">BARLEY</p>", "conditions": [12, 1600, "v", 24000], "internal_node_id": "0.0-68.0", "trial": 2, "time_elapsed": 487110, "serialpos": 6, "key_press": -1, "wordID": 87, "type": "PRES_VIS", "trial_index": 95}, "uniqueid": "MTK3628:3G5F9DBFOQ4VK5SOA3UENG9CQM3HV7", "dateTime": 1520870538167}, {"current_trial": 96, "trialdata": {"rt": -1, "trial_type": "single-stim", "word": "farmer", "stimulus": "<p id=\"stim\">FARMER</p>", "conditions": [12, 1600, "v", 24000], "internal_node_id": "0.0-69.0", "trial": 2, "time_elapsed": 489543, "serialpos": 7, "key_press": -1, "wordID": 552, "type": "PRES_VIS", "trial_index": 96}, "uniqueid": "MTK3628:3G5F9DBFOQ4VK5SOA3UENG9CQM3HV7", "dateTime": 1520870540600}, {"current_trial": 97, "trialdata": {"rt": -1, "trial_type": "single-stim", "word": "iceberg", "stimulus": "<p id=\"stim\">ICEBERG</p>", "conditions": [12, 1600, "v", 24000], "internal_node_id": "0.0-70.0", "trial": 2, "time_elapsed": 492011, "serialpos": 8, "key_press": -1, "wordID": 730, "type": "PRES_VIS", "trial_index": 97}, "uniqueid": "MTK3628:3G5F9DBFOQ4VK5SOA3UENG9CQM3HV7", "dateTime": 1520870543068}, {"current_trial": 98, "trialdata": {"rt": -1, "trial_type": "single-stim", "word": "bouquet", "stimulus": "<p id=\"stim\">BOUQUET</p>", "conditions": [12, 1600, "v", 24000], "internal_node_id": "0.0-71.0", "trial": 2, "time_elapsed": 494495, "serialpos": 9, "key_press": -1, "wordID": 156, "type": "PRES_VIS", "trial_index": 98}, "uniqueid": "MTK3628:3G5F9DBFOQ4VK5SOA3UENG9CQM3HV7", "dateTime": 1520870545553}, {"current_trial": 99, "trialdata": {"rt": -1, "trial_type": "single-stim", "word": "backbone", "stimulus": "<p id=\"stim\">BACKBONE</p>", "conditions": [12, 1600, "v", 24000], "internal_node_id": "0.0-72.0", "trial": 2, "time_elapsed": 497213, "serialpos": 10, "key_press": -1, "wordID": 65, "type": "PRES_VIS", "trial_index": 99}, "uniqueid": "MTK3628:3G5F9DBFOQ4VK5SOA3UENG9CQM3HV7", "dateTime": 1520870548270}, {"current_trial": 100, "trialdata": {"rt": -1, "trial_type": "single-stim", "word": "marsh", "stimulus": "<p id=\"stim\">MARSH</p>", "conditions": [12, 1600, "v", 24000], "internal_node_id": "0.0-73.0", "trial": 2, "time_elapsed": 499721, "serialpos": 11, "key_press": -1, "wordID": 873, "type": "PRES_VIS", "trial_index": 100}, "uniqueid": "MTK3628:3G5F9DBFOQ4VK5SOA3UENG9CQM3HV7", "dateTime": 1520870550778}, {"current_trial": 101, "trialdata": {"rt": -1, "trial_type": "single-stim", "stimulus": "", "internal_node_id": "0.0-74.0-0.0", "time_elapsed": 502008, "key_press": -1, "type": "PRE_RECALL_DELAY", "trial_index": 101}, "uniqueid": "MTK3628:3G5F9DBFOQ4VK5SOA3UENG9CQM3HV7", "dateTime": 1520870553065}, {"current_trial": 102, "trialdata": {"rt": -1000, "trial_type": "single-audio", "stimulus": "/static/audio/400Hz.wav", "internal_node_id": "0.0-75.0", "time_elapsed": 502509, "key_press": -1, "type": "PRE_RECALL_ALERT", "trial_index": 102}, "uniqueid": "MTK3628:3G5F9DBFOQ4VK5SOA3UENG9CQM3HV7", "dateTime": 1520870553566}, {"current_trial": 103, "trialdata": {"rt": [4528, 11538, 15065, 22714, 26354, 28770, 33972, 37130, 39802], "recwords": ["lake", "thief", "iceberg", "robber", "backbone", "marsh", "infant", "zebra", "leader"], "key_times": [3225, 3400, 3599, 3760, 4528, 7625, 8033, 8961, 9136, 9625, 11538, 12457, 12961, 13089, 13546, 13737, 13937, 14177, 15065, 19450, 19722, 20098, 20257, 20498, 20729, 22714, 23162, 23346, 23619, 24410, 24810, 25002, 25362, 25546, 26354, 27218, 27394, 27674, 27931, 28195, 28770, 31467, 31722, 32099, 32243, 33027, 33379, 33972, 35042, 35275, 35610, 35819, 36035, 37130, 38338, 38491, 38723, 39042, 39219, 39427, 39802], "trial_type": "free-recall", "conditions": [12, 1600, "v", 24000], "internal_node_id": "0.0-76.0-0.0", "key_presses": [76, 65, 75, 69, 13, 84, 72, 73, 69, 70, 13, 73, 67, 69, 66, 69, 82, 71, 13, 82, 79, 66, 66, 69, 82, 13, 66, 65, 67, 75, 66, 79, 78, 69, 13, 77, 65, 82, 83, 72, 13, 73, 78, 70, 65, 78, 84, 13, 90, 69, 66, 82, 65, 13, 76, 69, 65, 68, 69, 82, 13], "trial": 2, "time_elapsed": 562516, "type": "FREE_RECALL", "trial_index": 103}, "uniqueid": "MTK3628:3G5F9DBFOQ4VK5SOA3UENG9CQM3HV7", "dateTime": 1520870613574}, {"current_trial": 104, "trialdata": {"rt": 2291, "trial_type": "text", "internal_node_id": "0.0-77.0", "time_elapsed": 566810, "key_press": 32, "type": "INSTRUCTIONS", "trial_index": 104}, "uniqueid": "MTK3628:3G5F9DBFOQ4VK5SOA3UENG9CQM3HV7", "dateTime": 1520870617867}, {"current_trial": 105, "trialdata": {"rt": [3932, 6580, 11253], "trial_type": "math-distractor", "key_times": [3164, 3460, 3932, 5516, 6196, 6580, 10436, 10748, 11253], "responses": ["14", "18", "12"], "num2": [7, 5, 1, 4], "num3": [5, 8, 8, 8], "conditions": [24, 800, "v", 12000], "internal_node_id": "0.0-78.0", "key_presses": [49, 52, 13, 49, 56, 13, 49, 50, 13], "trial": 3, "time_elapsed": 580816, "type": "DISTRACTOR", "trial_index": 105, "num1": [2, 5, 3, 4]}, "uniqueid": "MTK3628:3G5F9DBFOQ4VK5SOA3UENG9CQM3HV7", "dateTime": 1520870631873}, {"current_trial": 106, "trialdata": {"rt": -1, "trial_type": "single-stim", "stimulus": "<p id=\"stim\">10</p>", "internal_node_id": "0.0-79.0-0.0", "time_elapsed": 583822, "key_press": -1, "trial_index": 106}, "uniqueid": "MTK3628:3G5F9DBFOQ4VK5SOA3UENG9CQM3HV7", "dateTime": 1520870634879}, {"current_trial": 107, "trialdata": {"rt": -1, "trial_type": "single-stim", "stimulus": "<p id=\"stim\">9</p>", "internal_node_id": "0.0-79.0-1.0", "time_elapsed": 584827, "key_press": -1, "trial_index": 107}, "uniqueid": "MTK3628:3G5F9DBFOQ4VK5SOA3UENG9CQM3HV7", "dateTime": 1520870635884}, {"current_trial": 108, "trialdata": {"rt": -1, "trial_type": "single-stim", "stimulus": "<p id=\"stim\">8</p>", "internal_node_id": "0.0-79.0-2.0", "time_elapsed": 585831, "key_press": -1, "trial_index": 108}, "uniqueid": "MTK3628:3G5F9DBFOQ4VK5SOA3UENG9CQM3HV7", "dateTime": 1520870636888}, {"current_trial": 109, "trialdata": {"rt": -1, "trial_type": "single-stim", "stimulus": "<p id=\"stim\">7</p>", "internal_node_id": "0.0-79.0-3.0", "time_elapsed": 586835, "key_press": -1, "trial_index": 109}, "uniqueid": "MTK3628:3G5F9DBFOQ4VK5SOA3UENG9CQM3HV7", "dateTime": 1520870637892}, {"current_trial": 110, "trialdata": {"rt": -1, "trial_type": "single-stim", "stimulus": "<p id=\"stim\">6</p>", "internal_node_id": "0.0-79.0-4.0", "time_elapsed": 587841, "key_press": -1, "trial_index": 110}, "uniqueid": "MTK3628:3G5F9DBFOQ4VK5SOA3UENG9CQM3HV7", "dateTime": 1520870638898}, {"current_trial": 111, "trialdata": {"rt": -1, "trial_type": "single-stim", "stimulus": "<p id=\"stim\">5</p>", "internal_node_id": "0.0-79.0-5.0", "time_elapsed": 588843, "key_press": -1, "trial_index": 111}, "uniqueid": "MTK3628:3G5F9DBFOQ4VK5SOA3UENG9CQM3HV7", "dateTime": 1520870639901}, {"current_trial": 112, "trialdata": {"rt": -1, "trial_type": "single-stim", "stimulus": "<p id=\"stim\">4</p>", "internal_node_id": "0.0-79.0-6.0", "time_elapsed": 589847, "key_press": -1, "trial_index": 112}, "uniqueid": "MTK3628:3G5F9DBFOQ4VK5SOA3UENG9CQM3HV7", "dateTime": 1520870640905}, {"current_trial": 113, "trialdata": {"rt": -1, "trial_type": "single-stim", "stimulus": "<p id=\"stim\">3</p>", "internal_node_id": "0.0-79.0-7.0", "time_elapsed": 590852, "key_press": -1, "trial_index": 113}, "uniqueid": "MTK3628:3G5F9DBFOQ4VK5SOA3UENG9CQM3HV7", "dateTime": 1520870641909}, {"current_trial": 114, "trialdata": {"rt": -1, "trial_type": "single-stim", "stimulus": "<p id=\"stim\">2</p>", "internal_node_id": "0.0-79.0-8.0", "time_elapsed": 591855, "key_press": -1, "trial_index": 114}, "uniqueid": "MTK3628:3G5F9DBFOQ4VK5SOA3UENG9CQM3HV7", "dateTime": 1520870642912}, {"current_trial": 115, "trialdata": {"rt": -1, "trial_type": "single-stim", "stimulus": "<p id=\"stim\">1</p>", "internal_node_id": "0.0-79.0-9.0", "time_elapsed": 592860, "key_press": -1, "trial_index": 115}, "uniqueid": "MTK3628:3G5F9DBFOQ4VK5SOA3UENG9CQM3HV7", "dateTime": 1520870643917}, {"current_trial": 116, "trialdata": {"rt": -1, "trial_type": "single-stim", "stimulus": "<p id=\"stim\">+</p>", "internal_node_id": "0.0-80.0-0.0", "time_elapsed": 594363, "key_press": -1, "type": "FIXATION", "trial_index": 116}, "uniqueid": "MTK3628:3G5F9DBFOQ4VK5SOA3UENG9CQM3HV7", "dateTime": 1520870645421}, {"current_trial": 117, "trialdata": {"rt": -1, "trial_type": "single-stim", "word": "toaster", "stimulus": "<p id=\"stim\">TOASTER</p>", "conditions": [24, 800, "v", 12000], "internal_node_id": "0.0-81.0", "trial": 3, "time_elapsed": 595163, "serialpos": 0, "key_press": -1, "wordID": 1471, "type": "PRES_VIS", "trial_index": 117}, "uniqueid": "MTK3628:3G5F9DBFOQ4VK5SOA3UENG9CQM3HV7", "dateTime": 1520870646221}, {"current_trial": 118, "trialdata": {"rt": -1, "trial_type": "single-stim", "word": "stove", "stimulus": "<p id=\"stim\">STOVE</p>", "conditions": [24, 800, "v", 12000], "internal_node_id": "0.0-82.0", "trial": 3, "time_elapsed": 597004, "serialpos": 1, "key_press": -1, "wordID": 1387, "type": "PRES_VIS", "trial_index": 118}, "uniqueid": "MTK3628:3G5F9DBFOQ4VK5SOA3UENG9CQM3HV7", "dateTime": 1520870648061}, {"current_trial": 119, "trialdata": {"rt": -1, "trial_type": "single-stim", "word": "casket", "stimulus": "<p id=\"stim\">CASKET</p>", "conditions": [24, 800, "v", 12000], "internal_node_id": "0.0-83.0", "trial": 3, "time_elapsed": 598658, "serialpos": 2, "key_press": -1, "wordID": 254, "type": "PRES_VIS", "trial_index": 119}, "uniqueid": "MTK3628:3G5F9DBFOQ4VK5SOA3UENG9CQM3HV7", "dateTime": 1520870649716}, {"current_trial": 120, "trialdata": {"rt": -1, "trial_type": "single-stim", "word": "termite", "stimulus": "<p id=\"stim\">TERMITE</p>", "conditions": [24, 800, "v", 12000], "internal_node_id": "0.0-84.0", "trial": 3, "time_elapsed": 600411, "serialpos": 3, "key_press": -1, "wordID": 1450, "type": "PRES_VIS", "trial_index": 120}, "uniqueid": "MTK3628:3G5F9DBFOQ4VK5SOA3UENG9CQM3HV7", "dateTime": 1520870651468}, {"current_trial": 121, "trialdata": {"rt": -1, "trial_type": "single-stim", "word": "snake", "stimulus": "<p id=\"stim\">SNAKE</p>", "conditions": [24, 800, "v", 12000], "internal_node_id": "0.0-85.0", "trial": 3, "time_elapsed": 602231, "serialpos": 4, "key_press": -1, "wordID": 1332, "type": "PRES_VIS", "trial_index": 121}, "uniqueid": "MTK3628:3G5F9DBFOQ4VK5SOA3UENG9CQM3HV7", "dateTime": 1520870653288}, {"current_trial": 122, "trialdata": {"rt": -1, "trial_type": "single-stim", "word": "tablet", "stimulus": "<p id=\"stim\">TABLET</p>", "conditions": [24, 800, "v", 12000], "internal_node_id": "0.0-86.0", "trial": 3, "time_elapsed": 603923, "serialpos": 5, "key_press": -1, "wordID": 1426, "type": "PRES_VIS", "trial_index": 122}, "uniqueid": "MTK3628:3G5F9DBFOQ4VK5SOA3UENG9CQM3HV7", "dateTime": 1520870654980}, {"current_trial": 123, "trialdata": {"rt": -1, "trial_type": "single-stim", "word": "sausage", "stimulus": "<p id=\"stim\">SAUSAGE</p>", "conditions": [24, 800, "v", 12000], "internal_node_id": "0.0-87.0", "trial": 3, "time_elapsed": 605646, "serialpos": 6, "key_press": -1, "wordID": 1237, "type": "PRES_VIS", "trial_index": 123}, "uniqueid": "MTK3628:3G5F9DBFOQ4VK5SOA3UENG9CQM3HV7", "dateTime": 1520870656703}, {"current_trial": 124, "trialdata": {"rt": -1, "trial_type": "single-stim", "word": "fungus", "stimulus": "<p id=\"stim\">FUNGUS</p>", "conditions": [24, 800, "v", 12000], "internal_node_id": "0.0-88.0", "trial": 3, "time_elapsed": 607455, "serialpos": 7, "key_press": -1, "wordID": 613, "type": "PRES_VIS", "trial_index": 124}, "uniqueid": "MTK3628:3G5F9DBFOQ4VK5SOA3UENG9CQM3HV7", "dateTime": 1520870658513}, {"current_trial": 125, "trialdata": {"rt": -1, "trial_type": "single-stim", "word": "jury", "stimulus": "<p id=\"stim\">JURY</p>", "conditions": [24, 800, "v", 12000], "internal_node_id": "0.0-89.0", "trial": 3, "time_elapsed": 609216, "serialpos": 8, "key_press": -1, "wordID": 765, "type": "PRES_VIS", "trial_index": 125}, "uniqueid": "MTK3628:3G5F9DBFOQ4VK5SOA3UENG9CQM3HV7", "dateTime": 1520870660274}, {"current_trial": 126, "trialdata": {"rt": -1, "trial_type": "single-stim", "word": "widow", "stimulus": "<p id=\"stim\">WIDOW</p>", "conditions": [24, 800, "v", 12000], "internal_node_id": "0.0-90.0", "trial": 3, "time_elapsed": 610905, "serialpos": 9, "key_press": -1, "wordID": 1607, "type": "PRES_VIS", "trial_index": 126}, "uniqueid": "MTK3628:3G5F9DBFOQ4VK5SOA3UENG9CQM3HV7", "dateTime": 1520870661962}, {"current_trial": 127, "trialdata": {"rt": -1, "trial_type": "single-stim", "word": "cocoon", "stimulus": "<p id=\"stim\">COCOON</p>", "conditions": [24, 800, "v", 12000], "internal_node_id": "0.0-91.0", "trial": 3, "time_elapsed": 612573, "serialpos": 10, "key_press": -1, "wordID": 338, "type": "PRES_VIS", "trial_index": 127}, "uniqueid": "MTK3628:3G5F9DBFOQ4VK5SOA3UENG9CQM3HV7", "dateTime": 1520870663630}, {"current_trial": 128, "trialdata": {"rt": -1, "trial_type": "single-stim", "word": "portrait", "stimulus": "<p id=\"stim\">PORTRAIT</p>", "conditions": [24, 800, "v", 12000], "internal_node_id": "0.0-92.0", "trial": 3, "time_elapsed": 614434, "serialpos": 11, "key_press": -1, "wordID": 1110, "type": "PRES_VIS", "trial_index": 128}, "uniqueid": "MTK3628:3G5F9DBFOQ4VK5SOA3UENG9CQM3HV7", "dateTime": 1520870665491}, {"current_trial": 129, "trialdata": {"rt": -1, "trial_type": "single-stim", "word": "eyelash", "stimulus": "<p id=\"stim\">EYELASH</p>", "conditions": [24, 800, "v", 12000], "internal_node_id": "0.0-93.0", "trial": 3, "time_elapsed": 616215, "serialpos": 12, "key_press": -1, "wordID": 545, "type": "PRES_VIS", "trial_index": 129}, "uniqueid": "MTK3628:3G5F9DBFOQ4VK5SOA3UENG9CQM3HV7", "dateTime": 1520870667273}, {"current_trial": 130, "trialdata": {"rt": -1, "trial_type": "single-stim", "word": "basement", "stimulus": "<p id=\"stim\">BASEMENT</p>", "conditions": [24, 800, "v", 12000], "internal_node_id": "0.0-94.0", "trial": 3, "time_elapsed": 618178, "serialpos": 13, "key_press": -1, "wordID": 93, "type": "PRES_VIS", "trial_index": 130}, "uniqueid": "MTK3628:3G5F9DBFOQ4VK5SOA3UENG9CQM3HV7", "dateTime": 1520870669235}, {"current_trial": 131, "trialdata": {"rt": -1, "trial_type": "single-stim", "word": "dustpan", "stimulus": "<p id=\"stim\">DUSTPAN</p>", "conditions": [24, 800, "v", 12000], "internal_node_id": "0.0-95.0", "trial": 3, "time_elapsed": 620168, "serialpos": 14, "key_press": -1, "wordID": 508, "type": "PRES_VIS", "trial_index": 131}, "uniqueid": "MTK3628:3G5F9DBFOQ4VK5SOA3UENG9CQM3HV7", "dateTime": 1520870671225}, {"current_trial": 132, "trialdata": {"rt": -1, "trial_type": "single-stim", "word": "world", "stimulus": "<p id=\"stim\">WORLD</p>", "conditions": [24, 800, "v", 12000], "internal_node_id": "0.0-96.0", "trial": 3, "time_elapsed": 621794, "serialpos": 15, "key_press": -1, "wordID": 1621, "type": "PRES_VIS", "trial_index": 132}, "uniqueid": "MTK3628:3G5F9DBFOQ4VK5SOA3UENG9CQM3HV7", "dateTime": 1520870672851}, {"current_trial": 133, "trialdata": {"rt": -1, "trial_type": "single-stim", "word": "pimple", "stimulus": "<p id=\"stim\">PIMPLE</p>", "conditions": [24, 800, "v", 12000], "internal_node_id": "0.0-97.0", "trial": 3, "time_elapsed": 623423, "serialpos": 16, "key_press": -1, "wordID": 1070, "type": "PRES_VIS", "trial_index": 133}, "uniqueid": "MTK3628:3G5F9DBFOQ4VK5SOA3UENG9CQM3HV7", "dateTime": 1520870674480}, {"current_trial": 134, "trialdata": {"rt": -1, "trial_type": "single-stim", "word": "valley", "stimulus": "<p id=\"stim\">VALLEY</p>", "conditions": [24, 800, "v", 12000], "internal_node_id": "0.0-98.0", "trial": 3, "time_elapsed": 625201, "serialpos": 17, "key_press": -1, "wordID": 1544, "type": "PRES_VIS", "trial_index": 134}, "uniqueid": "MTK3628:3G5F9DBFOQ4VK5SOA3UENG9CQM3HV7", "dateTime": 1520870676258}, {"current_trial": 135, "trialdata": {"rt": -1, "trial_type": "single-stim", "word": "rooster", "stimulus": "<p id=\"stim\">ROOSTER</p>", "conditions": [24, 800, "v", 12000], "internal_node_id": "0.0-99.0", "trial": 3, "time_elapsed": 627162, "serialpos": 18, "key_press": -1, "wordID": 1208, "type": "PRES_VIS", "trial_index": 135}, "uniqueid": "MTK3628:3G5F9DBFOQ4VK5SOA3UENG9CQM3HV7", "dateTime": 1520870678219}, {"current_trial": 136, "trialdata": {"rt": -1, "trial_type": "single-stim", "word": "parrot", "stimulus": "<p id=\"stim\">PARROT</p>", "conditions": [24, 800, "v", 12000], "internal_node_id": "0.0-100.0", "trial": 3, "time_elapsed": 628939, "serialpos": 19, "key_press": -1, "wordID": 1014, "type": "PRES_VIS", "trial_index": 136}, "uniqueid": "MTK3628:3G5F9DBFOQ4VK5SOA3UENG9CQM3HV7", "dateTime": 1520870679996}, {"current_trial": 137, "trialdata": {"rt": -1, "trial_type": "single-stim", "word": "globe", "stimulus": "<p id=\"stim\">GLOBE</p>", "conditions": [24, 800, "v", 12000], "internal_node_id": "0.0-101.0", "trial": 3, "time_elapsed": 630912, "serialpos": 20, "key_press": -1, "wordID": 640, "type": "PRES_VIS", "trial_index": 137}, "uniqueid": "MTK3628:3G5F9DBFOQ4VK5SOA3UENG9CQM3HV7", "dateTime": 1520870681969}, {"current_trial": 138, "trialdata": {"rt": -1, "trial_type": "single-stim", "word": "hedge", "stimulus": "<p id=\"stim\">HEDGE</p>", "conditions": [24, 800, "v", 12000], "internal_node_id": "0.0-102.0", "trial": 3, "time_elapsed": 632543, "serialpos": 21, "key_press": -1, "wordID": 698, "type": "PRES_VIS", "trial_index": 138}, "uniqueid": "MTK3628:3G5F9DBFOQ4VK5SOA3UENG9CQM3HV7", "dateTime": 1520870683600}, {"current_trial": 139, "trialdata": {"rt": -1, "trial_type": "single-stim", "word": "switch", "stimulus": "<p id=\"stim\">SWITCH</p>", "conditions": [24, 800, "v", 12000], "internal_node_id": "0.0-103.0", "trial": 3, "time_elapsed": 634389, "serialpos": 22, "key_press": -1, "wordID": 1421, "type": "PRES_VIS", "trial_index": 139}, "uniqueid": "MTK3628:3G5F9DBFOQ4VK5SOA3UENG9CQM3HV7", "dateTime": 1520870685446}, {"current_trial": 140, "trialdata": {"rt": -1, "trial_type": "single-stim", "word": "sunset", "stimulus": "<p id=\"stim\">SUNSET</p>", "conditions": [24, 800, "v", 12000], "internal_node_id": "0.0-104.0", "trial": 3, "time_elapsed": 636304, "serialpos": 23, "key_press": -1, "wordID": 1407, "type": "PRES_VIS", "trial_index": 140}, "uniqueid": "MTK3628:3G5F9DBFOQ4VK5SOA3UENG9CQM3HV7", "dateTime": 1520870687361}, {"current_trial": 141, "trialdata": {"rt": -1, "trial_type": "single-stim", "stimulus": "", "internal_node_id": "0.0-105.0-0.0", "time_elapsed": 638684, "key_press": -1, "type": "PRE_RECALL_DELAY", "trial_index": 141}, "uniqueid": "MTK3628:3G5F9DBFOQ4VK5SOA3UENG9CQM3HV7", "dateTime": 1520870689741}, {"current_trial": 142, "trialdata": {"rt": -1000, "trial_type": "single-audio", "stimulus": "/static/audio/400Hz.wav", "internal_node_id": "0.0-106.0", "time_elapsed": 639185, "key_press": -1, "type": "PRE_RECALL_ALERT", "trial_index": 142}, "uniqueid": "MTK3628:3G5F9DBFOQ4VK5SOA3UENG9CQM3HV7", "dateTime": 1520870690242}, {"current_trial": 143, "trialdata": {"rt": [5322, 9346, 12226, 15467, 19650, 25338, 33594, 37451, 40372, 41995, 44772], "recwords": ["toaster", "smake", "fungus", "jury", "widow", "portrait", "word", "valley", "globe", "", "parrot"], "key_times": [3218, 3385, 3594, 3818, 4026, 4178, 4418, 5322, 7170, 7562, 7714, 7914, 8067, 9346, 9938, 10195, 10450, 10866, 11083, 11602, 12226, 13155, 13379, 13691, 14418, 15467, 17386, 17610, 17802, 18619, 18891, 19650, 20483, 21003, 21242, 21642, 23227, 23618, 23874, 24226, 25338, 26259, 26563, 26907, 29915, 30635, 31731, 31987, 33123, 33594, 34604, 34811, 35251, 35434, 35659, 35907, 37451, 39011, 39219, 39403, 39731, 39890, 40372, 41995, 42515, 42691, 43003, 43171, 43603, 44211, 44772], "trial_type": "free-recall", "conditions": [24, 800, "v", 12000], "internal_node_id": "0.0-107.0-0.0", "key_presses": [84, 79, 65, 83, 84, 69, 82, 13, 83, 77, 65, 75, 69, 13, 70, 85, 78, 71, 85, 83, 13, 74, 85, 82, 89, 13, 87, 73, 68, 79, 87, 13, 80, 79, 82, 84, 82, 65, 73, 84, 13, 87, 79, 82, 76, 68, 8, 8, 68, 13, 86, 65, 76, 76, 69, 89, 13, 71, 76, 79, 66, 69, 13, 32, 80, 65, 82, 82, 79, 84, 13], "trial": 3, "time_elapsed": 699193, "type": "FREE_RECALL", "trial_index": 143}, "uniqueid": "MTK3628:3G5F9DBFOQ4VK5SOA3UENG9CQM3HV7", "dateTime": 1520870750252}, {"current_trial": 144, "trialdata": {"rt": 1648, "trial_type": "text", "internal_node_id": "0.0-108.0", "time_elapsed": 702846, "key_press": 32, "type": "INSTRUCTIONS", "trial_index": 144}, "uniqueid": "MTK3628:3G5F9DBFOQ4VK5SOA3UENG9CQM3HV7", "dateTime": 1520870753903}, {"current_trial": 145, "trialdata": {"rt": [4469, 7869, 10533], "trial_type": "math-distractor", "key_times": [3918, 4149, 4469, 7429, 7597, 7869, 10086, 10237, 10533], "responses": ["15", "12", "14"], "num2": [2, 7, 3, 9], "num3": [9, 4, 3, 1], "conditions": [12, 1600, "v", 12000], "internal_node_id": "0.0-109.0", "key_presses": [49, 53, 13, 49, 50, 13, 49, 52, 13], "trial": 4, "time_elapsed": 716851, "type": "DISTRACTOR", "trial_index": 145, "num1": [4, 1, 8, 2]}, "uniqueid": "MTK3628:3G5F9DBFOQ4VK5SOA3UENG9CQM3HV7", "dateTime": 1520870767909}, {"current_trial": 146, "trialdata": {"rt": -1, "trial_type": "single-stim", "stimulus": "<p id=\"stim\">10</p>", "internal_node_id": "0.0-110.0-0.0", "time_elapsed": 719858, "key_press": -1, "trial_index": 146}, "uniqueid": "MTK3628:3G5F9DBFOQ4VK5SOA3UENG9CQM3HV7", "dateTime": 1520870770915}, {"current_trial": 147, "trialdata": {"rt": -1, "trial_type": "single-stim", "stimulus": "<p id=\"stim\">9</p>", "internal_node_id": "0.0-110.0-1.0", "time_elapsed": 720862, "key_press": -1, "trial_index": 147}, "uniqueid": "MTK3628:3G5F9DBFOQ4VK5SOA3UENG9CQM3HV7", "dateTime": 1520870771919}, {"current_trial": 148, "trialdata": {"rt": -1, "trial_type": "single-stim", "stimulus": "<p id=\"stim\">8</p>", "internal_node_id": "0.0-110.0-2.0", "time_elapsed": 721866, "key_press": -1, "trial_index": 148}, "uniqueid": "MTK3628:3G5F9DBFOQ4VK5SOA3UENG9CQM3HV7", "dateTime": 1520870772923}, {"current_trial": 149, "trialdata": {"rt": -1, "trial_type": "single-stim", "stimulus": "<p id=\"stim\">7</p>", "internal_node_id": "0.0-110.0-3.0", "time_elapsed": 722871, "key_press": -1, "trial_index": 149}, "uniqueid": "MTK3628:3G5F9DBFOQ4VK5SOA3UENG9CQM3HV7", "dateTime": 1520870773928}, {"current_trial": 150, "trialdata": {"rt": -1, "trial_type": "single-stim", "stimulus": "<p id=\"stim\">6</p>", "internal_node_id": "0.0-110.0-4.0", "time_elapsed": 723874, "key_press": -1, "trial_index": 150}, "uniqueid": "MTK3628:3G5F9DBFOQ4VK5SOA3UENG9CQM3HV7", "dateTime": 1520870774931}, {"current_trial": 151, "trialdata": {"rt": -1, "trial_type": "single-stim", "stimulus": "<p id=\"stim\">5</p>", "internal_node_id": "0.0-110.0-5.0", "time_elapsed": 724879, "key_press": -1, "trial_index": 151}, "uniqueid": "MTK3628:3G5F9DBFOQ4VK5SOA3UENG9CQM3HV7", "dateTime": 1520870775936}, {"current_trial": 152, "trialdata": {"rt": -1, "trial_type": "single-stim", "stimulus": "<p id=\"stim\">4</p>", "internal_node_id": "0.0-110.0-6.0", "time_elapsed": 725882, "key_press": -1, "trial_index": 152}, "uniqueid": "MTK3628:3G5F9DBFOQ4VK5SOA3UENG9CQM3HV7", "dateTime": 1520870776939}, {"current_trial": 153, "trialdata": {"rt": -1, "trial_type": "single-stim", "stimulus": "<p id=\"stim\">3</p>", "internal_node_id": "0.0-110.0-7.0", "time_elapsed": 726887, "key_press": -1, "trial_index": 153}, "uniqueid": "MTK3628:3G5F9DBFOQ4VK5SOA3UENG9CQM3HV7", "dateTime": 1520870777944}, {"current_trial": 154, "trialdata": {"rt": -1, "trial_type": "single-stim", "stimulus": "<p id=\"stim\">2</p>", "internal_node_id": "0.0-110.0-8.0", "time_elapsed": 727891, "key_press": -1, "trial_index": 154}, "uniqueid": "MTK3628:3G5F9DBFOQ4VK5SOA3UENG9CQM3HV7", "dateTime": 1520870778948}, {"current_trial": 155, "trialdata": {"rt": -1, "trial_type": "single-stim", "stimulus": "<p id=\"stim\">1</p>", "internal_node_id": "0.0-110.0-9.0", "time_elapsed": 728895, "key_press": -1, "trial_index": 155}, "uniqueid": "MTK3628:3G5F9DBFOQ4VK5SOA3UENG9CQM3HV7", "dateTime": 1520870779952}, {"current_trial": 156, "trialdata": {"rt": -1, "trial_type": "single-stim", "stimulus": "<p id=\"stim\">+</p>", "internal_node_id": "0.0-111.0-0.0", "time_elapsed": 730398, "key_press": -1, "type": "FIXATION", "trial_index": 156}, "uniqueid": "MTK3628:3G5F9DBFOQ4VK5SOA3UENG9CQM3HV7", "dateTime": 1520870781456}, {"current_trial": 157, "trialdata": {"rt": -1, "trial_type": "single-stim", "word": "apple", "stimulus": "<p id=\"stim\">APPLE</p>", "conditions": [12, 1600, "v", 12000], "internal_node_id": "0.0-112.0", "trial": 4, "time_elapsed": 732000, "serialpos": 0, "key_press": -1, "wordID": 32, "type": "PRES_VIS", "trial_index": 157}, "uniqueid": "MTK3628:3G5F9DBFOQ4VK5SOA3UENG9CQM3HV7", "dateTime": 1520870783057}, {"current_trial": 158, "trialdata": {"rt": -1, "trial_type": "single-stim", "word": "parsley", "stimulus": "<p id=\"stim\">PARSLEY</p>", "conditions": [12, 1600, "v", 12000], "internal_node_id": "0.0-113.0", "trial": 4, "time_elapsed": 734496, "serialpos": 1, "key_press": -1, "wordID": 1015, "type": "PRES_VIS", "trial_index": 158}, "uniqueid": "MTK3628:3G5F9DBFOQ4VK5SOA3UENG9CQM3HV7", "dateTime": 1520870785553}, {"current_trial": 159, "trialdata": {"rt": -1, "trial_type": "single-stim", "word": "pasta", "stimulus": "<p id=\"stim\">PASTA</p>", "conditions": [12, 1600, "v", 12000], "internal_node_id": "0.0-114.0", "trial": 4, "time_elapsed": 737096, "serialpos": 2, "key_press": -1, "wordID": 1020, "type": "PRES_VIS", "trial_index": 159}, "uniqueid": "MTK3628:3G5F9DBFOQ4VK5SOA3UENG9CQM3HV7", "dateTime": 1520870788154}, {"current_trial": 160, "trialdata": {"rt": -1, "trial_type": "single-stim", "word": "lagoon", "stimulus": "<p id=\"stim\">LAGOON</p>", "conditions": [12, 1600, "v", 12000], "internal_node_id": "0.0-115.0", "trial": 4, "time_elapsed": 739534, "serialpos": 3, "key_press": -1, "wordID": 794, "type": "PRES_VIS", "trial_index": 160}, "uniqueid": "MTK3628:3G5F9DBFOQ4VK5SOA3UENG9CQM3HV7", "dateTime": 1520870790591}, {"current_trial": 161, "trialdata": {"rt": -1, "trial_type": "single-stim", "word": "temple", "stimulus": "<p id=\"stim\">TEMPLE</p>", "conditions": [12, 1600, "v", 12000], "internal_node_id": "0.0-116.0", "trial": 4, "time_elapsed": 742134, "serialpos": 4, "key_press": -1, "wordID": 1447, "type": "PRES_VIS", "trial_index": 161}, "uniqueid": "MTK3628:3G5F9DBFOQ4VK5SOA3UENG9CQM3HV7", "dateTime": 1520870793191}, {"current_trial": 162, "trialdata": {"rt": -1, "trial_type": "single-stim", "word": "rod", "stimulus": "<p id=\"stim\">ROD</p>", "conditions": [12, 1600, "v", 12000], "internal_node_id": "0.0-117.0", "trial": 4, "time_elapsed": 744922, "serialpos": 5, "key_press": -1, "wordID": 1202, "type": "PRES_VIS", "trial_index": 162}, "uniqueid": "MTK3628:3G5F9DBFOQ4VK5SOA3UENG9CQM3HV7", "dateTime": 1520870795979}, {"current_trial": 163, "trialdata": {"rt": -1, "trial_type": "single-stim", "word": "ulcer", "stimulus": "<p id=\"stim\">ULCER</p>", "conditions": [12, 1600, "v", 12000], "internal_node_id": "0.0-118.0", "trial": 4, "time_elapsed": 747450, "serialpos": 6, "key_press": -1, "wordID": 1532, "type": "PRES_VIS", "trial_index": 163}, "uniqueid": "MTK3628:3G5F9DBFOQ4VK5SOA3UENG9CQM3HV7", "dateTime": 1520870798508}, {"current_trial": 164, "trialdata": {"rt": -1, "trial_type": "single-stim", "word": "piano", "stimulus": "<p id=\"stim\">PIANO</p>", "conditions": [12, 1600, "v", 12000], "internal_node_id": "0.0-119.0", "trial": 4, "time_elapsed": 749918, "serialpos": 7, "key_press": -1, "wordID": 1056, "type": "PRES_VIS", "trial_index": 164}, "uniqueid": "MTK3628:3G5F9DBFOQ4VK5SOA3UENG9CQM3HV7", "dateTime": 1520870800975}, {"current_trial": 165, "trialdata": {"rt": -1, "trial_type": "single-stim", "word": "coffee", "stimulus": "<p id=\"stim\">COFFEE</p>", "conditions": [12, 1600, "v", 12000], "internal_node_id": "0.0-120.0", "trial": 4, "time_elapsed": 752339, "serialpos": 8, "key_press": -1, "wordID": 340, "type": "PRES_VIS", "trial_index": 165}, "uniqueid": "MTK3628:3G5F9DBFOQ4VK5SOA3UENG9CQM3HV7", "dateTime": 1520870803396}, {"current_trial": 166, "trialdata": {"rt": -1, "trial_type": "single-stim", "word": "driver", "stimulus": "<p id=\"stim\">DRIVER</p>", "conditions": [12, 1600, "v", 12000], "internal_node_id": "0.0-121.0", "trial": 4, "time_elapsed": 755008, "serialpos": 9, "key_press": -1, "wordID": 498, "type": "PRES_VIS", "trial_index": 166}, "uniqueid": "MTK3628:3G5F9DBFOQ4VK5SOA3UENG9CQM3HV7", "dateTime": 1520870806065}, {"current_trial": 167, "trialdata": {"rt": -1, "trial_type": "single-stim", "word": "flute", "stimulus": "<p id=\"stim\">FLUTE</p>", "conditions": [12, 1600, "v", 12000], "internal_node_id": "0.0-122.0", "trial": 4, "time_elapsed": 757492, "serialpos": 10, "key_press": -1, "wordID": 584, "type": "PRES_VIS", "trial_index": 167}, "uniqueid": "MTK3628:3G5F9DBFOQ4VK5SOA3UENG9CQM3HV7", "dateTime": 1520870808549}, {"current_trial": 168, "trialdata": {"rt": -1, "trial_type": "single-stim", "word": "breast", "stimulus": "<p id=\"stim\">BREAST</p>", "conditions": [12, 1600, "v", 12000], "internal_node_id": "0.0-123.0", "trial": 4, "time_elapsed": 760121, "serialpos": 11, "key_press": -1, "wordID": 170, "type": "PRES_VIS", "trial_index": 168}, "uniqueid": "MTK3628:3G5F9DBFOQ4VK5SOA3UENG9CQM3HV7", "dateTime": 1520870811178}, {"current_trial": 169, "trialdata": {"rt": -1, "trial_type": "single-stim", "stimulus": "", "internal_node_id": "0.0-124.0-0.0", "time_elapsed": 762597, "key_press": -1, "type": "PRE_RECALL_DELAY", "trial_index": 169}, "uniqueid": "MTK3628:3G5F9DBFOQ4VK5SOA3UENG9CQM3HV7", "dateTime": 1520870813654}, {"current_trial": 170, "trialdata": {"rt": -1000, "trial_type": "single-audio", "stimulus": "/static/audio/400Hz.wav", "internal_node_id": "0.0-125.0", "time_elapsed": 763098, "key_press": -1, "type": "PRE_RECALL_ALERT", "trial_index": 170}, "uniqueid": "MTK3628:3G5F9DBFOQ4VK5SOA3UENG9CQM3HV7", "dateTime": 1520870814156}, {"current_trial": 171, "trialdata": {"rt": [4357, 8821, 10853, 14013, 17389, 21366, 24109, 28061, 32286], "recwords": ["apple", "parsley", "pasta", "temple", "driver", "piano", "rod", "breast", "ulcer"], "key_times": [1813, 2124, 2309, 2533, 2741, 4357, 5117, 5317, 5637, 6117, 7013, 7221, 7596, 8821, 9396, 9557, 9774, 9957, 10109, 10853, 11845, 11997, 12413, 12765, 12941, 13149, 14013, 14965, 15437, 15621, 16285, 16477, 16685, 17389, 19173, 19589, 19798, 20069, 20949, 21366, 21845, 22189, 22486, 24109, 25741, 25917, 26125, 26381, 26581, 26894, 28061, 28821, 29702, 31174, 31517, 31718, 32286], "trial_type": "free-recall", "conditions": [12, 1600, "v", 12000], "internal_node_id": "0.0-126.0-0.0", "key_presses": [65, 80, 80, 76, 69, 13, 80, 65, 82, 83, 76, 69, 89, 13, 80, 65, 83, 84, 65, 13, 84, 69, 77, 80, 76, 69, 13, 68, 82, 73, 86, 69, 82, 13, 80, 73, 65, 78, 79, 13, 82, 79, 68, 13, 66, 82, 69, 65, 83, 84, 13, 85, 76, 67, 69, 82, 13], "trial": 4, "time_elapsed": 823106, "type": "FREE_RECALL", "trial_index": 171}, "uniqueid": "MTK3628:3G5F9DBFOQ4VK5SOA3UENG9CQM3HV7", "dateTime": 1520870874166}, {"current_trial": 172, "trialdata": {"rt": 2424, "trial_type": "text", "internal_node_id": "0.0-127.0", "time_elapsed": 827537, "key_press": 32, "type": "INSTRUCTIONS", "trial_index": 172}, "uniqueid": "MTK3628:3G5F9DBFOQ4VK5SOA3UENG9CQM3HV7", "dateTime": 1520870878595}, {"current_trial": 173, "trialdata": {"rt": [7508, 10924], "trial_type": "math-distractor", "key_times": [3692, 3868, 6068, 7260, 7508, 9468, 10324, 10924], "responses": ["23", "14"], "num2": [7, 8, 3], "num3": [8, 2, 6], "conditions": [24, 800, "v", 12000], "internal_node_id": "0.0-128.0", "key_presses": [50, 49, 8, 51, 13, 49, 52, 13], "trial": 5, "time_elapsed": 841545, "type": "DISTRACTOR", "trial_index": 173, "num1": [8, 4, 5]}, "uniqueid": "MTK3628:3G5F9DBFOQ4VK5SOA3UENG9CQM3HV7", "dateTime": 1520870892602}, {"current_trial": 174, "trialdata": {"rt": -1, "trial_type": "single-stim", "stimulus": "<p id=\"stim\">10</p>", "internal_node_id": "0.0-129.0-0.0", "time_elapsed": 844551, "key_press": -1, "trial_index": 174}, "uniqueid": "MTK3628:3G5F9DBFOQ4VK5SOA3UENG9CQM3HV7", "dateTime": 1520870895608}, {"current_trial": 175, "trialdata": {"rt": -1, "trial_type": "single-stim", "stimulus": "<p id=\"stim\">9</p>", "internal_node_id": "0.0-129.0-1.0", "time_elapsed": 845556, "key_press": -1, "trial_index": 175}, "uniqueid": "MTK3628:3G5F9DBFOQ4VK5SOA3UENG9CQM3HV7", "dateTime": 1520870896613}, {"current_trial": 176, "trialdata": {"rt": -1, "trial_type": "single-stim", "stimulus": "<p id=\"stim\">8</p>", "internal_node_id": "0.0-129.0-2.0", "time_elapsed": 846560, "key_press": -1, "trial_index": 176}, "uniqueid": "MTK3628:3G5F9DBFOQ4VK5SOA3UENG9CQM3HV7", "dateTime": 1520870897617}, {"current_trial": 177, "trialdata": {"rt": -1, "trial_type": "single-stim", "stimulus": "<p id=\"stim\">7</p>", "internal_node_id": "0.0-129.0-3.0", "time_elapsed": 847565, "key_press": -1, "trial_index": 177}, "uniqueid": "MTK3628:3G5F9DBFOQ4VK5SOA3UENG9CQM3HV7", "dateTime": 1520870898622}, {"current_trial": 178, "trialdata": {"rt": -1, "trial_type": "single-stim", "stimulus": "<p id=\"stim\">6</p>", "internal_node_id": "0.0-129.0-4.0", "time_elapsed": 848567, "key_press": -1, "trial_index": 178}, "uniqueid": "MTK3628:3G5F9DBFOQ4VK5SOA3UENG9CQM3HV7", "dateTime": 1520870899624}, {"current_trial": 179, "trialdata": {"rt": -1, "trial_type": "single-stim", "stimulus": "<p id=\"stim\">5</p>", "internal_node_id": "0.0-129.0-5.0", "time_elapsed": 849571, "key_press": -1, "trial_index": 179}, "uniqueid": "MTK3628:3G5F9DBFOQ4VK5SOA3UENG9CQM3HV7", "dateTime": 1520870900629}, {"current_trial": 180, "trialdata": {"rt": 334, "trial_type": "single-stim", "stimulus": "<p id=\"stim\">4</p>", "internal_node_id": "0.0-129.0-6.0", "time_elapsed": 850576, "key_press": 37, "trial_index": 180}, "uniqueid": "MTK3628:3G5F9DBFOQ4VK5SOA3UENG9CQM3HV7", "dateTime": 1520870901634}, {"current_trial": 181, "trialdata": {"rt": -1, "trial_type": "single-stim", "stimulus": "<p id=\"stim\">3</p>", "internal_node_id": "0.0-129.0-7.0", "time_elapsed": 851580, "key_press": -1, "trial_index": 181}, "uniqueid": "MTK3628:3G5F9DBFOQ4VK5SOA3UENG9CQM3HV7", "dateTime": 1520870902637}, {"current_trial": 182, "trialdata": {"rt": -1, "trial_type": "single-stim", "stimulus": "<p id=\"stim\">2</p>", "internal_node_id": "0.0-129.0-8.0", "time_elapsed": 852584, "key_press": -1, "trial_index": 182}, "uniqueid": "MTK3628:3G5F9DBFOQ4VK5SOA3UENG9CQM3HV7", "dateTime": 1520870903641}, {"current_trial": 183, "trialdata": {"rt": -1, "trial_type": "single-stim", "stimulus": "<p id=\"stim\">1</p>", "internal_node_id": "0.0-129.0-9.0", "time_elapsed": 853589, "key_press": -1, "trial_index": 183}, "uniqueid": "MTK3628:3G5F9DBFOQ4VK5SOA3UENG9CQM3HV7", "dateTime": 1520870904646}, {"current_trial": 184, "trialdata": {"rt": -1, "trial_type": "single-stim", "stimulus": "<p id=\"stim\">+</p>", "internal_node_id": "0.0-130.0-0.0", "time_elapsed": 855092, "key_press": -1, "type": "FIXATION", "trial_index": 184}, "uniqueid": "MTK3628:3G5F9DBFOQ4VK5SOA3UENG9CQM3HV7", "dateTime": 1520870906149}, {"current_trial": 185, "trialdata": {"rt": -1, "trial_type": "single-stim", "word": "relish", "stimulus": "<p id=\"stim\">RELISH</p>", "conditions": [24, 800, "v", 12000], "internal_node_id": "0.0-131.0", "trial": 5, "time_elapsed": 855893, "serialpos": 0, "key_press": -1, "wordID": 1182, "type": "PRES_VIS", "trial_index": 185}, "uniqueid": "MTK3628:3G5F9DBFOQ4VK5SOA3UENG9CQM3HV7", "dateTime": 1520870906950}, {"current_trial": 186, "trialdata": {"rt": -1, "trial_type": "single-stim", "word": "dragon", "stimulus": "<p id=\"stim\">DRAGON</p>", "conditions": [24, 800, "v", 12000], "internal_node_id": "0.0-132.0", "trial": 5, "time_elapsed": 857721, "serialpos": 1, "key_press": -1, "wordID": 491, "type": "PRES_VIS", "trial_index": 186}, "uniqueid": "MTK3628:3G5F9DBFOQ4VK5SOA3UENG9CQM3HV7", "dateTime": 1520870908778}, {"current_trial": 187, "trialdata": {"rt": -1, "trial_type": "single-stim", "word": "swimmer", "stimulus": "<p id=\"stim\">SWIMMER</p>", "conditions": [24, 800, "v", 12000], "internal_node_id": "0.0-133.0", "trial": 5, "time_elapsed": 859625, "serialpos": 2, "key_press": -1, "wordID": 1419, "type": "PRES_VIS", "trial_index": 187}, "uniqueid": "MTK3628:3G5F9DBFOQ4VK5SOA3UENG9CQM3HV7", "dateTime": 1520870910682}, {"current_trial": 188, "trialdata": {"rt": -1, "trial_type": "single-stim", "word": "pliers", "stimulus": "<p id=\"stim\">PLIERS</p>", "conditions": [24, 800, "v", 12000], "internal_node_id": "0.0-134.0", "trial": 5, "time_elapsed": 861320, "serialpos": 3, "key_press": -1, "wordID": 1088, "type": "PRES_VIS", "trial_index": 188}, "uniqueid": "MTK3628:3G5F9DBFOQ4VK5SOA3UENG9CQM3HV7", "dateTime": 1520870912377}, {"current_trial": 189, "trialdata": {"rt": -1, "trial_type": "single-stim", "word": "tweezers", "stimulus": "<p id=\"stim\">TWEEZERS</p>", "conditions": [24, 800, "v", 12000], "internal_node_id": "0.0-135.0", "trial": 5, "time_elapsed": 863044, "serialpos": 4, "key_press": -1, "wordID": 1525, "type": "PRES_VIS", "trial_index": 189}, "uniqueid": "MTK3628:3G5F9DBFOQ4VK5SOA3UENG9CQM3HV7", "dateTime": 1520870914101}, {"current_trial": 190, "trialdata": {"rt": -1, "trial_type": "single-stim", "word": "slug", "stimulus": "<p id=\"stim\">SLUG</p>", "conditions": [24, 800, "v", 12000], "internal_node_id": "0.0-136.0", "trial": 5, "time_elapsed": 865017, "serialpos": 5, "key_press": -1, "wordID": 1328, "type": "PRES_VIS", "trial_index": 190}, "uniqueid": "MTK3628:3G5F9DBFOQ4VK5SOA3UENG9CQM3HV7", "dateTime": 1520870916074}, {"current_trial": 191, "trialdata": {"rt": -1, "trial_type": "single-stim", "word": "couch", "stimulus": "<p id=\"stim\">COUCH</p>", "conditions": [24, 800, "v", 12000], "internal_node_id": "0.0-137.0", "trial": 5, "time_elapsed": 866773, "serialpos": 6, "key_press": -1, "wordID": 385, "type": "PRES_VIS", "trial_index": 191}, "uniqueid": "MTK3628:3G5F9DBFOQ4VK5SOA3UENG9CQM3HV7", "dateTime": 1520870917830}, {"current_trial": 192, "trialdata": {"rt": -1, "trial_type": "single-stim", "word": "spool", "stimulus": "<p id=\"stim\">SPOOL</p>", "conditions": [24, 800, "v", 12000], "internal_node_id": "0.0-138.0", "trial": 5, "time_elapsed": 868401, "serialpos": 7, "key_press": -1, "wordID": 1355, "type": "PRES_VIS", "trial_index": 192}, "uniqueid": "MTK3628:3G5F9DBFOQ4VK5SOA3UENG9CQM3HV7", "dateTime": 1520870919458}, {"current_trial": 193, "trialdata": {"rt": -1, "trial_type": "single-stim", "word": "scarf", "stimulus": "<p id=\"stim\">SCARF</p>", "conditions": [24, 800, "v", 12000], "internal_node_id": "0.0-139.0", "trial": 5, "time_elapsed": 870339, "serialpos": 8, "key_press": -1, "wordID": 1245, "type": "PRES_VIS", "trial_index": 193}, "uniqueid": "MTK3628:3G5F9DBFOQ4VK5SOA3UENG9CQM3HV7", "dateTime": 1520870921396}, {"current_trial": 194, "trialdata": {"rt": -1, "trial_type": "single-stim", "word": "playground", "stimulus": "<p id=\"stim\">PLAYGROUND</p>", "conditions": [24, 800, "v", 12000], "internal_node_id": "0.0-140.0", "trial": 5, "time_elapsed": 872167, "serialpos": 9, "key_press": -1, "wordID": 1086, "type": "PRES_VIS", "trial_index": 194}, "uniqueid": "MTK3628:3G5F9DBFOQ4VK5SOA3UENG9CQM3HV7", "dateTime": 1520870923225}, {"current_trial": 195, "trialdata": {"rt": -1, "trial_type": "single-stim", "word": "diver", "stimulus": "<p id=\"stim\">DIVER</p>", "conditions": [24, 800, "v", 12000], "internal_node_id": "0.0-141.0", "trial": 5, "time_elapsed": 874124, "serialpos": 10, "key_press": -1, "wordID": 475, "type": "PRES_VIS", "trial_index": 195}, "uniqueid": "MTK3628:3G5F9DBFOQ4VK5SOA3UENG9CQM3HV7", "dateTime": 1520870925181}, {"current_trial": 196, "trialdata": {"rt": -1, "trial_type": "single-stim", "word": "gallon", "stimulus": "<p id=\"stim\">GALLON</p>", "conditions": [24, 800, "v", 12000], "internal_node_id": "0.0-142.0", "trial": 5, "time_elapsed": 875906, "serialpos": 11, "key_press": -1, "wordID": 617, "type": "PRES_VIS", "trial_index": 196}, "uniqueid": "MTK3628:3G5F9DBFOQ4VK5SOA3UENG9CQM3HV7", "dateTime": 1520870926964}, {"current_trial": 197, "trialdata": {"rt": -1, "trial_type": "single-stim", "word": "spider", "stimulus": "<p id=\"stim\">SPIDER</p>", "conditions": [24, 800, "v", 12000], "internal_node_id": "0.0-143.0", "trial": 5, "time_elapsed": 877879, "serialpos": 12, "key_press": -1, "wordID": 1350, "type": "PRES_VIS", "trial_index": 197}, "uniqueid": "MTK3628:3G5F9DBFOQ4VK5SOA3UENG9CQM3HV7", "dateTime": 1520870928937}, {"current_trial": 198, "trialdata": {"rt": -1, "trial_type": "single-stim", "word": "salad", "stimulus": "<p id=\"stim\">SALAD</p>", "conditions": [24, 800, "v", 12000], "internal_node_id": "0.0-144.0", "trial": 5, "time_elapsed": 879487, "serialpos": 13, "key_press": -1, "wordID": 1223, "type": "PRES_VIS", "trial_index": 198}, "uniqueid": "MTK3628:3G5F9DBFOQ4VK5SOA3UENG9CQM3HV7", "dateTime": 1520870930544}, {"current_trial": 199, "trialdata": {"rt": -1, "trial_type": "single-stim", "word": "rocket", "stimulus": "<p id=\"stim\">ROCKET</p>", "conditions": [24, 800, "v", 12000], "internal_node_id": "0.0-145.0", "trial": 5, "time_elapsed": 881153, "serialpos": 14, "key_press": -1, "wordID": 1201, "type": "PRES_VIS", "trial_index": 199}, "uniqueid": "MTK3628:3G5F9DBFOQ4VK5SOA3UENG9CQM3HV7", "dateTime": 1520870932210}, {"current_trial": 200, "trialdata": {"rt": -1, "trial_type": "single-stim", "word": "glass", "stimulus": "<p id=\"stim\">GLASS</p>", "conditions": [24, 800, "v", 12000], "internal_node_id": "0.0-146.0", "trial": 5, "time_elapsed": 883115, "serialpos": 15, "key_press": -1, "wordID": 638, "type": "PRES_VIS", "trial_index": 200}, "uniqueid": "MTK3628:3G5F9DBFOQ4VK5SOA3UENG9CQM3HV7", "dateTime": 1520870934172}, {"current_trial": 201, "trialdata": {"rt": -1, "trial_type": "single-stim", "word": "foot", "stimulus": "<p id=\"stim\">FOOT</p>", "conditions": [24, 800, "v", 12000], "internal_node_id": "0.0-147.0", "trial": 5, "time_elapsed": 884908, "serialpos": 16, "key_press": -1, "wordID": 589, "type": "PRES_VIS", "trial_index": 201}, "uniqueid": "MTK3628:3G5F9DBFOQ4VK5SOA3UENG9CQM3HV7", "dateTime": 1520870935965}, {"current_trial": 202, "trialdata": {"rt": -1, "trial_type": "single-stim", "word": "shortcake", "stimulus": "<p id=\"stim\">SHORTCAKE</p>", "conditions": [24, 800, "v", 12000], "internal_node_id": "0.0-148.0", "trial": 5, "time_elapsed": 886644, "serialpos": 17, "key_press": -1, "wordID": 1291, "type": "PRES_VIS", "trial_index": 202}, "uniqueid": "MTK3628:3G5F9DBFOQ4VK5SOA3UENG9CQM3HV7", "dateTime": 1520870937701}, {"current_trial": 203, "trialdata": {"rt": -1, "trial_type": "single-stim", "word": "brandy", "stimulus": "<p id=\"stim\">BRANDY</p>", "conditions": [24, 800, "v", 12000], "internal_node_id": "0.0-149.0", "trial": 5, "time_elapsed": 888280, "serialpos": 18, "key_press": -1, "wordID": 168, "type": "PRES_VIS", "trial_index": 203}, "uniqueid": "MTK3628:3G5F9DBFOQ4VK5SOA3UENG9CQM3HV7", "dateTime": 1520870939337}, {"current_trial": 204, "trialdata": {"rt": -1, "trial_type": "single-stim", "word": "scotch", "stimulus": "<p id=\"stim\">SCOTCH</p>", "conditions": [24, 800, "v", 12000], "internal_node_id": "0.0-150.0", "trial": 5, "time_elapsed": 889975, "serialpos": 19, "key_press": -1, "wordID": 1250, "type": "PRES_VIS", "trial_index": 204}, "uniqueid": "MTK3628:3G5F9DBFOQ4VK5SOA3UENG9CQM3HV7", "dateTime": 1520870941032}, {"current_trial": 205, "trialdata": {"rt": -1, "trial_type": "single-stim", "word": "box", "stimulus": "<p id=\"stim\">BOX</p>", "conditions": [24, 800, "v", 12000], "internal_node_id": "0.0-151.0", "trial": 5, "time_elapsed": 891687, "serialpos": 20, "key_press": -1, "wordID": 158, "type": "PRES_VIS", "trial_index": 205}, "uniqueid": "MTK3628:3G5F9DBFOQ4VK5SOA3UENG9CQM3HV7", "dateTime": 1520870942744}, {"current_trial": 206, "trialdata": {"rt": -1, "trial_type": "single-stim", "word": "forest", "stimulus": "<p id=\"stim\">FOREST</p>", "conditions": [24, 800, "v", 12000], "internal_node_id": "0.0-152.0", "trial": 5, "time_elapsed": 893411, "serialpos": 21, "key_press": -1, "wordID": 592, "type": "PRES_VIS", "trial_index": 206}, "uniqueid": "MTK3628:3G5F9DBFOQ4VK5SOA3UENG9CQM3HV7", "dateTime": 1520870944468}, {"current_trial": 207, "trialdata": {"rt": -1, "trial_type": "single-stim", "word": "servant", "stimulus": "<p id=\"stim\">SERVANT</p>", "conditions": [24, 800, "v", 12000], "internal_node_id": "0.0-153.0", "trial": 5, "time_elapsed": 895231, "serialpos": 22, "key_press": -1, "wordID": 1270, "type": "PRES_VIS", "trial_index": 207}, "uniqueid": "MTK3628:3G5F9DBFOQ4VK5SOA3UENG9CQM3HV7", "dateTime": 1520870946288}, {"current_trial": 208, "trialdata": {"rt": -1, "trial_type": "single-stim", "word": "vagrant", "stimulus": "<p id=\"stim\">VAGRANT</p>", "conditions": [24, 800, "v", 12000], "internal_node_id": "0.0-154.0", "trial": 5, "time_elapsed": 896900, "serialpos": 23, "key_press": -1, "wordID": 1543, "type": "PRES_VIS", "trial_index": 208}, "uniqueid": "MTK3628:3G5F9DBFOQ4VK5SOA3UENG9CQM3HV7", "dateTime": 1520870947958}, {"current_trial": 209, "trialdata": {"rt": -1, "trial_type": "single-stim", "stimulus": "", "internal_node_id": "0.0-155.0-0.0", "time_elapsed": 899146, "key_press": -1, "type": "PRE_RECALL_DELAY", "trial_index": 209}, "uniqueid": "MTK3628:3G5F9DBFOQ4VK5SOA3UENG9CQM3HV7", "dateTime": 1520870950203}, {"current_trial": 210, "trialdata": {"rt": -1000, "trial_type": "single-audio", "stimulus": "/static/audio/400Hz.wav", "internal_node_id": "0.0-156.0", "time_elapsed": 899648, "key_press": -1, "type": "PRE_RECALL_ALERT", "trial_index": 210}, "uniqueid": "MTK3628:3G5F9DBFOQ4VK5SOA3UENG9CQM3HV7", "dateTime": 1520870950705}, {"current_trial": 211, "trialdata": {"rt": [5420, 7596, 10020, 12652, 17852, 20044, 26028, 31108, 34061], "recwords": ["slug", "box", "pool", "couch", "diver", "salad", "dragon", "scotch", "rocket"], "key_times": [3516, 3996, 4284, 4716, 5420, 6084, 6364, 7172, 7596, 8436, 8660, 8844, 9084, 10020, 10653, 10956, 11245, 11556, 11908, 12652, 16069, 16316, 16717, 16900, 17125, 17852, 18533, 18740, 18948, 19100, 19565, 20044, 22221, 22461, 22812, 23197, 23693, 24260, 26028, 26965, 27581, 27860, 28293, 28829, 29028, 31108, 31789, 32141, 32476, 32829, 32989, 33301, 34061], "trial_type": "free-recall", "conditions": [24, 800, "v", 12000], "internal_node_id": "0.0-157.0-0.0", "key_presses": [83, 76, 85, 71, 13, 66, 79, 88, 13, 80, 79, 79, 76, 13, 67, 79, 85, 67, 72, 13, 68, 73, 86, 69, 82, 13, 83, 65, 76, 65, 68, 13, 68, 82, 65, 71, 79, 78, 13, 83, 67, 79, 84, 67, 72, 13, 82, 79, 67, 75, 69, 84, 13], "trial": 5, "time_elapsed": 959651, "type": "FREE_RECALL", "trial_index": 211}, "uniqueid": "MTK3628:3G5F9DBFOQ4VK5SOA3UENG9CQM3HV7", "dateTime": 1520871010710}, {"current_trial": 212, "trialdata": {"rt": 3259, "trial_type": "text", "internal_node_id": "0.0-158.0", "time_elapsed": 964918, "key_press": 32, "type": "INSTRUCTIONS", "trial_index": 212}, "uniqueid": "MTK3628:3G5F9DBFOQ4VK5SOA3UENG9CQM3HV7", "dateTime": 1520871015975}, {"current_trial": 213, "trialdata": {"rt": [3152, 5969, 8441, 11801, 14033, 17730, 22394], "trial_type": "math-distractor", "key_times": [2617, 3152, 4841, 5617, 5969, 7929, 8105, 8441, 11433, 11801, 13489, 13721, 14033, 16761, 16986, 17730, 21058, 22033, 22394], "responses": ["5", "16", "11", "9", "10", "17", "19"], "num2": [2, 6, 1, 2, 4, 4, 9, 4], "num3": [1, 2, 8, 4, 5, 8, 6, 8], "conditions": [12, 800, "v", 24000], "internal_node_id": "0.0-159.0", "key_presses": [53, 13, 49, 54, 13, 49, 49, 13, 57, 13, 49, 48, 13, 49, 55, 13, 49, 57, 13], "trial": 6, "time_elapsed": 990929, "type": "DISTRACTOR", "trial_index": 213, "num1": [2, 8, 2, 3, 1, 5, 4, 5]}, "uniqueid": "MTK3628:3G5F9DBFOQ4VK5SOA3UENG9CQM3HV7", "dateTime": 1520871041987}, {"current_trial": 214, "trialdata": {"rt": -1, "trial_type": "single-stim", "stimulus": "<p id=\"stim\">10</p>", "internal_node_id": "0.0-160.0-0.0", "time_elapsed": 993935, "key_press": -1, "trial_index": 214}, "uniqueid": "MTK3628:3G5F9DBFOQ4VK5SOA3UENG9CQM3HV7", "dateTime": 1520871044993}, {"current_trial": 215, "trialdata": {"rt": -1, "trial_type": "single-stim", "stimulus": "<p id=\"stim\">9</p>", "internal_node_id": "0.0-160.0-1.0", "time_elapsed": 994940, "key_press": -1, "trial_index": 215}, "uniqueid": "MTK3628:3G5F9DBFOQ4VK5SOA3UENG9CQM3HV7", "dateTime": 1520871045997}, {"current_trial": 216, "trialdata": {"rt": -1, "trial_type": "single-stim", "stimulus": "<p id=\"stim\">8</p>", "internal_node_id": "0.0-160.0-2.0", "time_elapsed": 995944, "key_press": -1, "trial_index": 216}, "uniqueid": "MTK3628:3G5F9DBFOQ4VK5SOA3UENG9CQM3HV7", "dateTime": 1520871047001}, {"current_trial": 217, "trialdata": {"rt": -1, "trial_type": "single-stim", "stimulus": "<p id=\"stim\">7</p>", "internal_node_id": "0.0-160.0-3.0", "time_elapsed": 996948, "key_press": -1, "trial_index": 217}, "uniqueid": "MTK3628:3G5F9DBFOQ4VK5SOA3UENG9CQM3HV7", "dateTime": 1520871048006}, {"current_trial": 218, "trialdata": {"rt": -1, "trial_type": "single-stim", "stimulus": "<p id=\"stim\">6</p>", "internal_node_id": "0.0-160.0-4.0", "time_elapsed": 997952, "key_press": -1, "trial_index": 218}, "uniqueid": "MTK3628:3G5F9DBFOQ4VK5SOA3UENG9CQM3HV7", "dateTime": 1520871049010}, {"current_trial": 219, "trialdata": {"rt": -1, "trial_type": "single-stim", "stimulus": "<p id=\"stim\">5</p>", "internal_node_id": "0.0-160.0-5.0", "time_elapsed": 998957, "key_press": -1, "trial_index": 219}, "uniqueid": "MTK3628:3G5F9DBFOQ4VK5SOA3UENG9CQM3HV7", "dateTime": 1520871050014}, {"current_trial": 220, "trialdata": {"rt": -1, "trial_type": "single-stim", "stimulus": "<p id=\"stim\">4</p>", "internal_node_id": "0.0-160.0-6.0", "time_elapsed": 999962, "key_press": -1, "trial_index": 220}, "uniqueid": "MTK3628:3G5F9DBFOQ4VK5SOA3UENG9CQM3HV7", "dateTime": 1520871051020}, {"current_trial": 221, "trialdata": {"rt": -1, "trial_type": "single-stim", "stimulus": "<p id=\"stim\">3</p>", "internal_node_id": "0.0-160.0-7.0", "time_elapsed": 1000965, "key_press": -1, "trial_index": 221}, "uniqueid": "MTK3628:3G5F9DBFOQ4VK5SOA3UENG9CQM3HV7", "dateTime": 1520871052022}, {"current_trial": 222, "trialdata": {"rt": -1, "trial_type": "single-stim", "stimulus": "<p id=\"stim\">2</p>", "internal_node_id": "0.0-160.0-8.0", "time_elapsed": 1001970, "key_press": -1, "trial_index": 222}, "uniqueid": "MTK3628:3G5F9DBFOQ4VK5SOA3UENG9CQM3HV7", "dateTime": 1520871053027}, {"current_trial": 223, "trialdata": {"rt": -1, "trial_type": "single-stim", "stimulus": "<p id=\"stim\">1</p>", "internal_node_id": "0.0-160.0-9.0", "time_elapsed": 1002973, "key_press": -1, "trial_index": 223}, "uniqueid": "MTK3628:3G5F9DBFOQ4VK5SOA3UENG9CQM3HV7", "dateTime": 1520871054030}, {"current_trial": 224, "trialdata": {"rt": -1, "trial_type": "single-stim", "stimulus": "<p id=\"stim\">+</p>", "internal_node_id": "0.0-161.0-0.0", "time_elapsed": 1004476, "key_press": -1, "type": "FIXATION", "trial_index": 224}, "uniqueid": "MTK3628:3G5F9DBFOQ4VK5SOA3UENG9CQM3HV7", "dateTime": 1520871055533}, {"current_trial": 225, "trialdata": {"rt": -1, "trial_type": "single-stim", "word": "paddle", "stimulus": "<p id=\"stim\">PADDLE</p>", "conditions": [12, 800, "v", 24000], "internal_node_id": "0.0-162.0", "trial": 6, "time_elapsed": 1005277, "serialpos": 0, "key_press": -1, "wordID": 999, "type": "PRES_VIS", "trial_index": 225}, "uniqueid": "MTK3628:3G5F9DBFOQ4VK5SOA3UENG9CQM3HV7", "dateTime": 1520871056334}, {"current_trial": 226, "trialdata": {"rt": -1, "trial_type": "single-stim", "word": "lapel", "stimulus": "<p id=\"stim\">LAPEL</p>", "conditions": [12, 800, "v", 24000], "internal_node_id": "0.0-163.0", "trial": 6, "time_elapsed": 1006973, "serialpos": 1, "key_press": -1, "wordID": 799, "type": "PRES_VIS", "trial_index": 226}, "uniqueid": "MTK3628:3G5F9DBFOQ4VK5SOA3UENG9CQM3HV7", "dateTime": 1520871058030}, {"current_trial": 227, "trialdata": {"rt": -1, "trial_type": "single-stim", "word": "donkey", "stimulus": "<p id=\"stim\">DONKEY</p>", "conditions": [12, 800, "v", 24000], "internal_node_id": "0.0-164.0", "trial": 6, "time_elapsed": 1008708, "serialpos": 2, "key_press": -1, "wordID": 483, "type": "PRES_VIS", "trial_index": 227}, "uniqueid": "MTK3628:3G5F9DBFOQ4VK5SOA3UENG9CQM3HV7", "dateTime": 1520871059765}, {"current_trial": 228, "trialdata": {"rt": -1, "trial_type": "single-stim", "word": "camel", "stimulus": "<p id=\"stim\">CAMEL</p>", "conditions": [12, 800, "v", 24000], "internal_node_id": "0.0-165.0", "trial": 6, "time_elapsed": 1010547, "serialpos": 3, "key_press": -1, "wordID": 222, "type": "PRES_VIS", "trial_index": 228}, "uniqueid": "MTK3628:3G5F9DBFOQ4VK5SOA3UENG9CQM3HV7", "dateTime": 1520871061605}, {"current_trial": 229, "trialdata": {"rt": -1, "trial_type": "single-stim", "word": "scissors", "stimulus": "<p id=\"stim\">SCISSORS</p>", "conditions": [12, 800, "v", 24000], "internal_node_id": "0.0-166.0", "trial": 6, "time_elapsed": 1012533, "serialpos": 4, "key_press": -1, "wordID": 1249, "type": "PRES_VIS", "trial_index": 229}, "uniqueid": "MTK3628:3G5F9DBFOQ4VK5SOA3UENG9CQM3HV7", "dateTime": 1520871063590}, {"current_trial": 230, "trialdata": {"rt": -1, "trial_type": "single-stim", "word": "rabbit", "stimulus": "<p id=\"stim\">RABBIT</p>", "conditions": [12, 800, "v", 24000], "internal_node_id": "0.0-167.0", "trial": 6, "time_elapsed": 1014423, "serialpos": 5, "key_press": -1, "wordID": 1151, "type": "PRES_VIS", "trial_index": 230}, "uniqueid": "MTK3628:3G5F9DBFOQ4VK5SOA3UENG9CQM3HV7", "dateTime": 1520871065480}, {"current_trial": 231, "trialdata": {"rt": -1, "trial_type": "single-stim", "word": "cod", "stimulus": "<p id=\"stim\">COD</p>", "conditions": [12, 800, "v", 24000], "internal_node_id": "0.0-168.0", "trial": 6, "time_elapsed": 1016196, "serialpos": 6, "key_press": -1, "wordID": 339, "type": "PRES_VIS", "trial_index": 231}, "uniqueid": "MTK3628:3G5F9DBFOQ4VK5SOA3UENG9CQM3HV7", "dateTime": 1520871067253}, {"current_trial": 232, "trialdata": {"rt": -1, "trial_type": "single-stim", "word": "lady", "stimulus": "<p id=\"stim\">LADY</p>", "conditions": [12, 800, "v", 24000], "internal_node_id": "0.0-169.0", "trial": 6, "time_elapsed": 1018058, "serialpos": 7, "key_press": -1, "wordID": 793, "type": "PRES_VIS", "trial_index": 232}, "uniqueid": "MTK3628:3G5F9DBFOQ4VK5SOA3UENG9CQM3HV7", "dateTime": 1520871069116}, {"current_trial": 233, "trialdata": {"rt": -1, "trial_type": "single-stim", "word": "fiddle", "stimulus": "<p id=\"stim\">FIDDLE</p>", "conditions": [12, 800, "v", 24000], "internal_node_id": "0.0-170.0", "trial": 6, "time_elapsed": 1019703, "serialpos": 8, "key_press": -1, "wordID": 560, "type": "PRES_VIS", "trial_index": 233}, "uniqueid": "MTK3628:3G5F9DBFOQ4VK5SOA3UENG9CQM3HV7", "dateTime": 1520871070760}, {"current_trial": 234, "trialdata": {"rt": -1, "trial_type": "single-stim", "word": "mailman", "stimulus": "<p id=\"stim\">MAILMAN</p>", "conditions": [12, 800, "v", 24000], "internal_node_id": "0.0-171.0", "trial": 6, "time_elapsed": 1021314, "serialpos": 9, "key_press": -1, "wordID": 857, "type": "PRES_VIS", "trial_index": 234}, "uniqueid": "MTK3628:3G5F9DBFOQ4VK5SOA3UENG9CQM3HV7", "dateTime": 1520871072371}, {"current_trial": 235, "trialdata": {"rt": -1, "trial_type": "single-stim", "word": "sticker", "stimulus": "<p id=\"stim\">STICKER</p>", "conditions": [12, 800, "v", 24000], "internal_node_id": "0.0-172.0", "trial": 6, "time_elapsed": 1023021, "serialpos": 10, "key_press": -1, "wordID": 1381, "type": "PRES_VIS", "trial_index": 235}, "uniqueid": "MTK3628:3G5F9DBFOQ4VK5SOA3UENG9CQM3HV7", "dateTime": 1520871074078}, {"current_trial": 236, "trialdata": {"rt": -1, "trial_type": "single-stim", "word": "salmon", "stimulus": "<p id=\"stim\">SALMON</p>", "conditions": [12, 800, "v", 24000], "internal_node_id": "0.0-173.0", "trial": 6, "time_elapsed": 1024866, "serialpos": 11, "key_press": -1, "wordID": 1226, "type": "PRES_VIS", "trial_index": 236}, "uniqueid": "MTK3628:3G5F9DBFOQ4VK5SOA3UENG9CQM3HV7", "dateTime": 1520871075923}, {"current_trial": 237, "trialdata": {"rt": -1, "trial_type": "single-stim", "stimulus": "", "internal_node_id": "0.0-174.0-0.0", "time_elapsed": 1027084, "key_press": -1, "type": "PRE_RECALL_DELAY", "trial_index": 237}, "uniqueid": "MTK3628:3G5F9DBFOQ4VK5SOA3UENG9CQM3HV7", "dateTime": 1520871078141}, {"current_trial": 238, "trialdata": {"rt": -1000, "trial_type": "single-audio", "stimulus": "/static/audio/400Hz.wav", "internal_node_id": "0.0-175.0", "time_elapsed": 1027586, "key_press": -1, "type": "PRE_RECALL_ALERT", "trial_index": 238}, "uniqueid": "MTK3628:3G5F9DBFOQ4VK5SOA3UENG9CQM3HV7", "dateTime": 1520871078643}, {"current_trial": 239, "trialdata": {"rt": [2846, 6973, 9094, 12086], "recwords": ["cod", "camel", "lady", "sticker"], "key_times": [1453, 1990, 2526, 2846, 4886, 5022, 5390, 5549, 6061, 6973, 7558, 7717, 7974, 8318, 9094, 9934, 10286, 10710, 10982, 11190, 11390, 11598, 12086], "trial_type": "free-recall", "conditions": [12, 800, "v", 24000], "internal_node_id": "0.0-176.0-0.0", "key_presses": [67, 79, 68, 13, 67, 65, 77, 69, 76, 32, 76, 65, 68, 89, 32, 83, 84, 73, 67, 75, 69, 82, 13], "trial": 6, "time_elapsed": 1087589, "type": "FREE_RECALL", "trial_index": 239}, "uniqueid": "MTK3628:3G5F9DBFOQ4VK5SOA3UENG9CQM3HV7", "dateTime": 1520871138648}, {"current_trial": 240, "trialdata": {"rt": 1416, "trial_type": "text", "internal_node_id": "0.0-177.0", "time_elapsed": 1091010, "key_press": 32, "type": "INSTRUCTIONS", "trial_index": 240}, "uniqueid": "MTK3628:3G5F9DBFOQ4VK5SOA3UENG9CQM3HV7", "dateTime": 1520871142067}, {"current_trial": 241, "trialdata": {"rt": [3328, 6609, 9873, 14745, 18089, 20545, 23729], "trial_type": "math-distractor", "key_times": [2081, 2841, 3328, 5089, 5961, 6609, 8793, 9329, 9873, 13281, 14299, 14745, 16825, 17544, 18089, 19673, 20177, 20545, 22857, 23154, 23729], "responses": ["18", "16", "18", "11", "19", "16", "12"], "num2": [5, 7, 9, 3, 9, 4, 9, 2], "num3": [5, 5, 5, 2, 6, 4, 2, 4], "conditions": [12, 1600, "v", 24000], "internal_node_id": "0.0-178.0", "key_presses": [49, 56, 13, 49, 54, 13, 49, 56, 13, 49, 49, 13, 49, 57, 13, 49, 54, 13, 49, 50, 13], "trial": 7, "time_elapsed": 1117022, "type": "DISTRACTOR", "trial_index": 241, "num1": [8, 4, 4, 6, 4, 8, 1, 9]}, "uniqueid": "MTK3628:3G5F9DBFOQ4VK5SOA3UENG9CQM3HV7", "dateTime": 1520871168079}, {"current_trial": 242, "trialdata": {"rt": -1, "trial_type": "single-stim", "stimulus": "<p id=\"stim\">10</p>", "internal_node_id": "0.0-179.0-0.0", "time_elapsed": 1120028, "key_press": -1, "trial_index": 242}, "uniqueid": "MTK3628:3G5F9DBFOQ4VK5SOA3UENG9CQM3HV7", "dateTime": 1520871171086}, {"current_trial": 243, "trialdata": {"rt": -1, "trial_type": "single-stim", "stimulus": "<p id=\"stim\">9</p>", "internal_node_id": "0.0-179.0-1.0", "time_elapsed": 1121033, "key_press": -1, "trial_index": 243}, "uniqueid": "MTK3628:3G5F9DBFOQ4VK5SOA3UENG9CQM3HV7", "dateTime": 1520871172090}, {"current_trial": 244, "trialdata": {"rt": -1, "trial_type": "single-stim", "stimulus": "<p id=\"stim\">8</p>", "internal_node_id": "0.0-179.0-2.0", "time_elapsed": 1122037, "key_press": -1, "trial_index": 244}, "uniqueid": "MTK3628:3G5F9DBFOQ4VK5SOA3UENG9CQM3HV7", "dateTime": 1520871173094}, {"current_trial": 245, "trialdata": {"rt": -1, "trial_type": "single-stim", "stimulus": "<p id=\"stim\">7</p>", "internal_node_id": "0.0-179.0-3.0", "time_elapsed": 1123041, "key_press": -1, "trial_index": 245}, "uniqueid": "MTK3628:3G5F9DBFOQ4VK5SOA3UENG9CQM3HV7", "dateTime": 1520871174098}, {"current_trial": 246, "trialdata": {"rt": -1, "trial_type": "single-stim", "stimulus": "<p id=\"stim\">6</p>", "internal_node_id": "0.0-179.0-4.0", "time_elapsed": 1124045, "key_press": -1, "trial_index": 246}, "uniqueid": "MTK3628:3G5F9DBFOQ4VK5SOA3UENG9CQM3HV7", "dateTime": 1520871175103}, {"current_trial": 247, "trialdata": {"rt": -1, "trial_type": "single-stim", "stimulus": "<p id=\"stim\">5</p>", "internal_node_id": "0.0-179.0-5.0", "time_elapsed": 1125050, "key_press": -1, "trial_index": 247}, "uniqueid": "MTK3628:3G5F9DBFOQ4VK5SOA3UENG9CQM3HV7", "dateTime": 1520871176108}, {"current_trial": 248, "trialdata": {"rt": -1, "trial_type": "single-stim", "stimulus": "<p id=\"stim\">4</p>", "internal_node_id": "0.0-179.0-6.0", "time_elapsed": 1126054, "key_press": -1, "trial_index": 248}, "uniqueid": "MTK3628:3G5F9DBFOQ4VK5SOA3UENG9CQM3HV7", "dateTime": 1520871177111}, {"current_trial": 249, "trialdata": {"rt": -1, "trial_type": "single-stim", "stimulus": "<p id=\"stim\">3</p>", "internal_node_id": "0.0-179.0-7.0", "time_elapsed": 1127058, "key_press": -1, "trial_index": 249}, "uniqueid": "MTK3628:3G5F9DBFOQ4VK5SOA3UENG9CQM3HV7", "dateTime": 1520871178115}, {"current_trial": 250, "trialdata": {"rt": -1, "trial_type": "single-stim", "stimulus": "<p id=\"stim\">2</p>", "internal_node_id": "0.0-179.0-8.0", "time_elapsed": 1128062, "key_press": -1, "trial_index": 250}, "uniqueid": "MTK3628:3G5F9DBFOQ4VK5SOA3UENG9CQM3HV7", "dateTime": 1520871179119}, {"current_trial": 251, "trialdata": {"rt": -1, "trial_type": "single-stim", "stimulus": "<p id=\"stim\">1</p>", "internal_node_id": "0.0-179.0-9.0", "time_elapsed": 1129066, "key_press": -1, "trial_index": 251}, "uniqueid": "MTK3628:3G5F9DBFOQ4VK5SOA3UENG9CQM3HV7", "dateTime": 