{"assignmentId": "3WS1NTTKEZJVD802CGIPZ279GP3F0X", "workerId": "MTK3235", "questiondata": {"origin": "United States", "strat-rehearsal": "30", "marital": "Married/Domestic Partnership", "education": "Bachelor's degree", "ethnicity": "Not Hispanic", "color_depth": 24, "distracted": "No", "wrote-notes": "No", "strat-other": "no", "screen_width": 1280, "avail_screen_width": 1280, "avail_screen_height": 984, "strat-image": "50", "language": "English", "gender": "Female", "age": "32", "gender_other": "", "race": ["White"], "strat-categorize": "66", "pixel_depth": 24, "strat-spatial": "1", "strat-story": "3", "race_other": "", "screen_height": 1024}, "bonus": 0, "hitId": "3NSCTNUR2ZUXP47184X7DCWPFKY5A2", "counterbalance": 851, "useragent": "Mozilla/5.0 (Windows NT 10.0; Win64; x64) AppleWebKit/537.36 (KHTML, like Gecko) Chrome/64.0.3282.186 Safari/537.36", "eventdata": [{"eventtype": "initialized", "interval": 0, "value": null, "timestamp": 1520279104525}, {"eventtype": "window_resize", "interval": 0, "value": [1280, 977], "timestamp": 1520279104525}, {"eventtype": "window_resize", "interval": 1718, "value": [1280, 933], "timestamp": 1520279106243}, {"eventtype": "focus", "interval": 49458, "value": "off", "timestamp": 1520279155701}, {"eventtype": "focus", "interval": 2041, "value": "on", "timestamp": 1520279157742}, {"eventtype": "focus", "interval": 3054, "value": "off", "timestamp": 1520279160796}, {"eventtype": "focus", "interval": 2, "value": "on", "timestamp": 1520279160798}, {"eventtype": "focus", "interval": 312137, "value": "off", "timestamp": 1520279472935}, {"eventtype": "focus", "interval": 7653, "value": "on", "timestamp": 1520279480588}, {"eventtype": "focus", "interval": 1470556, "value": "off", "timestamp": 1520280951144}, {"eventtype": "focus", "interval": 5828, "value": "on", "timestamp": 1520280956972}], "data": [{"current_trial": 0, "trialdata": {"rt": 3163, "trial_type": "text", "internal_node_id": "0.0-0.0", "time_elapsed": 3165, "key_press": 98, "type": "INSTRUCTIONS", "trial_index": 0}, "uniqueid": "MTK3235:3WS1NTTKEZJVD802CGIPZ279GP3F0X", "dateTime": 1520279162090}, {"current_trial": 1, "trialdata": {"rt": 9836, "trial_type": "text", "internal_node_id": "0.0-1.0", "time_elapsed": 13003, "key_press": 13, "type": "INSTRUCTIONS", "trial_index": 1}, "uniqueid": "MTK3235:3WS1NTTKEZJVD802CGIPZ279GP3F0X", "dateTime": 1520279171927}, {"current_trial": 2, "trialdata": {"rt": [7039], "trial_type": "audio-test", "responses": ["ocean"], "internal_node_id": "0.0-2.0", "time_elapsed": 20052, "type": "AUDIO_TEST", "trial_index": 2}, "uniqueid": "MTK3235:3WS1NTTKEZJVD802CGIPZ279GP3F0X", "dateTime": 1520279178976}, {"current_trial": 3, "trialdata": {"rt": [10156], "trial_type": "audio-test", "responses": ["crystal"], "internal_node_id": "0.0-3.0", "time_elapsed": 30212, "type": "AUDIO_TEST", "trial_index": 3}, "uniqueid": "MTK3235:3WS1NTTKEZJVD802CGIPZ279GP3F0X", "dateTime": 1520279189136}, {"current_trial": 4, "trialdata": {"rt": [7861], "trial_type": "audio-test", "responses": ["spice"], "internal_node_id": "0.0-4.0", "time_elapsed": 38076, "type": "AUDIO_TEST", "trial_index": 4}, "uniqueid": "MTK3235:3WS1NTTKEZJVD802CGIPZ279GP3F0X", "dateTime": 1520279197000}, {"current_trial": 5, "trialdata": {"rt": 18258, "trial_type": "survey-text", "responses": "{\"Q0\":\"12am\",\"Q1\":\"6:30am\",\"Q2\":\"5\"}", "internal_node_id": "0.0-5.0", "time_elapsed": 57088, "type": "SLEEP_SURVEY", "trial_index": 5}, "uniqueid": "MTK3235:3WS1NTTKEZJVD802CGIPZ279GP3F0X", "dateTime": 1520279216012}, {"current_trial": 6, "trialdata": {"rt": 30282, "trial_type": "text", "internal_node_id": "0.0-6.0", "time_elapsed": 88371, "key_press": 13, "type": "INSTRUCTIONS", "trial_index": 6}, "uniqueid": "MTK3235:3WS1NTTKEZJVD802CGIPZ279GP3F0X", "dateTime": 1520279247295}, {"current_trial": 7, "trialdata": {"rt": 9898, "trial_type": "text", "internal_node_id": "0.0-7.0", "time_elapsed": 98770, "key_press": 13, "type": "INSTRUCTIONS", "trial_index": 7}, "uniqueid": "MTK3235:3WS1NTTKEZJVD802CGIPZ279GP3F0X", "dateTime": 1520279257694}, {"current_trial": 8, "trialdata": {"rt": 5211, "trial_type": "text", "internal_node_id": "0.0-8.0", "time_elapsed": 104483, "key_press": 13, "type": "INSTRUCTIONS", "trial_index": 8}, "uniqueid": "MTK3235:3WS1NTTKEZJVD802CGIPZ279GP3F0X", "dateTime": 1520279263407}, {"current_trial": 9, "trialdata": {"rt": [6777, 9424, 11721, 13745, 17337], "trial_type": "math-distractor", "key_times": [6370, 6561, 6777, 9161, 9345, 9424, 11057, 11249, 11721, 13425, 13626, 13745, 17025, 17114, 17337], "responses": ["20", "10", "10", "10", "16"], "num2": [3, 2, 2, 5, 3, 6], "num3": [8, 6, 5, 1, 9, 3], "conditions": [18, 1200, "a", 18000], "internal_node_id": "0.0-9.0", "key_presses": [98, 96, 13, 97, 96, 13, 97, 96, 13, 97, 96, 13, 97, 102, 13], "trial": 0, "time_elapsed": 123489, "type": "DISTRACTOR", "trial_index": 9, "num1": [9, 2, 3, 4, 4, 7]}, "uniqueid": "MTK3235:3WS1NTTKEZJVD802CGIPZ279GP3F0X", "dateTime": 1520279282414}, {"current_trial": 10, "trialdata": {"rt": -1, "trial_type": "single-stim", "stimulus": "<p id=\"stim\">10</p>", "internal_node_id": "0.0-10.0-0.0", "time_elapsed": 126495, "key_press": -1, "trial_index": 10}, "uniqueid": "MTK3235:3WS1NTTKEZJVD802CGIPZ279GP3F0X", "dateTime": 1520279285419}, {"current_trial": 11, "trialdata": {"rt": -1, "trial_type": "single-stim", "stimulus": "<p id=\"stim\">9</p>", "internal_node_id": "0.0-10.0-1.0", "time_elapsed": 127497, "key_press": -1, "trial_index": 11}, "uniqueid": "MTK3235:3WS1NTTKEZJVD802CGIPZ279GP3F0X", "dateTime": 1520279286421}, {"current_trial": 12, "trialdata": {"rt": -1, "trial_type": "single-stim", "stimulus": "<p id=\"stim\">8</p>", "internal_node_id": "0.0-10.0-2.0", "time_elapsed": 128499, "key_press": -1, "trial_index": 12}, "uniqueid": "MTK3235:3WS1NTTKEZJVD802CGIPZ279GP3F0X", "dateTime": 1520279287423}, {"current_trial": 13, "trialdata": {"rt": -1, "trial_type": "single-stim", "stimulus": "<p id=\"stim\">7</p>", "internal_node_id": "0.0-10.0-3.0", "time_elapsed": 129499, "key_press": -1, "trial_index": 13}, "uniqueid": "MTK3235:3WS1NTTKEZJVD802CGIPZ279GP3F0X", "dateTime": 1520279288424}, {"current_trial": 14, "trialdata": {"rt": -1, "trial_type": "single-stim", "stimulus": "<p id=\"stim\">6</p>", "internal_node_id": "0.0-10.0-4.0", "time_elapsed": 130501, "key_press": -1, "trial_index": 14}, "uniqueid": "MTK3235:3WS1NTTKEZJVD802CGIPZ279GP3F0X", "dateTime": 1520279289425}, {"current_trial": 15, "trialdata": {"rt": -1, "trial_type": "single-stim", "stimulus": "<p id=\"stim\">5</p>", "internal_node_id": "0.0-10.0-5.0", "time_elapsed": 131502, "key_press": -1, "trial_index": 15}, "uniqueid": "MTK3235:3WS1NTTKEZJVD802CGIPZ279GP3F0X", "dateTime": 1520279290427}, {"current_trial": 16, "trialdata": {"rt": -1, "trial_type": "single-stim", "stimulus": "<p id=\"stim\">4</p>", "internal_node_id": "0.0-10.0-6.0", "time_elapsed": 132505, "key_press": -1, "trial_index": 16}, "uniqueid": "MTK3235:3WS1NTTKEZJVD802CGIPZ279GP3F0X", "dateTime": 1520279291429}, {"current_trial": 17, "trialdata": {"rt": -1, "trial_type": "single-stim", "stimulus": "<p id=\"stim\">3</p>", "internal_node_id": "0.0-10.0-7.0", "time_elapsed": 133506, "key_press": -1, "trial_index": 17}, "uniqueid": "MTK3235:3WS1NTTKEZJVD802CGIPZ279GP3F0X", "dateTime": 1520279292430}, {"current_trial": 18, "trialdata": {"rt": -1, "trial_type": "single-stim", "stimulus": "<p id=\"stim\">2</p>", "internal_node_id": "0.0-10.0-8.0", "time_elapsed": 134510, "key_press": -1, "trial_index": 18}, "uniqueid": "MTK3235:3WS1NTTKEZJVD802CGIPZ279GP3F0X", "dateTime": 1520279293434}, {"current_trial": 19, "trialdata": {"rt": -1, "trial_type": "single-stim", "stimulus": "<p id=\"stim\">1</p>", "internal_node_id": "0.0-10.0-9.0", "time_elapsed": 135511, "key_press": -1, "trial_index": 19}, "uniqueid": "MTK3235:3WS1NTTKEZJVD802CGIPZ279GP3F0X", "dateTime": 1520279294435}, {"current_trial": 20, "trialdata": {"rt": -1, "trial_type": "single-stim", "stimulus": "<p id=\"stim\">+</p>", "internal_node_id": "0.0-11.0-0.0", "time_elapsed": 137013, "key_press": -1, "type": "FIXATION", "trial_index": 20}, "uniqueid": "MTK3235:3WS1NTTKEZJVD802CGIPZ279GP3F0X", "dateTime": 1520279295937}, {"current_trial": 21, "trialdata": {"rt": -1000, "trial_type": "single-audio", "word": "tile", "stimulus": "/static/audio/wordpool/TILE.wav", "conditions": [18, 1200, "a", 18000], "internal_node_id": "0.0-12.0", "trial": 0, "time_elapsed": 139177, "serialpos": 0, "key_press": -1, "wordID": 1467, "type": "PRES_AUD", "trial_index": 21}, "uniqueid": "MTK3235:3WS1NTTKEZJVD802CGIPZ279GP3F0X", "dateTime": 1520279298101}, {"current_trial": 22, "trialdata": {"rt": -1000, "trial_type": "single-audio", "word": "shoulder", "stimulus": "/static/audio/wordpool/SHOULDER.wav", "conditions": [18, 1200, "a", 18000], "internal_node_id": "0.0-13.0", "trial": 0, "time_elapsed": 141564, "serialpos": 1, "key_press": -1, "wordID": 1293, "type": "PRES_AUD", "trial_index": 22}, "uniqueid": "MTK3235:3WS1NTTKEZJVD802CGIPZ279GP3F0X", "dateTime": 1520279300488}, {"current_trial": 23, "trialdata": {"rt": -1000, "trial_type": "single-audio", "word": "dime", "stimulus": "/static/audio/wordpool/DIME.wav", "conditions": [18, 1200, "a", 18000], "internal_node_id": "0.0-14.0", "trial": 0, "time_elapsed": 143659, "serialpos": 2, "key_press": -1, "wordID": 465, "type": "PRES_AUD", "trial_index": 23}, "uniqueid": "MTK3235:3WS1NTTKEZJVD802CGIPZ279GP3F0X", "dateTime": 1520279302583}, {"current_trial": 24, "trialdata": {"rt": -1000, "trial_type": "single-audio", "word": "bathtub", "stimulus": "/static/audio/wordpool/BATHTUB.wav", "conditions": [18, 1200, "a", 18000], "internal_node_id": "0.0-15.0", "trial": 0, "time_elapsed": 145933, "serialpos": 3, "key_press": -1, "wordID": 99, "type": "PRES_AUD", "trial_index": 24}, "uniqueid": "MTK3235:3WS1NTTKEZJVD802CGIPZ279GP3F0X", "dateTime": 1520279304858}, {"current_trial": 25, "trialdata": {"rt": -1000, "trial_type": "single-audio", "word": "wrist", "stimulus": "/static/audio/wordpool/WRIST.wav", "conditions": [18, 1200, "a", 18000], "internal_node_id": "0.0-16.0", "trial": 0, "time_elapsed": 148155, "serialpos": 4, "key_press": -1, "wordID": 1625, "type": "PRES_AUD", "trial_index": 25}, "uniqueid": "MTK3235:3WS1NTTKEZJVD802CGIPZ279GP3F0X", "dateTime": 1520279307079}, {"current_trial": 26, "trialdata": {"rt": -1000, "trial_type": "single-audio", "word": "iceberg", "stimulus": "/static/audio/wordpool/ICEBERG.wav", "conditions": [18, 1200, "a", 18000], "internal_node_id": "0.0-17.0", "trial": 0, "time_elapsed": 150359, "serialpos": 5, "key_press": -1, "wordID": 730, "type": "PRES_AUD", "trial_index": 26}, "uniqueid": "MTK3235:3WS1NTTKEZJVD802CGIPZ279GP3F0X", "dateTime": 1520279309283}, {"current_trial": 27, "trialdata": {"rt": -1000, "trial_type": "single-audio", "word": "clock", "stimulus": "/static/audio/wordpool/CLOCK.wav", "conditions": [18, 1200, "a", 18000], "internal_node_id": "0.0-18.0", "trial": 0, "time_elapsed": 152380, "serialpos": 6, "key_press": -1, "wordID": 324, "type": "PRES_AUD", "trial_index": 27}, "uniqueid": "MTK3235:3WS1NTTKEZJVD802CGIPZ279GP3F0X", "dateTime": 1520279311304}, {"current_trial": 28, "trialdata": {"rt": -1000, "trial_type": "single-audio", "word": "drink", "stimulus": "/static/audio/wordpool/DRINK.wav", "conditions": [18, 1200, "a", 18000], "internal_node_id": "0.0-19.0", "trial": 0, "time_elapsed": 154412, "serialpos": 7, "key_press": -1, "wordID": 497, "type": "PRES_AUD", "trial_index": 28}, "uniqueid": "MTK3235:3WS1NTTKEZJVD802CGIPZ279GP3F0X", "dateTime": 1520279313336}, {"current_trial": 29, "trialdata": {"rt": -1000, "trial_type": "single-audio", "word": "forest", "stimulus": "/static/audio/wordpool/FOREST.wav", "conditions": [18, 1200, "a", 18000], "internal_node_id": "0.0-20.0", "trial": 0, "time_elapsed": 156783, "serialpos": 8, "key_press": -1, "wordID": 592, "type": "PRES_AUD", "trial_index": 29}, "uniqueid": "MTK3235:3WS1NTTKEZJVD802CGIPZ279GP3F0X", "dateTime": 1520279315707}, {"current_trial": 30, "trialdata": {"rt": -1000, "trial_type": "single-audio", "word": "frame", "stimulus": "/static/audio/wordpool/FRAME.wav", "conditions": [18, 1200, "a", 18000], "internal_node_id": "0.0-21.0", "trial": 0, "time_elapsed": 159156, "serialpos": 9, "key_press": -1, "wordID": 599, "type": "PRES_AUD", "trial_index": 30}, "uniqueid": "MTK3235:3WS1NTTKEZJVD802CGIPZ279GP3F0X", "dateTime": 1520279318080}, {"current_trial": 31, "trialdata": {"rt": -1000, "trial_type": "single-audio", "word": "female", "stimulus": "/static/audio/wordpool/FEMALE.wav", "conditions": [18, 1200, "a", 18000], "internal_node_id": "0.0-22.0", "trial": 0, "time_elapsed": 161364, "serialpos": 10, "key_press": -1, "wordID": 558, "type": "PRES_AUD", "trial_index": 31}, "uniqueid": "MTK3235:3WS1NTTKEZJVD802CGIPZ279GP3F0X", "dateTime": 1520279320288}, {"current_trial": 32, "trialdata": {"rt": -1000, "trial_type": "single-audio", "word": "pizza", "stimulus": "/static/audio/wordpool/PIZZA.wav", "conditions": [18, 1200, "a", 18000], "internal_node_id": "0.0-23.0", "trial": 0, "time_elapsed": 163391, "serialpos": 11, "key_press": -1, "wordID": 1078, "type": "PRES_AUD", "trial_index": 32}, "uniqueid": "MTK3235:3WS1NTTKEZJVD802CGIPZ279GP3F0X", "dateTime": 1520279322315}, {"current_trial": 33, "trialdata": {"rt": -1000, "trial_type": "single-audio", "word": "yarn", "stimulus": "/static/audio/wordpool/YARN.wav", "conditions": [18, 1200, "a", 18000], "internal_node_id": "0.0-24.0", "trial": 0, "time_elapsed": 165579, "serialpos": 12, "key_press": -1, "wordID": 1630, "type": "PRES_AUD", "trial_index": 33}, "uniqueid": "MTK3235:3WS1NTTKEZJVD802CGIPZ279GP3F0X", "dateTime": 1520279324503}, {"current_trial": 34, "trialdata": {"rt": -1000, "trial_type": "single-audio", "word": "sketch", "stimulus": "/static/audio/wordpool/SKETCH.wav", "conditions": [18, 1200, "a", 18000], "internal_node_id": "0.0-25.0", "trial": 0, "time_elapsed": 167770, "serialpos": 13, "key_press": -1, "wordID": 1314, "type": "PRES_AUD", "trial_index": 34}, "uniqueid": "MTK3235:3WS1NTTKEZJVD802CGIPZ279GP3F0X", "dateTime": 1520279326694}, {"current_trial": 35, "trialdata": {"rt": -1000, "trial_type": "single-audio", "word": "cellar", "stimulus": "/static/audio/wordpool/CELLAR.wav", "conditions": [18, 1200, "a", 18000], "internal_node_id": "0.0-26.0", "trial": 0, "time_elapsed": 169783, "serialpos": 14, "key_press": -1, "wordID": 266, "type": "PRES_AUD", "trial_index": 35}, "uniqueid": "MTK3235:3WS1NTTKEZJVD802CGIPZ279GP3F0X", "dateTime": 1520279328707}, {"current_trial": 36, "trialdata": {"rt": -1000, "trial_type": "single-audio", "word": "flute", "stimulus": "/static/audio/wordpool/FLUTE.wav", "conditions": [18, 1200, "a", 18000], "internal_node_id": "0.0-27.0", "trial": 0, "time_elapsed": 171955, "serialpos": 15, "key_press": -1, "wordID": 584, "type": "PRES_AUD", "trial_index": 36}, "uniqueid": "MTK3235:3WS1NTTKEZJVD802CGIPZ279GP3F0X", "dateTime": 1520279330879}, {"current_trial": 37, "trialdata": {"rt": -1000, "trial_type": "single-audio", "word": "crown", "stimulus": "/static/audio/wordpool/CROWN.wav", "conditions": [18, 1200, "a", 18000], "internal_node_id": "0.0-28.0", "trial": 0, "time_elapsed": 174351, "serialpos": 16, "key_press": -1, "wordID": 414, "type": "PRES_AUD", "trial_index": 37}, "uniqueid": "MTK3235:3WS1NTTKEZJVD802CGIPZ279GP3F0X", "dateTime": 1520279333275}, {"current_trial": 38, "trialdata": {"rt": -1000, "trial_type": "single-audio", "word": "pocket", "stimulus": "/static/audio/wordpool/POCKET.wav", "conditions": [18, 1200, "a", 18000], "internal_node_id": "0.0-29.0", "trial": 0, "time_elapsed": 176514, "serialpos": 17, "key_press": -1, "wordID": 1092, "type": "PRES_AUD", "trial_index": 38}, "uniqueid": "MTK3235:3WS1NTTKEZJVD802CGIPZ279GP3F0X", "dateTime": 1520279335438}, {"current_trial": 39, "trialdata": {"rt": -1, "trial_type": "single-stim", "stimulus": "", "internal_node_id": "0.0-30.0-0.0", "time_elapsed": 177827, "key_press": -1, "type": "PRE_RECALL_DELAY", "trial_index": 39}, "uniqueid": "MTK3235:3WS1NTTKEZJVD802CGIPZ279GP3F0X", "dateTime": 1520279336752}, {"current_trial": 40, "trialdata": {"rt": -1000, "trial_type": "single-audio", "stimulus": "/static/audio/400Hz.wav", "internal_node_id": "0.0-31.0", "time_elapsed": 178329, "key_press": -1, "type": "PRE_RECALL_ALERT", "trial_index": 40}, "uniqueid": "MTK3235:3WS1NTTKEZJVD802CGIPZ279GP3F0X", "dateTime": 1520279337254}, {"current_trial": 41, "trialdata": {"rt": [8798, 8941, 10398, 11814, 14526, 16629, 19262, 23965, 24501, 24974, 25357, 31229], "recwords": ["forest", "", "smile", "sound", "backpack", "iceberg", "shoulder", "", "", "", "", "idk"], "key_times": [7702, 7822, 7902, 7990, 8430, 8495, 8566, 8661, 8798, 8941, 8990, 9070, 9430, 9614, 9742, 10398, 11182, 11294, 11415, 11622, 11702, 11814, 13469, 13518, 13630, 13702, 14014, 14054, 14190, 14262, 14526, 14742, 14861, 14909, 15221, 15789, 15870, 16118, 16629, 18390, 18478, 18590, 18694, 18829, 18893, 19085, 19142, 19262, 23965, 24501, 24974, 25357, 30743, 30838, 30974, 31229], "trial_type": "free-recall", "conditions": [18, 1200, "a", 18000], "internal_node_id": "0.0-32.0-0.0", "key_presses": [70, 79, 82, 83, 8, 69, 83, 84, 188, 32, 83, 77, 73, 76, 69, 32, 83, 79, 85, 78, 68, 32, 66, 65, 67, 75, 80, 65, 67, 75, 32, 73, 67, 69, 66, 69, 82, 71, 32, 83, 72, 79, 85, 76, 68, 69, 82, 32, 32, 13, 32, 32, 73, 68, 75, 13], "trial": 0, "time_elapsed": 238335, "type": "FREE_RECALL", "trial_index": 41}, "uniqueid": "MTK3235:3WS1NTTKEZJVD802CGIPZ279GP3F0X", "dateTime": 1520279397261}, {"current_trial": 42, "trialdata": {"rt": 10992, "trial_type": "text", "internal_node_id": "0.0-33.0", "time_elapsed": 251330, "key_press": 70, "type": "INSTRUCTIONS", "trial_index": 42}, "uniqueid": "MTK3235:3WS1NTTKEZJVD802CGIPZ279GP3F0X", "dateTime": 1520279410254}, {"current_trial": 43, "trialdata": {"rt": [4437, 6821, 9605, 14117, 16813], "trial_type": "math-distractor", "key_times": [4158, 4213, 4437, 6566, 6613, 6821, 9310, 9494, 9605, 13397, 13829, 14117, 16493, 16597, 16813], "responses": ["16", "15", "10", "19", "18"], "num2": [8, 6, 2, 8, 6, 8], "num3": [4, 4, 2, 2, 6, 8], "conditions": [18, 1200, "a", 18000], "internal_node_id": "0.0-34.0", "key_presses": [97, 102, 13, 97, 101, 13, 97, 96, 13, 97, 105, 13, 97, 104, 13], "trial": 1, "time_elapsed": 271335, "type": "DISTRACTOR", "trial_index": 43, "num1": [4, 5, 6, 9, 6, 3]}, "uniqueid": "MTK3235:3WS1NTTKEZJVD802CGIPZ279GP3F0X", "dateTime": 1520279430259}, {"current_trial": 44, "trialdata": {"rt": -1, "trial_type": "single-stim", "stimulus": "<p id=\"stim\">10</p>", "internal_node_id": "0.0-35.0-0.0", "time_elapsed": 274338, "key_press": -1, "trial_index": 44}, "uniqueid": "MTK3235:3WS1NTTKEZJVD802CGIPZ279GP3F0X", "dateTime": 1520279433262}, {"current_trial": 45, "trialdata": {"rt": -1, "trial_type": "single-stim", "stimulus": "<p id=\"stim\">9</p>", "internal_node_id": "0.0-35.0-1.0", "time_elapsed": 275339, "key_press": -1, "trial_index": 45}, "uniqueid": "MTK3235:3WS1NTTKEZJVD802CGIPZ279GP3F0X", "dateTime": 1520279434264}, {"current_trial": 46, "trialdata": {"rt": -1, "trial_type": "single-stim", "stimulus": "<p id=\"stim\">8</p>", "internal_node_id": "0.0-35.0-2.0", "time_elapsed": 276342, "key_press": -1, "trial_index": 46}, "uniqueid": "MTK3235:3WS1NTTKEZJVD802CGIPZ279GP3F0X", "dateTime": 1520279435267}, {"current_trial": 47, "trialdata": {"rt": -1, "trial_type": "single-stim", "stimulus": "<p id=\"stim\">7</p>", "internal_node_id": "0.0-35.0-3.0", "time_elapsed": 277344, "key_press": -1, "trial_index": 47}, "uniqueid": "MTK3235:3WS1NTTKEZJVD802CGIPZ279GP3F0X", "dateTime": 1520279436268}, {"current_trial": 48, "trialdata": {"rt": -1, "trial_type": "single-stim", "stimulus": "<p id=\"stim\">6</p>", "internal_node_id": "0.0-35.0-4.0", "time_elapsed": 278345, "key_press": -1, "trial_index": 48}, "uniqueid": "MTK3235:3WS1NTTKEZJVD802CGIPZ279GP3F0X", "dateTime": 1520279437269}, {"current_trial": 49, "trialdata": {"rt": -1, "trial_type": "single-stim", "stimulus": "<p id=\"stim\">5</p>", "internal_node_id": "0.0-35.0-5.0", "time_elapsed": 279347, "key_press": -1, "trial_index": 49}, "uniqueid": "MTK3235:3WS1NTTKEZJVD802CGIPZ279GP3F0X", "dateTime": 1520279438271}, {"current_trial": 50, "trialdata": {"rt": -1, "trial_type": "single-stim", "stimulus": "<p id=\"stim\">4</p>", "internal_node_id": "0.0-35.0-6.0", "time_elapsed": 280347, "key_press": -1, "trial_index": 50}, "uniqueid": "MTK3235:3WS1NTTKEZJVD802CGIPZ279GP3F0X", "dateTime": 1520279439272}, {"current_trial": 51, "trialdata": {"rt": -1, "trial_type": "single-stim", "stimulus": "<p id=\"stim\">3</p>", "internal_node_id": "0.0-35.0-7.0", "time_elapsed": 281350, "key_press": -1, "trial_index": 51}, "uniqueid": "MTK3235:3WS1NTTKEZJVD802CGIPZ279GP3F0X", "dateTime": 1520279440274}, {"current_trial": 52, "trialdata": {"rt": -1, "trial_type": "single-stim", "stimulus": "<p id=\"stim\">2</p>", "internal_node_id": "0.0-35.0-8.0", "time_elapsed": 282351, "key_press": -1, "trial_index": 52}, "uniqueid": "MTK3235:3WS1NTTKEZJVD802CGIPZ279GP3F0X", "dateTime": 1520279441275}, {"current_trial": 53, "trialdata": {"rt": -1, "trial_type": "single-stim", "stimulus": "<p id=\"stim\">1</p>", "internal_node_id": "0.0-35.0-9.0", "time_elapsed": 283353, "key_press": -1, "trial_index": 53}, "uniqueid": "MTK3235:3WS1NTTKEZJVD802CGIPZ279GP3F0X", "dateTime": 1520279442277}, {"current_trial": 54, "trialdata": {"rt": -1, "trial_type": "single-stim", "stimulus": "<p id=\"stim\">+</p>", "internal_node_id": "0.0-36.0-0.0", "time_elapsed": 284854, "key_press": -1, "type": "FIXATION", "trial_index": 54}, "uniqueid": "MTK3235:3WS1NTTKEZJVD802CGIPZ279GP3F0X", "dateTime": 1520279443778}, {"current_trial": 55, "trialdata": {"rt": -1000, "trial_type": "single-audio", "word": "stove", "stimulus": "/static/audio/wordpool/STOVE.wav", "conditions": [18, 1200, "a", 18000], "internal_node_id": "0.0-37.0", "trial": 1, "time_elapsed": 287180, "serialpos": 0, "key_press": -1, "wordID": 1387, "type": "PRES_AUD", "trial_index": 55}, "uniqueid": "MTK3235:3WS1NTTKEZJVD802CGIPZ279GP3F0X", "dateTime": 1520279446104}, {"current_trial": 56, "trialdata": {"rt": -1000, "trial_type": "single-audio", "word": "plate", "stimulus": "/static/audio/wordpool/PLATE.wav", "conditions": [18, 1200, "a", 18000], "internal_node_id": "0.0-38.0", "trial": 1, "time_elapsed": 289335, "serialpos": 1, "key_press": -1, "wordID": 1085, "type": "PRES_AUD", "trial_index": 56}, "uniqueid": "MTK3235:3WS1NTTKEZJVD802CGIPZ279GP3F0X", "dateTime": 1520279448259}, {"current_trial": 57, "trialdata": {"rt": -1000, "trial_type": "single-audio", "word": "star", "stimulus": "/static/audio/wordpool/STAR.wav", "conditions": [18, 1200, "a", 18000], "internal_node_id": "0.0-39.0", "trial": 1, "time_elapsed": 291604, "serialpos": 2, "key_press": -1, "wordID": 1372, "type": "PRES_AUD", "trial_index": 57}, "uniqueid": "MTK3235:3WS1NTTKEZJVD802CGIPZ279GP3F0X", "dateTime": 1520279450528}, {"current_trial": 58, "trialdata": {"rt": -1000, "trial_type": "single-audio", "word": "bouquet", "stimulus": "/static/audio/wordpool/BOUQUET.wav", "conditions": [18, 1200, "a", 18000], "internal_node_id": "0.0-40.0", "trial": 1, "time_elapsed": 293880, "serialpos": 3, "key_press": -1, "wordID": 156, "type": "PRES_AUD", "trial_index": 58}, "uniqueid": "MTK3235:3WS1NTTKEZJVD802CGIPZ279GP3F0X", "dateTime": 1520279452805}, {"current_trial": 59, "trialdata": {"rt": -1000, "trial_type": "single-audio", "word": "subway", "stimulus": "/static/audio/wordpool/SUBWAY.wav", "conditions": [18, 1200, "a", 18000], "internal_node_id": "0.0-41.0", "trial": 1, "time_elapsed": 296013, "serialpos": 4, "key_press": -1, "wordID": 1399, "type": "PRES_AUD", "trial_index": 59}, "uniqueid": "MTK3235:3WS1NTTKEZJVD802CGIPZ279GP3F0X", "dateTime": 1520279454937}, {"current_trial": 60, "trialdata": {"rt": -1000, "trial_type": "single-audio", "word": "racket", "stimulus": "/static/audio/wordpool/RACKET.wav", "conditions": [18, 1200, "a", 18000], "internal_node_id": "0.0-42.0", "trial": 1, "time_elapsed": 298250, "serialpos": 5, "key_press": -1, "wordID": 1154, "type": "PRES_AUD", "trial_index": 60}, "uniqueid": "MTK3235:3WS1NTTKEZJVD802CGIPZ279GP3F0X", "dateTime": 1520279457174}, {"current_trial": 61, "trialdata": {"rt": -1000, "trial_type": "single-audio", "word": "denim", "stimulus": "/static/audio/wordpool/DENIM.wav", "conditions": [18, 1200, "a", 18000], "internal_node_id": "0.0-43.0", "trial": 1, "time_elapsed": 300648, "serialpos": 6, "key_press": -1, "wordID": 445, "type": "PRES_AUD", "trial_index": 61}, "uniqueid": "MTK3235:3WS1NTTKEZJVD802CGIPZ279GP3F0X", "dateTime": 1520279459572}, {"current_trial": 62, "trialdata": {"rt": -1000, "trial_type": "single-audio", "word": "cook", "stimulus": "/static/audio/wordpool/COOK.wav", "conditions": [18, 1200, "a", 18000], "internal_node_id": "0.0-44.0", "trial": 1, "time_elapsed": 303039, "serialpos": 7, "key_press": -1, "wordID": 371, "type": "PRES_AUD", "trial_index": 62}, "uniqueid": "MTK3235:3WS1NTTKEZJVD802CGIPZ279GP3F0X", "dateTime": 1520279461964}, {"current_trial": 63, "trialdata": {"rt": -1000, "trial_type": "single-audio", "word": "keeper", "stimulus": "/static/audio/wordpool/KEEPER.wav", "conditions": [18, 1200, "a", 18000], "internal_node_id": "0.0-45.0", "trial": 1, "time_elapsed": 305243, "serialpos": 8, "key_press": -1, "wordID": 768, "type": "PRES_AUD", "trial_index": 63}, "uniqueid": "MTK3235:3WS1NTTKEZJVD802CGIPZ279GP3F0X", "dateTime": 1520279464167}, {"current_trial": 64, "trialdata": {"rt": -1000, "trial_type": "single-audio", "word": "trench", "stimulus": "/static/audio/wordpool/TRENCH.wav", "conditions": [18, 1200, "a", 18000], "internal_node_id": "0.0-46.0", "trial": 1, "time_elapsed": 307252, "serialpos": 9, "key_press": -1, "wordID": 1502, "type": "PRES_AUD", "trial_index": 64}, "uniqueid": "MTK3235:3WS1NTTKEZJVD802CGIPZ279GP3F0X", "dateTime": 1520279466177}, {"current_trial": 65, "trialdata": {"rt": -1000, "trial_type": "single-audio", "word": "hatchet", "stimulus": "/static/audio/wordpool/HATCHET.wav", "conditions": [18, 1200, "a", 18000], "internal_node_id": "0.0-47.0", "trial": 1, "time_elapsed": 309573, "serialpos": 10, "key_press": -1, "wordID": 690, "type": "PRES_AUD", "trial_index": 65}, "uniqueid": "MTK3235:3WS1NTTKEZJVD802CGIPZ279GP3F0X", "dateTime": 1520279468497}, {"current_trial": 66, "trialdata": {"rt": -1000, "trial_type": "single-audio", "word": "waitress", "stimulus": "/static/audio/wordpool/WAITRESS.wav", "conditions": [18, 1200, "a", 18000], "internal_node_id": "0.0-48.0", "trial": 1, "time_elapsed": 311844, "serialpos": 11, "key_press": -1, "wordID": 1580, "type": "PRES_AUD", "trial_index": 66}, "uniqueid": "MTK3235:3WS1NTTKEZJVD802CGIPZ279GP3F0X", "dateTime": 1520279470768}, {"current_trial": 67, "trialdata": {"rt": -1000, "trial_type": "single-audio", "word": "salmon", "stimulus": "/static/audio/wordpool/SALMON.wav", "conditions": [18, 1200, "a", 18000], "internal_node_id": "0.0-49.0", "trial": 1, "time_elapsed": 313915, "serialpos": 12, "key_press": -1, "wordID": 1226, "type": "PRES_AUD", "trial_index": 67}, "uniqueid": "MTK3235:3WS1NTTKEZJVD802CGIPZ279GP3F0X", "dateTime": 1520279472839}, {"current_trial": 68, "trialdata": {"rt": -1000, "trial_type": "single-audio", "word": "motor", "stimulus": "/static/audio/wordpool/MOTOR.wav", "conditions": [18, 1200, "a", 18000], "internal_node_id": "0.0-50.0", "trial": 1, "time_elapsed": 316002, "serialpos": 13, "key_press": -1, "wordID": 921, "type": "PRES_AUD", "trial_index": 68}, "uniqueid": "MTK3235:3WS1NTTKEZJVD802CGIPZ279GP3F0X", "dateTime": 1520279474929}, {"current_trial": 69, "trialdata": {"rt": -1000, "trial_type": "single-audio", "word": "lover", "stimulus": "/static/audio/wordpool/LOVER.wav", "conditions": [18, 1200, "a", 18000], "internal_node_id": "0.0-51.0", "trial": 1, "time_elapsed": 318347, "serialpos": 14, "key_press": -1, "wordID": 845, "type": "PRES_AUD", "trial_index": 69}, "uniqueid": "MTK3235:3WS1NTTKEZJVD802CGIPZ279GP3F0X", "dateTime": 1520279477271}, {"current_trial": 70, "trialdata": {"rt": -1000, "trial_type": "single-audio", "word": "chapel", "stimulus": "/static/audio/wordpool/CHAPEL.wav", "conditions": [18, 1200, "a", 18000], "internal_node_id": "0.0-52.0", "trial": 1, "time_elapsed": 320515, "serialpos": 15, "key_press": -1, "wordID": 279, "type": "PRES_AUD", "trial_index": 70}, "uniqueid": "MTK3235:3WS1NTTKEZJVD802CGIPZ279GP3F0X", "dateTime": 1520279479439}, {"current_trial": 71, "trialdata": {"rt": -1000, "trial_type": "single-audio", "word": "outdoors", "stimulus": "/static/audio/wordpool/OUTDOORS.wav", "conditions": [18, 1200, "a", 18000], "internal_node_id": "0.0-53.0", "trial": 1, "time_elapsed": 322832, "serialpos": 16, "key_press": -1, "wordID": 986, "type": "PRES_AUD", "trial_index": 71}, "uniqueid": "MTK3235:3WS1NTTKEZJVD802CGIPZ279GP3F0X", "dateTime": 1520279481756}, {"current_trial": 72, "trialdata": {"rt": -1000, "trial_type": "single-audio", "word": "captive", "stimulus": "/static/audio/wordpool/CAPTIVE.wav", "conditions": [18, 1200, "a", 18000], "internal_node_id": "0.0-54.0", "trial": 1, "time_elapsed": 325072, "serialpos": 17, "key_press": -1, "wordID": 239, "type": "PRES_AUD", "trial_index": 72}, "uniqueid": "MTK3235:3WS1NTTKEZJVD802CGIPZ279GP3F0X", "dateTime": 1520279483996}, {"current_trial": 73, "trialdata": {"rt": -1, "trial_type": "single-stim", "stimulus": "", "internal_node_id": "0.0-55.0-0.0", "time_elapsed": 326275, "key_press": -1, "type": "PRE_RECALL_DELAY", "trial_index": 73}, "uniqueid": "MTK3235:3WS1NTTKEZJVD802CGIPZ279GP3F0X", "dateTime": 1520279485199}, {"current_trial": 74, "trialdata": {"rt": -1000, "trial_type": "single-audio", "stimulus": "/static/audio/400Hz.wav", "internal_node_id": "0.0-56.0", "time_elapsed": 326776, "key_press": -1, "type": "PRE_RECALL_ALERT", "trial_index": 74}, "uniqueid": "MTK3235:3WS1NTTKEZJVD802CGIPZ279GP3F0X", "dateTime": 1520279485701}, {"current_trial": 75, "trialdata": {"rt": [2638, 6710, 8638, 10406, 11550, 12543, 26949], "recwords": ["stove", "flowers", "bouquet", "outdoors", "captive", "travel", "subway"], "key_times": [1888, 2016, 2127, 2238, 2295, 2638, 5807, 5919, 6111, 6159, 6207, 6303, 6447, 6710, 7327, 7478, 7583, 7734, 7959, 8087, 8166, 8638, 9351, 9430, 9502, 9782, 9918, 10062, 10135, 10206, 10406, 10582, 10695, 10790, 10999, 11150, 11254, 11335, 11550, 11742, 11911, 12008, 12158, 12214, 12295, 12543, 26071, 26214, 26430, 26527, 26591, 26655, 26949], "trial_type": "free-recall", "conditions": [18, 1200, "a", 18000], "internal_node_id": "0.0-57.0-0.0", "key_presses": [83, 84, 79, 86, 69, 32, 70, 76, 79, 87, 69, 82, 83, 13, 66, 79, 85, 81, 85, 69, 84, 13, 79, 85, 84, 68, 79, 79, 82, 83, 13, 67, 65, 80, 84, 73, 86, 69, 13, 84, 82, 65, 86, 69, 76, 13, 83, 85, 66, 87, 65, 89, 13], "trial": 1, "time_elapsed": 386780, "type": "FREE_RECALL", "trial_index": 75}, "uniqueid": "MTK3235:3WS1NTTKEZJVD802CGIPZ279GP3F0X", "dateTime": 1520279545707}, {"current_trial": 76, "trialdata": {"rt": 4321, "trial_type": "text", "internal_node_id": "0.0-58.0", "time_elapsed": 393105, "key_press": 101, "type": "INSTRUCTIONS", "trial_index": 76}, "uniqueid": "MTK3235:3WS1NTTKEZJVD802CGIPZ279GP3F0X", "dateTime": 1520279552029}, {"current_trial": 77, "trialdata": {"rt": [3093, 5157, 8149, 10150, 12797, 15285, 19125, 23901], "trial_type": "math-distractor", "key_times": [2813, 2942, 3093, 4838, 4990, 5157, 7822, 7925, 8149, 9846, 9933, 10150, 12549, 12797, 14974, 15070, 15285, 18853, 18966, 19125, 21909, 22118, 22933, 23470, 23901], "responses": ["24", "11", "19", "18", "9", "13", "24", "26"], "num2": [9, 4, 6, 8, 4, 7, 8, 9, 8], "num3": [6, 4, 8, 2, 1, 4, 8, 9, 5], "conditions": [24, 1600, "a", 24000], "internal_node_id": "0.0-59.0", "key_presses": [98, 100, 13, 97, 97, 13, 97, 105, 13, 97, 104, 13, 105, 13, 97, 99, 13, 98, 100, 13, 98, 101, 8, 102, 13], "trial": 2, "time_elapsed": 418108, "type": "DISTRACTOR", "trial_index": 77, "num1": [9, 3, 5, 8, 4, 2, 8, 8, 1]}, "uniqueid": "MTK3235:3WS1NTTKEZJVD802CGIPZ279GP3F0X", "dateTime": 1520279577032}, {"current_trial": 78, "trialdata": {"rt": -1, "trial_type": "single-stim", "stimulus": "<p id=\"stim\">10</p>", "internal_node_id": "0.0-60.0-0.0", "time_elapsed": 421112, "key_press": -1, "trial_index": 78}, "uniqueid": "MTK3235:3WS1NTTKEZJVD802CGIPZ279GP3F0X", "dateTime": 1520279580036}, {"current_trial": 79, "trialdata": {"rt": -1, "trial_type": "single-stim", "stimulus": "<p id=\"stim\">9</p>", "internal_node_id": "0.0-60.0-1.0", "time_elapsed": 422113, "key_press": -1, "trial_index": 79}, "uniqueid": "MTK3235:3WS1NTTKEZJVD802CGIPZ279GP3F0X", "dateTime": 1520279581037}, {"current_trial": 80, "trialdata": {"rt": -1, "trial_type": "single-stim", "stimulus": "<p id=\"stim\">8</p>", "internal_node_id": "0.0-60.0-2.0", "time_elapsed": 423116, "key_press": -1, "trial_index": 80}, "uniqueid": "MTK3235:3WS1NTTKEZJVD802CGIPZ279GP3F0X", "dateTime": 1520279582040}, {"current_trial": 81, "trialdata": {"rt": -1, "trial_type": "single-stim", "stimulus": "<p id=\"stim\">7</p>", "internal_node_id": "0.0-60.0-3.0", "time_elapsed": 424118, "key_press": -1, "trial_index": 81}, "uniqueid": "MTK3235:3WS1NTTKEZJVD802CGIPZ279GP3F0X", "dateTime": 1520279583042}, {"current_trial": 82, "trialdata": {"rt": -1, "trial_type": "single-stim", "stimulus": "<p id=\"stim\">6</p>", "internal_node_id": "0.0-60.0-4.0", "time_elapsed": 425119, "key_press": -1, "trial_index": 82}, "uniqueid": "MTK3235:3WS1NTTKEZJVD802CGIPZ279GP3F0X", "dateTime": 1520279584043}, {"current_trial": 83, "trialdata": {"rt": -1, "trial_type": "single-stim", "stimulus": "<p id=\"stim\">5</p>", "internal_node_id": "0.0-60.0-5.0", "time_elapsed": 426121, "key_press": -1, "trial_index": 83}, "uniqueid": "MTK3235:3WS1NTTKEZJVD802CGIPZ279GP3F0X", "dateTime": 1520279585045}, {"current_trial": 84, "trialdata": {"rt": -1, "trial_type": "single-stim", "stimulus": "<p id=\"stim\">4</p>", "internal_node_id": "0.0-60.0-6.0", "time_elapsed": 427123, "key_press": -1, "trial_index": 84}, "uniqueid": "MTK3235:3WS1NTTKEZJVD802CGIPZ279GP3F0X", "dateTime": 1520279586047}, {"current_trial": 85, "trialdata": {"rt": -1, "trial_type": "single-stim", "stimulus": "<p id=\"stim\">3</p>", "internal_node_id": "0.0-60.0-7.0", "time_elapsed": 428124, "key_press": -1, "trial_index": 85}, "uniqueid": "MTK3235:3WS1NTTKEZJVD802CGIPZ279GP3F0X", "dateTime": 1520279587048}, {"current_trial": 86, "trialdata": {"rt": -1, "trial_type": "single-stim", "stimulus": "<p id=\"stim\">2</p>", "internal_node_id": "0.0-60.0-8.0", "time_elapsed": 429125, "key_press": -1, "trial_index": 86}, "uniqueid": "MTK3235:3WS1NTTKEZJVD802CGIPZ279GP3F0X", "dateTime": 1520279588049}, {"current_trial": 87, "trialdata": {"rt": -1, "trial_type": "single-stim", "stimulus": "<p id=\"stim\">1</p>", "internal_node_id": "0.0-60.0-9.0", "time_elapsed": 430127, "key_press": -1, "trial_index": 87}, "uniqueid": "MTK3235:3WS1NTTKEZJVD802CGIPZ279GP3F0X", "dateTime": 1520279589051}, {"current_trial": 88, "trialdata": {"rt": -1, "trial_type": "single-stim", "stimulus": "<p id=\"stim\">+</p>", "internal_node_id": "0.0-61.0-0.0", "time_elapsed": 431629, "key_press": -1, "type": "FIXATION", "trial_index": 88}, "uniqueid": "MTK3235:3WS1NTTKEZJVD802CGIPZ279GP3F0X", "dateTime": 1520279590553}, {"current_trial": 89, "trialdata": {"rt": -1000, "trial_type": "single-audio", "word": "mammal", "stimulus": "/static/audio/wordpool/MAMMAL.wav", "conditions": [24, 1600, "a", 24000], "internal_node_id": "0.0-62.0", "trial": 2, "time_elapsed": 434215, "serialpos": 0, "key_press": -1, "wordID": 860, "type": "PRES_AUD", "trial_index": 89}, "uniqueid": "MTK3235:3WS1NTTKEZJVD802CGIPZ279GP3F0X", "dateTime": 1520279593139}, {"current_trial": 90, "trialdata": {"rt": -1000, "trial_type": "single-audio", "word": "tombstone", "stimulus": "/static/audio/wordpool/TOMBSTONE.wav", "conditions": [24, 1600, "a", 24000], "internal_node_id": "0.0-63.0", "trial": 2, "time_elapsed": 436974, "serialpos": 1, "key_press": -1, "wordID": 1477, "type": "PRES_AUD", "trial_index": 90}, "uniqueid": "MTK3235:3WS1NTTKEZJVD802CGIPZ279GP3F0X", "dateTime": 1520279595899}, {"current_trial": 91, "trialdata": {"rt": -1000, "trial_type": "single-audio", "word": "statue", "stimulus": "/static/audio/wordpool/STATUE.wav", "conditions": [24, 1600, "a", 24000], "internal_node_id": "0.0-64.0", "trial": 2, "time_elapsed": 439507, "serialpos": 2, "key_press": -1, "wordID": 1373, "type": "PRES_AUD", "trial_index": 91}, "uniqueid": "MTK3235:3WS1NTTKEZJVD802CGIPZ279GP3F0X", "dateTime": 1520279598431}, {"current_trial": 92, "trialdata": {"rt": -1000, "trial_type": "single-audio", "word": "pastry", "stimulus": "/static/audio/wordpool/PASTRY.wav", "conditions": [24, 1600, "a", 24000], "internal_node_id": "0.0-65.0", "trial": 2, "time_elapsed": 442171, "serialpos": 3, "key_press": -1, "wordID": 1021, "type": "PRES_AUD", "trial_index": 92}, "uniqueid": "MTK3235:3WS1NTTKEZJVD802CGIPZ279GP3F0X", "dateTime": 1520279601095}, {"current_trial": 93, "trialdata": {"rt": -1000, "trial_type": "single-audio", "word": "cousin", "stimulus": "/static/audio/wordpool/COUSIN.wav", "conditions": [24, 1600, "a", 24000], "internal_node_id": "0.0-66.0", "trial": 2, "time_elapsed": 444792, "serialpos": 4, "key_press": -1, "wordID": 391, "type": "PRES_AUD", "trial_index": 93}, "uniqueid": "MTK3235:3WS1NTTKEZJVD802CGIPZ279GP3F0X", "dateTime": 1520279603716}, {"current_trial": 94, "trialdata": {"rt": -1000, "trial_type": "single-audio", "word": "money", "stimulus": "/static/audio/wordpool/MONEY.wav", "conditions": [24, 1600, "a", 24000], "internal_node_id": "0.0-67.0", "trial": 2, "time_elapsed": 447301, "serialpos": 5, "key_press": -1, "wordID": 907, "type": "PRES_AUD", "trial_index": 94}, "uniqueid": "MTK3235:3WS1NTTKEZJVD802CGIPZ279GP3F0X", "dateTime": 1520279606225}, {"current_trial": 95, "trialdata": {"rt": -1000, "trial_type": "single-audio", "word": "boyfriend", "stimulus": "/static/audio/wordpool/BOYFRIEND.wav", "conditions": [24, 1600, "a", 24000], "internal_node_id": "0.0-68.0", "trial": 2, "time_elapsed": 449769, "serialpos": 6, "key_press": -1, "wordID": 161, "type": "PRES_AUD", "trial_index": 95}, "uniqueid": "MTK3235:3WS1NTTKEZJVD802CGIPZ279GP3F0X", "dateTime": 1520279608693}, {"current_trial": 96, "trialdata": {"rt": -1000, "trial_type": "single-audio", "word": "primate", "stimulus": "/static/audio/wordpool/PRIMATE.wav", "conditions": [24, 1600, "a", 24000], "internal_node_id": "0.0-69.0", "trial": 2, "time_elapsed": 452547, "serialpos": 7, "key_press": -1, "wordID": 1122, "type": "PRES_AUD", "trial_index": 96}, "uniqueid": "MTK3235:3WS1NTTKEZJVD802CGIPZ279GP3F0X", "dateTime": 1520279611471}, {"current_trial": 97, "trialdata": {"rt": -1000, "trial_type": "single-audio", "word": "silk", "stimulus": "/static/audio/wordpool/SILK.wav", "conditions": [24, 1600, "a", 24000], "internal_node_id": "0.0-70.0", "trial": 2, "time_elapsed": 455012, "serialpos": 8, "key_press": -1, "wordID": 1306, "type": "PRES_AUD", "trial_index": 97}, "uniqueid": "MTK3235:3WS1NTTKEZJVD802CGIPZ279GP3F0X", "dateTime": 1520279613936}, {"current_trial": 98, "trialdata": {"rt": -1000, "trial_type": "single-audio", "word": "dragon", "stimulus": "/static/audio/wordpool/DRAGON.wav", "conditions": [24, 1600, "a", 24000], "internal_node_id": "0.0-71.0", "trial": 2, "time_elapsed": 457550, "serialpos": 9, "key_press": -1, "wordID": 491, "type": "PRES_AUD", "trial_index": 98}, "uniqueid": "MTK3235:3WS1NTTKEZJVD802CGIPZ279GP3F0X", "dateTime": 1520279616475}, {"current_trial": 99, "trialdata": {"rt": -1000, "trial_type": "single-audio", "word": "teacher", "stimulus": "/static/audio/wordpool/TEACHER.wav", "conditions": [24, 1600, "a", 24000], "internal_node_id": "0.0-72.0", "trial": 2, "time_elapsed": 459998, "serialpos": 10, "key_press": -1, "wordID": 1439, "type": "PRES_AUD", "trial_index": 99}, "uniqueid": "MTK3235:3WS1NTTKEZJVD802CGIPZ279GP3F0X", "dateTime": 1520279618922}, {"current_trial": 100, "trialdata": {"rt": -1000, "trial_type": "single-audio", "word": "chipmunk", "stimulus": "/static/audio/wordpool/CHIPMUNK.wav", "conditions": [24, 1600, "a", 24000], "internal_node_id": "0.0-73.0", "trial": 2, "time_elapsed": 462745, "serialpos": 11, "key_press": -1, "wordID": 303, "type": "PRES_AUD", "trial_index": 100}, "uniqueid": "MTK3235:3WS1NTTKEZJVD802CGIPZ279GP3F0X", "dateTime": 1520279621669}, {"current_trial": 101, "trialdata": {"rt": -1000, "trial_type": "single-audio", "word": "pepper", "stimulus": "/static/audio/wordpool/PEPPER.wav", "conditions": [24, 1600, "a", 24000], "internal_node_id": "0.0-74.0", "trial": 2, "time_elapsed": 465468, "serialpos": 12, "key_press": -1, "wordID": 1046, "type": "PRES_AUD", "trial_index": 101}, "uniqueid": "MTK3235:3WS1NTTKEZJVD802CGIPZ279GP3F0X", "dateTime": 1520279624392}, {"current_trial": 102, "trialdata": {"rt": -1000, "trial_type": "single-audio", "word": "parrot", "stimulus": "/static/audio/wordpool/PARROT.wav", "conditions": [24, 1600, "a", 24000], "internal_node_id": "0.0-75.0", "trial": 2, "time_elapsed": 467963, "serialpos": 13, "key_press": -1, "wordID": 1014, "type": "PRES_AUD", "trial_index": 102}, "uniqueid": "MTK3235:3WS1NTTKEZJVD802CGIPZ279GP3F0X", "dateTime": 1520279626887}, {"current_trial": 103, "trialdata": {"rt": -1000, "trial_type": "single-audio", "word": "washer", "stimulus": "/static/audio/wordpool/WASHER.wav", "conditions": [24, 1600, "a", 24000], "internal_node_id": "0.0-76.0", "trial": 2, "time_elapsed": 470371, "serialpos": 14, "key_press": -1, "wordID": 1591, "type": "PRES_AUD", "trial_index": 103}, "uniqueid": "MTK3235:3WS1NTTKEZJVD802CGIPZ279GP3F0X", "dateTime": 1520279629295}, {"current_trial": 104, "trialdata": {"rt": -1000, "trial_type": "single-audio", "word": "dorm", "stimulus": "/static/audio/wordpool/DORM.wav", "conditions": [24, 1600, "a", 24000], "internal_node_id": "0.0-77.0", "trial": 2, "time_elapsed": 472881, "serialpos": 15, "key_press": -1, "wordID": 487, "type": "PRES_AUD", "trial_index": 104}, "uniqueid": "MTK3235:3WS1NTTKEZJVD802CGIPZ279GP3F0X", "dateTime": 1520279631805}, {"current_trial": 105, "trialdata": {"rt": -1000, "trial_type": "single-audio", "word": "student", "stimulus": "/static/audio/wordpool/STUDENT.wav", "conditions": [24, 1600, "a", 24000], "internal_node_id": "0.0-78.0", "trial": 2, "time_elapsed": 475307, "serialpos": 16, "key_press": -1, "wordID": 1394, "type": "PRES_AUD", "trial_index": 105}, "uniqueid": "MTK3235:3WS1NTTKEZJVD802CGIPZ279GP3F0X", "dateTime": 1520279634231}, {"current_trial": 106, "trialdata": {"rt": -1000, "trial_type": "single-audio", "word": "camel", "stimulus": "/static/audio/wordpool/CAMEL.wav", "conditions": [24, 1600, "a", 24000], "internal_node_id": "0.0-79.0", "trial": 2, "time_elapsed": 478013, "serialpos": 17, "key_press": -1, "wordID": 222, "type": "PRES_AUD", "trial_index": 106}, "uniqueid": "MTK3235:3WS1NTTKEZJVD802CGIPZ279GP3F0X", "dateTime": 1520279636937}, {"current_trial": 107, "trialdata": {"rt": -1000, "trial_type": "single-audio", "word": "kidney", "stimulus": "/static/audio/wordpool/KIDNEY.wav", "conditions": [24, 1600, "a", 24000], "internal_node_id": "0.0-80.0", "trial": 2, "time_elapsed": 480481, "serialpos": 18, "key_press": -1, "wordID": 775, "type": "PRES_AUD", "trial_index": 107}, "uniqueid": "MTK3235:3WS1NTTKEZJVD802CGIPZ279GP3F0X", "dateTime": 1520279639405}, {"current_trial": 108, "trialdata": {"rt": -1000, "trial_type": "single-audio", "word": "brother", "stimulus": "/static/audio/wordpool/BROTHER.wav", "conditions": [24, 1600, "a", 24000], "internal_node_id": "0.0-81.0", "trial": 2, "time_elapsed": 483081, "serialpos": 19, "key_press": -1, "wordID": 178, "type": "PRES_AUD", "trial_index": 108}, "uniqueid": "MTK3235:3WS1NTTKEZJVD802CGIPZ279GP3F0X", "dateTime": 1520279642005}, {"current_trial": 109, "trialdata": {"rt": -1000, "trial_type": "single-audio", "word": "skillet", "stimulus": "/static/audio/wordpool/SKILLET.wav", "conditions": [24, 1600, "a", 24000], "internal_node_id": "0.0-82.0", "trial": 2, "time_elapsed": 485763, "serialpos": 20, "key_press": -1, "wordID": 1316, "type": "PRES_AUD", "trial_index": 109}, "uniqueid": "MTK3235:3WS1NTTKEZJVD802CGIPZ279GP3F0X", "dateTime": 1520279644687}, {"current_trial": 110, "trialdata": {"rt": -1000, "trial_type": "single-audio", "word": "princess", "stimulus": "/static/audio/wordpool/PRINCESS.wav", "conditions": [24, 1600, "a", 24000], "internal_node_id": "0.0-83.0", "trial": 2, "time_elapsed": 488359, "serialpos": 21, "key_press": -1, "wordID": 1124, "type": "PRES_AUD", "trial_index": 110}, "uniqueid": "MTK3235:3WS1NTTKEZJVD802CGIPZ279GP3F0X", "dateTime": 1520279647283}, {"current_trial": 111, "trialdata": {"rt": -1000, "trial_type": "single-audio", "word": "headband", "stimulus": "/static/audio/wordpool/HEADBAND.wav", "conditions": [24, 1600, "a", 24000], "internal_node_id": "0.0-84.0", "trial": 2, "time_elapsed": 491064, "serialpos": 22, "key_press": -1, "wordID": 695, "type": "PRES_AUD", "trial_index": 111}, "uniqueid": "MTK3235:3WS1NTTKEZJVD802CGIPZ279GP3F0X", "dateTime": 1520279649988}, {"current_trial": 112, "trialdata": {"rt": -1000, "trial_type": "single-audio", "word": "blender", "stimulus": "/static/audio/wordpool/BLENDER.wav", "conditions": [24, 1600, "a", 24000], "internal_node_id": "0.0-85.0", "trial": 2, "time_elapsed": 493513, "serialpos": 23, "key_press": -1, "wordID": 135, "type": "PRES_AUD", "trial_index": 112}, "uniqueid": "MTK3235:3WS1NTTKEZJVD802CGIPZ279GP3F0X", "dateTime": 1520279652437}, {"current_trial": 113, "trialdata": {"rt": -1, "trial_type": "single-stim", "stimulus": "", "internal_node_id": "0.0-86.0-0.0", "time_elapsed": 494793, "key_press": -1, "type": "PRE_RECALL_DELAY", "trial_index": 113}, "uniqueid": "MTK3235:3WS1NTTKEZJVD802CGIPZ279GP3F0X", "dateTime": 1520279653717}, {"current_trial": 114, "trialdata": {"rt": -1000, "trial_type": "single-audio", "stimulus": "/static/audio/400Hz.wav", "internal_node_id": "0.0-87.0", "time_elapsed": 495294, "key_press": -1, "type": "PRE_RECALL_ALERT", "trial_index": 114}, "uniqueid": "MTK3235:3WS1NTTKEZJVD802CGIPZ279GP3F0X", "dateTime": 1520279654218}, {"current_trial": 115, "trialdata": {"rt": [4735, 6279, 7384, 11600, 18439, 19920, 29663], "recwords": ["blender", "headband", "skillet", "mammal", "headband", "boyfriend", "skillet"], "key_times": [2305, 2465, 2848, 3016, 3416, 3712, 3904, 4015, 4160, 4345, 4424, 4735, 4992, 5040, 5113, 5273, 5544, 5593, 5944, 6112, 6279, 6472, 6584, 6752, 6928, 7064, 7136, 7216, 7384, 10513, 10559, 10720, 10872, 11040, 11145, 11600, 17281, 17352, 17416, 17591, 17887, 17969, 18151, 18257, 18439, 18888, 19000, 19120, 19256, 19408, 19488, 19591, 19712, 19807, 19920, 27872, 27992, 28192, 28432, 28576, 28673, 28776, 29663], "trial_type": "free-recall", "conditions": [24, 1600, "a", 24000], "internal_node_id": "0.0-88.0-0.0", "key_presses": [78, 69, 8, 8, 66, 76, 69, 78, 68, 69, 82, 13, 72, 69, 65, 68, 66, 65, 78, 68, 13, 83, 75, 73, 76, 76, 69, 84, 13, 77, 65, 77, 77, 65, 76, 13, 72, 69, 65, 68, 66, 65, 78, 68, 13, 66, 79, 89, 70, 82, 73, 69, 78, 68, 13, 83, 75, 73, 76, 76, 69, 84, 13], "trial": 2, "time_elapsed": 555297, "type": "FREE_RECALL", "trial_index": 115}, "uniqueid": "MTK3235:3WS1NTTKEZJVD802CGIPZ279GP3F0X", "dateTime": 1520279714224}, {"current_trial": 116, "trialdata": {"rt": 705, "trial_type": "text", "internal_node_id": "0.0-89.0", "time_elapsed": 558007, "key_press": 13, "type": "INSTRUCTIONS", "trial_index": 116}, "uniqueid": "MTK3235:3WS1NTTKEZJVD802CGIPZ279GP3F0X", "dateTime": 1520279716931}, {"current_trial": 117, "trialdata": {"rt": [4390, 6565, 8765, 10877], "trial_type": "math-distractor", "key_times": [3742, 4078, 4390, 6342, 6565, 8550, 8765, 10534, 10670, 10877], "responses": ["17", "9", "7", "13"], "num2": [2, 6, 3, 3, 1], "num3": [7, 2, 3, 3, 1], "conditions": [12, 800, "a", 12000], "internal_node_id": "0.0-90.0", "key_presses": [97, 103, 13, 105, 13, 103, 13, 97, 99, 13], "trial": 3, "time_elapsed": 572009, "type": "DISTRACTOR", "trial_index": 117, "num1": [7, 1, 1, 7, 8]}, "uniqueid": "MTK3235:3WS1NTTKEZJVD802CGIPZ279GP3F0X", "dateTime": 1520279730934}, {"current_trial": 118, "trialdata": {"rt": -1, "trial_type": "single-stim", "stimulus": "<p id=\"stim\">10</p>", "internal_node_id": "0.0-91.0-0.0", "time_elapsed": 575012, "key_press": -1, "trial_index": 118}, "uniqueid": "MTK3235:3WS1NTTKEZJVD802CGIPZ279GP3F0X", "dateTime": 1520279733936}, {"current_trial": 119, "trialdata": {"rt": -1, "trial_type": "single-stim", "stimulus": "<p id=\"stim\">9</p>", "internal_node_id": "0.0-91.0-1.0", "time_elapsed": 576014, "key_press": -1, "trial_index": 119}, "uniqueid": "MTK3235:3WS1NTTKEZJVD802CGIPZ279GP3F0X", "dateTime": 1520279734938}, {"current_trial": 120, "trialdata": {"rt": -1, "trial_type": "single-stim", "stimulus": "<p id=\"stim\">8</p>", "internal_node_id": "0.0-91.0-2.0", "time_elapsed": 577015, "key_press": -1, "trial_index": 120}, "uniqueid": "MTK3235:3WS1NTTKEZJVD802CGIPZ279GP3F0X", "dateTime": 1520279735939}, {"current_trial": 121, "trialdata": {"rt": -1, "trial_type": "single-stim", "stimulus": "<p id=\"stim\">7</p>", "internal_node_id": "0.0-91.0-3.0", "time_elapsed": 578017, "key_press": -1, "trial_index": 121}, "uniqueid": "MTK3235:3WS1NTTKEZJVD802CGIPZ279GP3F0X", "dateTime": 1520279736941}, {"current_trial": 122, "trialdata": {"rt": -1, "trial_type": "single-stim", "stimulus": "<p id=\"stim\">6</p>", "internal_node_id": "0.0-91.0-4.0", "time_elapsed": 579018, "key_press": -1, "trial_index": 122}, "uniqueid": "MTK3235:3WS1NTTKEZJVD802CGIPZ279GP3F0X", "dateTime": 1520279737942}, {"current_trial": 123, "trialdata": {"rt": -1, "trial_type": "single-stim", "stimulus": "<p id=\"stim\">5</p>", "internal_node_id": "0.0-91.0-5.0", "time_elapsed": 580019, "key_press": -1, "trial_index": 123}, "uniqueid": "MTK3235:3WS1NTTKEZJVD802CGIPZ279GP3F0X", "dateTime": 1520279738943}, {"current_trial": 124, "trialdata": {"rt": -1, "trial_type": "single-stim", "stimulus": "<p id=\"stim\">4</p>", "internal_node_id": "0.0-91.0-6.0", "time_elapsed": 581020, "key_press": -1, "trial_index": 124}, "uniqueid": "MTK3235:3WS1NTTKEZJVD802CGIPZ279GP3F0X", "dateTime": 1520279739944}, {"current_trial": 125, "trialdata": {"rt": -1, "trial_type": "single-stim", "stimulus": "<p id=\"stim\">3</p>", "internal_node_id": "0.0-91.0-7.0", "time_elapsed": 582020, "key_press": -1, "trial_index": 125}, "uniqueid": "MTK3235:3WS1NTTKEZJVD802CGIPZ279GP3F0X", "dateTime": 1520279740945}, {"current_trial": 126, "trialdata": {"rt": -1, "trial_type": "single-stim", "stimulus": "<p id=\"stim\">2</p>", "internal_node_id": "0.0-91.0-8.0", "time_elapsed": 583022, "key_press": -1, "trial_index": 126}, "uniqueid": "MTK3235:3WS1NTTKEZJVD802CGIPZ279GP3F0X", "dateTime": 1520279741946}, {"current_trial": 127, "trialdata": {"rt": -1, "trial_type": "single-stim", "stimulus": "<p id=\"stim\">1</p>", "internal_node_id": "0.0-91.0-9.0", "time_elapsed": 584024, "key_press": -1, "trial_index": 127}, "uniqueid": "MTK3235:3WS1NTTKEZJVD802CGIPZ279GP3F0X", "dateTime": 1520279742948}, {"current_trial": 128, "trialdata": {"rt": -1, "trial_type": "single-stim", "stimulus": "<p id=\"stim\">+</p>", "internal_node_id": "0.0-92.0-0.0", "time_elapsed": 585525, "key_press": -1, "type": "FIXATION", "trial_index": 128}, "uniqueid": "MTK3235:3WS1NTTKEZJVD802CGIPZ279GP3F0X", "dateTime": 1520279744450}, {"current_trial": 129, "trialdata": {"rt": -1000, "trial_type": "single-audio", "word": "wife", "stimulus": "/static/audio/wordpool/WIFE.wav", "conditions": [12, 800, "a", 12000], "internal_node_id": "0.0-93.0", "trial": 3, "time_elapsed": 587453, "serialpos": 0, "key_press": -1, "wordID": 1608, "type": "PRES_AUD", "trial_index": 129}, "uniqueid": "MTK3235:3WS1NTTKEZJVD802CGIPZ279GP3F0X", "dateTime": 1520279746377}, {"current_trial": 130, "trialdata": {"rt": -1000, "trial_type": "single-audio", "word": "briefcase", "stimulus": "/static/audio/wordpool/BRIEFCASE.wav", "conditions": [12, 800, "a", 12000], "internal_node_id": "0.0-94.0", "trial": 3, "time_elapsed": 589218, "serialpos": 1, "key_press": -1, "wordID": 174, "type": "PRES_AUD", "trial_index": 130}, "uniqueid": "MTK3235:3WS1NTTKEZJVD802CGIPZ279GP3F0X", "dateTime": 1520279748142}, {"current_trial": 131, "trialdata": {"rt": -1000, "trial_type": "single-audio", "word": "costume", "stimulus": "/static/audio/wordpool/COSTUME.wav", "conditions": [12, 800, "a", 12000], "internal_node_id": "0.0-95.0", "trial": 3, "time_elapsed": 590826, "serialpos": 2, "key_press": -1, "wordID": 382, "type": "PRES_AUD", "trial_index": 131}, "uniqueid": "MTK3235:3WS1NTTKEZJVD802CGIPZ279GP3F0X", "dateTime": 1520279749750}, {"current_trial": 132, "trialdata": {"rt": -1000, "trial_type": "single-audio", "word": "dress", "stimulus": "/static/audio/wordpool/DRESS.wav", "conditions": [12, 800, "a", 12000], "internal_node_id": "0.0-96.0", "trial": 3, "time_elapsed": 592607, "serialpos": 3, "key_press": -1, "wordID": 494, "type": "PRES_AUD", "trial_index": 132}, "uniqueid": "MTK3235:3WS1NTTKEZJVD802CGIPZ279GP3F0X", "dateTime": 1520279751531}, {"current_trial": 133, "trialdata": {"rt": -1000, "trial_type": "single-audio", "word": "journal", "stimulus": "/static/audio/wordpool/JOURNAL.wav", "conditions": [12, 800, "a", 12000], "internal_node_id": "0.0-97.0", "trial": 3, "time_elapsed": 594447, "serialpos": 4, "key_press": -1, "wordID": 759, "type": "PRES_AUD", "trial_index": 133}, "uniqueid": "MTK3235:3WS1NTTKEZJVD802CGIPZ279GP3F0X", "dateTime": 1520279753371}, {"current_trial": 134, "trialdata": {"rt": -1000, "trial_type": "single-audio", "word": "mailbox", "stimulus": "/static/audio/wordpool/MAILBOX.wav", "conditions": [12, 800, "a", 12000], "internal_node_id": "0.0-98.0", "trial": 3, "time_elapsed": 596395, "serialpos": 5, "key_press": -1, "wordID": 856, "type": "PRES_AUD", "trial_index": 134}, "uniqueid": "MTK3235:3WS1NTTKEZJVD802CGIPZ279GP3F0X", "dateTime": 1520279755319}, {"current_trial": 135, "trialdata": {"rt": -1000, "trial_type": "single-audio", "word": "buggy", "stimulus": "/static/audio/wordpool/BUGGY.wav", "conditions": [12, 800, "a", 12000], "internal_node_id": "0.0-99.0", "trial": 3, "time_elapsed": 598315, "serialpos": 6, "key_press": -1, "wordID": 187, "type": "PRES_AUD", "trial_index": 135}, "uniqueid": "MTK3235:3WS1NTTKEZJVD802CGIPZ279GP3F0X", "dateTime": 1520279757239}, {"current_trial": 136, "trialdata": {"rt": -1000, "trial_type": "single-audio", "word": "tortoise", "stimulus": "/static/audio/wordpool/TORTOISE.wav", "conditions": [12, 800, "a", 12000], "internal_node_id": "0.0-100.0", "trial": 3, "time_elapsed": 600074, "serialpos": 7, "key_press": -1, "wordID": 1485, "type": "PRES_AUD", "trial_index": 136}, "uniqueid": "MTK3235:3WS1NTTKEZJVD802CGIPZ279GP3F0X", "dateTime": 1520279758998}, {"current_trial": 137, "trialdata": {"rt": -1000, "trial_type": "single-audio", "word": "sister", "stimulus": "/static/audio/wordpool/SISTER.wav", "conditions": [12, 800, "a", 12000], "internal_node_id": "0.0-101.0", "trial": 3, "time_elapsed": 602035, "serialpos": 8, "key_press": -1, "wordID": 1311, "type": "PRES_AUD", "trial_index": 137}, "uniqueid": "MTK3235:3WS1NTTKEZJVD802CGIPZ279GP3F0X", "dateTime": 1520279760959}, {"current_trial": 138, "trialdata": {"rt": -1000, "trial_type": "single-audio", "word": "scribble", "stimulus": "/static/audio/wordpool/SCRIBBLE.wav", "conditions": [12, 800, "a", 12000], "internal_node_id": "0.0-102.0", "trial": 3, "time_elapsed": 603995, "serialpos": 9, "key_press": -1, "wordID": 1255, "type": "PRES_AUD", "trial_index": 138}, "uniqueid": "MTK3235:3WS1NTTKEZJVD802CGIPZ279GP3F0X", "dateTime": 1520279762919}, {"current_trial": 139, "trialdata": {"rt": -1000, "trial_type": "single-audio", "word": "liver", "stimulus": "/static/audio/wordpool/LIVER.wav", "conditions": [12, 800, "a", 12000], "internal_node_id": "0.0-103.0", "trial": 3, "time_elapsed": 605782, "serialpos": 10, "key_press": -1, "wordID": 832, "type": "PRES_AUD", "trial_index": 139}, "uniqueid": "MTK3235:3WS1NTTKEZJVD802CGIPZ279GP3F0X", "dateTime": 1520279764706}, {"current_trial": 140, "trialdata": {"rt": -1000, "trial_type": "single-audio", "word": "fruit", "stimulus": "/static/audio/wordpool/FRUIT.wav", "conditions": [12, 800, "a", 12000], "internal_node_id": "0.0-104.0", "trial": 3, "time_elapsed": 607416, "serialpos": 11, "key_press": -1, "wordID": 609, "type": "PRES_AUD", "trial_index": 140}, "uniqueid": "MTK3235:3WS1NTTKEZJVD802CGIPZ279GP3F0X", "dateTime": 1520279766340}, {"current_trial": 141, "trialdata": {"rt": -1, "trial_type": "single-stim", "stimulus": "", "internal_node_id": "0.0-105.0-0.0", "time_elapsed": 608747, "key_press": -1, "type": "PRE_RECALL_DELAY", "trial_index": 141}, "uniqueid": "MTK3235:3WS1NTTKEZJVD802CGIPZ279GP3F0X", "dateTime": 1520279767671}, {"current_trial": 142, "trialdata": {"rt": -1000, "trial_type": "single-audio", "stimulus": "/static/audio/400Hz.wav", "internal_node_id": "0.0-106.0", "time_elapsed": 609249, "key_press": -1, "type": "PRE_RECALL_ALERT", "trial_index": 142}, "uniqueid": "MTK3235:3WS1NTTKEZJVD802CGIPZ279GP3F0X", "dateTime": 1520279768174}, {"current_trial": 143, "trialdata": {"rt": [2498, 6442, 7858, 8955, 11115, 12418, 13874, 14730, 16443, 54770, 54946, 55091, 55258, 55434], "recwords": ["wife", "costume", "dress", "journal", "mailbox", "buggy", "sister", "liver", "fruit", "", "", "", "", ""], "key_times": [1652, 1802, 1907, 1955, 2498, 4523, 4627, 5131, 5579, 5803, 5899, 5978, 6187, 6258, 6442, 7218, 7411, 7459, 7547, 7747, 7858, 8066, 8179, 8267, 8355, 8515, 8619, 8731, 8955, 10106, 10171, 10315, 10523, 10691, 10771, 10915, 11115, 11651, 11843, 12010, 12170, 12203, 12418, 13299, 13403, 13508, 13603, 13715, 13802, 13874, 14107, 14283, 14339, 14418, 14610, 14730, 14922, 15115, 15186, 15282, 15715, 15843, 16066, 16251, 16339, 16443, 54770, 54946, 55091, 55258, 55434], "trial_type": "free-recall", "conditions": [12, 800, "a", 12000], "internal_node_id": "0.0-107.0-0.0", "key_presses": [87, 73, 70, 69, 13, 67, 79, 8, 79, 83, 84, 85, 77, 69, 13, 68, 82, 69, 83, 83, 13, 74, 79, 85, 82, 78, 65, 76, 13, 77, 65, 73, 76, 66, 79, 88, 13, 66, 85, 71, 71, 89, 13, 83, 73, 83, 84, 69, 82, 13, 76, 73, 86, 69, 82, 13, 70, 82, 73, 69, 8, 8, 85, 73, 84, 13, 13, 13, 13, 13, 13], "trial": 3, "time_elapsed": 669253, "type": "FREE_RECALL", "trial_index": 143}, "uniqueid": "MTK3235:3WS1NTTKEZJVD802CGIPZ279GP3F0X", "dateTime": 1520279828180}, {"current_trial": 144, "trialdata": {"rt": 2109, "trial_type": "text", "internal_node_id": "0.0-108.0", "time_elapsed": 673366, "key_press": 13, "type": "INSTRUCTIONS", "trial_index": 144}, "uniqueid": "MTK3235:3WS1NTTKEZJVD802CGIPZ279GP3F0X", "dateTime": 1520279832290}, {"current_trial": 145, "trialdata": {"rt": [5444, 9876, 14379, 16499, 20411, 22228, 23715], "trial_type": "math-distractor", "key_times": [3597, 3765, 4229, 5109, 5444, 9565, 9660, 9876, 14029, 14197, 14379, 16268, 16357, 16499, 20117, 20260, 20411, 21876, 21988, 22228, 23524, 23715], "responses": ["13", "12", "22", "20", "14", "19", "5"], "num2": [1, 7, 4, 9, 3, 2, 1, 1], "num3": [9, 1, 9, 9, 3, 9, 3, 9], "conditions": [24, 1600, "a", 24000], "internal_node_id": "0.0-109.0", "key_presses": [97, 99, 107, 8, 13, 97, 98, 13, 98, 98, 13, 98, 96, 13, 97, 100, 13, 97, 105, 13, 101, 13], "trial": 4, "time_elapsed": 699370, "type": "DISTRACTOR", "trial_index": 145, "num1": [3, 4, 9, 2, 8, 8, 1, 2]}, "uniqueid": "MTK3235:3WS1NTTKEZJVD802CGIPZ279GP3F0X", "dateTime": 1520279858295}, {"current_trial": 146, "trialdata": {"rt": -1, "trial_type": "single-stim", "stimulus": "<p id=\"stim\">10</p>", "internal_node_id": "0.0-110.0-0.0", "time_elapsed": 702373, "key_press": -1, "trial_index": 146}, "uniqueid": "MTK3235:3WS1NTTKEZJVD802CGIPZ279GP3F0X", "dateTime": 1520279861297}, {"current_trial": 147, "trialdata": {"rt": -1, "trial_type": "single-stim", "stimulus": "<p id=\"stim\">9</p>", "internal_node_id": "0.0-110.0-1.0", "time_elapsed": 703376, "key_press": -1, "trial_index": 147}, "uniqueid": "MTK3235:3WS1NTTKEZJVD802CGIPZ279GP3F0X", "dateTime": 1520279862300}, {"current_trial": 148, "trialdata": {"rt": -1, "trial_type": "single-stim", "stimulus": "<p id=\"stim\">8</p>", "internal_node_id": "0.0-110.0-2.0", "time_elapsed": 704376, "key_press": -1, "trial_index": 148}, "uniqueid": "MTK3235:3WS1NTTKEZJVD802CGIPZ279GP3F0X", "dateTime": 1520279863300}, {"current_trial": 149, "trialdata": {"rt": -1, "trial_type": "single-stim", "stimulus": "<p id=\"stim\">7</p>", "internal_node_id": "0.0-110.0-3.0", "time_elapsed": 705378, "key_press": -1, "trial_index": 149}, "uniqueid": "MTK3235:3WS1NTTKEZJVD802CGIPZ279GP3F0X", "dateTime": 1520279864302}, {"current_trial": 150, "trialdata": {"rt": -1, "trial_type": "single-stim", "stimulus": "<p id=\"stim\">6</p>", "internal_node_id": "0.0-110.0-4.0", "time_elapsed": 706379, "key_press": -1, "trial_index": 150}, "uniqueid": "MTK3235:3WS1NTTKEZJVD802CGIPZ279GP3F0X", "dateTime": 1520279865303}, {"current_trial": 151, "trialdata": {"rt": -1, "trial_type": "single-stim", "stimulus": "<p id=\"stim\">5</p>", "internal_node_id": "0.0-110.0-5.0", "time_elapsed": 707381, "key_press": -1, "trial_index": 151}, "uniqueid": "MTK3235:3WS1NTTKEZJVD802CGIPZ279GP3F0X", "dateTime": 1520279866305}, {"current_trial": 152, "trialdata": {"rt": -1, "trial_type": "single-stim", "stimulus": "<p id=\"stim\">4</p>", "internal_node_id": "0.0-110.0-6.0", "time_elapsed": 708382, "key_press": -1, "trial_index": 152}, "uniqueid": "MTK3235:3WS1NTTKEZJVD802CGIPZ279GP3F0X", "dateTime": 1520279867306}, {"current_trial": 153, "trialdata": {"rt": -1, "trial_type": "single-stim", "stimulus": "<p id=\"stim\">3</p>", "internal_node_id": "0.0-110.0-7.0", "time_elapsed": 709385, "key_press": -1, "trial_index": 153}, "uniqueid": "MTK3235:3WS1NTTKEZJVD802CGIPZ279GP3F0X", "dateTime": 1520279868309}, {"current_trial": 154, "trialdata": {"rt": -1, "trial_type": "single-stim", "stimulus": "<p id=\"stim\">2</p>", "internal_node_id": "0.0-110.0-8.0", "time_elapsed": 710386, "key_press": -1, "trial_index": 154}, "uniqueid": "MTK3235:3WS1NTTKEZJVD802CGIPZ279GP3F0X", "dateTime": 1520279869310}, {"current_trial": 155, "trialdata": {"rt": -1, "trial_type": "single-stim", "stimulus": "<p id=\"stim\">1</p>", "internal_node_id": "0.0-110.0-9.0", "time_elapsed": 711386, "key_press": -1, "trial_index": 155}, "uniqueid": "MTK3235:3WS1NTTKEZJVD802CGIPZ279GP3F0X", "dateTime": 1520279870310}, {"current_trial": 156, "trialdata": {"rt": -1, "trial_type": "single-stim", "stimulus": "<p id=\"stim\">+</p>", "internal_node_id": "0.0-111.0-0.0", "time_elapsed": 712888, "key_press": -1, "type": "FIXATION", "trial_index": 156}, "uniqueid": "MTK3235:3WS1NTTKEZJVD802CGIPZ279GP3F0X", "dateTime": 1520279871812}, {"current_trial": 157, "trialdata": {"rt": -1000, "trial_type": "single-audio", "word": "lizard", "stimulus": "/static/audio/wordpool/LIZARD.wav", "conditions": [24, 1600, "a", 24000], "internal_node_id": "0.0-112.0", "trial": 4, "time_elapsed": 715656, "serialpos": 0, "key_press": -1, "wordID": 833, "type": "PRES_AUD", "trial_index": 157}, "uniqueid": "MTK3235:3WS1NTTKEZJVD802CGIPZ279GP3F0X", "dateTime": 1520279874580}, {"current_trial": 158, "trialdata": {"rt": -1000, "trial_type": "single-audio", "word": "razor", "stimulus": "/static/audio/wordpool/RAZOR.wav", "conditions": [24, 1600, "a", 24000], "internal_node_id": "0.0-113.0", "trial": 4, "time_elapsed": 718337, "serialpos": 1, "key_press": -1, "wordID": 1170, "type": "PRES_AUD", "trial_index": 158}, "uniqueid": "MTK3235:3WS1NTTKEZJVD802CGIPZ279GP3F0X", "dateTime": 1520279877261}, {"current_trial": 159, "trialdata": {"rt": -1000, "trial_type": "single-audio", "word": "jelly", "stimulus": "/static/audio/wordpool/JELLY.wav", "conditions": [24, 1600, "a", 24000], "internal_node_id": "0.0-114.0", "trial": 4, "time_elapsed": 720751, "serialpos": 2, "key_press": -1, "wordID": 754, "type": "PRES_AUD", "trial_index": 159}, "uniqueid": "MTK3235:3WS1NTTKEZJVD802CGIPZ279GP3F0X", "dateTime": 1520279879675}, {"current_trial": 160, "trialdata": {"rt": -1000, "trial_type": "single-audio", "word": "custard", "stimulus": "/static/audio/wordpool/CUSTARD.wav", "conditions": [24, 1600, "a", 24000], "internal_node_id": "0.0-115.0", "trial": 4, "time_elapsed": 723505, "serialpos": 3, "key_press": -1, "wordID": 428, "type": "PRES_AUD", "trial_index": 160}, "uniqueid": "MTK3235:3WS1NTTKEZJVD802CGIPZ279GP3F0X", "dateTime": 1520279882429}, {"current_trial": 161, "trialdata": {"rt": -1000, "trial_type": "single-audio", "word": "beast", "stimulus": "/static/audio/wordpool/BEAST.wav", "conditions": [24, 1600, "a", 24000], "internal_node_id": "0.0-116.0", "trial": 4, "time_elapsed": 726175, "serialpos": 4, "key_press": -1, "wordID": 107, "type": "PRES_AUD", "trial_index": 161}, "uniqueid": "MTK3235:3WS1NTTKEZJVD802CGIPZ279GP3F0X", "dateTime": 1520279885099}, {"current_trial": 162, "trialdata": {"rt": -1000, "trial_type": "single-audio", "word": "jungle", "stimulus": "/static/audio/wordpool/JUNGLE.wav", "conditions": [24, 1600, "a", 24000], "internal_node_id": "0.0-117.0", "trial": 4, "time_elapsed": 728920, "serialpos": 5, "key_press": -1, "wordID": 763, "type": "PRES_AUD", "trial_index": 162}, "uniqueid": "MTK3235:3WS1NTTKEZJVD802CGIPZ279GP3F0X", "dateTime": 1520279887845}, {"current_trial": 163, "trialdata": {"rt": -1000, "trial_type": "single-audio", "word": "curtain", "stimulus": "/static/audio/wordpool/CURTAIN.wav", "conditions": [24, 1600, "a", 24000], "internal_node_id": "0.0-118.0", "trial": 4, "time_elapsed": 731428, "serialpos": 6, "key_press": -1, "wordID": 426, "type": "PRES_AUD", "trial_index": 163}, "uniqueid": "MTK3235:3WS1NTTKEZJVD802CGIPZ279GP3F0X", "dateTime": 1520279890352}, {"current_trial": 164, "trialdata": {"rt": -1000, "trial_type": "single-audio", "word": "machine", "stimulus": "/static/audio/wordpool/MACHINE.wav", "conditions": [24, 1600, "a", 24000], "internal_node_id": "0.0-119.0", "trial": 4, "time_elapsed": 734067, "serialpos": 7, "key_press": -1, "wordID": 851, "type": "PRES_AUD", "trial_index": 164}, "uniqueid": "MTK3235:3WS1NTTKEZJVD802CGIPZ279GP3F0X", "dateTime": 1520279892991}, {"current_trial": 165, "trialdata": {"rt": -1000, "trial_type": "single-audio", "word": "jello", "stimulus": "/static/audio/wordpool/JELLO.wav", "conditions": [24, 1600, "a", 24000], "internal_node_id": "0.0-120.0", "trial": 4, "time_elapsed": 736811, "serialpos": 8, "key_press": -1, "wordID": 753, "type": "PRES_AUD", "trial_index": 165}, "uniqueid": "MTK3235:3WS1NTTKEZJVD802CGIPZ279GP3F0X", "dateTime": 1520279895735}, {"current_trial": 166, "trialdata": {"rt": -1000, "trial_type": "single-audio", "word": "badge", "stimulus": "/static/audio/wordpool/BADGE.wav", "conditions": [24, 1600, "a", 24000], "internal_node_id": "0.0-121.0", "trial": 4, "time_elapsed": 739326, "serialpos": 9, "key_press": -1, "wordID": 67, "type": "PRES_AUD", "trial_index": 166}, "uniqueid": "MTK3235:3WS1NTTKEZJVD802CGIPZ279GP3F0X", "dateTime": 1520279898250}, {"current_trial": 167, "trialdata": {"rt": -1000, "trial_type": "single-audio", "word": "sticker", "stimulus": "/static/audio/wordpool/STICKER.wav", "conditions": [24, 1600, "a", 24000], "internal_node_id": "0.0-122.0", "trial": 4, "time_elapsed": 742117, "serialpos": 10, "key_press": -1, "wordID": 1381, "type": "PRES_AUD", "trial_index": 167}, "uniqueid": "MTK3235:3WS1NTTKEZJVD802CGIPZ279GP3F0X", "dateTime": 1520279901041}, {"current_trial": 168, "trialdata": {"rt": -1000, "trial_type": "single-audio", "word": "velvet", "stimulus": "/static/audio/wordpool/VELVET.wav", "conditions": [24, 1600, "a", 24000], "internal_node_id": "0.0-123.0", "trial": 4, "time_elapsed": 744637, "serialpos": 11, "key_press": -1, "wordID": 1554, "type": "PRES_AUD", "trial_index": 168}, "uniqueid": "MTK3235:3WS1NTTKEZJVD802CGIPZ279GP3F0X", "dateTime": 1520279903561}, {"current_trial": 169, "trialdata": {"rt": -1000, "trial_type": "single-audio", "word": "parsley", "stimulus": "/static/audio/wordpool/PARSLEY.wav", "conditions": [24, 1600, "a", 24000], "internal_node_id": "0.0-124.0", "trial": 4, "time_elapsed": 747100, "serialpos": 12, "key_press": -1, "wordID": 1015, "type": "PRES_AUD", "trial_index": 169}, "uniqueid": "MTK3235:3WS1NTTKEZJVD802CGIPZ279GP3F0X", "dateTime": 1520279906024}, {"current_trial": 170, "trialdata": {"rt": -1000, "trial_type": "single-audio", "word": "belly", "stimulus": "/static/audio/wordpool/BELLY.wav", "conditions": [24, 1600, "a", 24000], "internal_node_id": "0.0-125.0", "trial": 4, "time_elapsed": 749873, "serialpos": 13, "key_press": -1, "wordID": 118, "type": "PRES_AUD", "trial_index": 170}, "uniqueid": "MTK3235:3WS1NTTKEZJVD802CGIPZ279GP3F0X", "dateTime": 1520279908797}, {"current_trial": 171, "trialdata": {"rt": -1000, "trial_type": "single-audio", "word": "luggage", "stimulus": "/static/audio/wordpool/LUGGAGE.wav", "conditions": [24, 1600, "a", 24000], "internal_node_id": "0.0-126.0", "trial": 4, "time_elapsed": 752360, "serialpos": 14, "key_press": -1, "wordID": 846, "type": "PRES_AUD", "trial_index": 171}, "uniqueid": "MTK3235:3WS1NTTKEZJVD802CGIPZ279GP3F0X", "dateTime": 1520279911285}, {"current_trial": 172, "trialdata": {"rt": -1000, "trial_type": "single-audio", "word": "suitcase", "stimulus": "/static/audio/wordpool/SUITCASE.wav", "conditions": [24, 1600, "a", 24000], "internal_node_id": "0.0-127.0", "trial": 4, "time_elapsed": 754782, "serialpos": 15, "key_press": -1, "wordID": 1402, "type": "PRES_AUD", "trial_index": 172}, "uniqueid": "MTK3235:3WS1NTTKEZJVD802CGIPZ279GP3F0X", "dateTime": 1520279913706}, {"current_trial": 173, "trialdata": {"rt": -1000, "trial_type": "single-audio", "word": "brick", "stimulus": "/static/audio/wordpool/BRICK.wav", "conditions": [24, 1600, "a", 24000], "internal_node_id": "0.0-128.0", "trial": 4, "time_elapsed": 757466, "serialpos": 16, "key_press": -1, "wordID": 171, "type": "PRES_AUD", "trial_index": 173}, "uniqueid": "MTK3235:3WS1NTTKEZJVD802CGIPZ279GP3F0X", "dateTime": 1520279916390}, {"current_trial": 174, "trialdata": {"rt": -1000, "trial_type": "single-audio", "word": "hand", "stimulus": "/static/audio/wordpool/HAND.wav", "conditions": [24, 1600, "a", 24000], "internal_node_id": "0.0-129.0", "trial": 4, "time_elapsed": 760237, "serialpos": 17, "key_press": -1, "wordID": 682, "type": "PRES_AUD", "trial_index": 174}, "uniqueid": "MTK3235:3WS1NTTKEZJVD802CGIPZ279GP3F0X", "dateTime": 1520279919161}, {"current_trial": 175, "trialdata": {"rt": -1000, "trial_type": "single-audio", "word": "crevice", "stimulus": "/static/audio/wordpool/CREVICE.wav", "conditions": [24, 1600, "a", 24000], "internal_node_id": "0.0-130.0", "trial": 4, "time_elapsed": 762719, "serialpos": 18, "key_press": -1, "wordID": 404, "type": "PRES_AUD", "trial_index": 175}, "uniqueid": "MTK3235:3WS1NTTKEZJVD802CGIPZ279GP3F0X", "dateTime": 1520279921643}, {"current_trial": 176, "trialdata": {"rt": -1000, "trial_type": "single-audio", "word": "table", "stimulus": "/static/audio/wordpool/TABLE.wav", "conditions": [24, 1600, "a", 24000], "internal_node_id": "0.0-131.0", "trial": 4, "time_elapsed": 765512, "serialpos": 19, "key_press": -1, "wordID": 1425, "type": "PRES_AUD", "trial_index": 176}, "uniqueid": "MTK3235:3WS1NTTKEZJVD802CGIPZ279GP3F0X", "dateTime": 1520279924438}, {"current_trial": 177, "trialdata": {"rt": -1000, "trial_type": "single-audio", "word": "snack", "stimulus": "/static/audio/wordpool/SNACK.wav", "conditions": [24, 1600, "a", 24000], "internal_node_id": "0.0-132.0", "trial": 4, "time_elapsed": 767932, "serialpos": 20, "key_press": -1, "wordID": 1330, "type": "PRES_AUD", "trial_index": 177}, "uniqueid": "MTK3235:3WS1NTTKEZJVD802CGIPZ279GP3F0X", "dateTime": 1520279926857}, {"current_trial": 178, "trialdata": {"rt": -1000, "trial_type": "single-audio", "word": "sibling", "stimulus": "/static/audio/wordpool/SIBLING.wav", "conditions": [24, 1600, "a", 24000], "internal_node_id": "0.0-133.0", "trial": 4, "time_elapsed": 770609, "serialpos": 21, "key_press": -1, "wordID": 1300, "type": "PRES_AUD", "trial_index": 178}, "uniqueid": "MTK3235:3WS1NTTKEZJVD802CGIPZ279GP3F0X", "dateTime": 1520279929533}, {"current_trial": 179, "trialdata": {"rt": -1000, "trial_type": "single-audio", "word": "champagne", "stimulus": "/static/audio/wordpool/CHAMPAGNE.wav", "conditions": [24, 1600, "a", 24000], "internal_node_id": "0.0-134.0", "trial": 4, "time_elapsed": 773200, "serialpos": 22, "key_press": -1, "wordID": 277, "type": "PRES_AUD", "trial_index": 179}, "uniqueid": "MTK3235:3WS1NTTKEZJVD802CGIPZ279GP3F0X", "dateTime": 1520279932124}, {"current_trial": 180, "trialdata": {"rt": -1000, "trial_type": "single-audio", "word": "stone", "stimulus": "/static/audio/wordpool/STONE.wav", "conditions": [24, 1600, "a", 24000], "internal_node_id": "0.0-135.0", "trial": 4, "time_elapsed": 775696, "serialpos": 23, "key_press": -1, "wordID": 1384, "type": "PRES_AUD", "trial_index": 180}, "uniqueid": "MTK3235:3WS1NTTKEZJVD802CGIPZ279GP3F0X", "dateTime": 1520279934620}, {"current_trial": 181, "trialdata": {"rt": -1, "trial_type": "single-stim", "stimulus": "", "internal_node_id": "0.0-136.0-0.0", "time_elapsed": 777065, "key_press": -1, "type": "PRE_RECALL_DELAY", "trial_index": 181}, "uniqueid": "MTK3235:3WS1NTTKEZJVD802CGIPZ279GP3F0X", "dateTime": 1520279935989}, {"current_trial": 182, "trialdata": {"rt": -1000, "trial_type": "single-audio", "stimulus": "/static/audio/400Hz.wav", "internal_node_id": "0.0-137.0", "time_elapsed": 777566, "key_press": -1, "type": "PRE_RECALL_ALERT", "trial_index": 182}, "uniqueid": "MTK3235:3WS1NTTKEZJVD802CGIPZ279GP3F0X", "dateTime": 1520279936491}, {"current_trial": 183, "trialdata": {"rt": [5445, 7069, 10341, 14478, 15789, 18613, 19869, 22973, 27973, 31309, 31957, 34141, 37381, 43133], "recwords": ["lizard", "jelly", "beast", "jungle", "curtain", "hand", "sibling", "badge", "suitcase", "table", "stone", "sibling", "luggage", "jello"], "key_times": [4007, 4165, 4301, 4470, 4566, 4765, 5445, 6397, 6502, 6613, 6749, 6893, 7069, 8526, 8829, 9781, 9982, 10133, 10341, 11158, 11389, 11613, 11742, 11854, 11982, 14478, 14981, 15085, 15182, 15365, 15414, 15493, 15550, 15789, 18093, 18165, 18309, 18429, 18613, 18837, 18965, 19173, 19366, 19558, 19613, 19725, 19869, 22301, 22382, 22549, 22717, 22797, 22973, 25198, 25461, 26125, 26389, 26501, 26645, 26973, 27077, 27165, 27245, 27973, 28278, 28493, 28685, 28877, 29262, 29445, 29597, 29765, 30709, 30797, 30918, 31069, 31166, 31309, 31422, 31534, 31629, 31709, 31830, 31957, 33190, 33317, 33501, 33661, 33837, 33893, 33981, 34141, 36518, 36694, 36758, 36910, 36982, 37094, 37165, 37381, 42358, 42445, 42566, 42717, 42902, 43133], "trial_type": "free-recall", "conditions": [24, 1600, "a", 24000], "internal_node_id": "0.0-138.0-0.0", "key_presses": [76, 73, 90, 65, 82, 68, 13, 74, 69, 76, 76, 89, 13, 66, 69, 65, 83, 84, 13, 74, 85, 78, 71, 76, 69, 13, 67, 85, 82, 84, 65, 73, 78, 13, 72, 65, 78, 68, 13, 83, 73, 66, 76, 73, 78, 71, 13, 66, 65, 68, 71, 69, 13, 83, 73, 8, 85, 73, 84, 67, 65, 83, 69, 13, 76, 85, 71, 71, 8, 8, 8, 8, 84, 65, 66, 76, 69, 13, 83, 84, 79, 78, 69, 13, 83, 73, 66, 76, 73, 78, 71, 13, 76, 85, 71, 71, 65, 71, 69, 13, 74, 69, 76, 76, 79, 13], "trial": 4, "time_elapsed": 837571, "type": "FREE_RECALL", "trial_index": 183}, "uniqueid": "MTK3235:3WS1NTTKEZJVD802CGIPZ279GP3F0X", "dateTime": 1520279996498}, {"current_trial": 184, "trialdata": {"rt": 1229, "trial_type": "text", "internal_node_id": "0.0-139.0", "time_elapsed": 840804, "key_press": 13, "type": "INSTRUCTIONS", "trial_index": 184}, "uniqueid": "MTK3235:3WS1NTTKEZJVD802CGIPZ279GP3F0X", "dateTime": 1520279999729}, {"current_trial": 185, "trialdata": {"rt": [4694, 6806, 9110, 11078, 13878, 17334, 22614], "trial_type": "math-distractor", "key_times": [3134, 3214, 3415, 4382, 4694, 6486, 6582, 6806, 8783, 8943, 9110, 10654, 10862, 11078, 13566, 13686, 13878, 16910, 17102, 17334, 22271, 22446, 22614], "responses": ["12", "13", "14", "17", "18", "17", "14"], "num2": [8, 3, 5, 8, 7, 6, 2, 3], "num3": [1, 4, 3, 7, 2, 2, 3, 4], "conditions": [12, 1600, "a", 24000], "internal_node_id": "0.0-140.0", "key_presses": [97, 98, 107, 8, 13, 97, 99, 13, 97, 100, 13, 97, 103, 13, 97, 104, 13, 97, 103, 13, 97, 100, 13], "trial": 5, "time_elapsed": 866808, "type": "DISTRACTOR", "trial_index": 185, "num1": [3, 6, 6, 2, 9, 9, 9, 4]}, "uniqueid": "MTK3235:3WS1NTTKEZJVD802CGIPZ279GP3F0X", "dateTime": 1520280025732}, {"current_trial": 186, "trialdata": {"rt": -1, "trial_type": "single-stim", "stimulus": "<p id=\"stim\">10</p>", "internal_node_id": "0.0-141.0-0.0", "time_elapsed": 869811, "key_press": -1, "trial_index": 186}, "uniqueid": "MTK3235:3WS1NTTKEZJVD802CGIPZ279GP3F0X", "dateTime": 1520280028735}, {"current_trial": 187, "trialdata": {"rt": -1, "trial_type": "single-stim", "stimulus": "<p id=\"stim\">9</p>", "internal_node_id": "0.0-141.0-1.0", "time_elapsed": 870812, "key_press": -1, "trial_index": 187}, "uniqueid": "MTK3235:3WS1NTTKEZJVD802CGIPZ279GP3F0X", "dateTime": 1520280029736}, {"current_trial": 188, "trialdata": {"rt": -1, "trial_type": "single-stim", "stimulus": "<p id=\"stim\">8</p>", "internal_node_id": "0.0-141.0-2.0", "time_elapsed": 871813, "key_press": -1, "trial_index": 188}, "uniqueid": "MTK3235:3WS1NTTKEZJVD802CGIPZ279GP3F0X", "dateTime": 1520280030737}, {"current_trial": 189, "trialdata": {"rt": -1, "trial_type": "single-stim", "stimulus": "<p id=\"stim\">7</p>", "internal_node_id": "0.0-141.0-3.0", "time_elapsed": 872815, "key_press": -1, "trial_index": 189}, "uniqueid": "MTK3235:3WS1NTTKEZJVD802CGIPZ279GP3F0X", "dateTime": 1520280031740}, {"current_trial": 190, "trialdata": {"rt": -1, "trial_type": "single-stim", "stimulus": "<p id=\"stim\">6</p>", "internal_node_id": "0.0-141.0-4.0", "time_elapsed": 873818, "key_press": -1, "trial_index": 190}, "uniqueid": "MTK3235:3WS1NTTKEZJVD802CGIPZ279GP3F0X", "dateTime": 1520280032742}, {"current_trial": 191, "trialdata": {"rt": -1, "trial_type": "single-stim", "stimulus": "<p id=\"stim\">5</p>", "internal_node_id": "0.0-141.0-5.0", "time_elapsed": 874819, "key_press": -1, "trial_index": 191}, "uniqueid": "MTK3235:3WS1NTTKEZJVD802CGIPZ279GP3F0X", "dateTime": 1520280033743}, {"current_trial": 192, "trialdata": {"rt": -1, "trial_type": "single-stim", "stimulus": "<p id=\"stim\">4</p>", "internal_node_id": "0.0-141.0-6.0", "time_elapsed": 875821, "key_press": -1, "trial_index": 192}, "uniqueid": "MTK3235:3WS1NTTKEZJVD802CGIPZ279GP3F0X", "dateTime": 1520280034745}, {"current_trial": 193, "trialdata": {"rt": -1, "trial_type": "single-stim", "stimulus": "<p id=\"stim\">3</p>", "internal_node_id": "0.0-141.0-7.0", "time_elapsed": 876823, "key_press": -1, "trial_index": 193}, "uniqueid": "MTK3235:3WS1NTTKEZJVD802CGIPZ279GP3F0X", "dateTime": 1520280035747}, {"current_trial": 194, "trialdata": {"rt": -1, "trial_type": "single-stim", "stimulus": "<p id=\"stim\">2</p>", "internal_node_id": "0.0-141.0-8.0", "time_elapsed": 877826, "key_press": -1, "trial_index": 194}, "uniqueid": "MTK3235:3WS1NTTKEZJVD802CGIPZ279GP3F0X", "dateTime": 1520280036750}, {"current_trial": 195, "trialdata": {"rt": -1, "trial_type": "single-stim", "stimulus": "<p id=\"stim\">1</p>", "internal_node_id": "0.0-141.0-9.0", "time_elapsed": 878826, "key_press": -1, "trial_index": 195}, "uniqueid": "MTK3235:3WS1NTTKEZJVD802CGIPZ279GP3F0X", "dateTime": 1520280037751}, {"current_trial": 196, "trialdata": {"rt": -1, "trial_type": "single-stim", "stimulus": "<p id=\"stim\">+</p>", "internal_node_id": "0.0-142.0-0.0", "time_elapsed": 880328, "key_press": -1, "type": "FIXATION", "trial_index": 196}, "uniqueid": "MTK3235:3WS1NTTKEZJVD802CGIPZ279GP3F0X", "dateTime": 1520280039252}, {"current_trial": 197, "trialdata": {"rt": -1000, "trial_type": "single-audio", "word": "cowboy", "stimulus": "/static/audio/wordpool/COWBOY.wav", "conditions": [12, 1600, "a", 24000], "internal_node_id": "0.0-143.0", "trial": 5, "time_elapsed": 882801, "serialpos": 0, "key_press": -1, "wordID": 394, "type": "PRES_AUD", "trial_index": 197}, "uniqueid": "MTK3235:3WS1NTTKEZJVD802CGIPZ279GP3F0X", "dateTime": 1520280041725}, {"current_trial": 198, "trialdata": {"rt": -1000, "trial_type": "single-audio", "word": "permit", "stimulus": "/static/audio/wordpool/PERMIT.wav", "conditions": [12, 1600, "a", 24000], "internal_node_id": "0.0-144.0", "trial": 5, "time_elapsed": 885347, "serialpos": 1, "key_press": -1, "wordID": 1050, "type": "PRES_AUD", "trial_index": 198}, "uniqueid": "MTK3235:3WS1NTTKEZJVD802CGIPZ279GP3F0X", "dateTime": 1520280044271}, {"current_trial": 199, "trialdata": {"rt": -1000, "trial_type": "single-audio", "word": "server", "stimulus": "/static/audio/wordpool/SERVER.wav", "conditions": [12, 1600, "a", 24000], "internal_node_id": "0.0-145.0", "trial": 5, "time_elapsed": 887909, "serialpos": 2, "key_press": -1, "wordID": 1271, "type": "PRES_AUD", "trial_index": 199}, "uniqueid": "MTK3235:3WS1NTTKEZJVD802CGIPZ279GP3F0X", "dateTime": 1520280046833}, {"current_trial": 200, "trialdata": {"rt": -1000, "trial_type": "single-audio", "word": "pliers", "stimulus": "/static/audio/wordpool/PLIERS.wav", "conditions": [12, 1600, "a", 24000], "internal_node_id": "0.0-146.0", "trial": 5, "time_elapsed": 890467, "serialpos": 3, "key_press": -1, "wordID": 1088, "type": "PRES_AUD", "trial_index": 200}, "uniqueid": "MTK3235:3WS1NTTKEZJVD802CGIPZ279GP3F0X", "dateTime": 1520280049391}, {"current_trial": 201, "trialdata": {"rt": -1000, "trial_type": "single-audio", "word": "crab", "stimulus": "/static/audio/wordpool/CRAB.wav", "conditions": [12, 1600, "a", 24000], "internal_node_id": "0.0-147.0", "trial": 5, "time_elapsed": 893208, "serialpos": 4, "key_press": -1, "wordID": 396, "type": "PRES_AUD", "trial_index": 201}, "uniqueid": "MTK3235:3WS1NTTKEZJVD802CGIPZ279GP3F0X", "dateTime": 1520280052132}, {"current_trial": 202, "trialdata": {"rt": -1000, "trial_type": "single-audio", "word": "staple", "stimulus": "/static/audio/wordpool/STAPLE.wav", "conditions": [12, 1600, "a", 24000], "internal_node_id": "0.0-148.0", "trial": 5, "time_elapsed": 895634, "serialpos": 5, "key_press": -1, "wordID": 1370, "type": "PRES_AUD", "trial_index": 202}, "uniqueid": "MTK3235:3WS1NTTKEZJVD802CGIPZ279GP3F0X", "dateTime": 1520280054558}, {"current_trial": 203, "trialdata": {"rt": -1000, "trial_type": "single-audio", "word": "leg", "stimulus": "/static/audio/wordpool/LEG.wav", "conditions": [12, 1600, "a", 24000], "internal_node_id": "0.0-149.0", "trial": 5, "time_elapsed": 898279, "serialpos": 6, "key_press": -1, "wordID": 808, "type": "PRES_AUD", "trial_index": 203}, "uniqueid": "MTK3235:3WS1NTTKEZJVD802CGIPZ279GP3F0X", "dateTime": 1520280057203}, {"current_trial": 204, "trialdata": {"rt": -1000, "trial_type": "single-audio", "word": "clam", "stimulus": "/static/audio/wordpool/CLAM.wav", "conditions": [12, 1600, "a", 24000], "internal_node_id": "0.0-150.0", "trial": 5, "time_elapsed": 900737, "serialpos": 7, "key_press": -1, "wordID": 314, "type": "PRES_AUD", "trial_index": 204}, "uniqueid": "MTK3235:3WS1NTTKEZJVD802CGIPZ279GP3F0X", "dateTime": 1520280059661}, {"current_trial": 205, "trialdata": {"rt": -1000, "trial_type": "single-audio", "word": "bank", "stimulus": "/static/audio/wordpool/BANK.wav", "conditions": [12, 1600, "a", 24000], "internal_node_id": "0.0-151.0", "trial": 5, "time_elapsed": 903289, "serialpos": 8, "key_press": -1, "wordID": 82, "type": "PRES_AUD", "trial_index": 205}, "uniqueid": "MTK3235:3WS1NTTKEZJVD802CGIPZ279GP3F0X", "dateTime": 1520280062213}, {"current_trial": 206, "trialdata": {"rt": -1000, "trial_type": "single-audio", "word": "branch", "stimulus": "/static/audio/wordpool/BRANCH.wav", "conditions": [12, 1600, "a", 24000], "internal_node_id": "0.0-152.0", "trial": 5, "time_elapsed": 906014, "serialpos": 9, "key_press": -1, "wordID": 167, "type": "PRES_AUD", "trial_index": 206}, "uniqueid": "MTK3235:3WS1NTTKEZJVD802CGIPZ279GP3F0X", "dateTime": 1520280064938}, {"current_trial": 207, "trialdata": {"rt": -1000, "trial_type": "single-audio", "word": "sandwich", "stimulus": "/static/audio/wordpool/SANDWICH.wav", "conditions": [12, 1600, "a", 24000], "internal_node_id": "0.0-153.0", "trial": 5, "time_elapsed": 908498, "serialpos": 10, "key_press": -1, "wordID": 1231, "type": "PRES_AUD", "trial_index": 207}, "uniqueid": "MTK3235:3WS1NTTKEZJVD802CGIPZ279GP3F0X", "dateTime": 1520280067423}, {"current_trial": 208, "trialdata": {"rt": -1000, "trial_type": "single-audio", "word": "flesh", "stimulus": "/static/audio/wordpool/FLESH.wav", "conditions": [12, 1600, "a", 24000], "internal_node_id": "0.0-154.0", "trial": 5, "time_elapsed": 911081, "serialpos": 11, "key_press": -1, "wordID": 578, "type": "PRES_AUD", "trial_index": 208}, "uniqueid": "MTK3235:3WS1NTTKEZJVD802CGIPZ279GP3F0X", "dateTime": 1520280070006}, {"current_trial": 209, "trialdata": {"rt": -1, "trial_type": "single-stim", "stimulus": "", "internal_node_id": "0.0-155.0-0.0", "time_elapsed": 912452, "key_press": -1, "type": "PRE_RECALL_DELAY", "trial_index": 209}, "uniqueid": "MTK3235:3WS1NTTKEZJVD802CGIPZ279GP3F0X", "dateTime": 1520280071376}, {"current_trial": 210, "trialdata": {"rt": -1000, "trial_type": "single-audio", "stimulus": "/static/audio/400Hz.wav", "internal_node_id": "0.0-156.0", "time_elapsed": 912952, "key_press": -1, "type": "PRE_RECALL_ALERT", "trial_index": 210}, "uniqueid": "MTK3235:3WS1NTTKEZJVD802CGIPZ279GP3F0X", "dateTime": 1520280071877}, {"current_trial": 211, "trialdata": {"rt": [2696, 4672, 6505, 7672, 9000, 11624, 12520], "recwords": ["flesh", "cowboy", "sandwich", "leg", "staple", "server", "crab"], "key_times": [2154, 2273, 2338, 2425, 2529, 2696, 3617, 3705, 3817, 3961, 4096, 4289, 4672, 5449, 5552, 5673, 5745, 5905, 5953, 6265, 6361, 6505, 7329, 7426, 7505, 7672, 7929, 8089, 8177, 8385, 8761, 8873, 9000, 10737, 10761, 10897, 11113, 11377, 11441, 11624, 11817, 12001, 12089, 12282, 12520], "trial_type": "free-recall", "conditions": [12, 1600, "a", 24000], "internal_node_id": "0.0-157.0-0.0", "key_presses": [70, 76, 69, 83, 72, 13, 67, 79, 87, 66, 79, 89, 13, 83, 65, 78, 68, 87, 73, 67, 72, 13, 76, 69, 71, 13, 83, 84, 65, 80, 76, 69, 13, 83, 69, 82, 86, 69, 82, 13, 67, 82, 65, 66, 13], "trial": 5, "time_elapsed": 972956, "type": "FREE_RECALL", "trial_index": 211}, "uniqueid": "MTK3235:3WS1NTTKEZJVD802CGIPZ279GP3F0X", "dateTime": 1520280131884}, {"current_trial": 212, "trialdata": {"rt": 2155, "trial_type": "text", "internal_node_id": "0.0-158.0", "time_elapsed": 977115, "key_press": 13, "type": "INSTRUCTIONS", "trial_index": 212}, "uniqueid": "MTK3235:3WS1NTTKEZJVD802CGIPZ279GP3F0X", "dateTime": 1520280136039}, {"current_trial": 213, "trialdata": {"rt": [4030, 8389, 10877, 13109, 15117, 16716, 19061, 21388, 23885], "trial_type": "math-distractor", "key_times": [2350, 2454, 2574, 3670, 4030, 8150, 8254, 8389, 10501, 10646, 10877, 12790, 12917, 13109, 14797, 14901, 15117, 16373, 16484, 16716, 18702, 18853, 19061, 20972, 21125, 21388, 23582, 23685, 23885], "responses": ["20", "20", "19", "13", "18", "19", "18", "17", "13"], "num2": [9, 5, 6, 3, 1, 5, 4, 4, 1, 3], "num3": [9, 8, 7, 9, 9, 5, 8, 4, 5, 1], "conditions": [24, 800, "a", 24000], "internal_node_id": "0.0-159.0", "key_presses": [98, 96, 107, 8, 13, 98, 96, 13, 97, 105, 13, 97, 99, 13, 97, 104, 13, 97, 105, 13, 97, 104, 13, 97, 103, 13, 97, 99, 13], "trial": 6, "time_elapsed": 1003119, "type": "DISTRACTOR", "trial_index": 213, "num1": [2, 9, 6, 1, 8, 9, 6, 9, 7, 4]}, "uniqueid": "MTK3235:3WS1NTTKEZJVD802CGIPZ279GP3F0X", "dateTime": 1520280162043}, {"current_trial": 214, "trialdata": {"rt": -1, "trial_type": "single-stim", "stimulus": "<p id=\"stim\">10</p>", "internal_node_id": "0.0-160.0-0.0", "time_elapsed": 1006122, "key_press": -1, "trial_index": 214}, "uniqueid": "MTK3235:3WS1NTTKEZJVD802CGIPZ279GP3F0X", "dateTime": 1520280165046}, {"current_trial": 215, "trialdata": {"rt": -1, "trial_type": "single-stim", "stimulus": "<p id=\"stim\">9</p>", "internal_node_id": "0.0-160.0-1.0", "time_elapsed": 1007125, "key_press": -1, "trial_index": 215}, "uniqueid": "MTK3235:3WS1NTTKEZJVD802CGIPZ279GP3F0X", "dateTime": 1520280166049}, {"current_trial": 216, "trialdata": {"rt": -1, "trial_type": "single-stim", "stimulus": "<p id=\"stim\">8</p>", "internal_node_id": "0.0-160.0-2.0", "time_elapsed": 1008127, "key_press": -1, "trial_index": 216}, "uniqueid": "MTK3235:3WS1NTTKEZJVD802CGIPZ279GP3F0X", "dateTime": 1520280167051}, {"current_trial": 217, "trialdata": {"rt": -1, "trial_type": "single-stim", "stimulus": "<p id=\"stim\">7</p>", "internal_node_id": "0.0-160.0-3.0", "time_elapsed": 1009128, "key_press": -1, "trial_index": 217}, "uniqueid": "MTK3235:3WS1NTTKEZJVD802CGIPZ279GP3F0X", "dateTime": 1520280168052}, {"current_trial": 218, "trialdata": {"rt": -1, "trial_type": "single-stim", "stimulus": "<p id=\"stim\">6</p>", "internal_node_id": "0.0-160.0-4.0", "time_elapsed": 1010129, "key_press": -1, "trial_index": 218}, "uniqueid": "MTK3235:3WS1NTTKEZJVD802CGIPZ279GP3F0X", "dateTime": 1520280169054}, {"current_trial": 219, "trialdata": {"rt": -1, "trial_type": "single-stim", "stimulus": "<p id=\"stim\">5</p>", "internal_node_id": "0.0-160.0-5.0", "time_elapsed": 1011131, "key_press": -1, "trial_index": 219}, "uniqueid": "MTK3235:3WS1NTTKEZJVD802CGIPZ279GP3F0X", "dateTime": 1520280170055}, {"current_trial": 220, "trialdata": {"rt": -1, "trial_type": "single-stim", "stimulus": "<p id=\"stim\">4</p>", "internal_node_id": "0.0-160.0-6.0", "time_elapsed": 1012131, "key_press": -1, "trial_index": 220}, "uniqueid": "MTK3235:3WS1NTTKEZJVD802CGIPZ279GP3F0X", "dateTime": 1520280171055}, {"current_trial": 221, "trialdata": {"rt": -1, "trial_type": "single-stim", "stimulus": "<p id=\"stim\">3</p>", "internal_node_id": "0.0-160.0-7.0", "time_elapsed": 1013133, "key_press": -1, "trial_index": 221}, "uniqueid": "MTK3235:3WS1NTTKEZJVD802CGIPZ279GP3F0X", "dateTime": 1520280172057}, {"current_trial": 222, "trialdata": {"rt": -1, "trial_type": "single-stim", "stimulus": "<p id=\"stim\">2</p>", "internal_node_id": "0.0-160.0-8.0", "time_elapsed": 1014135, "key_press": -1, "trial_index": 222}, "uniqueid": "MTK3235:3WS1NTTKEZJVD802CGIPZ279GP3F0X", "dateTime": 1520280173059}, {"current_trial": 223, "trialdata": {"rt": -1, "trial_type": "single-stim", "stimulus": "<p id=\"stim\">1</p>", "internal_node_id": "0.0-160.0-9.0", "time_elapsed": 1015136, "key_press": -1, "trial_index": 223}, "uniqueid": "MTK3235:3WS1NTTKEZJVD802CGIPZ279GP3F0X", "dateTime": 1520280174061}, {"current_trial": 224, "trialdata": {"rt": -1, "trial_type": "single-stim", "stimulus": "<p id=\"stim\">+</p>", "internal_node_id": "0.0-161.0-0.0", "time_elapsed": 1016638, "key_press": -1, "type": "FIXATION", "trial_index": 224}, "uniqueid": "MTK3235:3WS1NTTKEZJVD802CGIPZ279GP3F0X", "dateTime": 1520280175562}, {"current_trial": 225, "trialdata": {"rt": -1000, "trial_type": "single-audio", "word": "coffee", "stimulus": "/static/audio/wordpool/COFFEE.wav", "conditions": [24, 800, "a", 24000], "internal_node_id": "0.0-162.0", "trial": 6, "time_elapsed": 1018320, "serialpos": 0, "key_press": -1, "wordID": 340, "type": "PRES_AUD", "trial_index": 225}, "uniqueid": "MTK3235:3WS1NTTKEZJVD802CGIPZ279GP3F0X", "dateTime": 1520280177244}, {"current_trial": 226, "trialdata": {"rt": -1000, "trial_type": "single-audio", "word": "husband", "stimulus": "/static/audio/wordpool/HUSBAND.wav", "conditions": [24, 800, "a", 24000], "internal_node_id": "0.0-163.0", "trial": 6, "time_elapsed": 1020191, "serialpos": 1, "key_press": -1, "wordID": 727, "type": "PRES_AUD", "trial_index": 226}, "uniqueid": "MTK3235:3WS1NTTKEZJVD802CGIPZ279GP3F0X", "dateTime": 1520280179115}, {"current_trial": 227, "trialdata": {"rt": -1000, "trial_type": "single-audio", "word": "forehead", "stimulus": "/static/audio/wordpool/FOREHEAD.wav", "conditions": [24, 800, "a", 24000], "internal_node_id": "0.0-164.0", "trial": 6, "time_elapsed": 1022123, "serialpos": 2, "key_press": -1, "wordID": 591, "type": "PRES_AUD", "trial_index": 227}, "uniqueid": "MTK3235:3WS1NTTKEZJVD802CGIPZ279GP3F0X", "dateTime": 1520280181047}, {"current_trial": 228, "trialdata": {"rt": -1000, "trial_type": "single-audio", "word": "chest", "stimulus": "/static/audio/wordpool/CHEST.wav", "conditions": [24, 800, "a", 24000], "internal_node_id": "0.0-165.0", "trial": 6, "time_elapsed": 1023864, "serialpos": 3, "key_press": -1, "wordID": 294, "type": "PRES_AUD", "trial_index": 228}, "uniqueid": "MTK3235:3WS1NTTKEZJVD802CGIPZ279GP3F0X", "dateTime": 1520280182788}, {"current_trial": 229, "trialdata": {"rt": -1000, "trial_type": "single-audio", "word": "freezer", "stimulus": "/static/audio/wordpool/FREEZER.wav", "conditions": [24, 800, "a", 24000], "internal_node_id": "0.0-166.0", "trial": 6, "time_elapsed": 1025498, "serialpos": 4, "key_press": -1, "wordID": 603, "type": "PRES_AUD", "trial_index": 229}, "uniqueid": "MTK3235:3WS1NTTKEZJVD802CGIPZ279GP3F0X", "dateTime": 1520280184422}, {"current_trial": 230, "trialdata": {"rt": -1000, "trial_type": "single-audio", "word": "uncle", "stimulus": "/static/audio/wordpool/UNCLE.wav", "conditions": [24, 800, "a", 24000], "internal_node_id": "0.0-167.0", "trial": 6, "time_elapsed": 1027409, "serialpos": 5, "key_press": -1, "wordID": 1535, "type": "PRES_AUD", "trial_index": 230}, "uniqueid": "MTK3235:3WS1NTTKEZJVD802CGIPZ279GP3F0X", "dateTime": 1520280186333}, {"current_trial": 231, "trialdata": {"rt": -1000, "trial_type": "single-audio", "word": "actor", "stimulus": "/static/audio/wordpool/ACTOR.wav", "conditions": [24, 800, "a", 24000], "internal_node_id": "0.0-168.0", "trial": 6, "time_elapsed": 1029018, "serialpos": 6, "key_press": -1, "wordID": 4, "type": "PRES_AUD", "trial_index": 231}, "uniqueid": "MTK3235:3WS1NTTKEZJVD802CGIPZ279GP3F0X", "dateTime": 1520280187942}, {"current_trial": 232, "trialdata": {"rt": -1000, "trial_type": "single-audio", "word": "penguin", "stimulus": "/static/audio/wordpool/PENGUIN.wav", "conditions": [24, 800, "a", 24000], "internal_node_id": "0.0-169.0", "trial": 6, "time_elapsed": 1030732, "serialpos": 7, "key_press": -1, "wordID": 1043, "type": "PRES_AUD", "trial_index": 232}, "uniqueid": "MTK3235:3WS1NTTKEZJVD802CGIPZ279GP3F0X", "dateTime": 1520280189656}, {"current_trial": 233, "trialdata": {"rt": -1000, "trial_type": "single-audio", "word": "shirt", "stimulus": "/static/audio/wordpool/SHIRT.wav", "conditions": [24, 800, "a", 24000], "internal_node_id": "0.0-170.0", "trial": 6, "time_elapsed": 1032445, "serialpos": 8, "key_press": -1, "wordID": 1286, "type": "PRES_AUD", "trial_index": 233}, "uniqueid": "MTK3235:3WS1NTTKEZJVD802CGIPZ279GP3F0X", "dateTime": 1520280191370}, {"current_trial": 234, "trialdata": {"rt": -1000, "trial_type": "single-audio", "word": "robber", "stimulus": "/static/audio/wordpool/ROBBER.wav", "conditions": [24, 800, "a", 24000], "internal_node_id": "0.0-171.0", "trial": 6, "time_elapsed": 1034197, "serialpos": 9, "key_press": -1, "wordID": 1196, "type": "PRES_AUD", "trial_index": 234}, "uniqueid": "MTK3235:3WS1NTTKEZJVD802CGIPZ279GP3F0X", "dateTime": 1520280193121}, {"current_trial": 235, "trialdata": {"rt": -1000, "trial_type": "single-audio", "word": "gangster", "stimulus": "/static/audio/wordpool/GANGSTER.wav", "conditions": [24, 800, "a", 24000], "internal_node_id": "0.0-172.0", "trial": 6, "time_elapsed": 1035826, "serialpos": 10, "key_press": -1, "wordID": 619, "type": "PRES_AUD", "trial_index": 235}, "uniqueid": "MTK3235:3WS1NTTKEZJVD802CGIPZ279GP3F0X", "dateTime": 1520280194750}, {"current_trial": 236, "trialdata": {"rt": -1000, "trial_type": "single-audio", "word": "ankle", "stimulus": "/static/audio/wordpool/ANKLE.wav", "conditions": [24, 800, "a", 24000], "internal_node_id": "0.0-173.0", "trial": 6, "time_elapsed": 1037725, "serialpos": 11, "key_press": -1, "wordID": 23, "type": "PRES_AUD", "trial_index": 236}, "uniqueid": "MTK3235:3WS1NTTKEZJVD802CGIPZ279GP3F0X", "dateTime": 1520280196649}, {"current_trial": 237, "trialdata": {"rt": -1000, "trial_type": "single-audio", "word": "film", "stimulus": "/static/audio/wordpool/FILM.wav", "conditions": [24, 800, "a", 24000], "internal_node_id": "0.0-174.0", "trial": 6, "time_elapsed": 1039723, "serialpos": 12, "key_press": -1, "wordID": 564, "type": "PRES_AUD", "trial_index": 237}, "uniqueid": "MTK3235:3WS1NTTKEZJVD802CGIPZ279GP3F0X", "dateTime": 1520280198647}, {"current_trial": 238, "trialdata": {"rt": -1000, "trial_type": "single-audio", "word": "beaker", "stimulus": "/static/audio/wordpool/BEAKER.wav", "conditions": [24, 800, "a", 24000], "internal_node_id": "0.0-175.0", "trial": 6, "time_elapsed": 1041643, "serialpos": 13, "key_press": -1, "wordID": 103, "type": "PRES_AUD", "trial_index": 238}, "uniqueid": "MTK3235:3WS1NTTKEZJVD802CGIPZ279GP3F0X", "dateTime": 1520280200567}, {"current_trial": 239, "trialdata": {"rt": -1000, "trial_type": "single-audio", "word": "passage", "stimulus": "/static/audio/wordpool/PASSAGE.wav", "conditions": [24, 800, "a", 24000], "internal_node_id": "0.0-176.0", "trial": 6, "time_elapsed": 1043560, "serialpos": 14, "key_press": -1, "wordID": 1018, "type": "PRES_AUD", "trial_index": 239}, "uniqueid": "MTK3235:3WS1NTTKEZJVD802CGIPZ279GP3F0X", "dateTime": 1520280202484}, {"current_trial": 240, "trialdata": {"rt": -1000, "trial_type": "single-audio", "word": "snake", "stimulus": "/static/audio/wordpool/SNAKE.wav", "conditions": [24, 800, "a", 24000], "internal_node_id": "0.0-177.0", "trial": 6, "time_elapsed": 1045167, "serialpos": 15, "key_press": -1, "wordID": 1332, "type": "PRES_AUD", "trial_index": 240}, "uniqueid": "MTK3235:3WS1NTTKEZJVD802CGIPZ279GP3F0X", "dateTime": 1520280204091}, {"current_trial": 241, "trialdata": {"rt": -1000, "trial_type": "single-audio", "word": "france", "stimulus": "/static/audio/wordpool/FRANCE.wav", "conditions": [24, 800, "a", 24000], "internal_node_id": "0.0-178.0", "trial": 6, "time_elapsed": 1047022, "serialpos": 16, "key_press": -1, "wordID": 600, "type": "PRES_AUD", "trial_index": 241}, "uniqueid": "MTK3235:3WS1NTTKEZJVD802CGIPZ279GP3F0X", "dateTime": 1520280205946}, {"current_trial": 242, "trialdata": {"rt": -1000, "trial_type": "single-audio", "word": "chemist", "stimulus": "/static/audio/wordpool/CHEMIST.wav", "conditions": [24, 800, "a", 24000], "internal_node_id": "0.0-179.0", "trial": 6, "time_elapsed": 1048921, "serialpos": 17, "key_press": -1, "wordID": 291, "type": "PRES_AUD", "trial_index": 242}, "uniqueid": "MTK3235:3WS1NTTKEZJVD802CGIPZ279GP3F0X", "dateTime": 1520280207845}, {"current_trial": 243, "trialdata": {"rt": -1000, "trial_type": "single-audio", "word": "diver", "stimulus": "/static/audio/wordpool/DIVER.wav", "conditions": [24, 800, "a", 24000], "internal_node_id": "0.0-180.0", "trial": 6, "time_elapsed": 1050869, "serialpos": 18, "key_press": -1, "wordID": 475, "type": "PRES_AUD", "trial_index": 243}, "uniqueid": "MTK3235:3WS1NTTKEZJVD802CGIPZ279GP3F0X", "dateTime": 1520280209794}, {"current_trial": 244, "trialdata": {"rt": -1000, "trial_type": "single-audio", "word": "crutch", "stimulus": "/static/audio/wordpool/CRUTCH.wav", "conditions": [24, 800, "a", 24000], "internal_node_id": "0.0-181.0", "trial": 6, "time_elapsed": 1052563, "serialpos": 19, "key_press": -1, "wordID": 416, "type": "PRES_AUD", "trial_index": 244}, "uniqueid": "MTK3235:3WS1NTTKEZJVD802CGIPZ279GP3F0X", "dateTime": 1520280211487}, {"current_trial": 245, "trialdata": {"rt": -1000, "trial_type": "single-audio", "word": "wardrobe", "stimulus": "/static/audio/wordpool/WARDROBE.wav", "conditions": [24, 800, "a", 24000], "internal_node_id": "0.0-182.0", "trial": 6, "time_elapsed": 1054425, "serialpos": 20, "key_press": -1, "wordID": 1586, "type": "PRES_AUD", "trial_index": 245}, "uniqueid": "MTK3235:3WS1NTTKEZJVD802CGIPZ279GP3F0X", "dateTime": 1520280213349}, {"current_trial": 246, "trialdata": {"rt": -1000, "trial_type": "single-audio", "word": "blouse", "stimulus": "/static/audio/wordpool/BLOUSE.wav", "conditions": [24, 800, "a", 24000], "internal_node_id": "0.0-183.0", "trial": 6, "time_elapsed": 1056307, "serialpos": 21, "key_press": -1, "wordID": 138, "type": "PRES_AUD", "trial_index": 246}, "uniqueid": "MTK3235:3WS1NTTKEZJVD802CGIPZ279GP3F0X", "dateTime": 1520280215231}, {"current_