{"assignmentId": "39DD6S19JQI09F6WLZBBNJPVMKBZE9", "workerId": "MTK3674", "questiondata": {"origin": "United States", "strat-rehearsal": "14", "marital": "Married/Domestic Partnership", "education": "Bachelor's degree", "ethnicity": "Not Hispanic", "color_depth": 24, "distracted": "No", "wrote-notes": "Yes", "strat-other": "tried to visualize each item next to the previous one to tell a story", "screen_width": 1366, "avail_screen_width": 1366, "avail_screen_height": 728, "strat-image": "89", "language": "English", "gender": "Female", "age": "44", "gender_other": "", "race": ["White"], "strat-categorize": "88", "pixel_depth": 24, "strat-spatial": "91", "strat-story": "89", "race_other": "", "screen_height": 768}, "bonus": 0, "hitId": "3N2YPY1GI65HDB3SU0H6DTGFDTCVEK", "counterbalance": 495, "useragent": "Mozilla/5.0 (Windows NT 10.0; Win64; x64) AppleWebKit/537.36 (KHTML, like Gecko) Chrome/64.0.3282.186 Safari/537.36", "eventdata": [{"eventtype": "initialized", "interval": 0, "value": null, "timestamp": 1520956227227}, {"eventtype": "window_resize", "interval": 0, "value": [1366, 721], "timestamp": 1520956227227}, {"eventtype": "focus", "interval": 375142, "value": "off", "timestamp": 1520956602369}, {"eventtype": "focus", "interval": 4207, "value": "on", "timestamp": 1520956606576}, {"eventtype": "focus", "interval": 3190762, "value": "off", "timestamp": 1520959797338}, {"eventtype": "focus", "interval": 7898, "value": "on", "timestamp": 1520959805236}], "data": [{"current_trial": 0, "trialdata": {"rt": 2144, "trial_type": "text", "internal_node_id": "0.0-0.0", "time_elapsed": 2150, "key_press": 67, "type": "INSTRUCTIONS", "trial_index": 0}, "uniqueid": "MTK3674:39DD6S19JQI09F6WLZBBNJPVMKBZE9", "dateTime": 1520956245144}, {"current_trial": 1, "trialdata": {"rt": 15632, "trial_type": "text", "internal_node_id": "0.0-1.0", "time_elapsed": 17786, "key_press": 78, "type": "INSTRUCTIONS", "trial_index": 1}, "uniqueid": "MTK3674:39DD6S19JQI09F6WLZBBNJPVMKBZE9", "dateTime": 1520956260779}, {"current_trial": 2, "trialdata": {"rt": [12179], "trial_type": "audio-test", "responses": ["ocean"], "internal_node_id": "0.0-2.0", "time_elapsed": 30022, "type": "AUDIO_TEST", "trial_index": 2}, "uniqueid": "MTK3674:39DD6S19JQI09F6WLZBBNJPVMKBZE9", "dateTime": 1520956273017}, {"current_trial": 3, "trialdata": {"rt": [7146], "trial_type": "audio-test", "responses": ["crystal"], "internal_node_id": "0.0-3.0", "time_elapsed": 37178, "type": "AUDIO_TEST", "trial_index": 3}, "uniqueid": "MTK3674:39DD6S19JQI09F6WLZBBNJPVMKBZE9", "dateTime": 1520956280171}, {"current_trial": 4, "trialdata": {"rt": [6019], "trial_type": "audio-test", "responses": ["spice"], "internal_node_id": "0.0-4.0", "time_elapsed": 43205, "type": "AUDIO_TEST", "trial_index": 4}, "uniqueid": "MTK3674:39DD6S19JQI09F6WLZBBNJPVMKBZE9", "dateTime": 1520956286198}, {"current_trial": 5, "trialdata": {"rt": 28877, "trial_type": "survey-text", "responses": "{\"Q0\":\"11:00pm\",\"Q1\":\"8:00am\",\"Q2\":\"5\"}", "internal_node_id": "0.0-5.0", "time_elapsed": 72837, "type": "SLEEP_SURVEY", "trial_index": 5}, "uniqueid": "MTK3674:39DD6S19JQI09F6WLZBBNJPVMKBZE9", "dateTime": 1520956315830}, {"current_trial": 6, "trialdata": {"rt": 555535, "trial_type": "text", "internal_node_id": "0.0-6.0", "time_elapsed": 629372, "key_press": 78, "type": "INSTRUCTIONS", "trial_index": 6}, "uniqueid": "MTK3674:39DD6S19JQI09F6WLZBBNJPVMKBZE9", "dateTime": 1520956872365}, {"current_trial": 7, "trialdata": {"rt": 12219, "trial_type": "text", "internal_node_id": "0.0-7.0", "time_elapsed": 642093, "key_press": 74, "type": "INSTRUCTIONS", "trial_index": 7}, "uniqueid": "MTK3674:39DD6S19JQI09F6WLZBBNJPVMKBZE9", "dateTime": 1520956885086}, {"current_trial": 8, "trialdata": {"rt": 12532, "trial_type": "text", "internal_node_id": "0.0-8.0", "time_elapsed": 655126, "key_press": 74, "type": "INSTRUCTIONS", "trial_index": 8}, "uniqueid": "MTK3674:39DD6S19JQI09F6WLZBBNJPVMKBZE9", "dateTime": 1520956898120}, {"current_trial": 9, "trialdata": {"rt": [3932, 7503, 9647, 16385], "trial_type": "math-distractor", "key_times": [1988, 2229, 3932, 7107, 7251, 7503, 9171, 9346, 9647, 13658, 13756, 16385, 17884, 17999], "responses": ["19", "21", "18", "22"], "num2": [5, 9, 2, 5, 3], "num3": [7, 8, 9, 9, 5], "conditions": [18, 1200, "a", 18000], "internal_node_id": "0.0-9.0", "key_presses": [97, 105, 13, 98, 97, 13, 97, 104, 13, 98, 98, 13, 97, 97], "trial": 0, "time_elapsed": 674171, "type": "DISTRACTOR", "trial_index": 9, "num1": [7, 4, 7, 8, 3]}, "uniqueid": "MTK3674:39DD6S19JQI09F6WLZBBNJPVMKBZE9", "dateTime": 1520956917164}, {"current_trial": 10, "trialdata": {"rt": -1, "trial_type": "single-stim", "stimulus": "<p id=\"stim\">10</p>", "internal_node_id": "0.0-10.0-0.0", "time_elapsed": 677175, "key_press": -1, "trial_index": 10}, "uniqueid": "MTK3674:39DD6S19JQI09F6WLZBBNJPVMKBZE9", "dateTime": 1520956920168}, {"current_trial": 11, "trialdata": {"rt": -1, "trial_type": "single-stim", "stimulus": "<p id=\"stim\">9</p>", "internal_node_id": "0.0-10.0-1.0", "time_elapsed": 678175, "key_press": -1, "trial_index": 11}, "uniqueid": "MTK3674:39DD6S19JQI09F6WLZBBNJPVMKBZE9", "dateTime": 1520956921168}, {"current_trial": 12, "trialdata": {"rt": -1, "trial_type": "single-stim", "stimulus": "<p id=\"stim\">8</p>", "internal_node_id": "0.0-10.0-2.0", "time_elapsed": 679179, "key_press": -1, "trial_index": 12}, "uniqueid": "MTK3674:39DD6S19JQI09F6WLZBBNJPVMKBZE9", "dateTime": 1520956922172}, {"current_trial": 13, "trialdata": {"rt": -1, "trial_type": "single-stim", "stimulus": "<p id=\"stim\">7</p>", "internal_node_id": "0.0-10.0-3.0", "time_elapsed": 680181, "key_press": -1, "trial_index": 13}, "uniqueid": "MTK3674:39DD6S19JQI09F6WLZBBNJPVMKBZE9", "dateTime": 1520956923174}, {"current_trial": 14, "trialdata": {"rt": -1, "trial_type": "single-stim", "stimulus": "<p id=\"stim\">6</p>", "internal_node_id": "0.0-10.0-4.0", "time_elapsed": 681183, "key_press": -1, "trial_index": 14}, "uniqueid": "MTK3674:39DD6S19JQI09F6WLZBBNJPVMKBZE9", "dateTime": 1520956924176}, {"current_trial": 15, "trialdata": {"rt": -1, "trial_type": "single-stim", "stimulus": "<p id=\"stim\">5</p>", "internal_node_id": "0.0-10.0-5.0", "time_elapsed": 682186, "key_press": -1, "trial_index": 15}, "uniqueid": "MTK3674:39DD6S19JQI09F6WLZBBNJPVMKBZE9", "dateTime": 1520956925179}, {"current_trial": 16, "trialdata": {"rt": -1, "trial_type": "single-stim", "stimulus": "<p id=\"stim\">4</p>", "internal_node_id": "0.0-10.0-6.0", "time_elapsed": 683188, "key_press": -1, "trial_index": 16}, "uniqueid": "MTK3674:39DD6S19JQI09F6WLZBBNJPVMKBZE9", "dateTime": 1520956926183}, {"current_trial": 17, "trialdata": {"rt": -1, "trial_type": "single-stim", "stimulus": "<p id=\"stim\">3</p>", "internal_node_id": "0.0-10.0-7.0", "time_elapsed": 684191, "key_press": -1, "trial_index": 17}, "uniqueid": "MTK3674:39DD6S19JQI09F6WLZBBNJPVMKBZE9", "dateTime": 1520956927184}, {"current_trial": 18, "trialdata": {"rt": -1, "trial_type": "single-stim", "stimulus": "<p id=\"stim\">2</p>", "internal_node_id": "0.0-10.0-8.0", "time_elapsed": 685193, "key_press": -1, "trial_index": 18}, "uniqueid": "MTK3674:39DD6S19JQI09F6WLZBBNJPVMKBZE9", "dateTime": 1520956928186}, {"current_trial": 19, "trialdata": {"rt": -1, "trial_type": "single-stim", "stimulus": "<p id=\"stim\">1</p>", "internal_node_id": "0.0-10.0-9.0", "time_elapsed": 686194, "key_press": -1, "trial_index": 19}, "uniqueid": "MTK3674:39DD6S19JQI09F6WLZBBNJPVMKBZE9", "dateTime": 1520956929187}, {"current_trial": 20, "trialdata": {"rt": -1, "trial_type": "single-stim", "stimulus": "<p id=\"stim\">+</p>", "internal_node_id": "0.0-11.0-0.0", "time_elapsed": 687696, "key_press": -1, "type": "FIXATION", "trial_index": 20}, "uniqueid": "MTK3674:39DD6S19JQI09F6WLZBBNJPVMKBZE9", "dateTime": 1520956930689}, {"current_trial": 21, "trialdata": {"rt": -1000, "trial_type": "single-audio", "word": "pudding", "stimulus": "/static/audio/wordpool/PUDDING.wav", "conditions": [18, 1200, "a", 18000], "internal_node_id": "0.0-12.0", "trial": 0, "time_elapsed": 689973, "serialpos": 0, "key_press": -1, "wordID": 1138, "type": "PRES_AUD", "trial_index": 21}, "uniqueid": "MTK3674:39DD6S19JQI09F6WLZBBNJPVMKBZE9", "dateTime": 1520956932966}, {"current_trial": 22, "trialdata": {"rt": -1000, "trial_type": "single-audio", "word": "salt", "stimulus": "/static/audio/wordpool/SALT.wav", "conditions": [18, 1200, "a", 18000], "internal_node_id": "0.0-13.0", "trial": 0, "time_elapsed": 692110, "serialpos": 1, "key_press": -1, "wordID": 1228, "type": "PRES_AUD", "trial_index": 22}, "uniqueid": "MTK3674:39DD6S19JQI09F6WLZBBNJPVMKBZE9", "dateTime": 1520956935103}, {"current_trial": 23, "trialdata": {"rt": -1000, "trial_type": "single-audio", "word": "motel", "stimulus": "/static/audio/wordpool/MOTEL.wav", "conditions": [18, 1200, "a", 18000], "internal_node_id": "0.0-14.0", "trial": 0, "time_elapsed": 694329, "serialpos": 2, "key_press": -1, "wordID": 918, "type": "PRES_AUD", "trial_index": 23}, "uniqueid": "MTK3674:39DD6S19JQI09F6WLZBBNJPVMKBZE9", "dateTime": 1520956937322}, {"current_trial": 24, "trialdata": {"rt": -1000, "trial_type": "single-audio", "word": "ground", "stimulus": "/static/audio/wordpool/GROUND.wav", "conditions": [18, 1200, "a", 18000], "internal_node_id": "0.0-15.0", "trial": 0, "time_elapsed": 696680, "serialpos": 3, "key_press": -1, "wordID": 665, "type": "PRES_AUD", "trial_index": 24}, "uniqueid": "MTK3674:39DD6S19JQI09F6WLZBBNJPVMKBZE9", "dateTime": 1520956939673}, {"current_trial": 25, "trialdata": {"rt": -1000, "trial_type": "single-audio", "word": "island", "stimulus": "/static/audio/wordpool/ISLAND.wav", "conditions": [18, 1200, "a", 18000], "internal_node_id": "0.0-16.0", "trial": 0, "time_elapsed": 699090, "serialpos": 4, "key_press": -1, "wordID": 744, "type": "PRES_AUD", "trial_index": 25}, "uniqueid": "MTK3674:39DD6S19JQI09F6WLZBBNJPVMKBZE9", "dateTime": 1520956942083}, {"current_trial": 26, "trialdata": {"rt": -1000, "trial_type": "single-audio", "word": "scotch", "stimulus": "/static/audio/wordpool/SCOTCH.wav", "conditions": [18, 1200, "a", 18000], "internal_node_id": "0.0-17.0", "trial": 0, "time_elapsed": 701391, "serialpos": 5, "key_press": -1, "wordID": 1250, "type": "PRES_AUD", "trial_index": 26}, "uniqueid": "MTK3674:39DD6S19JQI09F6WLZBBNJPVMKBZE9", "dateTime": 1520956944384}, {"current_trial": 27, "trialdata": {"rt": -1000, "trial_type": "single-audio", "word": "empire", "stimulus": "/static/audio/wordpool/EMPIRE.wav", "conditions": [18, 1200, "a", 18000], "internal_node_id": "0.0-18.0", "trial": 0, "time_elapsed": 703715, "serialpos": 6, "key_press": -1, "wordID": 529, "type": "PRES_AUD", "trial_index": 27}, "uniqueid": "MTK3674:39DD6S19JQI09F6WLZBBNJPVMKBZE9", "dateTime": 1520956946708}, {"current_trial": 28, "trialdata": {"rt": -1000, "trial_type": "single-audio", "word": "curtain", "stimulus": "/static/audio/wordpool/CURTAIN.wav", "conditions": [18, 1200, "a", 18000], "internal_node_id": "0.0-19.0", "trial": 0, "time_elapsed": 705972, "serialpos": 7, "key_press": -1, "wordID": 426, "type": "PRES_AUD", "trial_index": 28}, "uniqueid": "MTK3674:39DD6S19JQI09F6WLZBBNJPVMKBZE9", "dateTime": 1520956948965}, {"current_trial": 29, "trialdata": {"rt": -1000, "trial_type": "single-audio", "word": "whistle", "stimulus": "/static/audio/wordpool/WHISTLE.wav", "conditions": [18, 1200, "a", 18000], "internal_node_id": "0.0-20.0", "trial": 0, "time_elapsed": 708172, "serialpos": 8, "key_press": -1, "wordID": 1605, "type": "PRES_AUD", "trial_index": 29}, "uniqueid": "MTK3674:39DD6S19JQI09F6WLZBBNJPVMKBZE9", "dateTime": 1520956951167}, {"current_trial": 30, "trialdata": {"rt": -1000, "trial_type": "single-audio", "word": "eagle", "stimulus": "/static/audio/wordpool/EAGLE.wav", "conditions": [18, 1200, "a", 18000], "internal_node_id": "0.0-21.0", "trial": 0, "time_elapsed": 710295, "serialpos": 9, "key_press": -1, "wordID": 511, "type": "PRES_AUD", "trial_index": 30}, "uniqueid": "MTK3674:39DD6S19JQI09F6WLZBBNJPVMKBZE9", "dateTime": 1520956953288}, {"current_trial": 31, "trialdata": {"rt": -1000, "trial_type": "single-audio", "word": "napkin", "stimulus": "/static/audio/wordpool/NAPKIN.wav", "conditions": [18, 1200, "a", 18000], "internal_node_id": "0.0-22.0", "trial": 0, "time_elapsed": 712407, "serialpos": 10, "key_press": -1, "wordID": 936, "type": "PRES_AUD", "trial_index": 31}, "uniqueid": "MTK3674:39DD6S19JQI09F6WLZBBNJPVMKBZE9", "dateTime": 1520956955401}, {"current_trial": 32, "trialdata": {"rt": -1000, "trial_type": "single-audio", "word": "label", "stimulus": "/static/audio/wordpool/LABEL.wav", "conditions": [18, 1200, "a", 18000], "internal_node_id": "0.0-23.0", "trial": 0, "time_elapsed": 714569, "serialpos": 11, "key_press": -1, "wordID": 789, "type": "PRES_AUD", "trial_index": 32}, "uniqueid": "MTK3674:39DD6S19JQI09F6WLZBBNJPVMKBZE9", "dateTime": 1520956957562}, {"current_trial": 33, "trialdata": {"rt": -1000, "trial_type": "single-audio", "word": "server", "stimulus": "/static/audio/wordpool/SERVER.wav", "conditions": [18, 1200, "a", 18000], "internal_node_id": "0.0-24.0", "trial": 0, "time_elapsed": 716696, "serialpos": 12, "key_press": -1, "wordID": 1271, "type": "PRES_AUD", "trial_index": 33}, "uniqueid": "MTK3674:39DD6S19JQI09F6WLZBBNJPVMKBZE9", "dateTime": 1520956959689}, {"current_trial": 34, "trialdata": {"rt": -1000, "trial_type": "single-audio", "word": "hood", "stimulus": "/static/audio/wordpool/HOOD.wav", "conditions": [18, 1200, "a", 18000], "internal_node_id": "0.0-25.0", "trial": 0, "time_elapsed": 718924, "serialpos": 13, "key_press": -1, "wordID": 713, "type": "PRES_AUD", "trial_index": 34}, "uniqueid": "MTK3674:39DD6S19JQI09F6WLZBBNJPVMKBZE9", "dateTime": 1520956961917}, {"current_trial": 35, "trialdata": {"rt": -1000, "trial_type": "single-audio", "word": "raft", "stimulus": "/static/audio/wordpool/RAFT.wav", "conditions": [18, 1200, "a", 18000], "internal_node_id": "0.0-26.0", "trial": 0, "time_elapsed": 721156, "serialpos": 14, "key_press": -1, "wordID": 1158, "type": "PRES_AUD", "trial_index": 35}, "uniqueid": "MTK3674:39DD6S19JQI09F6WLZBBNJPVMKBZE9", "dateTime": 1520956964149}, {"current_trial": 36, "trialdata": {"rt": -1000, "trial_type": "single-audio", "word": "mustard", "stimulus": "/static/audio/wordpool/MUSTARD.wav", "conditions": [18, 1200, "a", 18000], "internal_node_id": "0.0-27.0", "trial": 0, "time_elapsed": 723465, "serialpos": 15, "key_press": -1, "wordID": 934, "type": "PRES_AUD", "trial_index": 36}, "uniqueid": "MTK3674:39DD6S19JQI09F6WLZBBNJPVMKBZE9", "dateTime": 1520956966458}, {"current_trial": 37, "trialdata": {"rt": -1000, "trial_type": "single-audio", "word": "tribe", "stimulus": "/static/audio/wordpool/TRIBE.wav", "conditions": [18, 1200, "a", 18000], "internal_node_id": "0.0-28.0", "trial": 0, "time_elapsed": 725526, "serialpos": 16, "key_press": -1, "wordID": 1504, "type": "PRES_AUD", "trial_index": 37}, "uniqueid": "MTK3674:39DD6S19JQI09F6WLZBBNJPVMKBZE9", "dateTime": 1520956968519}, {"current_trial": 38, "trialdata": {"rt": -1000, "trial_type": "single-audio", "word": "jury", "stimulus": "/static/audio/wordpool/JURY.wav", "conditions": [18, 1200, "a", 18000], "internal_node_id": "0.0-29.0", "trial": 0, "time_elapsed": 727649, "serialpos": 17, "key_press": -1, "wordID": 765, "type": "PRES_AUD", "trial_index": 38}, "uniqueid": "MTK3674:39DD6S19JQI09F6WLZBBNJPVMKBZE9", "dateTime": 1520956970642}, {"current_trial": 39, "trialdata": {"rt": -1, "trial_type": "single-stim", "stimulus": "", "internal_node_id": "0.0-30.0-0.0", "time_elapsed": 728894, "key_press": -1, "type": "PRE_RECALL_DELAY", "trial_index": 39}, "uniqueid": "MTK3674:39DD6S19JQI09F6WLZBBNJPVMKBZE9", "dateTime": 1520956971888}, {"current_trial": 40, "trialdata": {"rt": -1000, "trial_type": "single-audio", "stimulus": "/static/audio/400Hz.wav", "internal_node_id": "0.0-31.0", "time_elapsed": 729400, "key_press": -1, "type": "PRE_RECALL_ALERT", "trial_index": 40}, "uniqueid": "MTK3674:39DD6S19JQI09F6WLZBBNJPVMKBZE9", "dateTime": 1520956972393}, {"current_trial": 41, "trialdata": {"rt": [3077, 6349, 8732, 11400, 15212, 17772, 19985, 22029, 30701, 33738, 38808, 51225], "recwords": ["tribe", "jury", "island", "salt", "mustard", "pudding", "motel", "napkin", "empire", "raft", "island", "pudding"], "key_times": [1466, 1617, 2152, 2623, 2757, 3077, 4379, 4591, 5200, 5600, 6349, 6815, 7060, 7414, 7669, 7947, 8156, 8732, 9019, 9230, 9441, 10010, 10816, 11033, 11400, 12140, 12474, 12883, 13147, 13247, 14412, 14591, 15212, 15564, 15924, 16379, 16483, 16873, 17101, 17390, 17772, 18199, 18407, 18746, 18914, 19325, 19985, 20467, 20648, 20964, 21314, 21481, 21679, 22029, 28511, 29039, 29287, 29515, 29964, 30112, 30701, 32745, 32838, 32944, 33116, 33738, 36130, 36507, 37082, 37423, 37910, 38203, 38808, 48693, 49018, 49535, 49649, 50221, 50400, 50613, 51225], "trial_type": "free-recall", "conditions": [18, 1200, "a", 18000], "internal_node_id": "0.0-32.0-0.0", "key_presses": [84, 82, 73, 66, 69, 13, 74, 85, 82, 89, 13, 73, 83, 76, 65, 78, 68, 13, 83, 65, 76, 89, 8, 84, 13, 77, 85, 83, 84, 65, 82, 68, 13, 80, 85, 68, 68, 73, 78, 71, 13, 77, 79, 84, 69, 76, 13, 78, 65, 80, 75, 73, 78, 13, 69, 77, 80, 73, 82, 69, 13, 82, 65, 70, 84, 13, 73, 83, 76, 65, 78, 68, 13, 80, 85, 68, 68, 73, 78, 71, 13], "trial": 0, "time_elapsed": 789403, "type": "FREE_RECALL", "trial_index": 41}, "uniqueid": "MTK3674:39DD6S19JQI09F6WLZBBNJPVMKBZE9", "dateTime": 1520957032402}, {"current_trial": 42, "trialdata": {"rt": 2394, "trial_type": "text", "internal_node_id": "0.0-33.0", "time_elapsed": 793806, "key_press": 66, "type": "INSTRUCTIONS", "trial_index": 42}, "uniqueid": "MTK3674:39DD6S19JQI09F6WLZBBNJPVMKBZE9", "dateTime": 1520957036800}, {"current_trial": 43, "trialdata": {"rt": [2505, 4925, 7279, 9499, 11432, 14879, 16633], "trial_type": "math-distractor", "key_times": [2098, 2242, 2505, 4575, 4709, 4925, 6890, 7072, 7279, 9123, 9251, 9499, 11047, 11184, 11432, 13958, 14147, 14879, 16198, 16343, 16633], "responses": ["12", "21", "17", "12", "10", "17", "12"], "num2": [1, 5, 8, 5, 1, 5, 4, 7], "num3": [5, 8, 6, 4, 4, 4, 4, 5], "conditions": [18, 1200, "a", 18000], "internal_node_id": "0.0-34.0", "key_presses": [97, 98, 13, 98, 97, 13, 97, 103, 13, 97, 98, 13, 97, 96, 13, 97, 103, 13, 97, 98, 13], "trial": 1, "time_elapsed": 813814, "type": "DISTRACTOR", "trial_index": 43, "num1": [6, 8, 3, 3, 5, 8, 4, 1]}, "uniqueid": "MTK3674:39DD6S19JQI09F6WLZBBNJPVMKBZE9", "dateTime": 1520957056807}, {"current_trial": 44, "trialdata": {"rt": -1, "trial_type": "single-stim", "stimulus": "<p id=\"stim\">10</p>", "internal_node_id": "0.0-35.0-0.0", "time_elapsed": 816815, "key_press": -1, "trial_index": 44}, "uniqueid": "MTK3674:39DD6S19JQI09F6WLZBBNJPVMKBZE9", "dateTime": 1520957059808}, {"current_trial": 45, "trialdata": {"rt": -1, "trial_type": "single-stim", "stimulus": "<p id=\"stim\">9</p>", "internal_node_id": "0.0-35.0-1.0", "time_elapsed": 817818, "key_press": -1, "trial_index": 45}, "uniqueid": "MTK3674:39DD6S19JQI09F6WLZBBNJPVMKBZE9", "dateTime": 1520957060812}, {"current_trial": 46, "trialdata": {"rt": -1, "trial_type": "single-stim", "stimulus": "<p id=\"stim\">8</p>", "internal_node_id": "0.0-35.0-2.0", "time_elapsed": 818821, "key_press": -1, "trial_index": 46}, "uniqueid": "MTK3674:39DD6S19JQI09F6WLZBBNJPVMKBZE9", "dateTime": 1520957061814}, {"current_trial": 47, "trialdata": {"rt": -1, "trial_type": "single-stim", "stimulus": "<p id=\"stim\">7</p>", "internal_node_id": "0.0-35.0-3.0", "time_elapsed": 819824, "key_press": -1, "trial_index": 47}, "uniqueid": "MTK3674:39DD6S19JQI09F6WLZBBNJPVMKBZE9", "dateTime": 1520957062817}, {"current_trial": 48, "trialdata": {"rt": -1, "trial_type": "single-stim", "stimulus": "<p id=\"stim\">6</p>", "internal_node_id": "0.0-35.0-4.0", "time_elapsed": 820825, "key_press": -1, "trial_index": 48}, "uniqueid": "MTK3674:39DD6S19JQI09F6WLZBBNJPVMKBZE9", "dateTime": 1520957063818}, {"current_trial": 49, "trialdata": {"rt": -1, "trial_type": "single-stim", "stimulus": "<p id=\"stim\">5</p>", "internal_node_id": "0.0-35.0-5.0", "time_elapsed": 821825, "key_press": -1, "trial_index": 49}, "uniqueid": "MTK3674:39DD6S19JQI09F6WLZBBNJPVMKBZE9", "dateTime": 1520957064818}, {"current_trial": 50, "trialdata": {"rt": -1, "trial_type": "single-stim", "stimulus": "<p id=\"stim\">4</p>", "internal_node_id": "0.0-35.0-6.0", "time_elapsed": 822826, "key_press": -1, "trial_index": 50}, "uniqueid": "MTK3674:39DD6S19JQI09F6WLZBBNJPVMKBZE9", "dateTime": 1520957065819}, {"current_trial": 51, "trialdata": {"rt": -1, "trial_type": "single-stim", "stimulus": "<p id=\"stim\">3</p>", "internal_node_id": "0.0-35.0-7.0", "time_elapsed": 823827, "key_press": -1, "trial_index": 51}, "uniqueid": "MTK3674:39DD6S19JQI09F6WLZBBNJPVMKBZE9", "dateTime": 1520957066820}, {"current_trial": 52, "trialdata": {"rt": -1, "trial_type": "single-stim", "stimulus": "<p id=\"stim\">2</p>", "internal_node_id": "0.0-35.0-8.0", "time_elapsed": 824828, "key_press": -1, "trial_index": 52}, "uniqueid": "MTK3674:39DD6S19JQI09F6WLZBBNJPVMKBZE9", "dateTime": 1520957067822}, {"current_trial": 53, "trialdata": {"rt": -1, "trial_type": "single-stim", "stimulus": "<p id=\"stim\">1</p>", "internal_node_id": "0.0-35.0-9.0", "time_elapsed": 825831, "key_press": -1, "trial_index": 53}, "uniqueid": "MTK3674:39DD6S19JQI09F6WLZBBNJPVMKBZE9", "dateTime": 1520957068825}, {"current_trial": 54, "trialdata": {"rt": -1, "trial_type": "single-stim", "stimulus": "<p id=\"stim\">+</p>", "internal_node_id": "0.0-36.0-0.0", "time_elapsed": 827334, "key_press": -1, "type": "FIXATION", "trial_index": 54}, "uniqueid": "MTK3674:39DD6S19JQI09F6WLZBBNJPVMKBZE9", "dateTime": 1520957070327}, {"current_trial": 55, "trialdata": {"rt": -1000, "trial_type": "single-audio", "word": "outfit", "stimulus": "/static/audio/wordpool/OUTFIT.wav", "conditions": [18, 1200, "a", 18000], "internal_node_id": "0.0-37.0", "trial": 1, "time_elapsed": 829370, "serialpos": 0, "key_press": -1, "wordID": 987, "type": "PRES_AUD", "trial_index": 55}, "uniqueid": "MTK3674:39DD6S19JQI09F6WLZBBNJPVMKBZE9", "dateTime": 1520957072364}, {"current_trial": 56, "trialdata": {"rt": -1000, "trial_type": "single-audio", "word": "piano", "stimulus": "/static/audio/wordpool/PIANO.wav", "conditions": [18, 1200, "a", 18000], "internal_node_id": "0.0-38.0", "trial": 1, "time_elapsed": 831509, "serialpos": 1, "key_press": -1, "wordID": 1056, "type": "PRES_AUD", "trial_index": 56}, "uniqueid": "MTK3674:39DD6S19JQI09F6WLZBBNJPVMKBZE9", "dateTime": 1520957074502}, {"current_trial": 57, "trialdata": {"rt": -1000, "trial_type": "single-audio", "word": "shorts", "stimulus": "/static/audio/wordpool/SHORTS.wav", "conditions": [18, 1200, "a", 18000], "internal_node_id": "0.0-39.0", "trial": 1, "time_elapsed": 833570, "serialpos": 2, "key_press": -1, "wordID": 1292, "type": "PRES_AUD", "trial_index": 57}, "uniqueid": "MTK3674:39DD6S19JQI09F6WLZBBNJPVMKBZE9", "dateTime": 1520957076563}, {"current_trial": 58, "trialdata": {"rt": -1000, "trial_type": "single-audio", "word": "banquet", "stimulus": "/static/audio/wordpool/BANQUET.wav", "conditions": [18, 1200, "a", 18000], "internal_node_id": "0.0-40.0", "trial": 1, "time_elapsed": 835679, "serialpos": 3, "key_press": -1, "wordID": 85, "type": "PRES_AUD", "trial_index": 58}, "uniqueid": "MTK3674:39DD6S19JQI09F6WLZBBNJPVMKBZE9", "dateTime": 1520957078672}, {"current_trial": 59, "trialdata": {"rt": -1000, "trial_type": "single-audio", "word": "fruit", "stimulus": "/static/audio/wordpool/FRUIT.wav", "conditions": [18, 1200, "a", 18000], "internal_node_id": "0.0-41.0", "trial": 1, "time_elapsed": 838061, "serialpos": 4, "key_press": -1, "wordID": 609, "type": "PRES_AUD", "trial_index": 59}, "uniqueid": "MTK3674:39DD6S19JQI09F6WLZBBNJPVMKBZE9", "dateTime": 1520957081054}, {"current_trial": 60, "trialdata": {"rt": -1000, "trial_type": "single-audio", "word": "europe", "stimulus": "/static/audio/wordpool/EUROPE.wav", "conditions": [18, 1200, "a", 18000], "internal_node_id": "0.0-42.0", "trial": 1, "time_elapsed": 840125, "serialpos": 5, "key_press": -1, "wordID": 540, "type": "PRES_AUD", "trial_index": 60}, "uniqueid": "MTK3674:39DD6S19JQI09F6WLZBBNJPVMKBZE9", "dateTime": 1520957083119}, {"current_trial": 61, "trialdata": {"rt": -1000, "trial_type": "single-audio", "word": "brother", "stimulus": "/static/audio/wordpool/BROTHER.wav", "conditions": [18, 1200, "a", 18000], "internal_node_id": "0.0-43.0", "trial": 1, "time_elapsed": 842291, "serialpos": 6, "key_press": -1, "wordID": 178, "type": "PRES_AUD", "trial_index": 61}, "uniqueid": "MTK3674:39DD6S19JQI09F6WLZBBNJPVMKBZE9", "dateTime": 1520957085284}, {"current_trial": 62, "trialdata": {"rt": -1000, "trial_type": "single-audio", "word": "canal", "stimulus": "/static/audio/wordpool/CANAL.wav", "conditions": [18, 1200, "a", 18000], "internal_node_id": "0.0-44.0", "trial": 1, "time_elapsed": 844382, "serialpos": 7, "key_press": -1, "wordID": 225, "type": "PRES_AUD", "trial_index": 62}, "uniqueid": "MTK3674:39DD6S19JQI09F6WLZBBNJPVMKBZE9", "dateTime": 1520957087375}, {"current_trial": 63, "trialdata": {"rt": -1000, "trial_type": "single-audio", "word": "smog", "stimulus": "/static/audio/wordpool/SMOG.wav", "conditions": [18, 1200, "a", 18000], "internal_node_id": "0.0-45.0", "trial": 1, "time_elapsed": 846583, "serialpos": 8, "key_press": -1, "wordID": 1329, "type": "PRES_AUD", "trial_index": 63}, "uniqueid": "MTK3674:39DD6S19JQI09F6WLZBBNJPVMKBZE9", "dateTime": 1520957089576}, {"current_trial": 64, "trialdata": {"rt": -1000, "trial_type": "single-audio", "word": "table", "stimulus": "/static/audio/wordpool/TABLE.wav", "conditions": [18, 1200, "a", 18000], "internal_node_id": "0.0-46.0", "trial": 1, "time_elapsed": 848817, "serialpos": 9, "key_press": -1, "wordID": 1425, "type": "PRES_AUD", "trial_index": 64}, "uniqueid": "MTK3674:39DD6S19JQI09F6WLZBBNJPVMKBZE9", "dateTime": 1520957091810}, {"current_trial": 65, "trialdata": {"rt": -1000, "trial_type": "single-audio", "word": "buggy", "stimulus": "/static/audio/wordpool/BUGGY.wav", "conditions": [18, 1200, "a", 18000], "internal_node_id": "0.0-47.0", "trial": 1, "time_elapsed": 851170, "serialpos": 10, "key_press": -1, "wordID": 187, "type": "PRES_AUD", "trial_index": 65}, "uniqueid": "MTK3674:39DD6S19JQI09F6WLZBBNJPVMKBZE9", "dateTime": 1520957094163}, {"current_trial": 66, "trialdata": {"rt": -1000, "trial_type": "single-audio", "word": "climber", "stimulus": "/static/audio/wordpool/CLIMBER.wav", "conditions": [18, 1200, "a", 18000], "internal_node_id": "0.0-48.0", "trial": 1, "time_elapsed": 853448, "serialpos": 11, "key_press": -1, "wordID": 322, "type": "PRES_AUD", "trial_index": 66}, "uniqueid": "MTK3674:39DD6S19JQI09F6WLZBBNJPVMKBZE9", "dateTime": 1520957096441}, {"current_trial": 67, "trialdata": {"rt": -1000, "trial_type": "single-audio", "word": "onion", "stimulus": "/static/audio/wordpool/ONION.wav", "conditions": [18, 1200, "a", 18000], "internal_node_id": "0.0-49.0", "trial": 1, "time_elapsed": 855798, "serialpos": 12, "key_press": -1, "wordID": 976, "type": "PRES_AUD", "trial_index": 67}, "uniqueid": "MTK3674:39DD6S19JQI09F6WLZBBNJPVMKBZE9", "dateTime": 1520957098792}, {"current_trial": 68, "trialdata": {"rt": -1000, "trial_type": "single-audio", "word": "uncle", "stimulus": "/static/audio/wordpool/UNCLE.wav", "conditions": [18, 1200, "a", 18000], "internal_node_id": "0.0-50.0", "trial": 1, "time_elapsed": 858059, "serialpos": 13, "key_press": -1, "wordID": 1535, "type": "PRES_AUD", "trial_index": 68}, "uniqueid": "MTK3674:39DD6S19JQI09F6WLZBBNJPVMKBZE9", "dateTime": 1520957101055}, {"current_trial": 69, "trialdata": {"rt": -1000, "trial_type": "single-audio", "word": "coffee", "stimulus": "/static/audio/wordpool/COFFEE.wav", "conditions": [18, 1200, "a", 18000], "internal_node_id": "0.0-51.0", "trial": 1, "time_elapsed": 860123, "serialpos": 14, "key_press": -1, "wordID": 340, "type": "PRES_AUD", "trial_index": 69}, "uniqueid": "MTK3674:39DD6S19JQI09F6WLZBBNJPVMKBZE9", "dateTime": 1520957103116}, {"current_trial": 70, "trialdata": {"rt": -1000, "trial_type": "single-audio", "word": "supper", "stimulus": "/static/audio/wordpool/SUPPER.wav", "conditions": [18, 1200, "a", 18000], "internal_node_id": "0.0-52.0", "trial": 1, "time_elapsed": 862474, "serialpos": 15, "key_press": -1, "wordID": 1410, "type": "PRES_AUD", "trial_index": 70}, "uniqueid": "MTK3674:39DD6S19JQI09F6WLZBBNJPVMKBZE9", "dateTime": 1520957105467}, {"current_trial": 71, "trialdata": {"rt": -1000, "trial_type": "single-audio", "word": "turkey", "stimulus": "/static/audio/wordpool/TURKEY.wav", "conditions": [18, 1200, "a", 18000], "internal_node_id": "0.0-53.0", "trial": 1, "time_elapsed": 864839, "serialpos": 16, "key_press": -1, "wordID": 1519, "type": "PRES_AUD", "trial_index": 71}, "uniqueid": "MTK3674:39DD6S19JQI09F6WLZBBNJPVMKBZE9", "dateTime": 1520957107832}, {"current_trial": 72, "trialdata": {"rt": -1000, "trial_type": "single-audio", "word": "pimple", "stimulus": "/static/audio/wordpool/PIMPLE.wav", "conditions": [18, 1200, "a", 18000], "internal_node_id": "0.0-54.0", "trial": 1, "time_elapsed": 867043, "serialpos": 17, "key_press": -1, "wordID": 1070, "type": "PRES_AUD", "trial_index": 72}, "uniqueid": "MTK3674:39DD6S19JQI09F6WLZBBNJPVMKBZE9", "dateTime": 1520957110037}, {"current_trial": 73, "trialdata": {"rt": -1, "trial_type": "single-stim", "stimulus": "", "internal_node_id": "0.0-55.0-0.0", "time_elapsed": 868261, "key_press": -1, "type": "PRE_RECALL_DELAY", "trial_index": 73}, "uniqueid": "MTK3674:39DD6S19JQI09F6WLZBBNJPVMKBZE9", "dateTime": 1520957111254}, {"current_trial": 74, "trialdata": {"rt": -1000, "trial_type": "single-audio", "stimulus": "/static/audio/400Hz.wav", "internal_node_id": "0.0-56.0", "time_elapsed": 868767, "key_press": -1, "type": "PRE_RECALL_ALERT", "trial_index": 74}, "uniqueid": "MTK3674:39DD6S19JQI09F6WLZBBNJPVMKBZE9", "dateTime": 1520957111760}, {"current_trial": 75, "trialdata": {"rt": [2923, 5917, 8574, 11749, 13862, 17262, 32188], "recwords": ["pimple", "onion", "uncle", "turkey", "smog", "europe", "rubber"], "key_times": [1036, 1206, 1391, 1620, 1772, 2282, 2923, 3396, 3594, 4164, 4572, 4875, 5017, 5237, 5917, 6427, 6624, 7129, 7464, 7957, 8574, 9063, 9274, 9623, 10253, 10631, 11127, 11749, 12536, 12963, 13177, 13471, 13862, 14322, 14397, 14814, 15145, 15729, 15919, 16577, 17262, 30346, 30881, 31158, 31249, 31540, 31656, 32188], "trial_type": "free-recall", "conditions": [18, 1200, "a", 18000], "internal_node_id": "0.0-57.0-0.0", "key_presses": [80, 73, 77, 80, 76, 69, 13, 79, 77, 8, 78, 73, 79, 78, 13, 85, 78, 67, 76, 69, 13, 84, 85, 82, 75, 69, 89, 13, 83, 77, 79, 71, 13, 16, 69, 85, 82, 79, 80, 69, 13, 82, 85, 66, 66, 69, 82, 13], "trial": 1, "time_elapsed": 928772, "type": "FREE_RECALL", "trial_index": 75}, "uniqueid": "MTK3674:39DD6S19JQI09F6WLZBBNJPVMKBZE9", "dateTime": 1520957171767}, {"current_trial": 76, "trialdata": {"rt": 213030, "trial_type": "text", "internal_node_id": "0.0-58.0", "time_elapsed": 1143807, "key_press": 72, "type": "INSTRUCTIONS", "trial_index": 76}, "uniqueid": "MTK3674:39DD6S19JQI09F6WLZBBNJPVMKBZE9", "dateTime": 1520957386800}, {"current_trial": 77, "trialdata": {"rt": [4108, 6314, 9467, 13000, 16432, 19039, 22450], "trial_type": "math-distractor", "key_times": [3113, 3335, 4108, 5919, 6024, 6314, 8955, 9134, 9467, 11206, 11324, 13000, 15551, 15715, 16432, 18624, 18818, 19039, 21786, 21925, 22450], "responses": ["17", "22", "13", "11", "15", "17", "14"], "num2": [7, 8, 9, 2, 5, 5, 9, 9], "num3": [2, 8, 1, 4, 2, 3, 3, 1], "conditions": [12, 800, "a", 24000], "internal_node_id": "0.0-59.0", "key_presses": [97, 103, 13, 98, 98, 13, 97, 99, 13, 97, 97, 13, 97, 101, 13, 97, 103, 13, 97, 100, 13], "trial": 2, "time_elapsed": 1168814, "type": "DISTRACTOR", "trial_index": 77, "num1": [8, 6, 3, 5, 8, 9, 2, 9]}, "uniqueid": "MTK3674:39DD6S19JQI09F6WLZBBNJPVMKBZE9", "dateTime": 1520957411807}, {"current_trial": 78, "trialdata": {"rt": -1, "trial_type": "single-stim", "stimulus": "<p id=\"stim\">10</p>", "internal_node_id": "0.0-60.0-0.0", "time_elapsed": 1171815, "key_press": -1, "trial_index": 78}, "uniqueid": "MTK3674:39DD6S19JQI09F6WLZBBNJPVMKBZE9", "dateTime": 1520957414808}, {"current_trial": 79, "trialdata": {"rt": -1, "trial_type": "single-stim", "stimulus": "<p id=\"stim\">9</p>", "internal_node_id": "0.0-60.0-1.0", "time_elapsed": 1172816, "key_press": -1, "trial_index": 79}, "uniqueid": "MTK3674:39DD6S19JQI09F6WLZBBNJPVMKBZE9", "dateTime": 1520957415809}, {"current_trial": 80, "trialdata": {"rt": -1, "trial_type": "single-stim", "stimulus": "<p id=\"stim\">8</p>", "internal_node_id": "0.0-60.0-2.0", "time_elapsed": 1173819, "key_press": -1, "trial_index": 80}, "uniqueid": "MTK3674:39DD6S19JQI09F6WLZBBNJPVMKBZE9", "dateTime": 1520957416812}, {"current_trial": 81, "trialdata": {"rt": -1, "trial_type": "single-stim", "stimulus": "<p id=\"stim\">7</p>", "internal_node_id": "0.0-60.0-3.0", "time_elapsed": 1174822, "key_press": -1, "trial_index": 81}, "uniqueid": "MTK3674:39DD6S19JQI09F6WLZBBNJPVMKBZE9", "dateTime": 1520957417815}, {"current_trial": 82, "trialdata": {"rt": -1, "trial_type": "single-stim", "stimulus": "<p id=\"stim\">6</p>", "internal_node_id": "0.0-60.0-4.0", "time_elapsed": 1175825, "key_press": -1, "trial_index": 82}, "uniqueid": "MTK3674:39DD6S19JQI09F6WLZBBNJPVMKBZE9", "dateTime": 1520957418818}, {"current_trial": 83, "trialdata": {"rt": -1, "trial_type": "single-stim", "stimulus": "<p id=\"stim\">5</p>", "internal_node_id": "0.0-60.0-5.0", "time_elapsed": 1176827, "key_press": -1, "trial_index": 83}, "uniqueid": "MTK3674:39DD6S19JQI09F6WLZBBNJPVMKBZE9", "dateTime": 1520957419820}, {"current_trial": 84, "trialdata": {"rt": -1, "trial_type": "single-stim", "stimulus": "<p id=\"stim\">4</p>", "internal_node_id": "0.0-60.0-6.0", "time_elapsed": 1177828, "key_press": -1, "trial_index": 84}, "uniqueid": "MTK3674:39DD6S19JQI09F6WLZBBNJPVMKBZE9", "dateTime": 1520957420821}, {"current_trial": 85, "trialdata": {"rt": -1, "trial_type": "single-stim", "stimulus": "<p id=\"stim\">3</p>", "internal_node_id": "0.0-60.0-7.0", "time_elapsed": 1178829, "key_press": -1, "trial_index": 85}, "uniqueid": "MTK3674:39DD6S19JQI09F6WLZBBNJPVMKBZE9", "dateTime": 1520957421822}, {"current_trial": 86, "trialdata": {"rt": -1, "trial_type": "single-stim", "stimulus": "<p id=\"stim\">2</p>", "internal_node_id": "0.0-60.0-8.0", "time_elapsed": 1179830, "key_press": -1, "trial_index": 86}, "uniqueid": "MTK3674:39DD6S19JQI09F6WLZBBNJPVMKBZE9", "dateTime": 1520957422823}, {"current_trial": 87, "trialdata": {"rt": -1, "trial_type": "single-stim", "stimulus": "<p id=\"stim\">1</p>", "internal_node_id": "0.0-60.0-9.0", "time_elapsed": 1180830, "key_press": -1, "trial_index": 87}, "uniqueid": "MTK3674:39DD6S19JQI09F6WLZBBNJPVMKBZE9", "dateTime": 1520957423823}, {"current_trial": 88, "trialdata": {"rt": -1, "trial_type": "single-stim", "stimulus": "<p id=\"stim\">+</p>", "internal_node_id": "0.0-61.0-0.0", "time_elapsed": 1182332, "key_press": -1, "type": "FIXATION", "trial_index": 88}, "uniqueid": "MTK3674:39DD6S19JQI09F6WLZBBNJPVMKBZE9", "dateTime": 1520957425325}, {"current_trial": 89, "trialdata": {"rt": -1000, "trial_type": "single-audio", "word": "bouquet", "stimulus": "/static/audio/wordpool/BOUQUET.wav", "conditions": [12, 800, "a", 24000], "internal_node_id": "0.0-62.0", "trial": 2, "time_elapsed": 1184171, "serialpos": 0, "key_press": -1, "wordID": 156, "type": "PRES_AUD", "trial_index": 89}, "uniqueid": "MTK3674:39DD6S19JQI09F6WLZBBNJPVMKBZE9", "dateTime": 1520957427164}, {"current_trial": 90, "trialdata": {"rt": -1000, "trial_type": "single-audio", "word": "shortcake", "stimulus": "/static/audio/wordpool/SHORTCAKE.wav", "conditions": [12, 800, "a", 24000], "internal_node_id": "0.0-63.0", "trial": 2, "time_elapsed": 1185940, "serialpos": 1, "key_press": -1, "wordID": 1291, "type": "PRES_AUD", "trial_index": 90}, "uniqueid": "MTK3674:39DD6S19JQI09F6WLZBBNJPVMKBZE9", "dateTime": 1520957428933}, {"current_trial": 91, "trialdata": {"rt": -1000, "trial_type": "single-audio", "word": "mammal", "stimulus": "/static/audio/wordpool/MAMMAL.wav", "conditions": [12, 800, "a", 24000], "internal_node_id": "0.0-64.0", "trial": 2, "time_elapsed": 1187715, "serialpos": 2, "key_press": -1, "wordID": 860, "type": "PRES_AUD", "trial_index": 91}, "uniqueid": "MTK3674:39DD6S19JQI09F6WLZBBNJPVMKBZE9", "dateTime": 1520957430708}, {"current_trial": 92, "trialdata": {"rt": -1000, "trial_type": "single-audio", "word": "neutron", "stimulus": "/static/audio/wordpool/NEUTRON.wav", "conditions": [12, 800, "a", 24000], "internal_node_id": "0.0-65.0", "trial": 2, "time_elapsed": 1189340, "serialpos": 3, "key_press": -1, "wordID": 946, "type": "PRES_AUD", "trial_index": 92}, "uniqueid": "MTK3674:39DD6S19JQI09F6WLZBBNJPVMKBZE9", "dateTime": 1520957432333}, {"current_trial": 93, "trialdata": {"rt": -1000, "trial_type": "single-audio", "word": "pastry", "stimulus": "/static/audio/wordpool/PASTRY.wav", "conditions": [12, 800, "a", 24000], "internal_node_id": "0.0-66.0", "trial": 2, "time_elapsed": 1191203, "serialpos": 4, "key_press": -1, "wordID": 1021, "type": "PRES_AUD", "trial_index": 93}, "uniqueid": "MTK3674:39DD6S19JQI09F6WLZBBNJPVMKBZE9", "dateTime": 1520957434196}, {"current_trial": 94, "trialdata": {"rt": -1000, "trial_type": "single-audio", "word": "orchid", "stimulus": "/static/audio/wordpool/ORCHID.wav", "conditions": [12, 800, "a", 24000], "internal_node_id": "0.0-67.0", "trial": 2, "time_elapsed": 1193078, "serialpos": 5, "key_press": -1, "wordID": 981, "type": "PRES_AUD", "trial_index": 94}, "uniqueid": "MTK3674:39DD6S19JQI09F6WLZBBNJPVMKBZE9", "dateTime": 1520957436071}, {"current_trial": 95, "trialdata": {"rt": -1000, "trial_type": "single-audio", "word": "antler", "stimulus": "/static/audio/wordpool/ANTLER.wav", "conditions": [12, 800, "a", 24000], "internal_node_id": "0.0-68.0", "trial": 2, "time_elapsed": 1194852, "serialpos": 6, "key_press": -1, "wordID": 28, "type": "PRES_AUD", "trial_index": 95}, "uniqueid": "MTK3674:39DD6S19JQI09F6WLZBBNJPVMKBZE9", "dateTime": 1520957437845}, {"current_trial": 96, "trialdata": {"rt": -1000, "trial_type": "single-audio", "word": "slope", "stimulus": "/static/audio/wordpool/SLOPE.wav", "conditions": [12, 800, "a", 24000], "internal_node_id": "0.0-69.0", "trial": 2, "time_elapsed": 1196772, "serialpos": 7, "key_press": -1, "wordID": 1327, "type": "PRES_AUD", "trial_index": 96}, "uniqueid": "MTK3674:39DD6S19JQI09F6WLZBBNJPVMKBZE9", "dateTime": 1520957439765}, {"current_trial": 97, "trialdata": {"rt": -1000, "trial_type": "single-audio", "word": "pasta", "stimulus": "/static/audio/wordpool/PASTA.wav", "conditions": [12, 800, "a", 24000], "internal_node_id": "0.0-70.0", "trial": 2, "time_elapsed": 1198604, "serialpos": 8, "key_press": -1, "wordID": 1020, "type": "PRES_AUD", "trial_index": 97}, "uniqueid": "MTK3674:39DD6S19JQI09F6WLZBBNJPVMKBZE9", "dateTime": 1520957441598}, {"current_trial": 98, "trialdata": {"rt": -1000, "trial_type": "single-audio", "word": "omelet", "stimulus": "/static/audio/wordpool/OMELET.wav", "conditions": [12, 800, "a", 24000], "internal_node_id": "0.0-71.0", "trial": 2, "time_elapsed": 1200554, "serialpos": 9, "key_press": -1, "wordID": 975, "type": "PRES_AUD", "trial_index": 98}, "uniqueid": "MTK3674:39DD6S19JQI09F6WLZBBNJPVMKBZE9", "dateTime": 1520957443547}, {"current_trial": 99, "trialdata": {"rt": -1000, "trial_type": "single-audio", "word": "penguin", "stimulus": "/static/audio/wordpool/PENGUIN.wav", "conditions": [12, 800, "a", 24000], "internal_node_id": "0.0-72.0", "trial": 2, "time_elapsed": 1202370, "serialpos": 10, "key_press": -1, "wordID": 1043, "type": "PRES_AUD", "trial_index": 99}, "uniqueid": "MTK3674:39DD6S19JQI09F6WLZBBNJPVMKBZE9", "dateTime": 1520957445363}, {"current_trial": 100, "trialdata": {"rt": -1000, "trial_type": "single-audio", "word": "branch", "stimulus": "/static/audio/wordpool/BRANCH.wav", "conditions": [12, 800, "a", 24000], "internal_node_id": "0.0-73.0", "trial": 2, "time_elapsed": 1203985, "serialpos": 11, "key_press": -1, "wordID": 167, "type": "PRES_AUD", "trial_index": 100}, "uniqueid": "MTK3674:39DD6S19JQI09F6WLZBBNJPVMKBZE9", "dateTime": 1520957446978}, {"current_trial": 101, "trialdata": {"rt": -1, "trial_type": "single-stim", "stimulus": "", "internal_node_id": "0.0-74.0-0.0", "time_elapsed": 1205202, "key_press": -1, "type": "PRE_RECALL_DELAY", "trial_index": 101}, "uniqueid": "MTK3674:39DD6S19JQI09F6WLZBBNJPVMKBZE9", "dateTime": 1520957448195}, {"current_trial": 102, "trialdata": {"rt": -1000, "trial_type": "single-audio", "stimulus": "/static/audio/400Hz.wav", "internal_node_id": "0.0-75.0", "time_elapsed": 1205706, "key_press": -1, "type": "PRE_RECALL_ALERT", "trial_index": 102}, "uniqueid": "MTK3674:39DD6S19JQI09F6WLZBBNJPVMKBZE9", "dateTime": 1520957448699}, {"current_trial": 103, "trialdata": {"rt": [3286, 6427, 8884, 12914, 17198, 19693, 23269], "recwords": ["branch", "penguin", "pasta", "shortcake", "bouquet", "orchid", "mammal"], "key_times": [956, 1264, 1497, 2131, 2405, 2647, 3286, 3745, 4147, 4744, 5101, 5442, 5601, 5825, 6427, 6774, 7197, 7410, 7797, 8086, 8884, 9336, 9820, 10057, 10462, 10610, 11158, 11403, 11859, 12264, 12914, 13572, 13928, 14135, 15246, 15680, 16023, 16279, 17198, 17662, 18039, 18254, 18626, 18895, 19254, 19693, 20641, 21007, 21410, 21513, 21918, 22563, 23269], "trial_type": "free-recall", "conditions": [12, 800, "a", 24000], "internal_node_id": "0.0-76.0-0.0", "key_presses": [66, 82, 65, 78, 67, 72, 13, 80, 69, 78, 71, 85, 73, 78, 13, 80, 65, 83, 84, 65, 13, 83, 72, 79, 82, 84, 67, 65, 75, 69, 13, 66, 79, 85, 81, 85, 69, 84, 13, 79, 82, 67, 72, 73, 68, 13, 77, 65, 77, 77, 65, 76, 13], "trial": 2, "time_elapsed": 1265709, "type": "FREE_RECALL", "trial_index": 103}, "uniqueid": "MTK3674:39DD6S19JQI09F6WLZBBNJPVMKBZE9", "dateTime": 1520957508706}, {"current_trial": 104, "trialdata": {"rt": 1539, "trial_type": "text", "internal_node_id": "0.0-77.0", "time_elapsed": 1269254, "key_press": 32, "type": "INSTRUCTIONS", "trial_index": 104}, "uniqueid": "MTK3674:39DD6S19JQI09F6WLZBBNJPVMKBZE9", "dateTime": 1520957512247}, {"current_trial": 105, "trialdata": {"rt": [2399, 4801, 7252, 9400, 11700], "trial_type": "math-distractor", "key_times": [2054, 2170, 2399, 4300, 4487, 4801, 6804, 7018, 7252, 9030, 9182, 9400, 11339, 11483, 11700], "responses": ["11", "16", "19", "10", "15"], "num2": [6, 8, 6, 3, 7, 6], "num3": [3, 7, 8, 6, 4, 4], "conditions": [12, 1600, "a", 12000], "internal_node_id": "0.0-78.0", "key_presses": [97, 97, 13, 97, 102, 13, 97, 105, 13, 97, 96, 13, 97, 101, 13], "trial": 3, "time_elapsed": 1283257, "type": "DISTRACTOR", "trial_index": 105, "num1": [2, 1, 5, 1, 4, 1]}, "uniqueid": "MTK3674:39DD6S19JQI09F6WLZBBNJPVMKBZE9", "dateTime": 1520957526251}, {"current_trial": 106, "trialdata": {"rt": -1, "trial_type": "single-stim", "stimulus": "<p id=\"stim\">10</p>", "internal_node_id": "0.0-79.0-0.0", "time_elapsed": 1286262, "key_press": -1, "trial_index": 106}, "uniqueid": "MTK3674:39DD6S19JQI09F6WLZBBNJPVMKBZE9", "dateTime": 1520957529255}, {"current_trial": 107, "trialdata": {"rt": -1, "trial_type": "single-stim", "stimulus": "<p id=\"stim\">9</p>", "internal_node_id": "0.0-79.0-1.0", "time_elapsed": 1287262, "key_press": -1, "trial_index": 107}, "uniqueid": "MTK3674:39DD6S19JQI09F6WLZBBNJPVMKBZE9", "dateTime": 1520957530255}, {"current_trial": 108, "trialdata": {"rt": -1, "trial_type": "single-stim", "stimulus": "<p id=\"stim\">8</p>", "internal_node_id": "0.0-79.0-2.0", "time_elapsed": 1288264, "key_press": -1, "trial_index": 108}, "uniqueid": "MTK3674:39DD6S19JQI09F6WLZBBNJPVMKBZE9", "dateTime": 1520957531257}, {"current_trial": 109, "trialdata": {"rt": -1, "trial_type": "single-stim", "stimulus": "<p id=\"stim\">7</p>", "internal_node_id": "0.0-79.0-3.0", "time_elapsed": 1289265, "key_press": -1, "trial_index": 109}, "uniqueid": "MTK3674:39DD6S19JQI09F6WLZBBNJPVMKBZE9", "dateTime": 1520957532258}, {"current_trial": 110, "trialdata": {"rt": -1, "trial_type": "single-stim", "stimulus": "<p id=\"stim\">6</p>", "internal_node_id": "0.0-79.0-4.0", "time_elapsed": 1290268, "key_press": -1, "trial_index": 110}, "uniqueid": "MTK3674:39DD6S19JQI09F6WLZBBNJPVMKBZE9", "dateTime": 1520957533261}, {"current_trial": 111, "trialdata": {"rt": -1, "trial_type": "single-stim", "stimulus": "<p id=\"stim\">5</p>", "internal_node_id": "0.0-79.0-5.0", "time_elapsed": 1291270, "key_press": -1, "trial_index": 111}, "uniqueid": "MTK3674:39DD6S19JQI09F6WLZBBNJPVMKBZE9", "dateTime": 1520957534263}, {"current_trial": 112, "trialdata": {"rt": -1, "trial_type": "single-stim", "stimulus": "<p id=\"stim\">4</p>", "internal_node_id": "0.0-79.0-6.0", "time_elapsed": 1292271, "key_press": -1, "trial_index": 112}, "uniqueid": "MTK3674:39DD6S19JQI09F6WLZBBNJPVMKBZE9", "dateTime": 1520957535264}, {"current_trial": 113, "trialdata": {"rt": -1, "trial_type": "single-stim", "stimulus": "<p id=\"stim\">3</p>", "internal_node_id": "0.0-79.0-7.0", "time_elapsed": 1293272, "key_press": -1, "trial_index": 113}, "uniqueid": "MTK3674:39DD6S19JQI09F6WLZBBNJPVMKBZE9", "dateTime": 1520957536265}, {"current_trial": 114, "trialdata": {"rt": -1, "trial_type": "single-stim", "stimulus": "<p id=\"stim\">2</p>", "internal_node_id": "0.0-79.0-8.0", "time_elapsed": 1294274, "key_press": -1, "trial_index": 114}, "uniqueid": "MTK3674:39DD6S19JQI09F6WLZBBNJPVMKBZE9", "dateTime": 1520957537267}, {"current_trial": 115, "trialdata": {"rt": -1, "trial_type": "single-stim", "stimulus": "<p id=\"stim\">1</p>", "internal_node_id": "0.0-79.0-9.0", "time_elapsed": 1295277, "key_press": -1, "trial_index": 115}, "uniqueid": "MTK3674:39DD6S19JQI09F6WLZBBNJPVMKBZE9", "dateTime": 1520957538270}, {"current_trial": 116, "trialdata": {"rt": -1, "trial_type": "single-stim", "stimulus": "<p id=\"stim\">+</p>", "internal_node_id": "0.0-80.0-0.0", "time_elapsed": 1296777, "key_press": -1, "type": "FIXATION", "trial_index": 116}, "uniqueid": "MTK3674:39DD6S19JQI09F6WLZBBNJPVMKBZE9", "dateTime": 1520957539770}, {"current_trial": 117, "trialdata": {"rt": -1000, "trial_type": "single-audio", "word": "dancer", "stimulus": "/static/audio/wordpool/DANCER.wav", "conditions": [12, 1600, "a", 12000], "internal_node_id": "0.0-81.0", "trial": 3, "time_elapsed": 1299554, "serialpos": 0, "key_press": -1, "wordID": 436, "type": "PRES_AUD", "trial_index": 117}, "uniqueid": "MTK3674:39DD6S19JQI09F6WLZBBNJPVMKBZE9", "dateTime": 1520957542547}, {"current_trial": 118, "trialdata": {"rt": -1000, "trial_type": "single-audio", "word": "elbow", "stimulus": "/static/audio/wordpool/ELBOW.wav", "conditions": [12, 1600, "a", 12000], "internal_node_id": "0.0-82.0", "trial": 3, "time_elapsed": 1301997, "serialpos": 1, "key_press": -1, "wordID": 519, "type": "PRES_AUD", "trial_index": 118}, "uniqueid": "MTK3674:39DD6S19JQI09F6WLZBBNJPVMKBZE9", "dateTime": 1520957544990}, {"current_trial": 119, "trialdata": {"rt": -1000, "trial_type": "single-audio", "word": "scribble", "stimulus": "/static/audio/wordpool/SCRIBBLE.wav", "conditions": [12, 1600, "a", 12000], "internal_node_id": "0.0-83.0", "trial": 3, "time_elapsed": 1304661, "serialpos": 2, "key_press": -1, "wordID": 1255, "type": "PRES_AUD", "trial_index": 119}, "uniqueid": "MTK3674:39DD6S19JQI09F6WLZBBNJPVMKBZE9", "dateTime": 1520957547655}, {"current_trial": 120, "trialdata": {"rt": -1000, "trial_type": "single-audio", "word": "expert", "stimulus": "/static/audio/wordpool/EXPERT.wav", "conditions": [12, 1600, "a", 12000], "internal_node_id": "0.0-84.0", "trial": 3, "time_elapsed": 1307444, "serialpos": 3, "key_press": -1, "wordID": 542, "type": "PRES_AUD", "trial_index": 120}, "uniqueid": "MTK3674:39DD6S19JQI09F6WLZBBNJPVMKBZE9", "dateTime": 1520957550437}, {"current_trial": 121, "trialdata": {"rt": -1000, "trial_type": "single-audio", "word": "gymnast", "stimulus": "/static/audio/wordpool/GYMNAST.wav", "conditions": [12, 1600, "a", 12000], "internal_node_id": "0.0-85.0", "trial": 3, "time_elapsed": 1309904, "serialpos": 4, "key_press": -1, "wordID": 674, "type": "PRES_AUD", "trial_index": 121}, "uniqueid": "MTK3674:39DD6S19JQI09F6WLZBBNJPVMKBZE9", "dateTime": 1520957552897}, {"current_trial": 122, "trialdata": {"rt": -1000, "trial_type": "single-audio", "word": "perfume", "stimulus": "/static/audio/wordpool/PERFUME.wav", "conditions": [12, 1600, "a", 12000], "internal_node_id": "0.0-86.0", "trial": 3, "time_elapsed": 1312478, "serialpos": 5, "key_press": -1, "wordID": 1048, "type": "PRES_AUD", "trial_index": 122}, "uniqueid": "MTK3674:39DD6S19JQI09F6WLZBBNJPVMKBZE9", "dateTime": 1520957555471}, {"current_trial": 123, "trialdata": {"rt": -1000, "trial_type": "single-audio", "word": "nightgown", "stimulus": "/static/audio/wordpool/NIGHTGOWN.wav", "conditions": [12, 1600, "a", 12000], "internal_node_id": "0.0-87.0", "trial": 3, "time_elapsed": 1315060, "serialpos": 6, "key_press": -1, "wordID": 952, "type": "PRES_AUD", "trial_index": 123}, "uniqueid": "MTK3674:39DD6S19JQI09F6WLZBBNJPVMKBZE9", "dateTime": 1520957558053}, {"current_trial": 124, "trialdata": {"rt": -1000, "trial_type": "single-audio", "word": "tutu", "stimulus": "/static/audio/wordpool/TUTU.wav", "conditions": [12, 1600, "a", 12000], "internal_node_id": "0.0-88.0", "trial": 3, "time_elapsed": 1317848, "serialpos": 7, "key_press": -1, "wordID": 1523, "type": "PRES_AUD", "trial_index": 124}, "uniqueid": "MTK3674:39DD6S19JQI09F6WLZBBNJPVMKBZE9", "dateTime": 1520957560841}, {"current_trial": 125, "trialdata": {"rt": -1000, "trial_type": "single-audio", "word": "crater", "stimulus": "/static/audio/wordpool/CRATER.wav", "conditions": [12, 1600, "a", 12000], "internal_node_id": "0.0-89.0", "trial": 3, "time_elapsed": 1320508, "serialpos": 8, "key_press": -1, "wordID": 399, "type": "PRES_AUD", "trial_index": 125}, "uniqueid": "MTK3674:39DD6S19JQI09F6WLZBBNJPVMKBZE9", "dateTime": 1520957563501}, {"current_trial": 126, "trialdata": {"rt": -1000, "trial_type": "single-audio", "word": "igloo", "stimulus": "/static/audio/wordpool/IGLOO.wav", "conditions": [12, 1600, "a", 12000], "internal_node_id": "0.0-90.0", "trial": 3, "time_elapsed": 1323181, "serialpos": 9, "key_press": -1, "wordID": 733, "type": "PRES_AUD", "trial_index": 126}, "uniqueid": "MTK3674:39DD6S19JQI09F6WLZBBNJPVMKBZE9", "dateTime": 1520957566174}, {"current_trial": 127, "trialdata": {"rt": -1000, "trial_type": "single-audio", "word": "maple", "stimulus": "/static/audio/wordpool/MAPLE.wav", "conditions": [12, 1600, "a", 12000], "internal_node_id": "0.0-91.0", "trial": 3, "time_elapsed": 1325813, "serialpos": 10, "key_press": -1, "wordID": 865, "type": "PRES_AUD", "trial_index": 127}, "uniqueid": "MTK3674:39DD6S19JQI09F6WLZBBNJPVMKBZE9", "dateTime": 1520957568807}, {"current_trial": 128, "trialdata": {"rt": -1000, "trial_type": "single-audio", "word": "journal", "stimulus": "/static/audio/wordpool/JOURNAL.wav", "conditions": [12, 1600, "a", 12000], "internal_node_id": "0.0-92.0", "trial": 3, "time_elapsed": 1328367, "serialpos": 11, "key_press": -1, "wordID": 759, "type": "PRES_AUD", "trial_index": 128}, "uniqueid": "MTK3674:39DD6S19JQI09F6WLZBBNJPVMKBZE9", "dateTime": 1520957571360}, {"current_trial": 129, "trialdata": {"rt": -1, "trial_type": "single-stim", "stimulus": "", "internal_node_id": "0.0-93.0-0.0", "time_elapsed": 1329703, "key_press": -1, "type": "PRE_RECALL_DELAY", "trial_index": 129}, "uniqueid": "MTK3674:39DD6S19JQI09F6WLZBBNJPVMKBZE9", "dateTime": 1520957572696}, {"current_trial": 130, "trialdata": {"rt": -1000, "trial_type": "single-audio", "stimulus": "/static/audio/400Hz.wav", "internal_node_id": "0.0-94.0", "time_elapsed": 1330214, "key_press": -1, "type": "PRE_RECALL_ALERT", "trial_index": 130}, "uniqueid": "MTK3674:39DD6S19JQI09F6WLZBBNJPVMKBZE9", "dateTime": 1520957573207}, {"current_trial": 131, "trialdata": {"rt": [3957, 6345, 8858, 12018, 14856, 18238, 24390, 34634, 55976], "recwords": ["journal", "igloo", "maple", "perfume", "elbow", "nightgown", "scribble", "journal", "tutu"], "key_times": [852, 1062, 1263, 1887, 2422, 2782, 3250, 3957, 4507, 4846, 5427, 5637, 5754, 6345, 6756, 7146, 7641, 7819, 8399, 8858, 9493, 9878, 10033, 10194, 10840, 11042, 11404, 12018, 12451, 12948, 13372, 13727, 14234, 14856, 15221, 15461, 15692, 15851, 16047, 16640, 16957, 17338, 17889, 18238, 18675, 18854, 19110, 19590, 19699, 19970, 20334, 20716, 21742, 21884, 22016, 22145, 22977, 23090, 23417, 23761, 24390, 26896, 27177, 27195, 27402, 28515, 28647, 28822, 29667, 29873, 30492, 30728, 31149, 32060, 32185, 33164, 33523, 33933, 34634, 54788, 55005, 55214, 55442, 55976], "trial_type": "free-recall", "conditions": [12, 1600, "a", 12000], "internal_node_id": "0.0-95.0-0.0", "key_presses": [74, 79, 85, 82, 78, 65, 76, 13, 73, 71, 76, 79, 79, 13, 77, 65, 80, 76, 69, 13, 80, 69, 82, 70, 85, 77, 69, 13, 69, 76, 66, 79, 87, 13, 78, 73, 71, 72, 84, 71, 79, 87, 78, 13, 83, 67, 82, 73, 73, 66, 76, 69, 8, 8, 8, 8, 66, 66, 76, 69, 13, 74, 79, 73, 85, 8, 8, 8, 79, 85, 82, 65, 76, 8, 8, 78, 65, 76, 13, 84, 85, 84, 85, 13], "trial": 3, "time_elapsed": 1390217, "type": "FREE_RECALL", "trial_index": 131}, "uniqueid": "MTK3674:39DD6S19JQI09F6WLZBBNJPVMKBZE9", "dateTime": 1520957633216}, {"current_trial": 132, "trialdata": {"rt": 1072, "trial_type": "text", "internal_node_id": "0.0-96.0", "time_elapsed": 1393296, "key_press": 32, "type": "INSTRUCTIONS", "trial_index": 132}, "uniqueid": "MTK3674:39DD6S19JQI09F6WLZBBNJPVMKBZE9", "dateTime": 1520957636289}, {"current_trial": 133, "trialdata": {"rt": [1769, 6057, 9064, 12768, 14555, 17042, 18855, 20580, 22898], "trial_type": "math-distractor", "key_times": [1371, 1542, 1769, 5739, 5891, 6057, 8693, 8802, 9064, 12415, 12558, 12768, 14207, 14370, 14555, 16604, 16815, 17042, 18484, 18672, 18855, 20257, 20402, 20580, 22516, 22687, 22690, 22898], "responses": ["16", "14", "22", "21", "15", "19", "17", "14", "165"], "num2": [4, 2, 7, 7, 5, 4, 1, 5, 9, 3], "num3": [6, 4, 7, 9, 8, 8, 9, 5, 2, 2], "conditions": [12, 1600, "a", 24000], "internal_node_id": "0.0-97.0", "key_presses": [97, 102, 13, 97, 100, 13, 98, 98, 13, 98, 97, 13, 97, 101, 13, 97, 105, 13, 97, 103, 13, 97, 100, 13, 97, 102, 101, 13], "trial": 4, "time_elapsed": 1419300, "type": "DISTRACTOR", "trial_index": 133, "num1": [7, 8, 8, 5, 2, 7, 7, 4, 5, 7]}, "uniqueid": "MTK3674:39DD6S19JQI09F6WLZBBNJPVMKBZE9", "dateTime": 1520957662293}, {"current_trial": 134, "trialdata": {"rt": -1, "trial_type": "single-stim", "stimulus": "<p id=\"stim\">10</p>", "internal_node_id": "0.0-98.0-0.0", "time_elapsed": 1422302, "key_press": -1, "trial_index": 134}, "uniqueid": "MTK3674:39DD6S19JQI09F6WLZBBNJPVMKBZE9", "dateTime": 1520957665295}, {"current_trial": 135, "trialdata": {"rt": -1, "trial_type": "single-stim", "stimulus": "<p id=\"stim\">9</p>", "internal_node_id": "0.0-98.0-1.0", "time_elapsed": 1423304, "key_press": -1, "trial_index": 135}, "uniqueid": "MTK3674:39DD6S19JQI09F6WLZBBNJPVMKBZE9", "dateTime": 1520957666297}, {"current_trial": 136, "trialdata": {"rt": -1, "trial_type": "single-stim", "stimulus": "<p id=\"stim\">8</p>", "internal_node_id": "0.0-98.0-2.0", "time_elapsed": 1424305, "key_press": -1, "trial_index": 136}, "uniqueid": "MTK3674:39DD6S19JQI09F6WLZBBNJPVMKBZE9", "dateTime": 1520957667298}, {"current_trial": 137, "trialdata": {"rt": -1, "trial_type": "single-stim", "stimulus": "<p id=\"stim\">7</p>", "internal_node_id": "0.0-98.0-3.0", "time_elapsed": 1425307, "key_press": -1, "trial_index": 137}, "uniqueid": "MTK3674:39DD6S19JQI09F6WLZBBNJPVMKBZE9", "dateTime": 1520957668300}, {"current_trial": 138, "trialdata": {"rt": -1, "trial_type": "single-stim", "stimulus": "<p id=\"stim\">6</p>", "internal_node_id": "0.0-98.0-4.0", "time_elapsed": 1426308, "key_press": -1, "trial_index": 138}, "uniqueid": "MTK3674:39DD6S19JQI09F6WLZBBNJPVMKBZE9", "dateTime": 1520957669301}, {"current_trial": 139, "trialdata": {"rt": -1, "trial_type": "single-stim", "stimulus": "<p id=\"stim\">5</p>", "internal_node_id": "0.0-98.0-5.0", "time_elapsed": 1427310, "key_press": -1, "trial_index": 139}, "uniqueid": "MTK3674:39DD6S19JQI09F6WLZBBNJPVMKBZE9", "dateTime": 1520957670303}, {"current_trial": 140, "trialdata": {"rt": -1, "trial_type": "single-stim", "stimulus": "<p id=\"stim\">4</p>", "internal_node_id": "0.0-98.0-6.0", "time_elapsed": 1428313, "key_press": -1, "trial_index": 140}, "uniqueid": "MTK3674:39DD6S19JQI09F6WLZBBNJPVMKBZE9", "dateTime": 1520957671306}, {"current_trial": 141, "trialdata": {"rt": -1, "trial_type": "single-stim", "stimulus": "<p id=\"stim\">3</p>", "internal_node_id": "0.0-98.0-7.0", "time_elapsed": 1429315, "key_press": -1, "trial_index": 141}, "uniqueid": "MTK3674:39DD6S19JQI09F6WLZBBNJPVMKBZE9", "dateTime": 1520957672308}, {"current_trial": 142, "trialdata": {"rt": -1, "trial_type": "single-stim", "stimulus": "<p id=\"stim\">2</p>", "internal_node_id": "0.0-98.0-8.0", "time_elapsed": 1430317, "key_press": -1, "trial_index": 142}, "uniqueid": "MTK3674:39DD6S19JQI09F6WLZBBNJPVMKBZE9", "dateTime": 1520957673310}, {"current_trial": 143, "trialdata": {"rt": -1, "trial_type": "single-stim", "stimulus": "<p id=\"stim\">1</p>", "internal_node_id": "0.0-98.0-9.0", "time_elapsed": 1431320, "key_press": -1, "trial_index": 143}, "uniqueid": "MTK3674:39DD6S19JQI09F6WLZBBNJPVMKBZE9", "dateTime": 1520957674313}, {"current_trial": 144, "trialdata": {"rt": -1, "trial_type": "single-stim", "stimulus": "<p id=\"stim\">+</p>", "internal_node_id": "0.0-99.0-0.0", "time_elapsed": 1432823, "key_press": -1, "type": "FIXATION", "trial_index": 144}, "uniqueid": "MTK3674:39DD6S19JQI09F6WLZBBNJPVMKBZE9", "dateTime": 1520957675816}, {"current_trial": 145, "trialdata": {"rt": -1000, "trial_type": "single-audio", "word": "pocket", "stimulus": "/static/audio/wordpool/POCKET.wav", "conditions": [12, 1600, "a", 24000], "internal_node_id": "0.0-100.0", "trial": 4, "time_elapsed": 1435240, "serialpos": 0, "key_press": -1, "wordID": 1092, "type": "PRES_AUD", "trial_index": 145}, "uniqueid": "MTK3674:39DD6S19JQI09F6WLZBBNJPVMKBZE9", "dateTime": 1520957678233}, {"current_trial": 146, "trialdata": {"rt": -1000, "trial_type": "single-audio", "word": "cottage", "stimulus": "/static/audio/wordpool/COTTAGE.wav", "conditions": [12, 1600, "a", 24000], "internal_node_id": "0.0-101.0", "trial": 4, "time_elapsed": 1438024, "serialpos": 1, "key_press": -1, "wordID": 383, "type": "PRES_AUD", "trial_index": 146}, "uniqueid": "MTK3674:39DD6S19JQI09F6WLZBBNJPVMKBZE9", "dateTime": 1520957681017}, {"current_trial": 147, "trialdata": {"rt": -1000, "trial_type": "single-audio", "word": "portrait", "stimulus": "/static/audio/wordpool/PORTRAIT.wav", "conditions": [12, 1600, "a", 24000], "internal_node_id": "0.0-102.0", "trial": 4, "time_elapsed": 1440578, "serialpos": 2, "key_press": -1, "wordID": 1110, "type": "PRES_AUD", "trial_index": 147}, "uniqueid": "MTK3674:39DD6S19JQI09F6WLZBBNJPVMKBZE9", "dateTime": 1520957683572}, {"current_trial": 148, "trialdata": {"rt": -1000, "trial_type": "single-audio", "word": "picture", "stimulus": "/static/audio/wordpool/PICTURE.wav", "conditions": [12, 1600, "a", 24000], "internal_node_id": "0.0-103.0", "trial": 4, "time_elapsed": 1443149, "serialpos": 3, "key_press": -1, "wordID": 1060, "type": "PRES_AUD", "trial_index": 148}, "uniqueid": "MTK3674:39DD6S19JQI09F6WLZBBNJPVMKBZE9", "dateTime": 1520957686142}, {"current_trial": 149, "trialdata": {"rt": -1000, "trial_type": "single-audio", "word": "rocket", "stimulus": "/static/audio/wordpool/ROCKET.wav", "conditions": [12, 1600, "a", 24000], "internal_node_id": "0.0-104.0", "trial": 4, "time_elapsed": 1445794, "serialpos": 4, "key_press": -1, "wordID": 1201, "type": "PRES_AUD", "trial_index": 149}, "uniqueid": "MTK3674:39DD6S19JQI09F6WLZBBNJPVMKBZE9", "dateTime": 1520957688788}, {"current_trial": 150, "trialdata": {"rt": -1000, "trial_type": "single-audio", "word": "marrow", "stimulus": "/static/audio/wordpool/MARROW.wav", "conditions": [12, 1600, "a", 24000], "internal_node_id": "0.0-105.0", "trial": 4, "time_elapsed": 1448532, "serialpos": 5, "key_press": -1, "wordID": 871, "type": "PRES_AUD", "trial_index": 150}, "uniqueid": "MTK3674:39DD6S19JQI09F6WLZBBNJPVMKBZE9", "dateTime": 1520957691525}, {"current_trial": 151, "trialdata": {"rt": -1000, "trial_type": "single-audio", "word": "bunny", "stimulus": "/static/audio/wordpool/BUNNY.wav", "conditions": [12, 1600, "a", 24000], "internal_node_id": "0.0-106.0", "trial": 4, "time_elapsed": 1451115, "serialpos": 6, "key_press": -1, "wordID": 197, "type": "PRES_AUD", "trial_index": 151}, "uniqueid": "MTK3674:39DD6S19JQI09F6WLZBBNJPVMKBZE9", "dateTime": 1520957694109}, {"current_trial": 152, "trialdata": {"rt": -1000, "trial_type": "single-audio", "word": "beaver", "stimulus": "/static/audio/wordpool/BEAVER.wav", "conditions": [12, 1600, "a", 24000], "internal_node_id": "0.0-107.0", "trial": 4, "time_elapsed": 1453593, "serialpos": 7, "key_press": -1, "wordID": 108, "type": "PRES_AUD", "trial_index": 152}, "uniqueid": "MTK3674:39DD6S19JQI09F6WLZBBNJPVMKBZE9", "dateTime": 1520957696586}, {"current_trial": 153, "trialdata": {"rt": -1000, "trial_type": "single-audio", "word": "pepper", "stimulus": "/static/audio/wordpool/PEPPER.wav", "conditions": [12, 1600, "a", 24000], "internal_node_id": "0.0-108.0", "trial": 4, "time_elapsed": 1456083, "serialpos": 8, "key_press": -1, "wordID": 1046, "type": "PRES_AUD", "trial_index": 153}, "uniqueid": "MTK3674:39DD6S19JQI09F6WLZBBNJPVMKBZE9", "dateTime": 1520957699076}, {"current_trial": 154, "trialdata": {"rt": -1000, "trial_type": "single-audio", "word": "missile", "stimulus": "/static/audio/wordpool/MISSILE.wav", "conditions": [12, 1600, "a", 24000], "internal_node_id": "0.0-109.0", "trial": 4, "time_elapsed": 1458748, "serialpos": 9, "key_press": -1, "wordID": 899, "type": "PRES_AUD", "trial_index": 154}, "uniqueid": "MTK3674:39DD6S19JQI09F6WLZBBNJPVMKBZE9", "dateTime": 1520957701742}, {"current_trial": 155, "trialdata": {"rt": -1000, "trial_type": "single-audio", "word": "lapel", "stimulus": "/static/audio/wordpool/LAPEL.wav", "conditions": [12, 1600, "a", 24000], "internal_node_id": "0.0-110.0", "trial": 4, "time_elapsed": 1461269, "serialpos": 10, "key_press": -1, "wordID": 799, "type": "PRES_AUD", "trial_index": 155}, "uniqueid": "MTK3674:39DD6S19JQI09F6WLZBBNJPVMKBZE9", "dateTime": 1520957704264}, {"current_trial": 156, "trialdata": {"rt": -1000, "trial_type": "single-audio", "word": "tart", "stimulus": "/static/audio/wordpool/TART.wav", "conditions": [12, 1600, "a", 24000], "internal_node_id": "0.0-111.0", "trial": 4, "time_elapsed": 1463828, "serialpos": 11, "key_press": -1, "wordID": 1435, "type": "PRES_AUD", "trial_index": 156}, "uniqueid": "MTK3674:39DD6S19JQI09F6WLZBBNJPVMKBZE9", "dateTime": 1520957706821}, {"current_trial": 157, "trialdata": {"rt": -1, "trial_type": "single-stim", "stimulus": "", "internal_node_id": "0.0-112.0-0.0", "time_elapsed": 1465130, "key_press": -1, "type": "PRE_RECALL_DELAY", "trial_index": 157}, "uniqueid": "MTK3674:39DD6S19JQI09F6WLZBBNJPVMKBZE9", "dateTime": 1520957708123}, {"current_trial": 158, "trialdata": {"rt": -1000, "trial_type": "single-audio", "stimulus": "/static/audio/400Hz.wav", "internal_node_id": "0.0-113.0", "time_elapsed": 1465636, "key_press": -1, "type": "PRE_RECALL_ALERT", "trial_index": 158}, "uniqueid": "MTK3674:39DD6S19JQI09F6WLZBBNJPVMKBZE9", "dateTime": 1520957708629}, {"current_trial": 159, "trialdata": {"rt": [3103, 5661, 11207, 13757, 16478, 18559, 23142], "recwords": ["beaver", "bunny", "pepper", "pocket", "lapel", "tart", "cottage"], "key_times": [851, 1157, 1365, 1882, 2133, 2279, 3103, 4155, 4369, 4607, 4721, 4993, 5661, 5984, 6438, 6842, 6941, 7359, 7503, 8179, 8505, 8678, 9269, 10239, 10367, 10496, 11207, 11566, 11722, 12126, 12572, 12932, 13130, 13757, 14053, 14725, 15167, 15557, 16010, 16478, 17152, 17475, 17748, 17933, 18559, 19392, 19778, 20388, 20715, 21149, 21270, 21751, 22262, 22508, 23142], "trial_type": "free-recall", "conditions": [12, 1600, "a", 24000], "internal_node_id": "0.0-114.0-0.0", "key_presses": [66, 69, 65, 86, 69, 82, 13, 66, 85, 78, 78, 89, 13, 80, 69, 80, 80, 69, 82, 16, 80, 79, 67, 8, 8, 8, 13, 80, 79, 67, 75, 69, 84, 13, 76, 65, 80, 69, 76, 13, 84, 65, 82, 84, 13, 67, 73, 8, 79, 84, 84, 65, 71, 69, 13], "trial": 4, "time_elapsed": 1525642, "type": "FREE_RECALL", "trial_index": 159}, "uniqueid": "MTK3674:39DD6S19JQI09F6WLZBBNJPVMKBZE9", "dateTime": 1520957768639}, {"current_trial": 160, "trialdata": {"rt": 72710, "trial_type": "text", "internal_node_id": "0.0-115.0", "time_elapsed": 1600358, "key_press": 74, "type": "INSTRUCTIONS", "trial_index": 160}, "uniqueid": "MTK3674:39DD6S19JQI09F6WLZBBNJPVMKBZE9", "dateTime": 1520957843351}, {"current_trial": 161, "trialdata": {"rt": [2491, 4513, 6742, 10041], "trial_type": "math-distractor", "key_times": [1932, 2119, 2491, 4063, 4201, 4513, 6229, 6341, 6742, 9616, 9775, 10041], "responses": ["17", "14", "11", "26"], "num2": [3, 4, 1, 8, 4], "num3": [6, 2, 3, 9, 1], "conditions": [24, 800, "a", 12000], "internal_node_id": "0.0-116.0", "key_presses": [97, 103, 13, 97, 100, 13, 97, 97, 13, 98, 102, 13], "trial": 5, "time_elapsed": 1614362, "type": "DISTRACTOR", "trial_index": 161, "num1": [8, 8, 7, 9, 9]}, "uniqueid": "MTK3674:39DD6S19JQI09F6WLZBBNJPVMKBZE9", "dateTime": 1520957857355}, {"current_trial": 162, "trialdata": {"rt": -1, "trial_type": "single-stim", "stimulus": "<p id=\"stim\">10</p>", "internal_node_id": "0.0-117.0-0.0", "time_elapsed": 1617364, "key_press": -1, "trial_index": 162}, "uniqueid": "MTK3674:39DD6S19JQI09F6WLZBBNJPVMKBZE9", "dateTime": 1520957860357}, {"current_trial": 163, "trialdata": {"rt": -1, "trial_type": "single-stim", "stimulus": "<p id=\"stim\">9</p>", "internal_node_id": "0.0-117.0-1.0", "time_elapsed": 1618366, "key_press": -1, "trial_index": 163}, "uniqueid": "MTK3674:39DD6S19JQI09F6WLZBBNJPVMKBZE9", "dateTime": 1520957861359}, {"current_trial": 164, "trialdata": {"rt": -1, "trial_type": "single-stim", "stimulus": "<p id=\"stim\">8</p>", "internal_node_id": "0.0-117.0-2.0", "time_elapsed": 1619368, "key_press": -1, "trial_index": 164}, "uniqueid": "MTK3674:39DD6S19JQI09F6WLZBBNJPVMKBZE9", "dateTime": 1520957862361}, {"current_trial": 165, "trialdata": {"rt": -1, "trial_type": "single-stim", "stimulus": "<p id=\"stim\">7</p>", "internal_node_id": "0.0-117.0-3.0", "time_elapsed": 1620371, "key_press": -1, "trial_index": 165}, "uniqueid": "MTK3674:39DD6S19JQI09F6WLZBBNJPVMKBZE9", "dateTime": 1520957863364}, {"current_trial": 166, "trialdata": {"rt": -1, "trial_type": "single-stim", "stimulus": "<p id=\"stim\">6</p>", "internal_node_id": "0.0-117.0-4.0", "time_elapsed": 1621372, "key_press": -1, "trial_index": 166}, "uniqueid": "MTK3674:39DD6S19JQI09F6WLZBBNJPVMKBZE9", "dateTime": 1520957864365}, {"current_trial": 167, "trialdata": {"rt": -1, "trial_type": "single-stim", "stimulus": "<p id=\"stim\">5</p>", "internal_node_id": "0.0-117.0-5.0", "time_elapsed": 1622373, "key_press": -1, "trial_index": 167}, "uniqueid": "MTK3674:39DD6S19JQI09F6WLZBBNJPVMKBZE9", "dateTime": 1520957865366}, {"current_trial": 168, "trialdata": {"rt": -1, "trial_type": "single-stim", "stimulus": "<p id=\"stim\">4</p>", "internal_node_id": "0.0-117.0-6.0", "time_elapsed": 1623376, "key_press": -1, "trial_index": 168}, "uniqueid": "MTK3674:39DD6S19JQI09F6WLZBBNJPVMKBZE9", "dateTime": 1520957866369}, {"current_trial": 169, "trialdata": {"rt": -1, "trial_type": "single-stim", "stimulus": "<p id=\"stim\">3</p>", "internal_node_id": "0.0-117.0-7.0", "time_elapsed": 1624377, "key_press": -1, "trial_index": 169}, "uniqueid": "MTK3674:39DD6S19JQI09F6WLZBBNJPVMKBZE9", "dateTime": 1520957867370}, {"current_trial": 170, "trialdata": {"rt": -1, "trial_type": "single-stim", "stimulus": "<p id=\"stim\">2</p>", "internal_node_id": "0.0-117.0-8.0", "time_elapsed": 1625379, "key_press": -1, "trial_index": 170}, "uniqueid": "MTK3674:39DD6S19JQI09F6WLZBBNJPVMKBZE9", "dateTime": 1520957868372}, {"current_trial": 171, "trialdata": {"rt": -1, "trial_type": "single-stim", "stimulus": "<p id=\"stim\">1</p>", "internal_node_id": "0.0-117.0-9.0", "time_elapsed": 1626380, "key_press": -1, "trial_index": 171}, "uniqueid": "MTK3674:39DD6S19JQI09F6WLZBBNJPVMKBZE9", "dateTime": 1520957869373}, {"current_trial": 172, "trialdata": {"rt": -1, "trial_type": "single-stim", "stimulus": "<p id=\"stim\">+</p>", "internal_node_id": "0.0-118.0-0.0", "time_elapsed": 1627882, "key_press": -1, "type": "FIXATION", "trial_index": 172}, "uniqueid": "MTK3674:39DD6S19JQI09F6WLZBBNJPVMKBZE9", "dateTime": 1520957870875}, {"current_trial": 173, "trialdata": {"rt": -1000, "trial_type": "single-audio", "word": "toaster", "stimulus": "/static/audio/wordpool/TOASTER.wav", "conditions": [24, 800, "a", 12000], "internal_node_id": "0.0-119.0", "trial": 5, "time_elapsed": 1629512, "serialpos": 0, "key_press": -1, "wordID": 1471, "type": "PRES_AUD", "trial_index": 173}, "uniqueid": "MTK3674:39DD6S19JQI09F6WLZBBNJPVMKBZE9", "dateTime": 1520957872505}, {"current_trial": 174, "trialdata": {"rt": -1000, "trial_type": "single-audio", "word": "candy", "stimulus": "/static/audio/wordpool/CANDY.wav", "conditions": [24, 800, "a", 12000], "internal_node_id": "0.0-120.0", "trial": 5, "time_elapsed": 1631446, "serialpos": 1, "key_press": -1, "wordID": 229, "type": "PRES_AUD", "trial_index": 174}, "uniqueid": "MTK3674:39DD6S19JQI09F6WLZBBNJPVMKBZE9", "dateTime": 1520957874439}, {"current_trial": 175, "trialdata": {"rt": -1000, "trial_type": "single-audio", "word": "doughnut", "stimulus": "/static/audio/wordpool/DOUGHNUT.wav", "conditions": [24, 800, "a", 12000], "internal_node_id": "0.0-121.0", "trial": 5, "time_elapsed": 1633448, "serialpos": 2, "key_press": -1, "wordID": 489, "type": "PRES_AUD", "trial_index": 175}, "uniqueid": "MTK3674:39DD6S19JQI09F6WLZBBNJPVMKBZE9", "dateTime": 1520957876441}, {"current_trial": 176, "trialdata": {"rt": -1000, "trial_type": "single-audio", "word": "stove", "stimulus": "/static/audio/wordpool/STOVE.wav", "conditions": [24, 800, "a", 12000], "internal_node_id": "0.0-122.0", "trial": 5, "time_elapsed": 1635415, "serialpos": 3, "key_press": -1, "wordID": 1387, "type": "PRES_AUD", "trial_index": 176}, "uniqueid": "MTK3674:39DD6S19JQI09F6WLZBBNJPVMKBZE9", "dateTime": 1520957878409}, {"current_trial": 177, "trialdata": {"rt": -1000, "trial_type": "single-audio", "word": "swimmer", "stimulus": "/static/audio/wordpool/SWIMMER.wav", "conditions": [24, 800, "a", 12000], "internal_node_id": "0.0-123.0", "trial": 5, "time_elapsed": 1637308, "serialpos": 4, "key_press": -1, "wordID": 1419, "type": "PRES_AUD", "trial_index": 177}, "uniqueid": "MTK3674:39DD6S19JQI09F6WLZBBNJPVMKBZE9", "dateTime": 1520957880301}, {"current_trial": 178, "trialdata": {"rt": -1000, "trial_type": "single-audio", "word": "possum", "stimulus": "/static/audio/wordpool/POSSUM.wav", "conditions": [24, 800, "a", 12000], "internal_node_id": "0.0-124.0", "trial": 5, "time_elapsed": 1639218, "serialpos": 5, "key_press": -1, "wordID": 1111, "type": "PRES_AUD", "trial_index": 178}, "uniqueid": "MTK3674:39DD6S19JQI09F6WLZBBNJPVMKBZE9", "dateTime": 1520957882211}, {"current_trial": 179, "trialdata": {"rt": -1000, "trial_type": "single-audio", "word": "sibling", "stimulus": "/static/audio/wordpool/SIBLING.wav", "conditions": [24, 800, "a", 12000], "internal_node_id": "0.0-125.0", "trial": 5, "time_elapsed": 1641109, "serialpos": 6, "key_press": -1, "wordID": 1300, "type": "PRES_AUD", "trial_index": 179}, "uniqueid": "MTK3674:39DD6S19JQI09F6WLZBBNJPVMKBZE9", "dateTime": 1520957884103}, {"current_trial": 180, "trialdata": {"rt": -1000, "trial_type": "single-audio", "word": "cousin", "stimulus": "/static/audio/wordpool/COUSIN.wav", "conditions": [24, 800, "a", 12000], "internal_node_id": "0.0-126.0", "trial": 5, "time_elapsed": 1642970, "serialpos": 7, "key_press": -1, "wordID": 391, "type": "PRES_AUD", "trial_index": 180}, "uniqueid": "MTK3674:39DD6S19JQI09F6WLZBBNJPVMKBZE9", "dateTime": 1520957885963}, {"current_trial": 181, "trialdata": {"rt": -1000, "trial_type": "single-audio", "word": "queen", "stimulus": "/static/audio/wordpool/QUEEN.wav", "conditions": [24, 800, "a", 12000], "internal_node_id": "0.0-127.0", "trial": 5, "time_elapsed": 1644601, "serialpos": 8, "key_press": -1, "wordID": 1148, "type": "PRES_AUD", "trial_index": 181}, "uniqueid": "MTK3674:39DD6S19JQI09F6WLZBBNJPVMKBZE9", "dateTime": 1520957887594}, {"current_trial": 182, "trialdata": {"rt": -1000, "trial_type": "single-audio", "word": "tweezers", "stimulus": "/static/audio/wordpool/TWEEZERS.wav", "conditions": [24, 800, "a", 12000], "internal_node_id": "0.0-128.0", "trial": 5, "time_elapsed": 1646341, "serialpos": 9, "key_press": -1, "wordID": 1525, "type": "PRES_AUD", "trial_index": 182}, "uniqueid": "MTK3674:39DD6S19JQI09F6WLZBBNJPVMKBZE9", "dateTime": 1520957889334}, {"current_trial": 183, "trialdata": {"rt": -1000, "trial_type": "single-audio", "word": "sketch", "stimulus": "/static/audio/wordpool/SKETCH.wav", "conditions": [24, 800, "a", 12000], "internal_node_id": "0.0-129.0", "trial": 5, "time_elapsed": 1648323, "serialpos": 10, "key_press": -1, "wordID": 1314, "type": "PRES_AUD", "trial_index": 183}, "uniqueid": "MTK3674:39DD6S19JQI09F6WLZBBNJPVMKBZE9", "dateTime": 1520957891316}, {"current_trial": 184, "trialdata": {"rt": -1000, "trial_type": "single-audio", "word": "yacht", "stimulus": "/static/audio/wordpool/YACHT.wav", "conditions": [24, 800, "a", 12000], "internal_node_id": "0.0-130.0", "trial": 5, "time_elapsed": 1650093, "serialpos": 11, "key_press": -1, "wordID": 1628, "type": "PRES_AUD", "trial_index": 184}, "uniqueid": "MTK3674:39DD6S19JQI09F6WLZBBNJPVMKBZE9", "dateTime": 1520957893086}, {"current_trial": 185, "trialdata": {"rt": -1000, "trial_type": "single-audio", "word": "record", "stimulus": "/static/audio/wordpool/RECORD.wav", "conditions": [24, 800, "a", 12000], "internal_node_id": "0.0-131.0", "trial": 5, "time_elapsed": 1651800, "serialpos": 12, "key_press": -1, "wordID": 1175, "type": "PRES_AUD", "trial_index": 185}, "uniqueid": "MTK3674:39DD6S19JQI09F6WLZBBNJPVMKBZE9", "dateTime": 1520957894793}, {"current_trial": 186, "trialdata": {"rt": -1000, "trial_type": "single-audio", "word": "badge", "stimulus": "/static/audio/wordpool/BADGE.wav", "conditions": [24, 800, "a", 12000], "internal_node_id": "0.0-132.0", "trial": 5, "time_elapsed": 1653556, "serialpos": 13, "key_press": -1, "wordID": 67, "type": "PRES_AUD", "trial_index": 186}, "uniqueid": "MTK3674:39DD6S19JQI09F6WLZBBNJPVMKBZE9", "dateTime": 1520957896550}, {"current_trial": 187, "trialdata": {"rt": -1000, "trial_type": "single-audio", "word": "wagon", "stimulus": "/static/audio/wordpool/WAGON.wav", "conditions": [24, 800, "a", 12000], "internal_node_id": "0.0-133.0", "trial": 5, "time_elapsed": 1655215, "serialpos": 14, "key_press": -1, "wordID": 1577, "type": "PRES_AUD", "trial_index": 187}, "uniqueid": "MTK3674:39DD6S19JQI09F6WLZBBNJPVMKBZE9", "dateTime": 1520957898208}, {"current_trial": 188, "trialdata": {"rt": -1000, "trial_type": "single-audio", "word": "diner", "stimulus": "/static/audio/wordpool/DINER.wav", "conditions": [24, 800, "a", 12000], "internal_node_id": "0.0-134.0", "trial": 5, "time_elapsed": 1657108, "serialpos": 15, "key_press": -1, "wordID": 466, "type": "PRES_AUD", "trial_index": 188}, "uniqueid": "MTK3674:39DD6S19JQI09F6WLZBBNJPVMKBZE9", "dateTime": 1520957900101}, {"current_trial": 189, "trialdata": {"rt": -1000, "trial_type": "single-audio", "word": "piston", "stimulus": "/static/audio/wordpool/PISTON.wav", "conditions": [24, 800, "a", 12000], "internal_node_id": "0.0-135.0", "trial": 5, "time_elapsed": 1658869, "serialpos": 16, "key_press": -1, "wordID": 1075, "type": "PRES_AUD", "trial_index": 189}, "uniqueid": "MTK3674:39DD6S19JQI09F6WLZBBNJPVMKBZE9", "dateTime": 1520957901862}, {"current_trial": 190, "trialdata": {"rt": -1000, "trial_type": "single-audio", "word": "valve", "stimulus": "/static/audio/wordpool/VALVE.wav", "conditions": [24, 800, "a", 12000], "internal_node_id": "0.0-136.0", "trial": 5, "time_elapsed": 1660524, "serialpos": 17, "key_press": -1, "wordID": 1545, "type": "PRES_AUD", "trial_index": 190}, "uniqueid": "MTK3674:39DD6S19JQI09F6WLZBBNJPVMKBZE9", "dateTime": 1520957903517}, {"current_trial": 191, "trialdata": {"rt": -1000, "trial_type": "single-audio", "word": "chemist", "stimulus": "/static/audio/wordpool/CHEMIST.wav", "conditions": [24, 800, "a", 12000], "internal_node_id": "0.0-137.0", "trial": 5, "time_elapsed": 1662169, "serialpos": 18, "key_press": -1, "wordID": 291, "type": "PRES_AUD", "trial_index": 191}, "uniqueid": "MTK3674:39DD6S19JQI09F6WLZBBNJPVMKBZE9", "dateTime": 1520957905162}, {"current_trial": 192, "trialdata": {"rt": -1000, "trial_type": "single-audio", "word": "twister", "stimulus": "/static/audio/wordpool/TWISTER.wav", "conditions": [24, 800, "a", 12000], "internal_node_id": "0.0-138.0", "trial": 5, "time_elapsed": 1664045, "serialpos": 19, "key_press": -1, "wordID": 1529, "type": "PRES_AUD", "trial_index": 192}, "uniqueid": "MTK3674:39DD6S19JQI09F6WLZBBNJPVMKBZE9", "dateTime": 1520957907039}, {"current_trial": 193, "trialdata": {"rt": -1000, "trial_type": "single-audio", "word": "loft", "stimulus": "/static/audio/wordpool/LOFT.wav", "conditions": [24, 800, "a", 12000], "internal_node_id": "0.0-139.0", "trial": 5, "time_elapsed": 1665922, "serialpos": 20, "key_press": -1, "wordID": 839, "type": "PRES_AUD", "trial_index": 193}, "uniqueid": "MTK3674:39DD6S19JQI09F6WLZBBNJPVMKBZE9", "dateTime": 1520957908916}, {"current_trial": 194, "trialdata": {"rt": -1000, "trial_type": "single-audio", "word": "survey", "stimulus": "/static/audio/wordpool/SURVEY.wav", "conditions": [24, 800, "a", 12000], "internal_node_id": "0.0-140.0", "trial": 5, "time_elapsed": 1667828, "serialpos": 21, "key_press": -1, "wordID": 1413, "type": "PRES_AUD", "trial_index": 194}, "uniqueid": "MTK3674:39DD6S19JQI09F6WLZBBNJPVMKBZE9", "dateTime": 1520957910821}, {"current_trial": 195, "trialdata": {"rt": -1000, "trial_type": "single-audio", "word": "cafe", "stimulus": "/static/audio/wordpool/CAFE.wav", "conditions": [24, 800, "a", 12000], "internal_node_id": "0.0-141.0", "trial": 5, "time_elapsed": 1669496, "serialpos": 22, "key_press": -1, "wordID": 215, "type": "PRES_AUD", "trial_index": 195}, "uniqueid": "MTK3674:39DD6S19JQI09F6WLZBBNJPVMKBZE9", "dateTime": 1520957912489}, {"current_trial": 196, "trialdata": {"rt": -1000, "trial_type": "single-audio", "word": "chapel", "stimulus": "/static/audio/wordpool/CHAPEL.wav", "conditions": [24, 800, "a", 12000], "internal_node_id": "0.0-142.0", "trial": 5, "time_elapsed": 1671370, "serialpos": 23, "key_press": -1, "wordID": 279, "type": "PRES_AUD", "trial_index": 196}, "uniqueid": "MTK3674:39DD6S19JQI09F6WLZBBNJPVMKBZE9", "dateTime": 1520957914364}, {"current_trial": 197, "trialdata": {"rt": -1, "trial_type": "single-stim", "stimulus": "", "internal_node_id": "0.0-143.0-0.0", "time_elapsed": 1672633, "key_press": -1, "type": "PRE_RECALL_DELAY", "trial_index": 197}, "uniqueid": "MTK3674:39DD6S19JQI09F6WLZBBNJPVMKBZE9", "dateTime": 1520957915626}, {"current_trial": 198, "trialdata": {"rt": -1000, "trial_type": "single-audio", "stimulus": "/static/audio/400Hz.wav", "internal_node_id": "0.0-144.0", "time_elapsed": 1673138, "key_press": -1, "type": "PRE_RECALL_ALERT", "trial_index": 198}, "uniqueid": "MTK3674:39DD6S19JQI09F6WLZBBNJPVMKBZE9", "dateTime": 1520957916131}, {"current_trial": 199, "trialdata": {"rt": [2216, 4776, 6535, 9370, 12252, 14987, 17509, 23713, 26371, 29477, 36412, 45160], "recwords": ["cafe", "chapel", "loft", "queen", "candy", "piston", "valve", "toaster", "cousin", "sibling", "stove", "swimmer"], "key_times": [933, 1169, 1392, 1585, 2216, 2695, 2917, 3216, 3593, 3991, 4343, 4776, 5043, 5203, 5697, 5883, 6535, 7255, 7871, 8226, 8336, 8971, 9370, 10129, 10382, 10900, 11340, 11653, 12252, 12641, 12858, 13292, 13662, 14126, 14378, 14987, 15698, 15996, 16377, 16712, 16982, 17509, 18282, 19001, 19409, 19822, 20052, 20188, 20991, 21114, 21252, 22444, 22738, 22935, 23075, 23713, 24248, 24613, 24802, 25147, 25494, 25704, 26371, 27113, 27497, 27959, 28236, 28416, 28652, 28866, 29477, 34106, 34523, 35161, 35536, 35814, 36412, 42427, 42780, 43250, 43468, 43577, 44422, 44572, 45160], "trial_type": "free-recall", "conditions": [24, 800, "a", 12000], "internal_node_id": "0.0-145.0-0.0", "key_presses": [67, 65, 70, 69, 13, 67, 72, 65, 80, 69, 76, 13, 76, 79, 70, 84, 13, 81, 85, 69, 69, 78, 13, 67, 65, 78, 68, 89, 13, 80, 73, 83, 84, 79, 78, 13, 86, 65, 76, 86, 69, 13, 84, 79, 65, 84, 69, 82, 8, 8, 8, 83, 84, 69, 82, 13, 67, 79, 85, 83, 73, 78, 13, 83, 73, 66, 76, 73, 78, 71, 13, 83, 84, 79, 86, 69, 13, 83, 87, 73, 77, 77, 69, 82, 13], "trial": 5, "time_elapsed": 1733143, "type": "FREE_RECALL", "trial_index": 199}, "uniqueid": "MTK3674:39DD6S19JQI09F6WLZBBNJPVMKBZE9", "dateTime": 1520957976142}, {"current_trial": 200, "trialdata": {"rt": 1434, "trial_type": "text", "internal_node_id": "0.0-146.0", "time_elapsed": 1736585, "key_press": 78, "type": "INSTRUCTIONS", "trial_index": 200}, "uniqueid": "MTK3674:39DD6S19JQI09F6WLZBBNJPVMKBZE9", "dateTime": 1520957979578}, {"current_trial": 201, "trialdata": {"rt": [2288, 5042, 7434, 9347, 11355, 13185, 16428, 18134, 20081, 23321], "trial_type": "math-distractor", "key_times": [1875, 2052, 2288, 4636, 4781, 5042, 6887, 7133, 7434, 8900, 9109, 9347, 10852, 11083, 11355, 12779, 12939, 13185, 15853, 16019, 16428, 17705, 17836, 18134, 19487, 19618, 20081, 22769, 22940, 23321], "responses": ["16", "14", "19", "17", "16", "21", "23", "11", "11", "20"], "num2": [6, 2, 5, 2, 3, 8, 7, 3, 5, 3, 1], "num3": [2, 6, 8, 6, 4, 4, 8, 5, 2, 9, 7], "conditions": [24, 800, "a", 24000], "internal_node_id": "0.0-147.0", "key_presses": [97, 102, 13, 97, 100, 13, 97, 105, 13, 97, 103, 13, 97, 102, 13, 98, 97, 13, 98, 99, 13, 97, 97, 13, 97, 97, 13, 98, 96, 13], "trial": 6, "time_elapsed": 1762589, "type": "DISTRACTOR", "trial_index": 201, "num1": [8, 4, 6, 9, 9, 9, 8, 3, 4, 8, 6]}, "uniqueid": "MTK3674:39DD6S19JQI09F6WLZBBNJPVMKBZE9", "dateTime": 1520958005582}, {"current_trial": 202, "trialdata": {"rt": -1, "trial_type": "single-stim", "stimulus": "<p id=\"stim\">10</p>", "internal_node_id": "0.0-148.0-0.0", "time_elapsed": 1765592, "key_press": -1, "trial_index": 202}, "uniqueid": "MTK3674:39DD6S19JQI09F6WLZBBNJPVMKBZE9", "dateTime": 1520958008585}, {"current_trial": 203, "trialdata": {"rt": -1, "trial_type": "single-stim", "stimulus": "<p id=\"stim\">9</p>", "internal_node_id": "0.0-148.0-1.0", "time_elapsed": 1766593, "key_press": -1, "trial_index": 203}, "uniqueid": "MTK3674:39DD6S19JQI09F6WLZBBNJPVMKBZE9", "dateTime": 1520958009586}, {"current_trial": 204, "trialdata": {"rt": -1, "trial_type": "single-stim", "stimulus": "<p id=\"stim\">8</p>", "internal_node_id": "0.0-148.0-2.0", "time_elapsed": 1767596, "key_press": -1, "trial_index": 204}, "uniqueid": "MTK3674:39DD6S19JQI09F6WLZBBNJPVMKBZE9", "dateTime": 1520958010589}, {"current_trial": 205, "trialdata": {"rt": -1, "trial_type": "single-stim", "stimulus": "<p id=\"stim\">7</p>", "internal_node_id": "0.0-148.0-3.0", "time_elapsed": 1768598, "key_press": -1, "trial_index": 205}, "uniqueid": "MTK3674:39DD6S19JQI09F6WLZBBNJPVMKBZE9", "dateTime": 1520958011591}, {"current_trial": 206, "trialdata": {"rt": -1, "trial_type": "single-stim", "stimulus": "<p id=\"stim\">6</p>", "internal_node_id": "0.0-148.0-4.0", "time_elapsed": 1769601, "key_press": -1, "trial_index": 206}, "uniqueid": "MTK3674:39DD6S19JQI09F6WLZBBNJPVMKBZE9", "dateTime": 1520958012594}, {"current_trial": 207, "trialdata": {"rt": -1, "trial_type": "single-stim", "stimulus": "<p id=\"stim\">5</p>", "internal_node_id": "0.0-148.0-5.0", "time_elapsed": 1770603, "key_press": -1, "trial_index": 207}, "uniqueid": "MTK3674:39DD6S19JQI09F6WLZBBNJPVMKBZE9", "dateTime": 1520958013596}, {"current_trial": 208, "trialdata": {"rt": -1, "trial_type": "single-stim", "stimulus": "<p id=\"stim\">4</p>", "internal_node_id": "0.0-148.0-6.0", "time_elapsed": 1771604, "key_press": -1, "trial_index": 208}, "uniqueid": "MTK3674:39DD6S19JQI09F6WLZBBNJPVMKBZE9", "dateTime": 1520958014597}, {"current_trial": 209, "trialdata": {"rt": -1, "trial_type": "single-stim", "stimulus": "<p id=\"stim\">3</p>", "internal_node_id": "0.0-148.0-7.0", "time_elapsed": 1772608, "key_press": -1, "trial_index": 209}, "uniqueid": "MTK3674:39DD6S19JQI09F6WLZBBNJPVMKBZE9", "dateTime": 1520958015601}, {"current_trial": 210, "trialdata": {"rt": -1, "trial_type": "single-stim", "stimulus": "<p id=\"stim\">2</p>", "internal_node_id": "0.0-148.0-8.0", "time_elapsed": 1773610, "key_press": -1, "trial_index": 210}, "uniqueid": "MTK3674:39DD6S19JQI09F6WLZBBNJPVMKBZE9", "dateTime": 1520958016603}, {"current_trial": 211, "trialdata": {"rt": -1, "trial_type": "single-stim", "stimulus": "<p id=\"stim\">1</p>", "internal_node_id": "0.0-148.0-9.0", "time_elapsed": 1774611, "key_press": -1, "trial_index": 211}, "uniqueid": "MTK3674:39DD6S19JQI09F6WLZBBNJPVMKBZE9", "dateTime": 1520958017604}, {"current_trial": 212, "trialdata": {"rt": -1, "trial_type": "single-stim", "stimulus": "<p id=\"stim\">+</p>", "internal_node_id": "0.0-149.0-0.0", "time_elapsed": 1776114, "key_press": -1, "type": "FIXATION", "trial_index": 212}, "uniqueid": "MTK3674:39DD6S19JQI09F6WLZBBNJPVMKBZE9", "dateTime": 1520958019107}, {"current_trial": 213, "trialdata": {"rt": -1000, "trial_type": "single-audio", "word": "outlaw", "stimulus": "/static/audio/wordpool/OUTLAW.wav", "conditions": [24, 800, "a", 24000], "internal_node_id": "0.0-150.0", "trial": 6, "time_elapsed": 1777734, "serialpos": 0, "key_press": -1, "wordID": 988, "type": "PRES_AUD", "trial_index": 213}, "uniqueid": "MTK3674:39DD6S19JQI09F6WLZBBNJPVMKBZE9", "dateTime": 1520958020728}, {"current_trial": 214, "trialdata": {"rt": -1000, "trial_type": "single-audio", "word": "snack", "stimulus": "/static/audio/wordpool/SNACK.wav", "conditions": [24, 800, "a", 24000], "internal_node_id": "0.0-151.0", "trial": 6, "time_elapsed": 1779405, "serialpos": 1, "key_press": -1, "wordID": 1330, "type": "PRES_AUD", "trial_index": 214}, "uniqueid": "MTK3674:39DD6S19JQI09F6WLZBBNJPVMKBZE9", "dateTime": 1520958022398}, {"current_trial": 215, "trialdata": {"rt": -1000, "trial_type": "single-audio", "word": "garlic", "stimulus": "/static/audio/wordpool/GARLIC.wav", "conditions": [24, 800, "a", 24000], "internal_node_id": "0.0-152.0", "trial": 6, "time_elapsed": 1781243, "serialpos": 2, "key_press": -1, "wordID": 623, "type": "PRES_AUD", "trial_index": 215}, "uniqueid": "MTK3674:39DD6S19JQI09F6WLZBBNJPVMKBZE9", "dateTime": 1520958024236}, {"current_trial": 216, "trialdata": {"rt": -1000, "trial_type": "single-audio", "word": "girl", "stimulus": "/static/audio/wordpool/GIRL.wav", "conditions": [24, 800, "a", 24000], "internal_node_id": "0.0-153.0", "trial": 6, "time_elapsed": 1782949, "serialpos": 3, "key_press": -1, "wordID": 636, "type": "PRES_AUD", "trial_index": 216}, "uniqueid": "MTK3674:39DD6S19JQI09F6WLZBBNJPVMKBZE9", "dateTime": 1520958025942}, {"current_trial": 217, "trialdata": {"rt": -1000, "trial_type": "single-audio", "word": "salad", "stimulus": "/static/audio/wordpool/SALAD.wav", "conditions": [24, 800, "a", 24000], "internal_node_id": "0.0-154.0", "trial": 6, "time_elapsed": 1784878, "serialpos": 4, "key_press": -1, "wordID": 1223, "type": "PRES_AUD", "trial_index": 217}, "uniqueid": "MTK3674:39DD6S19JQI09F6WLZBBNJPVMKBZE9", "dateTime": 1520958027871}, {"current_trial": 218, "trialdata": {"rt": -1000, "trial_type": "single-audio", "word": "frame", "stimulus": "/static/audio/wordpool/FRAME.wav", "conditions": [24, 800, "a", 24000], "internal_node_id": "0.0-155.0", "trial": 6, "time_elapsed": 1786491, "serialpos": 5, "key_press": -1, "wordID": 599, "type": "PRES_AUD", "trial_index": 218}, "uniqueid": "MTK3674:39DD6S19JQI09F6WLZBBNJPVMKBZE9", "dateTime": 1520958029485}, {"current_trial": 219, "trialdata": {"rt": -1000, "trial_type": "single-audio", "word": "spoon", "stimulus": "/static/audio/wordpool/SPOON.wav", "conditions": [24, 800, "a", 24000], "internal_node_id": "0.0-156.0", "trial": 6, "time_elapsed": 1788306, "serialpos": 6, "key_press": -1, "wordID": 1356, "type": "PRES_AUD", "trial_index": 219}, "uniqueid": "MTK3674:39DD6S19JQI09F6WLZBBNJPVMKBZE9", "dateTime": 1520958031300}, {"current_trial": 220, "trialdata": {"rt": -1000, "trial_type": "single-audio", "word": "scissors", "stimulus": "/static/audio/wordpool/SCISSORS.wav", "conditions": [24, 800, "a", 24000], "internal_node_id": "0.0-157.0", "trial": 6, "time_elapsed": 1789923, "serialpos": 7, "key_press": -1, "wordID": 1249, "type": "PRES_AUD", "trial_index": 220}, "uniqueid": "MTK3674:39DD6S19JQI09F6WLZBBNJPVMKBZE9", "dateTime": 1520958032916}, {"current_trial": 221, "trialdata": {"rt": -1000, "trial_type": "single-audio", "word": "leopard", "stimulus": "/static/audio/wordpool/LEOPARD.wav", "conditions": [24, 800, "a", 24000], "internal_node_id": "0.0-158.0", "trial": 6, "time_elapsed": 1791721, "serialpos": 8, "key_press": -1, "wordID": 811, "type": "PRES_AUD", "trial_index": 221}, "uniqueid": "MTK3674:39DD6S19JQI09F6WLZBBNJPVMKBZE9", "dateTime": 1520958034714}, {"current_trial": 222, "trialdata": {"rt": -1000, "trial_type": "single-audio", "word": "zebra", "stimulus": "/static/audio/wordpool/ZEBRA.wav", "conditions": [24, 800, "a", 24000], "internal_node_id": "0.0-159.0", "trial": 6, "time_elapsed": 1793535, "serialpos": 9, "key_press": -1, "wordID": 1634, "type": "PRES_AUD", "trial_index": 222}, "uniqueid": "MTK3674:39DD6S19JQI09F6WLZBBNJPVMKBZE9", "dateTime": 1520958036528}, {"current_trial": 223, "trialdata": {"rt": -1000, "trial_type": "single-audio", "word": "barrel", "stimulus": "/static/audio/wordpool/BARREL.wav", "conditions": [24, 800, "a", 24000], "internal_node_id": "0.0-160.0", "trial": 6, "time_elapsed": 1795224, "serialpos": 10, "key_press": -1, "wordID": 90, "type": "PRES_AUD", "trial_index": 223}, "uniqueid": "MTK3674:39DD6S19JQI09F6WLZBBNJPVMKBZE9", "dateTime": 1520958038217}, {"current_trial": 224, "trialdata": {"rt": -1000, "trial_type": "single-audio", "word": "hook", "stimulus": "/static/audio/wordpool/HOOK.wav", "conditions": [24, 800, "a", 24000], "internal_node_id": "0.0-161.0", "trial": 6, "time_elapsed": 1797041, "serialpos": 11, "key_press": -1, "wordID": 714, "type": "PRES_AUD", "trial_index": 224}, "uniqueid": "MTK3674:39DD6S19JQI09F6WLZBBNJPVMKBZE9", "dateTime": 1520958040035}, {"current_trial": 225, "trialdata": {"rt": -1000, "trial_type": "single-audio", "word": "sidewalk", "stimulus": "/static/audio/wordpool/SIDEWALK.wav", "conditions": [24, 800, "a", 24000], "internal_node_id": "0.0-162.0", "trial": 6, "time_elapsed": 1798659, "serialpos": 12, "key_press": -1, "wordID": 1302, "type": "PRES_AUD", "trial_index": 225}, "uniqueid": "MTK3674:39DD6S19JQI09F6WLZBBNJPVMKBZE9", "dateTime": 1520958041652}, {"current_trial": 226, "trialdata": {"rt": -1000, "trial_type": "single-audio", "word": "spouse", "stimulus": "/static/audio/wordpool/SPOUSE.wav", "conditions": [24, 800, "a", 24000], "internal_node_id": "0.0-163.0", "trial": 6, "time_elapsed": 1800599, "serialpos": 13, "key_press": -1, "wordID": 1357, "type": "PRES_AUD", "trial_index": 226}, "uniqueid": "MTK3674:39DD6S19JQI09F6WLZBBNJPVMKBZE9", "dateTime": 1520958043593}, {"current_trial": 227, "trialdata": {"rt": -1000, "trial_type": "single-audio", "word": "chipmunk", "stimulus": "/static/audio/wordpool/CHIPMUNK.wav", "conditions": [24, 800, "a", 24000], "internal_node_id": "0.0-164.0", "trial": 6, "time_elapsed": 1802334, "serialpos": 14, "key_press": -1, "wordID": 303, "type": "PRES_AUD", "trial_index": 227}, "uniqueid": "MTK3674:39DD6S19JQI09F6WLZBBNJPVMKBZE9", "dateTime": 1520958045327}, {"current_trial": 228, "trialdata": {"rt": -1000, "trial_type": "single-audio", "word": "rabbit", "stimulus": "/static/audio/wordpool/RABBIT.wav", "conditions": [24, 800, "a", 24000], "internal_node_id": "0.0-165.0", "trial": 6, "time_elapsed": 1804223, "serialpos": 15, "key_press": -1, "wordID": 1151, "type": "PRES_AUD", "trial_index": 228}, "uniqueid": "MTK3674:39DD6S19JQI09F6WLZBBNJPVMKBZE9", "dateTime": 1520958047216}, {"current_trial": 229, "trialdata": {"rt": -1000, "trial_type": "single-audio", "word": "grave", "stimulus": "/static/audio/wordpool/GRAVE.wav", "conditions": [24, 800, "a", 24000], "internal_node_id": "0.0-166.0", "trial": 6, "time_elapsed": 1805931, "serialpos": 16, "key_press": -1, "wordID": 657, "type": "PRES_AUD", "trial_index": 229}, "uniqueid": "MTK3674:39DD6S19JQI09F6WLZBBNJPVMKBZE9", "dateTime": 1520958048926}, {"current_trial": 230, "trialdata": {"rt": -1000, "trial_type": "single-audio", "word": "japan", "stimulus": "/static/audio/wordpool/JAPAN.wav", "conditions": [24, 800, "a", 24000], "internal_node_id": "0.0-167.0", "trial": 6, "time_elapsed": 1807565, "serialpos": 17, "key_press": -1, "wordID": 748, "type": "PRES_AUD", "trial_index": 230}, "uniqueid": "MTK3674:39DD6S19JQI09F6WLZBBNJPVMKBZE9", "dateTime": 1520958050558}, {"current_trial": 231, "trialdata": {"rt": -1000, "trial_type": "single-audio", "word": "boyfriend", "stimulus": "/static/audio/wordpool/BOYFRIEND.wav", "conditions": [24, 800, "a", 24000], "internal_node_id": "0.0-168.0", "trial": 6, "time_elapsed": 1809532, "serialpos": 18, "key_press": -1, "wordID": 161, "type": "PRES_AUD", "trial_index": 231}, "uniqueid": "MTK3674:39DD6S19JQI09F6WLZBBNJPVMKBZE9", "dateTime": 1520958052525}, {"current_trial": 232, "trialdata": {"rt": -1000, "trial_type": "single-audio", "word": "dresser", "stimulus": "/static/audio/wordpool/DRESSER.wav", "conditions": [24, 800, "a", 24000], "internal_node_id": "0.0-169.0", "trial": 6, "time_elapsed": 1811196, "serialpos": 19, "key_press": -1, "wordID": 495, "type": "PRES_AUD", "trial_index": 232}, "uniqueid": "MTK3674:39DD6S19JQI09F6WLZBBNJPVMKBZE9", "dateTime": 1520958054189}, {"current_trial": 233, "trialdata": {"rt": -1000, "trial_type": "single-audio", "word": "plaza", "stimulus": "/static/audio/wordpool/PLAZA.wav", "conditions": [24, 800, "a", 24000], "internal_node_id": "0.0-170.0", "trial": 6, "time_elapsed": 1812881, "serialpos": 20, "key_press": -1, "wordID": 1087, "type": "PRES_AUD", "trial_index": 233}, "uniqueid": "MTK3674:39DD6S19JQI09F6WLZBBNJPVMKBZE9", "dateTime": 1520958055874}, {"current_trial": 234, "trialdata": {"rt": -1000, "trial_type": "single-audio", "word": "primate", "stimulus": "/static/audio/wordpool/PRIMATE.wav", "conditions": [24, 800, "a", 24000], "internal_node_id": "0.0-171.0", "trial": 6, "time_elapsed": 1814702, "serialpos": 21, "key_press": -1, "wordID": 1122, "type": "PRES_AUD", "trial_index": 234}, "uniqueid": "MTK3674:39DD6S19JQI09F6WLZBBNJPVMKBZE9", "dateTime": 1520958057697}, {"current_trial": 235, "trialdata": {"rt": -1000, "trial_type": "single-audio", "word": "shrub", "stimulus": "/static/audio/wordpool/SHRUB.wav", "conditions": [24, 800, "a", 24000], "internal_node_id": "0.0-172.0", "trial": 6, "time_elapsed": 1816551, "serialpos": 22, "key_press": -1, "wordID": 1298, "type": "PRES_AUD", "trial_index": 235}, "uniqueid": "MTK3674:39DD6S19JQI09F6WLZBBNJPVMKBZE9", "dateTime": 1520958059544}, {"current_trial": 236, "trialdata": {"rt": -1000, "trial_type": "single-audio", "word": "foot", "stimulus": "/static/audio/wordpool/FOOT.wav", "conditions": [24, 800, "a", 24000], "internal_node_id": "0.0-173.0", "trial": 6, "time_elapsed": 1818471, "serialpos": 23, "key_press": -1, "wordID": 589, "type": "PRES_AUD", "trial_index": 236}, "uniqueid": "MTK3674:39DD6S19JQI09F6WLZBBNJPVMKBZE9", "dateTime": 1520958061464}, {"current_trial": 237, "trialdata": {"rt": -1, "trial_type": "single-stim", "stimulus": "", "internal_node_id": "0.0-174.0-0.0", "time_elapsed": 1819778, "key_press": -1, "type": "PRE_RECALL_DELAY", "trial_index": 237}, "uniqueid": "MTK3674:39DD6S19JQI09F6WLZBBNJPVMKBZE9", "dateTime": 1520958062771}, {"current_trial": 238, "trialdata": {"rt": -1000, "trial_type": "single-audio", "stimulus": "/static/audio/400Hz.wav", "internal_node_id": "0.0-175.0", "time_elapsed": 1820283, "key_press": -1, "type": "PRE_RECALL_ALERT", "trial_index": 238}, "uniqueid": "MTK3674:39DD6S19JQI09F6WLZBBNJPVMKBZE9", "dateTime": 1520958063276}, {"current_trial": 239, "trialdata": {"rt": [2694, 4489, 8041, 13898, 16369, 19428, 21911, 25118, 27956, 30380, 37727, 40954, 46291], "recwords": ["shrub", "foot", "japan", "boyfriend", "girl", "garlic", "outlaw", "shrub", "snack", "frame", "rabbit", "leopard", "primate"], "key_times": [751, 1306, 1652, 2045, 2293, 2694, 3310, 3656, 3780, 4092, 4489, 5383, 5626, 6090, 6752, 7157, 7667, 8041, 8726, 9104, 9763, 10209, 10445, 10862, 11196, 11801, 12650, 12986, 13287, 13898, 14611, 14980, 15435, 15792, 16369, 17185, 17494, 17775, 18187, 18420, 18766, 19428, 19776, 20017, 20258, 20707, 21119, 21277, 21911, 22415, 23010, 23301, 23705, 24730, 25118, 25555, 26238, 26601, 27046, 27449, 27956, 28621, 28804, 29028, 29388, 29722, 30380, 35700, 35918, 36434, 36555, 36857, 37123, 37727, 38093, 38536, 38908, 39462, 39988, 40260, 40445, 40954, 41333, 41337, 41683, 42078, 42654, 42762, 43188, 43926, 44339, 44558, 44960, 45446, 45644, 46291], "trial_type": "free-recall", "conditions": [24, 800, "a", 24000], "internal_node_id": "0.0-176.0-0.0", "key_presses": [83, 72, 82, 85, 66, 13, 70, 79, 79, 84, 13, 16, 74, 65, 80, 65, 78, 13, 66, 79, 89, 70, 82, 73, 69, 77, 8, 78, 68, 13, 71, 73, 82, 76, 13, 71, 65, 82, 76, 73, 67, 13, 79, 85, 84, 76, 65, 87, 13, 83, 72, 82, 85, 66, 13, 83, 78, 65, 67, 75, 13, 70, 82, 65, 77, 69, 13, 82, 65, 66, 66, 73, 84, 13, 76, 69, 79, 80, 65, 82, 68, 13, 80, 79, 82, 73, 8, 8, 8, 82, 73, 77, 65, 84, 69, 13], "trial": 6, "time_elapsed": 1880287, "type": "FREE_RECALL", "trial_index": 239}, "uniqueid": "MTK3674:39DD6S19JQI09F6WLZBBNJPVMKBZE9", "dateTime": 1520958123286}, {"current_trial": 240, "trialdata": {"rt": 1211, "trial_type": "text", "internal_node_id": "0.0-177.0", "time_elapsed": 1883506, "key_press": 32, "type": "INSTRUCTIONS", "trial_index": 240}, "uniqueid": "MTK3674:39DD6S19JQI09F6WLZBBNJPVMKBZE9", "dateTime": 1520958126499}, {"current_trial": 241, "trialdata": {"rt": [2295, 5180, 7436, 9126, 11595, 13351, 15243, 17037, 18823, 20576, 22564], "trial_type": "math-distractor", "key_times": [1962, 2081, 2295, 4817, 4964, 5180, 7072, 7208, 7436, 8880, 9126, 11122, 11309, 11595, 12949, 13118, 13351, 14698, 14915, 15243, 16378, 16728, 17037, 18341, 18580, 18823, 20077, 20287, 20576, 22071, 22315, 22564, 23986], "responses": ["12", "21", "12", "6", "10", "10", "13", "13", "18", "13", "17"], "num2": [8, 9, 6, 3, 7, 2, 1, 3, 5, 6, 7, 2], "num3": [1, 7, 3, 2, 2, 5, 4, 5, 9, 6, 4, 6], "conditions": [24, 1600, "a", 24000], "internal_node_id": "0.0-178.0", "key_presses": [97, 98, 13, 98, 97, 13, 97, 98, 13, 102, 13, 97, 96, 13, 97, 96, 13, 97, 99, 13, 97, 99, 13, 97, 104, 13, 97, 99, 13, 97, 103, 13, 97], "trial": 7, "time_elapsed": 1909509, "type": "DISTRACTOR", "trial_index": 241, "num1": [3, 5, 3, 1, 1, 3, 8, 5, 4, 1, 6, 7]}, "uniqueid": "MTK3674:39DD6S19JQI09F6WLZBBNJPVMKBZE9", "dateTime": 1520958152502}, {"current_trial": 242, "trialdata": {"rt": -1, "trial_type": "single-stim", "stimulus": "<p id=\"stim\">10</p>", "internal_node_id": "0.0-179.0-0.0", "time_elapsed": 1912510, "key_press": -1, "trial_index": 242}, "uniqueid": "MTK3674:39DD6S19JQI09F6WLZBBNJPVMKBZE9", "dateTime": 1520958155503}, {"current_trial": 243, "trialdata": {"rt": -1, "trial_type": "single-stim", "stimulus": "<p id=\"stim\">9</p>", "internal_node_id": "0.0-179.0-1.0", "time_elapsed": 1913512, "key_press": -1, "trial_index": 243}, "uniqueid": "MTK3674:39DD6S19JQI09F6WLZBBNJPVMKBZE9", "dateTime": 1520958156505}, {"current_trial": 244, "trialdata": {"rt": -1, "trial_type": "single-stim", "stimulus": "<p id=\"stim\">8</p>", "internal_node_id": "0.0-179.0-2.0", "time_elapsed": 1914515, "key_press": -1, "trial_index": 244}, "uniqueid": "MTK3674:39DD6S19JQI09F6WLZBBNJPVMKBZE9", "dateTime": 1520958157508}, {"current_trial": 245, "trialdata": {"rt": -1, "trial_type": "single-stim", "stimulus": "<p id=\