{"assignmentId": "3H7XDTSHKDYUZYXIG7HSOIGPITUGWF", "workerId": "MTK3537", "questiondata": {"origin": "United States", "strat-rehearsal": "72", "marital": "Married/Domestic Partnership", "education": "Some college", "ethnicity": "Not Hispanic", "color_depth": 24, "distracted": "No", "wrote-notes": "No", "strat-other": "I tried to sing them", "screen_width": 1680, "avail_screen_width": 1517, "avail_screen_height": 1050, "strat-image": "81", "language": "English", "gender": "Female", "age": "42", "gender_other": "", "race": ["White"], "strat-categorize": "96", "pixel_depth": 24, "strat-spatial": "23", "strat-story": "93", "race_other": "", "screen_height": 1050}, "bonus": 0, "hitId": "378G7J1SJL5US03XKAM2ZVZTK0UEWP", "counterbalance": 912, "useragent": "Mozilla/5.0 (Windows NT 10.0; Win64; x64) AppleWebKit/537.36 (KHTML, like Gecko) Chrome/64.0.3282.186 Safari/537.36", "eventdata": [{"eventtype": "initialized", "interval": 0, "value": null, "timestamp": 1520786940982}, {"eventtype": "window_resize", "interval": 0, "value": [1517, 1003], "timestamp": 1520786940982}], "data": [{"current_trial": 0, "trialdata": {"rt": 11516, "trial_type": "text", "internal_node_id": "0.0-0.0", "time_elapsed": 11519, "key_press": 32, "type": "INSTRUCTIONS", "trial_index": 0}, "uniqueid": "MTK3537:3H7XDTSHKDYUZYXIG7HSOIGPITUGWF", "dateTime": 1520786952952}, {"current_trial": 1, "trialdata": {"rt": 10996, "trial_type": "text", "internal_node_id": "0.0-1.0", "time_elapsed": 22517, "key_press": 32, "type": "INSTRUCTIONS", "trial_index": 1}, "uniqueid": "MTK3537:3H7XDTSHKDYUZYXIG7HSOIGPITUGWF", "dateTime": 1520786963949}, {"current_trial": 2, "trialdata": {"rt": [20127], "trial_type": "audio-test", "responses": ["ocean"], "internal_node_id": "0.0-2.0", "time_elapsed": 42764, "type": "AUDIO_TEST", "trial_index": 2}, "uniqueid": "MTK3537:3H7XDTSHKDYUZYXIG7HSOIGPITUGWF", "dateTime": 1520786984197}, {"current_trial": 3, "trialdata": {"rt": [7948], "trial_type": "audio-test", "responses": ["crystal"], "internal_node_id": "0.0-3.0", "time_elapsed": 50716, "type": "AUDIO_TEST", "trial_index": 3}, "uniqueid": "MTK3537:3H7XDTSHKDYUZYXIG7HSOIGPITUGWF", "dateTime": 1520786992148}, {"current_trial": 4, "trialdata": {"rt": [6173], "trial_type": "audio-test", "responses": ["spice"], "internal_node_id": "0.0-4.0", "time_elapsed": 56893, "type": "AUDIO_TEST", "trial_index": 4}, "uniqueid": "MTK3537:3H7XDTSHKDYUZYXIG7HSOIGPITUGWF", "dateTime": 1520786998325}, {"current_trial": 5, "trialdata": {"rt": 23574, "trial_type": "survey-text", "responses": "{\"Q0\":\"12:45am\",\"Q1\":\"6:45am\",\"Q2\":\"5\"}", "internal_node_id": "0.0-5.0", "time_elapsed": 81219, "type": "SLEEP_SURVEY", "trial_index": 5}, "uniqueid": "MTK3537:3H7XDTSHKDYUZYXIG7HSOIGPITUGWF", "dateTime": 1520787022651}, {"current_trial": 6, "trialdata": {"rt": 32808, "trial_type": "text", "internal_node_id": "0.0-6.0", "time_elapsed": 115028, "key_press": 32, "type": "INSTRUCTIONS", "trial_index": 6}, "uniqueid": "MTK3537:3H7XDTSHKDYUZYXIG7HSOIGPITUGWF", "dateTime": 1520787056460}, {"current_trial": 7, "trialdata": {"rt": 16145, "trial_type": "text", "internal_node_id": "0.0-7.0", "time_elapsed": 131674, "key_press": 32, "type": "INSTRUCTIONS", "trial_index": 7}, "uniqueid": "MTK3537:3H7XDTSHKDYUZYXIG7HSOIGPITUGWF", "dateTime": 1520787073107}, {"current_trial": 8, "trialdata": {"rt": 10466, "trial_type": "text", "internal_node_id": "0.0-8.0", "time_elapsed": 142642, "key_press": 32, "type": "INSTRUCTIONS", "trial_index": 8}, "uniqueid": "MTK3537:3H7XDTSHKDYUZYXIG7HSOIGPITUGWF", "dateTime": 1520787084074}, {"current_trial": 9, "trialdata": {"rt": [5316, 8460, 11140, 13580, 16372], "trial_type": "math-distractor", "key_times": [3060, 3204, 5316, 7653, 7788, 8460, 10212, 10660, 11140, 13012, 13580, 15524, 15972, 16372], "responses": ["12", "17", "18", "9", "17"], "num2": [6, 9, 8, 1, 6, 6], "num3": [3, 1, 8, 2, 4, 8], "conditions": [18, 1200, "v", 18000], "internal_node_id": "0.0-9.0", "key_presses": [49, 50, 13, 49, 55, 13, 49, 56, 13, 57, 13, 49, 55, 13], "trial": 0, "time_elapsed": 161655, "type": "DISTRACTOR", "trial_index": 9, "num1": [3, 7, 2, 6, 7, 2]}, "uniqueid": "MTK3537:3H7XDTSHKDYUZYXIG7HSOIGPITUGWF", "dateTime": 1520787103087}, {"current_trial": 10, "trialdata": {"rt": -1, "trial_type": "single-stim", "stimulus": "<p id=\"stim\">10</p>", "internal_node_id": "0.0-10.0-0.0", "time_elapsed": 164659, "key_press": -1, "trial_index": 10}, "uniqueid": "MTK3537:3H7XDTSHKDYUZYXIG7HSOIGPITUGWF", "dateTime": 1520787106091}, {"current_trial": 11, "trialdata": {"rt": -1, "trial_type": "single-stim", "stimulus": "<p id=\"stim\">9</p>", "internal_node_id": "0.0-10.0-1.0", "time_elapsed": 165661, "key_press": -1, "trial_index": 11}, "uniqueid": "MTK3537:3H7XDTSHKDYUZYXIG7HSOIGPITUGWF", "dateTime": 1520787107093}, {"current_trial": 12, "trialdata": {"rt": -1, "trial_type": "single-stim", "stimulus": "<p id=\"stim\">8</p>", "internal_node_id": "0.0-10.0-2.0", "time_elapsed": 166663, "key_press": -1, "trial_index": 12}, "uniqueid": "MTK3537:3H7XDTSHKDYUZYXIG7HSOIGPITUGWF", "dateTime": 1520787108095}, {"current_trial": 13, "trialdata": {"rt": -1, "trial_type": "single-stim", "stimulus": "<p id=\"stim\">7</p>", "internal_node_id": "0.0-10.0-3.0", "time_elapsed": 167664, "key_press": -1, "trial_index": 13}, "uniqueid": "MTK3537:3H7XDTSHKDYUZYXIG7HSOIGPITUGWF", "dateTime": 1520787109096}, {"current_trial": 14, "trialdata": {"rt": -1, "trial_type": "single-stim", "stimulus": "<p id=\"stim\">6</p>", "internal_node_id": "0.0-10.0-4.0", "time_elapsed": 168666, "key_press": -1, "trial_index": 14}, "uniqueid": "MTK3537:3H7XDTSHKDYUZYXIG7HSOIGPITUGWF", "dateTime": 1520787110098}, {"current_trial": 15, "trialdata": {"rt": -1, "trial_type": "single-stim", "stimulus": "<p id=\"stim\">5</p>", "internal_node_id": "0.0-10.0-5.0", "time_elapsed": 169668, "key_press": -1, "trial_index": 15}, "uniqueid": "MTK3537:3H7XDTSHKDYUZYXIG7HSOIGPITUGWF", "dateTime": 1520787111100}, {"current_trial": 16, "trialdata": {"rt": -1, "trial_type": "single-stim", "stimulus": "<p id=\"stim\">4</p>", "internal_node_id": "0.0-10.0-6.0", "time_elapsed": 170669, "key_press": -1, "trial_index": 16}, "uniqueid": "MTK3537:3H7XDTSHKDYUZYXIG7HSOIGPITUGWF", "dateTime": 1520787112101}, {"current_trial": 17, "trialdata": {"rt": -1, "trial_type": "single-stim", "stimulus": "<p id=\"stim\">3</p>", "internal_node_id": "0.0-10.0-7.0", "time_elapsed": 171672, "key_press": -1, "trial_index": 17}, "uniqueid": "MTK3537:3H7XDTSHKDYUZYXIG7HSOIGPITUGWF", "dateTime": 1520787113104}, {"current_trial": 18, "trialdata": {"rt": -1, "trial_type": "single-stim", "stimulus": "<p id=\"stim\">2</p>", "internal_node_id": "0.0-10.0-8.0", "time_elapsed": 172674, "key_press": -1, "trial_index": 18}, "uniqueid": "MTK3537:3H7XDTSHKDYUZYXIG7HSOIGPITUGWF", "dateTime": 1520787114107}, {"current_trial": 19, "trialdata": {"rt": -1, "trial_type": "single-stim", "stimulus": "<p id=\"stim\">1</p>", "internal_node_id": "0.0-10.0-9.0", "time_elapsed": 173676, "key_press": -1, "trial_index": 19}, "uniqueid": "MTK3537:3H7XDTSHKDYUZYXIG7HSOIGPITUGWF", "dateTime": 1520787115108}, {"current_trial": 20, "trialdata": {"rt": -1, "trial_type": "single-stim", "stimulus": "<p id=\"stim\">+</p>", "internal_node_id": "0.0-11.0-0.0", "time_elapsed": 175178, "key_press": -1, "type": "FIXATION", "trial_index": 20}, "uniqueid": "MTK3537:3H7XDTSHKDYUZYXIG7HSOIGPITUGWF", "dateTime": 1520787116610}, {"current_trial": 21, "trialdata": {"rt": -1, "trial_type": "single-stim", "word": "gavel", "stimulus": "<p id=\"stim\">GAVEL</p>", "conditions": [18, 1200, "v", 18000], "internal_node_id": "0.0-12.0", "trial": 0, "time_elapsed": 176380, "serialpos": 0, "key_press": -1, "wordID": 626, "type": "PRES_VIS", "trial_index": 21}, "uniqueid": "MTK3537:3H7XDTSHKDYUZYXIG7HSOIGPITUGWF", "dateTime": 1520787117812}, {"current_trial": 22, "trialdata": {"rt": -1, "trial_type": "single-stim", "word": "kitchen", "stimulus": "<p id=\"stim\">KITCHEN</p>", "conditions": [18, 1200, "v", 18000], "internal_node_id": "0.0-13.0", "trial": 0, "time_elapsed": 178521, "serialpos": 1, "key_press": -1, "wordID": 777, "type": "PRES_VIS", "trial_index": 22}, "uniqueid": "MTK3537:3H7XDTSHKDYUZYXIG7HSOIGPITUGWF", "dateTime": 1520787119953}, {"current_trial": 23, "trialdata": {"rt": -1, "trial_type": "single-stim", "word": "carriage", "stimulus": "<p id=\"stim\">CARRIAGE</p>", "conditions": [18, 1200, "v", 18000], "internal_node_id": "0.0-14.0", "trial": 0, "time_elapsed": 180664, "serialpos": 2, "key_press": -1, "wordID": 247, "type": "PRES_VIS", "trial_index": 23}, "uniqueid": "MTK3537:3H7XDTSHKDYUZYXIG7HSOIGPITUGWF", "dateTime": 1520787122096}, {"current_trial": 24, "trialdata": {"rt": -1, "trial_type": "single-stim", "word": "neutron", "stimulus": "<p id=\"stim\">NEUTRON</p>", "conditions": [18, 1200, "v", 18000], "internal_node_id": "0.0-15.0", "trial": 0, "time_elapsed": 182754, "serialpos": 3, "key_press": -1, "wordID": 946, "type": "PRES_VIS", "trial_index": 24}, "uniqueid": "MTK3537:3H7XDTSHKDYUZYXIG7HSOIGPITUGWF", "dateTime": 1520787124187}, {"current_trial": 25, "trialdata": {"rt": -1, "trial_type": "single-stim", "word": "chipmunk", "stimulus": "<p id=\"stim\">CHIPMUNK</p>", "conditions": [18, 1200, "v", 18000], "internal_node_id": "0.0-16.0", "trial": 0, "time_elapsed": 184806, "serialpos": 4, "key_press": -1, "wordID": 303, "type": "PRES_VIS", "trial_index": 25}, "uniqueid": "MTK3537:3H7XDTSHKDYUZYXIG7HSOIGPITUGWF", "dateTime": 1520787126238}, {"current_trial": 26, "trialdata": {"rt": -1, "trial_type": "single-stim", "word": "rocket", "stimulus": "<p id=\"stim\">ROCKET</p>", "conditions": [18, 1200, "v", 18000], "internal_node_id": "0.0-17.0", "trial": 0, "time_elapsed": 186872, "serialpos": 5, "key_press": -1, "wordID": 1201, "type": "PRES_VIS", "trial_index": 26}, "uniqueid": "MTK3537:3H7XDTSHKDYUZYXIG7HSOIGPITUGWF", "dateTime": 1520787128304}, {"current_trial": 27, "trialdata": {"rt": -1, "trial_type": "single-stim", "word": "pigeon", "stimulus": "<p id=\"stim\">PIGEON</p>", "conditions": [18, 1200, "v", 18000], "internal_node_id": "0.0-18.0", "trial": 0, "time_elapsed": 189026, "serialpos": 6, "key_press": -1, "wordID": 1064, "type": "PRES_VIS", "trial_index": 27}, "uniqueid": "MTK3537:3H7XDTSHKDYUZYXIG7HSOIGPITUGWF", "dateTime": 1520787130458}, {"current_trial": 28, "trialdata": {"rt": -1, "trial_type": "single-stim", "word": "lava", "stimulus": "<p id=\"stim\">LAVA</p>", "conditions": [18, 1200, "v", 18000], "internal_node_id": "0.0-19.0", "trial": 0, "time_elapsed": 191082, "serialpos": 7, "key_press": -1, "wordID": 803, "type": "PRES_VIS", "trial_index": 28}, "uniqueid": "MTK3537:3H7XDTSHKDYUZYXIG7HSOIGPITUGWF", "dateTime": 1520787132514}, {"current_trial": 29, "trialdata": {"rt": -1, "trial_type": "single-stim", "word": "shorts", "stimulus": "<p id=\"stim\">SHORTS</p>", "conditions": [18, 1200, "v", 18000], "internal_node_id": "0.0-20.0", "trial": 0, "time_elapsed": 193439, "serialpos": 8, "key_press": -1, "wordID": 1292, "type": "PRES_VIS", "trial_index": 29}, "uniqueid": "MTK3537:3H7XDTSHKDYUZYXIG7HSOIGPITUGWF", "dateTime": 1520787134871}, {"current_trial": 30, "trialdata": {"rt": -1, "trial_type": "single-stim", "word": "lightning", "stimulus": "<p id=\"stim\">LIGHTNING</p>", "conditions": [18, 1200, "v", 18000], "internal_node_id": "0.0-21.0", "trial": 0, "time_elapsed": 195802, "serialpos": 9, "key_press": -1, "wordID": 819, "type": "PRES_VIS", "trial_index": 30}, "uniqueid": "MTK3537:3H7XDTSHKDYUZYXIG7HSOIGPITUGWF", "dateTime": 1520787137234}, {"current_trial": 31, "trialdata": {"rt": -1, "trial_type": "single-stim", "word": "frame", "stimulus": "<p id=\"stim\">FRAME</p>", "conditions": [18, 1200, "v", 18000], "internal_node_id": "0.0-22.0", "trial": 0, "time_elapsed": 197829, "serialpos": 10, "key_press": -1, "wordID": 599, "type": "PRES_VIS", "trial_index": 31}, "uniqueid": "MTK3537:3H7XDTSHKDYUZYXIG7HSOIGPITUGWF", "dateTime": 1520787139261}, {"current_trial": 32, "trialdata": {"rt": -1, "trial_type": "single-stim", "word": "pastry", "stimulus": "<p id=\"stim\">PASTRY</p>", "conditions": [18, 1200, "v", 18000], "internal_node_id": "0.0-23.0", "trial": 0, "time_elapsed": 200022, "serialpos": 11, "key_press": -1, "wordID": 1021, "type": "PRES_VIS", "trial_index": 32}, "uniqueid": "MTK3537:3H7XDTSHKDYUZYXIG7HSOIGPITUGWF", "dateTime": 1520787141454}, {"current_trial": 33, "trialdata": {"rt": -1, "trial_type": "single-stim", "word": "sidewalk", "stimulus": "<p id=\"stim\">SIDEWALK</p>", "conditions": [18, 1200, "v", 18000], "internal_node_id": "0.0-24.0", "trial": 0, "time_elapsed": 202332, "serialpos": 12, "key_press": -1, "wordID": 1302, "type": "PRES_VIS", "trial_index": 33}, "uniqueid": "MTK3537:3H7XDTSHKDYUZYXIG7HSOIGPITUGWF", "dateTime": 1520787143764}, {"current_trial": 34, "trialdata": {"rt": -1, "trial_type": "single-stim", "word": "girl", "stimulus": "<p id=\"stim\">GIRL</p>", "conditions": [18, 1200, "v", 18000], "internal_node_id": "0.0-25.0", "trial": 0, "time_elapsed": 204485, "serialpos": 13, "key_press": -1, "wordID": 636, "type": "PRES_VIS", "trial_index": 34}, "uniqueid": "MTK3537:3H7XDTSHKDYUZYXIG7HSOIGPITUGWF", "dateTime": 1520787145917}, {"current_trial": 35, "trialdata": {"rt": -1, "trial_type": "single-stim", "word": "onion", "stimulus": "<p id=\"stim\">ONION</p>", "conditions": [18, 1200, "v", 18000], "internal_node_id": "0.0-26.0", "trial": 0, "time_elapsed": 206793, "serialpos": 14, "key_press": -1, "wordID": 976, "type": "PRES_VIS", "trial_index": 35}, "uniqueid": "MTK3537:3H7XDTSHKDYUZYXIG7HSOIGPITUGWF", "dateTime": 1520787148225}, {"current_trial": 36, "trialdata": {"rt": -1, "trial_type": "single-stim", "word": "camel", "stimulus": "<p id=\"stim\">CAMEL</p>", "conditions": [18, 1200, "v", 18000], "internal_node_id": "0.0-27.0", "trial": 0, "time_elapsed": 209181, "serialpos": 15, "key_press": -1, "wordID": 222, "type": "PRES_VIS", "trial_index": 36}, "uniqueid": "MTK3537:3H7XDTSHKDYUZYXIG7HSOIGPITUGWF", "dateTime": 1520787150613}, {"current_trial": 37, "trialdata": {"rt": -1, "trial_type": "single-stim", "word": "padding", "stimulus": "<p id=\"stim\">PADDING</p>", "conditions": [18, 1200, "v", 18000], "internal_node_id": "0.0-28.0", "trial": 0, "time_elapsed": 211238, "serialpos": 16, "key_press": -1, "wordID": 998, "type": "PRES_VIS", "trial_index": 37}, "uniqueid": "MTK3537:3H7XDTSHKDYUZYXIG7HSOIGPITUGWF", "dateTime": 1520787152671}, {"current_trial": 38, "trialdata": {"rt": -1, "trial_type": "single-stim", "word": "scallop", "stimulus": "<p id=\"stim\">SCALLOP</p>", "conditions": [18, 1200, "v", 18000], "internal_node_id": "0.0-29.0", "trial": 0, "time_elapsed": 213349, "serialpos": 17, "key_press": -1, "wordID": 1241, "type": "PRES_VIS", "trial_index": 38}, "uniqueid": "MTK3537:3H7XDTSHKDYUZYXIG7HSOIGPITUGWF", "dateTime": 1520787154781}, {"current_trial": 39, "trialdata": {"rt": -1, "trial_type": "single-stim", "stimulus": "", "internal_node_id": "0.0-30.0-0.0", "time_elapsed": 215830, "key_press": -1, "type": "PRE_RECALL_DELAY", "trial_index": 39}, "uniqueid": "MTK3537:3H7XDTSHKDYUZYXIG7HSOIGPITUGWF", "dateTime": 1520787157262}, {"current_trial": 40, "trialdata": {"rt": -1000, "trial_type": "single-audio", "stimulus": "/static/audio/400Hz.wav", "internal_node_id": "0.0-31.0", "time_elapsed": 216379, "key_press": -1, "type": "PRE_RECALL_ALERT", "trial_index": 40}, "uniqueid": "MTK3537:3H7XDTSHKDYUZYXIG7HSOIGPITUGWF", "dateTime": 1520787157811}, {"current_trial": 41, "trialdata": {"rt": [3468, 6444, 10100, 11708, 16420, 22700, 25820], "recwords": ["scallop", "kitchen", "chipmunk", "gavel", "padding", "sidewalk", "girl"], "key_times": [1564, 2037, 2316, 2757, 2892, 3076, 3188, 3468, 4948, 5308, 5468, 5789, 5900, 6028, 6142, 6444, 7780, 8020, 8404, 8565, 8835, 9116, 9308, 9820, 10100, 10508, 10716, 10916, 11028, 11181, 11708, 15284, 15524, 15764, 15900, 16004, 16148, 16236, 16420, 21012, 21180, 21348, 21476, 21756, 22100, 22236, 22356, 22700, 24836, 25132, 25284, 25428, 25820], "trial_type": "free-recall", "conditions": [18, 1200, "v", 18000], "internal_node_id": "0.0-32.0-0.0", "key_presses": [83, 67, 65, 76, 76, 79, 80, 13, 75, 73, 84, 67, 72, 69, 78, 13, 67, 72, 73, 80, 77, 85, 78, 75, 13, 71, 65, 86, 69, 76, 13, 80, 65, 68, 68, 73, 78, 71, 13, 83, 73, 68, 69, 87, 65, 76, 75, 13, 71, 73, 82, 76, 13], "trial": 0, "time_elapsed": 276384, "type": "FREE_RECALL", "trial_index": 41}, "uniqueid": "MTK3537:3H7XDTSHKDYUZYXIG7HSOIGPITUGWF", "dateTime": 1520787217819}, {"current_trial": 42, "trialdata": {"rt": 1885, "trial_type": "text", "internal_node_id": "0.0-33.0", "time_elapsed": 280274, "key_press": 13, "type": "INSTRUCTIONS", "trial_index": 42}, "uniqueid": "MTK3537:3H7XDTSHKDYUZYXIG7HSOIGPITUGWF", "dateTime": 1520787221706}, {"current_trial": 43, "trialdata": {"rt": [6230, 9358, 11046, 13582, 15726, 17485], "trial_type": "math-distractor", "key_times": [5733, 5941, 6230, 8886, 9173, 9358, 10693, 10846, 11046, 12949, 13406, 13582, 15069, 15429, 15726, 17125, 17334, 17485], "responses": ["13", "14", "12", "16", "19", "14"], "num2": [4, 4, 4, 7, 9, 3, 2], "num3": [6, 6, 2, 8, 2, 7, 4], "conditions": [18, 1200, "v", 18000], "internal_node_id": "0.0-34.0", "key_presses": [49, 51, 13, 49, 52, 13, 49, 50, 13, 49, 54, 13, 49, 57, 13, 49, 52, 13], "trial": 1, "time_elapsed": 300278, "type": "DISTRACTOR", "trial_index": 43, "num1": [3, 4, 6, 1, 8, 4, 1]}, "uniqueid": "MTK3537:3H7XDTSHKDYUZYXIG7HSOIGPITUGWF", "dateTime": 1520787241710}, {"current_trial": 44, "trialdata": {"rt": -1, "trial_type": "single-stim", "stimulus": "<p id=\"stim\">10</p>", "internal_node_id": "0.0-35.0-0.0", "time_elapsed": 303280, "key_press": -1, "trial_index": 44}, "uniqueid": "MTK3537:3H7XDTSHKDYUZYXIG7HSOIGPITUGWF", "dateTime": 1520787244713}, {"current_trial": 45, "trialdata": {"rt": -1, "trial_type": "single-stim", "stimulus": "<p id=\"stim\">9</p>", "internal_node_id": "0.0-35.0-1.0", "time_elapsed": 304282, "key_press": -1, "trial_index": 45}, "uniqueid": "MTK3537:3H7XDTSHKDYUZYXIG7HSOIGPITUGWF", "dateTime": 1520787245715}, {"current_trial": 46, "trialdata": {"rt": -1, "trial_type": "single-stim", "stimulus": "<p id=\"stim\">8</p>", "internal_node_id": "0.0-35.0-2.0", "time_elapsed": 305284, "key_press": -1, "trial_index": 46}, "uniqueid": "MTK3537:3H7XDTSHKDYUZYXIG7HSOIGPITUGWF", "dateTime": 1520787246716}, {"current_trial": 47, "trialdata": {"rt": -1, "trial_type": "single-stim", "stimulus": "<p id=\"stim\">7</p>", "internal_node_id": "0.0-35.0-3.0", "time_elapsed": 306287, "key_press": -1, "trial_index": 47}, "uniqueid": "MTK3537:3H7XDTSHKDYUZYXIG7HSOIGPITUGWF", "dateTime": 1520787247719}, {"current_trial": 48, "trialdata": {"rt": -1, "trial_type": "single-stim", "stimulus": "<p id=\"stim\">6</p>", "internal_node_id": "0.0-35.0-4.0", "time_elapsed": 307289, "key_press": -1, "trial_index": 48}, "uniqueid": "MTK3537:3H7XDTSHKDYUZYXIG7HSOIGPITUGWF", "dateTime": 1520787248722}, {"current_trial": 49, "trialdata": {"rt": -1, "trial_type": "single-stim", "stimulus": "<p id=\"stim\">5</p>", "internal_node_id": "0.0-35.0-5.0", "time_elapsed": 308291, "key_press": -1, "trial_index": 49}, "uniqueid": "MTK3537:3H7XDTSHKDYUZYXIG7HSOIGPITUGWF", "dateTime": 1520787249723}, {"current_trial": 50, "trialdata": {"rt": -1, "trial_type": "single-stim", "stimulus": "<p id=\"stim\">4</p>", "internal_node_id": "0.0-35.0-6.0", "time_elapsed": 309292, "key_press": -1, "trial_index": 50}, "uniqueid": "MTK3537:3H7XDTSHKDYUZYXIG7HSOIGPITUGWF", "dateTime": 1520787250724}, {"current_trial": 51, "trialdata": {"rt": -1, "trial_type": "single-stim", "stimulus": "<p id=\"stim\">3</p>", "internal_node_id": "0.0-35.0-7.0", "time_elapsed": 310293, "key_press": -1, "trial_index": 51}, "uniqueid": "MTK3537:3H7XDTSHKDYUZYXIG7HSOIGPITUGWF", "dateTime": 1520787251725}, {"current_trial": 52, "trialdata": {"rt": -1, "trial_type": "single-stim", "stimulus": "<p id=\"stim\">2</p>", "internal_node_id": "0.0-35.0-8.0", "time_elapsed": 311295, "key_press": -1, "trial_index": 52}, "uniqueid": "MTK3537:3H7XDTSHKDYUZYXIG7HSOIGPITUGWF", "dateTime": 1520787252727}, {"current_trial": 53, "trialdata": {"rt": -1, "trial_type": "single-stim", "stimulus": "<p id=\"stim\">1</p>", "internal_node_id": "0.0-35.0-9.0", "time_elapsed": 312296, "key_press": -1, "trial_index": 53}, "uniqueid": "MTK3537:3H7XDTSHKDYUZYXIG7HSOIGPITUGWF", "dateTime": 1520787253728}, {"current_trial": 54, "trialdata": {"rt": -1, "trial_type": "single-stim", "stimulus": "<p id=\"stim\">+</p>", "internal_node_id": "0.0-36.0-0.0", "time_elapsed": 313797, "key_press": -1, "type": "FIXATION", "trial_index": 54}, "uniqueid": "MTK3537:3H7XDTSHKDYUZYXIG7HSOIGPITUGWF", "dateTime": 1520787255229}, {"current_trial": 55, "trialdata": {"rt": -1, "trial_type": "single-stim", "word": "braces", "stimulus": "<p id=\"stim\">BRACES</p>", "conditions": [18, 1200, "v", 18000], "internal_node_id": "0.0-37.0", "trial": 1, "time_elapsed": 314998, "serialpos": 0, "key_press": -1, "wordID": 163, "type": "PRES_VIS", "trial_index": 55}, "uniqueid": "MTK3537:3H7XDTSHKDYUZYXIG7HSOIGPITUGWF", "dateTime": 1520787256431}, {"current_trial": 56, "trialdata": {"rt": -1, "trial_type": "single-stim", "word": "pasta", "stimulus": "<p id=\"stim\">PASTA</p>", "conditions": [18, 1200, "v", 18000], "internal_node_id": "0.0-38.0", "trial": 1, "time_elapsed": 317094, "serialpos": 1, "key_press": -1, "wordID": 1020, "type": "PRES_VIS", "trial_index": 56}, "uniqueid": "MTK3537:3H7XDTSHKDYUZYXIG7HSOIGPITUGWF", "dateTime": 1520787258526}, {"current_trial": 57, "trialdata": {"rt": -1, "trial_type": "single-stim", "word": "spider", "stimulus": "<p id=\"stim\">SPIDER</p>", "conditions": [18, 1200, "v", 18000], "internal_node_id": "0.0-39.0", "trial": 1, "time_elapsed": 319154, "serialpos": 2, "key_press": -1, "wordID": 1350, "type": "PRES_VIS", "trial_index": 57}, "uniqueid": "MTK3537:3H7XDTSHKDYUZYXIG7HSOIGPITUGWF", "dateTime": 1520787260586}, {"current_trial": 58, "trialdata": {"rt": -1, "trial_type": "single-stim", "word": "receipt", "stimulus": "<p id=\"stim\">RECEIPT</p>", "conditions": [18, 1200, "v", 18000], "internal_node_id": "0.0-40.0", "trial": 1, "time_elapsed": 321535, "serialpos": 3, "key_press": -1, "wordID": 1172, "type": "PRES_VIS", "trial_index": 58}, "uniqueid": "MTK3537:3H7XDTSHKDYUZYXIG7HSOIGPITUGWF", "dateTime": 1520787262967}, {"current_trial": 59, "trialdata": {"rt": -1, "trial_type": "single-stim", "word": "cook", "stimulus": "<p id=\"stim\">COOK</p>", "conditions": [18, 1200, "v", 18000], "internal_node_id": "0.0-41.0", "trial": 1, "time_elapsed": 323544, "serialpos": 4, "key_press": -1, "wordID": 371, "type": "PRES_VIS", "trial_index": 59}, "uniqueid": "MTK3537:3H7XDTSHKDYUZYXIG7HSOIGPITUGWF", "dateTime": 1520787264976}, {"current_trial": 60, "trialdata": {"rt": -1, "trial_type": "single-stim", "word": "laser", "stimulus": "<p id=\"stim\">LASER</p>", "conditions": [18, 1200, "v", 18000], "internal_node_id": "0.0-42.0", "trial": 1, "time_elapsed": 325579, "serialpos": 5, "key_press": -1, "wordID": 800, "type": "PRES_VIS", "trial_index": 60}, "uniqueid": "MTK3537:3H7XDTSHKDYUZYXIG7HSOIGPITUGWF", "dateTime": 1520787267011}, {"current_trial": 61, "trialdata": {"rt": -1, "trial_type": "single-stim", "word": "notebook", "stimulus": "<p id=\"stim\">NOTEBOOK</p>", "conditions": [18, 1200, "v", 18000], "internal_node_id": "0.0-43.0", "trial": 1, "time_elapsed": 327858, "serialpos": 6, "key_press": -1, "wordID": 958, "type": "PRES_VIS", "trial_index": 61}, "uniqueid": "MTK3537:3H7XDTSHKDYUZYXIG7HSOIGPITUGWF", "dateTime": 1520787269290}, {"current_trial": 62, "trialdata": {"rt": -1, "trial_type": "single-stim", "word": "pecan", "stimulus": "<p id=\"stim\">PECAN</p>", "conditions": [18, 1200, "v", 18000], "internal_node_id": "0.0-44.0", "trial": 1, "time_elapsed": 330117, "serialpos": 7, "key_press": -1, "wordID": 1035, "type": "PRES_VIS", "trial_index": 62}, "uniqueid": "MTK3537:3H7XDTSHKDYUZYXIG7HSOIGPITUGWF", "dateTime": 1520787271549}, {"current_trial": 63, "trialdata": {"rt": -1, "trial_type": "single-stim", "word": "muffin", "stimulus": "<p id=\"stim\">MUFFIN</p>", "conditions": [18, 1200, "v", 18000], "internal_node_id": "0.0-45.0", "trial": 1, "time_elapsed": 332297, "serialpos": 8, "key_press": -1, "wordID": 928, "type": "PRES_VIS", "trial_index": 63}, "uniqueid": "MTK3537:3H7XDTSHKDYUZYXIG7HSOIGPITUGWF", "dateTime": 1520787273729}, {"current_trial": 64, "trialdata": {"rt": -1, "trial_type": "single-stim", "word": "lace", "stimulus": "<p id=\"stim\">LACE</p>", "conditions": [18, 1200, "v", 18000], "internal_node_id": "0.0-46.0", "trial": 1, "time_elapsed": 334488, "serialpos": 9, "key_press": -1, "wordID": 791, "type": "PRES_VIS", "trial_index": 64}, "uniqueid": "MTK3537:3H7XDTSHKDYUZYXIG7HSOIGPITUGWF", "dateTime": 1520787275920}, {"current_trial": 65, "trialdata": {"rt": -1, "trial_type": "single-stim", "word": "hero", "stimulus": "<p id=\"stim\">HERO</p>", "conditions": [18, 1200, "v", 18000], "internal_node_id": "0.0-47.0", "trial": 1, "time_elapsed": 336665, "serialpos": 10, "key_press": -1, "wordID": 705, "type": "PRES_VIS", "trial_index": 65}, "uniqueid": "MTK3537:3H7XDTSHKDYUZYXIG7HSOIGPITUGWF", "dateTime": 1520787278097}, {"current_trial": 66, "trialdata": {"rt": -1, "trial_type": "single-stim", "word": "dancer", "stimulus": "<p id=\"stim\">DANCER</p>", "conditions": [18, 1200, "v", 18000], "internal_node_id": "0.0-48.0", "trial": 1, "time_elapsed": 338722, "serialpos": 11, "key_press": -1, "wordID": 436, "type": "PRES_VIS", "trial_index": 66}, "uniqueid": "MTK3537:3H7XDTSHKDYUZYXIG7HSOIGPITUGWF", "dateTime": 1520787280154}, {"current_trial": 67, "trialdata": {"rt": -1, "trial_type": "single-stim", "word": "outlaw", "stimulus": "<p id=\"stim\">OUTLAW</p>", "conditions": [18, 1200, "v", 18000], "internal_node_id": "0.0-49.0", "trial": 1, "time_elapsed": 340992, "serialpos": 12, "key_press": -1, "wordID": 988, "type": "PRES_VIS", "trial_index": 67}, "uniqueid": "MTK3537:3H7XDTSHKDYUZYXIG7HSOIGPITUGWF", "dateTime": 1520787282424}, {"current_trial": 68, "trialdata": {"rt": -1, "trial_type": "single-stim", "word": "carrot", "stimulus": "<p id=\"stim\">CARROT</p>", "conditions": [18, 1200, "v", 18000], "internal_node_id": "0.0-50.0", "trial": 1, "time_elapsed": 343346, "serialpos": 13, "key_press": -1, "wordID": 248, "type": "PRES_VIS", "trial_index": 68}, "uniqueid": "MTK3537:3H7XDTSHKDYUZYXIG7HSOIGPITUGWF", "dateTime": 1520787284778}, {"current_trial": 69, "trialdata": {"rt": -1, "trial_type": "single-stim", "word": "cross", "stimulus": "<p id=\"stim\">CROSS</p>", "conditions": [18, 1200, "v", 18000], "internal_node_id": "0.0-51.0", "trial": 1, "time_elapsed": 345513, "serialpos": 14, "key_press": -1, "wordID": 412, "type": "PRES_VIS", "trial_index": 69}, "uniqueid": "MTK3537:3H7XDTSHKDYUZYXIG7HSOIGPITUGWF", "dateTime": 1520787286945}, {"current_trial": 70, "trialdata": {"rt": -1, "trial_type": "single-stim", "word": "hiker", "stimulus": "<p id=\"stim\">HIKER</p>", "conditions": [18, 1200, "v", 18000], "internal_node_id": "0.0-52.0", "trial": 1, "time_elapsed": 347638, "serialpos": 15, "key_press": -1, "wordID": 707, "type": "PRES_VIS", "trial_index": 70}, "uniqueid": "MTK3537:3H7XDTSHKDYUZYXIG7HSOIGPITUGWF", "dateTime": 1520787289070}, {"current_trial": 71, "trialdata": {"rt": -1, "trial_type": "single-stim", "word": "kleenex", "stimulus": "<p id=\"stim\">KLEENEX</p>", "conditions": [18, 1200, "v", 18000], "internal_node_id": "0.0-53.0", "trial": 1, "time_elapsed": 349928, "serialpos": 16, "key_press": -1, "wordID": 781, "type": "PRES_VIS", "trial_index": 71}, "uniqueid": "MTK3537:3H7XDTSHKDYUZYXIG7HSOIGPITUGWF", "dateTime": 1520787291360}, {"current_trial": 72, "trialdata": {"rt": -1, "trial_type": "single-stim", "word": "marine", "stimulus": "<p id=\"stim\">MARINE</p>", "conditions": [18, 1200, "v", 18000], "internal_node_id": "0.0-54.0", "trial": 1, "time_elapsed": 352122, "serialpos": 17, "key_press": -1, "wordID": 868, "type": "PRES_VIS", "trial_index": 72}, "uniqueid": "MTK3537:3H7XDTSHKDYUZYXIG7HSOIGPITUGWF", "dateTime": 1520787293554}, {"current_trial": 73, "trialdata": {"rt": -1, "trial_type": "single-stim", "stimulus": "", "internal_node_id": "0.0-55.0-0.0", "time_elapsed": 354381, "key_press": -1, "type": "PRE_RECALL_DELAY", "trial_index": 73}, "uniqueid": "MTK3537:3H7XDTSHKDYUZYXIG7HSOIGPITUGWF", "dateTime": 1520787295814}, {"current_trial": 74, "trialdata": {"rt": -1000, "trial_type": "single-audio", "stimulus": "/static/audio/400Hz.wav", "internal_node_id": "0.0-56.0", "time_elapsed": 354884, "key_press": -1, "type": "PRE_RECALL_ALERT", "trial_index": 74}, "uniqueid": "MTK3537:3H7XDTSHKDYUZYXIG7HSOIGPITUGWF", "dateTime": 1520787296316}, {"current_trial": 75, "trialdata": {"rt": [2443, 4731, 7091, 9307, 11875, 15507, 19867, 34275, 41322, 48114], "recwords": ["marine", "kleenex", "dancer", "outlaw", "pasta", "braces", "notebook", "spider", "muffin", "laser"], "key_times": [1236, 1419, 1786, 1979, 2106, 2243, 2443, 3290, 3538, 3667, 3811, 3962, 4298, 4523, 4731, 5858, 5971, 6547, 6626, 6771, 6891, 7091, 8019, 8139, 8331, 8483, 8647, 8802, 9307, 10979, 11130, 11227, 11547, 11675, 11875, 12891, 13027, 13227, 13435, 14027, 14243, 15507, 18187, 18363, 18515, 18795, 19075, 19274, 19419, 19515, 19867, 32907, 33154, 33506, 33842, 33955, 34090, 34275, 40059, 40274, 40522, 40671, 40802, 40947, 41322, 46803, 47042, 47323, 47554, 47746, 48114], "trial_type": "free-recall", "conditions": [18, 1200, "v", 18000], "internal_node_id": "0.0-57.0-0.0", "key_presses": [77, 65, 82, 73, 78, 69, 13, 75, 76, 69, 69, 78, 69, 88, 13, 68, 65, 78, 67, 69, 82, 13, 79, 85, 84, 76, 65, 87, 13, 80, 65, 83, 84, 65, 13, 66, 82, 65, 67, 69, 83, 13, 78, 79, 84, 69, 66, 79, 79, 75, 13, 83, 80, 73, 68, 69, 82, 13, 77, 85, 70, 70, 73, 78, 13, 76, 65, 83, 69, 82, 13], "trial": 1, "time_elapsed": 414887, "type": "FREE_RECALL", "trial_index": 75}, "uniqueid": "MTK3537:3H7XDTSHKDYUZYXIG7HSOIGPITUGWF", "dateTime": 1520787356323}, {"current_trial": 76, "trialdata": {"rt": 2308, "trial_type": "text", "internal_node_id": "0.0-58.0", "time_elapsed": 419200, "key_press": 13, "type": "INSTRUCTIONS", "trial_index": 76}, "uniqueid": "MTK3537:3H7XDTSHKDYUZYXIG7HSOIGPITUGWF", "dateTime": 1520787360632}, {"current_trial": 77, "trialdata": {"rt": [4021, 6964, 9157, 11237, 13741, 15268, 18045, 20124, 21796, 23845], "trial_type": "math-distractor", "key_times": [3166, 3339, 4021, 6644, 6964, 8868, 8980, 9157, 10621, 11045, 11237, 13605, 13741, 15015, 15132, 15268, 17525, 17908, 18045, 19468, 19964, 20124, 21405, 21588, 21796, 23212, 23692, 23845], "responses": ["15", "9", "12", "13", "6", "12", "15", "17", "11", "15"], "num2": [6, 1, 5, 2, 2, 7, 7, 5, 4, 8, 7], "num3": [5, 6, 6, 9, 2, 1, 4, 9, 3, 3, 3], "conditions": [24, 1600, "v", 24000], "internal_node_id": "0.0-59.0", "key_presses": [49, 53, 13, 57, 13, 49, 50, 13, 49, 51, 13, 54, 13, 49, 50, 13, 49, 53, 13, 49, 55, 13, 49, 49, 13, 49, 53, 13], "trial": 2, "time_elapsed": 444202, "type": "DISTRACTOR", "trial_index": 77, "num1": [4, 2, 1, 2, 2, 4, 4, 3, 4, 4, 1]}, "uniqueid": "MTK3537:3H7XDTSHKDYUZYXIG7HSOIGPITUGWF", "dateTime": 1520787385634}, {"current_trial": 78, "trialdata": {"rt": -1, "trial_type": "single-stim", "stimulus": "<p id=\"stim\">10</p>", "internal_node_id": "0.0-60.0-0.0", "time_elapsed": 447207, "key_press": -1, "trial_index": 78}, "uniqueid": "MTK3537:3H7XDTSHKDYUZYXIG7HSOIGPITUGWF", "dateTime": 1520787388639}, {"current_trial": 79, "trialdata": {"rt": -1, "trial_type": "single-stim", "stimulus": "<p id=\"stim\">9</p>", "internal_node_id": "0.0-60.0-1.0", "time_elapsed": 448209, "key_press": -1, "trial_index": 79}, "uniqueid": "MTK3537:3H7XDTSHKDYUZYXIG7HSOIGPITUGWF", "dateTime": 1520787389641}, {"current_trial": 80, "trialdata": {"rt": -1, "trial_type": "single-stim", "stimulus": "<p id=\"stim\">8</p>", "internal_node_id": "0.0-60.0-2.0", "time_elapsed": 449211, "key_press": -1, "trial_index": 80}, "uniqueid": "MTK3537:3H7XDTSHKDYUZYXIG7HSOIGPITUGWF", "dateTime": 1520787390643}, {"current_trial": 81, "trialdata": {"rt": -1, "trial_type": "single-stim", "stimulus": "<p id=\"stim\">7</p>", "internal_node_id": "0.0-60.0-3.0", "time_elapsed": 450212, "key_press": -1, "trial_index": 81}, "uniqueid": "MTK3537:3H7XDTSHKDYUZYXIG7HSOIGPITUGWF", "dateTime": 1520787391644}, {"current_trial": 82, "trialdata": {"rt": -1, "trial_type": "single-stim", "stimulus": "<p id=\"stim\">6</p>", "internal_node_id": "0.0-60.0-4.0", "time_elapsed": 451221, "key_press": -1, "trial_index": 82}, "uniqueid": "MTK3537:3H7XDTSHKDYUZYXIG7HSOIGPITUGWF", "dateTime": 1520787392653}, {"current_trial": 83, "trialdata": {"rt": -1, "trial_type": "single-stim", "stimulus": "<p id=\"stim\">5</p>", "internal_node_id": "0.0-60.0-5.0", "time_elapsed": 452222, "key_press": -1, "trial_index": 83}, "uniqueid": "MTK3537:3H7XDTSHKDYUZYXIG7HSOIGPITUGWF", "dateTime": 1520787393654}, {"current_trial": 84, "trialdata": {"rt": -1, "trial_type": "single-stim", "stimulus": "<p id=\"stim\">4</p>", "internal_node_id": "0.0-60.0-6.0", "time_elapsed": 453225, "key_press": -1, "trial_index": 84}, "uniqueid": "MTK3537:3H7XDTSHKDYUZYXIG7HSOIGPITUGWF", "dateTime": 1520787394657}, {"current_trial": 85, "trialdata": {"rt": -1, "trial_type": "single-stim", "stimulus": "<p id=\"stim\">3</p>", "internal_node_id": "0.0-60.0-7.0", "time_elapsed": 454226, "key_press": -1, "trial_index": 85}, "uniqueid": "MTK3537:3H7XDTSHKDYUZYXIG7HSOIGPITUGWF", "dateTime": 1520787395658}, {"current_trial": 86, "trialdata": {"rt": -1, "trial_type": "single-stim", "stimulus": "<p id=\"stim\">2</p>", "internal_node_id": "0.0-60.0-8.0", "time_elapsed": 455227, "key_press": -1, "trial_index": 86}, "uniqueid": "MTK3537:3H7XDTSHKDYUZYXIG7HSOIGPITUGWF", "dateTime": 1520787396659}, {"current_trial": 87, "trialdata": {"rt": -1, "trial_type": "single-stim", "stimulus": "<p id=\"stim\">1</p>", "internal_node_id": "0.0-60.0-9.0", "time_elapsed": 456230, "key_press": -1, "trial_index": 87}, "uniqueid": "MTK3537:3H7XDTSHKDYUZYXIG7HSOIGPITUGWF", "dateTime": 1520787397662}, {"current_trial": 88, "trialdata": {"rt": -1, "trial_type": "single-stim", "stimulus": "<p id=\"stim\">+</p>", "internal_node_id": "0.0-61.0-0.0", "time_elapsed": 457732, "key_press": -1, "type": "FIXATION", "trial_index": 88}, "uniqueid": "MTK3537:3H7XDTSHKDYUZYXIG7HSOIGPITUGWF", "dateTime": 1520787399164}, {"current_trial": 89, "trialdata": {"rt": -1, "trial_type": "single-stim", "word": "quarter", "stimulus": "<p id=\"stim\">QUARTER</p>", "conditions": [24, 1600, "v", 24000], "internal_node_id": "0.0-62.0", "trial": 2, "time_elapsed": 459334, "serialpos": 0, "key_press": -1, "wordID": 1147, "type": "PRES_VIS", "trial_index": 89}, "uniqueid": "MTK3537:3H7XDTSHKDYUZYXIG7HSOIGPITUGWF", "dateTime": 1520787400766}, {"current_trial": 90, "trialdata": {"rt": -1, "trial_type": "single-stim", "word": "church", "stimulus": "<p id=\"stim\">CHURCH</p>", "conditions": [24, 1600, "v", 24000], "internal_node_id": "0.0-63.0", "trial": 2, "time_elapsed": 462098, "serialpos": 1, "key_press": -1, "wordID": 306, "type": "PRES_VIS", "trial_index": 90}, "uniqueid": "MTK3537:3H7XDTSHKDYUZYXIG7HSOIGPITUGWF", "dateTime": 1520787403530}, {"current_trial": 91, "trialdata": {"rt": -1, "trial_type": "single-stim", "word": "chapel", "stimulus": "<p id=\"stim\">CHAPEL</p>", "conditions": [24, 1600, "v", 24000], "internal_node_id": "0.0-64.0", "trial": 2, "time_elapsed": 464858, "serialpos": 2, "key_press": -1, "wordID": 279, "type": "PRES_VIS", "trial_index": 91}, "uniqueid": "MTK3537:3H7XDTSHKDYUZYXIG7HSOIGPITUGWF", "dateTime": 1520787406290}, {"current_trial": 92, "trialdata": {"rt": -1, "trial_type": "single-stim", "word": "taxi", "stimulus": "<p id=\"stim\">TAXI</p>", "conditions": [24, 1600, "v", 24000], "internal_node_id": "0.0-65.0", "trial": 2, "time_elapsed": 467435, "serialpos": 3, "key_press": -1, "wordID": 1437, "type": "PRES_VIS", "trial_index": 92}, "uniqueid": "MTK3537:3H7XDTSHKDYUZYXIG7HSOIGPITUGWF", "dateTime": 1520787408868}, {"current_trial": 93, "trialdata": {"rt": -1, "trial_type": "single-stim", "word": "fleet", "stimulus": "<p id=\"stim\">FLEET</p>", "conditions": [24, 1600, "v", 24000], "internal_node_id": "0.0-66.0", "trial": 2, "time_elapsed": 469844, "serialpos": 4, "key_press": -1, "wordID": 577, "type": "PRES_VIS", "trial_index": 93}, "uniqueid": "MTK3537:3H7XDTSHKDYUZYXIG7HSOIGPITUGWF", "dateTime": 1520787411276}, {"current_trial": 94, "trialdata": {"rt": -1, "trial_type": "single-stim", "word": "match", "stimulus": "<p id=\"stim\">MATCH</p>", "conditions": [24, 1600, "v", 24000], "internal_node_id": "0.0-67.0", "trial": 2, "time_elapsed": 472312, "serialpos": 5, "key_press": -1, "wordID": 877, "type": "PRES_VIS", "trial_index": 94}, "uniqueid": "MTK3537:3H7XDTSHKDYUZYXIG7HSOIGPITUGWF", "dateTime": 1520787413744}, {"current_trial": 95, "trialdata": {"rt": -1, "trial_type": "single-stim", "word": "cashew", "stimulus": "<p id=\"stim\">CASHEW</p>", "conditions": [24, 1600, "v", 24000], "internal_node_id": "0.0-68.0", "trial": 2, "time_elapsed": 475060, "serialpos": 6, "key_press": -1, "wordID": 252, "type": "PRES_VIS", "trial_index": 95}, "uniqueid": "MTK3537:3H7XDTSHKDYUZYXIG7HSOIGPITUGWF", "dateTime": 1520787416492}, {"current_trial": 96, "trialdata": {"rt": -1, "trial_type": "single-stim", "word": "police", "stimulus": "<p id=\"stim\">POLICE</p>", "conditions": [24, 1600, "v", 24000], "internal_node_id": "0.0-69.0", "trial": 2, "time_elapsed": 477618, "serialpos": 7, "key_press": -1, "wordID": 1097, "type": "PRES_VIS", "trial_index": 96}, "uniqueid": "MTK3537:3H7XDTSHKDYUZYXIG7HSOIGPITUGWF", "dateTime": 1520787419051}, {"current_trial": 97, "trialdata": {"rt": -1, "trial_type": "single-stim", "word": "tunnel", "stimulus": "<p id=\"stim\">TUNNEL</p>", "conditions": [24, 1600, "v", 24000], "internal_node_id": "0.0-70.0", "trial": 2, "time_elapsed": 480110, "serialpos": 8, "key_press": -1, "wordID": 1518, "type": "PRES_VIS", "trial_index": 97}, "uniqueid": "MTK3537:3H7XDTSHKDYUZYXIG7HSOIGPITUGWF", "dateTime": 1520787421542}, {"current_trial": 98, "trialdata": {"rt": -1, "trial_type": "single-stim", "word": "turtle", "stimulus": "<p id=\"stim\">TURTLE</p>", "conditions": [24, 1600, "v", 24000], "internal_node_id": "0.0-71.0", "trial": 2, "time_elapsed": 482558, "serialpos": 9, "key_press": -1, "wordID": 1521, "type": "PRES_VIS", "trial_index": 98}, "uniqueid": "MTK3537:3H7XDTSHKDYUZYXIG7HSOIGPITUGWF", "dateTime": 1520787423990}, {"current_trial": 99, "trialdata": {"rt": -1, "trial_type": "single-stim", "word": "patrol", "stimulus": "<p id=\"stim\">PATROL</p>", "conditions": [24, 1600, "v", 24000], "internal_node_id": "0.0-72.0", "trial": 2, "time_elapsed": 485165, "serialpos": 10, "key_press": -1, "wordID": 1026, "type": "PRES_VIS", "trial_index": 99}, "uniqueid": "MTK3537:3H7XDTSHKDYUZYXIG7HSOIGPITUGWF", "dateTime": 1520787426599}, {"current_trial": 100, "trialdata": {"rt": -1, "trial_type": "single-stim", "word": "butcher", "stimulus": "<p id=\"stim\">BUTCHER</p>", "conditions": [24, 1600, "v", 24000], "internal_node_id": "0.0-73.0", "trial": 2, "time_elapsed": 487589, "serialpos": 11, "key_press": -1, "wordID": 202, "type": "PRES_VIS", "trial_index": 100}, "uniqueid": "MTK3537:3H7XDTSHKDYUZYXIG7HSOIGPITUGWF", "dateTime": 1520787429021}, {"current_trial": 101, "trialdata": {"rt": -1, "trial_type": "single-stim", "word": "student", "stimulus": "<p id=\"stim\">STUDENT</p>", "conditions": [24, 1600, "v", 24000], "internal_node_id": "0.0-74.0", "trial": 2, "time_elapsed": 490323, "serialpos": 12, "key_press": -1, "wordID": 1394, "type": "PRES_VIS", "trial_index": 101}, "uniqueid": "MTK3537:3H7XDTSHKDYUZYXIG7HSOIGPITUGWF", "dateTime": 1520787431755}, {"current_trial": 102, "trialdata": {"rt": -1, "trial_type": "single-stim", "word": "dorm", "stimulus": "<p id=\"stim\">DORM</p>", "conditions": [24, 1600, "v", 24000], "internal_node_id": "0.0-75.0", "trial": 2, "time_elapsed": 493033, "serialpos": 13, "key_press": -1, "wordID": 487, "type": "PRES_VIS", "trial_index": 102}, "uniqueid": "MTK3537:3H7XDTSHKDYUZYXIG7HSOIGPITUGWF", "dateTime": 1520787434466}, {"current_trial": 103, "trialdata": {"rt": -1, "trial_type": "single-stim", "word": "brother", "stimulus": "<p id=\"stim\">BROTHER</p>", "conditions": [24, 1600, "v", 24000], "internal_node_id": "0.0-76.0", "trial": 2, "time_elapsed": 495442, "serialpos": 14, "key_press": -1, "wordID": 178, "type": "PRES_VIS", "trial_index": 103}, "uniqueid": "MTK3537:3H7XDTSHKDYUZYXIG7HSOIGPITUGWF", "dateTime": 1520787436875}, {"current_trial": 104, "trialdata": {"rt": -1, "trial_type": "single-stim", "word": "penguin", "stimulus": "<p id=\"stim\">PENGUIN</p>", "conditions": [24, 1600, "v", 24000], "internal_node_id": "0.0-77.0", "trial": 2, "time_elapsed": 497973, "serialpos": 15, "key_press": -1, "wordID": 1043, "type": "PRES_VIS", "trial_index": 104}, "uniqueid": "MTK3537:3H7XDTSHKDYUZYXIG7HSOIGPITUGWF", "dateTime": 1520787439405}, {"current_trial": 105, "trialdata": {"rt": -1, "trial_type": "single-stim", "word": "seafood", "stimulus": "<p id=\"stim\">SEAFOOD</p>", "conditions": [24, 1600, "v", 24000], "internal_node_id": "0.0-78.0", "trial": 2, "time_elapsed": 500694, "serialpos": 16, "key_press": -1, "wordID": 1259, "type": "PRES_VIS", "trial_index": 105}, "uniqueid": "MTK3537:3H7XDTSHKDYUZYXIG7HSOIGPITUGWF", "dateTime": 1520787442126}, {"current_trial": 106, "trialdata": {"rt": -1, "trial_type": "single-stim", "word": "daughter", "stimulus": "<p id=\"stim\">DAUGHTER</p>", "conditions": [24, 1600, "v", 24000], "internal_node_id": "0.0-79.0", "trial": 2, "time_elapsed": 503310, "serialpos": 17, "key_press": -1, "wordID": 441, "type": "PRES_VIS", "trial_index": 106}, "uniqueid": "MTK3537:3H7XDTSHKDYUZYXIG7HSOIGPITUGWF", "dateTime": 1520787444742}, {"current_trial": 107, "trialdata": {"rt": -1, "trial_type": "single-stim", "word": "creature", "stimulus": "<p id=\"stim\">CREATURE</p>", "conditions": [24, 1600, "v", 24000], "internal_node_id": "0.0-80.0", "trial": 2, "time_elapsed": 505959, "serialpos": 18, "key_press": -1, "wordID": 402, "type": "PRES_VIS", "trial_index": 107}, "uniqueid": "MTK3537:3H7XDTSHKDYUZYXIG7HSOIGPITUGWF", "dateTime": 1520787447391}, {"current_trial": 108, "trialdata": {"rt": -1, "trial_type": "single-stim", "word": "flag", "stimulus": "<p id=\"stim\">FLAG</p>", "conditions": [24, 1600, "v", 24000], "internal_node_id": "0.0-81.0", "trial": 2, "time_elapsed": 508466, "serialpos": 19, "key_press": -1, "wordID": 572, "type": "PRES_VIS", "trial_index": 108}, "uniqueid": "MTK3537:3H7XDTSHKDYUZYXIG7HSOIGPITUGWF", "dateTime": 1520787449898}, {"current_trial": 109, "trialdata": {"rt": -1, "trial_type": "single-stim", "word": "brick", "stimulus": "<p id=\"stim\">BRICK</p>", "conditions": [24, 1600, "v", 24000], "internal_node_id": "0.0-82.0", "trial": 2, "time_elapsed": 511122, "serialpos": 20, "key_press": -1, "wordID": 171, "type": "PRES_VIS", "trial_index": 109}, "uniqueid": "MTK3537:3H7XDTSHKDYUZYXIG7HSOIGPITUGWF", "dateTime": 1520787452554}, {"current_trial": 110, "trialdata": {"rt": -1, "trial_type": "single-stim", "word": "salmon", "stimulus": "<p id=\"stim\">SALMON</p>", "conditions": [24, 1600, "v", 24000], "internal_node_id": "0.0-83.0", "trial": 2, "time_elapsed": 513661, "serialpos": 21, "key_press": -1, "wordID": 1226, "type": "PRES_VIS", "trial_index": 110}, "uniqueid": "MTK3537:3H7XDTSHKDYUZYXIG7HSOIGPITUGWF", "dateTime": 1520787455093}, {"current_trial": 111, "trialdata": {"rt": -1, "trial_type": "single-stim", "word": "mister", "stimulus": "<p id=\"stim\">MISTER</p>", "conditions": [24, 1600, "v", 24000], "internal_node_id": "0.0-84.0", "trial": 2, "time_elapsed": 516222, "serialpos": 22, "key_press": -1, "wordID": 900, "type": "PRES_VIS", "trial_index": 111}, "uniqueid": "MTK3537:3H7XDTSHKDYUZYXIG7HSOIGPITUGWF", "dateTime": 1520787457655}, {"current_trial": 112, "trialdata": {"rt": -1, "trial_type": "single-stim", "word": "orchid", "stimulus": "<p id=\"stim\">ORCHID</p>", "conditions": [24, 1600, "v", 24000], "internal_node_id": "0.0-85.0", "trial": 2, "time_elapsed": 518671, "serialpos": 23, "key_press": -1, "wordID": 981, "type": "PRES_VIS", "trial_index": 112}, "uniqueid": "MTK3537:3H7XDTSHKDYUZYXIG7HSOIGPITUGWF", "dateTime": 1520787460103}, {"current_trial": 113, "trialdata": {"rt": -1, "trial_type": "single-stim", "stimulus": "", "internal_node_id": "0.0-86.0-0.0", "time_elapsed": 521001, "key_press": -1, "type": "PRE_RECALL_DELAY", "trial_index": 113}, "uniqueid": "MTK3537:3H7XDTSHKDYUZYXIG7HSOIGPITUGWF", "dateTime": 1520787462433}, {"current_trial": 114, "trialdata": {"rt": -1000, "trial_type": "single-audio", "stimulus": "/static/audio/400Hz.wav", "internal_node_id": "0.0-87.0", "time_elapsed": 521503, "key_press": -1, "type": "PRE_RECALL_ALERT", "trial_index": 114}, "uniqueid": "MTK3537:3H7XDTSHKDYUZYXIG7HSOIGPITUGWF", "dateTime": 1520787462935}, {"current_trial": 115, "trialdata": {"rt": [2022, 4086, 7486, 9134, 10446, 16949, 20830, 36917], "recwords": ["flag", "orchid", "student", "police", "daughter", "church", "match", "dorm"], "key_times": [1022, 1222, 1439, 1806, 2022, 2942, 3110, 3358, 3519, 3653, 3894, 4086, 6350, 6638, 6870, 6998, 7070, 7206, 7326, 7486, 8198, 8310, 8510, 8742, 8878, 8966, 9134, 9502, 9614, 9766, 9934, 10029, 10110, 10238, 10317, 10446, 15735, 15933, 16094, 16294, 16502, 16598, 16949, 19518, 19622, 19885, 20134, 20230, 20830, 35990, 36167, 36406, 36529, 36917], "trial_type": "free-recall", "conditions": [24, 1600, "v", 24000], "internal_node_id": "0.0-88.0-0.0", "key_presses": [70, 76, 65, 71, 13, 79, 82, 67, 72, 73, 68, 13, 83, 84, 85, 68, 69, 78, 84, 13, 80, 79, 76, 73, 67, 69, 13, 68, 65, 85, 71, 72, 84, 69, 82, 13, 67, 72, 85, 82, 67, 72, 13, 77, 65, 84, 67, 72, 13, 68, 79, 82, 77, 13], "trial": 2, "time_elapsed": 581524, "type": "FREE_RECALL", "trial_index": 115}, "uniqueid": "MTK3537:3H7XDTSHKDYUZYXIG7HSOIGPITUGWF", "dateTime": 1520787522959}, {"current_trial": 116, "trialdata": {"rt": 1588, "trial_type": "text", "internal_node_id": "0.0-89.0", "time_elapsed": 585118, "key_press": 32, "type": "INSTRUCTIONS", "trial_index": 116}, "uniqueid": "MTK3537:3H7XDTSHKDYUZYXIG7HSOIGPITUGWF", "dateTime": 1520787526550}, {"current_trial": 117, "trialdata": {"rt": [3413, 5204, 7788, 10389], "trial_type": "math-distractor", "key_times": [2797, 2980, 3413, 4596, 4924, 5204, 7068, 7380, 7788, 10068, 10389, 11748, 11924], "responses": ["19", "10", "14", "6"], "num2": [5, 7, 4, 3, 2], "num3": [8, 2, 1, 2, 4], "conditions": [24, 800, "v", 12000], "internal_node_id": "0.0-90.0", "key_presses": [49, 57, 13, 49, 48, 13, 49, 52, 13, 54, 13, 49, 49], "trial": 3, "time_elapsed": 599122, "type": "DISTRACTOR", "trial_index": 117, "num1": [6, 1, 9, 1, 5]}, "uniqueid": "MTK3537:3H7XDTSHKDYUZYXIG7HSOIGPITUGWF", "dateTime": 1520787540554}, {"current_trial": 118, "trialdata": {"rt": -1, "trial_type": "single-stim", "stimulus": "<p id=\"stim\">10</p>", "internal_node_id": "0.0-91.0-0.0", "time_elapsed": 602125, "key_press": -1, "trial_index": 118}, "uniqueid": "MTK3537:3H7XDTSHKDYUZYXIG7HSOIGPITUGWF", "dateTime": 1520787543557}, {"current_trial": 119, "trialdata": {"rt": -1, "trial_type": "single-stim", "stimulus": "<p id=\"stim\">9</p>", "internal_node_id": "0.0-91.0-1.0", "time_elapsed": 603127, "key_press": -1, "trial_index": 119}, "uniqueid": "MTK3537:3H7XDTSHKDYUZYXIG7HSOIGPITUGWF", "dateTime": 1520787544559}, {"current_trial": 120, "trialdata": {"rt": -1, "trial_type": "single-stim", "stimulus": "<p id=\"stim\">8</p>", "internal_node_id": "0.0-91.0-2.0", "time_elapsed": 604128, "key_press": -1, "trial_index": 120}, "uniqueid": "MTK3537:3H7XDTSHKDYUZYXIG7HSOIGPITUGWF", "dateTime": 1520787545560}, {"current_trial": 121, "trialdata": {"rt": -1, "trial_type": "single-stim", "stimulus": "<p id=\"stim\">7</p>", "internal_node_id": "0.0-91.0-3.0", "time_elapsed": 605129, "key_press": -1, "trial_index": 121}, "uniqueid": "MTK3537:3H7XDTSHKDYUZYXIG7HSOIGPITUGWF", "dateTime": 1520787546561}, {"current_trial": 122, "trialdata": {"rt": -1, "trial_type": "single-stim", "stimulus": "<p id=\"stim\">6</p>", "internal_node_id": "0.0-91.0-4.0", "time_elapsed": 606130, "key_press": -1, "trial_index": 122}, "uniqueid": "MTK3537:3H7XDTSHKDYUZYXIG7HSOIGPITUGWF", "dateTime": 1520787547562}, {"current_trial": 123, "trialdata": {"rt": -1, "trial_type": "single-stim", "stimulus": "<p id=\"stim\">5</p>", "internal_node_id": "0.0-91.0-5.0", "time_elapsed": 607132, "key_press": -1, "trial_index": 123}, "uniqueid": "MTK3537:3H7XDTSHKDYUZYXIG7HSOIGPITUGWF", "dateTime": 1520787548564}, {"current_trial": 124, "trialdata": {"rt": -1, "trial_type": "single-stim", "stimulus": "<p id=\"stim\">4</p>", "internal_node_id": "0.0-91.0-6.0", "time_elapsed": 608133, "key_press": -1, "trial_index": 124}, "uniqueid": "MTK3537:3H7XDTSHKDYUZYXIG7HSOIGPITUGWF", "dateTime": 1520787549565}, {"current_trial": 125, "trialdata": {"rt": -1, "trial_type": "single-stim", "stimulus": "<p id=\"stim\">3</p>", "internal_node_id": "0.0-91.0-7.0", "time_elapsed": 609135, "key_press": -1, "trial_index": 125}, "uniqueid": "MTK3537:3H7XDTSHKDYUZYXIG7HSOIGPITUGWF", "dateTime": 1520787550567}, {"current_trial": 126, "trialdata": {"rt": -1, "trial_type": "single-stim", "stimulus": "<p id=\"stim\">2</p>", "internal_node_id": "0.0-91.0-8.0", "time_elapsed": 610137, "key_press": -1, "trial_index": 126}, "uniqueid": "MTK3537:3H7XDTSHKDYUZYXIG7HSOIGPITUGWF", "dateTime": 1520787551569}, {"current_trial": 127, "trialdata": {"rt": -1, "trial_type": "single-stim", "stimulus": "<p id=\"stim\">1</p>", "internal_node_id": "0.0-91.0-9.0", "time_elapsed": 611139, "key_press": -1, "trial_index": 127}, "uniqueid": "MTK3537:3H7XDTSHKDYUZYXIG7HSOIGPITUGWF", "dateTime": 1520787552571}, {"current_trial": 128, "trialdata": {"rt": -1, "trial_type": "single-stim", "stimulus": "<p id=\"stim\">+</p>", "internal_node_id": "0.0-92.0-0.0", "time_elapsed": 612640, "key_press": -1, "type": "FIXATION", "trial_index": 128}, "uniqueid": "MTK3537:3H7XDTSHKDYUZYXIG7HSOIGPITUGWF", "dateTime": 1520787554072}, {"current_trial": 129, "trialdata": {"rt": -1, "trial_type": "single-stim", "word": "velvet", "stimulus": "<p id=\"stim\">VELVET</p>", "conditions": [24, 800, "v", 12000], "internal_node_id": "0.0-93.0", "trial": 3, "time_elapsed": 613442, "serialpos": 0, "key_press": -1, "wordID": 1554, "type": "PRES_VIS", "trial_index": 129}, "uniqueid": "MTK3537:3H7XDTSHKDYUZYXIG7HSOIGPITUGWF", "dateTime": 1520787554874}, {"current_trial": 130, "trialdata": {"rt": -1, "trial_type": "single-stim", "word": "flute", "stimulus": "<p id=\"stim\">FLUTE</p>", "conditions": [24, 800, "v", 12000], "internal_node_id": "0.0-94.0", "trial": 3, "time_elapsed": 615393, "serialpos": 1, "key_press": -1, "wordID": 584, "type": "PRES_VIS", "trial_index": 130}, "uniqueid": "MTK3537:3H7XDTSHKDYUZYXIG7HSOIGPITUGWF", "dateTime": 1520787556826}, {"current_trial": 131, "trialdata": {"rt": -1, "trial_type": "single-stim", "word": "trombone", "stimulus": "<p id=\"stim\">TROMBONE</p>", "conditions": [24, 800, "v", 12000], "internal_node_id": "0.0-95.0", "trial": 3, "time_elapsed": 617362, "serialpos": 2, "key_press": -1, "wordID": 1507, "type": "PRES_VIS", "trial_index": 131}, "uniqueid": "MTK3537:3H7XDTSHKDYUZYXIG7HSOIGPITUGWF", "dateTime": 1520787558794}, {"current_trial": 132, "trialdata": {"rt": -1, "trial_type": "single-stim", "word": "drink", "stimulus": "<p id=\"stim\">DRINK</p>", "conditions": [24, 800, "v", 12000], "internal_node_id": "0.0-96.0", "trial": 3, "time_elapsed": 619110, "serialpos": 3, "key_press": -1, "wordID": 497, "type": "PRES_VIS", "trial_index": 132}, "uniqueid": "MTK3537:3H7XDTSHKDYUZYXIG7HSOIGPITUGWF", "dateTime": 1520787560542}, {"current_trial": 133, "trialdata": {"rt": -1, "trial_type": "single-stim", "word": "ground", "stimulus": "<p id=\"stim\">GROUND</p>", "conditions": [24, 800, "v", 12000], "internal_node_id": "0.0-97.0", "trial": 3, "time_elapsed": 620771, "serialpos": 4, "key_press": -1, "wordID": 665, "type": "PRES_VIS", "trial_index": 133}, "uniqueid": "MTK3537:3H7XDTSHKDYUZYXIG7HSOIGPITUGWF", "dateTime": 1520787562203}, {"current_trial": 134, "trialdata": {"rt": -1, "trial_type": "single-stim", "word": "palace", "stimulus": "<p id=\"stim\">PALACE</p>", "conditions": [24, 800, "v", 12000], "internal_node_id": "0.0-98.0", "trial": 3, "time_elapsed": 622579, "serialpos": 5, "key_press": -1, "wordID": 1005, "type": "PRES_VIS", "trial_index": 134}, "uniqueid": "MTK3537:3H7XDTSHKDYUZYXIG7HSOIGPITUGWF", "dateTime": 1520787564011}, {"current_trial": 135, "trialdata": {"rt": -1, "trial_type": "single-stim", "word": "pluto", "stimulus": "<p id=\"stim\">PLUTO</p>", "conditions": [24, 800, "v", 12000], "internal_node_id": "0.0-99.0", "trial": 3, "time_elapsed": 624466, "serialpos": 6, "key_press": -1, "wordID": 1091, "type": "PRES_VIS", "trial_index": 135}, "uniqueid": "MTK3537:3H7XDTSHKDYUZYXIG7HSOIGPITUGWF", "dateTime": 1520787565898}, {"current_trial": 136, "trialdata": {"rt": -1, "trial_type": "single-stim", "word": "sunset", "stimulus": "<p id=\"stim\">SUNSET</p>", "conditions": [24, 800, "v", 12000], "internal_node_id": "0.0-100.0", "trial": 3, "time_elapsed": 626354, "serialpos": 7, "key_press": -1, "wordID": 1407, "type": "PRES_VIS", "trial_index": 136}, "uniqueid": "MTK3537:3H7XDTSHKDYUZYXIG7HSOIGPITUGWF", "dateTime": 1520787567786}, {"current_trial": 137, "trialdata": {"rt": -1, "trial_type": "single-stim", "word": "supper", "stimulus": "<p id=\"stim\">SUPPER</p>", "conditions": [24, 800, "v", 12000], "internal_node_id": "0.0-101.0", "trial": 3, "time_elapsed": 628271, "serialpos": 8, "key_press": -1, "wordID": 1410, "type": "PRES_VIS", "trial_index": 137}, "uniqueid": "MTK3537:3H7XDTSHKDYUZYXIG7HSOIGPITUGWF", "dateTime": 1520787569703}, {"current_trial": 138, "trialdata": {"rt": -1, "trial_type": "single-stim", "word": "brook", "stimulus": "<p id=\"stim\">BROOK</p>", "conditions": [24, 800, "v", 12000], "internal_node_id": "0.0-102.0", "trial": 3, "time_elapsed": 629989, "serialpos": 9, "key_press": -1, "wordID": 176, "type": "PRES_VIS", "trial_index": 138}, "uniqueid": "MTK3537:3H7XDTSHKDYUZYXIG7HSOIGPITUGWF", "dateTime": 1520787571421}, {"current_trial": 139, "trialdata": {"rt": -1, "trial_type": "single-stim", "word": "silk", "stimulus": "<p id=\"stim\">SILK</p>", "conditions": [24, 800, "v", 12000], "internal_node_id": "0.0-103.0", "trial": 3, "time_elapsed": 631925, "serialpos": 10, "key_press": -1, "wordID": 1306, "type": "PRES_VIS", "trial_index": 139}, "uniqueid": "MTK3537:3H7XDTSHKDYUZYXIG7HSOIGPITUGWF", "dateTime": 1520787573357}, {"current_trial": 140, "trialdata": {"rt": -1, "trial_type": "single-stim", "word": "clock", "stimulus": "<p id=\"stim\">CLOCK</p>", "conditions": [24, 800, "v", 12000], "internal_node_id": "0.0-104.0", "trial": 3, "time_elapsed": 633646, "serialpos": 11, "key_press": -1, "wordID": 324, "type": "PRES_VIS", "trial_index": 140}, "uniqueid": "MTK3537:3H7XDTSHKDYUZYXIG7HSOIGPITUGWF", "dateTime": 1520787575078}, {"current_trial": 141, "trialdata": {"rt": -1, "trial_type": "single-stim", "word": "grape", "stimulus": "<p id=\"stim\">GRAPE</p>", "conditions": [24, 800, "v", 12000], "internal_node_id": "0.0-105.0", "trial": 3, "time_elapsed": 635546, "serialpos": 12, "key_press": -1, "wordID": 653, "type": "PRES_VIS", "trial_index": 141}, "uniqueid": "MTK3537:3H7XDTSHKDYUZYXIG7HSOIGPITUGWF", "dateTime": 1520787576978}, {"current_trial": 142, "trialdata": {"rt": -1, "trial_type": "single-stim", "word": "luggage", "stimulus": "<p id=\"stim\">LUGGAGE</p>", "conditions": [24, 800, "v", 12000], "internal_node_id": "0.0-106.0", "trial": 3, "time_elapsed": 637351, "serialpos": 13, "key_press": -1, "wordID": 846, "type": "PRES_VIS", "trial_index": 142}, "uniqueid": "MTK3537:3H7XDTSHKDYUZYXIG7HSOIGPITUGWF", "dateTime": 1520787578783}, {"current_trial": 143, "trialdata": {"rt": -1, "trial_type": "single-stim", "word": "fireman", "stimulus": "<p id=\"stim\">FIREMAN</p>", "conditions": [24, 800, "v", 12000], "internal_node_id": "0.0-107.0", "trial": 3, "time_elapsed": 639315, "serialpos": 14, "key_press": -1, "wordID": 568, "type": "PRES_VIS", "trial_index": 143}, "uniqueid": "MTK3537:3H7XDTSHKDYUZYXIG7HSOIGPITUGWF", "dateTime": 1520787580747}, {"current_trial": 144, "trialdata": {"rt": -1, "trial_type": "single-stim", "word": "stove", "stimulus": "<p id=\"stim\">STOVE</p>", "conditions": [24, 800, "v", 12000], "internal_node_id": "0.0-108.0", "trial": 3, "time_elapsed": 640929, "serialpos": 15, "key_press": -1, "wordID": 1387, "type": "PRES_VIS", "trial_index": 144}, "uniqueid": "MTK3537:3H7XDTSHKDYUZYXIG7HSOIGPITUGWF", "dateTime": 1520787582361}, {"current_trial": 145, "trialdata": {"rt": -1, "trial_type": "single-stim", "word": "witness", "stimulus": "<p id=\"stim\">WITNESS</p>", "conditions": [24, 800, "v", 12000], "internal_node_id": "0.0-109.0", "trial": 3, "time_elapsed": 642774, "serialpos": 16, "key_press": -1, "wordID": 1617, "type": "PRES_VIS", "trial_index": 145}, "uniqueid": "MTK3537:3H7XDTSHKDYUZYXIG7HSOIGPITUGWF", "dateTime": 1520787584206}, {"current_trial": 146, "trialdata": {"rt": -1, "trial_type": "single-stim", "word": "cod", "stimulus": "<p id=\"stim\">COD</p>", "conditions": [24, 800, "v", 12000], "internal_node_id": "0.0-110.0", "trial": 3, "time_elapsed": 644691, "serialpos": 17, "key_press": -1, "wordID": 339, "type": "PRES_VIS", "trial_index": 146}, "uniqueid": "MTK3537:3H7XDTSHKDYUZYXIG7HSOIGPITUGWF", "dateTime": 1520787586124}, {"current_trial": 147, "trialdata": {"rt": -1, "trial_type": "single-stim", "word": "playground", "stimulus": "<p id=\"stim\">PLAYGROUND</p>", "conditions": [24, 800, "v", 12000], "internal_node_id": "0.0-111.0", "trial": 3, "time_elapsed": 646687, "serialpos": 18, "key_press": -1, "wordID": 1086, "type": "PRES_VIS", "trial_index": 147}, "uniqueid": "MTK3537:3H7XDTSHKDYUZYXIG7HSOIGPITUGWF", "dateTime": 1520787588119}, {"current_trial": 148, "trialdata": {"rt": -1, "trial_type": "single-stim", "word": "tractor", "stimulus": "<p id=\"stim\">TRACTOR</p>", "conditions": [24, 800, "v", 12000], "internal_node_id": "0.0-112.0", "trial": 3, "time_elapsed": 648527, "serialpos": 19, "key_press": -1, "wordID": 1492, "type": "PRES_VIS", "trial_index": 148}, "uniqueid": "MTK3537:3H7XDTSHKDYUZYXIG7HSOIGPITUGWF", "dateTime": 1520787589959}, {"current_trial": 149, "trialdata": {"rt": -1, "trial_type": "single-stim", "word": "truck", "stimulus": "<p id=\"stim\">TRUCK</p>", "conditions": [24, 800, "v", 12000], "internal_node_id": "0.0-113.0", "trial": 3, "time_elapsed": 650489, "serialpos": 20, "key_press": -1, "wordID": 1511, "type": "PRES_VIS", "trial_index": 149}, "uniqueid": "MTK3537:3H7XDTSHKDYUZYXIG7HSOIGPITUGWF", "dateTime": 1520787591921}, {"current_trial": 150, "trialdata": {"rt": -1, "trial_type": "single-stim", "word": "cafe", "stimulus": "<p id=\"stim\">CAFE</p>", "conditions": [24, 800, "v", 12000], "internal_node_id": "0.0-114.0", "trial": 3, "time_elapsed": 652299, "serialpos": 21, "key_press": -1, "wordID": 215, "type": "PRES_VIS", "trial_index": 150}, "uniqueid": "MTK3537:3H7XDTSHKDYUZYXIG7HSOIGPITUGWF", "dateTime": 1520787593731}, {"current_trial": 151, "trialdata": {"rt": -1, "trial_type": "single-stim", "word": "honey", "stimulus": "<p id=\"stim\">HONEY</p>", "conditions": [24, 800, "v", 12000], "internal_node_id": "0.0-115.0", "trial": 3, "time_elapsed": 653971, "serialpos": 22, "key_press": -1, "wordID": 712, "type": "PRES_VIS", "trial_index": 151}, "uniqueid": "MTK3537:3H7XDTSHKDYUZYXIG7HSOIGPITUGWF", "dateTime": 1520787595403}, {"current_trial": 152, "trialdata": {"rt": -1, "trial_type": "single-stim", "word": "tile", "stimulus": "<p id=\"stim\">TILE</p>", "conditions": [24, 800, "v", 12000], "internal_node_id": "0.0-116.0", "trial": 3, "time_elapsed": 655573, "serialpos": 23, "key_press": -1, "wordID": 1467, "type": "PRES_VIS", "trial_index": 152}, "uniqueid": "MTK3537:3H7XDTSHKDYUZYXIG7HSOIGPITUGWF", "dateTime": 1520787597005}, {"current_trial": 153, "trialdata": {"rt": -1, "trial_type": "single-stim", "stimulus": "", "internal_node_id": "0.0-117.0-0.0", "time_elapsed": 657884, "key_press": -1, "type": "PRE_RECALL_DELAY", "trial_index": 153}, "uniqueid": "MTK3537:3H7XDTSHKDYUZYXIG7HSOIGPITUGWF", "dateTime": 1520787599316}, {"current_trial": 154, "trialdata": {"rt": -1000, "trial_type": "single-audio", "stimulus": "/static/audio/400Hz.wav", "internal_node_id": "0.0-118.0", "time_elapsed": 658385, "key_press": -1, "type": "PRE_RECALL_ALERT", "trial_index": 154}, "uniqueid": "MTK3537:3H7XDTSHKDYUZYXIG7HSOIGPITUGWF", "dateTime": 1520787599817}, {"current_trial": 155, "trialdata": {"rt": [1890, 3481, 7226, 10137, 11625, 14818, 30194, 48649], "recwords": ["honey", "tile", "playground", "tractor", "truck", "cod", "luggage", "supper"], "key_times": [986, 1202, 1346, 1490, 1658, 1890, 2105, 2233, 2386, 2530, 3481, 5153, 5298, 5505, 5946, 6282, 6475, 6601, 6714, 6930, 7066, 7226, 8839, 8946, 9225, 9441, 9682, 9826, 9978, 10137, 10529, 10633, 10881, 11026, 11225, 11625, 14298, 14481, 14658, 14818, 28465, 28746, 29157, 29289, 29521, 29682, 29801, 30194, 47578, 47857, 48129, 48281, 48417, 48529, 48649], "trial_type": "free-recall", "conditions": [24, 800, "v", 12000], "internal_node_id": "0.0-119.0-0.0", "key_presses": [72, 79, 78, 69, 89, 32, 84, 73, 76, 69, 13, 80, 76, 65, 89, 71, 82, 79, 85, 78, 68, 13, 84, 82, 65, 67, 84, 79, 82, 13, 84, 82, 85, 67, 75, 13, 67, 79, 68, 13, 76, 85, 71, 71, 65, 71, 69, 13, 83, 85, 80, 80, 69, 82, 13], "trial": 3, "time_elapsed": 718388, "type": "FREE_RECALL", "trial_index": 155}, "uniqueid": "MTK3537:3H7XDTSHKDYUZYXIG7HSOIGPITUGWF", "dateTime": 1520787659822}, {"current_trial": 156, "trialdata": {"rt": 1181, "trial_type": "text", "internal_node_id": "0.0-120.0", "time_elapsed": 721573, "key_press": 32, "type": "INSTRUCTIONS", "trial_index": 156}, "uniqueid": "MTK3537:3H7XDTSHKDYUZYXIG7HSOIGPITUGWF", "dateTime": 1520787663005}, {"current_trial": 157, "trialdata": {"rt": [2486, 3978, 6246, 8303], "trial_type": "math-distractor", "key_times": [2038, 2166, 2486, 3693, 3846, 3978, 5453, 5837, 6246, 7486, 7901, 8303, 11613, 11886], "responses": ["18", "11", "14", "14"], "num2": [1, 6, 4, 7, 6], "num3": [8, 1, 7, 3, 4], "conditions": [12, 800, "v", 12000], "internal_node_id": "0.0-121.0", "key_presses": [49, 56, 13, 49, 49, 13, 49, 52, 13, 49, 52, 13, 49, 51], "trial": 4, "time_elapsed": 735576, "type": "DISTRACTOR", "trial_index": 157, "num1": [9, 4, 2, 3, 3]}, "uniqueid": "MTK3537:3H7XDTSHKDYUZYXIG7HSOIGPITUGWF", "dateTime": 1520787677008}, {"current_trial": 158, "trialdata": {"rt": -1, "trial_type": "single-stim", "stimulus": "<p id=\"stim\">10</p>", "internal_node_id": "0.0-122.0-0.0", "time_elapsed": 738578, "key_press": -1, "trial_index": 158}, "uniqueid": "MTK3537:3H7XDTSHKDYUZYXIG7HSOIGPITUGWF", "dateTime": 1520787680010}, {"current_trial": 159, "trialdata": {"rt": -1, "trial_type": "single-stim", "stimulus": "<p id=\"stim\">9</p>", "internal_node_id": "0.0-122.0-1.0", "time_elapsed": 739580, "key_press": -1, "trial_index": 159}, "uniqueid": "MTK3537:3H7XDTSHKDYUZYXIG7HSOIGPITUGWF", "dateTime": 1520787681012}, {"current_trial": 160, "trialdata": {"rt": -1, "trial_type": "single-stim", "stimulus": "<p id=\"stim\">8</p>", "internal_node_id": "0.0-122.0-2.0", "time_elapsed": 740581, "key_press": -1, "trial_index": 160}, "uniqueid": "MTK3537:3H7XDTSHKDYUZYXIG7HSOIGPITUGWF", "dateTime": 1520787682015}, {"current_trial": 161, "trialdata": {"rt": -1, "trial_type": "single-stim", "stimulus": "<p id=\"stim\">7</p>", "internal_node_id": "0.0-122.0-3.0", "time_elapsed": 741585, "key_press": -1, "trial_index": 161}, "uniqueid": "MTK3537:3H7XDTSHKDYUZYXIG7HSOIGPITUGWF", "dateTime": 1520787683017}, {"current_trial": 162, "trialdata": {"rt": -1, "trial_type": "single-stim", "stimulus": "<p id=\"stim\">6</p>", "internal_node_id": "0.0-122.0-4.0", "time_elapsed": 742587, "key_press": -1, "trial_index": 162}, "uniqueid": "MTK3537:3H7XDTSHKDYUZYXIG7HSOIGPITUGWF", "dateTime": 1520787684019}, {"current_trial": 163, "trialdata": {"rt": -1, "trial_type": "single-stim", "stimulus": "<p id=\"stim\">5</p>", "internal_node_id": "0.0-122.0-5.0", "time_elapsed": 743590, "key_press": -1, "trial_index": 163}, "uniqueid": "MTK3537:3H7XDTSHKDYUZYXIG7HSOIGPITUGWF", "dateTime": 1520787685022}, {"current_trial": 164, "trialdata": {"rt": -1, "trial_type": "single-stim", "stimulus": "<p id=\"stim\">4</p>", "internal_node_id": "0.0-122.0-6.0", "time_elapsed": 744593, "key_press": -1, "trial_index": 164}, "uniqueid": "MTK3537:3H7XDTSHKDYUZYXIG7HSOIGPITUGWF", "dateTime": 1520787686025}, {"current_trial": 165, "trialdata": {"rt": -1, "trial_type": "single-stim", "stimulus": "<p id=\"stim\">3</p>", "internal_node_id": "0.0-122.0-7.0", "time_elapsed": 745595, "key_press": -1, "trial_index": 165}, "uniqueid": "MTK3537:3H7XDTSHKDYUZYXIG7HSOIGPITUGWF", "dateTime": 1520787687028}, {"current_trial": 166, "trialdata": {"rt": -1, "trial_type": "single-stim", "stimulus": "<p id=\"stim\">2</p>", "internal_node_id": "0.0-122.0-8.0", "time_elapsed": 746598, "key_press": -1, "trial_index": 166}, "uniqueid": "MTK3537:3H7XDTSHKDYUZYXIG7HSOIGPITUGWF", "dateTime": 1520787688030}, {"current_trial": 167, "trialdata": {"rt": -1, "trial_type": "single-stim", "stimulus": "<p id=\"stim\">1</p>", "internal_node_id": "0.0-122.0-9.0", "time_elapsed": 747598, "key_press": -1, "trial_index": 167}, "uniqueid": "MTK3537:3H7XDTSHKDYUZYXIG7HSOIGPITUGWF", "dateTime": 1520787689030}, {"current_trial": 168, "trialdata": {"rt": -1, "trial_type": "single-stim", "stimulus": "<p id=\"stim\">+</p>", "internal_node_id": "0.0-123.0-0.0", "time_elapsed": 749099, "key_press": -1, "type": "FIXATION", "trial_index": 168}, "uniqueid": "MTK3537:3H7XDTSHKDYUZYXIG7HSOIGPITUGWF", "dateTime": 1520787690531}, {"current_trial": 169, "trialdata": {"rt": -1, "trial_type": "single-stim", "word": "stone", "stimulus": "<p id=\"stim\">STONE</p>", "conditions": [12, 800, "v", 12000], "internal_node_id": "0.0-124.0", "trial": 4, "time_elapsed": 749901, "serialpos": 0, "key_press": -1, "wordID": 1384, "type": "PRES_VIS", "trial_index": 169}, "uniqueid": "MTK3537:3H7XDTSHKDYUZYXIG7HSOIGPITUGWF", "dateTime": 1520787691333}, {"current_trial": 170, "trialdata": {"rt": -1, "trial_type": "single-stim", "word": "eagle", "stimulus": "<p id=\"stim\">EAGLE</p>", "conditions": [12, 800, "v", 12000], "internal_node_id": "0.0-125.0", "trial": 4, "time_elapsed": 751613, "serialpos": 1, "key_press": -1, "wordID": 511, "type": "PRES_VIS", "trial_index": 170}, "uniqueid": "MTK3537:3H7XDTSHKDYUZYXIG7HSOIGPITUGWF", "dateTime": 1520787693045}, {"current_trial": 171, "trialdata": {"rt": -1, "trial_type": "single-stim", "word": "lover", "stimulus": "<p id=\"stim\">LOVER</p>", "conditions": [12, 800, "v", 12000], "internal_node_id": "0.0-126.0", "trial": 4, "time_elapsed": 753597, "serialpos": 2, "key_press": -1, "wordID": 845, "type": "PRES_VIS", "trial_index": 171}, "uniqueid": "MTK3537:3H7XDTSHKDYUZYXIG7HSOIGPITUGWF", "dateTime": 1520787695029}, {"current_trial": 172, "trialdata": {"rt": -1, "trial_type": "single-stim", "word": "casket", "stimulus": "<p id=\"stim\">CASKET</p>", "conditions": [12, 800, "v", 12000], "internal_node_id": "0.0-127.0", "trial": 4, "time_elapsed": 755556, "serialpos": 3, "key_press": -1, "wordID": 254, "type": "PRES_VIS", "trial_index": 172}, "uniqueid": "MTK3537:3H7XDTSHKDYUZYXIG7HSOIGPITUGWF", "dateTime": 1520787696988}, {"current_trial": 173, "trialdata": {"rt": -1, "trial_type": "single-stim", "word": "washer", "stimulus": "<p id=\"stim\">WASHER</p>", "conditions": [12, 800, "v", 12000], "internal_node_id": "0.0-128.0", "trial": 4, "time_elapsed": 757206, "serialpos": 4, "key_press": -1, "wordID": 1591, "type": "PRES_VIS", "trial_index": 173}, "uniqueid": "MTK3537:3H7XDTSHKDYUZYXIG7HSOIGPITUGWF", "dateTime": 1520787698638}, {"current_trial": 174, "trialdata": {"rt": -1, "trial_type": "single-stim", "word": "jury", "stimulus": "<p id=\"stim\">JURY</p>", "conditions": [12, 800, "v", 12000], "internal_node_id": "0.0-129.0", "trial": 4, "time_elapsed": 759111, "serialpos": 5, "key_press": -1, "wordID": 765, "type": "PRES_VIS", "trial_index": 174}, "uniqueid": "MTK3537:3H7XDTSHKDYUZYXIG7HSOIGPITUGWF", "dateTime": 1520787700543}, {"current_trial": 175, "trialdata": {"rt": -1, "trial_type": "single-stim", "word": "cyclone", "stimulus": "<p id=\"stim\">CYCLONE</p>", "conditions": [12, 800, "v", 12000], "internal_node_id": "0.0-130.0", "trial": 4, "time_elapsed": 760824, "serialpos": 6, "key_press": -1, "wordID": 430, "type": "PRES_VIS", "trial_index": 175}, "uniqueid": "MTK3537:3H7XDTSHKDYUZYXIG7HSOIGPITUGWF", "dateTime": 1520787702256}, {"current_trial": 176, "trialdata": {"rt": -1, "trial_type": "single-stim", "word": "canal", "stimulus": "<p id=\"stim\">CANAL</p>", "conditions": [12, 800, "v", 12000], "internal_node_id": "0.0-131.0", "trial": 4, "time_elapsed": 762572, "serialpos": 7, "key_press": -1, "wordID": 225, "type": "PRES_VIS", "trial_index": 176}, "uniqueid": "MTK3537:3H7XDTSHKDYUZYXIG7HSOIGPITUGWF", "dateTime": 1520787704004}, {"current_trial": 177, "trialdata": {"rt": -1, "trial_type": "single-stim", "word": "lagoon", "stimulus": "<p id=\"stim\">LAGOON</p>", "conditions": [12, 800, "v", 12000], "internal_node_id": "0.0-132.0", "trial": 4, "time_elapsed": 764527, "serialpos": 8, "key_press": -1, "wordID": 794, "type": "PRES_VIS", "trial_index": 177}, "uniqueid": "MTK3537:3H7XDTSHKDYUZYXIG7HSOIGPITUGWF", "dateTime": 1520787705959}, {"current_trial": 178, "trialdata": {"rt": -1, "trial_type": "single-stim", "word": "turnip", "stimulus": "<p id=\"stim\">TURNIP</p>", "conditions": [12, 800, "v", 12000], "internal_node_id": "0.0-133.0", "trial": 4, "time_elapsed": 766482, "serialpos": 9, "key_press": -1, "wordID": 1520, "type": "PRES_VIS", "trial_index": 178}, "uniqueid": "MTK3537:3H7XDTSHKDYUZYXIG7HSOIGPITUGWF", "dateTime": 1520787707915}, {"current_trial": 179, "trialdata": {"rt": -1, "trial_type": "single-stim", "word": "cobra", "stimulus": "<p id=\"stim\">COBRA</p>", "conditions": [12, 800, "v", 12000], "internal_node_id": "0.0-134.0", "trial": 4, "time_elapsed": 768105, "serialpos": 10, "key_press": -1, "wordID": 335, "type": "PRES_VIS", "trial_index": 179}, "uniqueid": "MTK3537:3H7XDTSHKDYUZYXIG7HSOIGPITUGWF", "dateTime": 1520787709537}, {"current_trial": 180, "trialdata": {"rt": -1, "trial_type": "single-stim", "word": "boyfriend", "stimulus": "<p id=\"stim\">BOYFRIEND</p>", "conditions": [12, 800, "v", 12000], "internal_node_id": "0.0-135.0", "trial": 4, "time_elapsed": 769891, "serialpos": 11, "key_press": -1, "wordID": 161, "type": "PRES_VIS", "trial_index": 180}, "uniqueid": "MTK3537:3H7XDTSHKDYUZYXIG7HSOIGPITUGWF", "dateTime": 1520787711323}, {"current_trial": 181, "trialdata": {"rt": -1, "trial_type": "single-stim", "stimulus": "", "internal_node_id": "0.0-136.0-0.0", "time_elapsed": 772136, "key_press": -1, "type": "PRE_RECALL_DELAY", "trial_index": 181}, "uniqueid": "MTK3537:3H7XDTSHKDYUZYXIG7HSOIGPITUGWF", "dateTime": 1520787713568}, {"current_trial": 182, "trialdata": {"rt": -1000, "trial_type": "single-audio", "stimulus": "/static/audio/400Hz.wav", "internal_node_id": "0.0-137.0", "time_elapsed": 772637, "key_press": -1, "type": "PRE_RECALL_ALERT", "trial_index": 182}, "uniqueid": "MTK3537:3H7XDTSHKDYUZYXIG7HSOIGPITUGWF", "dateTime": 1520787714070}, {"current_trial": 183, "trialdata": {"rt": [4453, 6716, 8484, 14731, 22836, 33980, 52219], "recwords": ["boyfriend", "casket", "lover", "stone", "boyfriend", "turnip", "funeral"], "key_times": [1037, 1413, 2196, 2876, 3180, 3428, 3629, 3812, 3997, 4108, 4252, 4453, 5596, 5772, 5900, 6236, 6388, 6492, 6716, 7764, 7964, 8084, 8196, 8309, 8484, 13765, 14084, 14260, 14404, 14516, 14731, 19755, 20036, 20236, 20500, 20708, 20844, 20964, 21124, 21124, 21276, 21644, 21804, 21948, 22524, 22652, 22836, 32684, 32908, 33084, 33244, 33476, 33700, 33980, 50524, 50723, 50867, 51411, 51507, 51731, 51820, 52219], "trial_type": "free-recall", "conditions": [12, 800, "v", 12000], "internal_node_id": "0.0-138.0-0.0", "key_presses": [66, 89, 8, 79, 89, 70, 82, 73, 69, 78, 68, 13, 67, 65, 83, 75, 69, 84, 13, 76, 79, 86, 69, 82, 13, 83, 84, 79, 78, 69, 13, 66, 79, 89, 70, 82, 73, 69, 77, 78, 68, 8, 8, 8, 78, 68, 13, 84, 85, 82, 78, 73, 80, 13, 70, 85, 78, 69, 82, 65, 76, 13], "trial": 4, "time_elapsed": 832640, "type": "FREE_RECALL", "trial_index": 183}, "uniqueid": "MTK3537:3H7XDTSHKDYUZYXIG7HSOIGPITUGWF", "dateTime": 1520787774074}, {"current_trial": 184, "trialdata": {"rt": 1229, "trial_type": "text", "internal_node_id": "0.0-139.0", "time_elapsed": 835874, "key_press": 32, "type": "INSTRUCTIONS", "trial_index": 184}, "uniqueid": "MTK3537:3H7XDTSHKDYUZYXIG7HSOIGPITUGWF", "dateTime": 1520787777308}, {"current_trial": 185, "trialdata": {"rt": [4541, 6821, 9501], "trial_type": "math-distractor", "key_times": [4125, 4302, 4541, 6413, 6670, 6821, 9374, 9501, 11853], "responses": ["12", "13", "8"], "num2": [1, 6, 2, 6], "num3": [9, 1, 4, 4], "conditions": [24, 1600, "v", 12000], "internal_node_id": "0.0-140.0", "key_presses": [49, 50, 13, 49, 51, 13, 56, 13, 49], "trial": 5, "time_elapsed": 849878, "type": "DISTRACTOR", "trial_index": 185, "num1": [2, 6, 2, 9]}, "uniqueid": "MTK3537:3H7XDTSHKDYUZYXIG7HSOIGPITUGWF", "dateTime": 1520787791311}, {"current_trial": 186, "trialdata": {"rt": -1, "trial_type": "single-stim", "stimulus": "<p id=\"stim\">10</p>", "internal_node_id": "0.0-141.0-0.0", "time_elapsed": 852881, "key_press": -1, "trial_index": 186}, "uniqueid": "MTK3537:3H7XDTSHKDYUZYXIG7HSOIGPITUGWF", "dateTime": 1520787794313}, {"current_trial": 187, "trialdata": {"rt": -1, "trial_type": "single-stim", "stimulus": "<p id=\"stim\">9</p>", "internal_node_id": "0.0-141.0-1.0", "time_elapsed": 853883, "key_press": -1, "trial_index": 187}, "uniqueid": "MTK3537:3H7XDTSHKDYUZYXIG7HSOIGPITUGWF", "dateTime": 1520787795315}, {"current_trial": 188, "trialdata": {"rt": -1, "trial_type": "single-stim", "stimulus": "<p id=\"stim\">8</p>", "internal_node_id": "0.0-141.0-2.0", "time_elapsed": 854884, "key_press": -1, "trial_index": 188}, "uniqueid": "MTK3537:3H7XDTSHKDYUZYXIG7HSOIGPITUGWF", "dateTime": 1520787796316}, {"current_trial": 189, "trialdata": {"rt": -1, "trial_type": "single-stim", "stimulus": "<p id=\"stim\">7</p>", "internal_node_id": "0.0-141.0-3.0", "time_elapsed": 855887, "key_press": -1, "trial_index": 189}, "uniqueid": "MTK3537:3H7XDTSHKDYUZYXIG7HSOIGPITUGWF", "dateTime": 1520787797320}, {"current_trial": 190, "trialdata": {"rt": -1, "trial_type": "single-stim", "stimulus": "<p id=\"stim\">6</p>", "internal_node_id": "0.0-141.0-4.0", "time_elapsed": 856889, "key_press": -1, "trial_index": 190}, "uniqueid": "MTK3537:3H7XDTSHKDYUZYXIG7HSOIGPITUGWF", "dateTime": 1520787798321}, {"current_trial": 191, "trialdata": {"rt": -1, "trial_type": "single-stim", "stimulus": "<p id=\"stim\">5</p>", "internal_node_id": "0.0-141.0-5.0", "time_elapsed": 857890, "key_press": -1, "trial_index": 191}, "uniqueid": "MTK3537:3H7XDTSHKDYUZYXIG7HSOIGPITUGWF", "dateTime": 1520787799322}, {"current_trial": 192, "trialdata": {"rt": -1, "trial_type": "single-stim", "stimulus": "<p id=\"stim\">4</p>", "internal_node_id": "0.0-141.0-6.0", "time_elapsed": 858893, "key_press": -1, "trial_index": 192}, "uniqueid": "MTK3537:3H7XDTSHKDYUZYXIG7HSOIGPITUGWF", "dateTime": 1520787800326}, {"current_trial": 193, "trialdata": {"rt": -1, "trial_type": "single-stim", "stimulus": "<p id=\"stim\">3</p>", "internal_node_id": "0.0-141.0-7.0", "time_elapsed": 859895, "key_press": -1, "trial_index": 193}, "uniqueid": "MTK3537:3H7XDTSHKDYUZYXIG7HSOIGPITUGWF", "dateTime": 1520787801328}, {"current_trial": 194, "trialdata": {"rt": -1, "trial_type": "single-stim", "stimulus": "<p id=\"stim\">2</p>", "internal_node_id": "0.0-141.0-8.0", "time_elapsed": 860897, "key_press": -1, "trial_index": 194}, "uniqueid": "MTK3537:3H7XDTSHKDYUZYXIG7HSOIGPITUGWF", "dateTime": 1520787802329}, {"current_trial": 195, "trialdata": {"rt": -1, "trial_type": "single-stim", "stimulus": "<p id=\"stim\">1</p>", "internal_node_id": "0.0-141.0-9.0", "time_elapsed": 861899, "key_press": -1, "trial_index": 195}, "uniqueid": "MTK3537:3H7XDTSHKDYUZYXIG7HSOIGPITUGWF", "dateTime": 1520787803331}, {"current_trial": 196, "trialdata": {"rt": -1, "trial_type": "single-stim", "stimulus": "<p id=\"stim\">+</p>", "internal_node_id": "0.0-142.0-0.0", "time_elapsed": 863400, "key_press": -1, "type": "FIXATION", "trial_index": 196}, "uniqueid": "MTK3537:3H7XDTSHKDYUZYXIG7HSOIGPITUGWF", "dateTime": 1520787804832}, {"current_trial": 197, "trialdata": {"rt": -1, "trial_type": "single-stim", "word": "soda", "stimulus": "<p id=\"stim\">SODA</p>", "conditions": [24, 1600, "v", 12000], "internal_node_id": "0.0-143.0", "trial": 5, "time_elapsed": 865003, "serialpos": 0, "key_press": -1, "wordID": 1340, "type": "PRES_VIS", "trial_index": 197}, "uniqueid": "MTK3537:3H7XDTSHKDYUZYXIG7HSOIGPITUGWF", "dateTime": 1520787806436}, {"current_trial": 198, "trialdata": {"rt": -1, "trial_type": "single-stim", "word": "sponge", "stimulus": "<p id=\"stim\">SPONGE</p>", "conditions": [24, 1600, "v", 12000], "internal_node_id": "0.0-144.0", "trial": 5, "time_elapsed": 867538, "serialpos": 1, "key_press": -1, "wordID": 1354, "type": "PRES_VIS", "trial_index": 198}, "uniqueid": "MTK3537:3H7XDTSHKDYUZYXIG7HSOIGPITUGWF", "dateTime": 1520787808971}, {"current_trial": 199, "trialdata": {"rt": -1, "trial_type": "single-stim", "word": "balloon", "stimulus": "<p id=\"stim\">BALLOON</p>", "conditions": [24, 1600, "v", 12000], "internal_node_id": "0.0-145.0", "trial": 5, "time_elapsed": 870000, "serialpos": 2, "key_press": -1, "wordID": 74, "type": "PRES_VIS", "trial_index": 199}, "uniqueid": "MTK3537:3H7XDTSHKDYUZYXIG7HSOIGPITUGWF", "dateTime": 1520787811432}, {"current_trial": 200, "trialdata": {"rt": -1, "trial_type": "single-stim", "word": "human", "stimulus": "<p id=\"stim\">HUMAN</p>", "conditions": [24, 1600, "v", 12000], "internal_node_id": "0.0-146.0", "trial": 5, "time_elapsed": 872553, "serialpos": 3, "key_press": -1, "wordID": 725, "type": "PRES_VIS", "trial_index": 200}, "uniqueid": "MTK3537:3H7XDTSHKDYUZYXIG7HSOIGPITUGWF", "dateTime": 1520787813985}, {"current_trial": 201, "trialdata": {"rt": -1, "trial_type": "single-stim", "word": "servant", "stimulus": "<p id=\"stim\">SERVANT</p>", "conditions": [24, 1600, "v", 12000], "internal_node_id": "0.0-147.0", "trial": 5, "time_elapsed": 875118, "serialpos": 4, "key_press": -1, "wordID": 1270, "type": "PRES_VIS", "trial_index": 201}, "uniqueid": "MTK3537:3H7XDTSHKDYUZYXIG7HSOIGPITUGWF", "dateTime": 1520787816550}, {"current_trial": 202, "trialdata": {"rt": -1, "trial_type": "single-stim", "word": "sculpture", "stimulus": "<p id=\"stim\">SCULPTURE</p>", "conditions": [24, 1600, "v", 12000], "internal_node_id": "0.0-148.0", "trial": 5, "time_elapsed": 877904, "serialpos": 5, "key_press": -1, "wordID": 1257, "type": "PRES_VIS", "trial_index": 202}, "uniqueid": "MTK3537:3H7XDTSHKDYUZYXIG7HSOIGPITUGWF", "dateTime": 1520787819336}, {"current_trial": 203, "trialdata": {"rt": -1, "trial_type": "single-stim", "word": "statue", "stimulus": "<p id=\"stim\">STATUE</p>", "conditions": [24, 1600, "v", 12000], "internal_node_id": "0.0-149.0", "trial": 5, "time_elapsed": 880678, "serialpos": 6, "key_press": -1, "wordID": 1373, "type": "PRES_VIS", "trial_index": 203}, "uniqueid": "MTK3537:3H7XDTSHKDYUZYXIG7HSOIGPITUGWF", "dateTime": 1520787822110}, {"current_trial": 204, "trialdata": {"rt": -1, "trial_type": "single-stim", "word": "pistol", "stimulus": "<p id=\"stim\">PISTOL</p>", "conditions": [24, 1600, "v", 12000], "internal_node_id": "0.0-150.0", "trial": 5, "time_elapsed": 883380, "serialpos": 7, "key_press": -1, "wordID": 1074, "type": "PRES_VIS", "trial_index": 204}, "uniqueid": "MTK3537:3H7XDTSHKDYUZYXIG7HSOIGPITUGWF", "dateTime": 1520787824813}, {"current_trial": 205, "trialdata": {"rt": -1, "trial_type": "single-stim", "word": "world", "stimulus": "<p id=\"stim\">WORLD</p>", "conditions": [24, 1600, "v", 12000], "internal_node_id": "0.0-151.0", "trial": 5, "time_elapsed": 886133, "serialpos": 8, "key_press": -1, "wordID": 1621, "type": "PRES_VIS", "trial_index": 205}, "uniqueid": "MTK3537:3H7XDTSHKDYUZYXIG7HSOIGPITUGWF", "dateTime": 1520787827565}, {"current_trial": 206, "trialdata": {"rt": -1, "trial_type": "single-stim", "word": "europe", "stimulus": "<p id=\"stim\">EUROPE</p>", "conditions": [24, 1600, "v", 12000], "internal_node_id": "0.0-152.0", "trial": 5, "time_elapsed": 888899, "serialpos": 9, "key_press": -1, "wordID": 540, "type": "PRES_VIS", "trial_index": 206}, "uniqueid": "MTK3537:3H7XDTSHKDYUZYXIG7HSOIGPITUGWF", "dateTime": 1520787830331}, {"current_trial": 207, "trialdata": {"rt": -1, "trial_type": "single-stim", "word": "apple", "stimulus": "<p id=\"stim\">APPLE</p>", "conditions": [24, 1600, "v", 12000], "internal_node_id": "0.0-153.0", "trial": 5, "time_elapsed": 891670, "serialpos": 10, "key_press": -1, "wordID": 32, "type": "PRES_VIS", "trial_index": 207}, "uniqueid": "MTK3537:3H7XDTSHKDYUZYXIG7HSOIGPITUGWF", "dateTime": 1520787833102}, {"current_trial": 208, "trialdata": {"rt": -1, "trial_type": "single-stim", "word": "knife", "stimulus": "<p id=\"stim\">KNIFE</p>", "conditions": [24, 1600, "v", 12000], "internal_node_id": "0.0-154.0", "trial": 5, "time_elapsed": 894087, "serialpos": 11, "key_press": -1, "wordID": 784, "type": "PRES_VIS", "trial_index": 208}, "uniqueid": "MTK3537:3H7XDTSHKDYUZYXIG7HSOIGPITUGWF", "dateTime": 1520787835519}, {"current_trial": 209, "trialdata": {"rt": -1, "trial_type": "single-stim", "word": "juggler", "stimulus": "<p id=\"stim\">JUGGLER</p>", "conditions": [24, 1600, "v", 12000], "internal_node_id": "0.0-155.0", "trial": 5, "time_elapsed": 896827, "serialpos": 12, "key_press": -1, "wordID": 762, "type": "PRES_VIS", "trial_index": 209}, "uniqueid": "MTK3537:3H7XDTSHKDYUZYXIG7HSOIGPITUGWF", "dateTime": 1520787838260}, {"current_trial": 210, "trialdata": {"rt": -1, "trial_type": "single-stim", "word": "dime", "stimulus": "<p id=\"stim\">DIME</p>", "conditions": [24, 1600, "v", 12000], "internal_node_id": "0.0-156.0", "trial": 5, "time_elapsed": 899262, "serialpos": 13, "key_press": -1, "wordID": 465, "type": "PRES_VIS", "trial_index": 210}, "uniqueid": "MTK3537:3H7XDTSHKDYUZYXIG7HSOIGPITUGWF", "dateTime": 1520787840694}, {"current_trial": 211, "trialdata": {"rt": -1, "trial_type": "single-stim", "word": "lizard", "stimulus": "<p id=\"stim\">LIZARD</p>", "conditions": [24, 1600, "v", 12000], "internal_node_id": "0.0-157.0", "trial": 5, "time_elapsed": 902039, "serialpos": 14, "key_press": -1, "wordID": 833, "type": "PRES_VIS", "trial_index": 211}, "uniqueid": "MTK3537:3H7XDTSHKDYUZYXIG7HSOIGPITUGWF", "dateTime": 1520787843471}, {"current_trial": 212, "trialdata": {"rt": -1, "trial_type": "single-stim", "word": "pepper", "stimulus": "<p id=\"stim\">PEPPER</p>", "conditions": [24, 1600, "v", 12000], "internal_node_id": "0.0-158.0", "trial": 5, "time_elapsed": 904713, "serialpos": 15, "key_press": -1, "wordID": 1046, "type": "PRES_VIS", "trial_index": 212}, "uniqueid": "MTK3537:3H7XDTSHKDYUZYXIG7HSOIGPITUGWF", "dateTime": 1520787846145}, {"current_trial": 213, "trialdata": {"rt": -1, "trial_type": "single-stim", "word": "belly", "stimulus": "<p id=\"stim\">BELLY</p>", "conditions": [24, 1600, "v", 12000], "internal_node_id": "0.0-159.0", "trial": 5, "time_elapsed": 907338, "serialpos": 16, "key_press": -1, "wordID": 118, "type": "PRES_VIS", "trial_index": 213}, "uniqueid": "MTK3537:3H7XDTSHKDYUZYXIG7HSOIGPITUGWF", "dateTime": 1520787848770}, {"current_trial": 214, "trialdata": {"rt": -1, "trial_type": "single-stim", "word": "clam", "stimulus": "<p id=\"stim\">CLAM</p>", "conditions": [24, 1600, "v", 12000], "internal_node_id": "0.0-160.0", "trial": 5, "time_elapsed": 909858, "serialpos": 17, "key_press": -1, "wordID": 314, "type": "PRES_VIS", "trial_index": 214}, "uniqueid": "MTK3537:3H7XDTSHKDYUZYXIG7HSOIGPITUGWF", "dateTime": 1520787851290}, {"current_trial": 215, "trialdata": {"rt": -1, "trial_type": "single-stim", "word": "briefcase", "stimulus": "<p id=\"stim\">BRIEFCASE</p>", "conditions": [24, 1600, "v", 12000], "internal_node_id": "0.0-161.0", "trial": 5, "time_elapsed": 912425, "serialpos": 18, "key_press": -1, "wordID": 174, "type": "PRES_VIS", "trial_index": 215}, "uniqueid": "MTK3537:3H7XDTSHKDYUZYXIG7HSOIGPITUGWF", "dateTime": 1520787853857}, {"current_trial": 216, "trialdata": {"rt": -1, "trial_type": "single-stim", "word": "knapsack", "stimulus": "<p id=\"stim\">KNAPSACK</p>", "conditions": [24, 1600, "v", 12000], "internal_node_id": "0.0-162.0", "trial": 5, "time_elapsed": 914902, "serialpos": 19, "key_press": -1, "wordID": 782, "type": "PRES_VIS", "trial_index": 216}, "uniqueid": "MTK3537:3H7XDTSHKDYUZYXIG7HSOIGPITUGWF", "dateTime": 1520787856334}, {"current_trial": 217, "trialdata": {"rt": -1, "trial_type": "single-stim", "word": "hatchet", "stimulus": "<p id=\"stim\">HATCHET</p>", "conditions": [24, 1600, "v", 12000], "internal_node_id": "0.0-163.0", "trial": 5, "time_elapsed": 917368, "serialpos": 20, "key_press": -1, "wordID": 690, "type": "PRES_VIS", "trial_index": 217}, "uniqueid": "MTK3537:3H7XDTSHKDYUZYXIG7HSOIGPITUGWF", "dateTime": 1520787858801}, {"current_trial": 218, "trialdata": {"rt": -1, "trial_type": "single-stim", "word": "rebel", "stimulus": "<p id=\"stim\">REBEL</p>", "conditions": [24, 1600, "v", 12000], "internal_node_id": "0.0-164.0", "trial": 5, "time_elapsed": 919960, "serialpos": 21, "key_press": -1, "wordID": 1171, "type": "PRES_VIS", "trial_index": 218}, "uniqueid": "MTK3537:3H7XDTSHKDYUZYXIG7HSOIGPITUGWF", "dateTime": 1520787861392}, {"current_trial": 219, "trialdata": {"rt": -1, "trial_type": "single-stim", "word": "mammal", "stimulus": "<p id=\"stim\">MAMMAL</p>", "conditions": [24, 1600, "v", 12000], "internal_node_id": "0.0-165.0", "trial": 5, "time_elapsed": 922512, "serialpos": 22, "key_press": -1, "wordID": 860, "type": "PRES_VIS", "trial_index": 219}, "uniqueid": "MTK3537:3H7XDTSHKDYUZYXIG7HSOIGPITUGWF", "dateTime": 1520787863944}, {"current_trial": 220, "trialdata": {"rt": -1, "trial_type": "single-stim", "word": "sandwich", "stimulus": "<p id=\"stim\">SANDWICH</p>", "conditions": [24, 1600, "v", 12000], "internal_node_id": "0.0-166.0", "trial": 5, "time_elapsed": 925260, "serialpos": 23, "key_press": -1, "wordID": 1231, "type": "PRES_VIS", "trial_index": 220}, "uniqueid": "MTK3537:3H7XDTSHKDYUZYXIG7HSOIGPITUGWF", "dateTime": 1520787866692}, {"current_trial": 221, "trialdata": {"rt": -1, "trial_type": "single-stim", "stimulus": "", "internal_node_id": "0.0-167.0-0.0", "time_elapsed": 927310, "key_press": -1, "type": "PRE_RECALL_DELAY", "trial_index": 221}, "uniqueid": "MTK3537:3H7XDTSHKDYUZYXIG7HSOIGPITUGWF", "dateTime": 1520787868742}, {"current_trial": 222, "trialdata": {"rt": -1000, "trial_type": "single-audio", "stimulus": "/static/audio/400Hz.wav", "internal_node_id": "0.0-168.0", "time_elapsed": 927812, "key_press": -1, "type": "PRE_RECALL_ALERT", "trial_index": 222}, "uniqueid": "MTK3537:3H7XDTSHKDYUZYXIG7HSOIGPITUGWF", "dateTime": 1520787869244}, {"current_trial": 223, "trialdata": {"rt": [3205, 5014, 6621, 11677, 14725, 19669, 23837, 32397], "recwords": ["sandwich", "mammal", "knife", "juggler", "apple", "knapsack", "clam", "dime"], "key_times": [782, 862, 1341, 1565, 1797, 2045, 2237, 2389, 3205, 3718, 3878, 4205, 4341, 4501, 4637, 5014, 5581, 5829, 6078, 6317, 6406, 6621, 8069, 8288, 8597, 8757, 9013, 9309, 10253, 11677, 12669, 12853, 13013, 13109, 13365, 14725, 17797, 18029, 18229, 18469, 18629, 18788, 19101, 19261, 19669, 23125, 23317, 23429, 23565, 23837, 31718, 31925, 32077, 32213, 32397], "trial_type": "free-recall", "conditions": [24, 1600, "v", 12000], "internal_node_id": "0.0-169.0-0.0", "key_presses": [83, 65, 78, 68, 87, 73, 67, 72, 13, 77, 65, 77, 77, 65, 76, 13, 75, 78, 73, 70, 69, 13, 74, 85, 71, 71, 76, 69, 82, 13, 65, 80, 80, 76, 69, 13, 75, 78, 65, 80, 83, 65, 67, 75, 13, 67, 76, 65, 77, 13, 68, 73, 77, 69, 13], "trial": 5, "time_elapsed": 987815, "type": "FREE_RECALL", "trial_index": 223}, "uniqueid": "MTK3537:3H7XDTSHKDYUZYXIG7HSOIGPITUGWF", "dateTime": 1520787929248}, {"current_trial": 224, "trialdata": {"rt": 631, "trial_type": "text", "internal_node_id": "0.0-170.0", "time_elapsed": 990449, "key_press": 32, "type": "INSTRUCTIONS", "trial_index": 224}, "uniqueid": "MTK3537:3H7XDTSHKDYUZYXIG7HSOIGPITUGWF", "dateTime": 1520787931881}, {"current_trial": 225, "trialdata": {"rt": [2686, 4965, 7805, 9701, 11517, 13830, 15805, 19327, 21861], "trial_type": "math-distractor", "key_times": [2119, 2310, 2686, 4590, 4965, 7197, 7365, 7805, 8989, 9357, 9701, 10750, 11150, 11517, 12933, 13438, 13830, 15053, 15438, 15805, 18189, 18381, 19327, 21302, 21549, 21861, 23213, 23701], "responses": ["16", "5", "11", "14", "16", "16", "14", "20", "10"], "num2": [9, 1, 1, 3, 8, 3, 1, 8, 2, 4], "num3": [5, 2, 8, 4, 1, 8, 4, 4, 2, 8], "conditions": [24, 800, "v", 24000], "internal_node_id": "0.0-171.0", "key_presses": [49, 54, 13, 53, 13, 49, 49, 13, 49, 52, 13, 49, 54, 13, 49, 54, 13, 49, 52, 13, 50, 48, 13, 49, 48, 13, 49, 56], "trial": 6, "time_elapsed": 1016453, "type": "DISTRACTOR", "trial_index": 225, "num1": [2, 2, 2, 7, 7, 5, 9, 8, 6, 6]}, "uniqueid": "MTK3537:3H7XDTSHKDYUZYXIG7HSOIGPITUGWF", "dateTime": 1520787957885}, {"current_trial": 226, "trialdata": {"rt": -1, "trial_type": "single-stim", "stimulus": "<p id=\"stim\">10</p>", "internal_node_id": "0.0-172.0-0.0", "time_elapsed": 1019454, "key_press": -1, "trial_index": 226}, "uniqueid": "MTK3537:3H7XDTSHKDYUZYXIG7HSOIGPITUGWF", "dateTime": 1520787960886}, {"current_trial": 227, "trialdata": {"rt": -1, "trial_type": "single-stim", "stimulus": "<p id=\"stim\">9</p>", "internal_node_id": "0.0-172.0-1.0", "time_elapsed": 1020457, "key_press": -1, "trial_index": 227}, "uniqueid": "MTK3537:3H7XDTSHKDYUZYXIG7HSOIGPITUGWF", "dateTime": 1520787961889}, {"current_trial": 228, "trialdata": {"rt": -1, "trial_type": "single-stim", "stimulus": "<p id=\"stim\">8</p>", "internal_node_id": "0.0-172.0-2.0", "time_elapsed": 1021458, "key_press": -1, "trial_index": 228}, "uniqueid": "MTK3537:3H7XDTSHKDYUZYXIG7HSOIGPITUGWF", "dateTime": 1520787962890}, {"current_trial": 229, "trialdata": {"rt": -1, "trial_type": "single-stim", "stimulus": "<p id=\"stim\">7</p>", "internal_node_id": "0.0-172.0-3.0", "time_elapsed": 1022459, "key_press": -1, "trial_index": 229}, "uniqueid": "MTK3537:3H7XDTSHKDYUZYXIG7HSOIGPITUGWF", "dateTime": 1520787963891}, {"current_trial": 230, "trialdata": {"rt": -1, "trial_type": "single-stim", "stimulus": "<p id=\"stim\">6</p>", "internal_node_id": "0.0-172.0-4.0", "time_elapsed": 1023461, "key_press": -1, "trial_index": 230}, "uniqueid": "MTK3537:3H7XDTSHKDYUZYXIG7HSOIGPITUGWF", "dateTime": 1520787964893}, {"current_trial": 231, "trialdata": {"rt": -1, "trial_type": "single-stim", "stimulus": "<p id=\"stim\">5</p>", "internal_node_id": "0.0-172.0-5.0", "time_elapsed": 1024463, "key_press": -1, "trial_index": 231}, "uniqueid": "MTK3537:3H7XDTSHKDYUZYXIG7HSOIGPITUGWF", "dateTime": 1520787965895}, {"current_trial": 232, "trialdata": {"rt": -1, "trial_type": "single-stim", "stimulus": "<p id=\"stim\">4</p>", "internal_node_id": "0.0-172.0-6.0", "time_elapsed": 1025465, "key_press": -1, "trial_index": 232}, "uniqueid": "MTK3537:3H7XDTSHKDYUZYXIG7HSOIGPITUGWF", "dateTime": 1520787966898}, {"current_trial": 233, "trialdata": {"rt": -1, "trial_type": "single-stim", "stimulus": "<p id=\"stim\">3</p>", "internal_node_id": "0.0-172.0-7.0", "time_elapsed": 1026468, "key_press": -1, "trial_index": 233}, "uniqueid": "MTK3537:3H7XDTSHKDYUZYXIG7HSOIGPITUGWF", "dateTime": 1520787967900}, {"current_trial": 234, "trialdata": {"rt": -1, "trial_type": "single-stim", "stimulus": "<p id=\"stim\">2</p>", "internal_node_id": "0.0-172.0-8.0", "time_elapsed": 1027472, "key_press": -1, "trial_index": 234}, "uniqueid": "MTK3537:3H7XDTSHKDYUZYXIG7HSOIGPITUGWF", "dateTime": 1520787968904}, {"current_trial": 235, "trialdata": {"rt": -1, "trial_type": "single-stim", "stimulus": "<p id=\"stim\">1</p>", "internal_node_id": "0.0-172.0-9.0", "time_elapsed": 1028473, "key_press": -1, "trial_index": 235}, "uniqueid": "MTK3537:3H7XDTSHKDYUZYXIG7HSOIGPITUGWF", "dateTime": 1520787969905}, {"current_trial": 236, "trialdata": {"rt": -1, "trial_type": "single-stim", "stimulus": "<p id=\"stim\">+</p>", "internal_node_id": "0.0-173.0-0.0", "time_elapsed": 1029975, "key_press": -1, "type": "FIXATION", "trial_index": 236}, "uniqueid": "MTK3537:3H7XDTSHKDYUZYXIG7HSOIGPITUGWF", "dateTime": 1520787971408}, {"current_trial": 237, "trialdata": {"rt": -1, "trial_type": "single-stim", "word": "slime", "stimulus": "<p id=\"stim\">SLIME</p>", "conditions": [24, 800, "v", 24000], "internal_node_id": "0.0-174.0", "trial": 6, "time_elapsed": 1030777, "serialpos": 0, "key_press": -1, "wordID": 1326, "type": "PRES_VIS", "trial_index": 237}, "uniqueid": "MTK3537:3H7XDTSHKDYUZYXIG7HSOIGPITUGWF", "dateTime": 1520787972209}, {"current_trial": 238, "trialdata": {"rt": -1, "trial_type": "single-stim", "word": "beaver", "stimulus": "<p id=\"stim\">BEAVER</p>", "conditions": [24, 800, "v", 24000], "internal_node_id": "0.0-175.0", "trial": 6, "time_elapsed": 1032627, "serialpos": 1, "key_press": -1, "wordID": 108, "type": "PRES_VIS", "trial_index": 238}, "uniqueid": "MTK3537:3H7XDTSHKDYUZYXIG7HSOIGPITUGWF", "dateTime": 1520787974059}, {"current_trial": 239, "trialdata": {"rt": -1, "trial_type": "single-stim", "word": "puppy", "stimulus": "<p id=\"stim\">PUPPY</p>", "conditions": [24, 800, "v", 24000], "internal_node_id": "0.0-176.0", "trial": 6, "time_elapsed": 1034301, "serialpos": 2, "key_press": -1, "wordID": 1143, "type": "PRES_VIS", "trial_index": 239}, "uniqueid": "MTK3537:3H7XDTSHKDYUZYXIG7HSOIGPITUGWF", "dateTime": 1520787975733}, {"current_trial": 240, "trialdata": {"rt": -1, "trial_type": "single-stim", "word": "nomad", "stimulus": "<p id=\"stim\">NOMAD</p>", "conditions": [24, 800, "v", 24000], "internal_node_id": "0.0-177.0", "trial": 6, "time_elapsed": 1036237, "serialpos": 3, "key_press": -1, "wordID": 954, "type": "PRES_VIS", "trial_index": 240}, "uniqueid": "MTK3537:3H7XDTSHKDYUZYXIG7HSOIGPITUGWF", "dateTime": 1520787977669}, {"current_trial": 241, "trialdata": {"rt": -1, "trial_type": "single-stim", "word": "monster", "stimulus": "<p id=\"stim\">MONSTER</p>", "conditions": [24, 800, "v", 24000], "internal_node_id": "0.0-178.0", "trial": 6, "time_elapsed": 1037894, "serialpos": 4, "key_press": -1, "wordID": 911, "type": "PRES_VIS", "trial_index": 241}, "uniqueid": "MTK3537:3H7XDTSHKDYUZYXIG7HSOIGPITUGWF", "dateTime": 1520787979326}, {"current_trial": 242, "trialdata": {"rt": -1, "trial_type": "single-stim", "word": "marsh", "stimulus": "<p id=\"stim\">MARSH</p>", "conditions": [24, 800, "v", 24000], "internal_node_id": "0.0-179.0", "trial": 6, "time_elapsed": 1039871, "serialpos": 5, "key_press": -1, "wordID": 873, "type": "PRES_VIS", "trial_index": 242}, "uniqueid": "MTK3537:3H7XDTSHKDYUZYXIG7HSOIGPITUGWF", "dateTime": 1520787981303}, {"current_trial": 243, "trialdata": {"rt": -1, "trial_type": "single-stim", "word": "river", "stimulus": "<p id=\"stim\">RIVER</p>", "conditions": [24, 800, "v", 24000], "internal_node_id": "0.0-180.0", "trial": 6, "time_elapsed": 1041833, "serialpos": 6, "key_press": -1, "wordID": 1193, "type": "PRES_VIS", "trial_index": 243}, "uniqueid": "MTK3537:3H7XDTSHKDYUZYXIG7HSOIGPITUGWF", "dateTime": 1520787983265}, {"current_trial": 244, "trialdata": {"rt": -1, "trial_type": "single-stim", "word": "gravel", "stimulus": "<p id=\"stim\">GRAVEL</p>", "conditions": [24, 800, "v", 24000], "internal_node_id": "0.0-181.0", "trial": 6, "time_elapsed": 1043759, "serialpos": 7, "key_press": -1, "wordID": 658, "type": "PRES_VIS", "trial_index": 244}, "uniqueid": "MTK3537:3H7XDTSHKDYUZYXIG7HSOIGPITUGWF", "dateTime": 1520787985191}, {"current_trial": 245, "trialdata": {"rt": -1, "trial_type": "single-stim", "word": "beast", "stimulus": "<p id=\"stim\">BEAST</p>", "conditions": [24, 800, "v", 24000], "internal_node_id": "0.0-182.0", "trial": 6, "time_elapsed": 1045579, "serialpos": 8, "key_press": -1, "wordID": 107, "type": "PRES_VIS", "trial_index": 245}, "uniqueid": "MTK3537:3H7XDTSHKDYUZYXIG7HSOIGPITUGWF", "dateTime": 1520787987011}, {"current_trial": 246, "trialdata": {"rt": -1, "trial_type": "single-stim", "word": "sword", "stimulus": "<p id=\"stim\">SWORD</p>", "conditions": [24, 800, "v", 24000], "internal_node_id": "0.0-183.0", "trial": 6, "time_elapsed": 1047322, "serialpos": 9, "key_press": -1, "wordID": 1422, "type": "PRES_VIS", "trial_index": 246}, "uniqueid": "MTK3537:3H7XDTSHKDYUZYXIG7HSOIGPITUGWF", "dateTime": 1520787988754}, {"current_trial": 247, "trialdata": {"rt": -1, "trial_type": "single-stim", "word": "agent", "stimulus": "<p id=\"stim\">AGENT</p>", "conditions": [24, 800, "v", 24000], "internal_node_id": "0.0-184.0", "trial": 6, "time_elapsed": 1048963, "serialpos": 10, "key_press": -1, "wordID": 9, "type": "PRES_VIS", "trial_index": 247}, "uniqueid": "MTK3537:3H7XDTSHKDYUZYXIG7HSOIGPITUGWF", "dateTime": 1520787990395}, {"current_trial": 248, "trialdata": {"rt": -1, "trial_type": "single-stim", "word": "cashier", "stimulus": "<p id=\"stim\">CASHIER</p>", "conditions": [24, 800, "v", 24000], "internal_node_id": "0.0-185.0", "trial": 6, "time_elapsed": 1050781, "serialpos": 11, "key_press": -1, "wordID": 253, "type": "PRES_VIS", "trial_index": 248}, "uniqueid": "MTK3537:3H7XDTSHKDYUZYXIG7HSOIGPITUGWF", "dateTime": 1520787992214}, {"current_trial": 249, "trialdata": {"rt": -1, "trial_type": "single-stim", "word": "xerox", "stimulus": "<p id=\"stim\">XEROX</p>", "conditions": [24, 800, "v", 24000], "internal_node_id": "0.0-186.0", "trial": 6, "time_elapsed": 1052604, "serialpos": 12, "key_press": -1, "wordID": 1627, "type": "PRES_VIS", "trial_index": 249}, "uniqueid": "MTK3537:3H7XDTSHKDYUZYXIG7HSOIGPITUGWF", "dateTime": 1520787994036}, {"current_trial": 250, "trialdata": {"rt": -1, "trial_type": "single-stim", "word": "climber", "stimulus": "<p id=\"stim\">CLIMBER</p>", "conditions": [24, 800, "v", 24000], "internal_node_id": "0.0-187.0", "trial": 6, "time_elapsed": 1054306, "serialpos": 13, "key_press": -1, "wordID": 322, "type": "PRES_VIS", "trial_index": 250}, "uniqueid": "MTK3537:3H7XDTSHKDYUZYXIG7HSOIGPITUGWF", "dateTime": 1520787995739}, {"current_trial": 251, "trialdata": {"rt": -1, "trial_type": "single-stim", "word": "wife", "stimulus": "<p id=\"stim\">WIFE</p>", "conditions": [24, 800, "v", 24000], "internal_node_id": "0.0-188.0", "trial": 6, "time_elapsed": 1056103, "serialpos": 14, "key_press": -1, "wordID": 1608, "type": "PRES_VIS", "trial_index": 251}, "uniqueid": "MTK3537:3H7XDTSHKDYUZYXIG7HSOIGPITUGWF", "dateTime": 1520787997535}, {"current_trial": 252, "trialdata": {"rt": -1, "trial_type": "single-stim", "word": "widow", "stimulus": "<p id=\"stim\">WIDOW</p>", "conditions": [24, 800, "v", 24000], "internal_node_id": "0.0-189.0", "trial": 6, "time_elapsed": 1057913, "serialpos": 15, "key_press": -1, "wordID": 1607, "type": "PRES_VIS", "trial_index": 252}, "uniqueid": "MTK3537:3H7XDTSHKDYUZYXIG7HSOIGPITUGWF", "dateTime": 1520787999345}, {"current_trial": 253, "trialdata": {"rt": -1, "trial_type": "single-stim", "word": "driver", "stimulus": "<p id=\"stim\">DRIVER</p>", "conditions": [24, 800, "v", 24000], "internal_node_id": "0.0-190.0", "trial": 6, "time_elapsed": 1059709, "serialpos": 16, "key_press": -1, "wordID": 498, "type": "PRES_VIS", "trial_index": 253}, "uniqueid": "MTK3537:3H7XDTSHKDYUZYXIG7HSOIGPITUGWF", "dateTime": 1520788001141}, {"current_trial": 254, "trialdata": {"rt": -1, "trial_type": "single-stim", "word": "cabin", "stimulus": "<p id=\"stim\">CABIN</p>", "conditions": [24, 800, "v", 24000], "internal_node_id": "0.0-191.0", "trial": 6, "time_elapsed": 1061331, "serialpos": 17, "key_press": -1, "wordID": 210, "type": "PRES_VIS", "trial_index": 254}, "uniqueid": "MTK3537:3H7XDTSHKDYUZYXIG7HSOIGPITUGWF", "dateTime": 1520788002764}, {"current_trial": 255, "t