{"assignmentId": "317HQ483I8ZI8VUZEUQ8DBGE4D3NIA", "workerId": "MTK3281", "questiondata": {"origin": "United States", "strat-rehearsal": "0", "marital": "Single", "education": "High school diploma", "ethnicity": "Hispanic", "color_depth": 24, "distracted": "No", "wrote-notes": "Yes", "strat-other": "", "screen_width": 1366, "avail_screen_width": 1366, "avail_screen_height": 768, "strat-image": "67", "language": "English", "gender": "Male", "age": "20", "gender_other": "", "race": ["White"], "strat-categorize": "56", "pixel_depth": 24, "strat-spatial": "0", "strat-story": "34", "race_other": "", "screen_height": 768}, "bonus": 0, "hitId": "3OB6JN3A9QWNWSEO2E0FP4WL1JTRM3", "counterbalance": 2998, "useragent": "Mozilla/5.0 (Windows NT 6.1; Win64; x64) AppleWebKit/537.36 (KHTML, like Gecko) Chrome/64.0.3282.186 Safari/537.36", "eventdata": [{"eventtype": "initialized", "interval": 0, "value": null, "timestamp": 1520350053762}, {"eventtype": "window_resize", "interval": 0, "value": [1362, 714], "timestamp": 1520350053762}, {"eventtype": "window_resize", "interval": 4776, "value": [1366, 718], "timestamp": 1520350058538}, {"eventtype": "focus", "interval": 1825162, "value": "off", "timestamp": 1520351883700}, {"eventtype": "focus", "interval": 44085, "value": "on", "timestamp": 1520351927785}], "data": [{"current_trial": 0, "trialdata": {"rt": 4917, "trial_type": "text", "internal_node_id": "0.0-0.0", "time_elapsed": 4922, "key_press": 32, "type": "INSTRUCTIONS", "trial_index": 0}, "uniqueid": "MTK3281:317HQ483I8ZI8VUZEUQ8DBGE4D3NIA", "dateTime": 1520350059216}, {"current_trial": 1, "trialdata": {"rt": 15595, "trial_type": "text", "internal_node_id": "0.0-1.0", "time_elapsed": 20521, "key_press": 32, "type": "INSTRUCTIONS", "trial_index": 1}, "uniqueid": "MTK3281:317HQ483I8ZI8VUZEUQ8DBGE4D3NIA", "dateTime": 1520350074815}, {"current_trial": 2, "trialdata": {"rt": [10289], "trial_type": "audio-test", "responses": ["ocean"], "internal_node_id": "0.0-2.0", "time_elapsed": 30833, "type": "AUDIO_TEST", "trial_index": 2}, "uniqueid": "MTK3281:317HQ483I8ZI8VUZEUQ8DBGE4D3NIA", "dateTime": 1520350085127}, {"current_trial": 3, "trialdata": {"rt": [4372], "trial_type": "audio-test", "responses": ["crystal"], "internal_node_id": "0.0-3.0", "time_elapsed": 35221, "type": "AUDIO_TEST", "trial_index": 3}, "uniqueid": "MTK3281:317HQ483I8ZI8VUZEUQ8DBGE4D3NIA", "dateTime": 1520350089515}, {"current_trial": 4, "trialdata": {"rt": [6586], "trial_type": "audio-test", "responses": ["spice"], "internal_node_id": "0.0-4.0", "time_elapsed": 41815, "type": "AUDIO_TEST", "trial_index": 4}, "uniqueid": "MTK3281:317HQ483I8ZI8VUZEUQ8DBGE4D3NIA", "dateTime": 1520350096109}, {"current_trial": 5, "trialdata": {"rt": 24814, "trial_type": "survey-text", "responses": "{\"Q0\":\"4 PM\",\"Q1\":\"12 AM\",\"Q2\":\"4\"}", "internal_node_id": "0.0-5.0", "time_elapsed": 67385, "type": "SLEEP_SURVEY", "trial_index": 5}, "uniqueid": "MTK3281:317HQ483I8ZI8VUZEUQ8DBGE4D3NIA", "dateTime": 1520350121679}, {"current_trial": 6, "trialdata": {"rt": 38139, "trial_type": "text", "internal_node_id": "0.0-6.0", "time_elapsed": 106526, "key_press": 32, "type": "INSTRUCTIONS", "trial_index": 6}, "uniqueid": "MTK3281:317HQ483I8ZI8VUZEUQ8DBGE4D3NIA", "dateTime": 1520350160820}, {"current_trial": 7, "trialdata": {"rt": 13860, "trial_type": "text", "internal_node_id": "0.0-7.0", "time_elapsed": 120888, "key_press": 32, "type": "INSTRUCTIONS", "trial_index": 7}, "uniqueid": "MTK3281:317HQ483I8ZI8VUZEUQ8DBGE4D3NIA", "dateTime": 1520350175182}, {"current_trial": 8, "trialdata": {"rt": 7920, "trial_type": "text", "internal_node_id": "0.0-8.0", "time_elapsed": 129311, "key_press": 32, "type": "INSTRUCTIONS", "trial_index": 8}, "uniqueid": "MTK3281:317HQ483I8ZI8VUZEUQ8DBGE4D3NIA", "dateTime": 1520350183605}, {"current_trial": 9, "trialdata": {"rt": [4016, 6032, 7903, 10239, 12399], "trial_type": "math-distractor", "key_times": [2534, 2888, 4016, 5577, 5792, 6032, 7496, 7640, 7903, 9576, 9727, 10239, 12151, 12399], "responses": ["11", "18", "15", "11", "4"], "num2": [4, 9, 7, 8, 2, 6], "num3": [5, 8, 5, 2, 1, 8], "conditions": [18, 1200, "v", 18000], "internal_node_id": "0.0-9.0", "key_presses": [97, 97, 13, 97, 104, 13, 97, 101, 13, 97, 97, 13, 100, 13], "trial": 0, "time_elapsed": 148319, "type": "DISTRACTOR", "trial_index": 9, "num1": [2, 1, 3, 1, 1, 7]}, "uniqueid": "MTK3281:317HQ483I8ZI8VUZEUQ8DBGE4D3NIA", "dateTime": 1520350202614}, {"current_trial": 10, "trialdata": {"rt": -1, "trial_type": "single-stim", "stimulus": "<p id=\"stim\">10</p>", "internal_node_id": "0.0-10.0-0.0", "time_elapsed": 151325, "key_press": -1, "trial_index": 10}, "uniqueid": "MTK3281:317HQ483I8ZI8VUZEUQ8DBGE4D3NIA", "dateTime": 1520350205619}, {"current_trial": 11, "trialdata": {"rt": -1, "trial_type": "single-stim", "stimulus": "<p id=\"stim\">9</p>", "internal_node_id": "0.0-10.0-1.0", "time_elapsed": 152327, "key_press": -1, "trial_index": 11}, "uniqueid": "MTK3281:317HQ483I8ZI8VUZEUQ8DBGE4D3NIA", "dateTime": 1520350206622}, {"current_trial": 12, "trialdata": {"rt": -1, "trial_type": "single-stim", "stimulus": "<p id=\"stim\">8</p>", "internal_node_id": "0.0-10.0-2.0", "time_elapsed": 153330, "key_press": -1, "trial_index": 12}, "uniqueid": "MTK3281:317HQ483I8ZI8VUZEUQ8DBGE4D3NIA", "dateTime": 1520350207624}, {"current_trial": 13, "trialdata": {"rt": -1, "trial_type": "single-stim", "stimulus": "<p id=\"stim\">7</p>", "internal_node_id": "0.0-10.0-3.0", "time_elapsed": 154331, "key_press": -1, "trial_index": 13}, "uniqueid": "MTK3281:317HQ483I8ZI8VUZEUQ8DBGE4D3NIA", "dateTime": 1520350208625}, {"current_trial": 14, "trialdata": {"rt": -1, "trial_type": "single-stim", "stimulus": "<p id=\"stim\">6</p>", "internal_node_id": "0.0-10.0-4.0", "time_elapsed": 155333, "key_press": -1, "trial_index": 14}, "uniqueid": "MTK3281:317HQ483I8ZI8VUZEUQ8DBGE4D3NIA", "dateTime": 1520350209627}, {"current_trial": 15, "trialdata": {"rt": -1, "trial_type": "single-stim", "stimulus": "<p id=\"stim\">5</p>", "internal_node_id": "0.0-10.0-5.0", "time_elapsed": 156335, "key_press": -1, "trial_index": 15}, "uniqueid": "MTK3281:317HQ483I8ZI8VUZEUQ8DBGE4D3NIA", "dateTime": 1520350210629}, {"current_trial": 16, "trialdata": {"rt": -1, "trial_type": "single-stim", "stimulus": "<p id=\"stim\">4</p>", "internal_node_id": "0.0-10.0-6.0", "time_elapsed": 157337, "key_press": -1, "trial_index": 16}, "uniqueid": "MTK3281:317HQ483I8ZI8VUZEUQ8DBGE4D3NIA", "dateTime": 1520350211631}, {"current_trial": 17, "trialdata": {"rt": -1, "trial_type": "single-stim", "stimulus": "<p id=\"stim\">3</p>", "internal_node_id": "0.0-10.0-7.0", "time_elapsed": 158341, "key_press": -1, "trial_index": 17}, "uniqueid": "MTK3281:317HQ483I8ZI8VUZEUQ8DBGE4D3NIA", "dateTime": 1520350212635}, {"current_trial": 18, "trialdata": {"rt": -1, "trial_type": "single-stim", "stimulus": "<p id=\"stim\">2</p>", "internal_node_id": "0.0-10.0-8.0", "time_elapsed": 159342, "key_press": -1, "trial_index": 18}, "uniqueid": "MTK3281:317HQ483I8ZI8VUZEUQ8DBGE4D3NIA", "dateTime": 1520350213636}, {"current_trial": 19, "trialdata": {"rt": -1, "trial_type": "single-stim", "stimulus": "<p id=\"stim\">1</p>", "internal_node_id": "0.0-10.0-9.0", "time_elapsed": 160344, "key_press": -1, "trial_index": 19}, "uniqueid": "MTK3281:317HQ483I8ZI8VUZEUQ8DBGE4D3NIA", "dateTime": 1520350214638}, {"current_trial": 20, "trialdata": {"rt": -1, "trial_type": "single-stim", "stimulus": "<p id=\"stim\">+</p>", "internal_node_id": "0.0-11.0-0.0", "time_elapsed": 161845, "key_press": -1, "type": "FIXATION", "trial_index": 20}, "uniqueid": "MTK3281:317HQ483I8ZI8VUZEUQ8DBGE4D3NIA", "dateTime": 1520350216140}, {"current_trial": 21, "trialdata": {"rt": -1, "trial_type": "single-stim", "word": "buggy", "stimulus": "<p id=\"stim\">BUGGY</p>", "conditions": [18, 1200, "v", 18000], "internal_node_id": "0.0-12.0", "trial": 0, "time_elapsed": 163049, "serialpos": 0, "key_press": -1, "wordID": 187, "type": "PRES_VIS", "trial_index": 21}, "uniqueid": "MTK3281:317HQ483I8ZI8VUZEUQ8DBGE4D3NIA", "dateTime": 1520350217343}, {"current_trial": 22, "trialdata": {"rt": -1, "trial_type": "single-stim", "word": "dresser", "stimulus": "<p id=\"stim\">DRESSER</p>", "conditions": [18, 1200, "v", 18000], "internal_node_id": "0.0-13.0", "trial": 0, "time_elapsed": 165107, "serialpos": 1, "key_press": -1, "wordID": 495, "type": "PRES_VIS", "trial_index": 22}, "uniqueid": "MTK3281:317HQ483I8ZI8VUZEUQ8DBGE4D3NIA", "dateTime": 1520350219401}, {"current_trial": 23, "trialdata": {"rt": -1, "trial_type": "single-stim", "word": "flower", "stimulus": "<p id=\"stim\">FLOWER</p>", "conditions": [18, 1200, "v", 18000], "internal_node_id": "0.0-14.0", "trial": 0, "time_elapsed": 167126, "serialpos": 2, "key_press": -1, "wordID": 583, "type": "PRES_VIS", "trial_index": 23}, "uniqueid": "MTK3281:317HQ483I8ZI8VUZEUQ8DBGE4D3NIA", "dateTime": 1520350221420}, {"current_trial": 24, "trialdata": {"rt": -1, "trial_type": "single-stim", "word": "razor", "stimulus": "<p id=\"stim\">RAZOR</p>", "conditions": [18, 1200, "v", 18000], "internal_node_id": "0.0-15.0", "trial": 0, "time_elapsed": 169167, "serialpos": 3, "key_press": -1, "wordID": 1170, "type": "PRES_VIS", "trial_index": 24}, "uniqueid": "MTK3281:317HQ483I8ZI8VUZEUQ8DBGE4D3NIA", "dateTime": 1520350223461}, {"current_trial": 25, "trialdata": {"rt": -1, "trial_type": "single-stim", "word": "judge", "stimulus": "<p id=\"stim\">JUDGE</p>", "conditions": [18, 1200, "v", 18000], "internal_node_id": "0.0-16.0", "trial": 0, "time_elapsed": 171325, "serialpos": 4, "key_press": -1, "wordID": 760, "type": "PRES_VIS", "trial_index": 25}, "uniqueid": "MTK3281:317HQ483I8ZI8VUZEUQ8DBGE4D3NIA", "dateTime": 1520350225619}, {"current_trial": 26, "trialdata": {"rt": -1, "trial_type": "single-stim", "word": "forest", "stimulus": "<p id=\"stim\">FOREST</p>", "conditions": [18, 1200, "v", 18000], "internal_node_id": "0.0-17.0", "trial": 0, "time_elapsed": 173679, "serialpos": 5, "key_press": -1, "wordID": 592, "type": "PRES_VIS", "trial_index": 26}, "uniqueid": "MTK3281:317HQ483I8ZI8VUZEUQ8DBGE4D3NIA", "dateTime": 1520350227973}, {"current_trial": 27, "trialdata": {"rt": -1, "trial_type": "single-stim", "word": "outdoors", "stimulus": "<p id=\"stim\">OUTDOORS</p>", "conditions": [18, 1200, "v", 18000], "internal_node_id": "0.0-18.0", "trial": 0, "time_elapsed": 175707, "serialpos": 6, "key_press": -1, "wordID": 986, "type": "PRES_VIS", "trial_index": 27}, "uniqueid": "MTK3281:317HQ483I8ZI8VUZEUQ8DBGE4D3NIA", "dateTime": 1520350230001}, {"current_trial": 28, "trialdata": {"rt": -1, "trial_type": "single-stim", "word": "salad", "stimulus": "<p id=\"stim\">SALAD</p>", "conditions": [18, 1200, "v", 18000], "internal_node_id": "0.0-19.0", "trial": 0, "time_elapsed": 177870, "serialpos": 7, "key_press": -1, "wordID": 1223, "type": "PRES_VIS", "trial_index": 28}, "uniqueid": "MTK3281:317HQ483I8ZI8VUZEUQ8DBGE4D3NIA", "dateTime": 1520350232164}, {"current_trial": 29, "trialdata": {"rt": -1, "trial_type": "single-stim", "word": "record", "stimulus": "<p id=\"stim\">RECORD</p>", "conditions": [18, 1200, "v", 18000], "internal_node_id": "0.0-20.0", "trial": 0, "time_elapsed": 179938, "serialpos": 8, "key_press": -1, "wordID": 1175, "type": "PRES_VIS", "trial_index": 29}, "uniqueid": "MTK3281:317HQ483I8ZI8VUZEUQ8DBGE4D3NIA", "dateTime": 1520350234232}, {"current_trial": 30, "trialdata": {"rt": -1, "trial_type": "single-stim", "word": "football", "stimulus": "<p id=\"stim\">FOOTBALL</p>", "conditions": [18, 1200, "v", 18000], "internal_node_id": "0.0-21.0", "trial": 0, "time_elapsed": 182334, "serialpos": 9, "key_press": -1, "wordID": 590, "type": "PRES_VIS", "trial_index": 30}, "uniqueid": "MTK3281:317HQ483I8ZI8VUZEUQ8DBGE4D3NIA", "dateTime": 1520350236628}, {"current_trial": 31, "trialdata": {"rt": -1, "trial_type": "single-stim", "word": "seal", "stimulus": "<p id=\"stim\">SEAL</p>", "conditions": [18, 1200, "v", 18000], "internal_node_id": "0.0-22.0", "trial": 0, "time_elapsed": 184694, "serialpos": 10, "key_press": -1, "wordID": 1261, "type": "PRES_VIS", "trial_index": 31}, "uniqueid": "MTK3281:317HQ483I8ZI8VUZEUQ8DBGE4D3NIA", "dateTime": 1520350238989}, {"current_trial": 32, "trialdata": {"rt": -1, "trial_type": "single-stim", "word": "sausage", "stimulus": "<p id=\"stim\">SAUSAGE</p>", "conditions": [18, 1200, "v", 18000], "internal_node_id": "0.0-23.0", "trial": 0, "time_elapsed": 187082, "serialpos": 11, "key_press": -1, "wordID": 1237, "type": "PRES_VIS", "trial_index": 32}, "uniqueid": "MTK3281:317HQ483I8ZI8VUZEUQ8DBGE4D3NIA", "dateTime": 1520350241376}, {"current_trial": 33, "trialdata": {"rt": -1, "trial_type": "single-stim", "word": "panther", "stimulus": "<p id=\"stim\">PANTHER</p>", "conditions": [18, 1200, "v", 18000], "internal_node_id": "0.0-24.0", "trial": 0, "time_elapsed": 189259, "serialpos": 12, "key_press": -1, "wordID": 1008, "type": "PRES_VIS", "trial_index": 33}, "uniqueid": "MTK3281:317HQ483I8ZI8VUZEUQ8DBGE4D3NIA", "dateTime": 1520350243554}, {"current_trial": 34, "trialdata": {"rt": -1, "trial_type": "single-stim", "word": "expert", "stimulus": "<p id=\"stim\">EXPERT</p>", "conditions": [18, 1200, "v", 18000], "internal_node_id": "0.0-25.0", "trial": 0, "time_elapsed": 191568, "serialpos": 13, "key_press": -1, "wordID": 542, "type": "PRES_VIS", "trial_index": 34}, "uniqueid": "MTK3281:317HQ483I8ZI8VUZEUQ8DBGE4D3NIA", "dateTime": 1520350245863}, {"current_trial": 35, "trialdata": {"rt": -1, "trial_type": "single-stim", "word": "daisy", "stimulus": "<p id=\"stim\">DAISY</p>", "conditions": [18, 1200, "v", 18000], "internal_node_id": "0.0-26.0", "trial": 0, "time_elapsed": 193791, "serialpos": 14, "key_press": -1, "wordID": 434, "type": "PRES_VIS", "trial_index": 35}, "uniqueid": "MTK3281:317HQ483I8ZI8VUZEUQ8DBGE4D3NIA", "dateTime": 1520350248085}, {"current_trial": 36, "trialdata": {"rt": -1, "trial_type": "single-stim", "word": "body", "stimulus": "<p id=\"stim\">BODY</p>", "conditions": [18, 1200, "v", 18000], "internal_node_id": "0.0-27.0", "trial": 0, "time_elapsed": 195865, "serialpos": 15, "key_press": -1, "wordID": 144, "type": "PRES_VIS", "trial_index": 36}, "uniqueid": "MTK3281:317HQ483I8ZI8VUZEUQ8DBGE4D3NIA", "dateTime": 1520350250159}, {"current_trial": 37, "trialdata": {"rt": -1, "trial_type": "single-stim", "word": "wife", "stimulus": "<p id=\"stim\">WIFE</p>", "conditions": [18, 1200, "v", 18000], "internal_node_id": "0.0-28.0", "trial": 0, "time_elapsed": 197897, "serialpos": 16, "key_press": -1, "wordID": 1608, "type": "PRES_VIS", "trial_index": 37}, "uniqueid": "MTK3281:317HQ483I8ZI8VUZEUQ8DBGE4D3NIA", "dateTime": 1520350252191}, {"current_trial": 38, "trialdata": {"rt": -1, "trial_type": "single-stim", "word": "sponge", "stimulus": "<p id=\"stim\">SPONGE</p>", "conditions": [18, 1200, "v", 18000], "internal_node_id": "0.0-29.0", "trial": 0, "time_elapsed": 200174, "serialpos": 17, "key_press": -1, "wordID": 1354, "type": "PRES_VIS", "trial_index": 38}, "uniqueid": "MTK3281:317HQ483I8ZI8VUZEUQ8DBGE4D3NIA", "dateTime": 1520350254469}, {"current_trial": 39, "trialdata": {"rt": -1, "trial_type": "single-stim", "stimulus": "", "internal_node_id": "0.0-30.0-0.0", "time_elapsed": 202759, "key_press": -1, "type": "PRE_RECALL_DELAY", "trial_index": 39}, "uniqueid": "MTK3281:317HQ483I8ZI8VUZEUQ8DBGE4D3NIA", "dateTime": 1520350257054}, {"current_trial": 40, "trialdata": {"rt": -1000, "trial_type": "single-audio", "stimulus": "/static/audio/400Hz.wav", "internal_node_id": "0.0-31.0", "time_elapsed": 203263, "key_press": -1, "type": "PRE_RECALL_ALERT", "trial_index": 40}, "uniqueid": "MTK3281:317HQ483I8ZI8VUZEUQ8DBGE4D3NIA", "dateTime": 1520350257557}, {"current_trial": 41, "trialdata": {"rt": [2203, 3747, 5316, 7612, 9475, 11884, 16324, 26405], "recwords": ["wife", "buggy", "flower", "forest", "daisy", "football", "dresser", "outside"], "key_times": [1461, 1732, 1851, 1979, 2203, 2763, 2899, 3156, 3348, 3460, 3747, 4084, 4195, 4403, 4508, 4539, 4796, 5316, 5644, 6092, 6307, 6444, 6571, 7299, 7612, 8316, 8564, 8787, 8963, 9148, 9475, 9675, 9863, 10060, 10171, 10827, 11068, 11211, 11371, 11884, 15268, 15499, 15644, 15756, 15963, 16075, 16195, 16324, 24893, 24995, 25139, 25292, 25459, 25523, 25708, 25709, 26180, 26405], "trial_type": "free-recall", "conditions": [18, 1200, "v", 18000], "internal_node_id": "0.0-32.0-0.0", "key_presses": [87, 73, 70, 69, 13, 66, 85, 71, 71, 89, 13, 70, 76, 79, 87, 69, 82, 13, 70, 79, 82, 69, 83, 84, 13, 68, 65, 73, 83, 89, 13, 70, 79, 79, 84, 66, 65, 76, 76, 13, 68, 82, 69, 83, 83, 69, 82, 13, 79, 85, 84, 83, 73, 68, 69, 87, 8, 13], "trial": 0, "time_elapsed": 263271, "type": "FREE_RECALL", "trial_index": 41}, "uniqueid": "MTK3281:317HQ483I8ZI8VUZEUQ8DBGE4D3NIA", "dateTime": 1520350317569}, {"current_trial": 42, "trialdata": {"rt": 3658, "trial_type": "text", "internal_node_id": "0.0-33.0", "time_elapsed": 268935, "key_press": 32, "type": "INSTRUCTIONS", "trial_index": 42}, "uniqueid": "MTK3281:317HQ483I8ZI8VUZEUQ8DBGE4D3NIA", "dateTime": 1520350323230}, {"current_trial": 43, "trialdata": {"rt": [2291, 4779, 10555, 13610, 15274], "trial_type": "math-distractor", "key_times": [1988, 2116, 2291, 4155, 4419, 4779, 10092, 10332, 10555, 13339, 13475, 13610, 14930, 15051, 15274], "responses": ["13", "17", "18", "13", "15"], "num2": [3, 8, 4, 3, 5, 6], "num3": [3, 1, 9, 4, 5, 9], "conditions": [18, 1200, "v", 18000], "internal_node_id": "0.0-34.0", "key_presses": [97, 99, 13, 97, 103, 13, 97, 104, 13, 97, 99, 13, 97, 101, 13], "trial": 1, "time_elapsed": 288942, "type": "DISTRACTOR", "trial_index": 43, "num1": [7, 8, 5, 6, 5, 9]}, "uniqueid": "MTK3281:317HQ483I8ZI8VUZEUQ8DBGE4D3NIA", "dateTime": 1520350343237}, {"current_trial": 44, "trialdata": {"rt": -1, "trial_type": "single-stim", "stimulus": "<p id=\"stim\">10</p>", "internal_node_id": "0.0-35.0-0.0", "time_elapsed": 291945, "key_press": -1, "trial_index": 44}, "uniqueid": "MTK3281:317HQ483I8ZI8VUZEUQ8DBGE4D3NIA", "dateTime": 1520350346239}, {"current_trial": 45, "trialdata": {"rt": -1, "trial_type": "single-stim", "stimulus": "<p id=\"stim\">9</p>", "internal_node_id": "0.0-35.0-1.0", "time_elapsed": 292946, "key_press": -1, "trial_index": 45}, "uniqueid": "MTK3281:317HQ483I8ZI8VUZEUQ8DBGE4D3NIA", "dateTime": 1520350347241}, {"current_trial": 46, "trialdata": {"rt": -1, "trial_type": "single-stim", "stimulus": "<p id=\"stim\">8</p>", "internal_node_id": "0.0-35.0-2.0", "time_elapsed": 293948, "key_press": -1, "trial_index": 46}, "uniqueid": "MTK3281:317HQ483I8ZI8VUZEUQ8DBGE4D3NIA", "dateTime": 1520350348243}, {"current_trial": 47, "trialdata": {"rt": -1, "trial_type": "single-stim", "stimulus": "<p id=\"stim\">7</p>", "internal_node_id": "0.0-35.0-3.0", "time_elapsed": 294950, "key_press": -1, "trial_index": 47}, "uniqueid": "MTK3281:317HQ483I8ZI8VUZEUQ8DBGE4D3NIA", "dateTime": 1520350349244}, {"current_trial": 48, "trialdata": {"rt": -1, "trial_type": "single-stim", "stimulus": "<p id=\"stim\">6</p>", "internal_node_id": "0.0-35.0-4.0", "time_elapsed": 295953, "key_press": -1, "trial_index": 48}, "uniqueid": "MTK3281:317HQ483I8ZI8VUZEUQ8DBGE4D3NIA", "dateTime": 1520350350247}, {"current_trial": 49, "trialdata": {"rt": -1, "trial_type": "single-stim", "stimulus": "<p id=\"stim\">5</p>", "internal_node_id": "0.0-35.0-5.0", "time_elapsed": 296956, "key_press": -1, "trial_index": 49}, "uniqueid": "MTK3281:317HQ483I8ZI8VUZEUQ8DBGE4D3NIA", "dateTime": 1520350351250}, {"current_trial": 50, "trialdata": {"rt": -1, "trial_type": "single-stim", "stimulus": "<p id=\"stim\">4</p>", "internal_node_id": "0.0-35.0-6.0", "time_elapsed": 297958, "key_press": -1, "trial_index": 50}, "uniqueid": "MTK3281:317HQ483I8ZI8VUZEUQ8DBGE4D3NIA", "dateTime": 1520350352252}, {"current_trial": 51, "trialdata": {"rt": -1, "trial_type": "single-stim", "stimulus": "<p id=\"stim\">3</p>", "internal_node_id": "0.0-35.0-7.0", "time_elapsed": 298960, "key_press": -1, "trial_index": 51}, "uniqueid": "MTK3281:317HQ483I8ZI8VUZEUQ8DBGE4D3NIA", "dateTime": 1520350353254}, {"current_trial": 52, "trialdata": {"rt": -1, "trial_type": "single-stim", "stimulus": "<p id=\"stim\">2</p>", "internal_node_id": "0.0-35.0-8.0", "time_elapsed": 299962, "key_press": -1, "trial_index": 52}, "uniqueid": "MTK3281:317HQ483I8ZI8VUZEUQ8DBGE4D3NIA", "dateTime": 1520350354256}, {"current_trial": 53, "trialdata": {"rt": -1, "trial_type": "single-stim", "stimulus": "<p id=\"stim\">1</p>", "internal_node_id": "0.0-35.0-9.0", "time_elapsed": 300968, "key_press": -1, "trial_index": 53}, "uniqueid": "MTK3281:317HQ483I8ZI8VUZEUQ8DBGE4D3NIA", "dateTime": 1520350355263}, {"current_trial": 54, "trialdata": {"rt": -1, "trial_type": "single-stim", "stimulus": "<p id=\"stim\">+</p>", "internal_node_id": "0.0-36.0-0.0", "time_elapsed": 302471, "key_press": -1, "type": "FIXATION", "trial_index": 54}, "uniqueid": "MTK3281:317HQ483I8ZI8VUZEUQ8DBGE4D3NIA", "dateTime": 1520350356765}, {"current_trial": 55, "trialdata": {"rt": -1, "trial_type": "single-stim", "word": "jello", "stimulus": "<p id=\"stim\">JELLO</p>", "conditions": [18, 1200, "v", 18000], "internal_node_id": "0.0-37.0", "trial": 1, "time_elapsed": 303673, "serialpos": 0, "key_press": -1, "wordID": 753, "type": "PRES_VIS", "trial_index": 55}, "uniqueid": "MTK3281:317HQ483I8ZI8VUZEUQ8DBGE4D3NIA", "dateTime": 1520350357967}, {"current_trial": 56, "trialdata": {"rt": -1, "trial_type": "single-stim", "word": "poison", "stimulus": "<p id=\"stim\">POISON</p>", "conditions": [18, 1200, "v", 18000], "internal_node_id": "0.0-38.0", "trial": 1, "time_elapsed": 305830, "serialpos": 1, "key_press": -1, "wordID": 1095, "type": "PRES_VIS", "trial_index": 56}, "uniqueid": "MTK3281:317HQ483I8ZI8VUZEUQ8DBGE4D3NIA", "dateTime": 1520350360124}, {"current_trial": 57, "trialdata": {"rt": -1, "trial_type": "single-stim", "word": "pudding", "stimulus": "<p id=\"stim\">PUDDING</p>", "conditions": [18, 1200, "v", 18000], "internal_node_id": "0.0-39.0", "trial": 1, "time_elapsed": 308102, "serialpos": 2, "key_press": -1, "wordID": 1138, "type": "PRES_VIS", "trial_index": 57}, "uniqueid": "MTK3281:317HQ483I8ZI8VUZEUQ8DBGE4D3NIA", "dateTime": 1520350362396}, {"current_trial": 58, "trialdata": {"rt": -1, "trial_type": "single-stim", "word": "motel", "stimulus": "<p id=\"stim\">MOTEL</p>", "conditions": [18, 1200, "v", 18000], "internal_node_id": "0.0-40.0", "trial": 1, "time_elapsed": 310497, "serialpos": 3, "key_press": -1, "wordID": 918, "type": "PRES_VIS", "trial_index": 58}, "uniqueid": "MTK3281:317HQ483I8ZI8VUZEUQ8DBGE4D3NIA", "dateTime": 1520350364791}, {"current_trial": 59, "trialdata": {"rt": -1, "trial_type": "single-stim", "word": "puppy", "stimulus": "<p id=\"stim\">PUPPY</p>", "conditions": [18, 1200, "v", 18000], "internal_node_id": "0.0-41.0", "trial": 1, "time_elapsed": 312643, "serialpos": 4, "key_press": -1, "wordID": 1143, "type": "PRES_VIS", "trial_index": 59}, "uniqueid": "MTK3281:317HQ483I8ZI8VUZEUQ8DBGE4D3NIA", "dateTime": 1520350366937}, {"current_trial": 60, "trialdata": {"rt": -1, "trial_type": "single-stim", "word": "mammal", "stimulus": "<p id=\"stim\">MAMMAL</p>", "conditions": [18, 1200, "v", 18000], "internal_node_id": "0.0-42.0", "trial": 1, "time_elapsed": 314839, "serialpos": 5, "key_press": -1, "wordID": 860, "type": "PRES_VIS", "trial_index": 60}, "uniqueid": "MTK3281:317HQ483I8ZI8VUZEUQ8DBGE4D3NIA", "dateTime": 1520350369133}, {"current_trial": 61, "trialdata": {"rt": -1, "trial_type": "single-stim", "word": "bouquet", "stimulus": "<p id=\"stim\">BOUQUET</p>", "conditions": [18, 1200, "v", 18000], "internal_node_id": "0.0-43.0", "trial": 1, "time_elapsed": 317167, "serialpos": 6, "key_press": -1, "wordID": 156, "type": "PRES_VIS", "trial_index": 61}, "uniqueid": "MTK3281:317HQ483I8ZI8VUZEUQ8DBGE4D3NIA", "dateTime": 1520350371461}, {"current_trial": 62, "trialdata": {"rt": -1, "trial_type": "single-stim", "word": "compass", "stimulus": "<p id=\"stim\">COMPASS</p>", "conditions": [18, 1200, "v", 18000], "internal_node_id": "0.0-44.0", "trial": 1, "time_elapsed": 319341, "serialpos": 7, "key_press": -1, "wordID": 357, "type": "PRES_VIS", "trial_index": 62}, "uniqueid": "MTK3281:317HQ483I8ZI8VUZEUQ8DBGE4D3NIA", "dateTime": 1520350373635}, {"current_trial": 63, "trialdata": {"rt": -1, "trial_type": "single-stim", "word": "receipt", "stimulus": "<p id=\"stim\">RECEIPT</p>", "conditions": [18, 1200, "v", 18000], "internal_node_id": "0.0-45.0", "trial": 1, "time_elapsed": 321742, "serialpos": 8, "key_press": -1, "wordID": 1172, "type": "PRES_VIS", "trial_index": 63}, "uniqueid": "MTK3281:317HQ483I8ZI8VUZEUQ8DBGE4D3NIA", "dateTime": 1520350376036}, {"current_trial": 64, "trialdata": {"rt": -1, "trial_type": "single-stim", "word": "vagrant", "stimulus": "<p id=\"stim\">VAGRANT</p>", "conditions": [18, 1200, "v", 18000], "internal_node_id": "0.0-46.0", "trial": 1, "time_elapsed": 323970, "serialpos": 9, "key_press": -1, "wordID": 1543, "type": "PRES_VIS", "trial_index": 64}, "uniqueid": "MTK3281:317HQ483I8ZI8VUZEUQ8DBGE4D3NIA", "dateTime": 1520350378264}, {"current_trial": 65, "trialdata": {"rt": -1, "trial_type": "single-stim", "word": "radish", "stimulus": "<p id=\"stim\">RADISH</p>", "conditions": [18, 1200, "v", 18000], "internal_node_id": "0.0-47.0", "trial": 1, "time_elapsed": 326021, "serialpos": 10, "key_press": -1, "wordID": 1157, "type": "PRES_VIS", "trial_index": 65}, "uniqueid": "MTK3281:317HQ483I8ZI8VUZEUQ8DBGE4D3NIA", "dateTime": 1520350380315}, {"current_trial": 66, "trialdata": {"rt": -1, "trial_type": "single-stim", "word": "inmate", "stimulus": "<p id=\"stim\">INMATE</p>", "conditions": [18, 1200, "v", 18000], "internal_node_id": "0.0-48.0", "trial": 1, "time_elapsed": 328122, "serialpos": 11, "key_press": -1, "wordID": 737, "type": "PRES_VIS", "trial_index": 66}, "uniqueid": "MTK3281:317HQ483I8ZI8VUZEUQ8DBGE4D3NIA", "dateTime": 1520350382416}, {"current_trial": 67, "trialdata": {"rt": -1, "trial_type": "single-stim", "word": "item", "stimulus": "<p id=\"stim\">ITEM</p>", "conditions": [18, 1200, "v", 18000], "internal_node_id": "0.0-49.0", "trial": 1, "time_elapsed": 330376, "serialpos": 12, "key_press": -1, "wordID": 745, "type": "PRES_VIS", "trial_index": 67}, "uniqueid": "MTK3281:317HQ483I8ZI8VUZEUQ8DBGE4D3NIA", "dateTime": 1520350384670}, {"current_trial": 68, "trialdata": {"rt": -1, "trial_type": "single-stim", "word": "ox", "stimulus": "<p id=\"stim\">OX</p>", "conditions": [18, 1200, "v", 18000], "internal_node_id": "0.0-50.0", "trial": 1, "time_elapsed": 332583, "serialpos": 13, "key_press": -1, "wordID": 993, "type": "PRES_VIS", "trial_index": 68}, "uniqueid": "MTK3281:317HQ483I8ZI8VUZEUQ8DBGE4D3NIA", "dateTime": 1520350386882}, {"current_trial": 69, "trialdata": {"rt": -1, "trial_type": "single-stim", "word": "palace", "stimulus": "<p id=\"stim\">PALACE</p>", "conditions": [18, 1200, "v", 18000], "internal_node_id": "0.0-51.0", "trial": 1, "time_elapsed": 334947, "serialpos": 14, "key_press": -1, "wordID": 1005, "type": "PRES_VIS", "trial_index": 69}, "uniqueid": "MTK3281:317HQ483I8ZI8VUZEUQ8DBGE4D3NIA", "dateTime": 1520350389241}, {"current_trial": 70, "trialdata": {"rt": -1, "trial_type": "single-stim", "word": "whistle", "stimulus": "<p id=\"stim\">WHISTLE</p>", "conditions": [18, 1200, "v", 18000], "internal_node_id": "0.0-52.0", "trial": 1, "time_elapsed": 337171, "serialpos": 15, "key_press": -1, "wordID": 1605, "type": "PRES_VIS", "trial_index": 70}, "uniqueid": "MTK3281:317HQ483I8ZI8VUZEUQ8DBGE4D3NIA", "dateTime": 1520350391465}, {"current_trial": 71, "trialdata": {"rt": -1, "trial_type": "single-stim", "word": "beaver", "stimulus": "<p id=\"stim\">BEAVER</p>", "conditions": [18, 1200, "v", 18000], "internal_node_id": "0.0-53.0", "trial": 1, "time_elapsed": 339381, "serialpos": 16, "key_press": -1, "wordID": 108, "type": "PRES_VIS", "trial_index": 71}, "uniqueid": "MTK3281:317HQ483I8ZI8VUZEUQ8DBGE4D3NIA", "dateTime": 1520350393675}, {"current_trial": 72, "trialdata": {"rt": -1, "trial_type": "single-stim", "word": "cyclone", "stimulus": "<p id=\"stim\">CYCLONE</p>", "conditions": [18, 1200, "v", 18000], "internal_node_id": "0.0-54.0", "trial": 1, "time_elapsed": 341395, "serialpos": 17, "key_press": -1, "wordID": 430, "type": "PRES_VIS", "trial_index": 72}, "uniqueid": "MTK3281:317HQ483I8ZI8VUZEUQ8DBGE4D3NIA", "dateTime": 1520350395690}, {"current_trial": 73, "trialdata": {"rt": -1, "trial_type": "single-stim", "stimulus": "", "internal_node_id": "0.0-55.0-0.0", "time_elapsed": 343800, "key_press": -1, "type": "PRE_RECALL_DELAY", "trial_index": 73}, "uniqueid": "MTK3281:317HQ483I8ZI8VUZEUQ8DBGE4D3NIA", "dateTime": 1520350398094}, {"current_trial": 74, "trialdata": {"rt": -1000, "trial_type": "single-audio", "stimulus": "/static/audio/400Hz.wav", "internal_node_id": "0.0-56.0", "time_elapsed": 344302, "key_press": -1, "type": "PRE_RECALL_ALERT", "trial_index": 74}, "uniqueid": "MTK3281:317HQ483I8ZI8VUZEUQ8DBGE4D3NIA", "dateTime": 1520350398596}, {"current_trial": 75, "trialdata": {"rt": [3157, 3381, 7533, 8965, 10733, 13428, 15116, 18960], "recwords": ["je", "", "jelly", "poison", "pudding", "hotel", "puppy", "mammal"], "key_times": [2430, 2583, 3157, 3381, 3485, 4445, 5862, 6022, 6909, 7078, 7302, 7533, 7933, 8085, 8285, 8397, 8533, 8662, 8965, 9277, 9469, 9624, 9853, 10149, 10309, 10422, 10733, 11125, 11357, 11797, 12133, 12950, 13428, 13934, 14189, 14429, 14621, 14870, 15116, 15629, 15829, 16028, 16772, 17539, 17636, 18373, 18550, 18685, 18773, 18960], "trial_type": "free-recall", "conditions": [18, 1200, "v", 18000], "internal_node_id": "0.0-57.0-0.0", "key_presses": [74, 69, 186, 186, 89, 8, 74, 69, 76, 76, 89, 13, 80, 79, 73, 83, 79, 78, 13, 80, 85, 68, 68, 73, 78, 71, 13, 72, 79, 84, 69, 76, 13, 80, 85, 80, 80, 89, 13, 77, 65, 77, 77, 69, 76, 8, 8, 65, 76, 13], "trial": 1, "time_elapsed": 404309, "type": "FREE_RECALL", "trial_index": 75}, "uniqueid": "MTK3281:317HQ483I8ZI8VUZEUQ8DBGE4D3NIA", "dateTime": 1520350458606}, {"current_trial": 76, "trialdata": {"rt": 73431, "trial_type": "text", "internal_node_id": "0.0-58.0", "time_elapsed": 479745, "key_press": 32, "type": "INSTRUCTIONS", "trial_index": 76}, "uniqueid": "MTK3281:317HQ483I8ZI8VUZEUQ8DBGE4D3NIA", "dateTime": 1520350534039}, {"current_trial": 77, "trialdata": {"rt": [2538, 4274, 6642, 9514, 14074, 19873], "trial_type": "math-distractor", "key_times": [2179, 2362, 2538, 4002, 4154, 4274, 6194, 6418, 6642, 8946, 9290, 9514, 13722, 13898, 14074, 19386, 19626, 19873], "responses": ["13", "11", "10", "18", "18", "24"], "num2": [1, 8, 3, 5, 5, 8, 9], "num3": [4, 1, 5, 9, 6, 9, 7], "conditions": [24, 800, "v", 24000], "internal_node_id": "0.0-59.0", "key_presses": [97, 99, 13, 97, 97, 13, 97, 96, 13, 97, 104, 13, 97, 104, 13, 98, 100, 13], "trial": 2, "time_elapsed": 504750, "type": "DISTRACTOR", "trial_index": 77, "num1": [8, 2, 2, 4, 7, 7, 8]}, "uniqueid": "MTK3281:317HQ483I8ZI8VUZEUQ8DBGE4D3NIA", "dateTime": 1520350559044}, {"current_trial": 78, "trialdata": {"rt": -1, "trial_type": "single-stim", "stimulus": "<p id=\"stim\">10</p>", "internal_node_id": "0.0-60.0-0.0", "time_elapsed": 507752, "key_press": -1, "trial_index": 78}, "uniqueid": "MTK3281:317HQ483I8ZI8VUZEUQ8DBGE4D3NIA", "dateTime": 1520350562046}, {"current_trial": 79, "trialdata": {"rt": -1, "trial_type": "single-stim", "stimulus": "<p id=\"stim\">9</p>", "internal_node_id": "0.0-60.0-1.0", "time_elapsed": 508755, "key_press": -1, "trial_index": 79}, "uniqueid": "MTK3281:317HQ483I8ZI8VUZEUQ8DBGE4D3NIA", "dateTime": 1520350563050}, {"current_trial": 80, "trialdata": {"rt": -1, "trial_type": "single-stim", "stimulus": "<p id=\"stim\">8</p>", "internal_node_id": "0.0-60.0-2.0", "time_elapsed": 509758, "key_press": -1, "trial_index": 80}, "uniqueid": "MTK3281:317HQ483I8ZI8VUZEUQ8DBGE4D3NIA", "dateTime": 1520350564052}, {"current_trial": 81, "trialdata": {"rt": -1, "trial_type": "single-stim", "stimulus": "<p id=\"stim\">7</p>", "internal_node_id": "0.0-60.0-3.0", "time_elapsed": 510761, "key_press": -1, "trial_index": 81}, "uniqueid": "MTK3281:317HQ483I8ZI8VUZEUQ8DBGE4D3NIA", "dateTime": 1520350565055}, {"current_trial": 82, "trialdata": {"rt": -1, "trial_type": "single-stim", "stimulus": "<p id=\"stim\">6</p>", "internal_node_id": "0.0-60.0-4.0", "time_elapsed": 511763, "key_press": -1, "trial_index": 82}, "uniqueid": "MTK3281:317HQ483I8ZI8VUZEUQ8DBGE4D3NIA", "dateTime": 1520350566057}, {"current_trial": 83, "trialdata": {"rt": -1, "trial_type": "single-stim", "stimulus": "<p id=\"stim\">5</p>", "internal_node_id": "0.0-60.0-5.0", "time_elapsed": 512764, "key_press": -1, "trial_index": 83}, "uniqueid": "MTK3281:317HQ483I8ZI8VUZEUQ8DBGE4D3NIA", "dateTime": 1520350567058}, {"current_trial": 84, "trialdata": {"rt": -1, "trial_type": "single-stim", "stimulus": "<p id=\"stim\">4</p>", "internal_node_id": "0.0-60.0-6.0", "time_elapsed": 513767, "key_press": -1, "trial_index": 84}, "uniqueid": "MTK3281:317HQ483I8ZI8VUZEUQ8DBGE4D3NIA", "dateTime": 1520350568061}, {"current_trial": 85, "trialdata": {"rt": -1, "trial_type": "single-stim", "stimulus": "<p id=\"stim\">3</p>", "internal_node_id": "0.0-60.0-7.0", "time_elapsed": 514769, "key_press": -1, "trial_index": 85}, "uniqueid": "MTK3281:317HQ483I8ZI8VUZEUQ8DBGE4D3NIA", "dateTime": 1520350569063}, {"current_trial": 86, "trialdata": {"rt": -1, "trial_type": "single-stim", "stimulus": "<p id=\"stim\">2</p>", "internal_node_id": "0.0-60.0-8.0", "time_elapsed": 515772, "key_press": -1, "trial_index": 86}, "uniqueid": "MTK3281:317HQ483I8ZI8VUZEUQ8DBGE4D3NIA", "dateTime": 1520350570066}, {"current_trial": 87, "trialdata": {"rt": -1, "trial_type": "single-stim", "stimulus": "<p id=\"stim\">1</p>", "internal_node_id": "0.0-60.0-9.0", "time_elapsed": 516773, "key_press": -1, "trial_index": 87}, "uniqueid": "MTK3281:317HQ483I8ZI8VUZEUQ8DBGE4D3NIA", "dateTime": 1520350571068}, {"current_trial": 88, "trialdata": {"rt": -1, "trial_type": "single-stim", "stimulus": "<p id=\"stim\">+</p>", "internal_node_id": "0.0-61.0-0.0", "time_elapsed": 518276, "key_press": -1, "type": "FIXATION", "trial_index": 88}, "uniqueid": "MTK3281:317HQ483I8ZI8VUZEUQ8DBGE4D3NIA", "dateTime": 1520350572570}, {"current_trial": 89, "trialdata": {"rt": -1, "trial_type": "single-stim", "word": "basement", "stimulus": "<p id=\"stim\">BASEMENT</p>", "conditions": [24, 800, "v", 24000], "internal_node_id": "0.0-62.0", "trial": 2, "time_elapsed": 519077, "serialpos": 0, "key_press": -1, "wordID": 93, "type": "PRES_VIS", "trial_index": 89}, "uniqueid": "MTK3281:317HQ483I8ZI8VUZEUQ8DBGE4D3NIA", "dateTime": 1520350573371}, {"current_trial": 90, "trialdata": {"rt": -1, "trial_type": "single-stim", "word": "sandwich", "stimulus": "<p id=\"stim\">SANDWICH</p>", "conditions": [24, 800, "v", 24000], "internal_node_id": "0.0-63.0", "trial": 2, "time_elapsed": 520933, "serialpos": 1, "key_press": -1, "wordID": 1231, "type": "PRES_VIS", "trial_index": 90}, "uniqueid": "MTK3281:317HQ483I8ZI8VUZEUQ8DBGE4D3NIA", "dateTime": 1520350575227}, {"current_trial": 91, "trialdata": {"rt": -1, "trial_type": "single-stim", "word": "mars", "stimulus": "<p id=\"stim\">MARS</p>", "conditions": [24, 800, "v", 24000], "internal_node_id": "0.0-64.0", "trial": 2, "time_elapsed": 522856, "serialpos": 2, "key_press": -1, "wordID": 872, "type": "PRES_VIS", "trial_index": 91}, "uniqueid": "MTK3281:317HQ483I8ZI8VUZEUQ8DBGE4D3NIA", "dateTime": 1520350577150}, {"current_trial": 92, "trialdata": {"rt": -1, "trial_type": "single-stim", "word": "infant", "stimulus": "<p id=\"stim\">INFANT</p>", "conditions": [24, 800, "v", 24000], "internal_node_id": "0.0-65.0", "trial": 2, "time_elapsed": 524484, "serialpos": 3, "key_press": -1, "wordID": 736, "type": "PRES_VIS", "trial_index": 92}, "uniqueid": "MTK3281:317HQ483I8ZI8VUZEUQ8DBGE4D3NIA", "dateTime": 1520350578779}, {"current_trial": 93, "trialdata": {"rt": -1, "trial_type": "single-stim", "word": "europe", "stimulus": "<p id=\"stim\">EUROPE</p>", "conditions": [24, 800, "v", 24000], "internal_node_id": "0.0-66.0", "trial": 2, "time_elapsed": 526410, "serialpos": 4, "key_press": -1, "wordID": 540, "type": "PRES_VIS", "trial_index": 93}, "uniqueid": "MTK3281:317HQ483I8ZI8VUZEUQ8DBGE4D3NIA", "dateTime": 1520350580705}, {"current_trial": 94, "trialdata": {"rt": -1, "trial_type": "single-stim", "word": "queen", "stimulus": "<p id=\"stim\">QUEEN</p>", "conditions": [24, 800, "v", 24000], "internal_node_id": "0.0-67.0", "trial": 2, "time_elapsed": 528063, "serialpos": 5, "key_press": -1, "wordID": 1148, "type": "PRES_VIS", "trial_index": 94}, "uniqueid": "MTK3281:317HQ483I8ZI8VUZEUQ8DBGE4D3NIA", "dateTime": 1520350582357}, {"current_trial": 95, "trialdata": {"rt": -1, "trial_type": "single-stim", "word": "princess", "stimulus": "<p id=\"stim\">PRINCESS</p>", "conditions": [24, 800, "v", 24000], "internal_node_id": "0.0-68.0", "trial": 2, "time_elapsed": 529713, "serialpos": 6, "key_press": -1, "wordID": 1124, "type": "PRES_VIS", "trial_index": 95}, "uniqueid": "MTK3281:317HQ483I8ZI8VUZEUQ8DBGE4D3NIA", "dateTime": 1520350584007}, {"current_trial": 96, "trialdata": {"rt": -1, "trial_type": "single-stim", "word": "japan", "stimulus": "<p id=\"stim\">JAPAN</p>", "conditions": [24, 800, "v", 24000], "internal_node_id": "0.0-69.0", "trial": 2, "time_elapsed": 531680, "serialpos": 7, "key_press": -1, "wordID": 748, "type": "PRES_VIS", "trial_index": 96}, "uniqueid": "MTK3281:317HQ483I8ZI8VUZEUQ8DBGE4D3NIA", "dateTime": 1520350585974}, {"current_trial": 97, "trialdata": {"rt": -1, "trial_type": "single-stim", "word": "dragon", "stimulus": "<p id=\"stim\">DRAGON</p>", "conditions": [24, 800, "v", 24000], "internal_node_id": "0.0-70.0", "trial": 2, "time_elapsed": 533609, "serialpos": 8, "key_press": -1, "wordID": 491, "type": "PRES_VIS", "trial_index": 97}, "uniqueid": "MTK3281:317HQ483I8ZI8VUZEUQ8DBGE4D3NIA", "dateTime": 1520350587903}, {"current_trial": 98, "trialdata": {"rt": -1, "trial_type": "single-stim", "word": "antler", "stimulus": "<p id=\"stim\">ANTLER</p>", "conditions": [24, 800, "v", 24000], "internal_node_id": "0.0-71.0", "trial": 2, "time_elapsed": 535469, "serialpos": 9, "key_press": -1, "wordID": 28, "type": "PRES_VIS", "trial_index": 98}, "uniqueid": "MTK3281:317HQ483I8ZI8VUZEUQ8DBGE4D3NIA", "dateTime": 1520350589763}, {"current_trial": 99, "trialdata": {"rt": -1, "trial_type": "single-stim", "word": "pimple", "stimulus": "<p id=\"stim\">PIMPLE</p>", "conditions": [24, 800, "v", 24000], "internal_node_id": "0.0-72.0", "trial": 2, "time_elapsed": 537365, "serialpos": 10, "key_press": -1, "wordID": 1070, "type": "PRES_VIS", "trial_index": 99}, "uniqueid": "MTK3281:317HQ483I8ZI8VUZEUQ8DBGE4D3NIA", "dateTime": 1520350591659}, {"current_trial": 100, "trialdata": {"rt": -1, "trial_type": "single-stim", "word": "coffee", "stimulus": "<p id=\"stim\">COFFEE</p>", "conditions": [24, 800, "v", 24000], "internal_node_id": "0.0-73.0", "trial": 2, "time_elapsed": 539327, "serialpos": 11, "key_press": -1, "wordID": 340, "type": "PRES_VIS", "trial_index": 100}, "uniqueid": "MTK3281:317HQ483I8ZI8VUZEUQ8DBGE4D3NIA", "dateTime": 1520350593621}, {"current_trial": 101, "trialdata": {"rt": -1, "trial_type": "single-stim", "word": "rabbit", "stimulus": "<p id=\"stim\">RABBIT</p>", "conditions": [24, 800, "v", 24000], "internal_node_id": "0.0-74.0", "trial": 2, "time_elapsed": 541309, "serialpos": 12, "key_press": -1, "wordID": 1151, "type": "PRES_VIS", "trial_index": 101}, "uniqueid": "MTK3281:317HQ483I8ZI8VUZEUQ8DBGE4D3NIA", "dateTime": 1520350595603}, {"current_trial": 102, "trialdata": {"rt": -1, "trial_type": "single-stim", "word": "tortoise", "stimulus": "<p id=\"stim\">TORTOISE</p>", "conditions": [24, 800, "v", 24000], "internal_node_id": "0.0-75.0", "trial": 2, "time_elapsed": 542973, "serialpos": 13, "key_press": -1, "wordID": 1485, "type": "PRES_VIS", "trial_index": 102}, "uniqueid": "MTK3281:317HQ483I8ZI8VUZEUQ8DBGE4D3NIA", "dateTime": 1520350597267}, {"current_trial": 103, "trialdata": {"rt": -1, "trial_type": "single-stim", "word": "parent", "stimulus": "<p id=\"stim\">PARENT</p>", "conditions": [24, 800, "v", 24000], "internal_node_id": "0.0-76.0", "trial": 2, "time_elapsed": 544647, "serialpos": 14, "key_press": -1, "wordID": 1012, "type": "PRES_VIS", "trial_index": 103}, "uniqueid": "MTK3281:317HQ483I8ZI8VUZEUQ8DBGE4D3NIA", "dateTime": 1520350598941}, {"current_trial": 104, "trialdata": {"rt": -1, "trial_type": "single-stim", "word": "custard", "stimulus": "<p id=\"stim\">CUSTARD</p>", "conditions": [24, 800, "v", 24000], "internal_node_id": "0.0-77.0", "trial": 2, "time_elapsed": 546258, "serialpos": 15, "key_press": -1, "wordID": 428, "type": "PRES_VIS", "trial_index": 104}, "uniqueid": "MTK3281:317HQ483I8ZI8VUZEUQ8DBGE4D3NIA", "dateTime": 1520350600552}, {"current_trial": 105, "trialdata": {"rt": -1, "trial_type": "single-stim", "word": "keeper", "stimulus": "<p id=\"stim\">KEEPER</p>", "conditions": [24, 800, "v", 24000], "internal_node_id": "0.0-78.0", "trial": 2, "time_elapsed": 548053, "serialpos": 16, "key_press": -1, "wordID": 768, "type": "PRES_VIS", "trial_index": 105}, "uniqueid": "MTK3281:317HQ483I8ZI8VUZEUQ8DBGE4D3NIA", "dateTime": 1520350602347}, {"current_trial": 106, "trialdata": {"rt": -1, "trial_type": "single-stim", "word": "cobra", "stimulus": "<p id=\"stim\">COBRA</p>", "conditions": [24, 800, "v", 24000], "internal_node_id": "0.0-79.0", "trial": 2, "time_elapsed": 549720, "serialpos": 17, "key_press": -1, "wordID": 335, "type": "PRES_VIS", "trial_index": 106}, "uniqueid": "MTK3281:317HQ483I8ZI8VUZEUQ8DBGE4D3NIA", "dateTime": 1520350604014}, {"current_trial": 107, "trialdata": {"rt": -1, "trial_type": "single-stim", "word": "lace", "stimulus": "<p id=\"stim\">LACE</p>", "conditions": [24, 800, "v", 24000], "internal_node_id": "0.0-80.0", "trial": 2, "time_elapsed": 551717, "serialpos": 18, "key_press": -1, "wordID": 791, "type": "PRES_VIS", "trial_index": 107}, "uniqueid": "MTK3281:317HQ483I8ZI8VUZEUQ8DBGE4D3NIA", "dateTime": 1520350606011}, {"current_trial": 108, "trialdata": {"rt": -1, "trial_type": "single-stim", "word": "star", "stimulus": "<p id=\"stim\">STAR</p>", "conditions": [24, 800, "v", 24000], "internal_node_id": "0.0-81.0", "trial": 2, "time_elapsed": 553361, "serialpos": 19, "key_press": -1, "wordID": 1372, "type": "PRES_VIS", "trial_index": 108}, "uniqueid": "MTK3281:317HQ483I8ZI8VUZEUQ8DBGE4D3NIA", "dateTime": 1520350607655}, {"current_trial": 109, "trialdata": {"rt": -1, "trial_type": "single-stim", "word": "citrus", "stimulus": "<p id=\"stim\">CITRUS</p>", "conditions": [24, 800, "v", 24000], "internal_node_id": "0.0-82.0", "trial": 2, "time_elapsed": 555107, "serialpos": 20, "key_press": -1, "wordID": 312, "type": "PRES_VIS", "trial_index": 109}, "uniqueid": "MTK3281:317HQ483I8ZI8VUZEUQ8DBGE4D3NIA", "dateTime": 1520350609401}, {"current_trial": 110, "trialdata": {"rt": -1, "trial_type": "single-stim", "word": "bison", "stimulus": "<p id=\"stim\">BISON</p>", "conditions": [24, 800, "v", 24000], "internal_node_id": "0.0-83.0", "trial": 2, "time_elapsed": 557009, "serialpos": 21, "key_press": -1, "wordID": 130, "type": "PRES_VIS", "trial_index": 110}, "uniqueid": "MTK3281:317HQ483I8ZI8VUZEUQ8DBGE4D3NIA", "dateTime": 1520350611303}, {"current_trial": 111, "trialdata": {"rt": -1, "trial_type": "single-stim", "word": "jelly", "stimulus": "<p id=\"stim\">JELLY</p>", "conditions": [24, 800, "v", 24000], "internal_node_id": "0.0-84.0", "trial": 2, "time_elapsed": 558662, "serialpos": 22, "key_press": -1, "wordID": 754, "type": "PRES_VIS", "trial_index": 111}, "uniqueid": "MTK3281:317HQ483I8ZI8VUZEUQ8DBGE4D3NIA", "dateTime": 1520350612956}, {"current_trial": 112, "trialdata": {"rt": -1, "trial_type": "single-stim", "word": "apple", "stimulus": "<p id=\"stim\">APPLE</p>", "conditions": [24, 800, "v", 24000], "internal_node_id": "0.0-85.0", "trial": 2, "time_elapsed": 560391, "serialpos": 23, "key_press": -1, "wordID": 32, "type": "PRES_VIS", "trial_index": 112}, "uniqueid": "MTK3281:317HQ483I8ZI8VUZEUQ8DBGE4D3NIA", "dateTime": 1520350614685}, {"current_trial": 113, "trialdata": {"rt": -1, "trial_type": "single-stim", "stimulus": "", "internal_node_id": "0.0-86.0-0.0", "time_elapsed": 562739, "key_press": -1, "type": "PRE_RECALL_DELAY", "trial_index": 113}, "uniqueid": "MTK3281:317HQ483I8ZI8VUZEUQ8DBGE4D3NIA", "dateTime": 1520350617033}, {"current_trial": 114, "trialdata": {"rt": -1000, "trial_type": "single-audio", "stimulus": "/static/audio/400Hz.wav", "internal_node_id": "0.0-87.0", "time_elapsed": 563241, "key_press": -1, "type": "PRE_RECALL_ALERT", "trial_index": 114}, "uniqueid": "MTK3281:317HQ483I8ZI8VUZEUQ8DBGE4D3NIA", "dateTime": 1520350617535}, {"current_trial": 115, "trialdata": {"rt": [2219, 3714, 5363, 7410, 11595, 14706, 16531], "recwords": ["jelly", "apple", "custard", "basement", "jelly", "bison", "rabbit"], "key_times": [1003, 1299, 1507, 1682, 1915, 2219, 2491, 2627, 2803, 2962, 3131, 3714, 4266, 4403, 4531, 4715, 4803, 4979, 5170, 5363, 5722, 5802, 5899, 6018, 6611, 6907, 7050, 7211, 7410, 10780, 10907, 11067, 11210, 11451, 11595, 13858, 13996, 14162, 14314, 14427, 14706, 15243, 15524, 15826, 16034, 16235, 16362, 16531], "trial_type": "free-recall", "conditions": [24, 800, "v", 24000], "internal_node_id": "0.0-88.0-0.0", "key_presses": [74, 69, 76, 76, 89, 13, 65, 80, 80, 76, 69, 13, 67, 85, 83, 84, 65, 82, 68, 13, 66, 65, 83, 69, 77, 69, 78, 84, 13, 74, 69, 76, 76, 89, 13, 66, 73, 83, 79, 78, 13, 82, 65, 66, 66, 73, 84, 13], "trial": 2, "time_elapsed": 623247, "type": "FREE_RECALL", "trial_index": 115}, "uniqueid": "MTK3281:317HQ483I8ZI8VUZEUQ8DBGE4D3NIA", "dateTime": 1520350677544}, {"current_trial": 116, "trialdata": {"rt": 2125, "trial_type": "text", "internal_node_id": "0.0-89.0", "time_elapsed": 627376, "key_press": 32, "type": "INSTRUCTIONS", "trial_index": 116}, "uniqueid": "MTK3281:317HQ483I8ZI8VUZEUQ8DBGE4D3NIA", "dateTime": 1520350681670}, {"current_trial": 117, "trialdata": {"rt": [2773, 7204], "trial_type": "math-distractor", "key_times": [2389, 2524, 2773, 6804, 7004, 7204], "responses": ["12", "19"], "num2": [6, 5, 8], "num3": [5, 9, 3], "conditions": [24, 800, "v", 12000], "internal_node_id": "0.0-90.0", "key_presses": [97, 98, 13, 97, 105, 13], "trial": 3, "time_elapsed": 641381, "type": "DISTRACTOR", "trial_index": 117, "num1": [1, 7, 9]}, "uniqueid": "MTK3281:317HQ483I8ZI8VUZEUQ8DBGE4D3NIA", "dateTime": 1520350695675}, {"current_trial": 118, "trialdata": {"rt": -1, "trial_type": "single-stim", "stimulus": "<p id=\"stim\">10</p>", "internal_node_id": "0.0-91.0-0.0", "time_elapsed": 644383, "key_press": -1, "trial_index": 118}, "uniqueid": "MTK3281:317HQ483I8ZI8VUZEUQ8DBGE4D3NIA", "dateTime": 1520350698677}, {"current_trial": 119, "trialdata": {"rt": -1, "trial_type": "single-stim", "stimulus": "<p id=\"stim\">9</p>", "internal_node_id": "0.0-91.0-1.0", "time_elapsed": 645385, "key_press": -1, "trial_index": 119}, "uniqueid": "MTK3281:317HQ483I8ZI8VUZEUQ8DBGE4D3NIA", "dateTime": 1520350699679}, {"current_trial": 120, "trialdata": {"rt": -1, "trial_type": "single-stim", "stimulus": "<p id=\"stim\">8</p>", "internal_node_id": "0.0-91.0-2.0", "time_elapsed": 646387, "key_press": -1, "trial_index": 120}, "uniqueid": "MTK3281:317HQ483I8ZI8VUZEUQ8DBGE4D3NIA", "dateTime": 1520350700681}, {"current_trial": 121, "trialdata": {"rt": -1, "trial_type": "single-stim", "stimulus": "<p id=\"stim\">7</p>", "internal_node_id": "0.0-91.0-3.0", "time_elapsed": 647389, "key_press": -1, "trial_index": 121}, "uniqueid": "MTK3281:317HQ483I8ZI8VUZEUQ8DBGE4D3NIA", "dateTime": 1520350701683}, {"current_trial": 122, "trialdata": {"rt": -1, "trial_type": "single-stim", "stimulus": "<p id=\"stim\">6</p>", "internal_node_id": "0.0-91.0-4.0", "time_elapsed": 648391, "key_press": -1, "trial_index": 122}, "uniqueid": "MTK3281:317HQ483I8ZI8VUZEUQ8DBGE4D3NIA", "dateTime": 1520350702685}, {"current_trial": 123, "trialdata": {"rt": -1, "trial_type": "single-stim", "stimulus": "<p id=\"stim\">5</p>", "internal_node_id": "0.0-91.0-5.0", "time_elapsed": 649393, "key_press": -1, "trial_index": 123}, "uniqueid": "MTK3281:317HQ483I8ZI8VUZEUQ8DBGE4D3NIA", "dateTime": 1520350703687}, {"current_trial": 124, "trialdata": {"rt": -1, "trial_type": "single-stim", "stimulus": "<p id=\"stim\">4</p>", "internal_node_id": "0.0-91.0-6.0", "time_elapsed": 650395, "key_press": -1, "trial_index": 124}, "uniqueid": "MTK3281:317HQ483I8ZI8VUZEUQ8DBGE4D3NIA", "dateTime": 1520350704689}, {"current_trial": 125, "trialdata": {"rt": -1, "trial_type": "single-stim", "stimulus": "<p id=\"stim\">3</p>", "internal_node_id": "0.0-91.0-7.0", "time_elapsed": 651397, "key_press": -1, "trial_index": 125}, "uniqueid": "MTK3281:317HQ483I8ZI8VUZEUQ8DBGE4D3NIA", "dateTime": 1520350705691}, {"current_trial": 126, "trialdata": {"rt": -1, "trial_type": "single-stim", "stimulus": "<p id=\"stim\">2</p>", "internal_node_id": "0.0-91.0-8.0", "time_elapsed": 652399, "key_press": -1, "trial_index": 126}, "uniqueid": "MTK3281:317HQ483I8ZI8VUZEUQ8DBGE4D3NIA", "dateTime": 1520350706693}, {"current_trial": 127, "trialdata": {"rt": -1, "trial_type": "single-stim", "stimulus": "<p id=\"stim\">1</p>", "internal_node_id": "0.0-91.0-9.0", "time_elapsed": 653401, "key_press": -1, "trial_index": 127}, "uniqueid": "MTK3281:317HQ483I8ZI8VUZEUQ8DBGE4D3NIA", "dateTime": 1520350707695}, {"current_trial": 128, "trialdata": {"rt": -1, "trial_type": "single-stim", "stimulus": "<p id=\"stim\">+</p>", "internal_node_id": "0.0-92.0-0.0", "time_elapsed": 654905, "key_press": -1, "type": "FIXATION", "trial_index": 128}, "uniqueid": "MTK3281:317HQ483I8ZI8VUZEUQ8DBGE4D3NIA", "dateTime": 1520350709199}, {"current_trial": 129, "trialdata": {"rt": -1, "trial_type": "single-stim", "word": "peach", "stimulus": "<p id=\"stim\">PEACH</p>", "conditions": [24, 800, "v", 12000], "internal_node_id": "0.0-93.0", "trial": 3, "time_elapsed": 655706, "serialpos": 0, "key_press": -1, "wordID": 1030, "type": "PRES_VIS", "trial_index": 129}, "uniqueid": "MTK3281:317HQ483I8ZI8VUZEUQ8DBGE4D3NIA", "dateTime": 1520350710000}, {"current_trial": 130, "trialdata": {"rt": -1, "trial_type": "single-stim", "word": "flask", "stimulus": "<p id=\"stim\">FLASK</p>", "conditions": [24, 800, "v", 12000], "internal_node_id": "0.0-94.0", "trial": 3, "time_elapsed": 657614, "serialpos": 1, "key_press": -1, "wordID": 575, "type": "PRES_VIS", "trial_index": 130}, "uniqueid": "MTK3281:317HQ483I8ZI8VUZEUQ8DBGE4D3NIA", "dateTime": 1520350711908}, {"current_trial": 131, "trialdata": {"rt": -1, "trial_type": "single-stim", "word": "soda", "stimulus": "<p id=\"stim\">SODA</p>", "conditions": [24, 800, "v", 12000], "internal_node_id": "0.0-95.0", "trial": 3, "time_elapsed": 659364, "serialpos": 2, "key_press": -1, "wordID": 1340, "type": "PRES_VIS", "trial_index": 131}, "uniqueid": "MTK3281:317HQ483I8ZI8VUZEUQ8DBGE4D3NIA", "dateTime": 1520350713658}, {"current_trial": 132, "trialdata": {"rt": -1, "trial_type": "single-stim", "word": "patrol", "stimulus": "<p id=\"stim\">PATROL</p>", "conditions": [24, 800, "v", 12000], "internal_node_id": "0.0-96.0", "trial": 3, "time_elapsed": 661139, "serialpos": 3, "key_press": -1, "wordID": 1026, "type": "PRES_VIS", "trial_index": 132}, "uniqueid": "MTK3281:317HQ483I8ZI8VUZEUQ8DBGE4D3NIA", "dateTime": 1520350715433}, {"current_trial": 133, "trialdata": {"rt": -1, "trial_type": "single-stim", "word": "report", "stimulus": "<p id=\"stim\">REPORT</p>", "conditions": [24, 800, "v", 12000], "internal_node_id": "0.0-97.0", "trial": 3, "time_elapsed": 663056, "serialpos": 4, "key_press": -1, "wordID": 1183, "type": "PRES_VIS", "trial_index": 133}, "uniqueid": "MTK3281:317HQ483I8ZI8VUZEUQ8DBGE4D3NIA", "dateTime": 1520350717350}, {"current_trial": 134, "trialdata": {"rt": -1, "trial_type": "single-stim", "word": "brook", "stimulus": "<p id=\"stim\">BROOK</p>", "conditions": [24, 800, "v", 12000], "internal_node_id": "0.0-98.0", "trial": 3, "time_elapsed": 664798, "serialpos": 5, "key_press": -1, "wordID": 176, "type": "PRES_VIS", "trial_index": 134}, "uniqueid": "MTK3281:317HQ483I8ZI8VUZEUQ8DBGE4D3NIA", "dateTime": 1520350719092}, {"current_trial": 135, "trialdata": {"rt": -1, "trial_type": "single-stim", "word": "raft", "stimulus": "<p id=\"stim\">RAFT</p>", "conditions": [24, 800, "v", 12000], "internal_node_id": "0.0-99.0", "trial": 3, "time_elapsed": 666568, "serialpos": 6, "key_press": -1, "wordID": 1158, "type": "PRES_VIS", "trial_index": 135}, "uniqueid": "MTK3281:317HQ483I8ZI8VUZEUQ8DBGE4D3NIA", "dateTime": 1520350720862}, {"current_trial": 136, "trialdata": {"rt": -1, "trial_type": "single-stim", "word": "skirt", "stimulus": "<p id=\"stim\">SKIRT</p>", "conditions": [24, 800, "v", 12000], "internal_node_id": "0.0-100.0", "trial": 3, "time_elapsed": 668482, "serialpos": 7, "key_press": -1, "wordID": 1318, "type": "PRES_VIS", "trial_index": 136}, "uniqueid": "MTK3281:317HQ483I8ZI8VUZEUQ8DBGE4D3NIA", "dateTime": 1520350722776}, {"current_trial": 137, "trialdata": {"rt": -1, "trial_type": "single-stim", "word": "blouse", "stimulus": "<p id=\"stim\">BLOUSE</p>", "conditions": [24, 800, "v", 12000], "internal_node_id": "0.0-101.0", "trial": 3, "time_elapsed": 670226, "serialpos": 8, "key_press": -1, "wordID": 138, "type": "PRES_VIS", "trial_index": 137}, "uniqueid": "MTK3281:317HQ483I8ZI8VUZEUQ8DBGE4D3NIA", "dateTime": 1520350724520}, {"current_trial": 138, "trialdata": {"rt": -1, "trial_type": "single-stim", "word": "breast", "stimulus": "<p id=\"stim\">BREAST</p>", "conditions": [24, 800, "v", 12000], "internal_node_id": "0.0-102.0", "trial": 3, "time_elapsed": 671851, "serialpos": 9, "key_press": -1, "wordID": 170, "type": "PRES_VIS", "trial_index": 138}, "uniqueid": "MTK3281:317HQ483I8ZI8VUZEUQ8DBGE4D3NIA", "dateTime": 1520350726145}, {"current_trial": 139, "trialdata": {"rt": -1, "trial_type": "single-stim", "word": "drink", "stimulus": "<p id=\"stim\">DRINK</p>", "conditions": [24, 800, "v", 12000], "internal_node_id": "0.0-103.0", "trial": 3, "time_elapsed": 673630, "serialpos": 10, "key_press": -1, "wordID": 497, "type": "PRES_VIS", "trial_index": 139}, "uniqueid": "MTK3281:317HQ483I8ZI8VUZEUQ8DBGE4D3NIA", "dateTime": 1520350727924}, {"current_trial": 140, "trialdata": {"rt": -1, "trial_type": "single-stim", "word": "curtain", "stimulus": "<p id=\"stim\">CURTAIN</p>", "conditions": [24, 800, "v", 12000], "internal_node_id": "0.0-104.0", "trial": 3, "time_elapsed": 675359, "serialpos": 11, "key_press": -1, "wordID": 426, "type": "PRES_VIS", "trial_index": 140}, "uniqueid": "MTK3281:317HQ483I8ZI8VUZEUQ8DBGE4D3NIA", "dateTime": 1520350729654}, {"current_trial": 141, "trialdata": {"rt": -1, "trial_type": "single-stim", "word": "marker", "stimulus": "<p id=\"stim\">MARKER</p>", "conditions": [24, 800, "v", 12000], "internal_node_id": "0.0-105.0", "trial": 3, "time_elapsed": 677116, "serialpos": 12, "key_press": -1, "wordID": 869, "type": "PRES_VIS", "trial_index": 141}, "uniqueid": "MTK3281:317HQ483I8ZI8VUZEUQ8DBGE4D3NIA", "dateTime": 1520350731410}, {"current_trial": 142, "trialdata": {"rt": -1, "trial_type": "single-stim", "word": "lunch", "stimulus": "<p id=\"stim\">LUNCH</p>", "conditions": [24, 800, "v", 12000], "internal_node_id": "0.0-106.0", "trial": 3, "time_elapsed": 678853, "serialpos": 13, "key_press": -1, "wordID": 848, "type": "PRES_VIS", "trial_index": 142}, "uniqueid": "MTK3281:317HQ483I8ZI8VUZEUQ8DBGE4D3NIA", "dateTime": 1520350733147}, {"current_trial": 143, "trialdata": {"rt": -1, "trial_type": "single-stim", "word": "turkey", "stimulus": "<p id=\"stim\">TURKEY</p>", "conditions": [24, 800, "v", 12000], "internal_node_id": "0.0-107.0", "trial": 3, "time_elapsed": 680523, "serialpos": 14, "key_press": -1, "wordID": 1519, "type": "PRES_VIS", "trial_index": 143}, "uniqueid": "MTK3281:317HQ483I8ZI8VUZEUQ8DBGE4D3NIA", "dateTime": 1520350734817}, {"current_trial": 144, "trialdata": {"rt": -1, "trial_type": "single-stim", "word": "dress", "stimulus": "<p id=\"stim\">DRESS</p>", "conditions": [24, 800, "v", 12000], "internal_node_id": "0.0-108.0", "trial": 3, "time_elapsed": 682510, "serialpos": 15, "key_press": -1, "wordID": 494, "type": "PRES_VIS", "trial_index": 144}, "uniqueid": "MTK3281:317HQ483I8ZI8VUZEUQ8DBGE4D3NIA", "dateTime": 1520350736805}, {"current_trial": 145, "trialdata": {"rt": -1, "trial_type": "single-stim", "word": "scarf", "stimulus": "<p id=\"stim\">SCARF</p>", "conditions": [24, 800, "v", 12000], "internal_node_id": "0.0-109.0", "trial": 3, "time_elapsed": 684335, "serialpos": 16, "key_press": -1, "wordID": 1245, "type": "PRES_VIS", "trial_index": 145}, "uniqueid": "MTK3281:317HQ483I8ZI8VUZEUQ8DBGE4D3NIA", "dateTime": 1520350738629}, {"current_trial": 146, "trialdata": {"rt": -1, "trial_type": "single-stim", "word": "cattle", "stimulus": "<p id=\"stim\">CATTLE</p>", "conditions": [24, 800, "v", 12000], "internal_node_id": "0.0-110.0", "trial": 3, "time_elapsed": 686236, "serialpos": 17, "key_press": -1, "wordID": 260, "type": "PRES_VIS", "trial_index": 146}, "uniqueid": "MTK3281:317HQ483I8ZI8VUZEUQ8DBGE4D3NIA", "dateTime": 1520350740530}, {"current_trial": 147, "trialdata": {"rt": -1, "trial_type": "single-stim", "word": "switch", "stimulus": "<p id=\"stim\">SWITCH</p>", "conditions": [24, 800, "v", 12000], "internal_node_id": "0.0-111.0", "trial": 3, "time_elapsed": 688061, "serialpos": 18, "key_press": -1, "wordID": 1421, "type": "PRES_VIS", "trial_index": 147}, "uniqueid": "MTK3281:317HQ483I8ZI8VUZEUQ8DBGE4D3NIA", "dateTime": 1520350742355}, {"current_trial": 148, "trialdata": {"rt": -1, "trial_type": "single-stim", "word": "quail", "stimulus": "<p id=\"stim\">QUAIL</p>", "conditions": [24, 800, "v", 12000], "internal_node_id": "0.0-112.0", "trial": 3, "time_elapsed": 689932, "serialpos": 19, "key_press": -1, "wordID": 1146, "type": "PRES_VIS", "trial_index": 148}, "uniqueid": "MTK3281:317HQ483I8ZI8VUZEUQ8DBGE4D3NIA", "dateTime": 1520350744226}, {"current_trial": 149, "trialdata": {"rt": -1, "trial_type": "single-stim", "word": "machine", "stimulus": "<p id=\"stim\">MACHINE</p>", "conditions": [24, 800, "v", 12000], "internal_node_id": "0.0-113.0", "trial": 3, "time_elapsed": 691706, "serialpos": 20, "key_press": -1, "wordID": 851, "type": "PRES_VIS", "trial_index": 149}, "uniqueid": "MTK3281:317HQ483I8ZI8VUZEUQ8DBGE4D3NIA", "dateTime": 1520350746000}, {"current_trial": 150, "trialdata": {"rt": -1, "trial_type": "single-stim", "word": "hand", "stimulus": "<p id=\"stim\">HAND</p>", "conditions": [24, 800, "v", 12000], "internal_node_id": "0.0-114.0", "trial": 3, "time_elapsed": 693687, "serialpos": 21, "key_press": -1, "wordID": 682, "type": "PRES_VIS", "trial_index": 150}, "uniqueid": "MTK3281:317HQ483I8ZI8VUZEUQ8DBGE4D3NIA", "dateTime": 1520350747981}, {"current_trial": 151, "trialdata": {"rt": -1, "trial_type": "single-stim", "word": "elbow", "stimulus": "<p id=\"stim\">ELBOW</p>", "conditions": [24, 800, "v", 12000], "internal_node_id": "0.0-115.0", "trial": 3, "time_elapsed": 695490, "serialpos": 22, "key_press": -1, "wordID": 519, "type": "PRES_VIS", "trial_index": 151}, "uniqueid": "MTK3281:317HQ483I8ZI8VUZEUQ8DBGE4D3NIA", "dateTime": 1520350749784}, {"current_trial": 152, "trialdata": {"rt": -1, "trial_type": "single-stim", "word": "truck", "stimulus": "<p id=\"stim\">TRUCK</p>", "conditions": [24, 800, "v", 12000], "internal_node_id": "0.0-116.0", "trial": 3, "time_elapsed": 697486, "serialpos": 23, "key_press": -1, "wordID": 1511, "type": "PRES_VIS", "trial_index": 152}, "uniqueid": "MTK3281:317HQ483I8ZI8VUZEUQ8DBGE4D3NIA", "dateTime": 1520350751780}, {"current_trial": 153, "trialdata": {"rt": -1, "trial_type": "single-stim", "stimulus": "", "internal_node_id": "0.0-117.0-0.0", "time_elapsed": 699750, "key_press": -1, "type": "PRE_RECALL_DELAY", "trial_index": 153}, "uniqueid": "MTK3281:317HQ483I8ZI8VUZEUQ8DBGE4D3NIA", "dateTime": 1520350754045}, {"current_trial": 154, "trialdata": {"rt": -1000, "trial_type": "single-audio", "stimulus": "/static/audio/400Hz.wav", "internal_node_id": "0.0-118.0", "time_elapsed": 700252, "key_press": -1, "type": "PRE_RECALL_ALERT", "trial_index": 154}, "uniqueid": "MTK3281:317HQ483I8ZI8VUZEUQ8DBGE4D3NIA", "dateTime": 1520350754546}, {"current_trial": 155, "trialdata": {"rt": [2049, 3008, 5064, 6288, 8152, 19175, 26088], "recwords": ["peach", "flash", "soda", "drink", "breast", "truck", "dress"], "key_times": [1411, 1452, 1520, 1711, 1793, 2049, 2200, 2375, 2479, 2543, 2720, 3008, 4432, 4624, 4792, 4880, 5064, 5424, 5600, 5729, 5879, 6002, 6288, 7072, 7280, 7392, 7505, 7648, 7952, 8152, 17385, 17471, 17551, 17720, 17904, 17905, 18239, 18432, 18927, 19175, 25288, 25543, 25631, 25735, 25920, 26088], "trial_type": "free-recall", "conditions": [24, 800, "v", 12000], "internal_node_id": "0.0-119.0-0.0", "key_presses": [80, 69, 65, 67, 72, 13, 70, 76, 65, 83, 72, 13, 83, 79, 68, 65, 13, 68, 82, 73, 78, 75, 13, 66, 82, 69, 65, 83, 84, 13, 84, 82, 85, 67, 76, 75, 8, 8, 75, 13, 68, 82, 69, 83, 83, 13], "trial": 3, "time_elapsed": 760258, "type": "FREE_RECALL", "trial_index": 155}, "uniqueid": "MTK3281:317HQ483I8ZI8VUZEUQ8DBGE4D3NIA", "dateTime": 1520350814557}, {"current_trial": 156, "trialdata": {"rt": 3640, "trial_type": "text", "internal_node_id": "0.0-120.0", "time_elapsed": 765903, "key_press": 32, "type": "INSTRUCTIONS", "trial_index": 156}, "uniqueid": "MTK3281:317HQ483I8ZI8VUZEUQ8DBGE4D3NIA", "dateTime": 1520350820197}, {"current_trial": 157, "trialdata": {"rt": [2668, 6700, 10828, 13164, 14908, 22739], "trial_type": "math-distractor", "key_times": [2220, 2412, 2668, 6404, 6527, 6700, 9925, 10596, 10828, 12725, 12924, 13164, 14755, 14908, 22341, 22532, 22739], "responses": ["17", "12", "17", "10", "5", "20"], "num2": [6, 3, 2, 6, 1, 7, 3], "num3": [7, 5, 6, 1, 2, 4, 4], "conditions": [12, 800, "v", 24000], "internal_node_id": "0.0-121.0", "key_presses": [97, 103, 13, 97, 98, 13, 97, 103, 13, 97, 96, 13, 101, 13, 98, 96, 13], "trial": 4, "time_elapsed": 791908, "type": "DISTRACTOR", "trial_index": 157, "num1": [4, 4, 9, 3, 2, 9, 3]}, "uniqueid": "MTK3281:317HQ483I8ZI8VUZEUQ8DBGE4D3NIA", "dateTime": 1520350846202}, {"current_trial": 158, "trialdata": {"rt": -1, "trial_type": "single-stim", "stimulus": "<p id=\"stim\">10</p>", "internal_node_id": "0.0-122.0-0.0", "time_elapsed": 794911, "key_press": -1, "trial_index": 158}, "uniqueid": "MTK3281:317HQ483I8ZI8VUZEUQ8DBGE4D3NIA", "dateTime": 1520350849205}, {"current_trial": 159, "trialdata": {"rt": -1, "trial_type": "single-stim", "stimulus": "<p id=\"stim\">9</p>", "internal_node_id": "0.0-122.0-1.0", "time_elapsed": 795913, "key_press": -1, "trial_index": 159}, "uniqueid": "MTK3281:317HQ483I8ZI8VUZEUQ8DBGE4D3NIA", "dateTime": 1520350850207}, {"current_trial": 160, "trialdata": {"rt": -1, "trial_type": "single-stim", "stimulus": "<p id=\"stim\">8</p>", "internal_node_id": "0.0-122.0-2.0", "time_elapsed": 796914, "key_press": -1, "trial_index": 160}, "uniqueid": "MTK3281:317HQ483I8ZI8VUZEUQ8DBGE4D3NIA", "dateTime": 1520350851208}, {"current_trial": 161, "trialdata": {"rt": -1, "trial_type": "single-stim", "stimulus": "<p id=\"stim\">7</p>", "internal_node_id": "0.0-122.0-3.0", "time_elapsed": 797917, "key_press": -1, "trial_index": 161}, "uniqueid": "MTK3281:317HQ483I8ZI8VUZEUQ8DBGE4D3NIA", "dateTime": 1520350852211}, {"current_trial": 162, "trialdata": {"rt": -1, "trial_type": "single-stim", "stimulus": "<p id=\"stim\">6</p>", "internal_node_id": "0.0-122.0-4.0", "time_elapsed": 798918, "key_press": -1, "trial_index": 162}, "uniqueid": "MTK3281:317HQ483I8ZI8VUZEUQ8DBGE4D3NIA", "dateTime": 1520350853213}, {"current_trial": 163, "trialdata": {"rt": -1, "trial_type": "single-stim", "stimulus": "<p id=\"stim\">5</p>", "internal_node_id": "0.0-122.0-5.0", "time_elapsed": 799921, "key_press": -1, "trial_index": 163}, "uniqueid": "MTK3281:317HQ483I8ZI8VUZEUQ8DBGE4D3NIA", "dateTime": 1520350854215}, {"current_trial": 164, "trialdata": {"rt": -1, "trial_type": "single-stim", "stimulus": "<p id=\"stim\">4</p>", "internal_node_id": "0.0-122.0-6.0", "time_elapsed": 800923, "key_press": -1, "trial_index": 164}, "uniqueid": "MTK3281:317HQ483I8ZI8VUZEUQ8DBGE4D3NIA", "dateTime": 1520350855217}, {"current_trial": 165, "trialdata": {"rt": -1, "trial_type": "single-stim", "stimulus": "<p id=\"stim\">3</p>", "internal_node_id": "0.0-122.0-7.0", "time_elapsed": 801925, "key_press": -1, "trial_index": 165}, "uniqueid": "MTK3281:317HQ483I8ZI8VUZEUQ8DBGE4D3NIA", "dateTime": 1520350856219}, {"current_trial": 166, "trialdata": {"rt": -1, "trial_type": "single-stim", "stimulus": "<p id=\"stim\">2</p>", "internal_node_id": "0.0-122.0-8.0", "time_elapsed": 802927, "key_press": -1, "trial_index": 166}, "uniqueid": "MTK3281:317HQ483I8ZI8VUZEUQ8DBGE4D3NIA", "dateTime": 1520350857221}, {"current_trial": 167, "trialdata": {"rt": -1, "trial_type": "single-stim", "stimulus": "<p id=\"stim\">1</p>", "internal_node_id": "0.0-122.0-9.0", "time_elapsed": 803929, "key_press": -1, "trial_index": 167}, "uniqueid": "MTK3281:317HQ483I8ZI8VUZEUQ8DBGE4D3NIA", "dateTime": 1520350858223}, {"current_trial": 168, "trialdata": {"rt": -1, "trial_type": "single-stim", "stimulus": "<p id=\"stim\">+</p>", "internal_node_id": "0.0-123.0-0.0", "time_elapsed": 805431, "key_press": -1, "type": "FIXATION", "trial_index": 168}, "uniqueid": "MTK3281:317HQ483I8ZI8VUZEUQ8DBGE4D3NIA", "dateTime": 1520350859725}, {"current_trial": 169, "trialdata": {"rt": -1, "trial_type": "single-stim", "word": "tutu", "stimulus": "<p id=\"stim\">TUTU</p>", "conditions": [12, 800, "v", 24000], "internal_node_id": "0.0-124.0", "trial": 4, "time_elapsed": 806233, "serialpos": 0, "key_press": -1, "wordID": 1523, "type": "PRES_VIS", "trial_index": 169}, "uniqueid": "MTK3281:317HQ483I8ZI8VUZEUQ8DBGE4D3NIA", "dateTime": 1520350860527}, {"current_trial": 170, "trialdata": {"rt": -1, "trial_type": "single-stim", "word": "nightgown", "stimulus": "<p id=\"stim\">NIGHTGOWN</p>", "conditions": [12, 800, "v", 24000], "internal_node_id": "0.0-125.0", "trial": 4, "time_elapsed": 808044, "serialpos": 1, "key_press": -1, "wordID": 952, "type": "PRES_VIS", "trial_index": 170}, "uniqueid": "MTK3281:317HQ483I8ZI8VUZEUQ8DBGE4D3NIA", "dateTime": 1520350862338}, {"current_trial": 171, "trialdata": {"rt": -1, "trial_type": "single-stim", "word": "lamp", "stimulus": "<p id=\"stim\">LAMP</p>", "conditions": [12, 800, "v", 24000], "internal_node_id": "0.0-126.0", "trial": 4, "time_elapsed": 809960, "serialpos": 2, "key_press": -1, "wordID": 797, "type": "PRES_VIS", "trial_index": 171}, "uniqueid": "MTK3281:317HQ483I8ZI8VUZEUQ8DBGE4D3NIA", "dateTime": 1520350864254}, {"current_trial": 172, "trialdata": {"rt": -1, "trial_type": "single-stim", "word": "apron", "stimulus": "<p id=\"stim\">APRON</p>", "conditions": [12, 800, "v", 24000], "internal_node_id": "0.0-127.0", "trial": 4, "time_elapsed": 811948, "serialpos": 3, "key_press": -1, "wordID": 34, "type": "PRES_VIS", "trial_index": 172}, "uniqueid": "MTK3281:317HQ483I8ZI8VUZEUQ8DBGE4D3NIA", "dateTime": 1520350866242}, {"current_trial": 173, "trialdata": {"rt": -1, "trial_type": "single-stim", "word": "turnip", "stimulus": "<p id=\"stim\">TURNIP</p>", "conditions": [12, 800, "v", 24000], "internal_node_id": "0.0-128.0", "trial": 4, "time_elapsed": 813861, "serialpos": 4, "key_press": -1, "wordID": 1520, "type": "PRES_VIS", "trial_index": 173}, "uniqueid": "MTK3281:317HQ483I8ZI8VUZEUQ8DBGE4D3NIA", "dateTime": 1520350868156}, {"current_trial": 174, "trialdata": {"rt": -1, "trial_type": "single-stim", "word": "sunset", "stimulus": "<p id=\"stim\">SUNSET</p>", "conditions": [12, 800, "v", 24000], "internal_node_id": "0.0-129.0", "trial": 4, "time_elapsed": 815497, "serialpos": 5, "key_press": -1, "wordID": 1407, "type": "PRES_VIS", "trial_index": 174}, "uniqueid": "MTK3281:317HQ483I8ZI8VUZEUQ8DBGE4D3NIA", "dateTime": 1520350869792}, {"current_trial": 175, "trialdata": {"rt": -1, "trial_type": "single-stim", "word": "outfit", "stimulus": "<p id=\"stim\">OUTFIT</p>", "conditions": [12, 800, "v", 24000], "internal_node_id": "0.0-130.0", "trial": 4, "time_elapsed": 817430, "serialpos": 6, "key_press": -1, "wordID": 987, "type": "PRES_VIS", "trial_index": 175}, "uniqueid": "MTK3281:317HQ483I8ZI8VUZEUQ8DBGE4D3NIA", "dateTime": 1520350871724}, {"current_trial": 176, "trialdata": {"rt": -1, "trial_type": "single-stim", "word": "award", "stimulus": "<p id=\"stim\">AWARD</p>", "conditions": [12, 800, "v", 24000], "internal_node_id": "0.0-131.0", "trial": 4, "time_elapsed": 819192, "serialpos": 7, "key_press": -1, "wordID": 62, "type": "PRES_VIS", "trial_index": 176}, "uniqueid": "MTK3281:317HQ483I8ZI8VUZEUQ8DBGE4D3NIA", "dateTime": 1520350873486}, {"current_trial": 177, "trialdata": {"rt": -1, "trial_type": "single-stim", "word": "actress", "stimulus": "<p id=\"stim\">ACTRESS</p>", "conditions": [12, 800, "v", 24000], "internal_node_id": "0.0-132.0", "trial": 4, "time_elapsed": 821176, "serialpos": 8, "key_press": -1, "wordID": 5, "type": "PRES_VIS", "trial_index": 177}, "uniqueid": "MTK3281:317HQ483I8ZI8VUZEUQ8DBGE4D3NIA", "dateTime": 1520350875470}, {"current_trial": 178, "trialdata": {"rt": -1, "trial_type": "single-stim", "word": "sunrise", "stimulus": "<p id=\"stim\">SUNRISE</p>", "conditions": [12, 800, "v", 24000], "internal_node_id": "0.0-133.0", "trial": 4, "time_elapsed": 823014, "serialpos": 9, "key_press": -1, "wordID": 1406, "type": "PRES_VIS", "trial_index": 178}, "uniqueid": "MTK3281:317HQ483I8ZI8VUZEUQ8DBGE4D3NIA", "dateTime": 1520350877309}, {"current_trial": 179, "trialdata": {"rt": -1, "trial_type": "single-stim", "word": "wardrobe", "stimulus": "<p id=\"stim\">WARDROBE</p>", "conditions": [12, 800, "v", 24000], "internal_node_id": "0.0-134.0", "trial": 4, "time_elapsed": 824634, "serialpos": 10, "key_press": -1, "wordID": 1586, "type": "PRES_VIS", "trial_index": 179}, "uniqueid": "MTK3281:317HQ483I8ZI8VUZEUQ8DBGE4D3NIA", "dateTime": 1520350878928}, {"current_trial": 180, "trialdata": {"rt": -1, "trial_type": "single-stim", "word": "pecan", "stimulus": "<p id=\"stim\">PECAN</p>", "conditions": [12, 800, "v", 24000], "internal_node_id": "0.0-135.0", "trial": 4, "time_elapsed": 826341, "serialpos": 11, "key_press": -1, "wordID": 1035, "type": "PRES_VIS", "trial_index": 180}, "uniqueid": "MTK3281:317HQ483I8ZI8VUZEUQ8DBGE4D3NIA", "dateTime": 1520350880635}, {"current_trial": 181, "trialdata": {"rt": -1, "trial_type": "single-stim", "stimulus": "", "internal_node_id": "0.0-136.0-0.0", "time_elapsed": 828809, "key_press": -1, "type": "PRE_RECALL_DELAY", "trial_index": 181}, "uniqueid": "MTK3281:317HQ483I8ZI8VUZEUQ8DBGE4D3NIA", "dateTime": 1520350883103}, {"current_trial": 182, "trialdata": {"rt": -1000, "trial_type": "single-audio", "stimulus": "/static/audio/400Hz.wav", "internal_node_id": "0.0-137.0", "time_elapsed": 829311, "key_press": -1, "type": "PRE_RECALL_ALERT", "trial_index": 182}, "uniqueid": "MTK3281:317HQ483I8ZI8VUZEUQ8DBGE4D3NIA", "dateTime": 1520350883605}, {"current_trial": 183, "trialdata": {"rt": [2357, 3702, 5669, 11658], "recwords": ["tutu", "sunrise", "pecan", "actress"], "key_times": [1142, 1285, 1422, 1941, 2357, 2630, 2763, 2909, 3062, 3231, 3318, 3390, 3702, 4005, 4310, 4541, 4709, 4949, 5669, 9901, 10021, 10365, 10973, 11159, 11294, 11493, 11658], "trial_type": "free-recall", "conditions": [12, 800, "v", 24000], "internal_node_id": "0.0-138.0-0.0", "key_presses": [84, 85, 84, 85, 13, 83, 85, 78, 82, 73, 83, 69, 13, 80, 69, 67, 65, 78, 13, 65, 67, 84, 82, 69, 83, 83, 13], "trial": 4, "time_elapsed": 889317, "type": "FREE_RECALL", "trial_index": 183}, "uniqueid": "MTK3281:317HQ483I8ZI8VUZEUQ8DBGE4D3NIA", "dateTime": 1520350943616}, {"current_trial": 184, "trialdata": {"rt": 3596, "trial_type": "text", "internal_node_id": "0.0-139.0", "time_elapsed": 894919, "key_press": 32, "type": "INSTRUCTIONS", "trial_index": 184}, "uniqueid": "MTK3281:317HQ483I8ZI8VUZEUQ8DBGE4D3NIA", "dateTime": 1520350949213}, {"current_trial": 185, "trialdata": {"rt": [2304, 4648, 6504, 9663], "trial_type": "math-distractor", "key_times": [1961, 2080, 2304, 4432, 4648, 6184, 6376, 6504, 9225, 9440, 9663, 11856], "responses": ["19", "9", "10", "14"], "num2": [2, 5, 4, 6, 7], "num3": [9, 1, 5, 7, 3], "conditions": [12, 800, "v", 12000], "internal_node_id": "0.0-140.0", "key_presses": [97, 105, 13, 105, 13, 97, 96, 13, 97, 100, 13, 97], "trial": 5, "time_elapsed": 908928, "type": "DISTRACTOR", "trial_index": 185, "num1": [8, 3, 1, 1, 2]}, "uniqueid": "MTK3281:317HQ483I8ZI8VUZEUQ8DBGE4D3NIA", "dateTime": 1520350963222}, {"current_trial": 186, "trialdata": {"rt": -1, "trial_type": "single-stim", "stimulus": "<p id=\"stim\">10</p>", "internal_node_id": "0.0-141.0-0.0", "time_elapsed": 911930, "key_press": -1, "trial_index": 186}, "uniqueid": "MTK3281:317HQ483I8ZI8VUZEUQ8DBGE4D3NIA", "dateTime": 1520350966225}, {"current_trial": 187, "trialdata": {"rt": -1, "trial_type": "single-stim", "stimulus": "<p id=\"stim\">9</p>", "internal_node_id": "0.0-141.0-1.0", "time_elapsed": 912933, "key_press": -1, "trial_index": 187}, "uniqueid": "MTK3281:317HQ483I8ZI8VUZEUQ8DBGE4D3NIA", "dateTime": 1520350967227}, {"current_trial": 188, "trialdata": {"rt": -1, "trial_type": "single-stim", "stimulus": "<p id=\"stim\">8</p>", "internal_node_id": "0.0-141.0-2.0", "time_elapsed": 913935, "key_press": -1, "trial_index": 188}, "uniqueid": "MTK3281:317HQ483I8ZI8VUZEUQ8DBGE4D3NIA", "dateTime": 1520350968229}, {"current_trial": 189, "trialdata": {"rt": -1, "trial_type": "single-stim", "stimulus": "<p id=\"stim\">7</p>", "internal_node_id": "0.0-141.0-3.0", "time_elapsed": 914959, "key_press": -1, "trial_index": 189}, "uniqueid": "MTK3281:317HQ483I8ZI8VUZEUQ8DBGE4D3NIA", "dateTime": 1520350969254}, {"current_trial": 190, "trialdata": {"rt": -1, "trial_type": "single-stim", "stimulus": "<p id=\"stim\">6</p>", "internal_node_id": "0.0-141.0-4.0", "time_elapsed": 915962, "key_press": -1, "trial_index": 190}, "uniqueid": "MTK3281:317HQ483I8ZI8VUZEUQ8DBGE4D3NIA", "dateTime": 1520350970256}, {"current_trial": 191, "trialdata": {"rt": -1, "trial_type": "single-stim", "stimulus": "<p id=\"stim\">5</p>", "internal_node_id": "0.0-141.0-5.0", "time_elapsed": 916963, "key_press": -1, "trial_index": 191}, "uniqueid": "MTK3281:317HQ483I8ZI8VUZEUQ8DBGE4D3NIA", "dateTime": 1520350971257}, {"current_trial": 192, "trialdata": {"rt": -1, "trial_type": "single-stim", "stimulus": "<p id=\"stim\">4</p>", "internal_node_id": "0.0-141.0-6.0", "time_elapsed": 917966, "key_press": -1, "trial_index": 192}, "uniqueid": "MTK3281:317HQ483I8ZI8VUZEUQ8DBGE4D3NIA", "dateTime": 1520350972260}, {"current_trial": 193, "trialdata": {"rt": -1, "trial_type": "single-stim", "stimulus": "<p id=\"stim\">3</p>", "internal_node_id": "0.0-141.0-7.0", "time_elapsed": 918968, "key_press": -1, "trial_index": 193}, "uniqueid": "MTK3281:317HQ483I8ZI8VUZEUQ8DBGE4D3NIA", "dateTime": 1520350973262}, {"current_trial": 194, "trialdata": {"rt": -1, "trial_type": "single-stim", "stimulus": "<p id=\"stim\">2</p>", "internal_node_id": "0.0-141.0-8.0", "time_elapsed": 919970, "key_press": -1, "trial_index": 194}, "uniqueid": "MTK3281:317HQ483I8ZI8VUZEUQ8DBGE4D3NIA", "dateTime": 1520350974264}, {"current_trial": 195, "trialdata": {"rt": -1, "trial_type": "single-stim", "stimulus": "<p id=\"stim\">1</p>", "internal_node_id": "0.0-141.0-9.0", "time_elapsed": 920972, "key_press": -1, "trial_index": 195}, "uniqueid": "MTK3281:317HQ483I8ZI8VUZEUQ8DBGE4D3NIA", "dateTime": 1520350975266}, {"current_trial": 196, "trialdata": {"rt": -1, "trial_type": "single-stim", "stimulus": "<p id=\"stim\">+</p>", "internal_node_id": "0.0-142.0-0.0", "time_elapsed": 922474, "key_press": -1, "type": "FIXATION", "trial_index": 196}, "uniqueid": "MTK3281:317HQ483I8ZI8VUZEUQ8DBGE4D3NIA", "dateTime": 1520350976768}, {"current_trial": 197, "trialdata": {"rt": -1, "trial_type": "single-stim", "word": "missile", "stimulus": "<p id=\"stim\">MISSILE</p>", "conditions": [12, 800, "v", 12000], "internal_node_id": "0.0-143.0", "trial": 5, "time_elapsed": 923280, "serialpos": 0, "key_press": -1, "wordID": 899, "type": "PRES_VIS", "trial_index": 197}, "uniqueid": "MTK3281:317HQ483I8ZI8VUZEUQ8DBGE4D3NIA", "dateTime": 1520350977574}, {"current_trial": 198, "trialdata": {"rt": -1, "trial_type": "single-stim", "word": "hamper", "stimulus": "<p id=\"stim\">HAMPER</p>", "conditions": [12, 800, "v", 12000], "internal_node_id": "0.0-144.0", "trial": 5, "time_elapsed": 924964, "serialpos": 1, "key_press": -1, "wordID": 681, "type": "PRES_VIS", "trial_index": 198}, "uniqueid": "MTK3281:317HQ483I8ZI8VUZEUQ8DBGE4D3NIA", "dateTime": 1520350979258}, {"current_trial": 199, "trialdata": {"rt": -1, "trial_type": "single-stim", "word": "police", "stimulus": "<p id=\"stim\">POLICE</p>", "conditions": [12, 800, "v", 12000], "internal_node_id": "0.0-145.0", "trial": 5, "time_elapsed": 926687, "serialpos": 2, "key_press": -1, "wordID": 1097, "type": "PRES_VIS", "trial_index": 199}, "uniqueid": "MTK3281:317HQ483I8ZI8VUZEUQ8DBGE4D3NIA", "dateTime": 1520350980981}, {"current_trial": 200, "trialdata": {"rt": -1, "trial_type": "single-stim", "word": "donkey", "stimulus": "<p id=\"stim\">DONKEY</p>", "conditions": [12, 800, "v", 12000], "internal_node_id": "0.0-146.0", "trial": 5, "time_elapsed": 928305, "serialpos": 3, "key_press": -1, "wordID": 483, "type": "PRES_VIS", "trial_index": 200}, "uniqueid": "MTK3281:317HQ483I8ZI8VUZEUQ8DBGE4D3NIA", "dateTime": 1520350982599}, {"current_trial": 201, "trialdata": {"rt": -1, "trial_type": "single-stim", "word": "goblin", "stimulus": "<p id=\"stim\">GOBLIN</p>", "conditions": [12, 800, "v", 12000], "internal_node_id": "0.0-147.0", "trial": 5, "time_elapsed": 930120, "serialpos": 4, "key_press": -1, "wordID": 644, "type": "PRES_VIS", "trial_index": 201}, "uniqueid": "MTK3281:317HQ483I8ZI8VUZEUQ8DBGE4D3NIA", "dateTime": 1520350984414}, {"current_trial": 202, "trialdata": {"rt": -1, "trial_type": "single-stim", "word": "lion", "stimulus": "<p id=\"stim\">LION</p>", "conditions": [12, 800, "v", 12000], "internal_node_id": "0.0-148.0", "trial": 5, "time_elapsed": 931730, "serialpos": 5, "key_press": -1, "wordID": 826, "type": "PRES_VIS", "trial_index": 202}, "uniqueid": "MTK3281:317HQ483I8ZI8VUZEUQ8DBGE4D3NIA", "dateTime": 1520350986024}, {"current_trial": 203, "trialdata": {"rt": -1, "trial_type": "single-stim", "word": "flag", "stimulus": "<p id=\"stim\">FLAG</p>", "conditions": [12, 800, "v", 12000], "internal_node_id": "0.0-149.0", "trial": 5, "time_elapsed": 933509, "serialpos": 6, "key_press": -1, "wordID": 572, "type": "PRES_VIS", "trial_index": 203}, "uniqueid": "MTK3281:317HQ483I8ZI8VUZEUQ8DBGE4D3NIA", "dateTime": 1520350987803}, {"current_trial": 204, "trialdata": {"rt": -1, "trial_type": "single-stim", "word": "rocket", "stimulus": "<p id=\"stim\">ROCKET</p>", "conditions": [12, 800, "v", 12000], "internal_node_id": "0.0-150.0", "trial": 5, "time_elapsed": 935495, "serialpos": 7, "key_press": -1, "wordID": 1201, "type": "PRES_VIS", "trial_index": 204}, "uniqueid": "MTK3281:317HQ483I8ZI8VUZEUQ8DBGE4D3NIA", "dateTime": 1520350989789}, {"current_trial": 205, "trialdata": {"rt": -1, "trial_type": "single-stim", "word": "luggage", "stimulus": "<p id=\"stim\">LUGGAGE</p>", "conditions": [12, 800, "v", 12000], "internal_node_id": "0.0-151.0", "trial": 5, "time_elapsed": 937126, "serialpos": 8, "key_press": -1, "wordID": 846, "type": "PRES_VIS", "trial_index": 205}, "uniqueid": "MTK3281:317HQ483I8ZI8VUZEUQ8DBGE4D3NIA", "dateTime": 1520350991420}, {"current_trial": 206, "trialdata": {"rt": -1, "trial_type": "single-stim", "word": "scarecrow", "stimulus": "<p id=\"stim\">SCARECROW</p>", "conditions": [12, 800, "v", 12000], "internal_node_id": "0.0-152.0", "trial": 5, "time_elapsed": 939120, "serialpos": 9, "key_press": -1, "wordID": 1244, "type": "PRES_VIS", "trial_index": 206}, "uniqueid": "MTK3281:317HQ483I8ZI8VUZEUQ8DBGE4D3NIA", "dateTime": 1520350993414}, {"current_trial": 207, "trialdata": {"rt": -1, "trial_type": "single-stim", "word": "lagoon", "stimulus": "<p id=\"stim\">LAGOON</p>", "conditions": [12, 800, "v", 12000], "internal_node_id": "0.0-153.0", "trial": 5, "time_elapsed": 940956, "serialpos": 10, "key_press": -1, "wordID": 794, "type": "PRES_VIS", "trial_index": 207}, "uniqueid": "MTK3281:317HQ483I8ZI8VUZEUQ8DBGE4D3NIA", "dateTime": 1520350995250}, {"current_trial": 208, "trialdata": {"rt": -1, "trial_type": "single-stim", "word": "marsh", "stimulus": "<p id=\"stim\">MARSH</p>", "conditions": [12, 800, "v", 12000], "internal_node_id": "0.0-154.0", "trial": 5, "time_elapsed": 942706, "serialpos": 11, "key_press": -1, "wordID": 873, "type": "PRES_VIS", "trial_index": 208}, "uniqueid": "MTK3281:317HQ483I8ZI8VUZEUQ8DBGE4D3NIA", "dateTime": 1520350997000}, {"current_trial": 209, "trialdata": {"rt": -1, "trial_type": "single-stim", "stimulus": "", "internal_node_id": "0.0-155.0-0.0", "time_elapsed": 945040, "key_press": -1, "type": "PRE_RECALL_DELAY", "trial_index": 209}, "uniqueid": "MTK3281:317HQ483I8ZI8VUZEUQ8DBGE4D3NIA", "dateTime": 1520350999334}, {"current_trial": 210, "trialdata": {"rt": -1000, "trial_type": "single-audio", "stimulus": "/static/audio/400Hz.wav", "internal_node_id": "0.0-156.0", "time_elapsed": 945542, "key_press": -1, "type": "PRE_RECALL_ALERT", "trial_index": 210}, "uniqueid": "MTK3281:317HQ483I8ZI8VUZEUQ8DBGE4D3NIA", "dateTime": 1520350999836}, {"current_trial": 211, "trialdata": {"rt": [4406, 5622, 8046, 11669, 13670], "recwords": ["donkey", "lion", "scarecrow", "marsh", "lagoon"], "key_times": [1094, 1350, 1549, 1552, 1645, 1982, 2157, 2347, 3508, 3653, 3806, 3974, 4406, 4670, 4926, 5046, 5278, 5622, 5910, 6150, 6414, 6854, 6982, 7278, 7574, 7717, 7831, 8046, 8355, 8478, 8647, 9275, 9854, 10630, 10854, 11118, 11269, 11669, 11990, 12151, 12350, 12558, 12735, 13278, 13670], "trial_type": "free-recall", "conditions": [12, 800, "v", 12000], "internal_node_id": "0.0-157.0-0.0", "key_presses": [68, 79, 77, 78, 75, 8, 8, 8, 78, 75, 69, 89, 13, 76, 73, 79, 78, 13, 83, 67, 65, 82, 69, 67, 82, 79, 87, 13, 77, 65, 83, 82, 8, 8, 82, 83, 72, 13, 76, 65, 71, 79, 79, 78, 13], "trial": 5, "time_elapsed": 1005547, "type": "FREE_RECALL", "trial_index": 211}, "uniqueid": "MTK3281:317HQ483I8ZI8VUZEUQ8DBGE4D3NIA", "dateTime": 1520351059847}, {"current_trial": 212, "trialdata": {"rt": 9117, "trial_type": "text", "internal_node_id": "0.0-158.0", "time_elapsed": 1016671, "key_press": 32, "type": "INSTRUCTIONS", "trial_index": 212}, "uniqueid": "MTK3281:317HQ483I8ZI8VUZEUQ8DBGE4D3NIA", "dateTime": 1520351070965}, {"current_trial": 213, "trialdata": {"rt": [2684, 4852], "trial_type": "math-distractor", "key_times": [2165, 2428, 2684, 4213, 4317, 4852], "responses": ["18", "12"], "num2": [3, 2, 5], "num3": [7, 3, 6], "conditions": [24, 800, "v", 12000], "internal_node_id": "0.0-159.0", "key_presses": [97, 104, 13, 97, 98, 13], "trial": 6, "time_elapsed": 1030676, "type": "DISTRACTOR", "trial_index": 213, "num1": [8, 7, 2]}, "uniqueid": "MTK3281:317HQ483I8ZI8VUZEUQ8DBGE4D3NIA", "dateTime": 1520351084970}, {"current_trial": 214, "trialdata": {"rt": -1, "trial_type": "single-stim", "stimulus": "<p id=\"stim\">10</p>", "internal_node_id": "0.0-160.0-0.0", "time_elapsed": 1033679, "key_press": -1, "trial_index": 214}, "uniqueid": "MTK3281:317HQ483I8ZI8VUZEUQ8DBGE4D3NIA", "dateTime": 1520351087973}, {"current_trial": 215, "trialdata": {"rt": -1, "trial_type": "single-stim", "stimulus": "<p id=\"stim\">9</p>", "internal_node_id": "0.0-160.0-1.0", "time_elapsed": 1034680, "key_press": -1, "trial_index": 215}, "uniqueid": "MTK3281:317HQ483I8ZI8VUZEUQ8DBGE4D3NIA", "dateTime": 1520351088974}, {"current_trial": 216, "trialdata": {"rt": -1, "trial_type": "single-stim", "stimulus": "<p id=\"stim\">8</p>", "internal_node_id": "0.0-160.0-2.0", "time_elapsed": 1035681, "key_press": -1, "trial_index": 216}, "uniqueid": "MTK3281:317HQ483I8ZI8VUZEUQ8DBGE4D3NIA", "dateTime": 1520351089975}, {"current_trial": 217, "trialdata": {"rt": -1, "trial_type": "single-stim", "stimulus": "<p id=\"stim\">7</p>", "internal_node_id": "0.0-160.0-3.0", "time_elapsed": 1036683, "key_press": -1, "trial_index": 217}, "uniqueid": "MTK3281:317HQ483I8ZI8VUZEUQ8DBGE4D3NIA", "dateTime": 1520351090977}, {"current_trial": 218, "trialdata": {"rt": -1, "trial_type": "single-stim", "stimulus": "<p id=\"stim\">6</p>", "internal_node_id": "0.0-160.0-4.0", "time_elapsed": 1037685, "key_press": -1, "trial_index": 218}, "uniqueid": "MTK3281:317HQ483I8ZI8VUZEUQ8DBGE4D3NIA", "dateTime": 1520351091979}, {"current_trial": 219, "trialdata": {"rt": -1, "trial_type": "single-stim", "stimulus": "<p id=\"stim\">5</p>", "internal_node_id": "0.0-160.0-5.0", "time_elapsed": 1038686, "key_press": -1, "trial_index": 219}, "uniqueid": "MTK3281:317HQ483I8ZI8VUZEUQ8DBGE4D3NIA", "dateTime": 1520351092980}, {"current_trial": 220, "trialdata": {"rt": -1, "trial_type": "single-stim", "stimulus": "<p id=\"stim\">4</p>", "internal_node_id": "0.0-160.0-6.0", "time_elapsed": 1039688, "key_press": -1, "trial_index": 220}, "uniqueid": "MTK3281:317HQ483I8ZI8VUZEUQ8DBGE4D3NIA", "dateTime": 1520351093982}, {"current_trial": 221, "trialdata": {"rt": -1, "trial_type": "single-stim", "stimulus": "<p id=\"stim\">3</p>", "internal_node_id": "0.0-160.0-7.0", "time_elapsed": 1040692, "key_press": -1, "trial_index": 221}, "uniqueid": "MTK3281:317HQ483I8ZI8VUZEUQ8DBGE4D3NIA", "dateTime": 1520351094986}, {"current_trial": 222, "trialdata": {"rt": -1, "trial_type": "single-stim", "stimulus": "<p id=\"stim\">2</p>", "internal_node_id": "0.0-160.0-8.0", "time_elapsed": 1041694, "key_press": -1, "trial_index": 222}, "uniqueid": "MTK3281:317HQ483I8ZI8VUZEUQ8DBGE4D3NIA", "dateTime": 1520351095988}, {"current_trial": 223, "trialdata": {"rt": -1, "trial_type": "single-stim", "stimulus": "<p id=\"stim\">1</p>", "internal_node_id": "0.0-160.0-9.0", "time_elapsed": 1042696, "key_press": -1, "trial_index": 223}, "uniqueid": "MTK3281:317HQ483I8ZI8VUZEUQ8DBGE4D3NIA", "dateTime": 1520351096990}, {"current_trial": 224, "trialdata": {"rt": -1, "trial_type": "single-stim", "stimulus": "<p id=\"stim\">+</p>", "internal_node_id": "0.0-161.0-0.0", "time_elapsed": 1044197, "key_press": -1, "type": "FIXATION", "trial_index": 224}, "uniqueid": "MTK3281:317HQ483I8ZI8VUZEUQ8DBGE4D3NIA", "dateTime": 1520351098492}, {"current_trial": 225, "trialdata": {"rt": -1, "trial_type": "single-stim", "word": "snack", "stimulus": "<p id=\"stim\">SNACK</p>", "conditions": [24, 800, "v", 12000], "internal_node_id": "0.0-162.0", "trial": 6, "time_elapsed": 1045000, "serialpos": 0, "key_press": -1, "wordID": 1330, "type": "PRES_VIS", "trial_index": 225}, "uniqueid": "MTK3281:317HQ483I8ZI8VUZEUQ8DBGE4D3NIA", "dateTime": 1520351099295}, {"current_trial": 226, "trialdata": {"rt": -1, "trial_type": "single-stim", "word": "playground", "stimulus": "<p id=\"stim\">PLAYGROUND</p>", "conditions": [24, 800, "v", 12000], "internal_node_id": "0.0-163.0", "trial": 6, "time_elapsed": 1046767, "serialpos": 1, "key_press": -1, "wordID": 1086, "type": "PRES_VIS", "trial_index": 226}, "uniqueid": "MTK3281:317HQ483I8ZI8VUZEUQ8DBGE4D3NIA", "dateTime": 1520351101061}, {"current_trial": 227, "trialdata": {"rt": -1, "trial_type": "single-stim", "word": "canyon", "stimulus": "<p id=\"stim\">CANYON</p>", "conditions": [24, 800, "v", 12000], "internal_node_id": "0.0-164.0", "trial": 6, "time_elapsed": 1048701, "serialpos": 2, "key_press": -1, "wordID": 234, "type": "PRES_VIS", "trial_index": 227}, "uniqueid": "MTK3281:317HQ483I8ZI8VUZEUQ8DBGE4D3NIA", "dateTime": 1520351102996}, {"current_trial": 228, "trialdata": {"rt": -1, "trial_type": "single-stim", "word": "valley", "stimulus": "<p id=\"stim\">VALLEY</p>", "conditions": [24, 800, "v", 12000], "internal_node_id": "0.0-165.0", "trial": 6, "time_elapsed": 1050326, "serialpos": 3, "key_press": -1, "wordID": 1544, "type": "PRES_VIS", "trial_index": 228}, "uniqueid": "MTK3281:317HQ483I8ZI8VUZEUQ8DBGE4D3NIA", "dateTime": 1520351104620}, {"current_trial": 229, "trialdata": {"rt": -1, "trial_type": "single-stim", "word": "zebra", "stimulus": "<p id=\"stim\">ZEBRA</p>", "conditions": [24, 800, "v", 12000], "internal_node_id": "0.0-166.0", "trial": 6, "time_elapsed": 1052231, "serialpos": 4, "key_press": -1, "wordID": 1634, "type": "PRES_VIS", "trial_index": 229}, "uniqueid": "MTK3281:317HQ483I8ZI8VUZEUQ8DBGE4D3NIA", "dateTime": 1520351106525}, {"current_trial": 230, "trialdata": {"rt": -1, "trial_type": "single-stim", "word": "notebook", "stimulus": "<p id=\"stim\">NOTEBOOK</p>", "conditions": [24, 800, "v", 12000], "internal_node_id": "0.0-167.0", "trial": 6, "time_elapsed": 1054215, "serialpos": 5, "key_press": -1, "wordID": 958, "type": "PRES_VIS", "trial_index": 230}, "uniqueid": "MTK3281:317HQ483I8ZI8VUZEUQ8DBGE4D3NIA", "dateTime": 1520351108509}, {"current_trial": 231, "trialdata": {"rt": -1, "trial_type": "single-stim", "word": "widow", "stimulus": "<p id=\"stim\">WIDOW</p>", "conditions": [24, 800, "v", 12000], "internal_node_id": "0.0-168.0", "trial": 6, "time_elapsed": 1056051, "serialpos": 6, "key_press": -1, "wordID": 1607, "type": "PRES_VIS", "trial_index": 231}, "uniqueid": "MTK3281:317HQ483I8ZI8VUZEUQ8DBGE4D3NIA", "dateTime": 1520351110345}, {"current_trial": 232, "trialdata": {"rt": -1, "trial_type": "single-stim", "word": "mop", "stimulus": "<p id=\"stim\">MOP</p>", "conditions": [24, 800, "v", 12000], "internal_node_id": "0.0-169.0", "trial": 6, "time_elapsed": 1057776, "serialpos": 7, "key_press": -1, "wordID": 915, "type": "PRES_VIS", "trial_index": 232}, "uniqueid": "MTK3281:317HQ483I8ZI8VUZEUQ8DBGE4D3NIA", "dateTime": 1520351112070}, {"current_trial": 233, "trialdata": {"rt": -1, "trial_type": "single-stim", "word": "leopard", "stimulus": "<p id=\"stim\">LEOPARD</p>", "conditions": [24, 800, "v", 12000], "internal_node_id": "0.0-170.0", "trial": 6, "time_elapsed": 1059651, "serialpos": 8, "key_press": -1, "wordID": 811, "type": "PRES_VIS", "trial_index": 233}, "uniqueid": "MTK3281:317HQ483I8ZI8VUZEUQ8DBGE4D3NIA", "dateTime": 1520351113945}, {"current_trial": 234, "trialdata": {"rt": -1, "trial_type": "single-stim", "word": "cook", "stimulus": "<p id=\"stim\">COOK</p>", "conditions": [24, 800, "v", 12000], "internal_node_id": "0.0-171.0", "trial": 6, "time_elapsed": 1061635, "serialpos": 9, "key_press": -1, "wordID": 371, "type": "PRES_VIS", "trial_index": 234}, "uniqueid": "MTK3281:317HQ483I8ZI8VUZEUQ8DBGE4D3NIA", "dateTime": 1520351115929}, {"current_trial": 235, "trialdata": {"rt": -1, "trial_type": "single-stim", "word": "dancer", "stimulus": "<p id=\"stim\">DANCER</p>", "conditions": [24, 800, "v", 12000], "internal_node_id": "0.0-172.0", "trial": 6, "time_elapsed": 1063410, "serialpos": 10, "key_press": -1, "wordID": 436, "type": "PRES_VIS", "trial_index": 235}, "uniqueid": "MTK3281:317HQ483I8ZI8VUZEUQ8DBGE4D3NIA", "dateTime": 1520351117705}, {"current_trial": 236, "trialdata": {"rt": -1, "trial_type": "single-stim", "word": "match", "stimulus": "<p id=\"stim\">MATCH</p>", "conditions": [24, 800, "v", 12000], "internal_node_id": "0.0-173.0", "trial": 6, "time_elapsed": 1065402, "serialpos": 11, "key_press": -1, "wordID": 877, "type": "PRES_VIS", "trial_index": 236}, "uniqueid": "MTK3281:317HQ483I8ZI8VUZEUQ8DBGE4D3NIA", "dateTime": 1520351119696}, {"current_trial": 237, "trialdata": {"rt": -1, "trial_type": "single-stim", "word": "puddle", "stimulus": "<p id=\"stim\">PUDDLE</p>", "conditions": [24, 800, "v", 12000], "internal_node_id": "0.0-174.0", "trial": 6, "time_elapsed": 1067072, "serialpos": 12, "key_press": -1, "wordID": 1139, "type": "PRES_VIS", "trial_index": 237}, "uniqueid": "MTK3281:317HQ483I8ZI8VUZEUQ8DBGE4D3NIA", "dateTime": 1520351121366}, {"current_trial": 238, "trialdata": {"rt": -1, "trial_type": "single-stim", "word": "statue", "stimulus": "<p id=\"stim\">STATUE</p>", "conditions": [24, 800, "v", 12000], "internal_node_id": "0.0-175.0", "trial": 6, "time_elapsed": 1068827, "serialpos": 13, "key_press": -1, "wordID": 1373, "type": "PRES_VIS", "trial_index": 238}, "uniqueid": "MTK3281:317HQ483I8ZI8VUZEUQ8DBGE4D3NIA", "dateTime": 1520351123121}, {"current_trial": 239, "trialdata": {"rt": -1, "trial_type": "single-stim", "word": "shark", "stimulus": "<p id=\"stim\">SHARK</p>", "conditions": [24, 800, "v", 12000], "internal_node_id": "0.0-176.0", "trial": 6, "time_elapsed": 1070552, "serialpos": 14, "key_press": -1, "wordID": 1274, "type": "PRES_VIS", "trial_index": 239}, "uniqueid": "MTK3281:317HQ483I8ZI8VUZEUQ8DBGE4D3NIA", "dateTime": 1520351124846}, {"current_trial": 240, "trialdata": {"rt": -1, "trial_type": "single-stim", "word": "dolphin", "stimulus": "<p id=\"stim\">DOLPHIN</p>", "conditions": [24, 800, "v", 12000], "internal_node_id": "0.0-177.0", "trial": 6, "time_elapsed": 1072332, "serialpos": 15, "key_press": -1, "wordID": 482, "type": "PRES_VIS", "trial_index": 240}, "uniqueid": "MTK3281:317HQ483I8ZI8VUZEUQ8DBGE4D3NIA", "dateTime": 1520351126626}, {"current_trial": 241, "trialdata": {"rt": -1, "trial_type": "single-stim", "word": "tombstone", "stimulus": "<p id=\"stim\">TOMBSTONE</p>", "conditions": [24, 800, "v", 12000], "internal_node_id": "0.0-178.0", "trial": 6, "time_elapsed": 1074050, "serialpos": 16, "key_press": -1, "wordID": 1477, "type": "PRES_VIS", "trial_index": 241}, "uniqueid": "MTK3281:317HQ483I8ZI8VUZEUQ8DBGE4D3NIA", "dateTime": 1520351128346}, {"current_trial": 242, "trialdata": {"rt": -1, "trial_type": "single-stim", "word": "virus", "stimulus": "<p id=\"stim\">VIRUS</p>", "conditions": [24, 800, "v", 12000], "internal_node_id": "0.0-179.0", "trial": 6, "time_elapsed": 1075901, "serialpos": 17, "key_press": -1, "wordID": 1571, "type": "PRES_VIS", "trial_index": 242}, "uniqueid": "MTK3281:317HQ483I8ZI8VUZEUQ8DBGE4D3NIA", "dateTime": 1520351130195}, {"current_trial": 243, "trialdata": {"rt": -1, "trial_type": "single-stim", "word": "sister", "stimulus": "<p id=\"stim\">SISTER</p>", "conditions": [24, 800, "v", 12000], "internal_node_id": "0.0-180.0", "trial": 6, "time_elapsed": 1077642, "serialpos": 18, "key_press": -1, "wordID": 1311, "type": "PRES_VIS", "trial_index": 243}, "uniqueid": "MTK3281:317HQ483I8ZI8VUZEUQ8DBGE4D3NIA", "dateTime": 1520351131936}, {"current_trial": 244, "trialdata": {"rt": -1, "trial_type": "single-stim", "word": "actor", "stimulus": "<p id=\"stim\">ACTOR</p>", "conditions": [24, 800, "v", 12000], "internal_node_id": "0.0-181.0", "trial": 6, "time_elapsed": 1079593, "serialpos": 19, "key_press": -1, "wordID": 4, "type": "PRES_VIS", "trial_index": 244}, "uniqueid": "MTK3281:317HQ483I8ZI8VUZEUQ8DBGE4D3NIA", "dateTime": 1520351133888}, {"current_trial": 245, "trialdata": {"rt": -1, "trial_type": "single-stim", "word": "hostess", "stimulus": "<p id=\"stim\">HOSTESS</p>", "conditions": [24, 800, "v", 12000], "internal_node_id": "0.0-182.0", "trial": 6, "time_elapsed": 1081234, "serialpos": 20, "key_press": -1, "wordID": 722, "type": "PRES_VIS", "trial_index": 245}, "uniqueid": "MTK3281:317HQ483I8ZI8VUZEUQ8DBGE4D3NIA", "dateTime": 1520351135528}, {"current_trial": 246, "trialdata": {"rt": -1, "trial_type": "single-stim", "word": "scallop", "stimulus": "<p id=\"stim\">SCALLOP</p>", "conditions": [24, 800, "v", 12000], "internal_node_id": "0.0-183.0", "trial": 6, "time_elapsed": 1083189, "serialpos": 21, "key_press": -1, "wordID": 1241, "type": "PRES_VIS", "trial_index": 246}, "uniqueid": "MTK3281:317HQ483I8ZI8VUZEUQ8DBGE4D3NIA", "dateTime": 1520351137484}, {"current_trial": 247, "trialdata": {"rt": -1, "trial_type": "single-stim", "word": "termite", "stimulus": "<p id=\"stim\">TERMITE</p>", "conditions": [24, 800, "v", 12000], "internal_node_id": "0.0-184.0", "trial": 6, "time_elapsed": 1084979, "serialpos": 22, "key_press": -1, "wordID": 1450, "type": "PRES_VIS", "trial_index": 247}, "uniqueid": "MTK3281:317HQ483I8ZI8VUZEUQ8DBGE4D3NIA", "dateTime": 1520351139274}, {"current_trial": 248, "trialdata": {"rt": -1, "trial_type": "single-stim", "word": "ozone", "stimulus": "<p id=\"stim\">OZONE</p>", "conditions": [24, 800, "v", 12000], "internal_node_id": "0.0-185.0", "trial": 6, "time_elapsed": 1086851, "serialpos": 23, "key_press": -1, "wordID": 995, "type": "PRES_VIS", "trial_index": 248}, "uniqueid": "MTK3281:317HQ483I8ZI8VUZEUQ8DBGE4D3NIA", "dateTime": 1520351141145}, {"current_trial": 249, "trialdata": {"rt": -1, "trial_type": "single-stim", "stimulus": "", "internal_node_id": "0.0-186.0-0.0", "time_elapsed": 1089164, "key_press": -1, "type": "PRE_RECALL_DELAY", "trial_index": 249}, "uniqueid": "MTK3281:317HQ483I8ZI8VUZEUQ8DBGE4D3NIA", "dateTime": 1520351143458}, {"current_trial": 250, "trialdata": {"rt": -1000, "trial_type": "single-audio", "stimulus": "/static/audio/400Hz.wav", "internal_node_id": "0.0-187.0", "time_elapsed": 1089666, "key_press": -1, "type": "PRE_RECALL_ALERT", "trial_index": 250}, "uniqueid": "MTK3281:317HQ483I8ZI8VUZEUQ8DBGE4D3NIA", "dateTime": 1520351143960}, {"current_trial": 251, "trialdata": {"rt": [2810, 5594, 7922, 12393, 13938, 26553], "recwords": ["shark", "dolphin", "terminte", "canyon", "valley", "virus"], "key_times": [1054, 1173, 1338, 1418, 2467, 2810, 3274, 3435, 3627, 3858, 3862, 4194, 4482, 4618, 4866, 5146, 5259, 5594, 5874, 5986, 6074, 6137, 6394, 6554, 6730, 6834, 7922, 8602, 8715, 8874, 9634, 10298, 11818, 12002, 12137, 12393, 12825, 12955, 13082, 13250, 13329, 13506, 13938, 25874, 26018, 26178, 26265, 26377, 26553], "trial_type": "free-recall", "conditions": [24, 800, "v", 12000], "internal_node_id": "0.0-188.0-0.0", "key_presses": [83, 72, 65, 82, 75, 13, 68, 79, 76, 219, 80, 8, 8, 80, 72, 73, 78, 13, 84, 69, 82, 77, 73, 78, 84, 69, 13, 67, 65, 78, 79, 8, 89, 79, 78, 13, 86, 65, 76, 76, 69, 89, 13, 86, 73, 82, 85, 83, 13], "trial": 6, "time_elapsed": 1149672, "type": "FREE_RECALL", "trial_index": 251}, "uniqueid": "MTK3281:317HQ483I8ZI8VUZEUQ8DBGE4D3NIA", "dateTime": 1520351203971}, {"current_trial": 252, "trialdata": {"rt": 1385, "trial_type": "text", "internal_node_id": "0.0-189.0", "time_elapsed": 1153064, "key_press": 32, "type": "INSTRUCTIONS", "trial_index": 252}, "uniqueid": "MTK3281:317HQ483I8ZI8VUZEUQ8DBGE4D3NIA", "dateTime": 1520351207359}, {"current_trial": 253, "trialdata": {"rt": [5123, 8706, 11122], "trial_type": "math-distractor", "key_times": [4698, 4882, 5123, 8211, 8442, 8706, 10658, 10874, 11122], "responses": ["15", "14", "13"], "num2": [8, 6, 6, 3], "num3": [1, 5, 3, 5], "conditions": [24, 1600, "v", 12000], "internal_node_id": "0.0-190.0", "key_presses": [97, 101, 13, 97, 100, 13, 97, 99, 13], "trial": 7, "time_elapsed": 1167069, "type": "DISTRACTOR", "trial_index": 253, "num1": [4, 3, 4, 7]}, "uniqueid": "MTK3281:317HQ483I8ZI8VUZEUQ8DBGE4D3NIA", "dateTime": 1520351221363}, {"current_trial": 254, "trialdata": {"rt": -1, "trial_type": "single-stim", "stimulus": "<p id=\"stim\">10</p>", "internal_node_id": "0.0-191.0-0.0", "time_elapsed": 1170072, "key_press": -1, "trial_index": 254}, "uniqueid": "MTK3281:317HQ483I8ZI8VUZEUQ8DBGE4D3NIA", "dateTime": 1520351224367}, {"current_trial": 255, "trialdata": {"rt": -1, "trial_type": "single-stim", "stimulus": "<p id=\"stim\">9</p>", "internal_node_id": "0.0-191.0-1.0", "time_elapsed": 1171074, "key_press": -1, "trial_index": 255}, "uniqueid": "MTK3281:317HQ483I8ZI8VUZEUQ8DBGE4D3NIA", "dateTime": 1520351225369}, {"current_trial": 256, "trialdata": {"rt": -1, "trial_type": "single-stim", "stimulus": "<p id=\"stim\">8</p>", "internal_node_id": "0.0-191.0-2.0", "time_elapsed": 1172077, "key_press": -1, "trial_index": 256}, "uniqueid": "MTK3281:317HQ483I8ZI8VUZEUQ8DBGE4D3NIA", "dateTime": 1520351226371}, {"current_trial": 257, "trialdata": {"rt": -1, "trial_type": "single-stim", "stimulus": "<p id=\"stim\">7</p>", "internal_node_id": "0.0-191.0-3.0", "time_elapsed": 1173079, "key_press": -1, "trial_index": 257}, "uniqueid": "MTK3281:317HQ483I8ZI8VUZEUQ8DBGE4D3NIA", "dateTime": 1520351227373}, {"current_trial": 258, "trialdata": {"rt": -1, "trial_type": "single-stim", "stimulus": "<p id=\"stim\">6</p>", "internal_node_id": "0.0-191.0-4.0", "time_elapsed": 1174081, "key_press": -1, "trial_index": 258}, "uniqueid": "MTK3281:317HQ483I8ZI8VUZEUQ8DBGE4D3NIA", "dateTime": 1520351228375}, {"current_trial": 259, "trialdata": {"rt": -1, "trial_type": "single-stim", "st