{"assignmentId": "3X0H8UUIT2VXP369B7B9DWZS66YSWP", "workerId": "MTK3648", "questiondata": {"origin": "United States", "strat-rehearsal": "78", "marital": "Married/Domestic Partnership", "education": "Master's degree", "ethnicity": "Not Hispanic", "color_depth": 24, "distracted": "No", "wrote-notes": "Yes", "strat-other": "pretending to type them so i could try to stick them in my muscle memory\ngrouping words with the same letters or sounds (i had a batch of \"p\" words, also a few that had \"sh\" sounds somewhere in the middle)", "screen_width": 1440, "avail_screen_width": 1440, "avail_screen_height": 877, "strat-image": "73", "language": "English", "gender": "Female", "age": "31", "gender_other": "", "race": ["White"], "strat-categorize": "92", "pixel_depth": 24, "strat-spatial": "3", "strat-story": "73", "race_other": "", "screen_height": 900}, "bonus": 0, "hitId": "3FCO4VKOZ4KF2L2WC2EQ7F0CRAEE7I", "counterbalance": 156, "useragent": "Mozilla/5.0 (Macintosh; Intel Mac OS X 10_11_6) AppleWebKit/537.36 (KHTML, like Gecko) Chrome/64.0.3282.186 Safari/537.36", "eventdata": [{"eventtype": "initialized", "interval": 0, "value": null, "timestamp": 1520876887554}, {"eventtype": "window_resize", "interval": 0, "value": [1440, 751], "timestamp": 1520876887554}], "data": [{"current_trial": 0, "trialdata": {"rt": 1496, "trial_type": "text", "internal_node_id": "0.0-0.0", "time_elapsed": 1497, "key_press": 32, "type": "INSTRUCTIONS", "trial_index": 0}, "uniqueid": "MTK3648:3X0H8UUIT2VXP369B7B9DWZS66YSWP", "dateTime": 1520876889367}, {"current_trial": 1, "trialdata": {"rt": 34131, "trial_type": "text", "internal_node_id": "0.0-1.0", "time_elapsed": 35630, "key_press": 32, "type": "INSTRUCTIONS", "trial_index": 1}, "uniqueid": "MTK3648:3X0H8UUIT2VXP369B7B9DWZS66YSWP", "dateTime": 1520876923499}, {"current_trial": 2, "trialdata": {"rt": [7968], "trial_type": "audio-test", "responses": ["ocean"], "internal_node_id": "0.0-2.0", "time_elapsed": 43610, "type": "AUDIO_TEST", "trial_index": 2}, "uniqueid": "MTK3648:3X0H8UUIT2VXP369B7B9DWZS66YSWP", "dateTime": 1520876931479}, {"current_trial": 3, "trialdata": {"rt": [5218], "trial_type": "audio-test", "responses": ["crystal"], "internal_node_id": "0.0-3.0", "time_elapsed": 48834, "type": "AUDIO_TEST", "trial_index": 3}, "uniqueid": "MTK3648:3X0H8UUIT2VXP369B7B9DWZS66YSWP", "dateTime": 1520876936703}, {"current_trial": 4, "trialdata": {"rt": [3564], "trial_type": "audio-test", "responses": ["spice"], "internal_node_id": "0.0-4.0", "time_elapsed": 52400, "type": "AUDIO_TEST", "trial_index": 4}, "uniqueid": "MTK3648:3X0H8UUIT2VXP369B7B9DWZS66YSWP", "dateTime": 1520876940270}, {"current_trial": 5, "trialdata": {"rt": 14286, "trial_type": "survey-text", "responses": "{\"Q0\":\"11:30\",\"Q1\":\"8:50\",\"Q2\":\"4\"}", "internal_node_id": "0.0-5.0", "time_elapsed": 67443, "type": "SLEEP_SURVEY", "trial_index": 5}, "uniqueid": "MTK3648:3X0H8UUIT2VXP369B7B9DWZS66YSWP", "dateTime": 1520876955312}, {"current_trial": 6, "trialdata": {"rt": 15033, "trial_type": "text", "internal_node_id": "0.0-6.0", "time_elapsed": 83482, "key_press": 91, "type": "INSTRUCTIONS", "trial_index": 6}, "uniqueid": "MTK3648:3X0H8UUIT2VXP369B7B9DWZS66YSWP", "dateTime": 1520876971352}, {"current_trial": 7, "trialdata": {"rt": 17311, "trial_type": "text", "internal_node_id": "0.0-7.0", "time_elapsed": 101299, "key_press": 74, "type": "INSTRUCTIONS", "trial_index": 7}, "uniqueid": "MTK3648:3X0H8UUIT2VXP369B7B9DWZS66YSWP", "dateTime": 1520876989168}, {"current_trial": 8, "trialdata": {"rt": 6329, "trial_type": "text", "internal_node_id": "0.0-8.0", "time_elapsed": 108131, "key_press": 74, "type": "INSTRUCTIONS", "trial_index": 8}, "uniqueid": "MTK3648:3X0H8UUIT2VXP369B7B9DWZS66YSWP", "dateTime": 1520876996000}, {"current_trial": 9, "trialdata": {"rt": [2912, 5951, 9679], "trial_type": "math-distractor", "key_times": [2516, 2912, 4911, 5951, 9367, 9447, 9679], "responses": ["8", "8", "20"], "num2": [3, 2, 7, 6], "num3": [3, 1, 4, 7], "conditions": [18, 1200, "v", 18000], "internal_node_id": "0.0-9.0", "key_presses": [56, 13, 56, 13, 50, 48, 13], "trial": 0, "time_elapsed": 127146, "type": "DISTRACTOR", "trial_index": 9, "num1": [2, 5, 9, 8]}, "uniqueid": "MTK3648:3X0H8UUIT2VXP369B7B9DWZS66YSWP", "dateTime": 1520877015015}, {"current_trial": 10, "trialdata": {"rt": -1, "trial_type": "single-stim", "stimulus": "<p id=\"stim\">10</p>", "internal_node_id": "0.0-10.0-0.0", "time_elapsed": 130153, "key_press": -1, "trial_index": 10}, "uniqueid": "MTK3648:3X0H8UUIT2VXP369B7B9DWZS66YSWP", "dateTime": 1520877018022}, {"current_trial": 11, "trialdata": {"rt": -1, "trial_type": "single-stim", "stimulus": "<p id=\"stim\">9</p>", "internal_node_id": "0.0-10.0-1.0", "time_elapsed": 131157, "key_press": -1, "trial_index": 11}, "uniqueid": "MTK3648:3X0H8UUIT2VXP369B7B9DWZS66YSWP", "dateTime": 1520877019026}, {"current_trial": 12, "trialdata": {"rt": -1, "trial_type": "single-stim", "stimulus": "<p id=\"stim\">8</p>", "internal_node_id": "0.0-10.0-2.0", "time_elapsed": 132163, "key_press": -1, "trial_index": 12}, "uniqueid": "MTK3648:3X0H8UUIT2VXP369B7B9DWZS66YSWP", "dateTime": 1520877020032}, {"current_trial": 13, "trialdata": {"rt": -1, "trial_type": "single-stim", "stimulus": "<p id=\"stim\">7</p>", "internal_node_id": "0.0-10.0-3.0", "time_elapsed": 133168, "key_press": -1, "trial_index": 13}, "uniqueid": "MTK3648:3X0H8UUIT2VXP369B7B9DWZS66YSWP", "dateTime": 1520877021037}, {"current_trial": 14, "trialdata": {"rt": -1, "trial_type": "single-stim", "stimulus": "<p id=\"stim\">6</p>", "internal_node_id": "0.0-10.0-4.0", "time_elapsed": 134170, "key_press": -1, "trial_index": 14}, "uniqueid": "MTK3648:3X0H8UUIT2VXP369B7B9DWZS66YSWP", "dateTime": 1520877022039}, {"current_trial": 15, "trialdata": {"rt": -1, "trial_type": "single-stim", "stimulus": "<p id=\"stim\">5</p>", "internal_node_id": "0.0-10.0-5.0", "time_elapsed": 135174, "key_press": -1, "trial_index": 15}, "uniqueid": "MTK3648:3X0H8UUIT2VXP369B7B9DWZS66YSWP", "dateTime": 1520877023043}, {"current_trial": 16, "trialdata": {"rt": -1, "trial_type": "single-stim", "stimulus": "<p id=\"stim\">4</p>", "internal_node_id": "0.0-10.0-6.0", "time_elapsed": 136178, "key_press": -1, "trial_index": 16}, "uniqueid": "MTK3648:3X0H8UUIT2VXP369B7B9DWZS66YSWP", "dateTime": 1520877024047}, {"current_trial": 17, "trialdata": {"rt": -1, "trial_type": "single-stim", "stimulus": "<p id=\"stim\">3</p>", "internal_node_id": "0.0-10.0-7.0", "time_elapsed": 137182, "key_press": -1, "trial_index": 17}, "uniqueid": "MTK3648:3X0H8UUIT2VXP369B7B9DWZS66YSWP", "dateTime": 1520877025052}, {"current_trial": 18, "trialdata": {"rt": -1, "trial_type": "single-stim", "stimulus": "<p id=\"stim\">2</p>", "internal_node_id": "0.0-10.0-8.0", "time_elapsed": 138188, "key_press": -1, "trial_index": 18}, "uniqueid": "MTK3648:3X0H8UUIT2VXP369B7B9DWZS66YSWP", "dateTime": 1520877026057}, {"current_trial": 19, "trialdata": {"rt": -1, "trial_type": "single-stim", "stimulus": "<p id=\"stim\">1</p>", "internal_node_id": "0.0-10.0-9.0", "time_elapsed": 139193, "key_press": -1, "trial_index": 19}, "uniqueid": "MTK3648:3X0H8UUIT2VXP369B7B9DWZS66YSWP", "dateTime": 1520877027062}, {"current_trial": 20, "trialdata": {"rt": -1, "trial_type": "single-stim", "stimulus": "<p id=\"stim\">+</p>", "internal_node_id": "0.0-11.0-0.0", "time_elapsed": 140698, "key_press": -1, "type": "FIXATION", "trial_index": 20}, "uniqueid": "MTK3648:3X0H8UUIT2VXP369B7B9DWZS66YSWP", "dateTime": 1520877028567}, {"current_trial": 21, "trialdata": {"rt": -1, "trial_type": "single-stim", "word": "lion", "stimulus": "<p id=\"stim\">LION</p>", "conditions": [18, 1200, "v", 18000], "internal_node_id": "0.0-12.0", "trial": 0, "time_elapsed": 141900, "serialpos": 0, "key_press": -1, "wordID": 826, "type": "PRES_VIS", "trial_index": 21}, "uniqueid": "MTK3648:3X0H8UUIT2VXP369B7B9DWZS66YSWP", "dateTime": 1520877029770}, {"current_trial": 22, "trialdata": {"rt": -1, "trial_type": "single-stim", "word": "lady", "stimulus": "<p id=\"stim\">LADY</p>", "conditions": [18, 1200, "v", 18000], "internal_node_id": "0.0-13.0", "trial": 0, "time_elapsed": 143915, "serialpos": 1, "key_press": -1, "wordID": 793, "type": "PRES_VIS", "trial_index": 22}, "uniqueid": "MTK3648:3X0H8UUIT2VXP369B7B9DWZS66YSWP", "dateTime": 1520877031784}, {"current_trial": 23, "trialdata": {"rt": -1, "trial_type": "single-stim", "word": "cousin", "stimulus": "<p id=\"stim\">COUSIN</p>", "conditions": [18, 1200, "v", 18000], "internal_node_id": "0.0-14.0", "trial": 0, "time_elapsed": 145969, "serialpos": 2, "key_press": -1, "wordID": 391, "type": "PRES_VIS", "trial_index": 23}, "uniqueid": "MTK3648:3X0H8UUIT2VXP369B7B9DWZS66YSWP", "dateTime": 1520877033838}, {"current_trial": 24, "trialdata": {"rt": -1, "trial_type": "single-stim", "word": "spool", "stimulus": "<p id=\"stim\">SPOOL</p>", "conditions": [18, 1200, "v", 18000], "internal_node_id": "0.0-15.0", "trial": 0, "time_elapsed": 148198, "serialpos": 3, "key_press": -1, "wordID": 1355, "type": "PRES_VIS", "trial_index": 24}, "uniqueid": "MTK3648:3X0H8UUIT2VXP369B7B9DWZS66YSWP", "dateTime": 1520877036067}, {"current_trial": 25, "trialdata": {"rt": -1, "trial_type": "single-stim", "word": "costume", "stimulus": "<p id=\"stim\">COSTUME</p>", "conditions": [18, 1200, "v", 18000], "internal_node_id": "0.0-16.0", "trial": 0, "time_elapsed": 150528, "serialpos": 4, "key_press": -1, "wordID": 382, "type": "PRES_VIS", "trial_index": 25}, "uniqueid": "MTK3648:3X0H8UUIT2VXP369B7B9DWZS66YSWP", "dateTime": 1520877038397}, {"current_trial": 26, "trialdata": {"rt": -1, "trial_type": "single-stim", "word": "crown", "stimulus": "<p id=\"stim\">CROWN</p>", "conditions": [18, 1200, "v", 18000], "internal_node_id": "0.0-17.0", "trial": 0, "time_elapsed": 152551, "serialpos": 5, "key_press": -1, "wordID": 414, "type": "PRES_VIS", "trial_index": 26}, "uniqueid": "MTK3648:3X0H8UUIT2VXP369B7B9DWZS66YSWP", "dateTime": 1520877040421}, {"current_trial": 27, "trialdata": {"rt": -1, "trial_type": "single-stim", "word": "widow", "stimulus": "<p id=\"stim\">WIDOW</p>", "conditions": [18, 1200, "v", 18000], "internal_node_id": "0.0-18.0", "trial": 0, "time_elapsed": 154896, "serialpos": 6, "key_press": -1, "wordID": 1607, "type": "PRES_VIS", "trial_index": 27}, "uniqueid": "MTK3648:3X0H8UUIT2VXP369B7B9DWZS66YSWP", "dateTime": 1520877042766}, {"current_trial": 28, "trialdata": {"rt": -1, "trial_type": "single-stim", "word": "salad", "stimulus": "<p id=\"stim\">SALAD</p>", "conditions": [18, 1200, "v", 18000], "internal_node_id": "0.0-19.0", "trial": 0, "time_elapsed": 157145, "serialpos": 7, "key_press": -1, "wordID": 1223, "type": "PRES_VIS", "trial_index": 28}, "uniqueid": "MTK3648:3X0H8UUIT2VXP369B7B9DWZS66YSWP", "dateTime": 1520877045014}, {"current_trial": 29, "trialdata": {"rt": -1, "trial_type": "single-stim", "word": "waiter", "stimulus": "<p id=\"stim\">WAITER</p>", "conditions": [18, 1200, "v", 18000], "internal_node_id": "0.0-20.0", "trial": 0, "time_elapsed": 159310, "serialpos": 8, "key_press": -1, "wordID": 1579, "type": "PRES_VIS", "trial_index": 29}, "uniqueid": "MTK3648:3X0H8UUIT2VXP369B7B9DWZS66YSWP", "dateTime": 1520877047179}, {"current_trial": 30, "trialdata": {"rt": -1, "trial_type": "single-stim", "word": "slope", "stimulus": "<p id=\"stim\">SLOPE</p>", "conditions": [18, 1200, "v", 18000], "internal_node_id": "0.0-21.0", "trial": 0, "time_elapsed": 161372, "serialpos": 9, "key_press": -1, "wordID": 1327, "type": "PRES_VIS", "trial_index": 30}, "uniqueid": "MTK3648:3X0H8UUIT2VXP369B7B9DWZS66YSWP", "dateTime": 1520877049241}, {"current_trial": 31, "trialdata": {"rt": -1, "trial_type": "single-stim", "word": "carrot", "stimulus": "<p id=\"stim\">CARROT</p>", "conditions": [18, 1200, "v", 18000], "internal_node_id": "0.0-22.0", "trial": 0, "time_elapsed": 163504, "serialpos": 10, "key_press": -1, "wordID": 248, "type": "PRES_VIS", "trial_index": 31}, "uniqueid": "MTK3648:3X0H8UUIT2VXP369B7B9DWZS66YSWP", "dateTime": 1520877051373}, {"current_trial": 32, "trialdata": {"rt": -1, "trial_type": "single-stim", "word": "possum", "stimulus": "<p id=\"stim\">POSSUM</p>", "conditions": [18, 1200, "v", 18000], "internal_node_id": "0.0-23.0", "trial": 0, "time_elapsed": 165657, "serialpos": 11, "key_press": -1, "wordID": 1111, "type": "PRES_VIS", "trial_index": 32}, "uniqueid": "MTK3648:3X0H8UUIT2VXP369B7B9DWZS66YSWP", "dateTime": 1520877053526}, {"current_trial": 33, "trialdata": {"rt": -1, "trial_type": "single-stim", "word": "liver", "stimulus": "<p id=\"stim\">LIVER</p>", "conditions": [18, 1200, "v", 18000], "internal_node_id": "0.0-24.0", "trial": 0, "time_elapsed": 167692, "serialpos": 12, "key_press": -1, "wordID": 832, "type": "PRES_VIS", "trial_index": 33}, "uniqueid": "MTK3648:3X0H8UUIT2VXP369B7B9DWZS66YSWP", "dateTime": 1520877055561}, {"current_trial": 34, "trialdata": {"rt": -1, "trial_type": "single-stim", "word": "kidney", "stimulus": "<p id=\"stim\">KIDNEY</p>", "conditions": [18, 1200, "v", 18000], "internal_node_id": "0.0-25.0", "trial": 0, "time_elapsed": 169752, "serialpos": 13, "key_press": -1, "wordID": 775, "type": "PRES_VIS", "trial_index": 34}, "uniqueid": "MTK3648:3X0H8UUIT2VXP369B7B9DWZS66YSWP", "dateTime": 1520877057623}, {"current_trial": 35, "trialdata": {"rt": -1, "trial_type": "single-stim", "word": "cashier", "stimulus": "<p id=\"stim\">CASHIER</p>", "conditions": [18, 1200, "v", 18000], "internal_node_id": "0.0-26.0", "trial": 0, "time_elapsed": 171818, "serialpos": 14, "key_press": -1, "wordID": 253, "type": "PRES_VIS", "trial_index": 35}, "uniqueid": "MTK3648:3X0H8UUIT2VXP369B7B9DWZS66YSWP", "dateTime": 1520877059687}, {"current_trial": 36, "trialdata": {"rt": -1, "trial_type": "single-stim", "word": "washer", "stimulus": "<p id=\"stim\">WASHER</p>", "conditions": [18, 1200, "v", 18000], "internal_node_id": "0.0-27.0", "trial": 0, "time_elapsed": 174096, "serialpos": 15, "key_press": -1, "wordID": 1591, "type": "PRES_VIS", "trial_index": 36}, "uniqueid": "MTK3648:3X0H8UUIT2VXP369B7B9DWZS66YSWP", "dateTime": 1520877061965}, {"current_trial": 37, "trialdata": {"rt": -1, "trial_type": "single-stim", "word": "receipt", "stimulus": "<p id=\"stim\">RECEIPT</p>", "conditions": [18, 1200, "v", 18000], "internal_node_id": "0.0-28.0", "trial": 0, "time_elapsed": 176127, "serialpos": 16, "key_press": -1, "wordID": 1172, "type": "PRES_VIS", "trial_index": 37}, "uniqueid": "MTK3648:3X0H8UUIT2VXP369B7B9DWZS66YSWP", "dateTime": 1520877063997}, {"current_trial": 38, "trialdata": {"rt": -1, "trial_type": "single-stim", "word": "notebook", "stimulus": "<p id=\"stim\">NOTEBOOK</p>", "conditions": [18, 1200, "v", 18000], "internal_node_id": "0.0-29.0", "trial": 0, "time_elapsed": 178391, "serialpos": 17, "key_press": -1, "wordID": 958, "type": "PRES_VIS", "trial_index": 38}, "uniqueid": "MTK3648:3X0H8UUIT2VXP369B7B9DWZS66YSWP", "dateTime": 1520877066260}, {"current_trial": 39, "trialdata": {"rt": -1, "trial_type": "single-stim", "stimulus": "", "internal_node_id": "0.0-30.0-0.0", "time_elapsed": 180673, "key_press": -1, "type": "PRE_RECALL_DELAY", "trial_index": 39}, "uniqueid": "MTK3648:3X0H8UUIT2VXP369B7B9DWZS66YSWP", "dateTime": 1520877068543}, {"current_trial": 40, "trialdata": {"rt": -1000, "trial_type": "single-audio", "stimulus": "/static/audio/400Hz.wav", "internal_node_id": "0.0-31.0", "time_elapsed": 181176, "key_press": -1, "type": "PRE_RECALL_ALERT", "trial_index": 40}, "uniqueid": "MTK3648:3X0H8UUIT2VXP369B7B9DWZS66YSWP", "dateTime": 1520877069045}, {"current_trial": 41, "trialdata": {"rt": [3738, 4857, 9098, 10449, 11674, 17021, 30281, 31201, 32968], "recwords": ["notebook", "cashier", "washer", "waiter", "salad", "spool", "lion", "lady", "crown"], "key_times": [2701, 2730, 2819, 2857, 3042, 3090, 3217, 3378, 3738, 4026, 4130, 4297, 4433, 4473, 4586, 4658, 4857, 8066, 8314, 8428, 8490, 8593, 8690, 8761, 8817, 9098, 9649, 9753, 9890, 9986, 10090, 10186, 10449, 10745, 10817, 10930, 11017, 11090, 11674, 16216, 16261, 16428, 16548, 16732, 17021, 29556, 29760, 29816, 29985, 30281, 30601, 30680, 30752, 30856, 31201, 32064, 32265, 32329, 32472, 32480, 32968], "trial_type": "free-recall", "conditions": [18, 1200, "v", 18000], "internal_node_id": "0.0-32.0-0.0", "key_presses": [78, 79, 84, 69, 66, 79, 79, 75, 13, 67, 65, 83, 72, 73, 69, 82, 13, 67, 8, 87, 65, 83, 72, 69, 82, 13, 87, 65, 73, 84, 69, 82, 13, 83, 65, 76, 65, 68, 13, 83, 80, 79, 79, 76, 13, 76, 73, 79, 78, 13, 76, 65, 68, 89, 13, 67, 82, 79, 87, 78, 13], "trial": 0, "time_elapsed": 241185, "type": "FREE_RECALL", "trial_index": 41}, "uniqueid": "MTK3648:3X0H8UUIT2VXP369B7B9DWZS66YSWP", "dateTime": 1520877129055}, {"current_trial": 42, "trialdata": {"rt": 1486, "trial_type": "text", "internal_node_id": "0.0-33.0", "time_elapsed": 244677, "key_press": 72, "type": "INSTRUCTIONS", "trial_index": 42}, "uniqueid": "MTK3648:3X0H8UUIT2VXP369B7B9DWZS66YSWP", "dateTime": 1520877132546}, {"current_trial": 43, "trialdata": {"rt": [2625, 6516, 8668, 10756, 12988], "trial_type": "math-distractor", "key_times": [2274, 2625, 6220, 6324, 6516, 8319, 8404, 8668, 10547, 10588, 10756, 12715, 12868, 12988, 17974], "responses": ["9", "15", "10", "13", "11"], "num2": [1, 2, 4, 6, 7, 7], "num3": [5, 7, 1, 6, 1, 8], "conditions": [18, 1200, "v", 18000], "internal_node_id": "0.0-34.0", "key_presses": [57, 13, 49, 53, 13, 49, 48, 13, 49, 51, 13, 49, 49, 13, 49], "trial": 1, "time_elapsed": 264681, "type": "DISTRACTOR", "trial_index": 43, "num1": [3, 6, 5, 1, 3, 4]}, "uniqueid": "MTK3648:3X0H8UUIT2VXP369B7B9DWZS66YSWP", "dateTime": 1520877152550}, {"current_trial": 44, "trialdata": {"rt": -1, "trial_type": "single-stim", "stimulus": "<p id=\"stim\">10</p>", "internal_node_id": "0.0-35.0-0.0", "time_elapsed": 267685, "key_press": -1, "trial_index": 44}, "uniqueid": "MTK3648:3X0H8UUIT2VXP369B7B9DWZS66YSWP", "dateTime": 1520877155554}, {"current_trial": 45, "trialdata": {"rt": -1, "trial_type": "single-stim", "stimulus": "<p id=\"stim\">9</p>", "internal_node_id": "0.0-35.0-1.0", "time_elapsed": 268687, "key_press": -1, "trial_index": 45}, "uniqueid": "MTK3648:3X0H8UUIT2VXP369B7B9DWZS66YSWP", "dateTime": 1520877156556}, {"current_trial": 46, "trialdata": {"rt": -1, "trial_type": "single-stim", "stimulus": "<p id=\"stim\">8</p>", "internal_node_id": "0.0-35.0-2.0", "time_elapsed": 269691, "key_press": -1, "trial_index": 46}, "uniqueid": "MTK3648:3X0H8UUIT2VXP369B7B9DWZS66YSWP", "dateTime": 1520877157560}, {"current_trial": 47, "trialdata": {"rt": -1, "trial_type": "single-stim", "stimulus": "<p id=\"stim\">7</p>", "internal_node_id": "0.0-35.0-3.0", "time_elapsed": 270696, "key_press": -1, "trial_index": 47}, "uniqueid": "MTK3648:3X0H8UUIT2VXP369B7B9DWZS66YSWP", "dateTime": 1520877158565}, {"current_trial": 48, "trialdata": {"rt": -1, "trial_type": "single-stim", "stimulus": "<p id=\"stim\">6</p>", "internal_node_id": "0.0-35.0-4.0", "time_elapsed": 271698, "key_press": -1, "trial_index": 48}, "uniqueid": "MTK3648:3X0H8UUIT2VXP369B7B9DWZS66YSWP", "dateTime": 1520877159567}, {"current_trial": 49, "trialdata": {"rt": -1, "trial_type": "single-stim", "stimulus": "<p id=\"stim\">5</p>", "internal_node_id": "0.0-35.0-5.0", "time_elapsed": 272702, "key_press": -1, "trial_index": 49}, "uniqueid": "MTK3648:3X0H8UUIT2VXP369B7B9DWZS66YSWP", "dateTime": 1520877160571}, {"current_trial": 50, "trialdata": {"rt": -1, "trial_type": "single-stim", "stimulus": "<p id=\"stim\">4</p>", "internal_node_id": "0.0-35.0-6.0", "time_elapsed": 273706, "key_press": -1, "trial_index": 50}, "uniqueid": "MTK3648:3X0H8UUIT2VXP369B7B9DWZS66YSWP", "dateTime": 1520877161575}, {"current_trial": 51, "trialdata": {"rt": -1, "trial_type": "single-stim", "stimulus": "<p id=\"stim\">3</p>", "internal_node_id": "0.0-35.0-7.0", "time_elapsed": 274711, "key_press": -1, "trial_index": 51}, "uniqueid": "MTK3648:3X0H8UUIT2VXP369B7B9DWZS66YSWP", "dateTime": 1520877162580}, {"current_trial": 52, "trialdata": {"rt": -1, "trial_type": "single-stim", "stimulus": "<p id=\"stim\">2</p>", "internal_node_id": "0.0-35.0-8.0", "time_elapsed": 275714, "key_press": -1, "trial_index": 52}, "uniqueid": "MTK3648:3X0H8UUIT2VXP369B7B9DWZS66YSWP", "dateTime": 1520877163583}, {"current_trial": 53, "trialdata": {"rt": -1, "trial_type": "single-stim", "stimulus": "<p id=\"stim\">1</p>", "internal_node_id": "0.0-35.0-9.0", "time_elapsed": 276718, "key_press": -1, "trial_index": 53}, "uniqueid": "MTK3648:3X0H8UUIT2VXP369B7B9DWZS66YSWP", "dateTime": 1520877164588}, {"current_trial": 54, "trialdata": {"rt": -1, "trial_type": "single-stim", "stimulus": "<p id=\"stim\">+</p>", "internal_node_id": "0.0-36.0-0.0", "time_elapsed": 278222, "key_press": -1, "type": "FIXATION", "trial_index": 54}, "uniqueid": "MTK3648:3X0H8UUIT2VXP369B7B9DWZS66YSWP", "dateTime": 1520877166091}, {"current_trial": 55, "trialdata": {"rt": -1, "trial_type": "single-stim", "word": "crater", "stimulus": "<p id=\"stim\">CRATER</p>", "conditions": [18, 1200, "v", 18000], "internal_node_id": "0.0-37.0", "trial": 1, "time_elapsed": 279427, "serialpos": 0, "key_press": -1, "wordID": 399, "type": "PRES_VIS", "trial_index": 55}, "uniqueid": "MTK3648:3X0H8UUIT2VXP369B7B9DWZS66YSWP", "dateTime": 1520877167296}, {"current_trial": 56, "trialdata": {"rt": -1, "trial_type": "single-stim", "word": "pastry", "stimulus": "<p id=\"stim\">PASTRY</p>", "conditions": [18, 1200, "v", 18000], "internal_node_id": "0.0-38.0", "trial": 1, "time_elapsed": 281704, "serialpos": 1, "key_press": -1, "wordID": 1021, "type": "PRES_VIS", "trial_index": 56}, "uniqueid": "MTK3648:3X0H8UUIT2VXP369B7B9DWZS66YSWP", "dateTime": 1520877169573}, {"current_trial": 57, "trialdata": {"rt": -1, "trial_type": "single-stim", "word": "globe", "stimulus": "<p id=\"stim\">GLOBE</p>", "conditions": [18, 1200, "v", 18000], "internal_node_id": "0.0-39.0", "trial": 1, "time_elapsed": 284032, "serialpos": 2, "key_press": -1, "wordID": 640, "type": "PRES_VIS", "trial_index": 57}, "uniqueid": "MTK3648:3X0H8UUIT2VXP369B7B9DWZS66YSWP", "dateTime": 1520877171901}, {"current_trial": 58, "trialdata": {"rt": -1, "trial_type": "single-stim", "word": "tart", "stimulus": "<p id=\"stim\">TART</p>", "conditions": [18, 1200, "v", 18000], "internal_node_id": "0.0-40.0", "trial": 1, "time_elapsed": 286335, "serialpos": 3, "key_press": -1, "wordID": 1435, "type": "PRES_VIS", "trial_index": 58}, "uniqueid": "MTK3648:3X0H8UUIT2VXP369B7B9DWZS66YSWP", "dateTime": 1520877174204}, {"current_trial": 59, "trialdata": {"rt": -1, "trial_type": "single-stim", "word": "jelly", "stimulus": "<p id=\"stim\">JELLY</p>", "conditions": [18, 1200, "v", 18000], "internal_node_id": "0.0-41.0", "trial": 1, "time_elapsed": 288617, "serialpos": 4, "key_press": -1, "wordID": 754, "type": "PRES_VIS", "trial_index": 59}, "uniqueid": "MTK3648:3X0H8UUIT2VXP369B7B9DWZS66YSWP", "dateTime": 1520877176486}, {"current_trial": 60, "trialdata": {"rt": -1, "trial_type": "single-stim", "word": "sister", "stimulus": "<p id=\"stim\">SISTER</p>", "conditions": [18, 1200, "v", 18000], "internal_node_id": "0.0-42.0", "trial": 1, "time_elapsed": 290985, "serialpos": 5, "key_press": -1, "wordID": 1311, "type": "PRES_VIS", "trial_index": 60}, "uniqueid": "MTK3648:3X0H8UUIT2VXP369B7B9DWZS66YSWP", "dateTime": 1520877178854}, {"current_trial": 61, "trialdata": {"rt": -1, "trial_type": "single-stim", "word": "trench", "stimulus": "<p id=\"stim\">TRENCH</p>", "conditions": [18, 1200, "v", 18000], "internal_node_id": "0.0-43.0", "trial": 1, "time_elapsed": 293159, "serialpos": 6, "key_press": -1, "wordID": 1502, "type": "PRES_VIS", "trial_index": 61}, "uniqueid": "MTK3648:3X0H8UUIT2VXP369B7B9DWZS66YSWP", "dateTime": 1520877181028}, {"current_trial": 62, "trialdata": {"rt": -1, "trial_type": "single-stim", "word": "journal", "stimulus": "<p id=\"stim\">JOURNAL</p>", "conditions": [18, 1200, "v", 18000], "internal_node_id": "0.0-44.0", "trial": 1, "time_elapsed": 295437, "serialpos": 7, "key_press": -1, "wordID": 759, "type": "PRES_VIS", "trial_index": 62}, "uniqueid": "MTK3648:3X0H8UUIT2VXP369B7B9DWZS66YSWP", "dateTime": 1520877183306}, {"current_trial": 63, "trialdata": {"rt": -1, "trial_type": "single-stim", "word": "scalpel", "stimulus": "<p id=\"stim\">SCALPEL</p>", "conditions": [18, 1200, "v", 18000], "internal_node_id": "0.0-45.0", "trial": 1, "time_elapsed": 297718, "serialpos": 8, "key_press": -1, "wordID": 1242, "type": "PRES_VIS", "trial_index": 63}, "uniqueid": "MTK3648:3X0H8UUIT2VXP369B7B9DWZS66YSWP", "dateTime": 1520877185587}, {"current_trial": 64, "trialdata": {"rt": -1, "trial_type": "single-stim", "word": "shovel", "stimulus": "<p id=\"stim\">SHOVEL</p>", "conditions": [18, 1200, "v", 18000], "internal_node_id": "0.0-46.0", "trial": 1, "time_elapsed": 300080, "serialpos": 9, "key_press": -1, "wordID": 1294, "type": "PRES_VIS", "trial_index": 64}, "uniqueid": "MTK3648:3X0H8UUIT2VXP369B7B9DWZS66YSWP", "dateTime": 1520877187949}, {"current_trial": 65, "trialdata": {"rt": -1, "trial_type": "single-stim", "word": "dime", "stimulus": "<p id=\"stim\">DIME</p>", "conditions": [18, 1200, "v", 18000], "internal_node_id": "0.0-47.0", "trial": 1, "time_elapsed": 302202, "serialpos": 10, "key_press": -1, "wordID": 465, "type": "PRES_VIS", "trial_index": 65}, "uniqueid": "MTK3648:3X0H8UUIT2VXP369B7B9DWZS66YSWP", "dateTime": 1520877190072}, {"current_trial": 66, "trialdata": {"rt": -1, "trial_type": "single-stim", "word": "shorts", "stimulus": "<p id=\"stim\">SHORTS</p>", "conditions": [18, 1200, "v", 18000], "internal_node_id": "0.0-48.0", "trial": 1, "time_elapsed": 304515, "serialpos": 11, "key_press": -1, "wordID": 1292, "type": "PRES_VIS", "trial_index": 66}, "uniqueid": "MTK3648:3X0H8UUIT2VXP369B7B9DWZS66YSWP", "dateTime": 1520877192384}, {"current_trial": 67, "trialdata": {"rt": -1, "trial_type": "single-stim", "word": "marsh", "stimulus": "<p id=\"stim\">MARSH</p>", "conditions": [18, 1200, "v", 18000], "internal_node_id": "0.0-49.0", "trial": 1, "time_elapsed": 306753, "serialpos": 12, "key_press": -1, "wordID": 873, "type": "PRES_VIS", "trial_index": 67}, "uniqueid": "MTK3648:3X0H8UUIT2VXP369B7B9DWZS66YSWP", "dateTime": 1520877194622}, {"current_trial": 68, "trialdata": {"rt": -1, "trial_type": "single-stim", "word": "plaid", "stimulus": "<p id=\"stim\">PLAID</p>", "conditions": [18, 1200, "v", 18000], "internal_node_id": "0.0-50.0", "trial": 1, "time_elapsed": 308941, "serialpos": 13, "key_press": -1, "wordID": 1079, "type": "PRES_VIS", "trial_index": 68}, "uniqueid": "MTK3648:3X0H8UUIT2VXP369B7B9DWZS66YSWP", "dateTime": 1520877196811}, {"current_trial": 69, "trialdata": {"rt": -1, "trial_type": "single-stim", "word": "wrist", "stimulus": "<p id=\"stim\">WRIST</p>", "conditions": [18, 1200, "v", 18000], "internal_node_id": "0.0-51.0", "trial": 1, "time_elapsed": 311316, "serialpos": 14, "key_press": -1, "wordID": 1625, "type": "PRES_VIS", "trial_index": 69}, "uniqueid": "MTK3648:3X0H8UUIT2VXP369B7B9DWZS66YSWP", "dateTime": 1520877199185}, {"current_trial": 70, "trialdata": {"rt": -1, "trial_type": "single-stim", "word": "hood", "stimulus": "<p id=\"stim\">HOOD</p>", "conditions": [18, 1200, "v", 18000], "internal_node_id": "0.0-52.0", "trial": 1, "time_elapsed": 313699, "serialpos": 15, "key_press": -1, "wordID": 713, "type": "PRES_VIS", "trial_index": 70}, "uniqueid": "MTK3648:3X0H8UUIT2VXP369B7B9DWZS66YSWP", "dateTime": 1520877201568}, {"current_trial": 71, "trialdata": {"rt": -1, "trial_type": "single-stim", "word": "climber", "stimulus": "<p id=\"stim\">CLIMBER</p>", "conditions": [18, 1200, "v", 18000], "internal_node_id": "0.0-53.0", "trial": 1, "time_elapsed": 315803, "serialpos": 16, "key_press": -1, "wordID": 322, "type": "PRES_VIS", "trial_index": 71}, "uniqueid": "MTK3648:3X0H8UUIT2VXP369B7B9DWZS66YSWP", "dateTime": 1520877203672}, {"current_trial": 72, "trialdata": {"rt": -1, "trial_type": "single-stim", "word": "slide", "stimulus": "<p id=\"stim\">SLIDE</p>", "conditions": [18, 1200, "v", 18000], "internal_node_id": "0.0-54.0", "trial": 1, "time_elapsed": 318059, "serialpos": 17, "key_press": -1, "wordID": 1325, "type": "PRES_VIS", "trial_index": 72}, "uniqueid": "MTK3648:3X0H8UUIT2VXP369B7B9DWZS66YSWP", "dateTime": 1520877205929}, {"current_trial": 73, "trialdata": {"rt": -1, "trial_type": "single-stim", "stimulus": "", "internal_node_id": "0.0-55.0-0.0", "time_elapsed": 320479, "key_press": -1, "type": "PRE_RECALL_DELAY", "trial_index": 73}, "uniqueid": "MTK3648:3X0H8UUIT2VXP369B7B9DWZS66YSWP", "dateTime": 1520877208349}, {"current_trial": 74, "trialdata": {"rt": -1000, "trial_type": "single-audio", "stimulus": "/static/audio/400Hz.wav", "internal_node_id": "0.0-56.0", "time_elapsed": 320981, "key_press": -1, "type": "PRE_RECALL_ALERT", "trial_index": 74}, "uniqueid": "MTK3648:3X0H8UUIT2VXP369B7B9DWZS66YSWP", "dateTime": 1520877208850}, {"current_trial": 75, "trialdata": {"rt": [1897, 2816, 3648, 4456, 5864, 7104, 13439, 16495], "recwords": ["shorts", "marsh", "plaid", "wrist", "hood", "crater", "pastry", "journal"], "key_times": [613, 656, 776, 824, 1104, 1240, 1440, 1512, 1552, 1648, 1897, 2183, 2264, 2384, 2496, 2592, 2816, 3080, 3224, 3304, 3424, 3488, 3648, 3824, 3864, 3968, 4104, 4176, 4456, 4768, 4936, 5080, 5368, 5864, 6352, 6552, 6616, 6730, 6816, 6896, 7104, 11378, 11439, 12031, 12159, 12215, 12343, 13439, 14879, 15384, 15480, 15880, 15975, 16135, 16239, 16495], "trial_type": "free-recall", "conditions": [18, 1200, "v", 18000], "internal_node_id": "0.0-57.0-0.0", "key_presses": [83, 72, 82, 84, 8, 8, 79, 82, 84, 83, 13, 77, 65, 82, 83, 72, 13, 80, 76, 65, 73, 68, 13, 87, 82, 73, 83, 84, 13, 72, 79, 79, 68, 13, 67, 82, 65, 84, 69, 82, 13, 80, 65, 83, 84, 82, 89, 13, 74, 79, 85, 82, 78, 65, 76, 13], "trial": 1, "time_elapsed": 380985, "type": "FREE_RECALL", "trial_index": 75}, "uniqueid": "MTK3648:3X0H8UUIT2VXP369B7B9DWZS66YSWP", "dateTime": 1520877268855}, {"current_trial": 76, "trialdata": {"rt": 2860, "trial_type": "text", "internal_node_id": "0.0-58.0", "time_elapsed": 385852, "key_press": 72, "type": "INSTRUCTIONS", "trial_index": 76}, "uniqueid": "MTK3648:3X0H8UUIT2VXP369B7B9DWZS66YSWP", "dateTime": 1520877273721}, {"current_trial": 77, "trialdata": {"rt": [], "trial_type": "math-distractor", "key_times": [10701, 11050], "responses": [], "num2": [8], "num3": [6], "conditions": [12, 1600, "v", 12000], "internal_node_id": "0.0-59.0", "key_presses": [50, 52], "trial": 2, "time_elapsed": 398860, "type": "DISTRACTOR", "trial_index": 77, "num1": [9]}, "uniqueid": "MTK3648:3X0H8UUIT2VXP369B7B9DWZS66YSWP", "dateTime": 1520877286729}, {"current_trial": 78, "trialdata": {"rt": -1, "trial_type": "single-stim", "stimulus": "<p id=\"stim\">10</p>", "internal_node_id": "0.0-60.0-0.0", "time_elapsed": 401866, "key_press": -1, "trial_index": 78}, "uniqueid": "MTK3648:3X0H8UUIT2VXP369B7B9DWZS66YSWP", "dateTime": 1520877289735}, {"current_trial": 79, "trialdata": {"rt": -1, "trial_type": "single-stim", "stimulus": "<p id=\"stim\">9</p>", "internal_node_id": "0.0-60.0-1.0", "time_elapsed": 402870, "key_press": -1, "trial_index": 79}, "uniqueid": "MTK3648:3X0H8UUIT2VXP369B7B9DWZS66YSWP", "dateTime": 1520877290739}, {"current_trial": 80, "trialdata": {"rt": -1, "trial_type": "single-stim", "stimulus": "<p id=\"stim\">8</p>", "internal_node_id": "0.0-60.0-2.0", "time_elapsed": 403874, "key_press": -1, "trial_index": 80}, "uniqueid": "MTK3648:3X0H8UUIT2VXP369B7B9DWZS66YSWP", "dateTime": 1520877291743}, {"current_trial": 81, "trialdata": {"rt": -1, "trial_type": "single-stim", "stimulus": "<p id=\"stim\">7</p>", "internal_node_id": "0.0-60.0-3.0", "time_elapsed": 404880, "key_press": -1, "trial_index": 81}, "uniqueid": "MTK3648:3X0H8UUIT2VXP369B7B9DWZS66YSWP", "dateTime": 1520877292749}, {"current_trial": 82, "trialdata": {"rt": -1, "trial_type": "single-stim", "stimulus": "<p id=\"stim\">6</p>", "internal_node_id": "0.0-60.0-4.0", "time_elapsed": 405882, "key_press": -1, "trial_index": 82}, "uniqueid": "MTK3648:3X0H8UUIT2VXP369B7B9DWZS66YSWP", "dateTime": 1520877293752}, {"current_trial": 83, "trialdata": {"rt": -1, "trial_type": "single-stim", "stimulus": "<p id=\"stim\">5</p>", "internal_node_id": "0.0-60.0-5.0", "time_elapsed": 406887, "key_press": -1, "trial_index": 83}, "uniqueid": "MTK3648:3X0H8UUIT2VXP369B7B9DWZS66YSWP", "dateTime": 1520877294756}, {"current_trial": 84, "trialdata": {"rt": -1, "trial_type": "single-stim", "stimulus": "<p id=\"stim\">4</p>", "internal_node_id": "0.0-60.0-6.0", "time_elapsed": 407891, "key_press": -1, "trial_index": 84}, "uniqueid": "MTK3648:3X0H8UUIT2VXP369B7B9DWZS66YSWP", "dateTime": 1520877295760}, {"current_trial": 85, "trialdata": {"rt": -1, "trial_type": "single-stim", "stimulus": "<p id=\"stim\">3</p>", "internal_node_id": "0.0-60.0-7.0", "time_elapsed": 408895, "key_press": -1, "trial_index": 85}, "uniqueid": "MTK3648:3X0H8UUIT2VXP369B7B9DWZS66YSWP", "dateTime": 1520877296764}, {"current_trial": 86, "trialdata": {"rt": -1, "trial_type": "single-stim", "stimulus": "<p id=\"stim\">2</p>", "internal_node_id": "0.0-60.0-8.0", "time_elapsed": 409899, "key_press": -1, "trial_index": 86}, "uniqueid": "MTK3648:3X0H8UUIT2VXP369B7B9DWZS66YSWP", "dateTime": 1520877297768}, {"current_trial": 87, "trialdata": {"rt": -1, "trial_type": "single-stim", "stimulus": "<p id=\"stim\">1</p>", "internal_node_id": "0.0-60.0-9.0", "time_elapsed": 410903, "key_press": -1, "trial_index": 87}, "uniqueid": "MTK3648:3X0H8UUIT2VXP369B7B9DWZS66YSWP", "dateTime": 1520877298773}, {"current_trial": 88, "trialdata": {"rt": -1, "trial_type": "single-stim", "stimulus": "<p id=\"stim\">+</p>", "internal_node_id": "0.0-61.0-0.0", "time_elapsed": 412409, "key_press": -1, "type": "FIXATION", "trial_index": 88}, "uniqueid": "MTK3648:3X0H8UUIT2VXP369B7B9DWZS66YSWP", "dateTime": 1520877300278}, {"current_trial": 89, "trialdata": {"rt": -1, "trial_type": "single-stim", "word": "patrol", "stimulus": "<p id=\"stim\">PATROL</p>", "conditions": [12, 1600, "v", 12000], "internal_node_id": "0.0-62.0", "trial": 2, "time_elapsed": 414015, "serialpos": 0, "key_press": -1, "wordID": 1026, "type": "PRES_VIS", "trial_index": 89}, "uniqueid": "MTK3648:3X0H8UUIT2VXP369B7B9DWZS66YSWP", "dateTime": 1520877301884}, {"current_trial": 90, "trialdata": {"rt": -1, "trial_type": "single-stim", "word": "supper", "stimulus": "<p id=\"stim\">SUPPER</p>", "conditions": [12, 1600, "v", 12000], "internal_node_id": "0.0-63.0", "trial": 2, "time_elapsed": 416509, "serialpos": 1, "key_press": -1, "wordID": 1410, "type": "PRES_VIS", "trial_index": 90}, "uniqueid": "MTK3648:3X0H8UUIT2VXP369B7B9DWZS66YSWP", "dateTime": 1520877304379}, {"current_trial": 91, "trialdata": {"rt": -1, "trial_type": "single-stim", "word": "robber", "stimulus": "<p id=\"stim\">ROBBER</p>", "conditions": [12, 1600, "v", 12000], "internal_node_id": "0.0-64.0", "trial": 2, "time_elapsed": 418935, "serialpos": 2, "key_press": -1, "wordID": 1196, "type": "PRES_VIS", "trial_index": 91}, "uniqueid": "MTK3648:3X0H8UUIT2VXP369B7B9DWZS66YSWP", "dateTime": 1520877306804}, {"current_trial": 92, "trialdata": {"rt": -1, "trial_type": "single-stim", "word": "sandwich", "stimulus": "<p id=\"stim\">SANDWICH</p>", "conditions": [12, 1600, "v", 12000], "internal_node_id": "0.0-65.0", "trial": 2, "time_elapsed": 421344, "serialpos": 3, "key_press": -1, "wordID": 1231, "type": "PRES_VIS", "trial_index": 92}, "uniqueid": "MTK3648:3X0H8UUIT2VXP369B7B9DWZS66YSWP", "dateTime": 1520877309213}, {"current_trial": 93, "trialdata": {"rt": -1, "trial_type": "single-stim", "word": "clamp", "stimulus": "<p id=\"stim\">CLAMP</p>", "conditions": [12, 1600, "v", 12000], "internal_node_id": "0.0-66.0", "trial": 2, "time_elapsed": 423845, "serialpos": 4, "key_press": -1, "wordID": 315, "type": "PRES_VIS", "trial_index": 93}, "uniqueid": "MTK3648:3X0H8UUIT2VXP369B7B9DWZS66YSWP", "dateTime": 1520877311714}, {"current_trial": 94, "trialdata": {"rt": -1, "trial_type": "single-stim", "word": "tractor", "stimulus": "<p id=\"stim\">TRACTOR</p>", "conditions": [12, 1600, "v", 12000], "internal_node_id": "0.0-67.0", "trial": 2, "time_elapsed": 426504, "serialpos": 5, "key_press": -1, "wordID": 1492, "type": "PRES_VIS", "trial_index": 94}, "uniqueid": "MTK3648:3X0H8UUIT2VXP369B7B9DWZS66YSWP", "dateTime": 1520877314373}, {"current_trial": 95, "trialdata": {"rt": -1, "trial_type": "single-stim", "word": "iceberg", "stimulus": "<p id=\"stim\">ICEBERG</p>", "conditions": [12, 1600, "v", 12000], "internal_node_id": "0.0-68.0", "trial": 2, "time_elapsed": 429261, "serialpos": 6, "key_press": -1, "wordID": 730, "type": "PRES_VIS", "trial_index": 95}, "uniqueid": "MTK3648:3X0H8UUIT2VXP369B7B9DWZS66YSWP", "dateTime": 1520877317130}, {"current_trial": 96, "trialdata": {"rt": -1, "trial_type": "single-stim", "word": "bathtub", "stimulus": "<p id=\"stim\">BATHTUB</p>", "conditions": [12, 1600, "v", 12000], "internal_node_id": "0.0-69.0", "trial": 2, "time_elapsed": 431885, "serialpos": 7, "key_press": -1, "wordID": 99, "type": "PRES_VIS", "trial_index": 96}, "uniqueid": "MTK3648:3X0H8UUIT2VXP369B7B9DWZS66YSWP", "dateTime": 1520877319754}, {"current_trial": 97, "trialdata": {"rt": -1, "trial_type": "single-stim", "word": "oyster", "stimulus": "<p id=\"stim\">OYSTER</p>", "conditions": [12, 1600, "v", 12000], "internal_node_id": "0.0-70.0", "trial": 2, "time_elapsed": 434427, "serialpos": 8, "key_press": -1, "wordID": 994, "type": "PRES_VIS", "trial_index": 97}, "uniqueid": "MTK3648:3X0H8UUIT2VXP369B7B9DWZS66YSWP", "dateTime": 1520877322296}, {"current_trial": 98, "trialdata": {"rt": -1, "trial_type": "single-stim", "word": "clam", "stimulus": "<p id=\"stim\">CLAM</p>", "conditions": [12, 1600, "v", 12000], "internal_node_id": "0.0-71.0", "trial": 2, "time_elapsed": 437057, "serialpos": 9, "key_press": -1, "wordID": 314, "type": "PRES_VIS", "trial_index": 98}, "uniqueid": "MTK3648:3X0H8UUIT2VXP369B7B9DWZS66YSWP", "dateTime": 1520877324926}, {"current_trial": 99, "trialdata": {"rt": -1, "trial_type": "single-stim", "word": "xerox", "stimulus": "<p id=\"stim\">XEROX</p>", "conditions": [12, 1600, "v", 12000], "internal_node_id": "0.0-72.0", "trial": 2, "time_elapsed": 439676, "serialpos": 10, "key_press": -1, "wordID": 1627, "type": "PRES_VIS", "trial_index": 99}, "uniqueid": "MTK3648:3X0H8UUIT2VXP369B7B9DWZS66YSWP", "dateTime": 1520877327545}, {"current_trial": 100, "trialdata": {"rt": -1, "trial_type": "single-stim", "word": "banquet", "stimulus": "<p id=\"stim\">BANQUET</p>", "conditions": [12, 1600, "v", 12000], "internal_node_id": "0.0-73.0", "trial": 2, "time_elapsed": 442287, "serialpos": 11, "key_press": -1, "wordID": 85, "type": "PRES_VIS", "trial_index": 100}, "uniqueid": "MTK3648:3X0H8UUIT2VXP369B7B9DWZS66YSWP", "dateTime": 1520877330156}, {"current_trial": 101, "trialdata": {"rt": -1, "trial_type": "single-stim", "stimulus": "", "internal_node_id": "0.0-74.0-0.0", "time_elapsed": 444665, "key_press": -1, "type": "PRE_RECALL_DELAY", "trial_index": 101}, "uniqueid": "MTK3648:3X0H8UUIT2VXP369B7B9DWZS66YSWP", "dateTime": 1520877332535}, {"current_trial": 102, "trialdata": {"rt": -1000, "trial_type": "single-audio", "stimulus": "/static/audio/400Hz.wav", "internal_node_id": "0.0-75.0", "time_elapsed": 445166, "key_press": -1, "type": "PRE_RECALL_ALERT", "trial_index": 102}, "uniqueid": "MTK3648:3X0H8UUIT2VXP369B7B9DWZS66YSWP", "dateTime": 1520877333036}, {"current_trial": 103, "trialdata": {"rt": [1517, 2428, 4092, 5108, 6108, 15281], "recwords": ["supper", "patrol", "oyster", "robber", "clam", "sandwich"], "key_times": [888, 932, 1093, 1228, 1317, 1372, 1517, 1748, 1820, 1916, 2044, 2117, 2269, 2428, 2676, 3028, 3220, 3454, 3580, 3685, 3812, 3868, 4092, 4237, 4308, 4421, 4572, 4748, 4804, 5108, 5396, 5509, 5644, 5828, 6108, 14318, 14345, 14529, 14617, 14721, 14761, 14920, 15008, 15281], "trial_type": "free-recall", "conditions": [12, 1600, "v", 12000], "internal_node_id": "0.0-76.0-0.0", "key_presses": [83, 85, 80, 80, 69, 82, 13, 80, 65, 84, 82, 79, 76, 13, 69, 8, 79, 89, 83, 84, 69, 82, 13, 82, 79, 66, 66, 69, 82, 13, 67, 76, 65, 77, 13, 83, 65, 78, 68, 87, 73, 67, 72, 13], "trial": 2, "time_elapsed": 505173, "type": "FREE_RECALL", "trial_index": 103}, "uniqueid": "MTK3648:3X0H8UUIT2VXP369B7B9DWZS66YSWP", "dateTime": 1520877393043}, {"current_trial": 104, "trialdata": {"rt": 1269, "trial_type": "text", "internal_node_id": "0.0-77.0", "time_elapsed": 508445, "key_press": 72, "type": "INSTRUCTIONS", "trial_index": 104}, "uniqueid": "MTK3648:3X0H8UUIT2VXP369B7B9DWZS66YSWP", "dateTime": 1520877396315}, {"current_trial": 105, "trialdata": {"rt": [3951, 5815, 8847, 10526], "trial_type": "math-distractor", "key_times": [3551, 3734, 3951, 5494, 5694, 5815, 8507, 8726, 8847, 10126, 10398, 10526], "responses": ["15", "16", "17", "16"], "num2": [5, 4, 7, 2, 8], "num3": [3, 6, 4, 6, 2], "conditions": [12, 800, "v", 12000], "internal_node_id": "0.0-78.0", "key_presses": [49, 53, 13, 49, 54, 13, 49, 55, 13, 49, 54, 13], "trial": 3, "time_elapsed": 522457, "type": "DISTRACTOR", "trial_index": 105, "num1": [7, 6, 5, 8, 4]}, "uniqueid": "MTK3648:3X0H8UUIT2VXP369B7B9DWZS66YSWP", "dateTime": 1520877410326}, {"current_trial": 106, "trialdata": {"rt": -1, "trial_type": "single-stim", "stimulus": "<p id=\"stim\">10</p>", "internal_node_id": "0.0-79.0-0.0", "time_elapsed": 525464, "key_press": -1, "trial_index": 106}, "uniqueid": "MTK3648:3X0H8UUIT2VXP369B7B9DWZS66YSWP", "dateTime": 1520877413333}, {"current_trial": 107, "trialdata": {"rt": -1, "trial_type": "single-stim", "stimulus": "<p id=\"stim\">9</p>", "internal_node_id": "0.0-79.0-1.0", "time_elapsed": 526469, "key_press": -1, "trial_index": 107}, "uniqueid": "MTK3648:3X0H8UUIT2VXP369B7B9DWZS66YSWP", "dateTime": 1520877414338}, {"current_trial": 108, "trialdata": {"rt": -1, "trial_type": "single-stim", "stimulus": "<p id=\"stim\">8</p>", "internal_node_id": "0.0-79.0-2.0", "time_elapsed": 527472, "key_press": -1, "trial_index": 108}, "uniqueid": "MTK3648:3X0H8UUIT2VXP369B7B9DWZS66YSWP", "dateTime": 1520877415343}, {"current_trial": 109, "trialdata": {"rt": -1, "trial_type": "single-stim", "stimulus": "<p id=\"stim\">7</p>", "internal_node_id": "0.0-79.0-3.0", "time_elapsed": 528478, "key_press": -1, "trial_index": 109}, "uniqueid": "MTK3648:3X0H8UUIT2VXP369B7B9DWZS66YSWP", "dateTime": 1520877416347}, {"current_trial": 110, "trialdata": {"rt": -1, "trial_type": "single-stim", "stimulus": "<p id=\"stim\">6</p>", "internal_node_id": "0.0-79.0-4.0", "time_elapsed": 529481, "key_press": -1, "trial_index": 110}, "uniqueid": "MTK3648:3X0H8UUIT2VXP369B7B9DWZS66YSWP", "dateTime": 1520877417350}, {"current_trial": 111, "trialdata": {"rt": -1, "trial_type": "single-stim", "stimulus": "<p id=\"stim\">5</p>", "internal_node_id": "0.0-79.0-5.0", "time_elapsed": 530485, "key_press": -1, "trial_index": 111}, "uniqueid": "MTK3648:3X0H8UUIT2VXP369B7B9DWZS66YSWP", "dateTime": 1520877418354}, {"current_trial": 112, "trialdata": {"rt": -1, "trial_type": "single-stim", "stimulus": "<p id=\"stim\">4</p>", "internal_node_id": "0.0-79.0-6.0", "time_elapsed": 531489, "key_press": -1, "trial_index": 112}, "uniqueid": "MTK3648:3X0H8UUIT2VXP369B7B9DWZS66YSWP", "dateTime": 1520877419358}, {"current_trial": 113, "trialdata": {"rt": -1, "trial_type": "single-stim", "stimulus": "<p id=\"stim\">3</p>", "internal_node_id": "0.0-79.0-7.0", "time_elapsed": 532493, "key_press": -1, "trial_index": 113}, "uniqueid": "MTK3648:3X0H8UUIT2VXP369B7B9DWZS66YSWP", "dateTime": 1520877420362}, {"current_trial": 114, "trialdata": {"rt": -1, "trial_type": "single-stim", "stimulus": "<p id=\"stim\">2</p>", "internal_node_id": "0.0-79.0-8.0", "time_elapsed": 533499, "key_press": -1, "trial_index": 114}, "uniqueid": "MTK3648:3X0H8UUIT2VXP369B7B9DWZS66YSWP", "dateTime": 1520877421368}, {"current_trial": 115, "trialdata": {"rt": -1, "trial_type": "single-stim", "stimulus": "<p id=\"stim\">1</p>", "internal_node_id": "0.0-79.0-9.0", "time_elapsed": 534501, "key_press": -1, "trial_index": 115}, "uniqueid": "MTK3648:3X0H8UUIT2VXP369B7B9DWZS66YSWP", "dateTime": 1520877422370}, {"current_trial": 116, "trialdata": {"rt": -1, "trial_type": "single-stim", "stimulus": "<p id=\"stim\">+</p>", "internal_node_id": "0.0-80.0-0.0", "time_elapsed": 536006, "key_press": -1, "type": "FIXATION", "trial_index": 116}, "uniqueid": "MTK3648:3X0H8UUIT2VXP369B7B9DWZS66YSWP", "dateTime": 1520877423875}, {"current_trial": 117, "trialdata": {"rt": -1, "trial_type": "single-stim", "word": "temple", "stimulus": "<p id=\"stim\">TEMPLE</p>", "conditions": [12, 800, "v", 12000], "internal_node_id": "0.0-81.0", "trial": 3, "time_elapsed": 536811, "serialpos": 0, "key_press": -1, "wordID": 1447, "type": "PRES_VIS", "trial_index": 117}, "uniqueid": "MTK3648:3X0H8UUIT2VXP369B7B9DWZS66YSWP", "dateTime": 1520877424680}, {"current_trial": 118, "trialdata": {"rt": -1, "trial_type": "single-stim", "word": "missile", "stimulus": "<p id=\"stim\">MISSILE</p>", "conditions": [12, 800, "v", 12000], "internal_node_id": "0.0-82.0", "trial": 3, "time_elapsed": 538789, "serialpos": 1, "key_press": -1, "wordID": 899, "type": "PRES_VIS", "trial_index": 118}, "uniqueid": "MTK3648:3X0H8UUIT2VXP369B7B9DWZS66YSWP", "dateTime": 1520877426658}, {"current_trial": 119, "trialdata": {"rt": -1, "trial_type": "single-stim", "word": "bacon", "stimulus": "<p id=\"stim\">BACON</p>", "conditions": [12, 800, "v", 12000], "internal_node_id": "0.0-83.0", "trial": 3, "time_elapsed": 540702, "serialpos": 2, "key_press": -1, "wordID": 66, "type": "PRES_VIS", "trial_index": 119}, "uniqueid": "MTK3648:3X0H8UUIT2VXP369B7B9DWZS66YSWP", "dateTime": 1520877428572}, {"current_trial": 120, "trialdata": {"rt": -1, "trial_type": "single-stim", "word": "necklace", "stimulus": "<p id=\"stim\">NECKLACE</p>", "conditions": [12, 800, "v", 12000], "internal_node_id": "0.0-84.0", "trial": 3, "time_elapsed": 542609, "serialpos": 3, "key_press": -1, "wordID": 939, "type": "PRES_VIS", "trial_index": 120}, "uniqueid": "MTK3648:3X0H8UUIT2VXP369B7B9DWZS66YSWP", "dateTime": 1520877430478}, {"current_trial": 121, "trialdata": {"rt": -1, "trial_type": "single-stim", "word": "keeper", "stimulus": "<p id=\"stim\">KEEPER</p>", "conditions": [12, 800, "v", 12000], "internal_node_id": "0.0-85.0", "trial": 3, "time_elapsed": 544278, "serialpos": 4, "key_press": -1, "wordID": 768, "type": "PRES_VIS", "trial_index": 121}, "uniqueid": "MTK3648:3X0H8UUIT2VXP369B7B9DWZS66YSWP", "dateTime": 1520877432147}, {"current_trial": 122, "trialdata": {"rt": -1, "trial_type": "single-stim", "word": "marker", "stimulus": "<p id=\"stim\">MARKER</p>", "conditions": [12, 800, "v", 12000], "internal_node_id": "0.0-86.0", "trial": 3, "time_elapsed": 546278, "serialpos": 5, "key_press": -1, "wordID": 869, "type": "PRES_VIS", "trial_index": 122}, "uniqueid": "MTK3648:3X0H8UUIT2VXP369B7B9DWZS66YSWP", "dateTime": 1520877434147}, {"current_trial": 123, "trialdata": {"rt": -1, "trial_type": "single-stim", "word": "lipstick", "stimulus": "<p id=\"stim\">LIPSTICK</p>", "conditions": [12, 800, "v", 12000], "internal_node_id": "0.0-87.0", "trial": 3, "time_elapsed": 548074, "serialpos": 6, "key_press": -1, "wordID": 828, "type": "PRES_VIS", "trial_index": 123}, "uniqueid": "MTK3648:3X0H8UUIT2VXP369B7B9DWZS66YSWP", "dateTime": 1520877435943}, {"current_trial": 124, "trialdata": {"rt": -1, "trial_type": "single-stim", "word": "rocket", "stimulus": "<p id=\"stim\">ROCKET</p>", "conditions": [12, 800, "v", 12000], "internal_node_id": "0.0-88.0", "trial": 3, "time_elapsed": 549928, "serialpos": 7, "key_press": -1, "wordID": 1201, "type": "PRES_VIS", "trial_index": 124}, "uniqueid": "MTK3648:3X0H8UUIT2VXP369B7B9DWZS66YSWP", "dateTime": 1520877437797}, {"current_trial": 125, "trialdata": {"rt": -1, "trial_type": "single-stim", "word": "japan", "stimulus": "<p id=\"stim\">JAPAN</p>", "conditions": [12, 800, "v", 12000], "internal_node_id": "0.0-89.0", "trial": 3, "time_elapsed": 551601, "serialpos": 8, "key_press": -1, "wordID": 748, "type": "PRES_VIS", "trial_index": 125}, "uniqueid": "MTK3648:3X0H8UUIT2VXP369B7B9DWZS66YSWP", "dateTime": 1520877439470}, {"current_trial": 126, "trialdata": {"rt": -1, "trial_type": "single-stim", "word": "france", "stimulus": "<p id=\"stim\">FRANCE</p>", "conditions": [12, 800, "v", 12000], "internal_node_id": "0.0-90.0", "trial": 3, "time_elapsed": 553526, "serialpos": 9, "key_press": -1, "wordID": 600, "type": "PRES_VIS", "trial_index": 126}, "uniqueid": "MTK3648:3X0H8UUIT2VXP369B7B9DWZS66YSWP", "dateTime": 1520877441395}, {"current_trial": 127, "trialdata": {"rt": -1, "trial_type": "single-stim", "word": "hero", "stimulus": "<p id=\"stim\">HERO</p>", "conditions": [12, 800, "v", 12000], "internal_node_id": "0.0-91.0", "trial": 3, "time_elapsed": 555201, "serialpos": 10, "key_press": -1, "wordID": 705, "type": "PRES_VIS", "trial_index": 127}, "uniqueid": "MTK3648:3X0H8UUIT2VXP369B7B9DWZS66YSWP", "dateTime": 1520877443070}, {"current_trial": 128, "trialdata": {"rt": -1, "trial_type": "single-stim", "word": "tutu", "stimulus": "<p id=\"stim\">TUTU</p>", "conditions": [12, 800, "v", 12000], "internal_node_id": "0.0-92.0", "trial": 3, "time_elapsed": 557005, "serialpos": 11, "key_press": -1, "wordID": 1523, "type": "PRES_VIS", "trial_index": 128}, "uniqueid": "MTK3648:3X0H8UUIT2VXP369B7B9DWZS66YSWP", "dateTime": 1520877444875}, {"current_trial": 129, "trialdata": {"rt": -1, "trial_type": "single-stim", "stimulus": "", "internal_node_id": "0.0-93.0-0.0", "time_elapsed": 559280, "key_press": -1, "type": "PRE_RECALL_DELAY", "trial_index": 129}, "uniqueid": "MTK3648:3X0H8UUIT2VXP369B7B9DWZS66YSWP", "dateTime": 1520877447149}, {"current_trial": 130, "trialdata": {"rt": -1000, "trial_type": "single-audio", "stimulus": "/static/audio/400Hz.wav", "internal_node_id": "0.0-94.0", "time_elapsed": 559781, "key_press": -1, "type": "PRE_RECALL_ALERT", "trial_index": 130}, "uniqueid": "MTK3648:3X0H8UUIT2VXP369B7B9DWZS66YSWP", "dateTime": 1520877447650}, {"current_trial": 131, "trialdata": {"rt": [1285, 2204, 2885, 4005, 5237, 24765, 28948], "recwords": ["japan", "france", "hero", "tutu", "marker", "temple", "missile"], "key_times": [579, 636, 717, 821, 900, 1285, 1485, 1637, 1677, 1781, 1877, 1972, 2204, 2509, 2589, 2628, 2708, 2885, 3092, 3148, 3245, 3749, 4005, 4244, 4316, 4373, 4461, 4525, 4589, 5237, 23776, 23820, 24044, 24228, 24381, 24476, 24765, 28045, 28220, 28292, 28420, 28492, 28684, 28748, 28948], "trial_type": "free-recall", "conditions": [12, 800, "v", 12000], "internal_node_id": "0.0-95.0-0.0", "key_presses": [74, 65, 80, 65, 78, 13, 70, 82, 65, 78, 67, 69, 13, 72, 69, 82, 79, 13, 84, 85, 84, 85, 13, 77, 65, 82, 75, 69, 82, 13, 84, 69, 77, 80, 76, 69, 13, 77, 73, 83, 83, 73, 76, 69, 13], "trial": 3, "time_elapsed": 619788, "type": "FREE_RECALL", "trial_index": 131}, "uniqueid": "MTK3648:3X0H8UUIT2VXP369B7B9DWZS66YSWP", "dateTime": 1520877507659}, {"current_trial": 132, "trialdata": {"rt": 2382, "trial_type": "text", "internal_node_id": "0.0-96.0", "time_elapsed": 624179, "key_press": 71, "type": "INSTRUCTIONS", "trial_index": 132}, "uniqueid": "MTK3648:3X0H8UUIT2VXP369B7B9DWZS66YSWP", "dateTime": 1520877512049}, {"current_trial": 133, "trialdata": {"rt": [1824, 4728, 6985, 10065, 12360, 15545, 17513, 20305, 22936], "trial_type": "math-distractor", "key_times": [1488, 1824, 4368, 4504, 4728, 6728, 6864, 6985, 9789, 9856, 10065, 11984, 12105, 12360, 14649, 15009, 15160, 15249, 15545, 17329, 17409, 17513, 19916, 19969, 20305, 22680, 22738, 22936], "responses": ["6", "20", "11", "18", "18", "20", "12", "20", "10"], "num2": [4, 8, 7, 6, 4, 5, 9, 6, 3, 4], "num3": [1, 4, 3, 3, 9, 9, 1, 9, 2, 4], "conditions": [12, 1600, "v", 24000], "internal_node_id": "0.0-97.0", "key_presses": [54, 13, 50, 48, 13, 49, 49, 13, 49, 56, 13, 49, 56, 13, 48, 8, 50, 48, 13, 49, 50, 13, 50, 48, 13, 49, 48, 13], "trial": 4, "time_elapsed": 650190, "type": "DISTRACTOR", "trial_index": 133, "num1": [1, 8, 1, 9, 5, 6, 2, 5, 5, 3]}, "uniqueid": "MTK3648:3X0H8UUIT2VXP369B7B9DWZS66YSWP", "dateTime": 1520877538059}, {"current_trial": 134, "trialdata": {"rt": -1, "trial_type": "single-stim", "stimulus": "<p id=\"stim\">10</p>", "internal_node_id": "0.0-98.0-0.0", "time_elapsed": 653196, "key_press": -1, "trial_index": 134}, "uniqueid": "MTK3648:3X0H8UUIT2VXP369B7B9DWZS66YSWP", "dateTime": 1520877541065}, {"current_trial": 135, "trialdata": {"rt": -1, "trial_type": "single-stim", "stimulus": "<p id=\"stim\">9</p>", "internal_node_id": "0.0-98.0-1.0", "time_elapsed": 654200, "key_press": -1, "trial_index": 135}, "uniqueid": "MTK3648:3X0H8UUIT2VXP369B7B9DWZS66YSWP", "dateTime": 1520877542069}, {"current_trial": 136, "trialdata": {"rt": -1, "trial_type": "single-stim", "stimulus": "<p id=\"stim\">8</p>", "internal_node_id": "0.0-98.0-2.0", "time_elapsed": 655204, "key_press": -1, "trial_index": 136}, "uniqueid": "MTK3648:3X0H8UUIT2VXP369B7B9DWZS66YSWP", "dateTime": 1520877543073}, {"current_trial": 137, "trialdata": {"rt": -1, "trial_type": "single-stim", "stimulus": "<p id=\"stim\">7</p>", "internal_node_id": "0.0-98.0-3.0", "time_elapsed": 656209, "key_press": -1, "trial_index": 137}, "uniqueid": "MTK3648:3X0H8UUIT2VXP369B7B9DWZS66YSWP", "dateTime": 1520877544078}, {"current_trial": 138, "trialdata": {"rt": -1, "trial_type": "single-stim", "stimulus": "<p id=\"stim\">6</p>", "internal_node_id": "0.0-98.0-4.0", "time_elapsed": 657213, "key_press": -1, "trial_index": 138}, "uniqueid": "MTK3648:3X0H8UUIT2VXP369B7B9DWZS66YSWP", "dateTime": 1520877545082}, {"current_trial": 139, "trialdata": {"rt": -1, "trial_type": "single-stim", "stimulus": "<p id=\"stim\">5</p>", "internal_node_id": "0.0-98.0-5.0", "time_elapsed": 658217, "key_press": -1, "trial_index": 139}, "uniqueid": "MTK3648:3X0H8UUIT2VXP369B7B9DWZS66YSWP", "dateTime": 1520877546086}, {"current_trial": 140, "trialdata": {"rt": -1, "trial_type": "single-stim", "stimulus": "<p id=\"stim\">4</p>", "internal_node_id": "0.0-98.0-6.0", "time_elapsed": 659221, "key_press": -1, "trial_index": 140}, "uniqueid": "MTK3648:3X0H8UUIT2VXP369B7B9DWZS66YSWP", "dateTime": 1520877547090}, {"current_trial": 141, "trialdata": {"rt": -1, "trial_type": "single-stim", "stimulus": "<p id=\"stim\">3</p>", "internal_node_id": "0.0-98.0-7.0", "time_elapsed": 660224, "key_press": -1, "trial_index": 141}, "uniqueid": "MTK3648:3X0H8UUIT2VXP369B7B9DWZS66YSWP", "dateTime": 1520877548094}, {"current_trial": 142, "trialdata": {"rt": -1, "trial_type": "single-stim", "stimulus": "<p id=\"stim\">2</p>", "internal_node_id": "0.0-98.0-8.0", "time_elapsed": 661230, "key_press": -1, "trial_index": 142}, "uniqueid": "MTK3648:3X0H8UUIT2VXP369B7B9DWZS66YSWP", "dateTime": 1520877549099}, {"current_trial": 143, "trialdata": {"rt": -1, "trial_type": "single-stim", "stimulus": "<p id=\"stim\">1</p>", "internal_node_id": "0.0-98.0-9.0", "time_elapsed": 662233, "key_press": -1, "trial_index": 143}, "uniqueid": "MTK3648:3X0H8UUIT2VXP369B7B9DWZS66YSWP", "dateTime": 1520877550102}, {"current_trial": 144, "trialdata": {"rt": -1, "trial_type": "single-stim", "stimulus": "<p id=\"stim\">+</p>", "internal_node_id": "0.0-99.0-0.0", "time_elapsed": 663737, "key_press": -1, "type": "FIXATION", "trial_index": 144}, "uniqueid": "MTK3648:3X0H8UUIT2VXP369B7B9DWZS66YSWP", "dateTime": 1520877551606}, {"current_trial": 145, "trialdata": {"rt": -1, "trial_type": "single-stim", "word": "bunny", "stimulus": "<p id=\"stim\">BUNNY</p>", "conditions": [12, 1600, "v", 24000], "internal_node_id": "0.0-100.0", "trial": 4, "time_elapsed": 665342, "serialpos": 0, "key_press": -1, "wordID": 197, "type": "PRES_VIS", "trial_index": 145}, "uniqueid": "MTK3648:3X0H8UUIT2VXP369B7B9DWZS66YSWP", "dateTime": 1520877553211}, {"current_trial": 146, "trialdata": {"rt": -1, "trial_type": "single-stim", "word": "shortcake", "stimulus": "<p id=\"stim\">SHORTCAKE</p>", "conditions": [12, 1600, "v", 24000], "internal_node_id": "0.0-101.0", "trial": 4, "time_elapsed": 668031, "serialpos": 1, "key_press": -1, "wordID": 1291, "type": "PRES_VIS", "trial_index": 146}, "uniqueid": "MTK3648:3X0H8UUIT2VXP369B7B9DWZS66YSWP", "dateTime": 1520877555900}, {"current_trial": 147, "trialdata": {"rt": 718, "trial_type": "single-stim", "word": "waitress", "stimulus": "<p id=\"stim\">WAITRESS</p>", "conditions": [12, 1600, "v", 24000], "internal_node_id": "0.0-102.0", "trial": 4, "time_elapsed": 670725, "serialpos": 2, "key_press": 87, "wordID": 1580, "type": "PRES_VIS", "trial_index": 147}, "uniqueid": "MTK3648:3X0H8UUIT2VXP369B7B9DWZS66YSWP", "dateTime": 1520877558594}, {"current_trial": 148, "trialdata": {"rt": 789, "trial_type": "single-stim", "word": "wardrobe", "stimulus": "<p id=\"stim\">WARDROBE</p>", "conditions": [12, 1600, "v", 24000], "internal_node_id": "0.0-103.0", "trial": 4, "time_elapsed": 673418, "serialpos": 3, "key_press": 65, "wordID": 1586, "type": "PRES_VIS", "trial_index": 148}, "uniqueid": "MTK3648:3X0H8UUIT2VXP369B7B9DWZS66YSWP", "dateTime": 1520877561287}, {"current_trial": 149, "trialdata": {"rt": -1, "trial_type": "single-stim", "word": "queen", "stimulus": "<p id=\"stim\">QUEEN</p>", "conditions": [12, 1600, "v", 24000], "internal_node_id": "0.0-104.0", "trial": 4, "time_elapsed": 675971, "serialpos": 4, "key_press": -1, "wordID": 1148, "type": "PRES_VIS", "trial_index": 149}, "uniqueid": "MTK3648:3X0H8UUIT2VXP369B7B9DWZS66YSWP", "dateTime": 1520877563840}, {"current_trial": 150, "trialdata": {"rt": -1, "trial_type": "single-stim", "word": "barrel", "stimulus": "<p id=\"stim\">BARREL</p>", "conditions": [12, 1600, "v", 24000], "internal_node_id": "0.0-105.0", "trial": 4, "time_elapsed": 678576, "serialpos": 5, "key_press": -1, "wordID": 90, "type": "PRES_VIS", "trial_index": 150}, "uniqueid": "MTK3648:3X0H8UUIT2VXP369B7B9DWZS66YSWP", "dateTime": 1520877566445}, {"current_trial": 151, "trialdata": {"rt": -1, "trial_type": "single-stim", "word": "twig", "stimulus": "<p id=\"stim\">TWIG</p>", "conditions": [12, 1600, "v", 24000], "internal_node_id": "0.0-106.0", "trial": 4, "time_elapsed": 681149, "serialpos": 6, "key_press": -1, "wordID": 1526, "type": "PRES_VIS", "trial_index": 151}, "uniqueid": "MTK3648:3X0H8UUIT2VXP369B7B9DWZS66YSWP", "dateTime": 1520877569018}, {"current_trial": 152, "trialdata": {"rt": -1, "trial_type": "single-stim", "word": "casket", "stimulus": "<p id=\"stim\">CASKET</p>", "conditions": [12, 1600, "v", 24000], "internal_node_id": "0.0-107.0", "trial": 4, "time_elapsed": 683664, "serialpos": 7, "key_press": -1, "wordID": 254, "type": "PRES_VIS", "trial_index": 152}, "uniqueid": "MTK3648:3X0H8UUIT2VXP369B7B9DWZS66YSWP", "dateTime": 1520877571533}, {"current_trial": 153, "trialdata": {"rt": -1, "trial_type": "single-stim", "word": "gallon", "stimulus": "<p id=\"stim\">GALLON</p>", "conditions": [12, 1600, "v", 24000], "internal_node_id": "0.0-108.0", "trial": 4, "time_elapsed": 686100, "serialpos": 8, "key_press": -1, "wordID": 617, "type": "PRES_VIS", "trial_index": 153}, "uniqueid": "MTK3648:3X0H8UUIT2VXP369B7B9DWZS66YSWP", "dateTime": 1520877573969}, {"current_trial": 154, "trialdata": {"rt": -1, "trial_type": "single-stim", "word": "passage", "stimulus": "<p id=\"stim\">PASSAGE</p>", "conditions": [12, 1600, "v", 24000], "internal_node_id": "0.0-109.0", "trial": 4, "time_elapsed": 688891, "serialpos": 9, "key_press": -1, "wordID": 1018, "type": "PRES_VIS", "trial_index": 154}, "uniqueid": "MTK3648:3X0H8UUIT2VXP369B7B9DWZS66YSWP", "dateTime": 1520877576760}, {"current_trial": 155, "trialdata": {"rt": -1, "trial_type": "single-stim", "word": "thief", "stimulus": "<p id=\"stim\">THIEF</p>", "conditions": [12, 1600, "v", 24000], "internal_node_id": "0.0-110.0", "trial": 4, "time_elapsed": 691573, "serialpos": 10, "key_press": -1, "wordID": 1455, "type": "PRES_VIS", "trial_index": 155}, "uniqueid": "MTK3648:3X0H8UUIT2VXP369B7B9DWZS66YSWP", "dateTime": 1520877579442}, {"current_trial": 156, "trialdata": {"rt": -1, "trial_type": "single-stim", "word": "burglar", "stimulus": "<p id=\"stim\">BURGLAR</p>", "conditions": [12, 1600, "v", 24000], "internal_node_id": "0.0-111.0", "trial": 4, "time_elapsed": 694161, "serialpos": 11, "key_press": -1, "wordID": 199, "type": "PRES_VIS", "trial_index": 156}, "uniqueid": "MTK3648:3X0H8UUIT2VXP369B7B9DWZS66YSWP", "dateTime": 1520877582030}, {"current_trial": 157, "trialdata": {"rt": -1, "trial_type": "single-stim", "stimulus": "", "internal_node_id": "0.0-112.0-0.0", "time_elapsed": 696419, "key_press": -1, "type": "PRE_RECALL_DELAY", "trial_index": 157}, "uniqueid": "MTK3648:3X0H8UUIT2VXP369B7B9DWZS66YSWP", "dateTime": 1520877584289}, {"current_trial": 158, "trialdata": {"rt": -1000, "trial_type": "single-audio", "stimulus": "/static/audio/400Hz.wav", "internal_node_id": "0.0-113.0", "time_elapsed": 696921, "key_press": -1, "type": "PRE_RECALL_ALERT", "trial_index": 158}, "uniqueid": "MTK3648:3X0H8UUIT2VXP369B7B9DWZS66YSWP", "dateTime": 1520877584790}, {"current_trial": 159, "trialdata": {"rt": [1515, 3124, 4459, 7732, 15331, 17283], "recwords": ["waitress", "wardrobe", "thief", "burglar", "shortcake", "bunny"], "key_times": [406, 411, 556, 644, 804, 875, 1036, 1171, 1515, 2244, 2304, 2380, 2548, 2652, 2763, 2860, 2964, 3124, 3244, 3340, 3403, 3452, 3564, 4459, 6532, 6636, 6732, 6780, 7363, 7452, 7508, 7732, 14390, 14418, 14538, 14570, 14610, 14842, 14923, 15010, 15114, 15331, 16341, 16418, 16610, 16706, 16954, 17283], "trial_type": "free-recall", "conditions": [12, 1600, "v", 24000], "internal_node_id": "0.0-114.0-0.0", "key_presses": [87, 65, 73, 84, 82, 69, 83, 83, 13, 87, 65, 82, 68, 82, 79, 66, 69, 13, 84, 72, 73, 69, 70, 13, 66, 85, 82, 71, 76, 65, 82, 13, 83, 72, 79, 82, 84, 67, 65, 75, 69, 13, 66, 85, 78, 78, 89, 13], "trial": 4, "time_elapsed": 756926, "type": "FREE_RECALL", "trial_index": 159}, "uniqueid": "MTK3648:3X0H8UUIT2VXP369B7B9DWZS66YSWP", "dateTime": 1520877644797}, {"current_trial": 160, "trialdata": {"rt": 1627, "trial_type": "text", "internal_node_id": "0.0-115.0", "time_elapsed": 760559, "key_press": 70, "type": "INSTRUCTIONS", "trial_index": 160}, "uniqueid": "MTK3648:3X0H8UUIT2VXP369B7B9DWZS66YSWP", "dateTime": 1520877648428}, {"current_trial": 161, "trialdata": {"rt": [2725, 5478, 8662], "trial_type": "math-distractor", "key_times": [2398, 2725, 5158, 5238, 5478, 8178, 8310, 8662], "responses": ["7", "20", "14"], "num2": [1, 4, 3, 9], "num3": [1, 8, 2, 8], "conditions": [12, 1600, "v", 12000], "internal_node_id": "0.0-116.0", "key_presses": [55, 13, 50, 48, 13, 49, 52, 13], "trial": 5, "time_elapsed": 774569, "type": "DISTRACTOR", "trial_index": 161, "num1": [5, 8, 7, 4]}, "uniqueid": "MTK3648:3X0H8UUIT2VXP369B7B9DWZS66YSWP", "dateTime": 1520877662438}, {"current_trial": 162, "trialdata": {"rt": -1, "trial_type": "single-stim", "stimulus": "<p id=\"stim\">10</p>", "internal_node_id": "0.0-117.0-0.0", "time_elapsed": 777576, "key_press": -1, "trial_index": 162}, "uniqueid": "MTK3648:3X0H8UUIT2VXP369B7B9DWZS66YSWP", "dateTime": 1520877665445}, {"current_trial": 163, "trialdata": {"rt": -1, "trial_type": "single-stim", "stimulus": "<p id=\"stim\">9</p>", "internal_node_id": "0.0-117.0-1.0", "time_elapsed": 778580, "key_press": -1, "trial_index": 163}, "uniqueid": "MTK3648:3X0H8UUIT2VXP369B7B9DWZS66YSWP", "dateTime": 1520877666450}, {"current_trial": 164, "trialdata": {"rt": -1, "trial_type": "single-stim", "stimulus": "<p id=\"stim\">8</p>", "internal_node_id": "0.0-117.0-2.0", "time_elapsed": 779585, "key_press": -1, "trial_index": 164}, "uniqueid": "MTK3648:3X0H8UUIT2VXP369B7B9DWZS66YSWP", "dateTime": 1520877667454}, {"current_trial": 165, "trialdata": {"rt": -1, "trial_type": "single-stim", "stimulus": "<p id=\"stim\">7</p>", "internal_node_id": "0.0-117.0-3.0", "time_elapsed": 780590, "key_press": -1, "trial_index": 165}, "uniqueid": "MTK3648:3X0H8UUIT2VXP369B7B9DWZS66YSWP", "dateTime": 1520877668459}, {"current_trial": 166, "trialdata": {"rt": -1, "trial_type": "single-stim", "stimulus": "<p id=\"stim\">6</p>", "internal_node_id": "0.0-117.0-4.0", "time_elapsed": 781592, "key_press": -1, "trial_index": 166}, "uniqueid": "MTK3648:3X0H8UUIT2VXP369B7B9DWZS66YSWP", "dateTime": 1520877669461}, {"current_trial": 167, "trialdata": {"rt": -1, "trial_type": "single-stim", "stimulus": "<p id=\"stim\">5</p>", "internal_node_id": "0.0-117.0-5.0", "time_elapsed": 782596, "key_press": -1, "trial_index": 167}, "uniqueid": "MTK3648:3X0H8UUIT2VXP369B7B9DWZS66YSWP", "dateTime": 1520877670465}, {"current_trial": 168, "trialdata": {"rt": -1, "trial_type": "single-stim", "stimulus": "<p id=\"stim\">4</p>", "internal_node_id": "0.0-117.0-6.0", "time_elapsed": 783600, "key_press": -1, "trial_index": 168}, "uniqueid": "MTK3648:3X0H8UUIT2VXP369B7B9DWZS66YSWP", "dateTime": 1520877671469}, {"current_trial": 169, "trialdata": {"rt": -1, "trial_type": "single-stim", "stimulus": "<p id=\"stim\">3</p>", "internal_node_id": "0.0-117.0-7.0", "time_elapsed": 784604, "key_press": -1, "trial_index": 169}, "uniqueid": "MTK3648:3X0H8UUIT2VXP369B7B9DWZS66YSWP", "dateTime": 1520877672473}, {"current_trial": 170, "trialdata": {"rt": -1, "trial_type": "single-stim", "stimulus": "<p id=\"stim\">2</p>", "internal_node_id": "0.0-117.0-8.0", "time_elapsed": 785609, "key_press": -1, "trial_index": 170}, "uniqueid": "MTK3648:3X0H8UUIT2VXP369B7B9DWZS66YSWP", "dateTime": 1520877673478}, {"current_trial": 171, "trialdata": {"rt": -1, "trial_type": "single-stim", "stimulus": "<p id=\"stim\">1</p>", "internal_node_id": "0.0-117.0-9.0", "time_elapsed": 786613, "key_press": -1, "trial_index": 171}, "uniqueid": "MTK3648:3X0H8UUIT2VXP369B7B9DWZS66YSWP", "dateTime": 1520877674482}, {"current_trial": 172, "trialdata": {"rt": -1, "trial_type": "single-stim", "stimulus": "<p id=\"stim\">+</p>", "internal_node_id": "0.0-118.0-0.0", "time_elapsed": 788119, "key_press": -1, "type": "FIXATION", "trial_index": 172}, "uniqueid": "MTK3648:3X0H8UUIT2VXP369B7B9DWZS66YSWP", "dateTime": 1520877675988}, {"current_trial": 173, "trialdata": {"rt": -1, "trial_type": "single-stim", "word": "brother", "stimulus": "<p id=\"stim\">BROTHER</p>", "conditions": [12, 1600, "v", 12000], "internal_node_id": "0.0-119.0", "trial": 5, "time_elapsed": 789724, "serialpos": 0, "key_press": -1, "wordID": 178, "type": "PRES_VIS", "trial_index": 173}, "uniqueid": "MTK3648:3X0H8UUIT2VXP369B7B9DWZS66YSWP", "dateTime": 1520877677593}, {"current_trial": 174, "trialdata": {"rt": -1, "trial_type": "single-stim", "word": "knife", "stimulus": "<p id=\"stim\">KNIFE</p>", "conditions": [12, 1600, "v", 12000], "internal_node_id": "0.0-120.0", "trial": 5, "time_elapsed": 792393, "serialpos": 1, "key_press": -1, "wordID": 784, "type": "PRES_VIS", "trial_index": 174}, "uniqueid": "MTK3648:3X0H8UUIT2VXP369B7B9DWZS66YSWP", "dateTime": 1520877680262}, {"current_trial": 175, "trialdata": {"rt": 1378, "trial_type": "single-stim", "word": "razor", "stimulus": "<p id=\"stim\">RAZOR</p>", "conditions": [12, 1600, "v", 12000], "internal_node_id": "0.0-121.0", "trial": 5, "time_elapsed": 794869, "serialpos": 2, "key_press": 90, "wordID": 1170, "type": "PRES_VIS", "trial_index": 175}, "uniqueid": "MTK3648:3X0H8UUIT2VXP369B7B9DWZS66YSWP", "dateTime": 1520877682738}, {"current_trial": 176, "trialdata": {"rt": -1, "trial_type": "single-stim", "word": "headband", "stimulus": "<p id=\"stim\">HEADBAND</p>", "conditions": [12, 1600, "v", 12000], "internal_node_id": "0.0-122.0", "trial": 5, "time_elapsed": 797327, "serialpos": 3, "key_press": -1, "wordID": 695, "type": "PRES_VIS", "trial_index": 176}, "uniqueid": "MTK3648:3X0H8UUIT2VXP369B7B9DWZS66YSWP", "dateTime": 1520877685196}, {"current_trial": 177, "trialdata": {"rt": -1, "trial_type": "single-stim", "word": "tweezers", "stimulus": "<p id=\"stim\">TWEEZERS</p>", "conditions": [12, 1600, "v", 12000], "internal_node_id": "0.0-123.0", "trial": 5, "time_elapsed": 799773, "serialpos": 4, "key_press": -1, "wordID": 1525, "type": "PRES_VIS", "trial_index": 177}, "uniqueid": "MTK3648:3X0H8UUIT2VXP369B7B9DWZS66YSWP", "dateTime": 1520877687643}, {"current_trial": 178, "trialdata": {"rt": -1, "trial_type": "single-stim", "word": "finger", "stimulus": "<p id=\"stim\">FINGER</p>", "conditions": [12, 1600, "v", 12000], "internal_node_id": "0.0-124.0", "trial": 5, "time_elapsed": 802493, "serialpos": 5, "key_press": -1, "wordID": 566, "type": "PRES_VIS", "trial_index": 178}, "uniqueid": "MTK3648:3X0H8UUIT2VXP369B7B9DWZS66YSWP", "dateTime": 1520877690362}, {"current_trial": 179, "trialdata": {"rt": -1, "trial_type": "single-stim", "word": "crib", "stimulus": "<p id=\"stim\">CRIB</p>", "conditions": [12, 1600, "v", 12000], "internal_node_id": "0.0-125.0", "trial": 5, "time_elapsed": 805226, "serialpos": 6, "key_press": -1, "wordID": 406, "type": "PRES_VIS", "trial_index": 179}, "uniqueid": "MTK3648:3X0H8UUIT2VXP369B7B9DWZS66YSWP", "dateTime": 1520877693095}, {"current_trial": 180, "trialdata": {"rt": -1, "trial_type": "single-stim", "word": "dancer", "stimulus": "<p id=\"stim\">DANCER</p>", "conditions": [12, 1600, "v", 12000], "internal_node_id": "0.0-126.0", "trial": 5, "time_elapsed": 807687, "serialpos": 7, "key_press": -1, "wordID": 436, "type": "PRES_VIS", "trial_index": 180}, "uniqueid": "MTK3648:3X0H8UUIT2VXP369B7B9DWZS66YSWP", "dateTime": 1520877695557}, {"current_trial": 181, "trialdata": {"rt": 1418, "trial_type": "single-stim", "word": "yacht", "stimulus": "<p id=\"stim\">YACHT</p>", "conditions": [12, 1600, "v", 12000], "internal_node_id": "0.0-127.0", "trial": 5, "time_elapsed": 810268, "serialpos": 8, "key_press": 84, "wordID": 1628, "type": "PRES_VIS", "trial_index": 181}, "uniqueid": "MTK3648:3X0H8UUIT2VXP369B7B9DWZS66YSWP", "dateTime": 1520877698137}, {"current_trial": 182, "trialdata": {"rt": -1, "trial_type": "single-stim", "word": "silk", "stimulus": "<p id=\"stim\">SILK</p>", "conditions": [12, 1600, "v", 12000], "internal_node_id": "0.0-128.0", "trial": 5, "time_elapsed": 812910, "serialpos": 9, "key_press": -1, "wordID": 1306, "type": "PRES_VIS", "trial_index": 182}, "uniqueid": "MTK3648:3X0H8UUIT2VXP369B7B9DWZS66YSWP", "dateTime": 1520877700779}, {"current_trial": 183, "trialdata": {"rt": -1, "trial_type": "single-stim", "word": "vagrant", "stimulus": "<p id=\"stim\">VAGRANT</p>", "conditions": [12, 1600, "v", 12000], "internal_node_id": "0.0-129.0", "trial": 5, "time_elapsed": 815678, "serialpos": 10, "key_press": -1, "wordID": 1543, "type": "PRES_VIS", "trial_index": 183}, "uniqueid": "MTK3648:3X0H8UUIT2VXP369B7B9DWZS66YSWP", "dateTime": 1520877703547}, {"current_trial": 184, "trialdata": {"rt": -1, "trial_type": "single-stim", "word": "gymnast", "stimulus": "<p id=\"stim\">GYMNAST</p>", "conditions": [12, 1600, "v", 12000], "internal_node_id": "0.0-130.0", "trial": 5, "time_elapsed": 818185, "serialpos": 11, "key_press": -1, "wordID": 674, "type": "PRES_VIS", "trial_index": 184}, "uniqueid": "MTK3648:3X0H8UUIT2VXP369B7B9DWZS66YSWP", "dateTime": 1520877706054}, {"current_trial": 185, "trialdata": {"rt": -1, "trial_type": "single-stim", "stimulus": "", "internal_node_id": "0.0-131.0-0.0", "time_elapsed": 820705, "key_press": -1, "type": "PRE_RECALL_DELAY", "trial_index": 185}, "uniqueid": "MTK3648:3X0H8UUIT2VXP369B7B9DWZS66YSWP", "dateTime": 1520877708574}, {"current_trial": 186, "trialdata": {"rt": 399.2290249433381, "trial_type": "single-audio", "stimulus": "/static/audio/400Hz.wav", "internal_node_id": "0.0-132.0", "time_elapsed": 821206, "key_press": 71, "type": "PRE_RECALL_ALERT", "trial_index": 186}, "uniqueid": "MTK3648:3X0H8UUIT2VXP369B7B9DWZS66YSWP", "dateTime": 1520877709075}, {"current_trial": 187, "trialdata": {"rt": [2026, 3585, 4426, 5634], "recwords": ["gymnast", "vagrant", "brother", "knife"], "key_times": [105, 745, 874, 938, 1113, 1281, 1337, 1417, 1570, 2026, 2162, 2538, 2698, 2882, 2954, 3130, 3242, 3585, 3698, 3874, 3929, 4010, 4082, 4154, 4217, 4426, 4641, 4794, 4954, 5034, 5089, 5634, 13786, 14295], "trial_type": "free-recall", "conditions": [12, 1600, "v", 12000], "internal_node_id": "0.0-133.0-0.0", "key_presses": [89, 8, 71, 89, 77, 78, 65, 83, 84, 13, 86, 65, 71, 82, 65, 78, 84, 13, 66, 82, 79, 84, 72, 69, 82, 13, 75, 78, 73, 70, 69, 13, 71, 8], "trial": 5, "time_elapsed": 881213, "type": "FREE_RECALL", "trial_index": 187}, "uniqueid": "MTK3648:3X0H8UUIT2VXP369B7B9DWZS66YSWP", "dateTime": 1520877769085}, {"current_trial": 188, "trialdata": {"rt": 1525, "trial_type": "text", "internal_node_id": "0.0-134.0", "time_elapsed": 884747, "key_press": 72, "type": "INSTRUCTIONS", "trial_index": 188}, "uniqueid": "MTK3648:3X0H8UUIT2VXP369B7B9DWZS66YSWP", "dateTime": 1520877772616}, {"current_trial": 189, "trialdata": {"rt": [1936, 5512, 7839, 12189, 15255, 20057, 22545], "trial_type": "math-distractor", "key_times": [1599, 1687, 1936, 4607, 4664, 5512, 7496, 7559, 7839, 12049, 12092, 12189, 14932, 15255, 19785, 19905, 20057, 22269, 22441, 22545], "responses": ["17", "21", "12", "21", "8", "14", "15"], "num2": [1, 9, 4, 4, 2, 9, 8, 3], "num3": [9, 6, 6, 9, 3, 2, 4, 2], "conditions": [12, 800, "v", 24000], "internal_node_id": "0.0-135.0", "key_presses": [49, 55, 13, 50, 49, 13, 49, 50, 13, 50, 49, 13, 56, 13, 49, 52, 13, 49, 53, 13], "trial": 6, "time_elapsed": 910756, "type": "DISTRACTOR", "trial_index": 189, "num1": [7, 6, 2, 8, 3, 3, 3, 3]}, "uniqueid": "MTK3648:3X0H8UUIT2VXP369B7B9DWZS66YSWP", "dateTime": 1520877798625}, {"current_trial": 190, "trialdata": {"rt": -1, "trial_type": "single-stim", "stimulus": "<p id=\"stim\">10</p>", "internal_node_id": "0.0-136.0-0.0", "time_elapsed": 913764, "key_press": -1, "trial_index": 190}, "uniqueid": "MTK3648:3X0H8UUIT2VXP369B7B9DWZS66YSWP", "dateTime": 1520877801633}, {"current_trial": 191, "trialdata": {"rt": -1, "trial_type": "single-stim", "stimulus": "<p id=\"stim\">9</p>", "internal_node_id": "0.0-136.0-1.0", "time_elapsed": 914767, "key_press": -1, "trial_index": 191}, "uniqueid": "MTK3648:3X0H8UUIT2VXP369B7B9DWZS66YSWP", "dateTime": 1520877802636}, {"current_trial": 192, "trialdata": {"rt": -1, "trial_type": "single-stim", "stimulus": "<p id=\"stim\">8</p>", "internal_node_id": "0.0-136.0-2.0", "time_elapsed": 915770, "key_press": -1, "trial_index": 192}, "uniqueid": "MTK3648:3X0H8UUIT2VXP369B7B9DWZS66YSWP", "dateTime": 1520877803639}, {"current_trial": 193, "trialdata": {"rt": -1, "trial_type": "single-stim", "stimulus": "<p id=\"stim\">7</p>", "internal_node_id": "0.0-136.0-3.0", "time_elapsed": 916775, "key_press": -1, "trial_index": 193}, "uniqueid": "MTK3648:3X0H8UUIT2VXP369B7B9DWZS66YSWP", "dateTime": 1520877804644}, {"current_trial": 194, "trialdata": {"rt": -1, "trial_type": "single-stim", "stimulus": "<p id=\"stim\">6</p>", "internal_node_id": "0.0-136.0-4.0", "time_elapsed": 917779, "key_press": -1, "trial_index": 194}, "uniqueid": "MTK3648:3X0H8UUIT2VXP369B7B9DWZS66YSWP", "dateTime": 1520877805648}, {"current_trial": 195, "trialdata": {"rt": -1, "trial_type": "single-stim", "stimulus": "<p id=\"stim\">5</p>", "internal_node_id": "0.0-136.0-5.0", "time_elapsed": 918783, "key_press": -1, "trial_index": 195}, "uniqueid": "MTK3648:3X0H8UUIT2VXP369B7B9DWZS66YSWP", "dateTime": 1520877806652}, {"current_trial": 196, "trialdata": {"rt": -1, "trial_type": "single-stim", "stimulus": "<p id=\"stim\">4</p>", "internal_node_id": "0.0-136.0-6.0", "time_elapsed": 919787, "key_press": -1, "trial_index": 196}, "uniqueid": "MTK3648:3X0H8UUIT2VXP369B7B9DWZS66YSWP", "dateTime": 1520877807656}, {"current_trial": 197, "trialdata": {"rt": -1, "trial_type": "single-stim", "stimulus": "<p id=\"stim\">3</p>", "internal_node_id": "0.0-136.0-7.0", "time_elapsed": 920793, "key_press": -1, "trial_index": 197}, "uniqueid": "MTK3648:3X0H8UUIT2VXP369B7B9DWZS66YSWP", "dateTime": 1520877808662}, {"current_trial": 198, "trialdata": {"rt": -1, "trial_type": "single-stim", "stimulus": "<p id=\"stim\">2</p>", "internal_node_id": "0.0-136.0-8.0", "time_elapsed": 921795, "key_press": -1, "trial_index": 198}, "uniqueid": "MTK3648:3X0H8UUIT2VXP369B7B9DWZS66YSWP", "dateTime": 1520877809666}, {"current_trial": 199, "trialdata": {"rt": -1, "trial_type": "single-stim", "stimulus": "<p id=\"stim\">1</p>", "internal_node_id": "0.0-136.0-9.0", "time_elapsed": 922799, "key_press": -1, "trial_index": 199}, "uniqueid": "MTK3648:3X0H8UUIT2VXP369B7B9DWZS66YSWP", "dateTime": 1520877810668}, {"current_trial": 200, "trialdata": {"rt": -1, "trial_type": "single-stim", "stimulus": "<p id=\"stim\">+</p>", "internal_node_id": "0.0-137.0-0.0", "time_elapsed": 924303, "key_press": -1, "type": "FIXATION", "trial_index": 200}, "uniqueid": "MTK3648:3X0H8UUIT2VXP369B7B9DWZS66YSWP", "dateTime": 1520877812172}, {"current_trial": 201, "trialdata": {"rt": -1, "trial_type": "single-stim", "word": "bouquet", "stimulus": "<p id=\"stim\">BOUQUET</p>", "conditions": [12, 800, "v", 24000], "internal_node_id": "0.0-138.0", "trial": 6, "time_elapsed": 925109, "serialpos": 0, "key_press": -1, "wordID": 156, "type": "PRES_VIS", "trial_index": 201}, "uniqueid": "MTK3648:3X0H8UUIT2VXP369B7B9DWZS66YSWP", "dateTime": 1520877812978}, {"current_trial": 202, "trialdata": {"rt": -1, "trial_type": "single-stim", "word": "lumber", "stimulus": "<p id=\"stim\">LUMBER</p>", "conditions": [12, 800, "v", 24000], "internal_node_id": "0.0-139.0", "trial": 6, "time_elapsed": 926914, "serialpos": 1, "key_press": -1, "wordID": 847, "type": "PRES_VIS", "trial_index": 202}, "uniqueid": "MTK3648:3X0H8UUIT2VXP369B7B9DWZS66YSWP", "dateTime": 1520877814783}, {"current_trial": 203, "trialdata": {"rt": -1, "trial_type": "single-stim", "word": "lightning", "stimulus": "<p id=\"stim\">LIGHTNING</p>", "conditions": [12, 800, "v", 24000], "internal_node_id": "0.0-140.0", "trial": 6, "time_elapsed": 928610, "serialpos": 2, "key_press": -1, "wordID": 819, "type": "PRES_VIS", "trial_index": 203}, "uniqueid": "MTK3648:3X0H8UUIT2VXP369B7B9DWZS66YSWP", "dateTime": 1520877816479}, {"current_trial": 204, "trialdata": {"rt": -1, "trial_type": "single-stim", "word": "shirt", "stimulus": "<p id=\"stim\">SHIRT</p>", "conditions": [12, 800, "v", 24000], "internal_node_id": "0.0-141.0", "trial": 6, "time_elapsed": 930571, "serialpos": 3, "key_press": -1, "wordID": 1286, "type": "PRES_VIS", "trial_index": 204}, "uniqueid": "MTK3648:3X0H8UUIT2VXP369B7B9DWZS66YSWP", "dateTime": 1520877818440}, {"current_trial": 205, "trialdata": {"rt": -1, "trial_type": "single-stim", "word": "scarecrow", "stimulus": "<p id=\"stim\">SCARECROW</p>", "conditions": [12, 800, "v", 24000], "internal_node_id": "0.0-142.0", "trial": 6, "time_elapsed": 932295, "serialpos": 4, "key_press": -1, "wordID": 1244, "type": "PRES_VIS", "trial_index": 205}, "uniqueid": "MTK3648:3X0H8UUIT2VXP369B7B9DWZS66YSWP", "dateTime": 1520877820165}, {"current_trial": 206, "trialdata": {"rt": -1, "trial_type": "single-stim", "word": "seagull", "stimulus": "<p id=\"stim\">SEAGULL</p>", "conditions": [12, 800, "v", 24000], "internal_node_id": "0.0-143.0", "trial": 6, "time_elapsed": 934268, "serialpos": 5, "key_press": -1, "wordID": 1260, "type": "PRES_VIS", "trial_index": 206}, "uniqueid": "MTK3648:3X0H8UUIT2VXP369B7B9DWZS66YSWP", "dateTime": 1520877822137}, {"current_trial": 207, "trialdata": {"rt": -1, "trial_type": "single-stim", "word": "husband", "stimulus": "<p id=\"stim\">HUSBAND</p>", "conditions": [12, 800, "v", 24000], "internal_node_id": "0.0-144.0", "trial": 6, "time_elapsed": 935910, "serialpos": 6, "key_press": -1, "wordID": 727, "type": "PRES_VIS", "trial_index": 207}, "uniqueid": "MTK3648:3X0H8UUIT2VXP369B7B9DWZS66YSWP", "dateTime": 1520877823780}, {"current_trial": 208, "trialdata": {"rt": -1, "trial_type": "single-stim", "word": "uncle", "stimulus": "<p id=\"stim\">UNCLE</p>", "conditions": [12, 800, "v", 24000], "internal_node_id": "0.0-145.0", "trial": 6, "time_elapsed": 937589, "serialpos": 7, "key_press": -1, "wordID": 1535, "type": "PRES_VIS", "trial_index": 208}, "uniqueid": "MTK3648:3X0H8UUIT2VXP369B7B9DWZS66YSWP", "dateTime": 1520877825458}, {"current_trial": 209, "trialdata": {"rt": -1, "trial_type": "single-stim", "word": "jello", "stimulus": "<p id=\"stim\">JELLO</p>", "conditions": [12, 800, "v", 24000], "internal_node_id": "0.0-146.0", "trial": 6, "time_elapsed": 939238, "serialpos": 8, "key_press": -1, "wordID": 753, "type": "PRES_VIS", "trial_index": 209}, "uniqueid": "MTK3648:3X0H8UUIT2VXP369B7B9DWZS66YSWP", "dateTime": 1520877827107}, {"current_trial": 210, "trialdata": {"rt": -1, "trial_type": "single-stim", "word": "antler", "stimulus": "<p id=\"stim\">ANTLER</p>", "conditions": [12, 800, "v", 24000], "internal_node_id": "0.0-147.0", "trial": 6, "time_elapsed": 941081, "serialpos": 9, "key_press": -1, "wordID": 28, "type": "PRES_VIS", "trial_index": 210}, "uniqueid": "MTK3648:3X0H8UUIT2VXP369B7B9DWZS66YSWP", "dateTime": 1520877828950}, {"current_trial": 211, "trialdata": {"rt": -1, "trial_type": "single-stim", "word": "trout", "stimulus": "<p id=\"stim\">TROUT</p>", "conditions": [12, 800, "v", 24000], "internal_node_id": "0.0-148.0", "trial": 6, "time_elapsed": 942744, "serialpos": 10, "key_press": -1, "wordID": 1510, "type": "PRES_VIS", "trial_index": 211}, "uniqueid": "MTK3648:3X0H8UUIT2VXP369B7B9DWZS66YSWP", "dateTime": 1520877830613}, {"current_trial": 212, "trialdata": {"rt": -1, "trial_type": "single-stim", "word": "scarf", "stimulus": "<p id=\"stim\">SCARF</p>", "conditions": [12, 800, "v", 24000], "internal_node_id": "0.0-149.0", "trial": 6, "time_elapsed": 944611, "serialpos": 11, "key_press": -1, "wordID": 1245, "type": "PRES_VIS", "trial_index": 212}, "uniqueid": "MTK3648:3X0H8UUIT2VXP369B7B9DWZS66YSWP", "dateTime": 1520877832480}, {"current_trial": 213, "trialdata": {"rt": -1, "trial_type": "single-stim", "stimulus": "", "internal_node_id": "0.0-150.0-0.0", "time_elapsed": 946944, "key_press": -1, "type": "PRE_RECALL_DELAY", "trial_index": 213}, "uniqueid": "MTK3648:3X0H8UUIT2VXP369B7B9DWZS66YSWP", "dateTime": 1520877834814}, {"current_trial": 214, "trialdata": {"rt": -1000, "trial_type": "single-audio", "stimulus": "/static/audio/400Hz.wav", "internal_node_id": "0.0-151.0", "time_elapsed": 947446, "key_press": -1, "type": "PRE_RECALL_ALERT", "trial_index": 214}, "uniqueid": "MTK3648:3X0H8UUIT2VXP369B7B9DWZS66YSWP", "dateTime": 1520877835315}, {"current_trial": 215, "trialdata": {"rt": [982, 2990, 3991, 4934, 5934, 6862, 8055, 9864], "recwords": ["scarf", "scarecrow", "seagull", "shirt", "husband", "uncle", "jello", "lightning"], "key_times": [322, 351, 518, 614, 782, 982, 1502, 1622, 1734, 1854, 1926, 2326, 2518, 2614, 2662, 2990, 3126, 3246, 3326, 3438, 3510, 3677, 3806, 3991, 4182, 4262, 4334, 4398, 4446, 4934, 5173, 5254, 5366, 5502, 5622, 5710, 5790, 5934, 6166, 6326, 6431, 6519, 6606, 6862, 7126, 7230, 7374, 7502, 7670, 8055, 8278, 8462, 8614, 8734, 8846, 8942, 9062, 9127, 9230, 9864], "trial_type": "free-recall", "conditions": [12, 800, "v", 24000], "internal_node_id": "0.0-152.0-0.0", "key_presses": [83, 67, 65, 82, 70, 13, 83, 67, 65, 82, 69, 67, 82, 79, 87, 13, 83, 69, 65, 71, 85, 76, 76, 13, 83, 72, 73, 82, 84, 13, 72, 85, 83, 66, 65, 78, 68, 13, 85, 78, 67, 76, 69, 13, 74, 69, 76, 76, 79, 13, 76, 73, 71, 72, 84, 78, 73, 78, 71, 13], "trial": 6, "time_elapsed": 1007452, "type": "FREE_RECALL", "trial_index": 215}, "uniqueid": "MTK3648:3X0H8UUIT2VXP369B7B9DWZS66YSWP", "dateTime": 1520877895323}, {"current_trial": 216, "trialdata": {"rt": 703, "trial_type": "text", "internal_node_id": "0.0-153.0", "time_elapsed": 1010162, "key_press": 74, "type": "INSTRUCTIONS", "trial_index": 216}, "uniqueid": "MTK3648:3X0H8UUIT2VXP369B7B9DWZS66YSWP", "dateTime": 1520877898031}, {"current_trial": 217, "trialdata": {"rt": [3008, 6016, 9104, 10929], "trial_type": "math-distractor", "key_times": [2328, 2489, 3008, 5072, 5153, 6016, 8765, 8888, 9104, 10697, 10929], "responses": ["15", "20", "18", "9"], "num2": [1, 7, 8, 1, 7], "num3": [8, 4, 4, 5, 4], "conditions": [24, 1600, "v", 12000], "internal_node_id": "0.0-154.0", "key_presses": [49, 53, 13, 50, 48, 13, 49, 56, 13, 57, 13], "trial": 7, "time_elapsed": 1024171, "type": "DISTRACTOR", "trial_index": 217, "num1": [6, 9, 6, 3, 2]}, "uniqueid": "MTK3648:3X0H8UUIT2VXP369B7B9DWZS66YSWP", "dateTime": 1520877912040}, {"current_trial": 218, "trialdata": {"rt": -1, "trial_type": "single-stim", "stimulus": "<p id=\"stim\">10</p>", "internal_node_id": "0.0-155.0-0.0", "time_elapsed": 1027182, "key_press": -1, "trial_index": 218}, "uniqueid": "MTK3648:3X0H8UUIT2VXP369B7B9DWZS66YSWP", "dateTime": 1520877915051}, {"current_trial": 219, "trialdata": {"rt": -1, "trial_type": "single-stim", "stimulus": "<p id=\"stim\">9</p>", "internal_node_id": "0.0-155.0-1.0", "time_elapsed": 1028185, "key_press": -1, "trial_index": 219}, "uniqueid": "MTK3648:3X0H8UUIT2VXP369B7B9DWZS66YSWP", "dateTime": 1520877916054}, {"current_trial": 220, "trialdata": {"rt": -1, "trial_type": "single-stim", "stimulus": "<p id=\"stim\">8</p>", "internal_node_id": "0.0-155.0-2.0", "time_elapsed": 1029189, "key_press": -1, "trial_index": 220}, "uniqueid": "MTK3648:3X0H8UUIT2VXP369B7B9DWZS66YSWP", "dateTime": 1520877917058}, {"current_trial": 221, "trialdata": {"rt": -1, "trial_type": "single-stim", "stimulus": "<p id=\"stim\">7</p>", "internal_node_id": "0.0-155.0-3.0", "time_elapsed": 1030192, "key_press": -1, "trial_index": 221}, "uniqueid": "MTK3648:3X0H8UUIT2VXP369B7B9DWZS66YSWP", "dateTime": 1520877918061}, {"current_trial": 222, "trialdata": {"rt": -1, "trial_type": "single-stim", "stimulus": "<p id=\"stim\">6</p>", "internal_node_id": "0.0-155.0-4.0", "time_elapsed": 1031196, "key_press": -1, "trial_index": 222}, "uniqueid": "MTK3648:3X0H8UUIT2VXP369B7B9DWZS66YSWP", "dateTime": 1520877919065}, {"current_trial": 223, "trialdata": {"rt": -1, "trial_type": "single-stim", "stimulus": "<p id=\"stim\">5</p>", "internal_node_id": "0.0-155.0-5.0", "time_elapsed": 1032200, "key_press": -1, "trial_index": 223}, "uniqueid": "MTK3648:3X0H8UUIT2VXP369B7B9DWZS66YSWP", "dateTime": 1520877920069}, {"current_trial": 224, "trialdata": {"rt": -1, "trial_type": "single-stim", "stimulus": "<p id=\"stim\">4</p>", "internal_node_id": "0.0-155.0-6.0", "time_elapsed": 1033205, "key_press": -1, "trial_index": 224}, "uniqueid": "MTK3648:3X0H8UUIT2VXP369B7B9DWZS66YSWP", "dateTime": 1520877921074}, {"current_trial": 225, "trialdata": {"rt": -1, "trial_type": "single-stim", "stimulus": "<p id=\"stim\">3</p>", "internal_node_id": "0.0-155.0-7.0", "time_elapsed": 1034209, "key_press": -1, "trial_index": 225}, "uniqueid": "MTK3648:3X0H8UUIT2VXP369B7B9DWZS66YSWP", "dateTime": 1520877922078}, {"current_trial": 226, "trialdata": {"rt": -1, "trial_type": "single-stim", "stimulus": "<p id=\"stim\">2</p>", "internal_node_id": "0.0-155.0-8.0", "time_elapsed": 1035214, "key_press": -1, "trial_index": 226}, "uniqueid": "MTK3648:3X0H8UUIT2VXP369B7B9DWZS66YSWP", "dateTime": 1520877923083}, {"current_trial": 227, "trialdata": {"rt": -1, "trial_type": "single-stim", "stimulus": "<p id=\"stim\">1</p>", "internal_node_id": "0.0-155.0-9.0", "time_elapsed": 1036217, "key_press": -1, "trial_index": 227}, "uniqueid": "MTK3648:3X0H8UUIT2VXP369B7B9DWZS66YSWP", "dateTime": 1520877924086}, {"current_trial": 228, "trialdata": {"rt": -1, "trial_type": "single-stim", "stimulus": "<p id=\"stim\">+</p>", "internal_node_id": "0.0-156.0-0.0", "time_elapsed": 1037723, "key_press": -1, "type": "FIXATION", "trial_index": 228}, "uniqueid": "MTK3648:3X0H8UUIT2VXP369B7B9DWZS66YSWP", "dateTime": 1520877925592}, {"current_trial": 229, "trialdata": {"rt": -1, "trial_type": "single-stim", "word": "rod", "stimulus": "<p id=\"stim\">ROD</p>", "conditions": [24, 1600, "v", 12000], "internal_node_id": "0.0-157.0", "trial": 7, "time_elapsed": 1039328, "serialpos": 0, "key_press": -1, "wordID": 1202, "type": "PRES_VIS", "trial_index": 229}, "uniqueid": "MTK3648:3X0H8UUIT2VXP369B7B9DWZS66YSWP", "dateTime": 1520877927197}, {"current_trial": 230, "trialdata": {"rt": -1, "trial_type": "single-stim", "word": "popcorn", "stimulus": "<p id=\"stim\">POPCORN</p>", "conditions": [24, 1600, "v", 12000], "internal_node_id": "0.0-158.0", "trial": 7, "time_elapsed": 1041957, "serialpos": 1, "key_press": -1, "wordID": 1103, "type": "PRES_VIS", "trial_index": 230}, "uniqueid": "MTK3648:3X0H8UUIT2VXP369B7B9DWZS66YSWP", "dateTime": 1520877929826}, {"current_trial": 231, "trialdata": {"rt": -1, "trial_type": "single-stim", "word": "barley", "stimulus": "<p id=\"stim\">BARLEY</p>", "conditions": [24, 1600, "v", 12000], "internal_node_id": "0.0-159.0", "trial": 7, "time_elapsed": 1044736, "serialpos": 2, "key_press": -1, "wordID": 87, "type": "PRES_VIS", "trial_index": 231}, "uniqueid": "MTK3648:3X0H8UUIT2VXP369B7B9DWZS66YSWP", "dateTime": 1520877932605}, {"current_trial": 232, "trialdata": {"rt": -1, "trial_type": "single-stim", "word": "cookbook", "stimulus": "<p id=\"stim\">COOKBOOK</p>", "conditions": [24, 1600, "v", 12000], "internal_node_id": "0.0-160.0", "trial": 7, "time_elapsed": 1047315, "serialpos": 3, "key_press": -1, "wordID": 372, "type": "PRES_VIS", "trial_index": 232}, "uniqueid": "MTK3648:3X0H8UUIT2VXP369B7B9DWZS66YSWP", "dateTime": 1520877935185}, {"current_trial": 233, "trialdata": {"rt": -1, "trial_type": "single-stim", "word": "primate", "stimulus": "<p id=\"stim\">PRIMATE</p>", "conditions": [24, 1600, "v", 12000], "internal_node_id": "0.0-161.0", "trial": 7, "time_elapsed": 1049769, "serialpos": 4, "key_press": -1, "wordID": 1122, "type": "PRES_VIS", "trial_index": 233}, "uniqueid": "MTK3648:3X0H8UUIT2VXP369B7B9DWZS66YSWP", "dateTime": 1520877937638}, {"current_trial": 234, "trialdata": {"rt": -1, "trial_type": "single-stim", "word": "snack", "stimulus": "<p id=\"stim\">SNACK</p>", "conditions": [24, 1600, "v", 12000], "internal_node_id": "0.0-162.0", "trial": 7, "time_elapsed": 1052510, "serialpos": 5, "key_press": -1, "wordID": 1330, "type": "PRES_VIS", "trial_index": 234}, "uniqueid": "MTK3648:3X0H8UUIT2VXP369B7B9DWZS66YSWP", "dateTime": 1520877940380}, {"current_trial": 235, "trialdata": {"rt": -1, "trial_type": "single-stim", "word": "lunch", "stimulus": "<p id=\"stim\">LUNCH</p>", "conditions": [24, 1600, "v", 12000], "internal_node_id": "0.0-163.0", "trial": 7, "time_elapsed": 1055048, "serialpos": 6, "key_press": -1, "wordID": 848, "type": "PRES_VIS", "trial_index": 235}, "uniqueid": "MTK3648:3X0H8UUIT2VXP369B7B9DWZS66YSWP", "dateTime": 1520877942917}, {"current_trial": 236, "trialdata": {"rt": -1, "trial_type": "single-stim", "word": "cabbage", "stimulus": "<p id=\"stim\">CABBAGE</p>", "conditions": [24, 1600, "v", 12000], "internal_node_id": "0.0-164.0", "trial": 7, "time_elapsed": 1057553, "serialpos": 7, "key_press": -1, "wordID": 209, "type": "PRES_VIS", "trial_index": 236}, "uniqueid": "MTK3648:3X0H8UUIT2VXP369B7B9DWZS66YSWP", "dateTime": 1520877945422}, {"current_trial": 237, "trialdata": {"rt": -1, "trial_type": "single-stim", "word": "hatchet", "stimulus": "<p id=\"stim\">HATCHET</p>", "conditions": [24, 1600, "v", 12000], "internal_node_id": "0.0-165.0", "trial": 7, "time_elapsed": 1059993, "serialpos": 8, "key_press": -1, "wordID": 690, "type": "PRES_VIS", "trial_index": 237}, "uniqueid": "MTK3648:3X0H8UUIT2VXP369B7B9DWZS66YSWP", "dateTime": 1520877947862}, {"current_trial": 238, "trialdata": {"rt": -1, "trial_type": "single-stim", "word": "pebble", "stimulus": "<p id=\"stim\">PEBBLE</p>", "conditions": [24, 1600, "v", 12000], "internal_node_id": "0.0-166.0", "trial": 7, "time_elapsed": 1062487, "serialpos": 9, "key_press": -1, "wordID": 1034, "type": "PRES_VIS", "trial_index": 238}, "uniqueid": "MTK3648:3X0H8UUIT2VXP369B7B9DWZS66YSWP", "dateTime": 1520877950356}, {"current_trial": 239, "trialdata": {"rt": -1, "trial_type": "single-stim", "word": "chemist", "stimulus": "<p id=\"stim\">CHEMIST</p>", "conditions": [24, 1600, "v", 12000], "internal_node_id": "0.0-167.0", "trial": 7, "time_elapsed": 1065104, "serialpos": 10, "key_press": -1, "wordID": 291, "type": "PRES_VIS", "trial_index": 239}, "uniqueid": "MTK3648:3X0H8UUIT2VXP369B7B9DWZS66YSWP", "dateTime": 1520877952973}, {"current_trial": 240, "trialdata": {"rt": -1, "trial_type": "single-stim", "word": "mammal", "stimulus": "<p id=\"stim\">MAMMAL</p>", "conditions": [24, 1600, "v", 12000], "internal_node_id": "0.0-168.0", "trial": 7, "time_elapsed": 1067864, "serialpos": 11, "key_press": -1, "wordID": 860, "type": "PRES_VIS", "trial_index": 240}, "uniqueid": "MTK3648:3X0H8UUIT2VXP369B7B9DWZS66YSWP", "dateTime": 1520877955733}, {"current_trial": 241, "trialdata": {"rt": -1, "trial_type": "single-stim", "word": "bug", "stimulus": "<p id=\"stim\">BUG</p>", "conditions": [24, 1600, "v", 12000], "internal_node_id": "0.0-169.0", "trial": 7, "time_elapsed": 1070565, "serialpos": 12, "key_press": -1, "wordID": 186, "type": "PRES_VIS", "trial_index": 241}, "uniqueid": "MTK3648:3X0H8UUIT2VXP369B7B9DWZS66YSWP", "dateTime": 1520877958435}, {"current_trial": 242, "trialdata": {"rt": -1, "trial_type": "single-stim", "word": "daughter", "stimulus": "<p id=\"stim\">DAUGHTER</p>", "conditions": [24, 1600, "v", 12000], "internal_node_id": "0.0-170.0", "trial": 7, "time_elapsed": 1073294, "serialpos": 13, "key_press": -1, "wordID": 441, "type": "PRES_VIS", "trial_index": 242}, "uniqueid": "MTK3648:3X0H8UUIT2VXP369B7B9DWZS66YSWP", "dateTime": 1520877961163}, {"current_trial": 243, "trialdata": {"rt": -1, "trial_type": "single-stim", "word": "bucket", "stimulus": "<p id=\"stim\">BUCKET</p>", "conditions": [24, 1600, "v", 12000], "internal_node_id": "0.0-171.0", "trial": 7, "time_elapsed": 1075999, "serialpos": 14, "key_press": -1, "wordID": 183, "type": "PRES_VIS", "trial_index": 243}, "uniqueid": "MTK3648:3X0H8UUIT2VXP369B7B9DWZS66YSWP", "dateTime": 1520877963868}, {"current_trial": 244, "trialdata": {"rt": -1, "trial_type": "single-stim", "word": "woman", "stimulus": "<p id=\"stim\">WOMAN</p>", "conditions": [24, 1600, "v", 12000], "internal_node_id": "0.0-172.0", "trial": 7, "time_elapsed": 1078442, "serialpos": 15, "key_press": -1, "wordID": 1619, "type": "PRES_VIS", "trial_index": 244}, "uniqueid": "MTK3648:3X0H8UUIT2VXP369B7B9DWZS66YSWP", "dateTime": 1520877966311}, {"current_trial": 245, "trialdata": {"rt": -1, "trial_type": "single-stim", "word": "victim", "stimulus": "<p id=\"stim\">VICTIM</p>", "conditions": [24, 1600, "v", 12000], "internal_node_id": "0.0-173.0", "trial": 7, "time_elapsed": 1081176, "serialpos": 16, "key_press": -1, "wordID": 1561, "type": "PRES_VIS", "trial_index": 245}, "uniqueid": "MTK3648:3X0H8UUIT2VXP369B7B9DWZS66YSWP", "dateTime": 1520877969045}, {"current_trial": 246, "trialdata": {"rt": -1, "trial_type": "single-stim", "word": "spoon", "stimulus": "<p id=\"stim\">SPOON</p>", "conditions": [24, 1600, "v", 12000], "internal_node_id": "0.0-174.0", "trial": 7, "time_elapsed": 1083671, "serialpos": 17, "key_press": -1, "wordID": 1356, "type": "PRES_VIS", "trial_index": 246}, "uniqueid": "MTK3648:3X0H8UUIT2VXP369B7B9DWZS66YSWP", "dateTime": 1520877971540}, {"current_trial": 247, "trialdata": {"rt": -1, "trial_type": "single-stim", "word": "pliers", "stimulus": "<p id=\"stim\">PLIERS</p>", "conditions": [24, 1600, "v", 12000], "internal_node_id": "0.0-175.0", "trial": 7, "time_elapsed": 1086283, "serialpos": 18, "key_press": -1, "wordID": 1088, "type": "PRES_VIS", "trial_index": 247}, "uniqueid": "MTK3648:3X0H8UUIT2VXP369B7B9DWZS66YSWP", "dateTime": 1520877974152}, {"current_trial": 248, "trialdata": {"rt": -1, "trial_type": "single-stim", "word": "foot", "stimulus": "<p id=\"stim\">FOOT</p>", "conditions": [24, 1600, "v", 12000], "internal_node_id": "0.0-176.0", "trial": 7, "time_elapsed": 1088864, "serialpos": 19, "key_press": -1, "wordID": 589, "type": "PRES_VIS", "trial_index": 248}, "uniqueid": "MTK3648:3X0H8UUIT2VXP369B7B9DWZS66YSWP", "dateTime": 1520877976733}, {"current_trial": 249, "trialdata": {"rt": -1, "trial_type": "single-stim", "word": "lapel", "stimulus": "<p id=\"stim\">LAPEL</p>", "conditions": [24, 1600, "v", 12000], "internal_node_id": "0.0-177.0", "trial": 7, "time_elapsed": 1091298, "serialpos": 20, "key_press": -1, "wordID": 799, "type": "PRES_VIS", "trial_index": 249}, "uniqueid": "MTK3648:3X0H8UUIT2VXP369B7B9DWZS66YSWP", "dateTime": 1520877979169}, {"current_trial": 250, "trialdata": {"rt": -1, "trial_type": "single-stim", "word": "apron", "stimulus": "<p id=\"stim\">APRON</p>", "conditions": [24, 1600, "v", 12000], "internal_node_id": "0.0-178.0", "trial": 7, "time_elapsed": 1093835, "serialpos": 21, "key_press": -1, "wordID": 34, "type": "PRES_VIS", "trial_index": 250}, "uniqueid": "MTK3648:3X0H8UUIT2VXP369B7B9DWZS66YSWP", "dateTime": 1520877981704}, {"current_trial": 251, "trialdata": {"rt": -1, "trial_type": "single-stim", "word": "bison", "stimulus": "<p id=\"stim\">BISON</p>", "conditions": [24, 1600, "v", 12000], "internal_node_id": "0.0-179.0", "trial": 7, "time_elapsed": 1096435, "serialpos": 22, "key_press": -1, "wordID": 130, "type": "PRES_VIS", "trial_index": 251}, "uniqueid": "MTK3648:3X0H8UUIT2VXP369B7B9DWZS66YSWP", "dateTime": 1520877984304}, {"current_trial": 252, "trialdata": {"rt": -1, "trial_type": "single-stim", "word": "scissors", "stimulus": "<p id=\"stim\">SCISSORS</p>", "conditions": [24, 1600, "v", 12000], "internal_node_id": "0.0-180.0", "trial": 7, "time_elapsed": 1099221, "serialpos": 23, "key_press": -1, "wordID": 1249, "type": "PRES_VIS", "trial_index": 252}, "uniqueid": "MTK3648:3X0H8UUIT2VXP369B7B9DWZS66YSWP", "dateTime": 1520877987090}, {"current_trial": 253, "trialdata": {"rt": -1, "trial_type": "single-stim", "stimulus": "", "internal_node_id": "0.0-181.0-0.0", "time_elapsed": 1101316, "key_press": -1, "type": "PRE_RECALL_DELAY", "trial_index": 253}, "uniqueid": "MTK3648:3X0H8UUIT2VXP369B7B9DWZS66YSWP", "dateTime": 1520877989186}, {"current_trial": 254, "trialdata": {"rt": -1000, "trial_type": "single-audio", "stimulus": "/static/audio/400Hz.wav", "internal_node_id": "0.0-182.0", "time_elapsed": 1101818, "key_press": -1, "type": "PRE_RECALL_ALERT", "trial_index": 254}, "uniqueid": "MTK3648:3X0H8UUIT2VXP369B7B9DWZS66YSWP", "dateTime": 1520877989687}, {"current_trial": 255, "trialdata": {"rt": [2067, 3059, 4147, 6587, 7707, 9340, 10675, 11411, 18373, 21948, 23124], "recwords": ["hatchet", "pebble", "chemist", "mammal", "spoon", "apron", "cookbook", "bison", "rod", "popcorn", "snack"], "key_times": [830, 883, 971, 1187, 1267, 1339, 1859, 2067, 2274, 2395, 2595, 2722, 2771, 2899, 3059, 3186, 3291, 3387, 3507, 3635, 3715, 3787, 4147, 4514, 4610, 4731, 4866, 5259, 5371, 5571, 5684, 5811, 5883, 6587, 6891, 6979, 7227, 7370, 7483, 7707, 7883, 7963, 8027, 8155, 8619, 8796, 8899, 9340, 9531, 9604, 9715, 9861, 10020, 10099, 10219, 10396, 10675, 10847, 10915, 11003, 11076, 11163, 11411, 16989, 17092, 17220, 18373, 20533, 20708, 20881, 21100, 21140, 21284, 21404, 21948, 22156, 22245, 22365, 22404, 22533, 23124], "trial_type": "free-recall", "conditions": [24, 1600, "v", 12000], "internal_node_id": "0.0-183.0-0.0", "key_presses": [72, 65, 84, 67, 72, 69, 84, 13, 80, 69, 66, 66, 76, 69, 13, 67, 72, 69, 77, 73, 83, 84, 13, 77, 65, 76, 76, 8, 8, 77, 77, 65, 76, 13, 83, 80, 79, 79, 78, 13, 65, 80, 82, 73, 8, 79, 78, 13, 67, 79, 79, 75, 66, 79, 79, 75, 13, 66, 73, 83, 79, 78, 13, 82, 79, 68, 13, 80, 79, 80, 67, 79, 82, 78, 13, 83, 78, 65, 67, 75, 13], "trial": 7, "time_elapsed": 1161825, "type": "FREE_RECALL", "trial_index": 255}, "uniqueid": "MTK3648:3X0H8UUIT2VXP369B7B9DWZS66YSWP", "dateTime": 1520878049698}, {"current_trial": 256, "trialdata": {"rt": 904, "trial_type": "text", "internal_node_id": "0.0-184.0", "time_elapsed": 1164737, "key_press": 72, "type": "INSTRUCTIONS", "trial_index": 256}, "uniqueid": "MTK3648:3X0H8UUIT2VXP369B7B9DWZS66YSWP", "dateTime": 1520878052606}, {"current_trial": 257, "trialdata": {"rt": [2863, 4911, 7600, 9712], "trial_type": "math-distractor", "key_times": [2079, 2136, 2863, 4567, 4631, 4911, 6743, 7072, 7207, 7311, 7600, 9388, 9456, 9712], "responses": ["12", "10", "10", "20"], "num2": [5, 1, 3, 9, 4], "num3": [4, 7, 1, 8, 6], "conditions": [24, 800, "v", 12000], "internal_node_id": "0.0-185.0", "key_presses": [49, 50, 13, 49, 48, 13, 48, 8, 49, 48, 13, 50, 48, 13], "trial": 8, "time_elapsed": 1178748, "type": "DISTRACTOR", "trial_index": 257, "num1": [3, 2, 6, 3, 1]}, "uniqueid": "MTK3648:3X0H8UUIT2VXP369B7B9DWZS66YSWP", "da