{"assignmentId": "3PMBY0YE28A66Q45LABHK7NZMVHC91", "workerId": "MTK3482", "questiondata": {"origin": "United States", "strat-rehearsal": "0", "marital": "Married/Domestic Partnership", "education": "Master's degree", "ethnicity": "Not Hispanic", "color_depth": 24, "distracted": "No", "wrote-notes": "No", "strat-other": "n/a", "screen_width": 1280, "avail_screen_width": 1280, "avail_screen_height": 720, "strat-image": "84", "language": "English", "gender": "Female", "age": "29", "gender_other": "", "race": ["White"], "strat-categorize": "86", "pixel_depth": 24, "strat-spatial": "0", "strat-story": "15", "race_other": "", "screen_height": 720}, "bonus": 0, "hitId": "32204AGAABJAFO4ZV6QQYVAIIRUHG5", "counterbalance": 1870, "useragent": "Mozilla/5.0 (Windows NT 6.1; Win64; x64) AppleWebKit/537.36 (KHTML, like Gecko) Chrome/64.0.3282.186 Safari/537.36", "eventdata": [{"eventtype": "initialized", "interval": 0, "value": null, "timestamp": 1520618847771}, {"eventtype": "window_resize", "interval": 0, "value": [1275, 665], "timestamp": 1520618847771}, {"eventtype": "focus", "interval": 1453568, "value": "off", "timestamp": 1520620301339}, {"eventtype": "focus", "interval": 5883, "value": "on", "timestamp": 1520620307222}, {"eventtype": "focus", "interval": 143, "value": "off", "timestamp": 1520620307365}, {"eventtype": "focus", "interval": 7272, "value": "on", "timestamp": 1520620314637}, {"eventtype": "focus", "interval": 344594, "value": "off", "timestamp": 1520620659231}, {"eventtype": "focus", "interval": 4761, "value": "on", "timestamp": 1520620663992}, {"eventtype": "focus", "interval": 105, "value": "off", "timestamp": 1520620664097}, {"eventtype": "focus", "interval": 10719, "value": "on", "timestamp": 1520620674816}, {"eventtype": "focus", "interval": 884840, "value": "off", "timestamp": 1520621559656}, {"eventtype": "focus", "interval": 10071, "value": "on", "timestamp": 1520621569727}], "data": [{"current_trial": 0, "trialdata": {"rt": 2097, "trial_type": "text", "internal_node_id": "0.0-0.0", "time_elapsed": 2097, "key_press": 32, "type": "INSTRUCTIONS", "trial_index": 0}, "uniqueid": "MTK3482:3PMBY0YE28A66Q45LABHK7NZMVHC91", "dateTime": 1520618850271}, {"current_trial": 1, "trialdata": {"rt": 19332, "trial_type": "text", "internal_node_id": "0.0-1.0", "time_elapsed": 21439, "key_press": 32, "type": "INSTRUCTIONS", "trial_index": 1}, "uniqueid": "MTK3482:3PMBY0YE28A66Q45LABHK7NZMVHC91", "dateTime": 1520618869613}, {"current_trial": 2, "trialdata": {"rt": [18826], "trial_type": "audio-test", "responses": ["ocean"], "internal_node_id": "0.0-2.0", "time_elapsed": 40278, "type": "AUDIO_TEST", "trial_index": 2}, "uniqueid": "MTK3482:3PMBY0YE28A66Q45LABHK7NZMVHC91", "dateTime": 1520618888452}, {"current_trial": 3, "trialdata": {"rt": [16443], "trial_type": "audio-test", "responses": ["crystal"], "internal_node_id": "0.0-3.0", "time_elapsed": 56728, "type": "AUDIO_TEST", "trial_index": 3}, "uniqueid": "MTK3482:3PMBY0YE28A66Q45LABHK7NZMVHC91", "dateTime": 1520618904903}, {"current_trial": 4, "trialdata": {"rt": [8010], "trial_type": "audio-test", "responses": ["spice"], "internal_node_id": "0.0-4.0", "time_elapsed": 64743, "type": "AUDIO_TEST", "trial_index": 4}, "uniqueid": "MTK3482:3PMBY0YE28A66Q45LABHK7NZMVHC91", "dateTime": 1520618912917}, {"current_trial": 5, "trialdata": {"rt": 29102, "trial_type": "survey-text", "responses": "{\"Q0\":\"11 pm\",\"Q1\":\"7 am\",\"Q2\":\"5\"}", "internal_node_id": "0.0-5.0", "time_elapsed": 94598, "type": "SLEEP_SURVEY", "trial_index": 5}, "uniqueid": "MTK3482:3PMBY0YE28A66Q45LABHK7NZMVHC91", "dateTime": 1520618942772}, {"current_trial": 6, "trialdata": {"rt": 38131, "trial_type": "text", "internal_node_id": "0.0-6.0", "time_elapsed": 133731, "key_press": 32, "type": "INSTRUCTIONS", "trial_index": 6}, "uniqueid": "MTK3482:3PMBY0YE28A66Q45LABHK7NZMVHC91", "dateTime": 1520618981905}, {"current_trial": 7, "trialdata": {"rt": 15705, "trial_type": "text", "internal_node_id": "0.0-7.0", "time_elapsed": 149938, "key_press": 32, "type": "INSTRUCTIONS", "trial_index": 7}, "uniqueid": "MTK3482:3PMBY0YE28A66Q45LABHK7NZMVHC91", "dateTime": 1520618998112}, {"current_trial": 8, "trialdata": {"rt": 13075, "trial_type": "text", "internal_node_id": "0.0-8.0", "time_elapsed": 163513, "key_press": 32, "type": "INSTRUCTIONS", "trial_index": 8}, "uniqueid": "MTK3482:3PMBY0YE28A66Q45LABHK7NZMVHC91", "dateTime": 1520619011687}, {"current_trial": 9, "trialdata": {"rt": [5587, 8068, 11284, 14106, 17091], "trial_type": "math-distractor", "key_times": [4067, 4290, 5587, 7579, 7804, 8068, 10004, 10683, 11284, 12851, 13411, 14106, 15914, 16507, 17091], "responses": ["21", "12", "20", "17", "10"], "num2": [5, 5, 8, 6, 7, 9], "num3": [9, 6, 7, 7, 2, 6], "conditions": [18, 1200, "v", 18000], "internal_node_id": "0.0-9.0", "key_presses": [50, 49, 13, 49, 50, 13, 50, 48, 13, 49, 55, 13, 49, 48, 13], "trial": 0, "time_elapsed": 182517, "type": "DISTRACTOR", "trial_index": 9, "num1": [7, 1, 5, 4, 1, 9]}, "uniqueid": "MTK3482:3PMBY0YE28A66Q45LABHK7NZMVHC91", "dateTime": 1520619030691}, {"current_trial": 10, "trialdata": {"rt": -1, "trial_type": "single-stim", "stimulus": "<p id=\"stim\">10</p>", "internal_node_id": "0.0-10.0-0.0", "time_elapsed": 185518, "key_press": -1, "trial_index": 10}, "uniqueid": "MTK3482:3PMBY0YE28A66Q45LABHK7NZMVHC91", "dateTime": 1520619033692}, {"current_trial": 11, "trialdata": {"rt": -1, "trial_type": "single-stim", "stimulus": "<p id=\"stim\">9</p>", "internal_node_id": "0.0-10.0-1.0", "time_elapsed": 186518, "key_press": -1, "trial_index": 11}, "uniqueid": "MTK3482:3PMBY0YE28A66Q45LABHK7NZMVHC91", "dateTime": 1520619034694}, {"current_trial": 12, "trialdata": {"rt": -1, "trial_type": "single-stim", "stimulus": "<p id=\"stim\">8</p>", "internal_node_id": "0.0-10.0-2.0", "time_elapsed": 187519, "key_press": -1, "trial_index": 12}, "uniqueid": "MTK3482:3PMBY0YE28A66Q45LABHK7NZMVHC91", "dateTime": 1520619035693}, {"current_trial": 13, "trialdata": {"rt": -1, "trial_type": "single-stim", "stimulus": "<p id=\"stim\">7</p>", "internal_node_id": "0.0-10.0-3.0", "time_elapsed": 188520, "key_press": -1, "trial_index": 13}, "uniqueid": "MTK3482:3PMBY0YE28A66Q45LABHK7NZMVHC91", "dateTime": 1520619036694}, {"current_trial": 14, "trialdata": {"rt": -1, "trial_type": "single-stim", "stimulus": "<p id=\"stim\">6</p>", "internal_node_id": "0.0-10.0-4.0", "time_elapsed": 189521, "key_press": -1, "trial_index": 14}, "uniqueid": "MTK3482:3PMBY0YE28A66Q45LABHK7NZMVHC91", "dateTime": 1520619037695}, {"current_trial": 15, "trialdata": {"rt": -1, "trial_type": "single-stim", "stimulus": "<p id=\"stim\">5</p>", "internal_node_id": "0.0-10.0-5.0", "time_elapsed": 190523, "key_press": -1, "trial_index": 15}, "uniqueid": "MTK3482:3PMBY0YE28A66Q45LABHK7NZMVHC91", "dateTime": 1520619038697}, {"current_trial": 16, "trialdata": {"rt": -1, "trial_type": "single-stim", "stimulus": "<p id=\"stim\">4</p>", "internal_node_id": "0.0-10.0-6.0", "time_elapsed": 191524, "key_press": -1, "trial_index": 16}, "uniqueid": "MTK3482:3PMBY0YE28A66Q45LABHK7NZMVHC91", "dateTime": 1520619039698}, {"current_trial": 17, "trialdata": {"rt": -1, "trial_type": "single-stim", "stimulus": "<p id=\"stim\">3</p>", "internal_node_id": "0.0-10.0-7.0", "time_elapsed": 192525, "key_press": -1, "trial_index": 17}, "uniqueid": "MTK3482:3PMBY0YE28A66Q45LABHK7NZMVHC91", "dateTime": 1520619040699}, {"current_trial": 18, "trialdata": {"rt": -1, "trial_type": "single-stim", "stimulus": "<p id=\"stim\">2</p>", "internal_node_id": "0.0-10.0-8.0", "time_elapsed": 193525, "key_press": -1, "trial_index": 18}, "uniqueid": "MTK3482:3PMBY0YE28A66Q45LABHK7NZMVHC91", "dateTime": 1520619041699}, {"current_trial": 19, "trialdata": {"rt": -1, "trial_type": "single-stim", "stimulus": "<p id=\"stim\">1</p>", "internal_node_id": "0.0-10.0-9.0", "time_elapsed": 194526, "key_press": -1, "trial_index": 19}, "uniqueid": "MTK3482:3PMBY0YE28A66Q45LABHK7NZMVHC91", "dateTime": 1520619042700}, {"current_trial": 20, "trialdata": {"rt": -1, "trial_type": "single-stim", "stimulus": "<p id=\"stim\">+</p>", "internal_node_id": "0.0-11.0-0.0", "time_elapsed": 196027, "key_press": -1, "type": "FIXATION", "trial_index": 20}, "uniqueid": "MTK3482:3PMBY0YE28A66Q45LABHK7NZMVHC91", "dateTime": 1520619044201}, {"current_trial": 21, "trialdata": {"rt": -1, "trial_type": "single-stim", "word": "gravel", "stimulus": "<p id=\"stim\">GRAVEL</p>", "conditions": [18, 1200, "v", 18000], "internal_node_id": "0.0-12.0", "trial": 0, "time_elapsed": 197227, "serialpos": 0, "key_press": -1, "wordID": 658, "type": "PRES_VIS", "trial_index": 21}, "uniqueid": "MTK3482:3PMBY0YE28A66Q45LABHK7NZMVHC91", "dateTime": 1520619045401}, {"current_trial": 22, "trialdata": {"rt": -1, "trial_type": "single-stim", "word": "fireplace", "stimulus": "<p id=\"stim\">FIREPLACE</p>", "conditions": [18, 1200, "v", 18000], "internal_node_id": "0.0-13.0", "trial": 0, "time_elapsed": 199492, "serialpos": 1, "key_press": -1, "wordID": 569, "type": "PRES_VIS", "trial_index": 22}, "uniqueid": "MTK3482:3PMBY0YE28A66Q45LABHK7NZMVHC91", "dateTime": 1520619047666}, {"current_trial": 23, "trialdata": {"rt": -1, "trial_type": "single-stim", "word": "temple", "stimulus": "<p id=\"stim\">TEMPLE</p>", "conditions": [18, 1200, "v", 18000], "internal_node_id": "0.0-14.0", "trial": 0, "time_elapsed": 201599, "serialpos": 2, "key_press": -1, "wordID": 1447, "type": "PRES_VIS", "trial_index": 23}, "uniqueid": "MTK3482:3PMBY0YE28A66Q45LABHK7NZMVHC91", "dateTime": 1520619049773}, {"current_trial": 24, "trialdata": {"rt": -1, "trial_type": "single-stim", "word": "lapel", "stimulus": "<p id=\"stim\">LAPEL</p>", "conditions": [18, 1200, "v", 18000], "internal_node_id": "0.0-15.0", "trial": 0, "time_elapsed": 203600, "serialpos": 3, "key_press": -1, "wordID": 799, "type": "PRES_VIS", "trial_index": 24}, "uniqueid": "MTK3482:3PMBY0YE28A66Q45LABHK7NZMVHC91", "dateTime": 1520619051774}, {"current_trial": 25, "trialdata": {"rt": -1, "trial_type": "single-stim", "word": "inmate", "stimulus": "<p id=\"stim\">INMATE</p>", "conditions": [18, 1200, "v", 18000], "internal_node_id": "0.0-16.0", "trial": 0, "time_elapsed": 205925, "serialpos": 4, "key_press": -1, "wordID": 737, "type": "PRES_VIS", "trial_index": 25}, "uniqueid": "MTK3482:3PMBY0YE28A66Q45LABHK7NZMVHC91", "dateTime": 1520619054099}, {"current_trial": 26, "trialdata": {"rt": -1, "trial_type": "single-stim", "word": "blender", "stimulus": "<p id=\"stim\">BLENDER</p>", "conditions": [18, 1200, "v", 18000], "internal_node_id": "0.0-17.0", "trial": 0, "time_elapsed": 208148, "serialpos": 5, "key_press": -1, "wordID": 135, "type": "PRES_VIS", "trial_index": 26}, "uniqueid": "MTK3482:3PMBY0YE28A66Q45LABHK7NZMVHC91", "dateTime": 1520619056322}, {"current_trial": 27, "trialdata": {"rt": -1, "trial_type": "single-stim", "word": "apple", "stimulus": "<p id=\"stim\">APPLE</p>", "conditions": [18, 1200, "v", 18000], "internal_node_id": "0.0-18.0", "trial": 0, "time_elapsed": 210438, "serialpos": 6, "key_press": -1, "wordID": 32, "type": "PRES_VIS", "trial_index": 27}, "uniqueid": "MTK3482:3PMBY0YE28A66Q45LABHK7NZMVHC91", "dateTime": 1520619058612}, {"current_trial": 28, "trialdata": {"rt": -1, "trial_type": "single-stim", "word": "hound", "stimulus": "<p id=\"stim\">HOUND</p>", "conditions": [18, 1200, "v", 18000], "internal_node_id": "0.0-19.0", "trial": 0, "time_elapsed": 212660, "serialpos": 7, "key_press": -1, "wordID": 723, "type": "PRES_VIS", "trial_index": 28}, "uniqueid": "MTK3482:3PMBY0YE28A66Q45LABHK7NZMVHC91", "dateTime": 1520619060834}, {"current_trial": 29, "trialdata": {"rt": -1, "trial_type": "single-stim", "word": "radish", "stimulus": "<p id=\"stim\">RADISH</p>", "conditions": [18, 1200, "v", 18000], "internal_node_id": "0.0-20.0", "trial": 0, "time_elapsed": 214907, "serialpos": 8, "key_press": -1, "wordID": 1157, "type": "PRES_VIS", "trial_index": 29}, "uniqueid": "MTK3482:3PMBY0YE28A66Q45LABHK7NZMVHC91", "dateTime": 1520619063081}, {"current_trial": 30, "trialdata": {"rt": -1, "trial_type": "single-stim", "word": "grill", "stimulus": "<p id=\"stim\">GRILL</p>", "conditions": [18, 1200, "v", 18000], "internal_node_id": "0.0-21.0", "trial": 0, "time_elapsed": 217005, "serialpos": 9, "key_press": -1, "wordID": 660, "type": "PRES_VIS", "trial_index": 30}, "uniqueid": "MTK3482:3PMBY0YE28A66Q45LABHK7NZMVHC91", "dateTime": 1520619065179}, {"current_trial": 31, "trialdata": {"rt": -1, "trial_type": "single-stim", "word": "compass", "stimulus": "<p id=\"stim\">COMPASS</p>", "conditions": [18, 1200, "v", 18000], "internal_node_id": "0.0-22.0", "trial": 0, "time_elapsed": 219023, "serialpos": 10, "key_press": -1, "wordID": 357, "type": "PRES_VIS", "trial_index": 31}, "uniqueid": "MTK3482:3PMBY0YE28A66Q45LABHK7NZMVHC91", "dateTime": 1520619067198}, {"current_trial": 32, "trialdata": {"rt": -1, "trial_type": "single-stim", "word": "donkey", "stimulus": "<p id=\"stim\">DONKEY</p>", "conditions": [18, 1200, "v", 18000], "internal_node_id": "0.0-23.0", "trial": 0, "time_elapsed": 221397, "serialpos": 11, "key_press": -1, "wordID": 483, "type": "PRES_VIS", "trial_index": 32}, "uniqueid": "MTK3482:3PMBY0YE28A66Q45LABHK7NZMVHC91", "dateTime": 1520619069571}, {"current_trial": 33, "trialdata": {"rt": -1, "trial_type": "single-stim", "word": "slope", "stimulus": "<p id=\"stim\">SLOPE</p>", "conditions": [18, 1200, "v", 18000], "internal_node_id": "0.0-24.0", "trial": 0, "time_elapsed": 223479, "serialpos": 12, "key_press": -1, "wordID": 1327, "type": "PRES_VIS", "trial_index": 33}, "uniqueid": "MTK3482:3PMBY0YE28A66Q45LABHK7NZMVHC91", "dateTime": 1520619071653}, {"current_trial": 34, "trialdata": {"rt": -1, "trial_type": "single-stim", "word": "sword", "stimulus": "<p id=\"stim\">SWORD</p>", "conditions": [18, 1200, "v", 18000], "internal_node_id": "0.0-25.0", "trial": 0, "time_elapsed": 225817, "serialpos": 13, "key_press": -1, "wordID": 1422, "type": "PRES_VIS", "trial_index": 34}, "uniqueid": "MTK3482:3PMBY0YE28A66Q45LABHK7NZMVHC91", "dateTime": 1520619073991}, {"current_trial": 35, "trialdata": {"rt": -1, "trial_type": "single-stim", "word": "bug", "stimulus": "<p id=\"stim\">BUG</p>", "conditions": [18, 1200, "v", 18000], "internal_node_id": "0.0-26.0", "trial": 0, "time_elapsed": 228166, "serialpos": 14, "key_press": -1, "wordID": 186, "type": "PRES_VIS", "trial_index": 35}, "uniqueid": "MTK3482:3PMBY0YE28A66Q45LABHK7NZMVHC91", "dateTime": 1520619076340}, {"current_trial": 36, "trialdata": {"rt": -1, "trial_type": "single-stim", "word": "wagon", "stimulus": "<p id=\"stim\">WAGON</p>", "conditions": [18, 1200, "v", 18000], "internal_node_id": "0.0-27.0", "trial": 0, "time_elapsed": 230300, "serialpos": 15, "key_press": -1, "wordID": 1577, "type": "PRES_VIS", "trial_index": 36}, "uniqueid": "MTK3482:3PMBY0YE28A66Q45LABHK7NZMVHC91", "dateTime": 1520619078474}, {"current_trial": 37, "trialdata": {"rt": -1, "trial_type": "single-stim", "word": "hero", "stimulus": "<p id=\"stim\">HERO</p>", "conditions": [18, 1200, "v", 18000], "internal_node_id": "0.0-28.0", "trial": 0, "time_elapsed": 232685, "serialpos": 16, "key_press": -1, "wordID": 705, "type": "PRES_VIS", "trial_index": 37}, "uniqueid": "MTK3482:3PMBY0YE28A66Q45LABHK7NZMVHC91", "dateTime": 1520619080859}, {"current_trial": 38, "trialdata": {"rt": -1, "trial_type": "single-stim", "word": "cattle", "stimulus": "<p id=\"stim\">CATTLE</p>", "conditions": [18, 1200, "v", 18000], "internal_node_id": "0.0-29.0", "trial": 0, "time_elapsed": 234685, "serialpos": 17, "key_press": -1, "wordID": 260, "type": "PRES_VIS", "trial_index": 38}, "uniqueid": "MTK3482:3PMBY0YE28A66Q45LABHK7NZMVHC91", "dateTime": 1520619082859}, {"current_trial": 39, "trialdata": {"rt": -1, "trial_type": "single-stim", "stimulus": "", "internal_node_id": "0.0-30.0-0.0", "time_elapsed": 237189, "key_press": -1, "type": "PRE_RECALL_DELAY", "trial_index": 39}, "uniqueid": "MTK3482:3PMBY0YE28A66Q45LABHK7NZMVHC91", "dateTime": 1520619085363}, {"current_trial": 40, "trialdata": {"rt": -1000, "trial_type": "single-audio", "stimulus": "/static/audio/400Hz.wav", "internal_node_id": "0.0-31.0", "time_elapsed": 237691, "key_press": -1, "type": "PRE_RECALL_ALERT", "trial_index": 40}, "uniqueid": "MTK3482:3PMBY0YE28A66Q45LABHK7NZMVHC91", "dateTime": 1520619085865}, {"current_trial": 41, "trialdata": {"rt": [2439, 4073, 5352, 7145, 9739, 18697, 25617, 27689, 41922], "recwords": ["hero", "cattle", "inmate", "blender", "cattle", "gravel", "sword", "slope", "hero"], "key_times": [1715, 1902, 2112, 2325, 2439, 2766, 2893, 3086, 3226, 3746, 3904, 4073, 4347, 4597, 4808, 4915, 5085, 5224, 5352, 5668, 5952, 6089, 6229, 6383, 6571, 6733, 7145, 7530, 7774, 7994, 8130, 8708, 8940, 9739, 11608, 11845, 11985, 12237, 12368, 12872, 18697, 24042, 24282, 24542, 24720, 24936, 25617, 26581, 26845, 27042, 27282, 27415, 27689, 40298, 40866, 41058, 41370, 41922], "trial_type": "free-recall", "conditions": [18, 1200, "v", 18000], "internal_node_id": "0.0-32.0-0.0", "key_presses": [72, 69, 82, 79, 32, 67, 65, 84, 84, 76, 69, 32, 73, 78, 77, 65, 84, 69, 32, 66, 76, 69, 78, 68, 69, 82, 32, 67, 65, 84, 84, 76, 69, 32, 71, 82, 65, 86, 69, 76, 13, 83, 87, 79, 82, 68, 13, 83, 76, 79, 80, 69, 13, 72, 69, 82, 79, 13], "trial": 0, "time_elapsed": 297692, "type": "FREE_RECALL", "trial_index": 41}, "uniqueid": "MTK3482:3PMBY0YE28A66Q45LABHK7NZMVHC91", "dateTime": 1520619145867}, {"current_trial": 42, "trialdata": {"rt": 1887, "trial_type": "text", "internal_node_id": "0.0-33.0", "time_elapsed": 301581, "key_press": 32, "type": "INSTRUCTIONS", "trial_index": 42}, "uniqueid": "MTK3482:3PMBY0YE28A66Q45LABHK7NZMVHC91", "dateTime": 1520619149755}, {"current_trial": 43, "trialdata": {"rt": [2901, 6270, 8310, 10134, 12172, 14629, 16205], "trial_type": "math-distractor", "key_times": [1902, 2414, 2901, 5910, 6086, 6270, 7885, 8070, 8310, 9734, 9934, 10134, 11781, 11988, 12172, 13716, 14060, 14629, 15821, 16030, 16205], "responses": ["17", "22", "10", "11", "12", "19", "12"], "num2": [9, 6, 2, 7, 2, 4, 9, 4], "num3": [2, 9, 1, 2, 4, 7, 2, 7], "conditions": [18, 1200, "v", 18000], "internal_node_id": "0.0-34.0", "key_presses": [49, 55, 13, 50, 50, 13, 49, 48, 13, 49, 49, 13, 49, 50, 13, 49, 57, 13, 49, 50, 13], "trial": 1, "time_elapsed": 321584, "type": "DISTRACTOR", "trial_index": 43, "num1": [6, 7, 7, 2, 6, 8, 1, 5]}, "uniqueid": "MTK3482:3PMBY0YE28A66Q45LABHK7NZMVHC91", "dateTime": 1520619169758}, {"current_trial": 44, "trialdata": {"rt": -1, "trial_type": "single-stim", "stimulus": "<p id=\"stim\">10</p>", "internal_node_id": "0.0-35.0-0.0", "time_elapsed": 324584, "key_press": -1, "trial_index": 44}, "uniqueid": "MTK3482:3PMBY0YE28A66Q45LABHK7NZMVHC91", "dateTime": 1520619172758}, {"current_trial": 45, "trialdata": {"rt": -1, "trial_type": "single-stim", "stimulus": "<p id=\"stim\">9</p>", "internal_node_id": "0.0-35.0-1.0", "time_elapsed": 325585, "key_press": -1, "trial_index": 45}, "uniqueid": "MTK3482:3PMBY0YE28A66Q45LABHK7NZMVHC91", "dateTime": 1520619173760}, {"current_trial": 46, "trialdata": {"rt": -1, "trial_type": "single-stim", "stimulus": "<p id=\"stim\">8</p>", "internal_node_id": "0.0-35.0-2.0", "time_elapsed": 326585, "key_press": -1, "trial_index": 46}, "uniqueid": "MTK3482:3PMBY0YE28A66Q45LABHK7NZMVHC91", "dateTime": 1520619174759}, {"current_trial": 47, "trialdata": {"rt": -1, "trial_type": "single-stim", "stimulus": "<p id=\"stim\">7</p>", "internal_node_id": "0.0-35.0-3.0", "time_elapsed": 327587, "key_press": -1, "trial_index": 47}, "uniqueid": "MTK3482:3PMBY0YE28A66Q45LABHK7NZMVHC91", "dateTime": 1520619175761}, {"current_trial": 48, "trialdata": {"rt": -1, "trial_type": "single-stim", "stimulus": "<p id=\"stim\">6</p>", "internal_node_id": "0.0-35.0-4.0", "time_elapsed": 328587, "key_press": -1, "trial_index": 48}, "uniqueid": "MTK3482:3PMBY0YE28A66Q45LABHK7NZMVHC91", "dateTime": 1520619176762}, {"current_trial": 49, "trialdata": {"rt": -1, "trial_type": "single-stim", "stimulus": "<p id=\"stim\">5</p>", "internal_node_id": "0.0-35.0-5.0", "time_elapsed": 329588, "key_press": -1, "trial_index": 49}, "uniqueid": "MTK3482:3PMBY0YE28A66Q45LABHK7NZMVHC91", "dateTime": 1520619177762}, {"current_trial": 50, "trialdata": {"rt": -1, "trial_type": "single-stim", "stimulus": "<p id=\"stim\">4</p>", "internal_node_id": "0.0-35.0-6.0", "time_elapsed": 330589, "key_press": -1, "trial_index": 50}, "uniqueid": "MTK3482:3PMBY0YE28A66Q45LABHK7NZMVHC91", "dateTime": 1520619178763}, {"current_trial": 51, "trialdata": {"rt": -1, "trial_type": "single-stim", "stimulus": "<p id=\"stim\">3</p>", "internal_node_id": "0.0-35.0-7.0", "time_elapsed": 331590, "key_press": -1, "trial_index": 51}, "uniqueid": "MTK3482:3PMBY0YE28A66Q45LABHK7NZMVHC91", "dateTime": 1520619179764}, {"current_trial": 52, "trialdata": {"rt": -1, "trial_type": "single-stim", "stimulus": "<p id=\"stim\">2</p>", "internal_node_id": "0.0-35.0-8.0", "time_elapsed": 332592, "key_press": -1, "trial_index": 52}, "uniqueid": "MTK3482:3PMBY0YE28A66Q45LABHK7NZMVHC91", "dateTime": 1520619180766}, {"current_trial": 53, "trialdata": {"rt": -1, "trial_type": "single-stim", "stimulus": "<p id=\"stim\">1</p>", "internal_node_id": "0.0-35.0-9.0", "time_elapsed": 333592, "key_press": -1, "trial_index": 53}, "uniqueid": "MTK3482:3PMBY0YE28A66Q45LABHK7NZMVHC91", "dateTime": 1520619181766}, {"current_trial": 54, "trialdata": {"rt": -1, "trial_type": "single-stim", "stimulus": "<p id=\"stim\">+</p>", "internal_node_id": "0.0-36.0-0.0", "time_elapsed": 335094, "key_press": -1, "type": "FIXATION", "trial_index": 54}, "uniqueid": "MTK3482:3PMBY0YE28A66Q45LABHK7NZMVHC91", "dateTime": 1520619183268}, {"current_trial": 55, "trialdata": {"rt": -1, "trial_type": "single-stim", "word": "beaker", "stimulus": "<p id=\"stim\">BEAKER</p>", "conditions": [18, 1200, "v", 18000], "internal_node_id": "0.0-37.0", "trial": 1, "time_elapsed": 336293, "serialpos": 0, "key_press": -1, "wordID": 103, "type": "PRES_VIS", "trial_index": 55}, "uniqueid": "MTK3482:3PMBY0YE28A66Q45LABHK7NZMVHC91", "dateTime": 1520619184467}, {"current_trial": 56, "trialdata": {"rt": -1, "trial_type": "single-stim", "word": "captive", "stimulus": "<p id=\"stim\">CAPTIVE</p>", "conditions": [18, 1200, "v", 18000], "internal_node_id": "0.0-38.0", "trial": 1, "time_elapsed": 338612, "serialpos": 1, "key_press": -1, "wordID": 239, "type": "PRES_VIS", "trial_index": 56}, "uniqueid": "MTK3482:3PMBY0YE28A66Q45LABHK7NZMVHC91", "dateTime": 1520619186786}, {"current_trial": 57, "trialdata": {"rt": -1, "trial_type": "single-stim", "word": "lion", "stimulus": "<p id=\"stim\">LION</p>", "conditions": [18, 1200, "v", 18000], "internal_node_id": "0.0-39.0", "trial": 1, "time_elapsed": 340803, "serialpos": 2, "key_press": -1, "wordID": 826, "type": "PRES_VIS", "trial_index": 57}, "uniqueid": "MTK3482:3PMBY0YE28A66Q45LABHK7NZMVHC91", "dateTime": 1520619188977}, {"current_trial": 58, "trialdata": {"rt": -1, "trial_type": "single-stim", "word": "yarn", "stimulus": "<p id=\"stim\">YARN</p>", "conditions": [18, 1200, "v", 18000], "internal_node_id": "0.0-40.0", "trial": 1, "time_elapsed": 342807, "serialpos": 3, "key_press": -1, "wordID": 1630, "type": "PRES_VIS", "trial_index": 58}, "uniqueid": "MTK3482:3PMBY0YE28A66Q45LABHK7NZMVHC91", "dateTime": 1520619190981}, {"current_trial": 59, "trialdata": {"rt": -1, "trial_type": "single-stim", "word": "label", "stimulus": "<p id=\"stim\">LABEL</p>", "conditions": [18, 1200, "v", 18000], "internal_node_id": "0.0-41.0", "trial": 1, "time_elapsed": 344900, "serialpos": 4, "key_press": -1, "wordID": 789, "type": "PRES_VIS", "trial_index": 59}, "uniqueid": "MTK3482:3PMBY0YE28A66Q45LABHK7NZMVHC91", "dateTime": 1520619193074}, {"current_trial": 60, "trialdata": {"rt": -1, "trial_type": "single-stim", "word": "coffee", "stimulus": "<p id=\"stim\">COFFEE</p>", "conditions": [18, 1200, "v", 18000], "internal_node_id": "0.0-42.0", "trial": 1, "time_elapsed": 347169, "serialpos": 5, "key_press": -1, "wordID": 340, "type": "PRES_VIS", "trial_index": 60}, "uniqueid": "MTK3482:3PMBY0YE28A66Q45LABHK7NZMVHC91", "dateTime": 1520619195343}, {"current_trial": 61, "trialdata": {"rt": -1, "trial_type": "single-stim", "word": "typist", "stimulus": "<p id=\"stim\">TYPIST</p>", "conditions": [18, 1200, "v", 18000], "internal_node_id": "0.0-43.0", "trial": 1, "time_elapsed": 349364, "serialpos": 6, "key_press": -1, "wordID": 1531, "type": "PRES_VIS", "trial_index": 61}, "uniqueid": "MTK3482:3PMBY0YE28A66Q45LABHK7NZMVHC91", "dateTime": 1520619197538}, {"current_trial": 62, "trialdata": {"rt": -1, "trial_type": "single-stim", "word": "slime", "stimulus": "<p id=\"stim\">SLIME</p>", "conditions": [18, 1200, "v", 18000], "internal_node_id": "0.0-44.0", "trial": 1, "time_elapsed": 351398, "serialpos": 7, "key_press": -1, "wordID": 1326, "type": "PRES_VIS", "trial_index": 62}, "uniqueid": "MTK3482:3PMBY0YE28A66Q45LABHK7NZMVHC91", "dateTime": 1520619199572}, {"current_trial": 63, "trialdata": {"rt": -1, "trial_type": "single-stim", "word": "tunnel", "stimulus": "<p id=\"stim\">TUNNEL</p>", "conditions": [18, 1200, "v", 18000], "internal_node_id": "0.0-45.0", "trial": 1, "time_elapsed": 353551, "serialpos": 8, "key_press": -1, "wordID": 1518, "type": "PRES_VIS", "trial_index": 63}, "uniqueid": "MTK3482:3PMBY0YE28A66Q45LABHK7NZMVHC91", "dateTime": 1520619201725}, {"current_trial": 64, "trialdata": {"rt": -1, "trial_type": "single-stim", "word": "quarter", "stimulus": "<p id=\"stim\">QUARTER</p>", "conditions": [18, 1200, "v", 18000], "internal_node_id": "0.0-46.0", "trial": 1, "time_elapsed": 355858, "serialpos": 9, "key_press": -1, "wordID": 1147, "type": "PRES_VIS", "trial_index": 64}, "uniqueid": "MTK3482:3PMBY0YE28A66Q45LABHK7NZMVHC91", "dateTime": 1520619204032}, {"current_trial": 65, "trialdata": {"rt": -1, "trial_type": "single-stim", "word": "cupboard", "stimulus": "<p id=\"stim\">CUPBOARD</p>", "conditions": [18, 1200, "v", 18000], "internal_node_id": "0.0-47.0", "trial": 1, "time_elapsed": 358143, "serialpos": 10, "key_press": -1, "wordID": 424, "type": "PRES_VIS", "trial_index": 65}, "uniqueid": "MTK3482:3PMBY0YE28A66Q45LABHK7NZMVHC91", "dateTime": 1520619206317}, {"current_trial": 66, "trialdata": {"rt": -1, "trial_type": "single-stim", "word": "apron", "stimulus": "<p id=\"stim\">APRON</p>", "conditions": [18, 1200, "v", 18000], "internal_node_id": "0.0-48.0", "trial": 1, "time_elapsed": 360382, "serialpos": 11, "key_press": -1, "wordID": 34, "type": "PRES_VIS", "trial_index": 66}, "uniqueid": "MTK3482:3PMBY0YE28A66Q45LABHK7NZMVHC91", "dateTime": 1520619208556}, {"current_trial": 67, "trialdata": {"rt": -1, "trial_type": "single-stim", "word": "briefcase", "stimulus": "<p id=\"stim\">BRIEFCASE</p>", "conditions": [18, 1200, "v", 18000], "internal_node_id": "0.0-49.0", "trial": 1, "time_elapsed": 362510, "serialpos": 12, "key_press": -1, "wordID": 174, "type": "PRES_VIS", "trial_index": 67}, "uniqueid": "MTK3482:3PMBY0YE28A66Q45LABHK7NZMVHC91", "dateTime": 1520619210684}, {"current_trial": 68, "trialdata": {"rt": -1, "trial_type": "single-stim", "word": "loft", "stimulus": "<p id=\"stim\">LOFT</p>", "conditions": [18, 1200, "v", 18000], "internal_node_id": "0.0-50.0", "trial": 1, "time_elapsed": 364589, "serialpos": 13, "key_press": -1, "wordID": 839, "type": "PRES_VIS", "trial_index": 68}, "uniqueid": "MTK3482:3PMBY0YE28A66Q45LABHK7NZMVHC91", "dateTime": 1520619212765}, {"current_trial": 69, "trialdata": {"rt": -1, "trial_type": "single-stim", "word": "fiddle", "stimulus": "<p id=\"stim\">FIDDLE</p>", "conditions": [18, 1200, "v", 18000], "internal_node_id": "0.0-51.0", "trial": 1, "time_elapsed": 366807, "serialpos": 14, "key_press": -1, "wordID": 560, "type": "PRES_VIS", "trial_index": 69}, "uniqueid": "MTK3482:3PMBY0YE28A66Q45LABHK7NZMVHC91", "dateTime": 1520619214981}, {"current_trial": 70, "trialdata": {"rt": -1, "trial_type": "single-stim", "word": "goblin", "stimulus": "<p id=\"stim\">GOBLIN</p>", "conditions": [18, 1200, "v", 18000], "internal_node_id": "0.0-52.0", "trial": 1, "time_elapsed": 369128, "serialpos": 15, "key_press": -1, "wordID": 644, "type": "PRES_VIS", "trial_index": 70}, "uniqueid": "MTK3482:3PMBY0YE28A66Q45LABHK7NZMVHC91", "dateTime": 1520619217302}, {"current_trial": 71, "trialdata": {"rt": -1, "trial_type": "single-stim", "word": "swimmer", "stimulus": "<p id=\"stim\">SWIMMER</p>", "conditions": [18, 1200, "v", 18000], "internal_node_id": "0.0-53.0", "trial": 1, "time_elapsed": 371190, "serialpos": 16, "key_press": -1, "wordID": 1419, "type": "PRES_VIS", "trial_index": 71}, "uniqueid": "MTK3482:3PMBY0YE28A66Q45LABHK7NZMVHC91", "dateTime": 1520619219364}, {"current_trial": 72, "trialdata": {"rt": -1, "trial_type": "single-stim", "word": "pigment", "stimulus": "<p id=\"stim\">PIGMENT</p>", "conditions": [18, 1200, "v", 18000], "internal_node_id": "0.0-54.0", "trial": 1, "time_elapsed": 373432, "serialpos": 17, "key_press": -1, "wordID": 1065, "type": "PRES_VIS", "trial_index": 72}, "uniqueid": "MTK3482:3PMBY0YE28A66Q45LABHK7NZMVHC91", "dateTime": 1520619221606}, {"current_trial": 73, "trialdata": {"rt": -1, "trial_type": "single-stim", "stimulus": "", "internal_node_id": "0.0-55.0-0.0", "time_elapsed": 375663, "key_press": -1, "type": "PRE_RECALL_DELAY", "trial_index": 73}, "uniqueid": "MTK3482:3PMBY0YE28A66Q45LABHK7NZMVHC91", "dateTime": 1520619223837}, {"current_trial": 74, "trialdata": {"rt": -1000, "trial_type": "single-audio", "stimulus": "/static/audio/400Hz.wav", "internal_node_id": "0.0-56.0", "time_elapsed": 376172, "key_press": -1, "type": "PRE_RECALL_ALERT", "trial_index": 74}, "uniqueid": "MTK3482:3PMBY0YE28A66Q45LABHK7NZMVHC91", "dateTime": 1520619224346}, {"current_trial": 75, "trialdata": {"rt": [3908, 8231, 25015, 27894, 50468], "recwords": ["swimmer", "pigment", "lion", "captive", "slime"], "key_times": [1669, 1902, 2155, 2426, 2583, 2746, 2929, 3908, 5415, 5677, 6720, 7037, 7154, 7284, 7434, 8231, 23723, 23988, 24167, 24420, 25015, 25665, 25972, 26137, 26380, 26716, 27060, 27238, 27894, 49052, 49347, 49587, 49835, 50003, 50468], "trial_type": "free-recall", "conditions": [18, 1200, "v", 18000], "internal_node_id": "0.0-57.0-0.0", "key_presses": [83, 87, 73, 77, 77, 69, 82, 32, 80, 73, 71, 77, 69, 78, 84, 13, 76, 73, 79, 78, 13, 67, 65, 80, 84, 73, 86, 69, 13, 83, 76, 73, 77, 69, 13], "trial": 1, "time_elapsed": 436171, "type": "FREE_RECALL", "trial_index": 75}, "uniqueid": "MTK3482:3PMBY0YE28A66Q45LABHK7NZMVHC91", "dateTime": 1520619284348}, {"current_trial": 76, "trialdata": {"rt": 11553, "trial_type": "text", "internal_node_id": "0.0-58.0", "time_elapsed": 449727, "key_press": 32, "type": "INSTRUCTIONS", "trial_index": 76}, "uniqueid": "MTK3482:3PMBY0YE28A66Q45LABHK7NZMVHC91", "dateTime": 1520619297901}, {"current_trial": 77, "trialdata": {"rt": [2261, 4789, 6870, 8342, 10398], "trial_type": "math-distractor", "key_times": [1741, 2037, 2261, 4053, 4598, 4789, 6375, 6687, 6870, 7975, 8198, 8342, 9767, 10238, 10398], "responses": ["15", "16", "14", "12", "16"], "num2": [2, 4, 6, 9, 9, 6], "num3": [7, 7, 5, 2, 2, 9], "conditions": [12, 1600, "v", 12000], "internal_node_id": "0.0-59.0", "key_presses": [49, 53, 13, 49, 54, 13, 49, 52, 13, 49, 50, 13, 49, 54, 13], "trial": 2, "time_elapsed": 462728, "type": "DISTRACTOR", "trial_index": 77, "num1": [4, 5, 3, 1, 5, 7]}, "uniqueid": "MTK3482:3PMBY0YE28A66Q45LABHK7NZMVHC91", "dateTime": 1520619310902}, {"current_trial": 78, "trialdata": {"rt": -1, "trial_type": "single-stim", "stimulus": "<p id=\"stim\">10</p>", "internal_node_id": "0.0-60.0-0.0", "time_elapsed": 465729, "key_press": -1, "trial_index": 78}, "uniqueid": "MTK3482:3PMBY0YE28A66Q45LABHK7NZMVHC91", "dateTime": 1520619313903}, {"current_trial": 79, "trialdata": {"rt": -1, "trial_type": "single-stim", "stimulus": "<p id=\"stim\">9</p>", "internal_node_id": "0.0-60.0-1.0", "time_elapsed": 466731, "key_press": -1, "trial_index": 79}, "uniqueid": "MTK3482:3PMBY0YE28A66Q45LABHK7NZMVHC91", "dateTime": 1520619314905}, {"current_trial": 80, "trialdata": {"rt": -1, "trial_type": "single-stim", "stimulus": "<p id=\"stim\">8</p>", "internal_node_id": "0.0-60.0-2.0", "time_elapsed": 467730, "key_press": -1, "trial_index": 80}, "uniqueid": "MTK3482:3PMBY0YE28A66Q45LABHK7NZMVHC91", "dateTime": 1520619315904}, {"current_trial": 81, "trialdata": {"rt": -1, "trial_type": "single-stim", "stimulus": "<p id=\"stim\">7</p>", "internal_node_id": "0.0-60.0-3.0", "time_elapsed": 468731, "key_press": -1, "trial_index": 81}, "uniqueid": "MTK3482:3PMBY0YE28A66Q45LABHK7NZMVHC91", "dateTime": 1520619316906}, {"current_trial": 82, "trialdata": {"rt": -1, "trial_type": "single-stim", "stimulus": "<p id=\"stim\">6</p>", "internal_node_id": "0.0-60.0-4.0", "time_elapsed": 469733, "key_press": -1, "trial_index": 82}, "uniqueid": "MTK3482:3PMBY0YE28A66Q45LABHK7NZMVHC91", "dateTime": 1520619317907}, {"current_trial": 83, "trialdata": {"rt": -1, "trial_type": "single-stim", "stimulus": "<p id=\"stim\">5</p>", "internal_node_id": "0.0-60.0-5.0", "time_elapsed": 470733, "key_press": -1, "trial_index": 83}, "uniqueid": "MTK3482:3PMBY0YE28A66Q45LABHK7NZMVHC91", "dateTime": 1520619318907}, {"current_trial": 84, "trialdata": {"rt": -1, "trial_type": "single-stim", "stimulus": "<p id=\"stim\">4</p>", "internal_node_id": "0.0-60.0-6.0", "time_elapsed": 471735, "key_press": -1, "trial_index": 84}, "uniqueid": "MTK3482:3PMBY0YE28A66Q45LABHK7NZMVHC91", "dateTime": 1520619319909}, {"current_trial": 85, "trialdata": {"rt": -1, "trial_type": "single-stim", "stimulus": "<p id=\"stim\">3</p>", "internal_node_id": "0.0-60.0-7.0", "time_elapsed": 472735, "key_press": -1, "trial_index": 85}, "uniqueid": "MTK3482:3PMBY0YE28A66Q45LABHK7NZMVHC91", "dateTime": 1520619320909}, {"current_trial": 86, "trialdata": {"rt": -1, "trial_type": "single-stim", "stimulus": "<p id=\"stim\">2</p>", "internal_node_id": "0.0-60.0-8.0", "time_elapsed": 473735, "key_press": -1, "trial_index": 86}, "uniqueid": "MTK3482:3PMBY0YE28A66Q45LABHK7NZMVHC91", "dateTime": 1520619321909}, {"current_trial": 87, "trialdata": {"rt": -1, "trial_type": "single-stim", "stimulus": "<p id=\"stim\">1</p>", "internal_node_id": "0.0-60.0-9.0", "time_elapsed": 474738, "key_press": -1, "trial_index": 87}, "uniqueid": "MTK3482:3PMBY0YE28A66Q45LABHK7NZMVHC91", "dateTime": 1520619322912}, {"current_trial": 88, "trialdata": {"rt": -1, "trial_type": "single-stim", "stimulus": "<p id=\"stim\">+</p>", "internal_node_id": "0.0-61.0-0.0", "time_elapsed": 476238, "key_press": -1, "type": "FIXATION", "trial_index": 88}, "uniqueid": "MTK3482:3PMBY0YE28A66Q45LABHK7NZMVHC91", "dateTime": 1520619324412}, {"current_trial": 89, "trialdata": {"rt": -1, "trial_type": "single-stim", "word": "cabin", "stimulus": "<p id=\"stim\">CABIN</p>", "conditions": [12, 1600, "v", 12000], "internal_node_id": "0.0-62.0", "trial": 2, "time_elapsed": 477840, "serialpos": 0, "key_press": -1, "wordID": 210, "type": "PRES_VIS", "trial_index": 89}, "uniqueid": "MTK3482:3PMBY0YE28A66Q45LABHK7NZMVHC91", "dateTime": 1520619326014}, {"current_trial": 90, "trialdata": {"rt": -1, "trial_type": "single-stim", "word": "office", "stimulus": "<p id=\"stim\">OFFICE</p>", "conditions": [12, 1600, "v", 12000], "internal_node_id": "0.0-63.0", "trial": 2, "time_elapsed": 480339, "serialpos": 1, "key_press": -1, "wordID": 971, "type": "PRES_VIS", "trial_index": 90}, "uniqueid": "MTK3482:3PMBY0YE28A66Q45LABHK7NZMVHC91", "dateTime": 1520619328513}, {"current_trial": 91, "trialdata": {"rt": -1, "trial_type": "single-stim", "word": "ground", "stimulus": "<p id=\"stim\">GROUND</p>", "conditions": [12, 1600, "v", 12000], "internal_node_id": "0.0-64.0", "trial": 2, "time_elapsed": 483000, "serialpos": 2, "key_press": -1, "wordID": 665, "type": "PRES_VIS", "trial_index": 91}, "uniqueid": "MTK3482:3PMBY0YE28A66Q45LABHK7NZMVHC91", "dateTime": 1520619331174}, {"current_trial": 92, "trialdata": {"rt": -1, "trial_type": "single-stim", "word": "mars", "stimulus": "<p id=\"stim\">MARS</p>", "conditions": [12, 1600, "v", 12000], "internal_node_id": "0.0-65.0", "trial": 2, "time_elapsed": 485746, "serialpos": 3, "key_press": -1, "wordID": 872, "type": "PRES_VIS", "trial_index": 92}, "uniqueid": "MTK3482:3PMBY0YE28A66Q45LABHK7NZMVHC91", "dateTime": 1520619333920}, {"current_trial": 93, "trialdata": {"rt": -1, "trial_type": "single-stim", "word": "stone", "stimulus": "<p id=\"stim\">STONE</p>", "conditions": [12, 1600, "v", 12000], "internal_node_id": "0.0-66.0", "trial": 2, "time_elapsed": 488427, "serialpos": 4, "key_press": -1, "wordID": 1384, "type": "PRES_VIS", "trial_index": 93}, "uniqueid": "MTK3482:3PMBY0YE28A66Q45LABHK7NZMVHC91", "dateTime": 1520619336601}, {"current_trial": 94, "trialdata": {"rt": -1, "trial_type": "single-stim", "word": "bank", "stimulus": "<p id=\"stim\">BANK</p>", "conditions": [12, 1600, "v", 12000], "internal_node_id": "0.0-67.0", "trial": 2, "time_elapsed": 491067, "serialpos": 5, "key_press": -1, "wordID": 82, "type": "PRES_VIS", "trial_index": 94}, "uniqueid": "MTK3482:3PMBY0YE28A66Q45LABHK7NZMVHC91", "dateTime": 1520619339241}, {"current_trial": 95, "trialdata": {"rt": -1, "trial_type": "single-stim", "word": "sausage", "stimulus": "<p id=\"stim\">SAUSAGE</p>", "conditions": [12, 1600, "v", 12000], "internal_node_id": "0.0-68.0", "trial": 2, "time_elapsed": 493695, "serialpos": 6, "key_press": -1, "wordID": 1237, "type": "PRES_VIS", "trial_index": 95}, "uniqueid": "MTK3482:3PMBY0YE28A66Q45LABHK7NZMVHC91", "dateTime": 1520619341869}, {"current_trial": 96, "trialdata": {"rt": -1, "trial_type": "single-stim", "word": "washer", "stimulus": "<p id=\"stim\">WASHER</p>", "conditions": [12, 1600, "v", 12000], "internal_node_id": "0.0-69.0", "trial": 2, "time_elapsed": 496247, "serialpos": 7, "key_press": -1, "wordID": 1591, "type": "PRES_VIS", "trial_index": 96}, "uniqueid": "MTK3482:3PMBY0YE28A66Q45LABHK7NZMVHC91", "dateTime": 1520619344421}, {"current_trial": 97, "trialdata": {"rt": -1, "trial_type": "single-stim", "word": "playground", "stimulus": "<p id=\"stim\">PLAYGROUND</p>", "conditions": [12, 1600, "v", 12000], "internal_node_id": "0.0-70.0", "trial": 2, "time_elapsed": 499004, "serialpos": 8, "key_press": -1, "wordID": 1086, "type": "PRES_VIS", "trial_index": 97}, "uniqueid": "MTK3482:3PMBY0YE28A66Q45LABHK7NZMVHC91", "dateTime": 1520619347178}, {"current_trial": 98, "trialdata": {"rt": -1, "trial_type": "single-stim", "word": "brick", "stimulus": "<p id=\"stim\">BRICK</p>", "conditions": [12, 1600, "v", 12000], "internal_node_id": "0.0-71.0", "trial": 2, "time_elapsed": 501642, "serialpos": 9, "key_press": -1, "wordID": 171, "type": "PRES_VIS", "trial_index": 98}, "uniqueid": "MTK3482:3PMBY0YE28A66Q45LABHK7NZMVHC91", "dateTime": 1520619349816}, {"current_trial": 99, "trialdata": {"rt": -1, "trial_type": "single-stim", "word": "woman", "stimulus": "<p id=\"stim\">WOMAN</p>", "conditions": [12, 1600, "v", 12000], "internal_node_id": "0.0-72.0", "trial": 2, "time_elapsed": 504242, "serialpos": 10, "key_press": -1, "wordID": 1619, "type": "PRES_VIS", "trial_index": 99}, "uniqueid": "MTK3482:3PMBY0YE28A66Q45LABHK7NZMVHC91", "dateTime": 1520619352416}, {"current_trial": 100, "trialdata": {"rt": -1, "trial_type": "single-stim", "word": "daughter", "stimulus": "<p id=\"stim\">DAUGHTER</p>", "conditions": [12, 1600, "v", 12000], "internal_node_id": "0.0-73.0", "trial": 2, "time_elapsed": 506704, "serialpos": 11, "key_press": -1, "wordID": 441, "type": "PRES_VIS", "trial_index": 100}, "uniqueid": "MTK3482:3PMBY0YE28A66Q45LABHK7NZMVHC91", "dateTime": 1520619354878}, {"current_trial": 101, "trialdata": {"rt": -1, "trial_type": "single-stim", "stimulus": "", "internal_node_id": "0.0-74.0-0.0", "time_elapsed": 509172, "key_press": -1, "type": "PRE_RECALL_DELAY", "trial_index": 101}, "uniqueid": "MTK3482:3PMBY0YE28A66Q45LABHK7NZMVHC91", "dateTime": 1520619357346}, {"current_trial": 102, "trialdata": {"rt": -1000, "trial_type": "single-audio", "stimulus": "/static/audio/400Hz.wav", "internal_node_id": "0.0-75.0", "time_elapsed": 509680, "key_press": -1, "type": "PRE_RECALL_ALERT", "trial_index": 102}, "uniqueid": "MTK3482:3PMBY0YE28A66Q45LABHK7NZMVHC91", "dateTime": 1520619357854}, {"current_trial": 103, "trialdata": {"rt": [4852, 7309, 9513, 14501, 17771, 27012, 36746, 56385], "recwords": ["daughter", "brick", "sausage", "cabin", "washer", "mars", "office", "playground"], "key_times": [3204, 3467, 3683, 3910, 4097, 4319, 4434, 4580, 4852, 5646, 5898, 6200, 6420, 6778, 7309, 7964, 8195, 8384, 8524, 8715, 8978, 9128, 9513, 12386, 12643, 12820, 13209, 13451, 14501, 15939, 16179, 16325, 16595, 16742, 16893, 17771, 25654, 25812, 26099, 26376, 27012, 34171, 34323, 34538, 34915, 35106, 35108, 35626, 36083, 36746, 46914, 47146, 47274, 47474, 47698, 47819, 48034, 48314, 48538, 48651, 56385], "trial_type": "free-recall", "conditions": [12, 1600, "v", 12000], "internal_node_id": "0.0-76.0-0.0", "key_presses": [68, 65, 85, 71, 72, 84, 69, 82, 13, 66, 82, 73, 67, 75, 13, 83, 65, 85, 83, 65, 71, 69, 13, 67, 65, 66, 73, 78, 13, 87, 65, 83, 72, 69, 82, 13, 77, 65, 82, 83, 13, 79, 70, 70, 73, 67, 86, 8, 69, 13, 80, 76, 65, 89, 71, 82, 79, 85, 78, 68, 13], "trial": 2, "time_elapsed": 569679, "type": "FREE_RECALL", "trial_index": 103}, "uniqueid": "MTK3482:3PMBY0YE28A66Q45LABHK7NZMVHC91", "dateTime": 1520619417855}, {"current_trial": 104, "trialdata": {"rt": 3193, "trial_type": "text", "internal_node_id": "0.0-77.0", "time_elapsed": 574875, "key_press": 32, "type": "INSTRUCTIONS", "trial_index": 104}, "uniqueid": "MTK3482:3PMBY0YE28A66Q45LABHK7NZMVHC91", "dateTime": 1520619423049}, {"current_trial": 105, "trialdata": {"rt": [2390, 4639, 6815, 9383, 12591, 14231, 16287, 18207, 20454, 22319], "trial_type": "math-distractor", "key_times": [2014, 2238, 2390, 3679, 4327, 4639, 5903, 6495, 6815, 8672, 9039, 9383, 12175, 12423, 12591, 13879, 14046, 14231, 15495, 16119, 16287, 18071, 18207, 19766, 20278, 20454, 22150, 22319], "responses": ["13", "10", "18", "18", "24", "11", "16", "9", "17", "9"], "num2": [3, 1, 8, 5, 9, 1, 8, 4, 9, 4, 2], "num3": [6, 1, 6, 4, 7, 2, 5, 3, 3, 1, 5], "conditions": [24, 800, "v", 24000], "internal_node_id": "0.0-78.0", "key_presses": [49, 51, 13, 49, 48, 13, 49, 56, 13, 49, 56, 13, 50, 52, 13, 49, 49, 13, 49, 54, 13, 57, 13, 49, 55, 13, 57, 13], "trial": 3, "time_elapsed": 600876, "type": "DISTRACTOR", "trial_index": 105, "num1": [4, 8, 4, 9, 8, 8, 3, 2, 5, 4, 4]}, "uniqueid": "MTK3482:3PMBY0YE28A66Q45LABHK7NZMVHC91", "dateTime": 1520619449050}, {"current_trial": 106, "trialdata": {"rt": -1, "trial_type": "single-stim", "stimulus": "<p id=\"stim\">10</p>", "internal_node_id": "0.0-79.0-0.0", "time_elapsed": 603876, "key_press": -1, "trial_index": 106}, "uniqueid": "MTK3482:3PMBY0YE28A66Q45LABHK7NZMVHC91", "dateTime": 1520619452050}, {"current_trial": 107, "trialdata": {"rt": -1, "trial_type": "single-stim", "stimulus": "<p id=\"stim\">9</p>", "internal_node_id": "0.0-79.0-1.0", "time_elapsed": 604878, "key_press": -1, "trial_index": 107}, "uniqueid": "MTK3482:3PMBY0YE28A66Q45LABHK7NZMVHC91", "dateTime": 1520619453052}, {"current_trial": 108, "trialdata": {"rt": -1, "trial_type": "single-stim", "stimulus": "<p id=\"stim\">8</p>", "internal_node_id": "0.0-79.0-2.0", "time_elapsed": 605878, "key_press": -1, "trial_index": 108}, "uniqueid": "MTK3482:3PMBY0YE28A66Q45LABHK7NZMVHC91", "dateTime": 1520619454052}, {"current_trial": 109, "trialdata": {"rt": -1, "trial_type": "single-stim", "stimulus": "<p id=\"stim\">7</p>", "internal_node_id": "0.0-79.0-3.0", "time_elapsed": 606878, "key_press": -1, "trial_index": 109}, "uniqueid": "MTK3482:3PMBY0YE28A66Q45LABHK7NZMVHC91", "dateTime": 1520619455052}, {"current_trial": 110, "trialdata": {"rt": -1, "trial_type": "single-stim", "stimulus": "<p id=\"stim\">6</p>", "internal_node_id": "0.0-79.0-4.0", "time_elapsed": 607878, "key_press": -1, "trial_index": 110}, "uniqueid": "MTK3482:3PMBY0YE28A66Q45LABHK7NZMVHC91", "dateTime": 1520619456052}, {"current_trial": 111, "trialdata": {"rt": -1, "trial_type": "single-stim", "stimulus": "<p id=\"stim\">5</p>", "internal_node_id": "0.0-79.0-5.0", "time_elapsed": 608878, "key_press": -1, "trial_index": 111}, "uniqueid": "MTK3482:3PMBY0YE28A66Q45LABHK7NZMVHC91", "dateTime": 1520619457052}, {"current_trial": 112, "trialdata": {"rt": -1, "trial_type": "single-stim", "stimulus": "<p id=\"stim\">4</p>", "internal_node_id": "0.0-79.0-6.0", "time_elapsed": 609878, "key_press": -1, "trial_index": 112}, "uniqueid": "MTK3482:3PMBY0YE28A66Q45LABHK7NZMVHC91", "dateTime": 1520619458052}, {"current_trial": 113, "trialdata": {"rt": -1, "trial_type": "single-stim", "stimulus": "<p id=\"stim\">3</p>", "internal_node_id": "0.0-79.0-7.0", "time_elapsed": 610878, "key_press": -1, "trial_index": 113}, "uniqueid": "MTK3482:3PMBY0YE28A66Q45LABHK7NZMVHC91", "dateTime": 1520619459052}, {"current_trial": 114, "trialdata": {"rt": -1, "trial_type": "single-stim", "stimulus": "<p id=\"stim\">2</p>", "internal_node_id": "0.0-79.0-8.0", "time_elapsed": 611878, "key_press": -1, "trial_index": 114}, "uniqueid": "MTK3482:3PMBY0YE28A66Q45LABHK7NZMVHC91", "dateTime": 1520619460052}, {"current_trial": 115, "trialdata": {"rt": -1, "trial_type": "single-stim", "stimulus": "<p id=\"stim\">1</p>", "internal_node_id": "0.0-79.0-9.0", "time_elapsed": 612878, "key_press": -1, "trial_index": 115}, "uniqueid": "MTK3482:3PMBY0YE28A66Q45LABHK7NZMVHC91", "dateTime": 1520619461052}, {"current_trial": 116, "trialdata": {"rt": -1, "trial_type": "single-stim", "stimulus": "<p id=\"stim\">+</p>", "internal_node_id": "0.0-80.0-0.0", "time_elapsed": 614378, "key_press": -1, "type": "FIXATION", "trial_index": 116}, "uniqueid": "MTK3482:3PMBY0YE28A66Q45LABHK7NZMVHC91", "dateTime": 1520619462552}, {"current_trial": 117, "trialdata": {"rt": -1, "trial_type": "single-stim", "word": "switch", "stimulus": "<p id=\"stim\">SWITCH</p>", "conditions": [24, 800, "v", 24000], "internal_node_id": "0.0-81.0", "trial": 3, "time_elapsed": 615178, "serialpos": 0, "key_press": -1, "wordID": 1421, "type": "PRES_VIS", "trial_index": 117}, "uniqueid": "MTK3482:3PMBY0YE28A66Q45LABHK7NZMVHC91", "dateTime": 1520619463352}, {"current_trial": 118, "trialdata": {"rt": -1, "trial_type": "single-stim", "word": "neutron", "stimulus": "<p id=\"stim\">NEUTRON</p>", "conditions": [24, 800, "v", 24000], "internal_node_id": "0.0-82.0", "trial": 3, "time_elapsed": 617105, "serialpos": 1, "key_press": -1, "wordID": 946, "type": "PRES_VIS", "trial_index": 118}, "uniqueid": "MTK3482:3PMBY0YE28A66Q45LABHK7NZMVHC91", "dateTime": 1520619465279}, {"current_trial": 119, "trialdata": {"rt": -1, "trial_type": "single-stim", "word": "xerox", "stimulus": "<p id=\"stim\">XEROX</p>", "conditions": [24, 800, "v", 24000], "internal_node_id": "0.0-83.0", "trial": 3, "time_elapsed": 618758, "serialpos": 2, "key_press": -1, "wordID": 1627, "type": "PRES_VIS", "trial_index": 119}, "uniqueid": "MTK3482:3PMBY0YE28A66Q45LABHK7NZMVHC91", "dateTime": 1520619466932}, {"current_trial": 120, "trialdata": {"rt": -1, "trial_type": "single-stim", "word": "shortcake", "stimulus": "<p id=\"stim\">SHORTCAKE</p>", "conditions": [24, 800, "v", 24000], "internal_node_id": "0.0-84.0", "trial": 3, "time_elapsed": 620715, "serialpos": 3, "key_press": -1, "wordID": 1291, "type": "PRES_VIS", "trial_index": 120}, "uniqueid": "MTK3482:3PMBY0YE28A66Q45LABHK7NZMVHC91", "dateTime": 1520619468889}, {"current_trial": 121, "trialdata": {"rt": -1, "trial_type": "single-stim", "word": "salmon", "stimulus": "<p id=\"stim\">SALMON</p>", "conditions": [24, 800, "v", 24000], "internal_node_id": "0.0-85.0", "trial": 3, "time_elapsed": 622675, "serialpos": 4, "key_press": -1, "wordID": 1226, "type": "PRES_VIS", "trial_index": 121}, "uniqueid": "MTK3482:3PMBY0YE28A66Q45LABHK7NZMVHC91", "dateTime": 1520619470849}, {"current_trial": 122, "trialdata": {"rt": -1, "trial_type": "single-stim", "word": "citrus", "stimulus": "<p id=\"stim\">CITRUS</p>", "conditions": [24, 800, "v", 24000], "internal_node_id": "0.0-86.0", "trial": 3, "time_elapsed": 624477, "serialpos": 5, "key_press": -1, "wordID": 312, "type": "PRES_VIS", "trial_index": 122}, "uniqueid": "MTK3482:3PMBY0YE28A66Q45LABHK7NZMVHC91", "dateTime": 1520619472651}, {"current_trial": 123, "trialdata": {"rt": -1, "trial_type": "single-stim", "word": "bubble", "stimulus": "<p id=\"stim\">BUBBLE</p>", "conditions": [24, 800, "v", 24000], "internal_node_id": "0.0-87.0", "trial": 3, "time_elapsed": 626095, "serialpos": 6, "key_press": -1, "wordID": 182, "type": "PRES_VIS", "trial_index": 123}, "uniqueid": "MTK3482:3PMBY0YE28A66Q45LABHK7NZMVHC91", "dateTime": 1520619474269}, {"current_trial": 124, "trialdata": {"rt": -1, "trial_type": "single-stim", "word": "money", "stimulus": "<p id=\"stim\">MONEY</p>", "conditions": [24, 800, "v", 24000], "internal_node_id": "0.0-88.0", "trial": 3, "time_elapsed": 627991, "serialpos": 7, "key_press": -1, "wordID": 907, "type": "PRES_VIS", "trial_index": 124}, "uniqueid": "MTK3482:3PMBY0YE28A66Q45LABHK7NZMVHC91", "dateTime": 1520619476165}, {"current_trial": 125, "trialdata": {"rt": -1, "trial_type": "single-stim", "word": "grape", "stimulus": "<p id=\"stim\">GRAPE</p>", "conditions": [24, 800, "v", 24000], "internal_node_id": "0.0-89.0", "trial": 3, "time_elapsed": 629630, "serialpos": 8, "key_press": -1, "wordID": 653, "type": "PRES_VIS", "trial_index": 125}, "uniqueid": "MTK3482:3PMBY0YE28A66Q45LABHK7NZMVHC91", "dateTime": 1520619477804}, {"current_trial": 126, "trialdata": {"rt": -1, "trial_type": "single-stim", "word": "piston", "stimulus": "<p id=\"stim\">PISTON</p>", "conditions": [24, 800, "v", 24000], "internal_node_id": "0.0-90.0", "trial": 3, "time_elapsed": 631277, "serialpos": 9, "key_press": -1, "wordID": 1075, "type": "PRES_VIS", "trial_index": 126}, "uniqueid": "MTK3482:3PMBY0YE28A66Q45LABHK7NZMVHC91", "dateTime": 1520619479451}, {"current_trial": 127, "trialdata": {"rt": -1, "trial_type": "single-stim", "word": "valve", "stimulus": "<p id=\"stim\">VALVE</p>", "conditions": [24, 800, "v", 24000], "internal_node_id": "0.0-91.0", "trial": 3, "time_elapsed": 633118, "serialpos": 10, "key_press": -1, "wordID": 1545, "type": "PRES_VIS", "trial_index": 127}, "uniqueid": "MTK3482:3PMBY0YE28A66Q45LABHK7NZMVHC91", "dateTime": 1520619481292}, {"current_trial": 128, "trialdata": {"rt": -1, "trial_type": "single-stim", "word": "dragon", "stimulus": "<p id=\"stim\">DRAGON</p>", "conditions": [24, 800, "v", 24000], "internal_node_id": "0.0-92.0", "trial": 3, "time_elapsed": 634748, "serialpos": 11, "key_press": -1, "wordID": 491, "type": "PRES_VIS", "trial_index": 128}, "uniqueid": "MTK3482:3PMBY0YE28A66Q45LABHK7NZMVHC91", "dateTime": 1520619482922}, {"current_trial": 129, "trialdata": {"rt": -1, "trial_type": "single-stim", "word": "parrot", "stimulus": "<p id=\"stim\">PARROT</p>", "conditions": [24, 800, "v", 24000], "internal_node_id": "0.0-93.0", "trial": 3, "time_elapsed": 636374, "serialpos": 12, "key_press": -1, "wordID": 1014, "type": "PRES_VIS", "trial_index": 129}, "uniqueid": "MTK3482:3PMBY0YE28A66Q45LABHK7NZMVHC91", "dateTime": 1520619484548}, {"current_trial": 130, "trialdata": {"rt": -1, "trial_type": "single-stim", "word": "fox", "stimulus": "<p id=\"stim\">FOX</p>", "conditions": [24, 800, "v", 24000], "internal_node_id": "0.0-94.0", "trial": 3, "time_elapsed": 638170, "serialpos": 13, "key_press": -1, "wordID": 597, "type": "PRES_VIS", "trial_index": 130}, "uniqueid": "MTK3482:3PMBY0YE28A66Q45LABHK7NZMVHC91", "dateTime": 1520619486344}, {"current_trial": 131, "trialdata": {"rt": -1, "trial_type": "single-stim", "word": "elbow", "stimulus": "<p id=\"stim\">ELBOW</p>", "conditions": [24, 800, "v", 24000], "internal_node_id": "0.0-95.0", "trial": 3, "time_elapsed": 639851, "serialpos": 14, "key_press": -1, "wordID": 519, "type": "PRES_VIS", "trial_index": 131}, "uniqueid": "MTK3482:3PMBY0YE28A66Q45LABHK7NZMVHC91", "dateTime": 1520619488025}, {"current_trial": 132, "trialdata": {"rt": -1, "trial_type": "single-stim", "word": "kitchen", "stimulus": "<p id=\"stim\">KITCHEN</p>", "conditions": [24, 800, "v", 24000], "internal_node_id": "0.0-96.0", "trial": 3, "time_elapsed": 641511, "serialpos": 15, "key_press": -1, "wordID": 777, "type": "PRES_VIS", "trial_index": 132}, "uniqueid": "MTK3482:3PMBY0YE28A66Q45LABHK7NZMVHC91", "dateTime": 1520619489685}, {"current_trial": 133, "trialdata": {"rt": -1, "trial_type": "single-stim", "word": "dresser", "stimulus": "<p id=\"stim\">DRESSER</p>", "conditions": [24, 800, "v", 24000], "internal_node_id": "0.0-97.0", "trial": 3, "time_elapsed": 643379, "serialpos": 16, "key_press": -1, "wordID": 495, "type": "PRES_VIS", "trial_index": 133}, "uniqueid": "MTK3482:3PMBY0YE28A66Q45LABHK7NZMVHC91", "dateTime": 1520619491553}, {"current_trial": 134, "trialdata": {"rt": -1, "trial_type": "single-stim", "word": "banjo", "stimulus": "<p id=\"stim\">BANJO</p>", "conditions": [24, 800, "v", 24000], "internal_node_id": "0.0-98.0", "trial": 3, "time_elapsed": 645369, "serialpos": 17, "key_press": -1, "wordID": 81, "type": "PRES_VIS", "trial_index": 134}, "uniqueid": "MTK3482:3PMBY0YE28A66Q45LABHK7NZMVHC91", "dateTime": 1520619493543}, {"current_trial": 135, "trialdata": {"rt": -1, "trial_type": "single-stim", "word": "piano", "stimulus": "<p id=\"stim\">PIANO</p>", "conditions": [24, 800, "v", 24000], "internal_node_id": "0.0-99.0", "trial": 3, "time_elapsed": 647244, "serialpos": 18, "key_press": -1, "wordID": 1056, "type": "PRES_VIS", "trial_index": 135}, "uniqueid": "MTK3482:3PMBY0YE28A66Q45LABHK7NZMVHC91", "dateTime": 1520619495418}, {"current_trial": 136, "trialdata": {"rt": -1, "trial_type": "single-stim", "word": "comet", "stimulus": "<p id=\"stim\">COMET</p>", "conditions": [24, 800, "v", 24000], "internal_node_id": "0.0-100.0", "trial": 3, "time_elapsed": 648882, "serialpos": 19, "key_press": -1, "wordID": 352, "type": "PRES_VIS", "trial_index": 136}, "uniqueid": "MTK3482:3PMBY0YE28A66Q45LABHK7NZMVHC91", "dateTime": 1520619497056}, {"current_trial": 137, "trialdata": {"rt": -1, "trial_type": "single-stim", "word": "pimple", "stimulus": "<p id=\"stim\">PIMPLE</p>", "conditions": [24, 800, "v", 24000], "internal_node_id": "0.0-101.0", "trial": 3, "time_elapsed": 650599, "serialpos": 20, "key_press": -1, "wordID": 1070, "type": "PRES_VIS", "trial_index": 137}, "uniqueid": "MTK3482:3PMBY0YE28A66Q45LABHK7NZMVHC91", "dateTime": 1520619498773}, {"current_trial": 138, "trialdata": {"rt": -1, "trial_type": "single-stim", "word": "husband", "stimulus": "<p id=\"stim\">HUSBAND</p>", "conditions": [24, 800, "v", 24000], "internal_node_id": "0.0-102.0", "trial": 3, "time_elapsed": 652314, "serialpos": 21, "key_press": -1, "wordID": 727, "type": "PRES_VIS", "trial_index": 138}, "uniqueid": "MTK3482:3PMBY0YE28A66Q45LABHK7NZMVHC91", "dateTime": 1520619500488}, {"current_trial": 139, "trialdata": {"rt": -1, "trial_type": "single-stim", "word": "jungle", "stimulus": "<p id=\"stim\">JUNGLE</p>", "conditions": [24, 800, "v", 24000], "internal_node_id": "0.0-103.0", "trial": 3, "time_elapsed": 654291, "serialpos": 22, "key_press": -1, "wordID": 763, "type": "PRES_VIS", "trial_index": 139}, "uniqueid": "MTK3482:3PMBY0YE28A66Q45LABHK7NZMVHC91", "dateTime": 1520619502465}, {"current_trial": 140, "trialdata": {"rt": -1, "trial_type": "single-stim", "word": "harp", "stimulus": "<p id=\"stim\">HARP</p>", "conditions": [24, 800, "v", 24000], "internal_node_id": "0.0-104.0", "trial": 3, "time_elapsed": 656260, "serialpos": 23, "key_press": -1, "wordID": 688, "type": "PRES_VIS", "trial_index": 140}, "uniqueid": "MTK3482:3PMBY0YE28A66Q45LABHK7NZMVHC91", "dateTime": 1520619504434}, {"current_trial": 141, "trialdata": {"rt": -1, "trial_type": "single-stim", "stimulus": "", "internal_node_id": "0.0-105.0-0.0", "time_elapsed": 658640, "key_press": -1, "type": "PRE_RECALL_DELAY", "trial_index": 141}, "uniqueid": "MTK3482:3PMBY0YE28A66Q45LABHK7NZMVHC91", "dateTime": 1520619506814}, {"current_trial": 142, "trialdata": {"rt": -1000, "trial_type": "single-audio", "stimulus": "/static/audio/400Hz.wav", "internal_node_id": "0.0-106.0", "time_elapsed": 659149, "key_press": -1, "type": "PRE_RECALL_ALERT", "trial_index": 142}, "uniqueid": "MTK3482:3PMBY0YE28A66Q45LABHK7NZMVHC91", "dateTime": 1520619507323}, {"current_trial": 143, "trialdata": {"rt": [2986, 6467, 8749, 13907, 16680, 22458, 26871, 29072, 34024, 48905], "recwords": ["harp", "banjo", "fox", "piano", "pimple", "xerox", "money", "grape", "dragon", "parrot"], "key_times": [1466, 1626, 1933, 2282, 2986, 4321, 4478, 4595, 4915, 5215, 6467, 7474, 7748, 8047, 8749, 11024, 11401, 11628, 11832, 12134, 13907, 15328, 15600, 15819, 16089, 16286, 16466, 16680, 20705, 20967, 21167, 21588, 21895, 22458, 25049, 25245, 25545, 25739, 25869, 26871, 28141, 28311, 28568, 28695, 28842, 29072, 31528, 31664, 31824, 32065, 32801, 33144, 34024, 47793, 47977, 48265, 48409, 48577, 48689, 48905], "trial_type": "free-recall", "conditions": [24, 800, "v", 24000], "internal_node_id": "0.0-107.0-0.0", "key_presses": [72, 65, 82, 80, 13, 66, 65, 78, 74, 79, 13, 70, 79, 88, 13, 80, 73, 65, 78, 79, 13, 80, 73, 77, 80, 76, 69, 13, 88, 69, 82, 79, 88, 13, 77, 79, 78, 69, 89, 13, 71, 82, 65, 80, 69, 13, 68, 82, 65, 71, 79, 78, 13, 80, 65, 82, 82, 79, 84, 13], "trial": 3, "time_elapsed": 719150, "type": "FREE_RECALL", "trial_index": 143}, "uniqueid": "MTK3482:3PMBY0YE28A66Q45LABHK7NZMVHC91", "dateTime": 1520619567327}, {"current_trial": 144, "trialdata": {"rt": 1669, "trial_type": "text", "internal_node_id": "0.0-108.0", "time_elapsed": 722822, "key_press": 32, "type": "INSTRUCTIONS", "trial_index": 144}, "uniqueid": "MTK3482:3PMBY0YE28A66Q45LABHK7NZMVHC91", "dateTime": 1520619570996}, {"current_trial": 145, "trialdata": {"rt": [2141, 4421, 6565, 8612, 10268], "trial_type": "math-distractor", "key_times": [1677, 1949, 2141, 4037, 4213, 4421, 5925, 6205, 6565, 8141, 8340, 8612, 9812, 10022, 10268], "responses": ["14", "22", "14", "10", "11"], "num2": [3, 7, 9, 5, 3, 9], "num3": [7, 7, 1, 3, 3, 9], "conditions": [24, 800, "v", 12000], "internal_node_id": "0.0-109.0", "key_presses": [49, 52, 13, 50, 50, 13, 49, 52, 13, 49, 48, 13, 49, 49, 13], "trial": 4, "time_elapsed": 736824, "type": "DISTRACTOR", "trial_index": 145, "num1": [4, 8, 4, 2, 5, 7]}, "uniqueid": "MTK3482:3PMBY0YE28A66Q45LABHK7NZMVHC91", "dateTime": 1520619584999}, {"current_trial": 146, "trialdata": {"rt": -1, "trial_type": "single-stim", "stimulus": "<p id=\"stim\">10</p>", "internal_node_id": "0.0-110.0-0.0", "time_elapsed": 739825, "key_press": -1, "trial_index": 146}, "uniqueid": "MTK3482:3PMBY0YE28A66Q45LABHK7NZMVHC91", "dateTime": 1520619587999}, {"current_trial": 147, "trialdata": {"rt": -1, "trial_type": "single-stim", "stimulus": "<p id=\"stim\">9</p>", "internal_node_id": "0.0-110.0-1.0", "time_elapsed": 740826, "key_press": -1, "trial_index": 147}, "uniqueid": "MTK3482:3PMBY0YE28A66Q45LABHK7NZMVHC91", "dateTime": 1520619589001}, {"current_trial": 148, "trialdata": {"rt": -1, "trial_type": "single-stim", "stimulus": "<p id=\"stim\">8</p>", "internal_node_id": "0.0-110.0-2.0", "time_elapsed": 741827, "key_press": -1, "trial_index": 148}, "uniqueid": "MTK3482:3PMBY0YE28A66Q45LABHK7NZMVHC91", "dateTime": 1520619590001}, {"current_trial": 149, "trialdata": {"rt": -1, "trial_type": "single-stim", "stimulus": "<p id=\"stim\">7</p>", "internal_node_id": "0.0-110.0-3.0", "time_elapsed": 742830, "key_press": -1, "trial_index": 149}, "uniqueid": "MTK3482:3PMBY0YE28A66Q45LABHK7NZMVHC91", "dateTime": 1520619591004}, {"current_trial": 150, "trialdata": {"rt": -1, "trial_type": "single-stim", "stimulus": "<p id=\"stim\">6</p>", "internal_node_id": "0.0-110.0-4.0", "time_elapsed": 743832, "key_press": -1, "trial_index": 150}, "uniqueid": "MTK3482:3PMBY0YE28A66Q45LABHK7NZMVHC91", "dateTime": 1520619592006}, {"current_trial": 151, "trialdata": {"rt": -1, "trial_type": "single-stim", "stimulus": "<p id=\"stim\">5</p>", "internal_node_id": "0.0-110.0-5.0", "time_elapsed": 744833, "key_press": -1, "trial_index": 151}, "uniqueid": "MTK3482:3PMBY0YE28A66Q45LABHK7NZMVHC91", "dateTime": 1520619593007}, {"current_trial": 152, "trialdata": {"rt": -1, "trial_type": "single-stim", "stimulus": "<p id=\"stim\">4</p>", "internal_node_id": "0.0-110.0-6.0", "time_elapsed": 745835, "key_press": -1, "trial_index": 152}, "uniqueid": "MTK3482:3PMBY0YE28A66Q45LABHK7NZMVHC91", "dateTime": 1520619594009}, {"current_trial": 153, "trialdata": {"rt": -1, "trial_type": "single-stim", "stimulus": "<p id=\"stim\">3</p>", "internal_node_id": "0.0-110.0-7.0", "time_elapsed": 746837, "key_press": -1, "trial_index": 153}, "uniqueid": "MTK3482:3PMBY0YE28A66Q45LABHK7NZMVHC91", "dateTime": 1520619595011}, {"current_trial": 154, "trialdata": {"rt": -1, "trial_type": "single-stim", "stimulus": "<p id=\"stim\">2</p>", "internal_node_id": "0.0-110.0-8.0", "time_elapsed": 747837, "key_press": -1, "trial_index": 154}, "uniqueid": "MTK3482:3PMBY0YE28A66Q45LABHK7NZMVHC91", "dateTime": 1520619596011}, {"current_trial": 155, "trialdata": {"rt": -1, "trial_type": "single-stim", "stimulus": "<p id=\"stim\">1</p>", "internal_node_id": "0.0-110.0-9.0", "time_elapsed": 748837, "key_press": -1, "trial_index": 155}, "uniqueid": "MTK3482:3PMBY0YE28A66Q45LABHK7NZMVHC91", "dateTime": 1520619597011}, {"current_trial": 156, "trialdata": {"rt": -1, "trial_type": "single-stim", "stimulus": "<p id=\"stim\">+</p>", "internal_node_id": "0.0-111.0-0.0", "time_elapsed": 750337, "key_press": -1, "type": "FIXATION", "trial_index": 156}, "uniqueid": "MTK3482:3PMBY0YE28A66Q45LABHK7NZMVHC91", "dateTime": 1520619598511}, {"current_trial": 157, "trialdata": {"rt": -1, "trial_type": "single-stim", "word": "missile", "stimulus": "<p id=\"stim\">MISSILE</p>", "conditions": [24, 800, "v", 12000], "internal_node_id": "0.0-112.0", "trial": 4, "time_elapsed": 751138, "serialpos": 0, "key_press": -1, "wordID": 899, "type": "PRES_VIS", "trial_index": 157}, "uniqueid": "MTK3482:3PMBY0YE28A66Q45LABHK7NZMVHC91", "dateTime": 1520619599312}, {"current_trial": 158, "trialdata": {"rt": -1, "trial_type": "single-stim", "word": "picture", "stimulus": "<p id=\"stim\">PICTURE</p>", "conditions": [24, 800, "v", 12000], "internal_node_id": "0.0-113.0", "trial": 4, "time_elapsed": 753036, "serialpos": 1, "key_press": -1, "wordID": 1060, "type": "PRES_VIS", "trial_index": 158}, "uniqueid": "MTK3482:3PMBY0YE28A66Q45LABHK7NZMVHC91", "dateTime": 1520619601210}, {"current_trial": 159, "trialdata": {"rt": -1, "trial_type": "single-stim", "word": "costume", "stimulus": "<p id=\"stim\">COSTUME</p>", "conditions": [24, 800, "v", 12000], "internal_node_id": "0.0-114.0", "trial": 4, "time_elapsed": 754685, "serialpos": 2, "key_press": -1, "wordID": 382, "type": "PRES_VIS", "trial_index": 159}, "uniqueid": "MTK3482:3PMBY0YE28A66Q45LABHK7NZMVHC91", "dateTime": 1520619602859}, {"current_trial": 160, "trialdata": {"rt": -1, "trial_type": "single-stim", "word": "laser", "stimulus": "<p id=\"stim\">LASER</p>", "conditions": [24, 800, "v", 12000], "internal_node_id": "0.0-115.0", "trial": 4, "time_elapsed": 756629, "serialpos": 3, "key_press": -1, "wordID": 800, "type": "PRES_VIS", "trial_index": 160}, "uniqueid": "MTK3482:3PMBY0YE28A66Q45LABHK7NZMVHC91", "dateTime": 1520619604803}, {"current_trial": 161, "trialdata": {"rt": -1, "trial_type": "single-stim", "word": "barrel", "stimulus": "<p id=\"stim\">BARREL</p>", "conditions": [24, 800, "v", 12000], "internal_node_id": "0.0-116.0", "trial": 4, "time_elapsed": 758466, "serialpos": 4, "key_press": -1, "wordID": 90, "type": "PRES_VIS", "trial_index": 161}, "uniqueid": "MTK3482:3PMBY0YE28A66Q45LABHK7NZMVHC91", "dateTime": 1520619606640}, {"current_trial": 162, "trialdata": {"rt": -1, "trial_type": "single-stim", "word": "partner", "stimulus": "<p id=\"stim\">PARTNER</p>", "conditions": [24, 800, "v", 12000], "internal_node_id": "0.0-117.0", "trial": 4, "time_elapsed": 760178, "serialpos": 5, "key_press": -1, "wordID": 1016, "type": "PRES_VIS", "trial_index": 162}, "uniqueid": "MTK3482:3PMBY0YE28A66Q45LABHK7NZMVHC91", "dateTime": 1520619608352}, {"current_trial": 163, "trialdata": {"rt": -1, "trial_type": "single-stim", "word": "country", "stimulus": "<p id=\"stim\">COUNTRY</p>", "conditions": [24, 800, "v", 12000], "internal_node_id": "0.0-118.0", "trial": 4, "time_elapsed": 761930, "serialpos": 6, "key_press": -1, "wordID": 387, "type": "PRES_VIS", "trial_index": 163}, "uniqueid": "MTK3482:3PMBY0YE28A66Q45LABHK7NZMVHC91", "dateTime": 1520619610104}, {"current_trial": 164, "trialdata": {"rt": -1, "trial_type": "single-stim", "word": "gallon", "stimulus": "<p id=\"stim\">GALLON</p>", "conditions": [24, 800, "v", 12000], "internal_node_id": "0.0-119.0", "trial": 4, "time_elapsed": 763916, "serialpos": 7, "key_press": -1, "wordID": 617, "type": "PRES_VIS", "trial_index": 164}, "uniqueid": "MTK3482:3PMBY0YE28A66Q45LABHK7NZMVHC91", "dateTime": 1520619612090}, {"current_trial": 165, "trialdata": {"rt": -1, "trial_type": "single-stim", "word": "blade", "stimulus": "<p id=\"stim\">BLADE</p>", "conditions": [24, 800, "v", 12000], "internal_node_id": "0.0-120.0", "trial": 4, "time_elapsed": 765754, "serialpos": 8, "key_press": -1, "wordID": 133, "type": "PRES_VIS", "trial_index": 165}, "uniqueid": "MTK3482:3PMBY0YE28A66Q45LABHK7NZMVHC91", "dateTime": 1520619613928}, {"current_trial": 166, "trialdata": {"rt": -1, "trial_type": "single-stim", "word": "turtle", "stimulus": "<p id=\"stim\">TURTLE</p>", "conditions": [24, 800, "v", 12000], "internal_node_id": "0.0-121.0", "trial": 4, "time_elapsed": 767652, "serialpos": 9, "key_press": -1, "wordID": 1521, "type": "PRES_VIS", "trial_index": 166}, "uniqueid": "MTK3482:3PMBY0YE28A66Q45LABHK7NZMVHC91", "dateTime": 1520619615826}, {"current_trial": 167, "trialdata": {"rt": -1, "trial_type": "single-stim", "word": "parsley", "stimulus": "<p id=\"stim\">PARSLEY</p>", "conditions": [24, 800, "v", 12000], "internal_node_id": "0.0-122.0", "trial": 4, "time_elapsed": 769538, "serialpos": 10, "key_press": -1, "wordID": 1015, "type": "PRES_VIS", "trial_index": 167}, "uniqueid": "MTK3482:3PMBY0YE28A66Q45LABHK7NZMVHC91", "dateTime": 1520619617712}, {"current_trial": 168, "trialdata": {"rt": -1, "trial_type": "single-stim", "word": "garlic", "stimulus": "<p id=\"stim\">GARLIC</p>", "conditions": [24, 800, "v", 12000], "internal_node_id": "0.0-123.0", "trial": 4, "time_elapsed": 771328, "serialpos": 11, "key_press": -1, "wordID": 623, "type": "PRES_VIS", "trial_index": 168}, "uniqueid": "MTK3482:3PMBY0YE28A66Q45LABHK7NZMVHC91", "dateTime": 1520619619502}, {"current_trial": 169, "trialdata": {"rt": -1, "trial_type": "single-stim", "word": "silk", "stimulus": "<p id=\"stim\">SILK</p>", "conditions": [24, 800, "v", 12000], "internal_node_id": "0.0-124.0", "trial": 4, "time_elapsed": 773033, "serialpos": 12, "key_press": -1, "wordID": 1306, "type": "PRES_VIS", "trial_index": 169}, "uniqueid": "MTK3482:3PMBY0YE28A66Q45LABHK7NZMVHC91", "dateTime": 1520619621207}, {"current_trial": 170, "trialdata": {"rt": -1, "trial_type": "single-stim", "word": "twister", "stimulus": "<p id=\"stim\">TWISTER</p>", "conditions": [24, 800, "v", 12000], "internal_node_id": "0.0-125.0", "trial": 4, "time_elapsed": 774868, "serialpos": 13, "key_press": -1, "wordID": 1529, "type": "PRES_VIS", "trial_index": 170}, "uniqueid": "MTK3482:3PMBY0YE28A66Q45LABHK7NZMVHC91", "dateTime": 1520619623042}, {"current_trial": 171, "trialdata": {"rt": -1, "trial_type": "single-stim", "word": "sculpture", "stimulus": "<p id=\"stim\">SCULPTURE</p>", "conditions": [24, 800, "v", 12000], "internal_node_id": "0.0-126.0", "trial": 4, "time_elapsed": 776478, "serialpos": 14, "key_press": -1, "wordID": 1257, "type": "PRES_VIS", "trial_index": 171}, "uniqueid": "MTK3482:3PMBY0YE28A66Q45LABHK7NZMVHC91", "dateTime": 1520619624652}, {"current_trial": 172, "trialdata": {"rt": -1, "trial_type": "single-stim", "word": "student", "stimulus": "<p id=\"stim\">STUDENT</p>", "conditions": [24, 800, "v", 12000], "internal_node_id": "0.0-127.0", "trial": 4, "time_elapsed": 778393, "serialpos": 15, "key_press": -1, "wordID": 1394, "type": "PRES_VIS", "trial_index": 172}, "uniqueid": "MTK3482:3PMBY0YE28A66Q45LABHK7NZMVHC91", "dateTime": 1520619626567}, {"current_trial": 173, "trialdata": {"rt": -1, "trial_type": "single-stim", "word": "flute", "stimulus": "<p id=\"stim\">FLUTE</p>", "conditions": [24, 800, "v", 12000], "internal_node_id": "0.0-128.0", "trial": 4, "time_elapsed": 780125, "serialpos": 16, "key_press": -1, "wordID": 584, "type": "PRES_VIS", "trial_index": 173}, "uniqueid": "MTK3482:3PMBY0YE28A66Q45LABHK7NZMVHC91", "dateTime": 1520619628299}, {"current_trial": 174, "trialdata": {"rt": -1, "trial_type": "single-stim", "word": "snail", "stimulus": "<p id=\"stim\">SNAIL</p>", "conditions": [24, 800, "v", 12000], "internal_node_id": "0.0-129.0", "trial": 4, "time_elapsed": 781847, "serialpos": 17, "key_press": -1, "wordID": 1331, "type": "PRES_VIS", "trial_index": 174}, "uniqueid": "MTK3482:3PMBY0YE28A66Q45LABHK7NZMVHC91", "dateTime": 1520619630021}, {"current_trial": 175, "trialdata": {"rt": -1, "trial_type": "single-stim", "word": "tortoise", "stimulus": "<p id=\"stim\">TORTOISE</p>", "conditions": [24, 800, "v", 12000], "internal_node_id": "0.0-130.0", "trial": 4, "time_elapsed": 783480, "serialpos": 18, "key_press": -1, "wordID": 1485, "type": "PRES_VIS", "trial_index": 175}, "uniqueid": "MTK3482:3PMBY0YE28A66Q45LABHK7NZMVHC91", "dateTime": 1520619631654}, {"current_trial": 176, "trialdata": {"rt": -1, "trial_type": "single-stim", "word": "river", "stimulus": "<p id=\"stim\">RIVER</p>", "conditions": [24, 800, "v", 12000], "internal_node_id": "0.0-131.0", "trial": 4, "time_elapsed": 785447, "serialpos": 19, "key_press": -1, "wordID": 1193, "type": "PRES_VIS", "trial_index": 176}, "uniqueid": "MTK3482:3PMBY0YE28A66Q45LABHK7NZMVHC91", "dateTime": 1520619633623}, {"current_trial": 177, "trialdata": {"rt": -1, "trial_type": "single-stim", "word": "rattle", "stimulus": "<p id=\"stim\">RATTLE</p>", "conditions": [24, 800, "v", 12000], "internal_node_id": "0.0-132.0", "trial": 4, "time_elapsed": 787444, "serialpos": 20, "key_press": -1, "wordID": 1169, "type": "PRES_VIS", "trial_index": 177}, "uniqueid": "MTK3482:3PMBY0YE28A66Q45LABHK7NZMVHC91", "dateTime": 1520619635618}, {"current_trial": 178, "trialdata": {"rt": -1, "trial_type": "single-stim", "word": "mop", "stimulus": "<p id=\"stim\">MOP</p>", "conditions": [24, 800, "v", 12000], "internal_node_id": "0.0-133.0", "trial": 4, "time_elapsed": 789259, "serialpos": 21, "key_press": -1, "wordID": 915, "type": "PRES_VIS", "trial_index": 178}, "uniqueid": "MTK3482:3PMBY0YE28A66Q45LABHK7NZMVHC91", "dateTime": 1520619637433}, {"current_trial": 179, "trialdata": {"rt": -1, "trial_type": "single-stim", "word": "lagoon", "stimulus": "<p id=\"stim\">LAGOON</p>", "conditions": [24, 800, "v", 12000], "internal_node_id": "0.0-134.0", "trial": 4, "time_elapsed": 791029, "serialpos": 22, "key_press": -1, "wordID": 794, "type": "PRES_VIS", "trial_index": 179}, "uniqueid": "MTK3482:3PMBY0YE28A66Q45LABHK7NZMVHC91", "dateTime": 1520619639203}, {"current_trial": 180, "trialdata": {"rt": -1, "trial_type": "single-stim", "word": "padding", "stimulus": "<p id=\"stim\">PADDING</p>", "conditions": [24, 800, "v", 12000], "internal_node_id": "0.0-135.0", "trial": 4, "time_elapsed": 792733, "serialpos": 23, "key_press": -1, "wordID": 998, "type": "PRES_VIS", "trial_index": 180}, "uniqueid": "MTK3482:3PMBY0YE28A66Q45LABHK7NZMVHC91", "dateTime": 1520619640907}, {"current_trial": 181, "trialdata": {"rt": -1, "trial_type": "single-stim", "stimulus": "", "internal_node_id": "0.0-136.0-0.0", "time_elapsed": 795168, "key_press": -1, "type": "PRE_RECALL_DELAY", "trial_index": 181}, "uniqueid": "MTK3482:3PMBY0YE28A66Q45LABHK7NZMVHC91", "dateTime": 1520619643343}, {"current_trial": 182, "trialdata": {"rt": -1000, "trial_type": "single-audio", "stimulus": "/static/audio/400Hz.wav", "internal_node_id": "0.0-137.0", "time_elapsed": 795678, "key_press": -1, "type": "PRE_RECALL_ALERT", "trial_index": 182}, "uniqueid": "MTK3482:3PMBY0YE28A66Q45LABHK7NZMVHC91", "dateTime": 1520619643852}, {"current_trial": 183, "trialdata": {"rt": [3588, 6758, 10929, 13495, 18957, 26311, 36330, 42315, 48339], "recwords": ["padding", "lagoon", "rattle", "silk", "turtle", "flute", "missile", "garlic", "gallon"], "key_times": [1763, 1981, 2225, 2400, 2574, 2812, 2952, 3588, 4757, 4956, 5344, 5700, 5838, 6112, 6758, 7523, 7666, 7836, 7983, 8636, 8834, 10929, 12004, 12215, 12454, 12675, 13495, 17034, 17179, 17306, 17600, 17942, 18187, 18957, 24570, 24736, 25052, 25359, 25500, 26311, 34243, 34499, 34683, 34835, 34938, 35179, 35298, 36330, 40794, 40914, 41146, 41338, 41587, 41715, 42315, 46372, 46522, 46818, 46971, 47211, 47483, 48339], "trial_type": "free-recall", "conditions": [24, 800, "v", 12000], "internal_node_id": "0.0-138.0-0.0", "key_presses": [80, 65, 68, 68, 73, 78, 71, 13, 76, 65, 71, 79, 79, 78, 13, 82, 65, 84, 84, 76, 69, 13, 83, 73, 76, 75, 13, 84, 85, 82, 84, 76, 69, 13, 70, 76, 85, 84, 69, 13, 77, 73, 83, 83, 73, 76, 69, 13, 71, 65, 82, 76, 73, 67, 13, 71, 65, 76, 76, 79, 78, 13], "trial": 4, "time_elapsed": 855677, "type": "FREE_RECALL", "trial_index": 183}, "uniqueid": "MTK3482:3PMBY0YE28A66Q45LABHK7NZMVHC91", "dateTime": 1520619703854}, {"current_trial": 184, "trialdata": {"rt": 1112, "trial_type": "text", "internal_node_id": "0.0-139.0", "time_elapsed": 858793, "key_press": 13, "type": "INSTRUCTIONS", "trial_index": 184}, "uniqueid": "MTK3482:3PMBY0YE28A66Q45LABHK7NZMVHC91", "dateTime": 1520619706967}, {"current_trial": 185, "trialdata": {"rt": [2047, 4239, 6014, 8206, 10077, 12214, 14263, 16150, 17887, 19695, 21749], "trial_type": "math-distractor", "key_times": [1606, 1798, 2047, 3703, 4046, 4239, 5863, 6014, 7407, 7943, 8206, 9345, 9901, 10077, 11526, 12046, 12214, 13671, 14078, 14263, 15839, 16023, 16150, 17319, 17743, 17887, 18999, 19518, 19695, 20877, 21262, 21342, 21749, 23950], "responses": ["18", "14", "9", "16", "18", "18", "18", "23", "16", "19", "144"], "num2": [8, 2, 4, 8, 8, 9, 9, 8, 6, 6, 5, 5], "num3": [7, 7, 4, 5, 8, 2, 5, 8, 5, 6, 5, 7], "conditions": [12, 1600, "v", 24000], "internal_node_id": "0.0-140.0", "key_presses": [49, 56, 13, 49, 52, 13, 57, 13, 49, 54, 13, 49, 56, 13, 49, 56, 13, 49, 56, 13, 50, 51, 13, 49, 54, 13, 49, 57, 13, 49, 52, 52, 13, 49], "trial": 5, "time_elapsed": 884794, "type": "DISTRACTOR", "trial_index": 185, "num1": [3, 5, 1, 3, 2, 7, 4, 7, 5, 7, 4, 5]}, "uniqueid": "MTK3482:3PMBY0YE28A66Q45LABHK7NZMVHC91", "dateTime": 1520619732969}, {"current_trial": 186, "trialdata": {"rt": -1, "trial_type": "single-stim", "stimulus": "<p id=\"stim\">10</p>", "internal_node_id": "0.0-141.0-0.0", "time_elapsed": 887795, "key_press": -1, "trial_index": 186}, "uniqueid": "MTK3482:3PMBY0YE28A66Q45LABHK7NZMVHC91", "dateTime": 1520619735969}, {"current_trial": 187, "trialdata": {"rt": -1, "trial_type": "single-stim", "stimulus": "<p id=\"stim\">9</p>", "internal_node_id": "0.0-141.0-1.0", "time_elapsed": 888795, "key_press": -1, "trial_index": 187}, "uniqueid": "MTK3482:3PMBY0YE28A66Q45LABHK7NZMVHC91", "dateTime": 1520619736969}, {"current_trial": 188, "trialdata": {"rt": -1, "trial_type": "single-stim", "stimulus": "<p id=\"stim\">8</p>", "internal_node_id": "0.0-141.0-2.0", "time_elapsed": 889795, "key_press": -1, "trial_index": 188}, "uniqueid": "MTK3482:3PMBY0YE28A66Q45LABHK7NZMVHC91", "dateTime": 1520619737969}, {"current_trial": 189, "trialdata": {"rt": -1, "trial_type": "single-stim", "stimulus": "<p id=\"stim\">7</p>", "internal_node_id": "0.0-141.0-3.0", "time_elapsed": 890796, "key_press": -1, "trial_index": 189}, "uniqueid": "MTK3482:3PMBY0YE28A66Q45LABHK7NZMVHC91", "dateTime": 1520619738970}, {"current_trial": 190, "trialdata": {"rt": -1, "trial_type": "single-stim", "stimulus": "<p id=\"stim\">6</p>", "internal_node_id": "0.0-141.0-4.0", "time_elapsed": 891796, "key_press": -1, "trial_index": 190}, "uniqueid": "MTK3482:3PMBY0YE28A66Q45LABHK7NZMVHC91", "dateTime": 1520619739970}, {"current_trial": 191, "trialdata": {"rt": -1, "trial_type": "single-stim", "stimulus": "<p id=\"stim\">5</p>", "internal_node_id": "0.0-141.0-5.0", "time_elapsed": 892796, "key_press": -1, "trial_index": 191}, "uniqueid": "MTK3482:3PMBY0YE28A66Q45LABHK7NZMVHC91", "dateTime": 1520619740970}, {"current_trial": 192, "trialdata": {"rt": -1, "trial_type": "single-stim", "stimulus": "<p id=\"stim\">4</p>", "internal_node_id": "0.0-141.0-6.0", "time_elapsed": 893795, "key_press": -1, "trial_index": 192}, "uniqueid": "MTK3482:3PMBY0YE28A66Q45LABHK7NZMVHC91", "dateTime": 1520619741969}, {"current_trial": 193, "trialdata": {"rt": -1, "trial_type": "single-stim", "stimulus": "<p id=\"stim\">3</p>", "internal_node_id": "0.0-141.0-7.0", "time_elapsed": 894796, "key_press": -1, "trial_index": 193}, "uniqueid": "MTK3482:3PMBY0YE28A66Q45LABHK7NZMVHC91", "dateTime": 1520619742970}, {"current_trial": 194, "trialdata": {"rt": -1, "trial_type": "single-stim", "stimulus": "<p id=\"stim\">2</p>", "internal_node_id": "0.0-141.0-8.0", "time_elapsed": 895795, "key_press": -1, "trial_index": 194}, "uniqueid": "MTK3482:3PMBY0YE28A66Q45LABHK7NZMVHC91", "dateTime": 1520619743969}, {"current_trial": 195, "trialdata": {"rt": -1, "trial_type": "single-stim", "stimulus": "<p id=\"stim\">1</p>", "internal_node_id": "0.0-141.0-9.0", "time_elapsed": 896796, "key_press": -1, "trial_index": 195}, "uniqueid": "MTK3482:3PMBY0YE28A66Q45LABHK7NZMVHC91", "dateTime": 1520619744970}, {"current_trial": 196, "trialdata": {"rt": -1, "trial_type": "single-stim", "stimulus": "<p id=\"stim\">+</p>", "internal_node_id": "0.0-142.0-0.0", "time_elapsed": 898296, "key_press": -1, "type": "FIXATION", "trial_index": 196}, "uniqueid": "MTK3482:3PMBY0YE28A66Q45LABHK7NZMVHC91", "dateTime": 1520619746470}, {"current_trial": 197, "trialdata": {"rt": -1, "trial_type": "single-stim", "word": "rebel", "stimulus": "<p id=\"stim\">REBEL</p>", "conditions": [12, 1600, "v", 24000], "internal_node_id": "0.0-143.0", "trial": 5, "time_elapsed": 899898, "serialpos": 0, "key_press": -1, "wordID": 1171, "type": "PRES_VIS", "trial_index": 197}, "uniqueid": "MTK3482:3PMBY0YE28A66Q45LABHK7NZMVHC91", "dateTime": 1520619748072}, {"current_trial": 198, "trialdata": {"rt": -1, "trial_type": "single-stim", "word": "cook", "stimulus": "<p id=\"stim\">COOK</p>", "conditions": [12, 1600, "v", 24000], "internal_node_id": "0.0-144.0", "trial": 5, "time_elapsed": 902664, "serialpos": 1, "key_press": -1, "wordID": 371, "type": "PRES_VIS", "trial_index": 198}, "uniqueid": "MTK3482:3PMBY0YE28A66Q45LABHK7NZMVHC91", "dateTime": 1520619750838}, {"current_trial": 199, "trialdata": {"rt": -1, "trial_type": "single-stim", "word": "cobra", "stimulus": "<p id=\"stim\">COBRA</p>", "conditions": [12, 1600, "v", 24000], "internal_node_id": "0.0-145.0", "trial": 5, "time_elapsed": 905356, "serialpos": 2, "key_press": -1, "wordID": 335, "type": "PRES_VIS", "trial_index": 199}, "uniqueid": "MTK3482:3PMBY0YE28A66Q45LABHK7NZMVHC91", "dateTime": 1520619753530}, {"current_trial": 200, "trialdata": {"rt": -1, "trial_type": "single-stim", "word": "patrol", "stimulus": "<p id=\"stim\">PATROL</p>", "conditions": [12, 1600, "v", 24000], "internal_node_id": "0.0-146.0", "trial": 5, "time_elapsed": 907769, "serialpos": 3, "key_press": -1, "wordID": 1026, "type": "PRES_VIS", "trial_index": 200}, "uniqueid": "MTK3482:3PMBY0YE28A66Q45LABHK7NZMVHC91", "dateTime": 1520619755943}, {"current_trial": 201, "trialdata": {"rt": -1, "trial_type": "single-stim", "word": "actor", "stimulus": "<p id=\"stim\">ACTOR</p>", "conditions": [12, 1600, "v", 24000], "internal_node_id": "0.0-147.0", "trial": 5, "time_elapsed": 910263, "serialpos": 4, "key_press": -1, "wordID": 4, "type": "PRES_VIS", "trial_index": 201}, "uniqueid": "MTK3482:3PMBY0YE28A66Q45LABHK7NZMVHC91", "dateTime": 1520619758438}, {"current_trial": 202, "trialdata": {"rt": -1, "trial_type": "single-stim", "word": "lizard", "stimulus": "<p id=\"stim\">LIZARD</p>", "conditions": [12, 1600, "v", 24000], "internal_node_id": "0.0-148.0", "trial": 5, "time_elapsed": 912907, "serialpos": 5, "key_press": -1, "wordID": 833, "type": "PRES_VIS", "trial_index": 202}, "uniqueid": "MTK3482:3PMBY0YE28A66Q45LABHK7NZMVHC91", "dateTime": 1520619761081}, {"current_trial": 203, "trialdata": {"rt": -1, "trial_type": "single-stim", "word": "yacht", "stimulus": "<p id=\"stim\">YACHT</p>", "conditions": [12, 1600, "v", 24000], "internal_node_id": "0.0-149.0", "trial": 5, "time_elapsed": 915397, "serialpos": 6, "key_press": -1, "wordID": 1628, "type": "PRES_VIS", "trial_index": 203}, "uniqueid": "MTK3482:3PMBY0YE28A66Q45LABHK7NZMVHC91", "dateTime": 1520619763571}, {"current_trial": 204, "trialdata": {"rt": -1, "trial_type": "single-stim", "word": "shrub", "stimulus": "<p id=\"stim\">SHRUB</p>", "conditions": [12, 1600, "v", 24000], "internal_node_id": "0.0-150.0", "trial": 5, "time_elapsed": 917912, "serialpos": 7, "key_press": -1, "wordID": 1298, "type": "PRES_VIS", "trial_index": 204}, "uniqueid": "MTK3482:3PMBY0YE28A66Q45LABHK7NZMVHC91", "dateTime": 1520619766086}, {"current_trial": 205, "trialdata": {"rt": -1, "trial_type": "single-stim", "word": "garden", "stimulus": "<p id=\"stim\">GARDEN</p>", "conditions": [12, 1600, "v", 24000], "internal_node_id": "0.0-151.0", "trial": 5, "time_elapsed": 920705, "serialpos": 8, "key_press": -1, "wordID": 622, "type": "PRES_VIS", "trial_index": 205}, "uniqueid": "MTK3482:3PMBY0YE28A66Q45LABHK7NZMVHC91", "dateTime": 1520619768879}, {"current_trial": 206, "trialdata": {"rt": -1, "trial_type": "single-stim", "word": "pork", "stimulus": "<p id=\"stim\">PORK</p>", "conditions": [12, 1600, "v", 24000], "internal_node_id": "0.0-152.0", "trial": 5, "time_elapsed": 923276, "serialpos": 9, "key_press": -1, "wordID": 1107, "type": "PRES_VIS", "trial_index": 206}, "uniqueid": "MTK3482:3PMBY0YE28A66Q45LABHK7NZMVHC91", "dateTime": 1520619771450}, {"current_trial": 207, "trialdata": {"rt": -1, "trial_type": "single-stim", "word": "maple", "stimulus": "<p id=\"stim\">MAPLE</p>", "conditions": [12, 1600, "v", 24000], "internal_node_id": "0.0-153.0", "trial": 5, "time_elapsed": 925728, "serialpos": 10, "key_press": -1, "wordID": 865, "type": "PRES_VIS", "trial_index": 207}, "uniqueid": "MTK3482:3PMBY0YE28A66Q45LABHK7NZMVHC91", "dateTime": 1520619773902}, {"current_trial": 208, "trialdata": {"rt": -1, "trial_type": "single-stim", "word": "possum", "stimulus": "<p id=\"stim\">POSSUM</p>", "conditions": [12, 1600, "v", 24000], "internal_node_id": "0.0-154.0", "trial": 5, "time_elapsed": 928354, "serialpos": 11, "key_press": -1, "wordID": 1111, "type": "PRES_VIS", "trial_index": 208}, "uniqueid": "MTK3482:3PMBY0YE28A66Q45LABHK7NZMVHC91", "dateTime": 1520619776528}, {"current_trial": 209, "trialdata": {"rt": -1, "trial_type": "single-stim", "stimulus": "", "internal_node_id": "0.0-155.0-0.0", "time_elapsed": 930749, "key_press": -1, "type": "PRE_RECALL_DELAY", "trial_index": 209}, "uniqueid": "MTK3482:3PMBY0YE28A66Q45LABHK7NZMVHC91", "dateTime": 1520619778923}, {"current_trial": 210, "trialdata": {"rt": -1000, "trial_type": "single-audio", "stimulus": "/static/audio/400Hz.wav", "internal_node_id": "0.0-156.0", "time_elapsed": 931252, "key_press": -1, "type": "PRE_RECALL_ALERT", "trial_index": 210}, "uniqueid": "MTK3482:3PMBY0YE28A66Q45LABHK7NZMVHC91", "dateTime": 1520619779426}, {"current_trial": 211, "trialdata": {"rt": [4214, 6160, 8625, 16424, 24985, 37105], "recwords": ["possum", "pork", "maple", "cook", "lizard", "actor"], "key_times": [2549, 2849, 3129, 3297, 3558, 3821, 4214, 5178, 5409, 5566, 5702, 6160, 7345, 7472, 7665, 7885, 8006, 8625, 15569, 15703, 15850, 16079, 16424, 23280, 23531, 23723, 23935, 24104, 24251, 24985, 35585, 35913, 36217, 36689, 36880, 37105], "trial_type": "free-recall", "conditions": [12, 1600, "v", 24000], "internal_node_id": "0.0-157.0-0.0", "key_presses": [80, 79, 83, 83, 85, 77, 13, 80, 79, 82, 75, 13, 77, 65, 80, 76, 69, 13, 67, 79, 79, 75, 13, 76, 73, 90, 65, 82, 68, 13, 65, 67, 84, 79, 82, 13], "trial": 5, "time_elapsed": 991253, "type": "FREE_RECALL", "trial_index": 211}, "uniqueid": "MTK3482:3PMBY0YE28A66Q45LABHK7NZMVHC91", "dateTime": 1520619839429}, {"current_trial": 212, "trialdata": {"rt": 2493, "trial_type": "text", "internal_node_id": "0.0-158.0", "time_elapsed": 995748, "key_press": 32, "type": "INSTRUCTIONS", "trial_index": 212}, "uniqueid": "MTK3482:3PMBY0YE28A66Q45LABHK7NZMVHC91", "dateTime": 1520619843922}, {"current_trial": 213, "trialdata": {"rt": [2542, 5438, 7557, 9725, 12117, 14453, 16757, 18324, 20460, 22869], "trial_type": "math-distractor", "key_times": [1790, 2118, 2510, 2542, 4750, 4942, 5438, 7389, 7557, 9063, 9549, 9725, 11589, 11957, 12117, 13638, 13957, 14453, 16309, 16437, 16757, 17844, 18148, 18324, 19589, 20140, 20460, 21894, 22517, 22869], "responses": ["17]", "11", "8", "20", "14", "13", "10", "13", "15", "19"], "num2": [9, 1, 3, 8, 6, 1, 3, 3, 4, 7, 5], "num3": [2, 4, 2, 7, 3, 5, 5, 4, 4, 5, 5], "conditions": [12, 800, "v", 24000], "internal_node_id": "0.0-159.0", "key_presses": [49, 55, 221, 13, 49, 49, 13, 56, 13, 50, 48, 13, 49, 52, 13, 49, 51, 13, 49, 48, 13, 49, 51, 13, 49, 53, 13, 49, 57, 13], "trial": 6, "time_elapsed": 1021749, "type": "DISTRACTOR", "trial_index": 213, "num1": [6, 6, 3, 5, 5, 7, 2, 6, 7, 7, 4]}, "uniqueid": "MTK3482:3PMBY0YE28A66Q45LABHK7NZMVHC91", "dateTime": 1520619869923}, {"current_trial": 214, "trialdata": {"rt": -1, "trial_type": "single-stim", "stimulus": "<p id=\"stim\">10</p>", "internal_node_id": "0.0-160.0-0.0", "time_elapsed": 1024749, "key_press": -1, "trial_index": 214}, "uniqueid": "MTK3482:3PMBY0YE28A66Q45LABHK7NZMVHC91", "dateTime": 1520619872923}, {"current_trial": 215, "trialdata": {"rt": -1, "trial_type": "single-stim", "stimulus": "<p id=\"stim\">9</p>", "internal_node_id": "0.0-160.0-1.0", "time_elapsed": 1025749, "key_press": -1, "trial_index": 215}, "uniqueid": "MTK3482:3PMBY0YE28A66Q45LABHK7NZMVHC91", "dateTime": 1520619873923}, {"current_trial": 216, "trialdata": {"rt": -1, "trial_type": "single-stim", "stimulus": "<p id=\"stim\">8</p>", "internal_node_id": "0.0-160.0-2.0", "time_elapsed": 1026749, "key_press": -1, "trial_index": 216}, "uniqueid": "MTK3482:3PMBY0YE28A66Q45LABHK7NZMVHC91", "dateTime": 1520619874923}, {"current_trial": 217, "trialdata": {"rt": -1, "trial_type": "single-stim", "stimulus": "<p id=\"stim\">7</p>", "internal_node_id": "0.0-160.0-3.0", "time_elapsed": 1027750, "key_press": -1, "trial_index": 217}, "uniqueid": "MTK3482:3PMBY0YE28A66Q45LABHK7NZMVHC91", "dateTime": 1520619875924}, {"current_trial": 218, "trialdata": {"rt": -1, "trial_type": "single-stim", "stimulus": "<p id=\"stim\">6</p>", "internal_node_id": "0.0-160.0-4.0", "time_elapsed": 1028750, "key_press": -1, "trial_index": 218}, "uniqueid": "MTK3482:3PMBY0YE28A66Q45LABHK7NZMVHC91", "dateTime": 1520619876924}, {"current_trial": 219, "trialdata": {"rt": -1, "trial_type": "single-stim", "stimulus": "<p id=\"stim\">5</p>", "internal_node_id": "0.0-160.0-5.0", "time_elapsed": 1029750, "key_press": -1, "trial_index": 219}, "uniqueid": "MTK3482:3PMBY0YE28A66Q45LABHK7NZMVHC91", "dateTime": 1520619877924}, {"current_trial": 220, "trialdata": {"rt": -1, "trial_type": "single-stim", "stimulus": "<p id=\"stim\">4</p>", "internal_node_id": "0.0-160.0-6.0", "time_elapsed": 1030750, "key_press": -1, "trial_index": 220}, "uniqueid": "MTK3482:3PMBY0YE28A66Q45LABHK7NZMVHC91", "dateTime": 1520619878924}, {"current_trial": 221, "trialdata": {"rt": -1, "trial_type": "single-stim", "stimulus": "<p id=\"stim\">3</p>", "internal_node_id": "0.0-160.0-7.0", "time_elapsed": 1031750, "key_press": -1, "trial_index": 221}, "uniqueid": "MTK3482:3PMBY0YE28A66Q45LABHK7NZMVHC91", "dateTime": 1520619879924}, {"current_trial": 222, "trialdata": {"rt": -1, "trial_type": "single-stim", "stimulus": "<p id=\"stim\">2</p>", "internal_node_id": "0.0-160.0-8.0", "time_elapsed": 1032750, "key_press": -1, "trial_index": 222}, "uniqueid": "MTK3482:3PMBY0YE28A66Q45LABHK7NZMVHC91", "dateTime": 1520619880925}, {"current_trial": 223, "trialdata": {"rt": -1, "trial_type": "single-stim", "stimulus": "<p id=\"stim\">1</p>", "internal_node_id": "0.0-160.0-9.0", "time_elapsed": 1033751, "key_press": -1, "trial_index": 223}, "uniqueid": "MTK3482:3PMBY0YE28A66Q45LABHK7NZMVHC91", "dateTime": 1520619881925}, {"current_trial": 224, "trialdata": {"rt": -1, "trial_type": "single-stim", "stimulus": "<p id=\"stim\">+</p>", "internal_node_id": "0.0-161.0-0.0", "time_elapsed": 1035251, "key_press": -1, "type": "FIXATION", "trial_index": 224}, "uniqueid": "MTK3482:3PMBY0YE28A66Q45LABHK7NZMVHC91", "dateTime": 1520619883425}, {"current_trial": 225, "trialdata": {"rt": -1, "trial_type": "single-stim", "word": "teacher", "stimulus": "<p id=\"stim\">TEACHER</p>", "conditions": [12, 800, "v", 24000], "internal_node_id": "0.0-162.0", "trial": 6, "time_elapsed": 1036053, "serialpos": 0, "key_press": -1, "wordID": 1439, "type": "PRES_VIS", "trial_index": 225}, "uniqueid": "MTK3482:3PMBY0YE28A66Q45LABHK7NZMVHC91", "dateTime": 1520619884227}, {"current_trial": 226, "trialdata": {"rt": -1, "trial_type": "single-stim", "word": "lake", "stimulus": "<p id=\"stim\">LAKE</p>", "conditions": [12, 800, "v", 24000], "internal_node_id": "0.0-163.0", "trial": 6, "time_elapsed": 1037729, "serialpos": 1, "key_press": -1, "wordID": 795, "type": "PRES_VIS", "trial_index": 226}, "uniqueid": "MTK3482:3PMBY0YE28A66Q45LABHK7NZMVHC91", "dateTime": 1520619885903}, {"current_trial": 227, "trialdata": {"rt": -1, "trial_type": "single-stim", "word": "plaza", "stimulus": "<p id=\"stim\">PLAZA</p>", "conditions": [12, 800, "v", 24000], "internal_node_id": "0.0-164.0", "trial": 6, "time_elapsed": 1039366, "serialpos": 2, "key_press": -1, "wordID": 1087, "type": "PRES_VIS", "trial_index": 227}, "uniqueid": "MTK3482:3PMBY0YE28A66Q45LABHK7NZMVHC91", "dateTime": 1520619887540}, {"current_trial": 228, "trialdata": {"rt": -1, "trial_type": "single-stim", "word": "icing", "stimulus": "<p id=\"stim\">ICING</p>", "conditions": [12, 800, "v", 24000], "internal_node_id": "0.0-165.0", "trial": 6, "time_elapsed": 1041015, "serialpos": 3, "key_press": -1, "wordID": 731, "type": "PRES_VIS", "trial_index": 228}, "uniqueid": "MTK3482:3PMBY0YE28A66Q45LABHK7NZMVHC91", "dateTime": 1520619889189}, {"current_trial": 229, "trialdata": {"rt": -1, "trial_type": "single-stim", "word": "dress", "stimulus": "<p id=\"stim\">DRESS</p>", "conditions": [12, 800, "v", 24000], "internal_node_id": "0.0-166.0", "trial": 6, "time_elapsed": 1042778, "serialpos": 4, "key_press": -1, "wordID": 494, "type": "PRES_VIS", "trial_index": 229}, "uniqueid": "MTK3482:3PMBY0YE28A66Q45LABHK7NZMVHC91", "dateTime": 1520619890952}, {"current_trial": 230, "trialdata": {"rt": -1, "trial_type": "single-stim", "word": "skirt", "stimulus": "<p id=\"stim\">SKIRT</p>", "conditions": [12, 800, "v", 24000], "internal_node_id": "0.0-167.0", "trial": 6, "time_elapsed": 1044558, "serialpos": 5, "key_press": -1, "wordID": 1318, "type": "PRES_VIS", "trial_index": 230}, "uniqueid": "MTK3482:3PMBY0YE28A66Q45LABHK7NZMVHC91", "dateTime": 1520619892732}, {"current_trial": 231, "trialdata": {"rt": -1, "trial_type": "single-stim", "word": "novel", "stimulus": "<p id=\"stim\">NOVEL</p>", "conditions": [12, 800, "v", 24000], "internal_node_id": "0.0-168.0", "trial": 6, "time_elapsed": 1046308, "serialpos": 6, "key_press": -1, "wordID": 959, "type": "PRES_VIS", "trial_index": 231}, "uniqueid": "MTK3482:3PMBY0YE28A66Q45LABHK7NZMVHC91", "dateTime": 1520619894482}, {"current_trial": 232, "trialdata": {"rt": -1, "trial_type": "single-stim", "word": "suitcase", "stimulus": "<p id=\"stim\">SUITCASE</p>", "conditions": [12, 800, "v", 24000], "internal_node_id": "0.0-169.0", "trial": 6, "time_elapsed": 1048083, "serialpos": 7, "key_press": -1, "wordID": 1402, "type": "PRES_VIS", "trial_index": 232}, "uniqueid": "MTK3482:3PMBY0YE28A66Q45LABHK7NZMVHC91", "dateTime": 1520619896257}, {"current_trial": 233, "trialdata": {"rt": -1, "trial_type": "single-stim", "word": "marsh", "stimulus": "<p id=\"stim\">MARSH</p>", "conditions": [12, 800, "v", 24000], "internal_node_id": "0.0-170.0", "trial": 6, "time_elapsed": 1049945, "serialpos": 8, "key_press": -1, "wordID": 873, "type": "PRES_VIS", "trial_index": 233}, "uniqueid": "MTK3482:3PMBY0YE28A66Q45LABHK7NZMVHC91", "dateTime": 1520619898119}, {"current_trial": 234, "trialdata": {"rt": -1, "trial_type": "single-stim", "word": "mustard", "stimulus": "<p id=\"stim\">MUSTARD</p>", "conditions": [12, 800, "v", 24000], "internal_node_id": "0.0-171.0", "trial": 6, "time_elapsed": 1051771, "serialpos": 9, "key_press": -1, "wordID": 934, "type": "PRES_VIS", "trial_index": 234}, "uniqueid": "MTK3482:3PMBY0YE28A66Q45LABHK7NZMVHC91", "dateTime": 1520619899945}, {"current_trial": 235, "trialdata": {"rt": -1, "trial_type": "single-stim", "word": "freckle", "stimulus": "<p id=\"stim\">FRECKLE</p>", "conditions": [12, 800, "v", 24000], "internal_node_id": "0.0-172.0", "trial": 6, "time_elapsed": 1053650, "serialpos": 10, "key_press": -1, "wordID": 601, "type": "PRES_VIS", "trial_index": 235}, "uniqueid": "MTK3482:3PMBY0YE28A66Q45LABHK7NZMVHC91", "dateTime": 1520619901824}, {"current_trial": 236, "trialdata": {"rt": -1, "trial_type": "single-stim", "word": "concert", "stimulus": "<p id=\"stim\">CONCERT</p>", "conditions": [12, 800, "v", 24000], "internal_node_id": "0.0-173.0", "trial": 6, "time_elapsed": 1055429, "serialpos": 11, "key_press": -1, "wordID": 359, "type": "PRES_VIS", "trial_index": 236}, "uniqueid": "MTK3482:3PMBY0YE28A66Q45LABHK7NZMVHC91", "dateTime": 1520619903603}, {"current_trial": 237, "trialdata": {"rt": -1, "trial_type": "single-stim", "stimulus": "", "internal_node_id": "0.0-174.0-0.0", "time_elapsed": 1057524, "key_press": -1, "type": "PRE_RECALL_DELAY", "trial_index": 237}, "uniqueid": "MTK3482:3PMBY0YE28A66Q45LABHK7NZMVHC91", "dateTime": 1520619905698}, {"current_trial": 238, "trialdata": {"rt": -1000, "trial_type": "single-audio", "stimulus": "/static/audio/400Hz.wav", "internal_node_id": "0.0-175.0", "time_elapsed": 1058026, "key_press": -1, "type": "PRE_RECALL_ALERT", "trial_index": 238}, "uniqueid": "MTK3482:3PMBY0YE28A66Q45LABHK7NZMVHC91", "dateTime": 1520619906200}, {"current_trial": 239, "trialdata": {"rt": [5854, 8583, 12583, 21004, 29155, 47877], "recwords": ["concert", "freckles", "marsh", "novel", "lake", "teacher"], "key_times": [3193, 3414, 3847, 4108, 4344, 4525, 4741, 5854, 6583, 6790, 6958, 7267, 7558, 7798, 8158, 8430, 8583, 9459, 10073, 10390, 10707, 11745, 12583, 18406, 19242, 19615, 19904, 20283, 21004, 25048, 25358, 25558, 26196, 26394, 27574, 27777, 27934, 29155, 41789, 42060, 42421, 43092, 45045, 45823, 46285, 47134, 47357, 47485, 47686, 47877], "trial_type": "free-recall", "conditions": [12, 800, "v", 24000], "internal_node_id": "0.0-176.0-0.0", "key_presses": [67, 79, 78, 67, 69, 82, 84, 13, 70, 82, 69, 67, 75, 76, 69, 83, 13, 77, 65, 82, 83, 72, 13, 78, 79, 86, 69, 76, 13, 76, 83, 75, 8, 8, 65, 75, 69, 13, 84, 69, 20, 65, 20, 8, 65, 67, 72, 69, 82, 13], "trial": 6, "time_elapsed": 1118026, "type": "FREE_RECALL", "trial_index": 239}, "uniqueid": "MTK3482:3PMBY0YE28A66Q45LABHK7NZMVHC91", "dateTime": 1520619966203}, {"current_trial": 240, "trialdata": {"rt": 1074, "trial_type": "text", "internal_node_id": "0.0-177.0", "time_elapsed": 1121103, "key_press": 32, "type": "INSTRUCTIONS", "trial_index": 240}, "uniqueid": "MTK3482:3PMBY0YE28A66Q45LABHK7NZMVHC91", "dateTime": 1520619969277}, {"current_trial": 241, "trialdata": {"rt": [2479, 4366, 6815, 8766, 11221, 13021, 15583, 17446, 19293, 21110, 23206], "trial_type": "math-distractor", "key_times": [2118, 2343, 2479, 3814, 4046, 4366, 6135, 6486, 6815, 7974, 8542, 8766, 10525, 11221, 12605, 12781, 13021, 15023, 15206, 15583, 17103, 17303, 17446, 18991, 19293, 20477, 20846, 21110, 22422, 22797, 23206], "responses": ["21", "18", "20", "16", "6", "11", "16", "23", "9", "13", "15"], "num2": [7, 4, 9, 6, 4, 9, 7, 7, 6, 5, 3, 6], "num3": [9, 7, 6, 5, 1, 1, 8, 9, 1, 2, 8, 8], "conditions": [24, 1600, "v", 24000], "internal_node_id": "0.0-178.0", "key_presses": [50, 49, 13, 49, 56, 13, 50, 48, 13, 49, 54, 13, 54, 13, 49, 49, 13, 49, 54, 13, 50, 51, 13, 57, 13, 49, 51, 13, 49, 53, 13], "trial": 7, "time_elapsed": 1147106, "type": "DISTRACTOR", "trial_index": 241, "num1": [5, 7, 5, 5, 1, 1, 1, 7, 2, 6, 4, 8]}, "uniqueid": "MTK3482:3PMBY0YE28A66Q45LABHK7NZMVHC91", "dateTime": 1520619995280}, {"current_trial": 242, "trialdata": {"rt": -1, "trial_type": "single-stim", "stimulus": "<p id=\"stim\">10</p>", "internal_node_id": "0.0-179.0-0.0", "time_elapsed": 1150105, "key_press": -1, "trial_index": 242}, "uniqueid": "MTK3482:3PMBY0YE28A66Q45LABHK7NZMVHC91", "dateTime": 1520619998279}, {"current_trial": 243, "trialdata": {"rt": -1, "trial_type": "single-stim", "stimulus": "<p id=\"stim\">9</p>", "internal_node_id": "0.0-179.0-1.0", "time_elapsed": 1151105, "key_press": -1, "trial_index": 243}, "uniqueid": "MTK3482:3PMBY0YE28A66Q45LABHK7NZMVHC91", "dateTime": 1520619999279}, {"current_trial": 244, "trialdata": {"rt": -1, "trial_type": "single-stim", "stimulus": "<p id=\"stim\">8</p>", "internal_node_id": "0.0-179.0-2.0", "time_elapsed": 1152105, "key_press": -1, "trial_index": 244}, "uniqueid": "MTK3482:3PMBY0YE28A66Q45LABHK7NZMVHC91", "dateTime": 1520620000279}, {"current_trial": 245, "trialdata": {"rt": -1, "trial_type": "single-stim", "stimulus": "<p id=\"stim\">7</p>", "internal_node_id": "0.0-179.0-3.0", "time_elapsed": 1153106, "key_press": -1, "trial_index": 245}, "uniqueid": "MTK3482:3PMBY0YE28A66Q45LABHK7NZMVHC91", "dateTime": 1520620001280}, {"current_trial": 246, "trialdata": {"rt": -1, "trial_type": "single-stim", "stimulus": "<p id=\"stim\">6</p>", "internal_node_id": "0.0-179.0-4.0", "time_elapsed": 1154105, "key_press": -1, "trial_index": 246}, "uniqueid": "MTK3482:3PMBY0YE28A66Q45LABHK7NZMVHC91", "dateTime": 1520620002279}, {"current_trial": 247, "trialdata": {"rt": -1, "trial_type": "single-stim", "stimulus": "<p id=\"stim\">5</p>", "internal_node_id": "0.0-179.0-5.0", "time_elapsed": 1155106, "key_press": -1, "trial_index": 247}, "uniqueid": "MTK3482:3PMBY0YE28A66Q45LABHK7NZMVHC91", "dateTime": 1520620003280}, {"current_trial": 248, "trialdata": {"rt": -1, "trial_type": "single-stim", "stimulus": "<p id=\"stim\">4</p>", "internal_node_id": "0.0-179.0-6.0", "time_elapsed": 1156107, "key_press": -1, "trial_index": 248}, "uniqueid": "MTK3482:3PMBY0YE28A66Q45LABHK7NZMVHC91", "dateTime": 1520620004281}, {"current_trial": 249, "trialdata": {"rt": -1, "trial_type": "single-stim", "stimulus": "<p id=\"stim\">3</p>", "internal_node_id": "0.0-179.0-7.0", "time_elapsed": 1157107, "key_press": -1, "trial_index": 249}, "uniqueid": "MTK3482:3PMBY0YE28A66Q45LABHK7NZMVHC91", "dateTime": 1520620005281}, {"current_trial": 250, "trialdata": {"rt": -1, "trial_type": "single-stim", "stimulus": "<p id=\"stim\">2</p>", "internal_node_id": "0.0-179.0-8.0", "time_elapsed": 1158108, "key_press": -1, "trial_index": 250}, "uniqueid": "MTK3482:3PMBY0YE28A66Q45LABHK7NZMVHC91", "dateTime": 1520620006283}, {"current_trial": 251, "trialdata": {"rt": -1, "trial_type": "single-stim", "stimulus": "<p id=\"stim\">1</p>", "internal_node_id": "0.0-179.0-9.0", "time_elapsed": 1159109, "key_press": -1, "trial_index": 251}, "uniqueid": "MTK3482:3PMBY0YE28A66Q45LABHK7NZMVHC91", "dateTime": 1520620007283}, {"current_trial": 252, "trialdata": {"rt": -1, "trial_type": "single-stim", "stimulus": "<p id=\"stim\">+</p>", "internal_node_id": "0.0-180.0-0.0", "time_elapsed": 1160609, "key_press": -1, "type": "FIXATION", "trial_index": 252}, "uniqueid": "MTK3482:3PMBY0YE28A66Q45LABHK7NZMVHC91", "dateTime": 1520620008783}, {"current_trial": 253, "trialdata": {"rt": -1, "trial_type": "single-stim", "word": "soda", "stimulus": "<p id=\"stim\">SODA</p>", "conditions": [24, 1600, "v", 24000], "internal_node_id": "0.0-181.0", "trial": 7, "time_elapsed": 1162208, "serialpos": 0, "key_press": -1, "wordID": 1340, "type": "PRES_VIS", "trial_index": 253}, "uniqueid": "MTK3482:3PM