{"assignmentId": "3IXEICO793Q0AO4I9P3VP7W1KZNT66", "workerId": "MTK3772", "questiondata": {"origin": "United States", "strat-rehearsal": "70", "marital": "Married/Domestic Partnership", "education": "Some college", "ethnicity": "Not Hispanic", "color_depth": 24, "distracted": "No", "wrote-notes": "Yes", "strat-other": "I wrote the words down during the practice trials, then I thought that would be cheating and wouldn't help your research so for the real tests I did not write anything down.", "screen_width": 1366, "avail_screen_width": 1366, "avail_screen_height": 686, "strat-image": "80", "language": "English", "gender": "Female", "age": "29", "gender_other": "", "race": ["White"], "strat-categorize": "95", "pixel_depth": 24, "strat-spatial": "30", "strat-story": "0", "race_other": "", "screen_height": 768}, "bonus": 0, "hitId": "3VIVIU06FKJA3TB5CR66BCVUEVEMIE", "counterbalance": 2041, "useragent": "Mozilla/5.0 (Windows NT 10.0; Win64; x64) AppleWebKit/537.36 (KHTML, like Gecko) Chrome/64.0.3282.186 Safari/537.36", "eventdata": [{"eventtype": "initialized", "interval": 0, "value": null, "timestamp": 1521235386958}, {"eventtype": "window_resize", "interval": 0, "value": [1366, 686], "timestamp": 1521235386958}, {"eventtype": "window_resize", "interval": 19190, "value": [1362, 624], "timestamp": 1521235406148}, {"eventtype": "focus", "interval": 1783459, "value": "off", "timestamp": 1521237189607}, {"eventtype": "focus", "interval": 53787, "value": "on", "timestamp": 1521237243394}, {"eventtype": "focus", "interval": 62836, "value": "off", "timestamp": 1521237306230}, {"eventtype": "focus", "interval": 16498, "value": "on", "timestamp": 1521237322728}], "data": [{"current_trial": 0, "trialdata": {"rt": 12215, "trial_type": "text", "internal_node_id": "0.0-0.0", "time_elapsed": 12223, "key_press": 72, "type": "INSTRUCTIONS", "trial_index": 0}, "uniqueid": "MTK3772:3IXEICO793Q0AO4I9P3VP7W1KZNT66", "dateTime": 1521235400014}, {"current_trial": 1, "trialdata": {"rt": 17393, "trial_type": "text", "internal_node_id": "0.0-1.0", "time_elapsed": 29627, "key_press": 74, "type": "INSTRUCTIONS", "trial_index": 1}, "uniqueid": "MTK3772:3IXEICO793Q0AO4I9P3VP7W1KZNT66", "dateTime": 1521235417416}, {"current_trial": 2, "trialdata": {"rt": [21393], "trial_type": "audio-test", "responses": ["ocean"], "internal_node_id": "0.0-2.0", "time_elapsed": 51066, "type": "AUDIO_TEST", "trial_index": 2}, "uniqueid": "MTK3772:3IXEICO793Q0AO4I9P3VP7W1KZNT66", "dateTime": 1521235438854}, {"current_trial": 3, "trialdata": {"rt": [6592], "trial_type": "audio-test", "responses": ["crystal"], "internal_node_id": "0.0-3.0", "time_elapsed": 57673, "type": "AUDIO_TEST", "trial_index": 3}, "uniqueid": "MTK3772:3IXEICO793Q0AO4I9P3VP7W1KZNT66", "dateTime": 1521235445461}, {"current_trial": 4, "trialdata": {"rt": [6701], "trial_type": "audio-test", "responses": ["spice"], "internal_node_id": "0.0-4.0", "time_elapsed": 64394, "type": "AUDIO_TEST", "trial_index": 4}, "uniqueid": "MTK3772:3IXEICO793Q0AO4I9P3VP7W1KZNT66", "dateTime": 1521235452181}, {"current_trial": 5, "trialdata": {"rt": 28183, "trial_type": "survey-text", "responses": "{\"Q0\":\"4:30am\",\"Q1\":\"2:00pm\",\"Q2\":\"5\"}", "internal_node_id": "0.0-5.0", "time_elapsed": 93344, "type": "SLEEP_SURVEY", "trial_index": 5}, "uniqueid": "MTK3772:3IXEICO793Q0AO4I9P3VP7W1KZNT66", "dateTime": 1521235481131}, {"current_trial": 6, "trialdata": {"rt": 56839, "trial_type": "text", "internal_node_id": "0.0-6.0", "time_elapsed": 151189, "key_press": 17, "type": "INSTRUCTIONS", "trial_index": 6}, "uniqueid": "MTK3772:3IXEICO793Q0AO4I9P3VP7W1KZNT66", "dateTime": 1521235538977}, {"current_trial": 7, "trialdata": {"rt": 31267, "trial_type": "text", "internal_node_id": "0.0-7.0", "time_elapsed": 182961, "key_press": 74, "type": "INSTRUCTIONS", "trial_index": 7}, "uniqueid": "MTK3772:3IXEICO793Q0AO4I9P3VP7W1KZNT66", "dateTime": 1521235570749}, {"current_trial": 8, "trialdata": {"rt": 6913, "trial_type": "text", "internal_node_id": "0.0-8.0", "time_elapsed": 190380, "key_press": 74, "type": "INSTRUCTIONS", "trial_index": 8}, "uniqueid": "MTK3772:3IXEICO793Q0AO4I9P3VP7W1KZNT66", "dateTime": 1521235578168}, {"current_trial": 9, "trialdata": {"rt": [5379, 7503, 10139, 14254, 17642], "trial_type": "math-distractor", "key_times": [2531, 2681, 5379, 7094, 7270, 7503, 9499, 9618, 10139, 13658, 13758, 14254, 16658, 16859, 17642], "responses": ["22", "14", "12", "21", "17"], "num2": [6, 6, 4, 8, 8, 8], "num3": [7, 6, 3, 4, 7, 1], "conditions": [18, 1200, "v", 18000], "internal_node_id": "0.0-9.0", "key_presses": [98, 98, 13, 97, 100, 13, 97, 98, 13, 98, 97, 13, 97, 103, 13], "trial": 0, "time_elapsed": 209423, "type": "DISTRACTOR", "trial_index": 9, "num1": [9, 2, 5, 9, 2, 6]}, "uniqueid": "MTK3772:3IXEICO793Q0AO4I9P3VP7W1KZNT66", "dateTime": 1521235597211}, {"current_trial": 10, "trialdata": {"rt": -1, "trial_type": "single-stim", "stimulus": "<p id=\"stim\">10</p>", "internal_node_id": "0.0-10.0-0.0", "time_elapsed": 212441, "key_press": -1, "trial_index": 10}, "uniqueid": "MTK3772:3IXEICO793Q0AO4I9P3VP7W1KZNT66", "dateTime": 1521235600229}, {"current_trial": 11, "trialdata": {"rt": -1, "trial_type": "single-stim", "stimulus": "<p id=\"stim\">9</p>", "internal_node_id": "0.0-10.0-1.0", "time_elapsed": 213450, "key_press": -1, "trial_index": 11}, "uniqueid": "MTK3772:3IXEICO793Q0AO4I9P3VP7W1KZNT66", "dateTime": 1521235601237}, {"current_trial": 12, "trialdata": {"rt": -1, "trial_type": "single-stim", "stimulus": "<p id=\"stim\">8</p>", "internal_node_id": "0.0-10.0-2.0", "time_elapsed": 214454, "key_press": -1, "trial_index": 12}, "uniqueid": "MTK3772:3IXEICO793Q0AO4I9P3VP7W1KZNT66", "dateTime": 1521235602241}, {"current_trial": 13, "trialdata": {"rt": -1, "trial_type": "single-stim", "stimulus": "<p id=\"stim\">7</p>", "internal_node_id": "0.0-10.0-3.0", "time_elapsed": 215457, "key_press": -1, "trial_index": 13}, "uniqueid": "MTK3772:3IXEICO793Q0AO4I9P3VP7W1KZNT66", "dateTime": 1521235603244}, {"current_trial": 14, "trialdata": {"rt": -1, "trial_type": "single-stim", "stimulus": "<p id=\"stim\">6</p>", "internal_node_id": "0.0-10.0-4.0", "time_elapsed": 216462, "key_press": -1, "trial_index": 14}, "uniqueid": "MTK3772:3IXEICO793Q0AO4I9P3VP7W1KZNT66", "dateTime": 1521235604249}, {"current_trial": 15, "trialdata": {"rt": -1, "trial_type": "single-stim", "stimulus": "<p id=\"stim\">5</p>", "internal_node_id": "0.0-10.0-5.0", "time_elapsed": 217469, "key_press": -1, "trial_index": 15}, "uniqueid": "MTK3772:3IXEICO793Q0AO4I9P3VP7W1KZNT66", "dateTime": 1521235605257}, {"current_trial": 16, "trialdata": {"rt": -1, "trial_type": "single-stim", "stimulus": "<p id=\"stim\">4</p>", "internal_node_id": "0.0-10.0-6.0", "time_elapsed": 218479, "key_press": -1, "trial_index": 16}, "uniqueid": "MTK3772:3IXEICO793Q0AO4I9P3VP7W1KZNT66", "dateTime": 1521235606267}, {"current_trial": 17, "trialdata": {"rt": -1, "trial_type": "single-stim", "stimulus": "<p id=\"stim\">3</p>", "internal_node_id": "0.0-10.0-7.0", "time_elapsed": 219489, "key_press": -1, "trial_index": 17}, "uniqueid": "MTK3772:3IXEICO793Q0AO4I9P3VP7W1KZNT66", "dateTime": 1521235607276}, {"current_trial": 18, "trialdata": {"rt": -1, "trial_type": "single-stim", "stimulus": "<p id=\"stim\">2</p>", "internal_node_id": "0.0-10.0-8.0", "time_elapsed": 220496, "key_press": -1, "trial_index": 18}, "uniqueid": "MTK3772:3IXEICO793Q0AO4I9P3VP7W1KZNT66", "dateTime": 1521235608283}, {"current_trial": 19, "trialdata": {"rt": -1, "trial_type": "single-stim", "stimulus": "<p id=\"stim\">1</p>", "internal_node_id": "0.0-10.0-9.0", "time_elapsed": 221503, "key_press": -1, "trial_index": 19}, "uniqueid": "MTK3772:3IXEICO793Q0AO4I9P3VP7W1KZNT66", "dateTime": 1521235609290}, {"current_trial": 20, "trialdata": {"rt": -1, "trial_type": "single-stim", "stimulus": "<p id=\"stim\">+</p>", "internal_node_id": "0.0-11.0-0.0", "time_elapsed": 223011, "key_press": -1, "type": "FIXATION", "trial_index": 20}, "uniqueid": "MTK3772:3IXEICO793Q0AO4I9P3VP7W1KZNT66", "dateTime": 1521235610798}, {"current_trial": 21, "trialdata": {"rt": -1, "trial_type": "single-stim", "word": "jury", "stimulus": "<p id=\"stim\">JURY</p>", "conditions": [18, 1200, "v", 18000], "internal_node_id": "0.0-12.0", "trial": 0, "time_elapsed": 224216, "serialpos": 0, "key_press": -1, "wordID": 765, "type": "PRES_VIS", "trial_index": 21}, "uniqueid": "MTK3772:3IXEICO793Q0AO4I9P3VP7W1KZNT66", "dateTime": 1521235612003}, {"current_trial": 22, "trialdata": {"rt": -1, "trial_type": "single-stim", "word": "outdoors", "stimulus": "<p id=\"stim\">OUTDOORS</p>", "conditions": [18, 1200, "v", 18000], "internal_node_id": "0.0-13.0", "trial": 0, "time_elapsed": 226435, "serialpos": 1, "key_press": -1, "wordID": 986, "type": "PRES_VIS", "trial_index": 22}, "uniqueid": "MTK3772:3IXEICO793Q0AO4I9P3VP7W1KZNT66", "dateTime": 1521235614222}, {"current_trial": 23, "trialdata": {"rt": -1, "trial_type": "single-stim", "word": "bouquet", "stimulus": "<p id=\"stim\">BOUQUET</p>", "conditions": [18, 1200, "v", 18000], "internal_node_id": "0.0-14.0", "trial": 0, "time_elapsed": 228602, "serialpos": 2, "key_press": -1, "wordID": 156, "type": "PRES_VIS", "trial_index": 23}, "uniqueid": "MTK3772:3IXEICO793Q0AO4I9P3VP7W1KZNT66", "dateTime": 1521235616390}, {"current_trial": 24, "trialdata": {"rt": -1, "trial_type": "single-stim", "word": "inmate", "stimulus": "<p id=\"stim\">INMATE</p>", "conditions": [18, 1200, "v", 18000], "internal_node_id": "0.0-15.0", "trial": 0, "time_elapsed": 230839, "serialpos": 3, "key_press": -1, "wordID": 737, "type": "PRES_VIS", "trial_index": 24}, "uniqueid": "MTK3772:3IXEICO793Q0AO4I9P3VP7W1KZNT66", "dateTime": 1521235618626}, {"current_trial": 25, "trialdata": {"rt": -1, "trial_type": "single-stim", "word": "orchid", "stimulus": "<p id=\"stim\">ORCHID</p>", "conditions": [18, 1200, "v", 18000], "internal_node_id": "0.0-16.0", "trial": 0, "time_elapsed": 233001, "serialpos": 4, "key_press": -1, "wordID": 981, "type": "PRES_VIS", "trial_index": 25}, "uniqueid": "MTK3772:3IXEICO793Q0AO4I9P3VP7W1KZNT66", "dateTime": 1521235620788}, {"current_trial": 26, "trialdata": {"rt": -1, "trial_type": "single-stim", "word": "onion", "stimulus": "<p id=\"stim\">ONION</p>", "conditions": [18, 1200, "v", 18000], "internal_node_id": "0.0-17.0", "trial": 0, "time_elapsed": 235081, "serialpos": 5, "key_press": -1, "wordID": 976, "type": "PRES_VIS", "trial_index": 26}, "uniqueid": "MTK3772:3IXEICO793Q0AO4I9P3VP7W1KZNT66", "dateTime": 1521235622868}, {"current_trial": 27, "trialdata": {"rt": -1, "trial_type": "single-stim", "word": "quail", "stimulus": "<p id=\"stim\">QUAIL</p>", "conditions": [18, 1200, "v", 18000], "internal_node_id": "0.0-18.0", "trial": 0, "time_elapsed": 237310, "serialpos": 6, "key_press": -1, "wordID": 1146, "type": "PRES_VIS", "trial_index": 27}, "uniqueid": "MTK3772:3IXEICO793Q0AO4I9P3VP7W1KZNT66", "dateTime": 1521235625098}, {"current_trial": 28, "trialdata": {"rt": -1, "trial_type": "single-stim", "word": "tribe", "stimulus": "<p id=\"stim\">TRIBE</p>", "conditions": [18, 1200, "v", 18000], "internal_node_id": "0.0-19.0", "trial": 0, "time_elapsed": 239664, "serialpos": 7, "key_press": -1, "wordID": 1504, "type": "PRES_VIS", "trial_index": 28}, "uniqueid": "MTK3772:3IXEICO793Q0AO4I9P3VP7W1KZNT66", "dateTime": 1521235627452}, {"current_trial": 29, "trialdata": {"rt": -1, "trial_type": "single-stim", "word": "napkin", "stimulus": "<p id=\"stim\">NAPKIN</p>", "conditions": [18, 1200, "v", 18000], "internal_node_id": "0.0-20.0", "trial": 0, "time_elapsed": 242029, "serialpos": 8, "key_press": -1, "wordID": 936, "type": "PRES_VIS", "trial_index": 29}, "uniqueid": "MTK3772:3IXEICO793Q0AO4I9P3VP7W1KZNT66", "dateTime": 1521235629817}, {"current_trial": 30, "trialdata": {"rt": -1, "trial_type": "single-stim", "word": "rod", "stimulus": "<p id=\"stim\">ROD</p>", "conditions": [18, 1200, "v", 18000], "internal_node_id": "0.0-21.0", "trial": 0, "time_elapsed": 244324, "serialpos": 9, "key_press": -1, "wordID": 1202, "type": "PRES_VIS", "trial_index": 30}, "uniqueid": "MTK3772:3IXEICO793Q0AO4I9P3VP7W1KZNT66", "dateTime": 1521235632111}, {"current_trial": 31, "trialdata": {"rt": -1, "trial_type": "single-stim", "word": "report", "stimulus": "<p id=\"stim\">REPORT</p>", "conditions": [18, 1200, "v", 18000], "internal_node_id": "0.0-22.0", "trial": 0, "time_elapsed": 246678, "serialpos": 10, "key_press": -1, "wordID": 1183, "type": "PRES_VIS", "trial_index": 31}, "uniqueid": "MTK3772:3IXEICO793Q0AO4I9P3VP7W1KZNT66", "dateTime": 1521235634466}, {"current_trial": 32, "trialdata": {"rt": -1, "trial_type": "single-stim", "word": "lipstick", "stimulus": "<p id=\"stim\">LIPSTICK</p>", "conditions": [18, 1200, "v", 18000], "internal_node_id": "0.0-23.0", "trial": 0, "time_elapsed": 248978, "serialpos": 11, "key_press": -1, "wordID": 828, "type": "PRES_VIS", "trial_index": 32}, "uniqueid": "MTK3772:3IXEICO793Q0AO4I9P3VP7W1KZNT66", "dateTime": 1521235636766}, {"current_trial": 33, "trialdata": {"rt": -1, "trial_type": "single-stim", "word": "milk", "stimulus": "<p id=\"stim\">MILK</p>", "conditions": [18, 1200, "v", 18000], "internal_node_id": "0.0-24.0", "trial": 0, "time_elapsed": 251113, "serialpos": 12, "key_press": -1, "wordID": 894, "type": "PRES_VIS", "trial_index": 33}, "uniqueid": "MTK3772:3IXEICO793Q0AO4I9P3VP7W1KZNT66", "dateTime": 1521235638902}, {"current_trial": 34, "trialdata": {"rt": -1, "trial_type": "single-stim", "word": "leg", "stimulus": "<p id=\"stim\">LEG</p>", "conditions": [18, 1200, "v", 18000], "internal_node_id": "0.0-25.0", "trial": 0, "time_elapsed": 253307, "serialpos": 13, "key_press": -1, "wordID": 808, "type": "PRES_VIS", "trial_index": 34}, "uniqueid": "MTK3772:3IXEICO793Q0AO4I9P3VP7W1KZNT66", "dateTime": 1521235641095}, {"current_trial": 35, "trialdata": {"rt": -1, "trial_type": "single-stim", "word": "blouse", "stimulus": "<p id=\"stim\">BLOUSE</p>", "conditions": [18, 1200, "v", 18000], "internal_node_id": "0.0-26.0", "trial": 0, "time_elapsed": 255665, "serialpos": 14, "key_press": -1, "wordID": 138, "type": "PRES_VIS", "trial_index": 35}, "uniqueid": "MTK3772:3IXEICO793Q0AO4I9P3VP7W1KZNT66", "dateTime": 1521235643453}, {"current_trial": 36, "trialdata": {"rt": -1, "trial_type": "single-stim", "word": "drink", "stimulus": "<p id=\"stim\">DRINK</p>", "conditions": [18, 1200, "v", 18000], "internal_node_id": "0.0-27.0", "trial": 0, "time_elapsed": 257935, "serialpos": 15, "key_press": -1, "wordID": 497, "type": "PRES_VIS", "trial_index": 36}, "uniqueid": "MTK3772:3IXEICO793Q0AO4I9P3VP7W1KZNT66", "dateTime": 1521235645722}, {"current_trial": 37, "trialdata": {"rt": -1, "trial_type": "single-stim", "word": "camel", "stimulus": "<p id=\"stim\">CAMEL</p>", "conditions": [18, 1200, "v", 18000], "internal_node_id": "0.0-28.0", "trial": 0, "time_elapsed": 260111, "serialpos": 16, "key_press": -1, "wordID": 222, "type": "PRES_VIS", "trial_index": 37}, "uniqueid": "MTK3772:3IXEICO793Q0AO4I9P3VP7W1KZNT66", "dateTime": 1521235647898}, {"current_trial": 38, "trialdata": {"rt": -1, "trial_type": "single-stim", "word": "cricket", "stimulus": "<p id=\"stim\">CRICKET</p>", "conditions": [18, 1200, "v", 18000], "internal_node_id": "0.0-29.0", "trial": 0, "time_elapsed": 262301, "serialpos": 17, "key_press": -1, "wordID": 407, "type": "PRES_VIS", "trial_index": 38}, "uniqueid": "MTK3772:3IXEICO793Q0AO4I9P3VP7W1KZNT66", "dateTime": 1521235650088}, {"current_trial": 39, "trialdata": {"rt": -1, "trial_type": "single-stim", "stimulus": "", "internal_node_id": "0.0-30.0-0.0", "time_elapsed": 264748, "key_press": -1, "type": "PRE_RECALL_DELAY", "trial_index": 39}, "uniqueid": "MTK3772:3IXEICO793Q0AO4I9P3VP7W1KZNT66", "dateTime": 1521235652537}, {"current_trial": 40, "trialdata": {"rt": -1000, "trial_type": "single-audio", "stimulus": "/static/audio/400Hz.wav", "internal_node_id": "0.0-31.0", "time_elapsed": 265260, "key_press": -1, "type": "PRE_RECALL_ALERT", "trial_index": 40}, "uniqueid": "MTK3772:3IXEICO793Q0AO4I9P3VP7W1KZNT66", "dateTime": 1521235653047}, {"current_trial": 41, "trialdata": {"rt": [2663, 5447, 7086, 9074, 11154, 14451, 17487, 19355, 23279, 24884, 27119, 30369, 32505, 34375, 36071, 38550, 40618, 42199, 44001], "recwords": ["jury", "outdoors", "bouquet", "inmate", "orchid", "onion", "quail", "tribe", "napkin", "rod", "report", "lipstick", "milk", "leg", "blouse", "drink", "camel", "cricket", ""], "key_times": [1755, 1929, 2012, 2142, 2663, 3177, 3326, 3413, 3782, 3913, 4075, 4172, 4315, 5447, 5898, 5987, 6155, 6438, 6554, 6687, 6786, 7086, 8035, 8195, 8378, 8489, 8671, 8781, 9074, 10056, 10188, 10385, 10645, 10811, 10906, 11154, 11182, 12149, 12156, 12704, 12874, 13363, 13568, 13775, 13918, 14081, 14451, 15807, 15913, 16259, 16713, 16861, 16980, 17157, 17487, 18665, 18737, 18849, 19018, 19111, 19355, 20846, 20949, 21087, 21098, 21649, 21814, 22355, 22602, 22788, 22929, 23279, 24482, 24588, 24706, 24884, 26413, 26479, 26633, 26789, 26879, 26948, 27119, 29069, 29217, 29380, 29507, 29704, 29788, 29927, 30019, 30369, 31700, 31899, 32039, 32197, 32505, 33616, 33874, 34227, 34375, 35284, 35405, 35589, 35760, 35845, 35939, 36071, 37745, 37906, 38000, 38151, 38275, 38550, 39865, 40034, 40141, 40257, 40359, 40618, 41144, 41303, 41403, 41493, 41615, 41704, 41812, 42199, 44001], "trial_type": "free-recall", "conditions": [18, 1200, "v", 18000], "internal_node_id": "0.0-32.0-0.0", "key_presses": [74, 85, 82, 89, 13, 79, 85, 84, 68, 79, 79, 82, 83, 13, 66, 79, 85, 81, 85, 69, 84, 13, 73, 78, 77, 65, 84, 69, 13, 79, 82, 67, 72, 73, 68, 13, 222, 8, 187, 8, 8, 79, 78, 73, 79, 78, 13, 81, 73, 8, 85, 65, 73, 76, 13, 84, 82, 73, 66, 69, 13, 78, 65, 219, 80, 8, 8, 80, 75, 73, 78, 13, 82, 79, 68, 13, 82, 69, 80, 79, 82, 84, 13, 76, 73, 80, 83, 84, 73, 67, 75, 13, 77, 73, 76, 75, 13, 76, 69, 71, 13, 66, 76, 79, 85, 83, 69, 13, 68, 82, 73, 78, 75, 13, 67, 65, 77, 69, 76, 13, 67, 82, 73, 67, 75, 69, 84, 13, 13], "trial": 0, "time_elapsed": 325271, "type": "FREE_RECALL", "trial_index": 41}, "uniqueid": "MTK3772:3IXEICO793Q0AO4I9P3VP7W1KZNT66", "dateTime": 1521235713078}, {"current_trial": 42, "trialdata": {"rt": 2388, "trial_type": "text", "internal_node_id": "0.0-33.0", "time_elapsed": 329685, "key_press": 71, "type": "INSTRUCTIONS", "trial_index": 42}, "uniqueid": "MTK3772:3IXEICO793Q0AO4I9P3VP7W1KZNT66", "dateTime": 1521235717472}, {"current_trial": 43, "trialdata": {"rt": [3003, 6843, 8723, 10662, 12506, 14423, 16366], "trial_type": "math-distractor", "key_times": [2128, 2293, 3003, 6355, 6525, 6843, 8511, 8524, 8723, 10232, 10437, 10662, 12272, 12506, 13971, 14159, 14423, 15843, 16013, 16366], "responses": ["18", "26", "11", "17", "9", "19", "13"], "num2": [7, 9, 2, 8, 5, 8, 6, 6], "num3": [6, 9, 4, 5, 3, 9, 2, 8], "conditions": [18, 1200, "v", 18000], "internal_node_id": "0.0-34.0", "key_presses": [97, 104, 13, 98, 102, 13, 97, 97, 13, 97, 103, 13, 105, 13, 97, 105, 13, 97, 99, 13], "trial": 1, "time_elapsed": 349691, "type": "DISTRACTOR", "trial_index": 43, "num1": [5, 8, 5, 4, 1, 2, 5, 7]}, "uniqueid": "MTK3772:3IXEICO793Q0AO4I9P3VP7W1KZNT66", "dateTime": 1521235737478}, {"current_trial": 44, "trialdata": {"rt": -1, "trial_type": "single-stim", "stimulus": "<p id=\"stim\">10</p>", "internal_node_id": "0.0-35.0-0.0", "time_elapsed": 352702, "key_press": -1, "trial_index": 44}, "uniqueid": "MTK3772:3IXEICO793Q0AO4I9P3VP7W1KZNT66", "dateTime": 1521235740489}, {"current_trial": 45, "trialdata": {"rt": -1, "trial_type": "single-stim", "stimulus": "<p id=\"stim\">9</p>", "internal_node_id": "0.0-35.0-1.0", "time_elapsed": 353709, "key_press": -1, "trial_index": 45}, "uniqueid": "MTK3772:3IXEICO793Q0AO4I9P3VP7W1KZNT66", "dateTime": 1521235741496}, {"current_trial": 46, "trialdata": {"rt": -1, "trial_type": "single-stim", "stimulus": "<p id=\"stim\">8</p>", "internal_node_id": "0.0-35.0-2.0", "time_elapsed": 354713, "key_press": -1, "trial_index": 46}, "uniqueid": "MTK3772:3IXEICO793Q0AO4I9P3VP7W1KZNT66", "dateTime": 1521235742500}, {"current_trial": 47, "trialdata": {"rt": -1, "trial_type": "single-stim", "stimulus": "<p id=\"stim\">7</p>", "internal_node_id": "0.0-35.0-3.0", "time_elapsed": 355718, "key_press": -1, "trial_index": 47}, "uniqueid": "MTK3772:3IXEICO793Q0AO4I9P3VP7W1KZNT66", "dateTime": 1521235743506}, {"current_trial": 48, "trialdata": {"rt": -1, "trial_type": "single-stim", "stimulus": "<p id=\"stim\">6</p>", "internal_node_id": "0.0-35.0-4.0", "time_elapsed": 356726, "key_press": -1, "trial_index": 48}, "uniqueid": "MTK3772:3IXEICO793Q0AO4I9P3VP7W1KZNT66", "dateTime": 1521235744514}, {"current_trial": 49, "trialdata": {"rt": -1, "trial_type": "single-stim", "stimulus": "<p id=\"stim\">5</p>", "internal_node_id": "0.0-35.0-5.0", "time_elapsed": 357731, "key_press": -1, "trial_index": 49}, "uniqueid": "MTK3772:3IXEICO793Q0AO4I9P3VP7W1KZNT66", "dateTime": 1521235745519}, {"current_trial": 50, "trialdata": {"rt": -1, "trial_type": "single-stim", "stimulus": "<p id=\"stim\">4</p>", "internal_node_id": "0.0-35.0-6.0", "time_elapsed": 358738, "key_press": -1, "trial_index": 50}, "uniqueid": "MTK3772:3IXEICO793Q0AO4I9P3VP7W1KZNT66", "dateTime": 1521235746526}, {"current_trial": 51, "trialdata": {"rt": -1, "trial_type": "single-stim", "stimulus": "<p id=\"stim\">3</p>", "internal_node_id": "0.0-35.0-7.0", "time_elapsed": 359743, "key_press": -1, "trial_index": 51}, "uniqueid": "MTK3772:3IXEICO793Q0AO4I9P3VP7W1KZNT66", "dateTime": 1521235747530}, {"current_trial": 52, "trialdata": {"rt": -1, "trial_type": "single-stim", "stimulus": "<p id=\"stim\">2</p>", "internal_node_id": "0.0-35.0-8.0", "time_elapsed": 360747, "key_press": -1, "trial_index": 52}, "uniqueid": "MTK3772:3IXEICO793Q0AO4I9P3VP7W1KZNT66", "dateTime": 1521235748535}, {"current_trial": 53, "trialdata": {"rt": -1, "trial_type": "single-stim", "stimulus": "<p id=\"stim\">1</p>", "internal_node_id": "0.0-35.0-9.0", "time_elapsed": 361753, "key_press": -1, "trial_index": 53}, "uniqueid": "MTK3772:3IXEICO793Q0AO4I9P3VP7W1KZNT66", "dateTime": 1521235749541}, {"current_trial": 54, "trialdata": {"rt": -1, "trial_type": "single-stim", "stimulus": "<p id=\"stim\">+</p>", "internal_node_id": "0.0-36.0-0.0", "time_elapsed": 363262, "key_press": -1, "type": "FIXATION", "trial_index": 54}, "uniqueid": "MTK3772:3IXEICO793Q0AO4I9P3VP7W1KZNT66", "dateTime": 1521235751050}, {"current_trial": 55, "trialdata": {"rt": -1, "trial_type": "single-stim", "word": "survey", "stimulus": "<p id=\"stim\">SURVEY</p>", "conditions": [18, 1200, "v", 18000], "internal_node_id": "0.0-37.0", "trial": 1, "time_elapsed": 364469, "serialpos": 0, "key_press": -1, "wordID": 1413, "type": "PRES_VIS", "trial_index": 55}, "uniqueid": "MTK3772:3IXEICO793Q0AO4I9P3VP7W1KZNT66", "dateTime": 1521235752257}, {"current_trial": 56, "trialdata": {"rt": -1, "trial_type": "single-stim", "word": "woman", "stimulus": "<p id=\"stim\">WOMAN</p>", "conditions": [18, 1200, "v", 18000], "internal_node_id": "0.0-38.0", "trial": 1, "time_elapsed": 366904, "serialpos": 1, "key_press": -1, "wordID": 1619, "type": "PRES_VIS", "trial_index": 56}, "uniqueid": "MTK3772:3IXEICO793Q0AO4I9P3VP7W1KZNT66", "dateTime": 1521235754691}, {"current_trial": 57, "trialdata": {"rt": -1, "trial_type": "single-stim", "word": "summit", "stimulus": "<p id=\"stim\">SUMMIT</p>", "conditions": [18, 1200, "v", 18000], "internal_node_id": "0.0-39.0", "trial": 1, "time_elapsed": 369168, "serialpos": 2, "key_press": -1, "wordID": 1404, "type": "PRES_VIS", "trial_index": 57}, "uniqueid": "MTK3772:3IXEICO793Q0AO4I9P3VP7W1KZNT66", "dateTime": 1521235756956}, {"current_trial": 58, "trialdata": {"rt": -1, "trial_type": "single-stim", "word": "robin", "stimulus": "<p id=\"stim\">ROBIN</p>", "conditions": [18, 1200, "v", 18000], "internal_node_id": "0.0-40.0", "trial": 1, "time_elapsed": 371400, "serialpos": 3, "key_press": -1, "wordID": 1198, "type": "PRES_VIS", "trial_index": 58}, "uniqueid": "MTK3772:3IXEICO793Q0AO4I9P3VP7W1KZNT66", "dateTime": 1521235759187}, {"current_trial": 59, "trialdata": {"rt": -1, "trial_type": "single-stim", "word": "gift", "stimulus": "<p id=\"stim\">GIFT</p>", "conditions": [18, 1200, "v", 18000], "internal_node_id": "0.0-41.0", "trial": 1, "time_elapsed": 373688, "serialpos": 4, "key_press": -1, "wordID": 634, "type": "PRES_VIS", "trial_index": 59}, "uniqueid": "MTK3772:3IXEICO793Q0AO4I9P3VP7W1KZNT66", "dateTime": 1521235761475}, {"current_trial": 60, "trialdata": {"rt": -1, "trial_type": "single-stim", "word": "flipper", "stimulus": "<p id=\"stim\">FLIPPER</p>", "conditions": [18, 1200, "v", 18000], "internal_node_id": "0.0-42.0", "trial": 1, "time_elapsed": 376055, "serialpos": 5, "key_press": -1, "wordID": 579, "type": "PRES_VIS", "trial_index": 60}, "uniqueid": "MTK3772:3IXEICO793Q0AO4I9P3VP7W1KZNT66", "dateTime": 1521235763844}, {"current_trial": 61, "trialdata": {"rt": -1, "trial_type": "single-stim", "word": "asia", "stimulus": "<p id=\"stim\">ASIA</p>", "conditions": [18, 1200, "v", 18000], "internal_node_id": "0.0-43.0", "trial": 1, "time_elapsed": 378179, "serialpos": 6, "key_press": -1, "wordID": 45, "type": "PRES_VIS", "trial_index": 61}, "uniqueid": "MTK3772:3IXEICO793Q0AO4I9P3VP7W1KZNT66", "dateTime": 1521235765967}, {"current_trial": 62, "trialdata": {"rt": -1, "trial_type": "single-stim", "word": "dancer", "stimulus": "<p id=\"stim\">DANCER</p>", "conditions": [18, 1200, "v", 18000], "internal_node_id": "0.0-44.0", "trial": 1, "time_elapsed": 380298, "serialpos": 7, "key_press": -1, "wordID": 436, "type": "PRES_VIS", "trial_index": 62}, "uniqueid": "MTK3772:3IXEICO793Q0AO4I9P3VP7W1KZNT66", "dateTime": 1521235768087}, {"current_trial": 63, "trialdata": {"rt": -1, "trial_type": "single-stim", "word": "snack", "stimulus": "<p id=\"stim\">SNACK</p>", "conditions": [18, 1200, "v", 18000], "internal_node_id": "0.0-45.0", "trial": 1, "time_elapsed": 382324, "serialpos": 8, "key_press": -1, "wordID": 1330, "type": "PRES_VIS", "trial_index": 63}, "uniqueid": "MTK3772:3IXEICO793Q0AO4I9P3VP7W1KZNT66", "dateTime": 1521235770111}, {"current_trial": 64, "trialdata": {"rt": -1, "trial_type": "single-stim", "word": "knife", "stimulus": "<p id=\"stim\">KNIFE</p>", "conditions": [18, 1200, "v", 18000], "internal_node_id": "0.0-46.0", "trial": 1, "time_elapsed": 384355, "serialpos": 9, "key_press": -1, "wordID": 784, "type": "PRES_VIS", "trial_index": 64}, "uniqueid": "MTK3772:3IXEICO793Q0AO4I9P3VP7W1KZNT66", "dateTime": 1521235772143}, {"current_trial": 65, "trialdata": {"rt": -1, "trial_type": "single-stim", "word": "smog", "stimulus": "<p id=\"stim\">SMOG</p>", "conditions": [18, 1200, "v", 18000], "internal_node_id": "0.0-47.0", "trial": 1, "time_elapsed": 386452, "serialpos": 10, "key_press": -1, "wordID": 1329, "type": "PRES_VIS", "trial_index": 65}, "uniqueid": "MTK3772:3IXEICO793Q0AO4I9P3VP7W1KZNT66", "dateTime": 1521235774241}, {"current_trial": 66, "trialdata": {"rt": -1, "trial_type": "single-stim", "word": "fruit", "stimulus": "<p id=\"stim\">FRUIT</p>", "conditions": [18, 1200, "v", 18000], "internal_node_id": "0.0-48.0", "trial": 1, "time_elapsed": 388488, "serialpos": 11, "key_press": -1, "wordID": 609, "type": "PRES_VIS", "trial_index": 66}, "uniqueid": "MTK3772:3IXEICO793Q0AO4I9P3VP7W1KZNT66", "dateTime": 1521235776275}, {"current_trial": 67, "trialdata": {"rt": -1, "trial_type": "single-stim", "word": "stamp", "stimulus": "<p id=\"stim\">STAMP</p>", "conditions": [18, 1200, "v", 18000], "internal_node_id": "0.0-49.0", "trial": 1, "time_elapsed": 390564, "serialpos": 12, "key_press": -1, "wordID": 1369, "type": "PRES_VIS", "trial_index": 67}, "uniqueid": "MTK3772:3IXEICO793Q0AO4I9P3VP7W1KZNT66", "dateTime": 1521235778351}, {"current_trial": 68, "trialdata": {"rt": -1, "trial_type": "single-stim", "word": "body", "stimulus": "<p id=\"stim\">BODY</p>", "conditions": [18, 1200, "v", 18000], "internal_node_id": "0.0-50.0", "trial": 1, "time_elapsed": 392654, "serialpos": 13, "key_press": -1, "wordID": 144, "type": "PRES_VIS", "trial_index": 68}, "uniqueid": "MTK3772:3IXEICO793Q0AO4I9P3VP7W1KZNT66", "dateTime": 1521235780441}, {"current_trial": 69, "trialdata": {"rt": -1, "trial_type": "single-stim", "word": "hound", "stimulus": "<p id=\"stim\">HOUND</p>", "conditions": [18, 1200, "v", 18000], "internal_node_id": "0.0-51.0", "trial": 1, "time_elapsed": 394964, "serialpos": 14, "key_press": -1, "wordID": 723, "type": "PRES_VIS", "trial_index": 69}, "uniqueid": "MTK3772:3IXEICO793Q0AO4I9P3VP7W1KZNT66", "dateTime": 1521235782752}, {"current_trial": 70, "trialdata": {"rt": -1, "trial_type": "single-stim", "word": "shark", "stimulus": "<p id=\"stim\">SHARK</p>", "conditions": [18, 1200, "v", 18000], "internal_node_id": "0.0-52.0", "trial": 1, "time_elapsed": 397220, "serialpos": 15, "key_press": -1, "wordID": 1274, "type": "PRES_VIS", "trial_index": 70}, "uniqueid": "MTK3772:3IXEICO793Q0AO4I9P3VP7W1KZNT66", "dateTime": 1521235785007}, {"current_trial": 71, "trialdata": {"rt": -1, "trial_type": "single-stim", "word": "elbow", "stimulus": "<p id=\"stim\">ELBOW</p>", "conditions": [18, 1200, "v", 18000], "internal_node_id": "0.0-53.0", "trial": 1, "time_elapsed": 399290, "serialpos": 16, "key_press": -1, "wordID": 519, "type": "PRES_VIS", "trial_index": 71}, "uniqueid": "MTK3772:3IXEICO793Q0AO4I9P3VP7W1KZNT66", "dateTime": 1521235787079}, {"current_trial": 72, "trialdata": {"rt": -1, "trial_type": "single-stim", "word": "pocket", "stimulus": "<p id=\"stim\">POCKET</p>", "conditions": [18, 1200, "v", 18000], "internal_node_id": "0.0-54.0", "trial": 1, "time_elapsed": 401447, "serialpos": 17, "key_press": -1, "wordID": 1092, "type": "PRES_VIS", "trial_index": 72}, "uniqueid": "MTK3772:3IXEICO793Q0AO4I9P3VP7W1KZNT66", "dateTime": 1521235789234}, {"current_trial": 73, "trialdata": {"rt": -1, "trial_type": "single-stim", "stimulus": "", "internal_node_id": "0.0-55.0-0.0", "time_elapsed": 403999, "key_press": -1, "type": "PRE_RECALL_DELAY", "trial_index": 73}, "uniqueid": "MTK3772:3IXEICO793Q0AO4I9P3VP7W1KZNT66", "dateTime": 1521235791787}, {"current_trial": 74, "trialdata": {"rt": -1000, "trial_type": "single-audio", "stimulus": "/static/audio/400Hz.wav", "internal_node_id": "0.0-56.0", "time_elapsed": 404505, "key_press": -1, "type": "PRE_RECALL_ALERT", "trial_index": 74}, "uniqueid": "MTK3772:3IXEICO793Q0AO4I9P3VP7W1KZNT66", "dateTime": 1521235792292}, {"current_trial": 75, "trialdata": {"rt": [4243, 5461, 7740, 9993, 11844, 14147, 16215, 19291, 20721, 22758, 24665, 27309, 28855, 30573, 33023, 35125, 37736, 39048], "recwords": ["survey", "woman", "summit", "robin", "gift", "flipper", "asia", "dancer", "snack", "knife", "smog", "fruit", "stamp", "body", "hound", "shark", "elbow", "pocket"], "key_times": [2375, 2472, 2584, 2727, 2832, 2928, 4243, 4693, 4996, 5011, 5055, 5163, 5461, 6839, 6975, 7180, 7314, 7458, 7537, 7740, 9188, 9279, 9507, 9614, 9759, 9993, 11376, 11472, 11583, 11716, 11844, 13297, 13373, 13501, 13673, 13812, 13906, 14039, 14147, 15449, 15516, 15762, 15847, 15944, 16215, 18666, 18797, 18911, 18987, 19066, 19177, 19291, 19942, 20047, 20160, 20316, 20425, 20721, 22121, 22396, 22408, 22518, 22578, 22758, 24133, 24243, 24410, 24505, 24665, 26613, 26701, 26854, 26999, 27094, 27309, 27843, 27939, 28163, 28167, 28311, 28855, 29903, 30097, 30180, 30308, 30573, 31961, 32143, 32285, 32461, 32696, 33023, 34414, 34501, 34613, 34778, 34875, 35125, 37040, 37163, 37324, 37455, 37550, 37736, 38260, 38413, 38507, 38645, 38742, 38835, 39048], "trial_type": "free-recall", "conditions": [18, 1200, "v", 18000], "internal_node_id": "0.0-57.0-0.0", "key_presses": [83, 85, 82, 86, 69, 89, 13, 87, 79, 77, 65, 78, 13, 83, 85, 77, 77, 73, 84, 13, 82, 79, 66, 73, 78, 13, 71, 73, 70, 84, 13, 70, 76, 73, 80, 80, 69, 82, 13, 16, 65, 83, 73, 65, 13, 68, 65, 78, 67, 69, 82, 13, 83, 78, 65, 67, 75, 13, 75, 78, 73, 70, 69, 13, 83, 77, 79, 71, 13, 70, 82, 85, 73, 84, 13, 83, 84, 65, 77, 80, 13, 66, 79, 68, 89, 13, 72, 79, 85, 78, 68, 13, 83, 72, 65, 82, 75, 13, 69, 76, 66, 79, 87, 13, 80, 79, 67, 75, 69, 84, 13], "trial": 1, "time_elapsed": 464513, "type": "FREE_RECALL", "trial_index": 75}, "uniqueid": "MTK3772:3IXEICO793Q0AO4I9P3VP7W1KZNT66", "dateTime": 1521235852325}, {"current_trial": 76, "trialdata": {"rt": 339372, "trial_type": "text", "internal_node_id": "0.0-58.0", "time_elapsed": 805915, "key_press": 75, "type": "INSTRUCTIONS", "trial_index": 76}, "uniqueid": "MTK3772:3IXEICO793Q0AO4I9P3VP7W1KZNT66", "dateTime": 1521236193702}, {"current_trial": 77, "trialdata": {"rt": [4494, 6765, 9396, 11196], "trial_type": "math-distractor", "key_times": [2535, 2762, 3206, 4030, 4494, 6088, 6275, 6765, 8604, 8792, 9396, 10790, 10966, 11196], "responses": ["14", "14", "22", "14"], "num2": [7, 5, 9, 7, 9], "num3": [1, 6, 4, 1, 1], "conditions": [12, 800, "v", 12000], "internal_node_id": "0.0-59.0", "key_presses": [97, 100, 99, 8, 13, 97, 100, 13, 98, 98, 13, 97, 100, 13], "trial": 2, "time_elapsed": 818922, "type": "DISTRACTOR", "trial_index": 77, "num1": [6, 3, 9, 6, 2]}, "uniqueid": "MTK3772:3IXEICO793Q0AO4I9P3VP7W1KZNT66", "dateTime": 1521236206709}, {"current_trial": 78, "trialdata": {"rt": -1, "trial_type": "single-stim", "stimulus": "<p id=\"stim\">10</p>", "internal_node_id": "0.0-60.0-0.0", "time_elapsed": 821928, "key_press": -1, "trial_index": 78}, "uniqueid": "MTK3772:3IXEICO793Q0AO4I9P3VP7W1KZNT66", "dateTime": 1521236209715}, {"current_trial": 79, "trialdata": {"rt": -1, "trial_type": "single-stim", "stimulus": "<p id=\"stim\">9</p>", "internal_node_id": "0.0-60.0-1.0", "time_elapsed": 822932, "key_press": -1, "trial_index": 79}, "uniqueid": "MTK3772:3IXEICO793Q0AO4I9P3VP7W1KZNT66", "dateTime": 1521236210719}, {"current_trial": 80, "trialdata": {"rt": -1, "trial_type": "single-stim", "stimulus": "<p id=\"stim\">8</p>", "internal_node_id": "0.0-60.0-2.0", "time_elapsed": 823935, "key_press": -1, "trial_index": 80}, "uniqueid": "MTK3772:3IXEICO793Q0AO4I9P3VP7W1KZNT66", "dateTime": 1521236211722}, {"current_trial": 81, "trialdata": {"rt": -1, "trial_type": "single-stim", "stimulus": "<p id=\"stim\">7</p>", "internal_node_id": "0.0-60.0-3.0", "time_elapsed": 824939, "key_press": -1, "trial_index": 81}, "uniqueid": "MTK3772:3IXEICO793Q0AO4I9P3VP7W1KZNT66", "dateTime": 1521236212727}, {"current_trial": 82, "trialdata": {"rt": -1, "trial_type": "single-stim", "stimulus": "<p id=\"stim\">6</p>", "internal_node_id": "0.0-60.0-4.0", "time_elapsed": 825952, "key_press": -1, "trial_index": 82}, "uniqueid": "MTK3772:3IXEICO793Q0AO4I9P3VP7W1KZNT66", "dateTime": 1521236213740}, {"current_trial": 83, "trialdata": {"rt": -1, "trial_type": "single-stim", "stimulus": "<p id=\"stim\">5</p>", "internal_node_id": "0.0-60.0-5.0", "time_elapsed": 826957, "key_press": -1, "trial_index": 83}, "uniqueid": "MTK3772:3IXEICO793Q0AO4I9P3VP7W1KZNT66", "dateTime": 1521236214744}, {"current_trial": 84, "trialdata": {"rt": -1, "trial_type": "single-stim", "stimulus": "<p id=\"stim\">4</p>", "internal_node_id": "0.0-60.0-6.0", "time_elapsed": 827962, "key_press": -1, "trial_index": 84}, "uniqueid": "MTK3772:3IXEICO793Q0AO4I9P3VP7W1KZNT66", "dateTime": 1521236215749}, {"current_trial": 85, "trialdata": {"rt": -1, "trial_type": "single-stim", "stimulus": "<p id=\"stim\">3</p>", "internal_node_id": "0.0-60.0-7.0", "time_elapsed": 828967, "key_press": -1, "trial_index": 85}, "uniqueid": "MTK3772:3IXEICO793Q0AO4I9P3VP7W1KZNT66", "dateTime": 1521236216755}, {"current_trial": 86, "trialdata": {"rt": -1, "trial_type": "single-stim", "stimulus": "<p id=\"stim\">2</p>", "internal_node_id": "0.0-60.0-8.0", "time_elapsed": 829970, "key_press": -1, "trial_index": 86}, "uniqueid": "MTK3772:3IXEICO793Q0AO4I9P3VP7W1KZNT66", "dateTime": 1521236217757}, {"current_trial": 87, "trialdata": {"rt": -1, "trial_type": "single-stim", "stimulus": "<p id=\"stim\">1</p>", "internal_node_id": "0.0-60.0-9.0", "time_elapsed": 830983, "key_press": -1, "trial_index": 87}, "uniqueid": "MTK3772:3IXEICO793Q0AO4I9P3VP7W1KZNT66", "dateTime": 1521236218770}, {"current_trial": 88, "trialdata": {"rt": -1, "trial_type": "single-stim", "stimulus": "<p id=\"stim\">+</p>", "internal_node_id": "0.0-61.0-0.0", "time_elapsed": 832487, "key_press": -1, "type": "FIXATION", "trial_index": 88}, "uniqueid": "MTK3772:3IXEICO793Q0AO4I9P3VP7W1KZNT66", "dateTime": 1521236220274}, {"current_trial": 89, "trialdata": {"rt": -1, "trial_type": "single-stim", "word": "wasp", "stimulus": "<p id=\"stim\">WASP</p>", "conditions": [12, 800, "v", 12000], "internal_node_id": "0.0-62.0", "trial": 2, "time_elapsed": 833290, "serialpos": 0, "key_press": -1, "wordID": 1592, "type": "PRES_VIS", "trial_index": 89}, "uniqueid": "MTK3772:3IXEICO793Q0AO4I9P3VP7W1KZNT66", "dateTime": 1521236221077}, {"current_trial": 90, "trialdata": {"rt": -1, "trial_type": "single-stim", "word": "spider", "stimulus": "<p id=\"stim\">SPIDER</p>", "conditions": [12, 800, "v", 12000], "internal_node_id": "0.0-63.0", "trial": 2, "time_elapsed": 834954, "serialpos": 1, "key_press": -1, "wordID": 1350, "type": "PRES_VIS", "trial_index": 90}, "uniqueid": "MTK3772:3IXEICO793Q0AO4I9P3VP7W1KZNT66", "dateTime": 1521236222741}, {"current_trial": 91, "trialdata": {"rt": -1, "trial_type": "single-stim", "word": "sibling", "stimulus": "<p id=\"stim\">SIBLING</p>", "conditions": [12, 800, "v", 12000], "internal_node_id": "0.0-64.0", "trial": 2, "time_elapsed": 836707, "serialpos": 2, "key_press": -1, "wordID": 1300, "type": "PRES_VIS", "trial_index": 91}, "uniqueid": "MTK3772:3IXEICO793Q0AO4I9P3VP7W1KZNT66", "dateTime": 1521236224495}, {"current_trial": 92, "trialdata": {"rt": -1, "trial_type": "single-stim", "word": "tutu", "stimulus": "<p id=\"stim\">TUTU</p>", "conditions": [12, 800, "v", 12000], "internal_node_id": "0.0-65.0", "trial": 2, "time_elapsed": 838435, "serialpos": 3, "key_press": -1, "wordID": 1523, "type": "PRES_VIS", "trial_index": 92}, "uniqueid": "MTK3772:3IXEICO793Q0AO4I9P3VP7W1KZNT66", "dateTime": 1521236226222}, {"current_trial": 93, "trialdata": {"rt": -1, "trial_type": "single-stim", "word": "donkey", "stimulus": "<p id=\"stim\">DONKEY</p>", "conditions": [12, 800, "v", 12000], "internal_node_id": "0.0-66.0", "trial": 2, "time_elapsed": 840223, "serialpos": 4, "key_press": -1, "wordID": 483, "type": "PRES_VIS", "trial_index": 93}, "uniqueid": "MTK3772:3IXEICO793Q0AO4I9P3VP7W1KZNT66", "dateTime": 1521236228010}, {"current_trial": 94, "trialdata": {"rt": -1, "trial_type": "single-stim", "word": "film", "stimulus": "<p id=\"stim\">FILM</p>", "conditions": [12, 800, "v", 12000], "internal_node_id": "0.0-67.0", "trial": 2, "time_elapsed": 841839, "serialpos": 5, "key_press": -1, "wordID": 564, "type": "PRES_VIS", "trial_index": 94}, "uniqueid": "MTK3772:3IXEICO793Q0AO4I9P3VP7W1KZNT66", "dateTime": 1521236229627}, {"current_trial": 95, "trialdata": {"rt": -1, "trial_type": "single-stim", "word": "shorts", "stimulus": "<p id=\"stim\">SHORTS</p>", "conditions": [12, 800, "v", 12000], "internal_node_id": "0.0-68.0", "trial": 2, "time_elapsed": 843795, "serialpos": 6, "key_press": -1, "wordID": 1292, "type": "PRES_VIS", "trial_index": 95}, "uniqueid": "MTK3772:3IXEICO793Q0AO4I9P3VP7W1KZNT66", "dateTime": 1521236231583}, {"current_trial": 96, "trialdata": {"rt": -1, "trial_type": "single-stim", "word": "beast", "stimulus": "<p id=\"stim\">BEAST</p>", "conditions": [12, 800, "v", 12000], "internal_node_id": "0.0-69.0", "trial": 2, "time_elapsed": 845534, "serialpos": 7, "key_press": -1, "wordID": 107, "type": "PRES_VIS", "trial_index": 96}, "uniqueid": "MTK3772:3IXEICO793Q0AO4I9P3VP7W1KZNT66", "dateTime": 1521236233324}, {"current_trial": 97, "trialdata": {"rt": -1, "trial_type": "single-stim", "word": "lettuce", "stimulus": "<p id=\"stim\">LETTUCE</p>", "conditions": [12, 800, "v", 12000], "internal_node_id": "0.0-70.0", "trial": 2, "time_elapsed": 847391, "serialpos": 8, "key_press": -1, "wordID": 813, "type": "PRES_VIS", "trial_index": 97}, "uniqueid": "MTK3772:3IXEICO793Q0AO4I9P3VP7W1KZNT66", "dateTime": 1521236235178}, {"current_trial": 98, "trialdata": {"rt": -1, "trial_type": "single-stim", "word": "poet", "stimulus": "<p id=\"stim\">POET</p>", "conditions": [12, 800, "v", 12000], "internal_node_id": "0.0-71.0", "trial": 2, "time_elapsed": 849373, "serialpos": 9, "key_press": -1, "wordID": 1094, "type": "PRES_VIS", "trial_index": 98}, "uniqueid": "MTK3772:3IXEICO793Q0AO4I9P3VP7W1KZNT66", "dateTime": 1521236237160}, {"current_trial": 99, "trialdata": {"rt": -1, "trial_type": "single-stim", "word": "skirt", "stimulus": "<p id=\"stim\">SKIRT</p>", "conditions": [12, 800, "v", 12000], "internal_node_id": "0.0-72.0", "trial": 2, "time_elapsed": 851158, "serialpos": 10, "key_press": -1, "wordID": 1318, "type": "PRES_VIS", "trial_index": 99}, "uniqueid": "MTK3772:3IXEICO793Q0AO4I9P3VP7W1KZNT66", "dateTime": 1521236238945}, {"current_trial": 100, "trialdata": {"rt": -1, "trial_type": "single-stim", "word": "nightgown", "stimulus": "<p id=\"stim\">NIGHTGOWN</p>", "conditions": [12, 800, "v", 12000], "internal_node_id": "0.0-73.0", "trial": 2, "time_elapsed": 853031, "serialpos": 11, "key_press": -1, "wordID": 952, "type": "PRES_VIS", "trial_index": 100}, "uniqueid": "MTK3772:3IXEICO793Q0AO4I9P3VP7W1KZNT66", "dateTime": 1521236240819}, {"current_trial": 101, "trialdata": {"rt": -1, "trial_type": "single-stim", "stimulus": "", "internal_node_id": "0.0-74.0-0.0", "time_elapsed": 855513, "key_press": -1, "type": "PRE_RECALL_DELAY", "trial_index": 101}, "uniqueid": "MTK3772:3IXEICO793Q0AO4I9P3VP7W1KZNT66", "dateTime": 1521236243300}, {"current_trial": 102, "trialdata": {"rt": -1000, "trial_type": "single-audio", "stimulus": "/static/audio/400Hz.wav", "internal_node_id": "0.0-75.0", "time_elapsed": 856024, "key_press": -1, "type": "PRE_RECALL_ALERT", "trial_index": 102}, "uniqueid": "MTK3772:3IXEICO793Q0AO4I9P3VP7W1KZNT66", "dateTime": 1521236243811}, {"current_trial": 103, "trialdata": {"rt": [3922, 6540, 7607, 9092, 11245, 16169, 17393, 19663, 28623, 35492], "recwords": ["sibling\\", "tutu", "wasp", "spider", "beast'", "pants", "skirt", "nightgown", "beast", "donkey"], "key_times": [2611, 2737, 2929, 3150, 3329, 3471, 3548, 3919, 3922, 4260, 4678, 5108, 5250, 5362, 6086, 6540, 6789, 7001, 7056, 7170, 7607, 8024, 8138, 8307, 8423, 8485, 8626, 9092, 10280, 10386, 10593, 10671, 10808, 11242, 11245, 15478, 15592, 15778, 15876, 16045, 16169, 16752, 16850, 17020, 17143, 17219, 17393, 17907, 18079, 18294, 18463, 18550, 18866, 19001, 19130, 19243, 19663, 27907, 28012, 28172, 28261, 28501, 28623, 34297, 34421, 34593, 34790, 34898, 35307, 35492], "trial_type": "free-recall", "conditions": [12, 800, "v", 12000], "internal_node_id": "0.0-76.0-0.0", "key_presses": [83, 73, 66, 76, 73, 78, 71, 220, 13, 83, 8, 84, 85, 84, 85, 13, 87, 65, 83, 80, 13, 83, 80, 73, 68, 69, 82, 13, 66, 69, 65, 83, 84, 222, 13, 80, 65, 78, 84, 83, 13, 83, 75, 73, 82, 84, 13, 78, 73, 71, 72, 84, 71, 79, 87, 78, 13, 66, 69, 65, 83, 84, 13, 68, 79, 78, 75, 69, 89, 13], "trial": 2, "time_elapsed": 916034, "type": "FREE_RECALL", "trial_index": 103}, "uniqueid": "MTK3772:3IXEICO793Q0AO4I9P3VP7W1KZNT66", "dateTime": 1521236303852}, {"current_trial": 104, "trialdata": {"rt": 1765, "trial_type": "text", "internal_node_id": "0.0-77.0", "time_elapsed": 919840, "key_press": 74, "type": "INSTRUCTIONS", "trial_index": 104}, "uniqueid": "MTK3772:3IXEICO793Q0AO4I9P3VP7W1KZNT66", "dateTime": 1521236307627}, {"current_trial": 105, "trialdata": {"rt": [2078, 4389, 6413, 8139, 11102], "trial_type": "math-distractor", "key_times": [1226, 1397, 2078, 3989, 4170, 4389, 6027, 6175, 6413, 7859, 7959, 8139, 9518, 10244, 10747, 10917, 11102], "responses": ["11", "20", "16", "21", "10"], "num2": [8, 4, 7, 7, 3, 7], "num3": [1, 8, 3, 7, 5, 2], "conditions": [12, 800, "v", 12000], "internal_node_id": "0.0-78.0", "key_presses": [97, 97, 13, 98, 96, 13, 97, 102, 13, 98, 97, 13, 100, 8, 97, 96, 13], "trial": 3, "time_elapsed": 933861, "type": "DISTRACTOR", "trial_index": 105, "num1": [2, 7, 6, 7, 2, 7]}, "uniqueid": "MTK3772:3IXEICO793Q0AO4I9P3VP7W1KZNT66", "dateTime": 1521236321648}, {"current_trial": 106, "trialdata": {"rt": -1, "trial_type": "single-stim", "stimulus": "<p id=\"stim\">10</p>", "internal_node_id": "0.0-79.0-0.0", "time_elapsed": 936866, "key_press": -1, "trial_index": 106}, "uniqueid": "MTK3772:3IXEICO793Q0AO4I9P3VP7W1KZNT66", "dateTime": 1521236324653}, {"current_trial": 107, "trialdata": {"rt": -1, "trial_type": "single-stim", "stimulus": "<p id=\"stim\">9</p>", "internal_node_id": "0.0-79.0-1.0", "time_elapsed": 937869, "key_press": -1, "trial_index": 107}, "uniqueid": "MTK3772:3IXEICO793Q0AO4I9P3VP7W1KZNT66", "dateTime": 1521236325656}, {"current_trial": 108, "trialdata": {"rt": -1, "trial_type": "single-stim", "stimulus": "<p id=\"stim\">8</p>", "internal_node_id": "0.0-79.0-2.0", "time_elapsed": 938873, "key_press": -1, "trial_index": 108}, "uniqueid": "MTK3772:3IXEICO793Q0AO4I9P3VP7W1KZNT66", "dateTime": 1521236326660}, {"current_trial": 109, "trialdata": {"rt": -1, "trial_type": "single-stim", "stimulus": "<p id=\"stim\">7</p>", "internal_node_id": "0.0-79.0-3.0", "time_elapsed": 939875, "key_press": -1, "trial_index": 109}, "uniqueid": "MTK3772:3IXEICO793Q0AO4I9P3VP7W1KZNT66", "dateTime": 1521236327663}, {"current_trial": 110, "trialdata": {"rt": -1, "trial_type": "single-stim", "stimulus": "<p id=\"stim\">6</p>", "internal_node_id": "0.0-79.0-4.0", "time_elapsed": 940881, "key_press": -1, "trial_index": 110}, "uniqueid": "MTK3772:3IXEICO793Q0AO4I9P3VP7W1KZNT66", "dateTime": 1521236328668}, {"current_trial": 111, "trialdata": {"rt": -1, "trial_type": "single-stim", "stimulus": "<p id=\"stim\">5</p>", "internal_node_id": "0.0-79.0-5.0", "time_elapsed": 941886, "key_press": -1, "trial_index": 111}, "uniqueid": "MTK3772:3IXEICO793Q0AO4I9P3VP7W1KZNT66", "dateTime": 1521236329673}, {"current_trial": 112, "trialdata": {"rt": -1, "trial_type": "single-stim", "stimulus": "<p id=\"stim\">4</p>", "internal_node_id": "0.0-79.0-6.0", "time_elapsed": 942890, "key_press": -1, "trial_index": 112}, "uniqueid": "MTK3772:3IXEICO793Q0AO4I9P3VP7W1KZNT66", "dateTime": 1521236330678}, {"current_trial": 113, "trialdata": {"rt": -1, "trial_type": "single-stim", "stimulus": "<p id=\"stim\">3</p>", "internal_node_id": "0.0-79.0-7.0", "time_elapsed": 943898, "key_press": -1, "trial_index": 113}, "uniqueid": "MTK3772:3IXEICO793Q0AO4I9P3VP7W1KZNT66", "dateTime": 1521236331685}, {"current_trial": 114, "trialdata": {"rt": -1, "trial_type": "single-stim", "stimulus": "<p id=\"stim\">2</p>", "internal_node_id": "0.0-79.0-8.0", "time_elapsed": 944900, "key_press": -1, "trial_index": 114}, "uniqueid": "MTK3772:3IXEICO793Q0AO4I9P3VP7W1KZNT66", "dateTime": 1521236332688}, {"current_trial": 115, "trialdata": {"rt": -1, "trial_type": "single-stim", "stimulus": "<p id=\"stim\">1</p>", "internal_node_id": "0.0-79.0-9.0", "time_elapsed": 945903, "key_press": -1, "trial_index": 115}, "uniqueid": "MTK3772:3IXEICO793Q0AO4I9P3VP7W1KZNT66", "dateTime": 1521236333690}, {"current_trial": 116, "trialdata": {"rt": -1, "trial_type": "single-stim", "stimulus": "<p id=\"stim\">+</p>", "internal_node_id": "0.0-80.0-0.0", "time_elapsed": 947407, "key_press": -1, "type": "FIXATION", "trial_index": 116}, "uniqueid": "MTK3772:3IXEICO793Q0AO4I9P3VP7W1KZNT66", "dateTime": 1521236335194}, {"current_trial": 117, "trialdata": {"rt": -1, "trial_type": "single-stim", "word": "tart", "stimulus": "<p id=\"stim\">TART</p>", "conditions": [12, 800, "v", 12000], "internal_node_id": "0.0-81.0", "trial": 3, "time_elapsed": 948212, "serialpos": 0, "key_press": -1, "wordID": 1435, "type": "PRES_VIS", "trial_index": 117}, "uniqueid": "MTK3772:3IXEICO793Q0AO4I9P3VP7W1KZNT66", "dateTime": 1521236336000}, {"current_trial": 118, "trialdata": {"rt": -1, "trial_type": "single-stim", "word": "seal", "stimulus": "<p id=\"stim\">SEAL</p>", "conditions": [12, 800, "v", 12000], "internal_node_id": "0.0-82.0", "trial": 3, "time_elapsed": 950197, "serialpos": 1, "key_press": -1, "wordID": 1261, "type": "PRES_VIS", "trial_index": 118}, "uniqueid": "MTK3772:3IXEICO793Q0AO4I9P3VP7W1KZNT66", "dateTime": 1521236337985}, {"current_trial": 119, "trialdata": {"rt": -1, "trial_type": "single-stim", "word": "sculpture", "stimulus": "<p id=\"stim\">SCULPTURE</p>", "conditions": [12, 800, "v", 12000], "internal_node_id": "0.0-83.0", "trial": 3, "time_elapsed": 952143, "serialpos": 2, "key_press": -1, "wordID": 1257, "type": "PRES_VIS", "trial_index": 119}, "uniqueid": "MTK3772:3IXEICO793Q0AO4I9P3VP7W1KZNT66", "dateTime": 1521236339930}, {"current_trial": 120, "trialdata": {"rt": -1, "trial_type": "single-stim", "word": "actress", "stimulus": "<p id=\"stim\">ACTRESS</p>", "conditions": [12, 800, "v", 12000], "internal_node_id": "0.0-84.0", "trial": 3, "time_elapsed": 953858, "serialpos": 3, "key_press": -1, "wordID": 5, "type": "PRES_VIS", "trial_index": 120}, "uniqueid": "MTK3772:3IXEICO793Q0AO4I9P3VP7W1KZNT66", "dateTime": 1521236341645}, {"current_trial": 121, "trialdata": {"rt": -1, "trial_type": "single-stim", "word": "honey", "stimulus": "<p id=\"stim\">HONEY</p>", "conditions": [12, 800, "v", 12000], "internal_node_id": "0.0-85.0", "trial": 3, "time_elapsed": 955711, "serialpos": 4, "key_press": -1, "wordID": 712, "type": "PRES_VIS", "trial_index": 121}, "uniqueid": "MTK3772:3IXEICO793Q0AO4I9P3VP7W1KZNT66", "dateTime": 1521236343499}, {"current_trial": 122, "trialdata": {"rt": -1, "trial_type": "single-stim", "word": "grape", "stimulus": "<p id=\"stim\">GRAPE</p>", "conditions": [12, 800, "v", 12000], "internal_node_id": "0.0-86.0", "trial": 3, "time_elapsed": 957637, "serialpos": 5, "key_press": -1, "wordID": 653, "type": "PRES_VIS", "trial_index": 122}, "uniqueid": "MTK3772:3IXEICO793Q0AO4I9P3VP7W1KZNT66", "dateTime": 1521236345424}, {"current_trial": 123, "trialdata": {"rt": -1, "trial_type": "single-stim", "word": "piston", "stimulus": "<p id=\"stim\">PISTON</p>", "conditions": [12, 800, "v", 12000], "internal_node_id": "0.0-87.0", "trial": 3, "time_elapsed": 959372, "serialpos": 6, "key_press": -1, "wordID": 1075, "type": "PRES_VIS", "trial_index": 123}, "uniqueid": "MTK3772:3IXEICO793Q0AO4I9P3VP7W1KZNT66", "dateTime": 1521236347160}, {"current_trial": 124, "trialdata": {"rt": -1, "trial_type": "single-stim", "word": "rocket", "stimulus": "<p id=\"stim\">ROCKET</p>", "conditions": [12, 800, "v", 12000], "internal_node_id": "0.0-88.0", "trial": 3, "time_elapsed": 961304, "serialpos": 7, "key_press": -1, "wordID": 1201, "type": "PRES_VIS", "trial_index": 124}, "uniqueid": "MTK3772:3IXEICO793Q0AO4I9P3VP7W1KZNT66", "dateTime": 1521236349091}, {"current_trial": 125, "trialdata": {"rt": -1, "trial_type": "single-stim", "word": "marine", "stimulus": "<p id=\"stim\">MARINE</p>", "conditions": [12, 800, "v", 12000], "internal_node_id": "0.0-89.0", "trial": 3, "time_elapsed": 963200, "serialpos": 8, "key_press": -1, "wordID": 868, "type": "PRES_VIS", "trial_index": 125}, "uniqueid": "MTK3772:3IXEICO793Q0AO4I9P3VP7W1KZNT66", "dateTime": 1521236350992}, {"current_trial": 126, "trialdata": {"rt": -1, "trial_type": "single-stim", "word": "radish", "stimulus": "<p id=\"stim\">RADISH</p>", "conditions": [12, 800, "v", 12000], "internal_node_id": "0.0-90.0", "trial": 3, "time_elapsed": 964942, "serialpos": 9, "key_press": -1, "wordID": 1157, "type": "PRES_VIS", "trial_index": 126}, "uniqueid": "MTK3772:3IXEICO793Q0AO4I9P3VP7W1KZNT66", "dateTime": 1521236352729}, {"current_trial": 127, "trialdata": {"rt": -1, "trial_type": "single-stim", "word": "statue", "stimulus": "<p id=\"stim\">STATUE</p>", "conditions": [12, 800, "v", 12000], "internal_node_id": "0.0-91.0", "trial": 3, "time_elapsed": 966674, "serialpos": 10, "key_press": -1, "wordID": 1373, "type": "PRES_VIS", "trial_index": 127}, "uniqueid": "MTK3772:3IXEICO793Q0AO4I9P3VP7W1KZNT66", "dateTime": 1521236354461}, {"current_trial": 128, "trialdata": {"rt": -1, "trial_type": "single-stim", "word": "lizard", "stimulus": "<p id=\"stim\">LIZARD</p>", "conditions": [12, 800, "v", 12000], "internal_node_id": "0.0-92.0", "trial": 3, "time_elapsed": 968454, "serialpos": 11, "key_press": -1, "wordID": 833, "type": "PRES_VIS", "trial_index": 128}, "uniqueid": "MTK3772:3IXEICO793Q0AO4I9P3VP7W1KZNT66", "dateTime": 1521236356241}, {"current_trial": 129, "trialdata": {"rt": -1, "trial_type": "single-stim", "stimulus": "", "internal_node_id": "0.0-93.0-0.0", "time_elapsed": 970854, "key_press": -1, "type": "PRE_RECALL_DELAY", "trial_index": 129}, "uniqueid": "MTK3772:3IXEICO793Q0AO4I9P3VP7W1KZNT66", "dateTime": 1521236358641}, {"current_trial": 130, "trialdata": {"rt": -1000, "trial_type": "single-audio", "stimulus": "/static/audio/400Hz.wav", "internal_node_id": "0.0-94.0", "time_elapsed": 971362, "key_press": -1, "type": "PRE_RECALL_ALERT", "trial_index": 130}, "uniqueid": "MTK3772:3IXEICO793Q0AO4I9P3VP7W1KZNT66", "dateTime": 1521236359151}, {"current_trial": 131, "trialdata": {"rt": [2228, 3476, 5024, 8547, 10778, 12531, 15254, 17110], "recwords": ["rocket", "marine", "statue", "radish", "piston", "seal", "sculpture", "actress"], "key_times": [1452, 1582, 1681, 1800, 1935, 2021, 2228, 2669, 2760, 2938, 3032, 3177, 3286, 3476, 4219, 4347, 4454, 4543, 4681, 4781, 5024, 5484, 5677, 6015, 6021, 6124, 6253, 6349, 6797, 6953, 7116, 7295, 7792, 7972, 8099, 8547, 9753, 9920, 10035, 10241, 10327, 10472, 10778, 11857, 12017, 12170, 12270, 12531, 13002, 13208, 13403, 13942, 14170, 14718, 14882, 14972, 15019, 15254, 15626, 15835, 16071, 16322, 16404, 16655, 16818, 17110], "trial_type": "free-recall", "conditions": [12, 800, "v", 12000], "internal_node_id": "0.0-95.0-0.0", "key_presses": [82, 79, 67, 75, 69, 84, 13, 77, 65, 82, 73, 78, 69, 13, 83, 84, 65, 84, 85, 69, 13, 82, 65, 68, 70, 73, 83, 72, 8, 8, 8, 8, 73, 83, 72, 13, 80, 73, 83, 84, 79, 78, 13, 83, 69, 65, 76, 13, 83, 67, 85, 76, 80, 84, 85, 82, 69, 13, 65, 67, 84, 82, 69, 83, 83, 13], "trial": 3, "time_elapsed": 1031383, "type": "FREE_RECALL", "trial_index": 131}, "uniqueid": "MTK3772:3IXEICO793Q0AO4I9P3VP7W1KZNT66", "dateTime": 1521236419200}, {"current_trial": 132, "trialdata": {"rt": 52767, "trial_type": "text", "internal_node_id": "0.0-96.0", "time_elapsed": 1086183, "key_press": 70, "type": "INSTRUCTIONS", "trial_index": 132}, "uniqueid": "MTK3772:3IXEICO793Q0AO4I9P3VP7W1KZNT66", "dateTime": 1521236473970}, {"current_trial": 133, "trialdata": {"rt": [2224, 3938, 5855, 7476, 9511, 11547], "trial_type": "math-distractor", "key_times": [1761, 1954, 2224, 3527, 3723, 3938, 5372, 5606, 5855, 7053, 7250, 7476, 9132, 9283, 9511, 11277, 11547], "responses": ["19", "14", "17", "12", "14", "8"], "num2": [7, 4, 7, 2, 7, 2, 6], "num3": [7, 2, 3, 7, 2, 3, 4], "conditions": [24, 800, "v", 12000], "internal_node_id": "0.0-97.0", "key_presses": [97, 105, 13, 97, 100, 13, 97, 103, 13, 97, 98, 13, 97, 100, 13, 104, 13], "trial": 4, "time_elapsed": 1100195, "type": "DISTRACTOR", "trial_index": 133, "num1": [5, 8, 8, 3, 5, 3, 1]}, "uniqueid": "MTK3772:3IXEICO793Q0AO4I9P3VP7W1KZNT66", "dateTime": 1521236487982}, {"current_trial": 134, "trialdata": {"rt": -1, "trial_type": "single-stim", "stimulus": "<p id=\"stim\">10</p>", "internal_node_id": "0.0-98.0-0.0", "time_elapsed": 1103241, "key_press": -1, "trial_index": 134}, "uniqueid": "MTK3772:3IXEICO793Q0AO4I9P3VP7W1KZNT66", "dateTime": 1521236491028}, {"current_trial": 135, "trialdata": {"rt": -1, "trial_type": "single-stim", "stimulus": "<p id=\"stim\">9</p>", "internal_node_id": "0.0-98.0-1.0", "time_elapsed": 1104247, "key_press": -1, "trial_index": 135}, "uniqueid": "MTK3772:3IXEICO793Q0AO4I9P3VP7W1KZNT66", "dateTime": 1521236492035}, {"current_trial": 136, "trialdata": {"rt": -1, "trial_type": "single-stim", "stimulus": "<p id=\"stim\">8</p>", "internal_node_id": "0.0-98.0-2.0", "time_elapsed": 1105256, "key_press": -1, "trial_index": 136}, "uniqueid": "MTK3772:3IXEICO793Q0AO4I9P3VP7W1KZNT66", "dateTime": 1521236493043}, {"current_trial": 137, "trialdata": {"rt": -1, "trial_type": "single-stim", "stimulus": "<p id=\"stim\">7</p>", "internal_node_id": "0.0-98.0-3.0", "time_elapsed": 1106260, "key_press": -1, "trial_index": 137}, "uniqueid": "MTK3772:3IXEICO793Q0AO4I9P3VP7W1KZNT66", "dateTime": 1521236494048}, {"current_trial": 138, "trialdata": {"rt": -1, "trial_type": "single-stim", "stimulus": "<p id=\"stim\">6</p>", "internal_node_id": "0.0-98.0-4.0", "time_elapsed": 1107265, "key_press": -1, "trial_index": 138}, "uniqueid": "MTK3772:3IXEICO793Q0AO4I9P3VP7W1KZNT66", "dateTime": 1521236495053}, {"current_trial": 139, "trialdata": {"rt": -1, "trial_type": "single-stim", "stimulus": "<p id=\"stim\">5</p>", "internal_node_id": "0.0-98.0-5.0", "time_elapsed": 1108270, "key_press": -1, "trial_index": 139}, "uniqueid": "MTK3772:3IXEICO793Q0AO4I9P3VP7W1KZNT66", "dateTime": 1521236496057}, {"current_trial": 140, "trialdata": {"rt": -1, "trial_type": "single-stim", "stimulus": "<p id=\"stim\">4</p>", "internal_node_id": "0.0-98.0-6.0", "time_elapsed": 1109275, "key_press": -1, "trial_index": 140}, "uniqueid": "MTK3772:3IXEICO793Q0AO4I9P3VP7W1KZNT66", "dateTime": 1521236497062}, {"current_trial": 141, "trialdata": {"rt": -1, "trial_type": "single-stim", "stimulus": "<p id=\"stim\">3</p>", "internal_node_id": "0.0-98.0-7.0", "time_elapsed": 1110277, "key_press": -1, "trial_index": 141}, "uniqueid": "MTK3772:3IXEICO793Q0AO4I9P3VP7W1KZNT66", "dateTime": 1521236498065}, {"current_trial": 142, "trialdata": {"rt": -1, "trial_type": "single-stim", "stimulus": "<p id=\"stim\">2</p>", "internal_node_id": "0.0-98.0-8.0", "time_elapsed": 1111283, "key_press": -1, "trial_index": 142}, "uniqueid": "MTK3772:3IXEICO793Q0AO4I9P3VP7W1KZNT66", "dateTime": 1521236499070}, {"current_trial": 143, "trialdata": {"rt": -1, "trial_type": "single-stim", "stimulus": "<p id=\"stim\">1</p>", "internal_node_id": "0.0-98.0-9.0", "time_elapsed": 1112291, "key_press": -1, "trial_index": 143}, "uniqueid": "MTK3772:3IXEICO793Q0AO4I9P3VP7W1KZNT66", "dateTime": 1521236500079}, {"current_trial": 144, "trialdata": {"rt": -1, "trial_type": "single-stim", "stimulus": "<p id=\"stim\">+</p>", "internal_node_id": "0.0-99.0-0.0", "time_elapsed": 1113801, "key_press": -1, "type": "FIXATION", "trial_index": 144}, "uniqueid": "MTK3772:3IXEICO793Q0AO4I9P3VP7W1KZNT66", "dateTime": 1521236501589}, {"current_trial": 145, "trialdata": {"rt": -1, "trial_type": "single-stim", "word": "omelet", "stimulus": "<p id=\"stim\">OMELET</p>", "conditions": [24, 800, "v", 12000], "internal_node_id": "0.0-100.0", "trial": 4, "time_elapsed": 1114607, "serialpos": 0, "key_press": -1, "wordID": 975, "type": "PRES_VIS", "trial_index": 145}, "uniqueid": "MTK3772:3IXEICO793Q0AO4I9P3VP7W1KZNT66", "dateTime": 1521236502394}, {"current_trial": 146, "trialdata": {"rt": -1, "trial_type": "single-stim", "word": "fox", "stimulus": "<p id=\"stim\">FOX</p>", "conditions": [24, 800, "v", 12000], "internal_node_id": "0.0-101.0", "trial": 4, "time_elapsed": 1116227, "serialpos": 1, "key_press": -1, "wordID": 597, "type": "PRES_VIS", "trial_index": 146}, "uniqueid": "MTK3772:3IXEICO793Q0AO4I9P3VP7W1KZNT66", "dateTime": 1521236504016}, {"current_trial": 147, "trialdata": {"rt": -1, "trial_type": "single-stim", "word": "possum", "stimulus": "<p id=\"stim\">POSSUM</p>", "conditions": [24, 800, "v", 12000], "internal_node_id": "0.0-102.0", "trial": 4, "time_elapsed": 1117944, "serialpos": 2, "key_press": -1, "wordID": 1111, "type": "PRES_VIS", "trial_index": 147}, "uniqueid": "MTK3772:3IXEICO793Q0AO4I9P3VP7W1KZNT66", "dateTime": 1521236505732}, {"current_trial": 148, "trialdata": {"rt": -1, "trial_type": "single-stim", "word": "lover", "stimulus": "<p id=\"stim\">LOVER</p>", "conditions": [24, 800, "v", 12000], "internal_node_id": "0.0-103.0", "trial": 4, "time_elapsed": 1119918, "serialpos": 3, "key_press": -1, "wordID": 845, "type": "PRES_VIS", "trial_index": 148}, "uniqueid": "MTK3772:3IXEICO793Q0AO4I9P3VP7W1KZNT66", "dateTime": 1521236507706}, {"current_trial": 149, "trialdata": {"rt": -1, "trial_type": "single-stim", "word": "police", "stimulus": "<p id=\"stim\">POLICE</p>", "conditions": [24, 800, "v", 12000], "internal_node_id": "0.0-104.0", "trial": 4, "time_elapsed": 1121714, "serialpos": 4, "key_press": -1, "wordID": 1097, "type": "PRES_VIS", "trial_index": 149}, "uniqueid": "MTK3772:3IXEICO793Q0AO4I9P3VP7W1KZNT66", "dateTime": 1521236509501}, {"current_trial": 150, "trialdata": {"rt": -1, "trial_type": "single-stim", "word": "sister", "stimulus": "<p id=\"stim\">SISTER</p>", "conditions": [24, 800, "v", 12000], "internal_node_id": "0.0-105.0", "trial": 4, "time_elapsed": 1123660, "serialpos": 5, "key_press": -1, "wordID": 1311, "type": "PRES_VIS", "trial_index": 150}, "uniqueid": "MTK3772:3IXEICO793Q0AO4I9P3VP7W1KZNT66", "dateTime": 1521236511448}, {"current_trial": 151, "trialdata": {"rt": -1, "trial_type": "single-stim", "word": "husband", "stimulus": "<p id=\"stim\">HUSBAND</p>", "conditions": [24, 800, "v", 12000], "internal_node_id": "0.0-106.0", "trial": 4, "time_elapsed": 1125319, "serialpos": 6, "key_press": -1, "wordID": 727, "type": "PRES_VIS", "trial_index": 151}, "uniqueid": "MTK3772:3IXEICO793Q0AO4I9P3VP7W1KZNT66", "dateTime": 1521236513108}, {"current_trial": 152, "trialdata": {"rt": -1, "trial_type": "single-stim", "word": "cabin", "stimulus": "<p id=\"stim\">CABIN</p>", "conditions": [24, 800, "v", 12000], "internal_node_id": "0.0-107.0", "trial": 4, "time_elapsed": 1126960, "serialpos": 7, "key_press": -1, "wordID": 210, "type": "PRES_VIS", "trial_index": 152}, "uniqueid": "MTK3772:3IXEICO793Q0AO4I9P3VP7W1KZNT66", "dateTime": 1521236514747}, {"current_trial": 153, "trialdata": {"rt": -1, "trial_type": "single-stim", "word": "suitcase", "stimulus": "<p id=\"stim\">SUITCASE</p>", "conditions": [24, 800, "v", 12000], "internal_node_id": "0.0-108.0", "trial": 4, "time_elapsed": 1128888, "serialpos": 8, "key_press": -1, "wordID": 1402, "type": "PRES_VIS", "trial_index": 153}, "uniqueid": "MTK3772:3IXEICO793Q0AO4I9P3VP7W1KZNT66", "dateTime": 1521236516676}, {"current_trial": 154, "trialdata": {"rt": -1, "trial_type": "single-stim", "word": "rabbit", "stimulus": "<p id=\"stim\">RABBIT</p>", "conditions": [24, 800, "v", 12000], "internal_node_id": "0.0-109.0", "trial": 4, "time_elapsed": 1130878, "serialpos": 9, "key_press": -1, "wordID": 1151, "type": "PRES_VIS", "trial_index": 154}, "uniqueid": "MTK3772:3IXEICO793Q0AO4I9P3VP7W1KZNT66", "dateTime": 1521236518665}, {"current_trial": 155, "trialdata": {"rt": -1, "trial_type": "single-stim", "word": "cafe", "stimulus": "<p id=\"stim\">CAFE</p>", "conditions": [24, 800, "v", 12000], "internal_node_id": "0.0-110.0", "trial": 4, "time_elapsed": 1132634, "serialpos": 10, "key_press": -1, "wordID": 215, "type": "PRES_VIS", "trial_index": 155}, "uniqueid": "MTK3772:3IXEICO793Q0AO4I9P3VP7W1KZNT66", "dateTime": 1521236520422}, {"current_trial": 156, "trialdata": {"rt": -1, "trial_type": "single-stim", "word": "preacher", "stimulus": "<p id=\"stim\">PREACHER</p>", "conditions": [24, 800, "v", 12000], "internal_node_id": "0.0-111.0", "trial": 4, "time_elapsed": 1134509, "serialpos": 11, "key_press": -1, "wordID": 1118, "type": "PRES_VIS", "trial_index": 156}, "uniqueid": "MTK3772:3IXEICO793Q0AO4I9P3VP7W1KZNT66", "dateTime": 1521236522296}, {"current_trial": 157, "trialdata": {"rt": -1, "trial_type": "single-stim", "word": "student", "stimulus": "<p id=\"stim\">STUDENT</p>", "conditions": [24, 800, "v", 12000], "internal_node_id": "0.0-112.0", "trial": 4, "time_elapsed": 1136243, "serialpos": 12, "key_press": -1, "wordID": 1394, "type": "PRES_VIS", "trial_index": 157}, "uniqueid": "MTK3772:3IXEICO793Q0AO4I9P3VP7W1KZNT66", "dateTime": 1521236524031}, {"current_trial": 158, "trialdata": {"rt": -1, "trial_type": "single-stim", "word": "dragon", "stimulus": "<p id=\"stim\">DRAGON</p>", "conditions": [24, 800, "v", 12000], "internal_node_id": "0.0-113.0", "trial": 4, "time_elapsed": 1138113, "serialpos": 13, "key_press": -1, "wordID": 491, "type": "PRES_VIS", "trial_index": 158}, "uniqueid": "MTK3772:3IXEICO793Q0AO4I9P3VP7W1KZNT66", "dateTime": 1521236525900}, {"current_trial": 159, "trialdata": {"rt": -1, "trial_type": "single-stim", "word": "goblin", "stimulus": "<p id=\"stim\">GOBLIN</p>", "conditions": [24, 800, "v", 12000], "internal_node_id": "0.0-114.0", "trial": 4, "time_elapsed": 1140002, "serialpos": 14, "key_press": -1, "wordID": 644, "type": "PRES_VIS", "trial_index": 159}, "uniqueid": "MTK3772:3IXEICO793Q0AO4I9P3VP7W1KZNT66", "dateTime": 1521236527790}, {"current_trial": 160, "trialdata": {"rt": -1, "trial_type": "single-stim", "word": "gallon", "stimulus": "<p id=\"stim\">GALLON</p>", "conditions": [24, 800, "v", 12000], "internal_node_id": "0.0-115.0", "trial": 4, "time_elapsed": 1141974, "serialpos": 15, "key_press": -1, "wordID": 617, "type": "PRES_VIS", "trial_index": 160}, "uniqueid": "MTK3772:3IXEICO793Q0AO4I9P3VP7W1KZNT66", "dateTime": 1521236529762}, {"current_trial": 161, "trialdata": {"rt": -1, "trial_type": "single-stim", "word": "igloo", "stimulus": "<p id=\"stim\">IGLOO</p>", "conditions": [24, 800, "v", 12000], "internal_node_id": "0.0-116.0", "trial": 4, "time_elapsed": 1144049, "serialpos": 16, "key_press": -1, "wordID": 733, "type": "PRES_VIS", "trial_index": 161}, "uniqueid": "MTK3772:3IXEICO793Q0AO4I9P3VP7W1KZNT66", "dateTime": 1521236531837}, {"current_trial": 162, "trialdata": {"rt": -1, "trial_type": "single-stim", "word": "yarn", "stimulus": "<p id=\"stim\">YARN</p>", "conditions": [24, 800, "v", 12000], "internal_node_id": "0.0-117.0", "trial": 4, "time_elapsed": 1145929, "serialpos": 17, "key_press": -1, "wordID": 1630, "type": "PRES_VIS", "trial_index": 162}, "uniqueid": "MTK3772:3IXEICO793Q0AO4I9P3VP7W1KZNT66", "dateTime": 1521236533717}, {"current_trial": 163, "trialdata": {"rt": -1, "trial_type": "single-stim", "word": "garden", "stimulus": "<p id=\"stim\">GARDEN</p>", "conditions": [24, 800, "v", 12000], "internal_node_id": "0.0-118.0", "trial": 4, "time_elapsed": 1147719, "serialpos": 18, "key_press": -1, "wordID": 622, "type": "PRES_VIS", "trial_index": 163}, "uniqueid": "MTK3772:3IXEICO793Q0AO4I9P3VP7W1KZNT66", "dateTime": 1521236535506}, {"current_trial": 164, "trialdata": {"rt": -1, "trial_type": "single-stim", "word": "flask", "stimulus": "<p id=\"stim\">FLASK</p>", "conditions": [24, 800, "v", 12000], "internal_node_id": "0.0-119.0", "trial": 4, "time_elapsed": 1149567, "serialpos": 19, "key_press": -1, "wordID": 575, "type": "PRES_VIS", "trial_index": 164}, "uniqueid": "MTK3772:3IXEICO793Q0AO4I9P3VP7W1KZNT66", "dateTime": 1521236537355}, {"current_trial": 165, "trialdata": {"rt": -1, "trial_type": "single-stim", "word": "garlic", "stimulus": "<p id=\"stim\">GARLIC</p>", "conditions": [24, 800, "v", 12000], "internal_node_id": "0.0-120.0", "trial": 4, "time_elapsed": 1151607, "serialpos": 20, "key_press": -1, "wordID": 623, "type": "PRES_VIS", "trial_index": 165}, "uniqueid": "MTK3772:3IXEICO793Q0AO4I9P3VP7W1KZNT66", "dateTime": 1521236539395}, {"current_trial": 166, "trialdata": {"rt": -1, "trial_type": "single-stim", "word": "treat", "stimulus": "<p id=\"stim\">TREAT</p>", "conditions": [24, 800, "v", 12000], "internal_node_id": "0.0-121.0", "trial": 4, "time_elapsed": 1153552, "serialpos": 21, "key_press": -1, "wordID": 1500, "type": "PRES_VIS", "trial_index": 166}, "uniqueid": "MTK3772:3IXEICO793Q0AO4I9P3VP7W1KZNT66", "dateTime": 1521236541340}, {"current_trial": 167, "trialdata": {"rt": -1, "trial_type": "single-stim", "word": "sword", "stimulus": "<p id=\"stim\">SWORD</p>", "conditions": [24, 800, "v", 12000], "internal_node_id": "0.0-122.0", "trial": 4, "time_elapsed": 1155307, "serialpos": 22, "key_press": -1, "wordID": 1422, "type": "PRES_VIS", "trial_index": 167}, "uniqueid": "MTK3772:3IXEICO793Q0AO4I9P3VP7W1KZNT66", "dateTime": 1521236543095}, {"current_trial": 168, "trialdata": {"rt": -1, "trial_type": "single-stim", "word": "dorm", "stimulus": "<p id=\"stim\">DORM</p>", "conditions": [24, 800, "v", 12000], "internal_node_id": "0.0-123.0", "trial": 4, "time_elapsed": 1157281, "serialpos": 23, "key_press": -1, "wordID": 487, "type": "PRES_VIS", "trial_index": 168}, "uniqueid": "MTK3772:3IXEICO793Q0AO4I9P3VP7W1KZNT66", "dateTime": 1521236545068}, {"current_trial": 169, "trialdata": {"rt": -1, "trial_type": "single-stim", "stimulus": "", "internal_node_id": "0.0-124.0-0.0", "time_elapsed": 1159534, "key_press": -1, "type": "PRE_RECALL_DELAY", "trial_index": 169}, "uniqueid": "MTK3772:3IXEICO793Q0AO4I9P3VP7W1KZNT66", "dateTime": 1521236547322}, {"current_trial": 170, "trialdata": {"rt": -1000, "trial_type": "single-audio", "stimulus": "/static/audio/400Hz.wav", "internal_node_id": "0.0-125.0", "time_elapsed": 1160049, "key_press": -1, "type": "PRE_RECALL_ALERT", "trial_index": 170}, "uniqueid": "MTK3772:3IXEICO793Q0AO4I9P3VP7W1KZNT66", "dateTime": 1521236547836}, {"current_trial": 171, "trialdata": {"rt": [2300, 3277, 4711, 7088, 8936, 10537, 11957, 13463, 14610, 22219, 23918, 39254, 43571, 55370, 57300], "recwords": ["treat", "sword", "dorm", "goblin", "cabin", "suitcase", "sister", "husband", "lover", "treat", "dragon", "preacher", "cafe", "fox", "possum"], "key_times": [1159, 1253, 1307, 1513, 1601, 2300, 2547, 2608, 2833, 2916, 3059, 3277, 3821, 3958, 4268, 4398, 4711, 5278, 5454, 5681, 6060, 6099, 6277, 7088, 8004, 8170, 8308, 8494, 8638, 8936, 9340, 9458, 9600, 9697, 9908, 10097, 10209, 10388, 10537, 11063, 11277, 11397, 11581, 11875, 11881, 11957, 12522, 12674, 12773, 12901, 13005, 13129, 13221, 13463, 13961, 14152, 14238, 14375, 14457, 14610, 21145, 21268, 21329, 21541, 21622, 22219, 22817, 22992, 23148, 23341, 23436, 23599, 23918, 29858, 29939, 30047, 30171, 30232, 30256, 30308, 30764, 30922, 31087, 31241, 31407, 31551, 31708, 37556, 37690, 37743, 37993, 38391, 38464, 38655, 38779, 38869, 38921, 39254, 43062, 43210, 43357, 43412, 43571, 54856, 54997, 55174, 55370, 56218, 56365, 56513, 56663, 56772, 56963, 57300], "trial_type": "free-recall", "conditions": [24, 800, "v", 12000], "internal_node_id": "0.0-126.0-0.0", "key_presses": [84, 82, 69, 65, 84, 13, 83, 87, 79, 82, 68, 13, 68, 79, 82, 77, 13, 71, 79, 66, 76, 73, 78, 13, 67, 65, 66, 73, 78, 13, 83, 85, 73, 84, 67, 65, 83, 69, 13, 83, 73, 83, 84, 69, 82, 13, 72, 85, 83, 66, 65, 78, 68, 13, 76, 79, 86, 69, 82, 13, 84, 82, 69, 65, 84, 13, 68, 82, 65, 71, 79, 78, 13, 83, 73, 83, 84, 87, 69, 82, 8, 8, 8, 8, 8, 8, 8, 80, 82, 69, 67, 8, 65, 67, 72, 69, 82, 13, 67, 65, 70, 69, 13, 70, 79, 88, 13, 80, 79, 83, 83, 85, 77, 13], "trial": 4, "time_elapsed": 1220086, "type": "FREE_RECALL", "trial_index": 171}, "uniqueid": "MTK3772:3IXEICO793Q0AO4I9P3VP7W1KZNT66", "dateTime": 1521236607879}, {"current_trial": 172, "trialdata": {"rt": 1843, "trial_type": "text", "internal_node_id": "0.0-127.0", "time_elapsed": 1223937, "key_press": 13, "type": "INSTRUCTIONS", "trial_index": 172}, "uniqueid": "MTK3772:3IXEICO793Q0AO4I9P3VP7W1KZNT66", "dateTime": 1521236611724}, {"current_trial": 173, "trialdata": {"rt": [3530, 5154, 6865, 11670], "trial_type": "math-distractor", "key_times": [2894, 3153, 3530, 4756, 4907, 5154, 6497, 6672, 6865, 11301, 11466, 11670], "responses": ["17", "15", "12", "20"], "num2": [7, 6, 8, 3, 2], "num3": [2, 3, 3, 9, 7], "conditions": [24, 1600, "v", 12000], "internal_node_id": "0.0-128.0", "key_presses": [97, 103, 13, 97, 101, 13, 97, 98, 13, 98, 96, 13], "trial": 5, "time_elapsed": 1237954, "type": "DISTRACTOR", "trial_index": 173, "num1": [8, 6, 1, 8, 5]}, "uniqueid": "MTK3772:3IXEICO793Q0AO4I9P3VP7W1KZNT66", "dateTime": 1521236625741}, {"current_trial": 174, "trialdata": {"rt": -1, "trial_type": "single-stim", "stimulus": "<p id=\"stim\">10</p>", "internal_node_id": "0.0-129.0-0.0", "time_elapsed": 1240963, "key_press": -1, "trial_index": 174}, "uniqueid": "MTK3772:3IXEICO793Q0AO4I9P3VP7W1KZNT66", "dateTime": 1521236628750}, {"current_trial": 175, "trialdata": {"rt": -1, "trial_type": "single-stim", "stimulus": "<p id=\"stim\">9</p>", "internal_node_id": "0.0-129.0-1.0", "time_elapsed": 1241968, "key_press": -1, "trial_index": 175}, "uniqueid": "MTK3772:3IXEICO793Q0AO4I9P3VP7W1KZNT66", "dateTime": 1521236629755}, {"current_trial": 176, "trialdata": {"rt": -1, "trial_type": "single-stim", "stimulus": "<p id=\"stim\">8</p>", "internal_node_id": "0.0-129.0-2.0", "time_elapsed": 1242971, "key_press": -1, "trial_index": 176}, "uniqueid": "MTK3772:3IXEICO793Q0AO4I9P3VP7W1KZNT66", "dateTime": 1521236630758}, {"current_trial": 177, "trialdata": {"rt": -1, "trial_type": "single-stim", "stimulus": "<p id=\"stim\">7</p>", "internal_node_id": "0.0-129.0-3.0", "time_elapsed": 1243976, "key_press": -1, "trial_index": 177}, "uniqueid": "MTK3772:3IXEICO793Q0AO4I9P3VP7W1KZNT66", "dateTime": 1521236631764}, {"current_trial": 178, "trialdata": {"rt": -1, "trial_type": "single-stim", "stimulus": "<p id=\"stim\">6</p>", "internal_node_id": "0.0-129.0-4.0", "time_elapsed": 1244980, "key_press": -1, "trial_index": 178}, "uniqueid": "MTK3772:3IXEICO793Q0AO4I9P3VP7W1KZNT66", "dateTime": 1521236632767}, {"current_trial": 179, "trialdata": {"rt": -1, "trial_type": "single-stim", "stimulus": "<p id=\"stim\">5</p>", "internal_node_id": "0.0-129.0-5.0", "time_elapsed": 1245984, "key_press": -1, "trial_index": 179}, "uniqueid": "MTK3772:3IXEICO793Q0AO4I9P3VP7W1KZNT66", "dateTime": 1521236633771}, {"current_trial": 180, "trialdata": {"rt": -1, "trial_type": "single-stim", "stimulus": "<p id=\"stim\">4</p>", "internal_node_id": "0.0-129.0-6.0", "time_elapsed": 1246988, "key_press": -1, "trial_index": 180}, "uniqueid": "MTK3772:3IXEICO793Q0AO4I9P3VP7W1KZNT66", "dateTime": 1521236634776}, {"current_trial": 181, "trialdata": {"rt": -1, "trial_type": "single-stim", "stimulus": "<p id=\"stim\">3</p>", "internal_node_id": "0.0-129.0-7.0", "time_elapsed": 1247995, "key_press": -1, "trial_index": 181}, "uniqueid": "MTK3772:3IXEICO793Q0AO4I9P3VP7W1KZNT66", "dateTime": 1521236635782}, {"current_trial": 182, "trialdata": {"rt": -1, "trial_type": "single-stim", "stimulus": "<p id=\"stim\">2</p>", "internal_node_id": "0.0-129.0-8.0", "time_elapsed": 1249001, "key_press": -1, "trial_index": 182}, "uniqueid": "MTK3772:3IXEICO793Q0AO4I9P3VP7W1KZNT66", "dateTime": 1521236636789}, {"current_trial": 183, "trialdata": {"rt": -1, "trial_type": "single-stim", "stimulus": "<p id=\"stim\">1</p>", "internal_node_id": "0.0-129.0-9.0", "time_elapsed": 1250004, "key_press": -1, "trial_index": 183}, "uniqueid": "MTK3772:3IXEICO793Q0AO4I9P3VP7W1KZNT66", "dateTime": 1521236637792}, {"current_trial": 184, "trialdata": {"rt": -1, "trial_type": "single-stim", "stimulus": "<p id=\"stim\">+</p>", "internal_node_id": "0.0-130.0-0.0", "time_elapsed": 1251508, "key_press": -1, "type": "FIXATION", "trial_index": 184}, "uniqueid": "MTK3772:3IXEICO793Q0AO4I9P3VP7W1KZNT66", "dateTime": 1521236639295}, {"current_trial": 185, "trialdata": {"rt": -1, "trial_type": "single-stim", "word": "denim", "stimulus": "<p id=\"stim\">DENIM</p>", "conditions": [24, 1600, "v", 12000], "internal_node_id": "0.0-131.0", "trial": 5, "time_elapsed": 1253114, "serialpos": 0, "key_press": -1, "wordID": 445, "type": "PRES_VIS", "trial_index": 185}, "uniqueid": "MTK3772:3IXEICO793Q0AO4I9P3VP7W1KZNT66", "dateTime": 1521236640901}, {"current_trial": 186, "trialdata": {"rt": -1, "trial_type": "single-stim", "word": "mask", "stimulus": "<p id=\"stim\">MASK</p>", "conditions": [24, 1600, "v", 12000], "internal_node_id": "0.0-132.0", "trial": 5, "time_elapsed": 1255767, "serialpos": 1, "key_press": -1, "wordID": 875, "type": "PRES_VIS", "trial_index": 186}, "uniqueid": "MTK3772:3IXEICO793Q0AO4I9P3VP7W1KZNT66", "dateTime": 1521236643554}, {"current_trial": 187, "trialdata": {"rt": -1, "trial_type": "single-stim", "word": "picture", "stimulus": "<p id=\"stim\">PICTURE</p>", "conditions": [24, 1600, "v", 12000], "internal_node_id": "0.0-133.0", "trial": 5, "time_elapsed": 1258238, "serialpos": 2, "key_press": -1, "wordID": 1060, "type": "PRES_VIS", "trial_index": 187}, "uniqueid": "MTK3772:3IXEICO793Q0AO4I9P3VP7W1KZNT66", "dateTime": 1521236646026}, {"current_trial": 188, "trialdata": {"rt": -1, "trial_type": "single-stim", "word": "portrait", "stimulus": "<p id=\"stim\">PORTRAIT</p>", "conditions": [24, 1600, "v", 12000], "internal_node_id": "0.0-134.0", "trial": 5, "time_elapsed": 1261030, "serialpos": 3, "key_press": -1, "wordID": 1110, "type": "PRES_VIS", "trial_index": 188}, "uniqueid": "MTK3772:3IXEICO793Q0AO4I9P3VP7W1KZNT66", "dateTime": 1521236648817}, {"current_trial": 189, "trialdata": {"rt": -1, "trial_type": "single-stim", "word": "tweezers", "stimulus": "<p id=\"stim\">TWEEZERS</p>", "conditions": [24, 1600, "v", 12000], "internal_node_id": "0.0-135.0", "trial": 5, "time_elapsed": 1263640, "serialpos": 4, "key_press": -1, "wordID": 1525, "type": "PRES_VIS", "trial_index": 189}, "uniqueid": "MTK3772:3IXEICO793Q0AO4I9P3VP7W1KZNT66", "dateTime": 1521236651428}, {"current_trial": 190, "trialdata": {"rt": -1, "trial_type": "single-stim", "word": "neutron", "stimulus": "<p id=\"stim\">NEUTRON</p>", "conditions": [24, 1600, "v", 12000], "internal_node_id": "0.0-136.0", "trial": 5, "time_elapsed": 1266283, "serialpos": 5, "key_press": -1, "wordID": 946, "type": "PRES_VIS", "trial_index": 190}, "uniqueid": "MTK3772:3IXEICO793Q0AO4I9P3VP7W1KZNT66", "dateTime": 1521236654070}, {"current_trial": 191, "trialdata": {"rt": -1, "trial_type": "single-stim", "word": "flashlight", "stimulus": "<p id=\"stim\">FLASHLIGHT</p>", "conditions": [24, 1600, "v", 12000], "internal_node_id": "0.0-137.0", "trial": 5, "time_elapsed": 1269082, "serialpos": 6, "key_press": -1, "wordID": 574, "type": "PRES_VIS", "trial_index": 191}, "uniqueid": "MTK3772:3IXEICO793Q0AO4I9P3VP7W1KZNT66", "dateTime": 1521236656870}, {"current_trial": 192, "trialdata": {"rt": -1, "trial_type": "single-stim", "word": "lumber", "stimulus": "<p id=\"stim\">LUMBER</p>", "conditions": [24, 1600, "v", 12000], "internal_node_id": "0.0-138.0", "trial": 5, "time_elapsed": 1271654, "serialpos": 7, "key_press": -1, "wordID": 847, "type": "PRES_VIS", "trial_index": 192}, "uniqueid": "MTK3772:3IXEICO793Q0AO4I9P3VP7W1KZNT66", "dateTime": 1521236659442}, {"current_trial": 193, "trialdata": {"rt": -1, "trial_type": "single-stim", "word": "beaker", "stimulus": "<p id=\"stim\">BEAKER</p>", "conditions": [24, 1600, "v", 12000], "internal_node_id": "0.0-139.0", "trial": 5, "time_elapsed": 1274215, "serialpos": 8, "key_press": -1, "wordID": 103, "type": "PRES_VIS", "trial_index": 193}, "uniqueid": "MTK3772:3IXEICO793Q0AO4I9P3VP7W1KZNT66", "dateTime": 1521236662003}, {"current_trial": 194, "trialdata": {"rt": -1, "trial_type": "single-stim", "word": "robot", "stimulus": "<p id=\"stim\">ROBOT</p>", "conditions": [24, 1600, "v", 12000], "internal_node_id": "0.0-140.0", "trial": 5, "time_elapsed": 1277017, "serialpos": 9, "key_press": -1, "wordID": 1199, "type": "PRES_VIS", "trial_index": 194}, "uniqueid": "MTK3772:3IXEICO793Q0AO4I9P3VP7W1KZNT66", "dateTime": 1521236664805}, {"current_trial": 195, "trialdata": {"rt": -1, "trial_type": "single-stim", "word": "lily", "stimulus": "<p id=\"stim\">LILY</p>", "conditions": [24, 1600, "v", 12000], "internal_node_id": "0.0-141.0", "trial": 5, "time_elapsed": 1279503, "serialpos": 10, "key_press": -1, "wordID": 820, "type": "PRES_VIS", "trial_index": 195}, "uniqueid": "MTK3772:3IXEICO793Q0AO4I9P3VP7W1KZNT66", "dateTime": 1521236667291}, {"current_trial": 196, "trialdata": {"rt": -1, "trial_type": "single-stim", "word": "dress", "stimulus": "<p id=\"stim\">DRESS</p>", "conditions": [24, 1600, "v", 12000], "internal_node_id": "0.0-142.0", "trial": 5, "time_elapsed": 1282086, "serialpos": 11, "key_press": -1, "wordID": 494, "type": "PRES_VIS", "trial_index": 196}, "uniqueid": "MTK3772:3IXEICO793Q0AO4I9P3VP7W1KZNT66", "dateTime": 1521236669873}, {"current_trial": 197, "trialdata": {"rt": -1, "trial_type": "single-stim", "word": "brick", "stimulus": "<p id=\"stim\">BRICK</p>", "conditions": [24, 1600, "v", 12000], "internal_node_id": "0.0-143.0", "trial": 5, "time_elapsed": 1284557, "serialpos": 12, "key_press": -1, "wordID": 171, "type": "PRES_VIS", "trial_index": 197}, "uniqueid": "MTK3772:3IXEICO793Q0AO4I9P3VP7W1KZNT66", "dateTime": 1521236672344}, {"current_trial": 198, "trialdata": {"rt": -1, "trial_type": "single-stim", "word": "bug", "stimulus": "<p id=\"stim\">BUG</p>", "conditions": [24, 1600, "v", 12000], "internal_node_id": "0.0-144.0", "trial": 5, "time_elapsed": 1287079, "serialpos": 13, "key_press": -1, "wordID": 186, "type": "PRES_VIS", "trial_index": 198}, "uniqueid": "MTK3772:3IXEICO793Q0AO4I9P3VP7W1KZNT66", "dateTime": 1521236674866}, {"current_trial": 199, "trialdata": {"rt": -1, "trial_type": "single-stim", "word": "truck", "stimulus": "<p id=\"stim\">TRUCK</p>", "conditions": [24, 1600, "v", 12000], "internal_node_id": "0.0-145.0", "trial": 5, "time_elapsed": 1289703, "serialpos": 14, "key_press": -1, "wordID": 1511, "type": "PRES_VIS", "trial_index": 199}, "uniqueid": "MTK3772:3IXEICO793Q0AO4I9P3VP7W1KZNT66", "dateTime": 1521236677490}, {"current_trial": 200, "trialdata": {"rt": -1, "trial_type": "single-stim", "word": "valley", "stimulus": "<p id=\"stim\">VALLEY</p>", "conditions": [24, 1600, "v", 12000], "internal_node_id": "0.0-146.0", "trial": 5, "time_elapsed": 1292375, "serialpos": 15, "key_press": -1, "wordID": 1544, "type": "PRES_VIS", "trial_index": 200}, "uniqueid": "MTK3772:3IXEICO793Q0AO4I9P3VP7W1KZNT66", "dateTime": 1521236680162}, {"current_trial": 201, "trialdata": {"rt": -1, "trial_type": "single-stim", "word": "canyon", "stimulus": "<p id=\"stim\">CANYON</p>", "conditions": [24, 1600, "v", 12000], "internal_node_id": "0.0-147.0", "trial": 5, "time_elapsed": 1295129, "serialpos": 16, "key_press": -1, "wordID": 234, "type": "PRES_VIS", "trial_index": 201}, "uniqueid": "MTK3772:3IXEICO793Q0AO4I9P3VP7W1KZNT66", "dateTime": 1521236682916}, {"current_trial": 202, "trialdata": {"rt": -1, "trial_type": "single-stim", "word": "lace", "stimulus": "<p id=\"stim\">LACE</p>", "conditions": [24, 1600, "v", 12000], "internal_node_id": "0.0-148.0", "trial": 5, "time_elapsed": 1297564, "serialpos": 17, "key_press": -1, "wordID": 791, "type": "PRES_VIS", "trial_index": 202}, "uniqueid": "MTK3772:3IXEICO793Q0AO4I9P3VP7W1KZNT66", "dateTime": 1521236685351}, {"current_trial": 203, "trialdata": {"rt": -1, "trial_type": "single-stim", "word": "tractor", "stimulus": "<p id=\"stim\">TRACTOR</p>", "conditions": [24, 1600, "v", 12000], "internal_node_id": "0.0-149.0", "trial": 5, "time_elapsed": 1300215, "serialpos": 18, "key_press": -1, "wordID": 1492, "type": "PRES_VIS", "trial_index": 203}, "uniqueid": "MTK3772:3IXEICO793Q0AO4I9P3VP7W1KZNT66", "dateTime": 1521236688002}, {"current_trial": 204, "trialdata": {"rt": -1, "trial_type": "single-stim", "word": "driver", "stimulus": "<p id=\"stim\">DRIVER</p>", "conditions": [24, 1600, "v", 12000], "internal_node_id": "0.0-150.0", "trial": 5, "time_elapsed": 1302687, "serialpos": 19, "key_press": -1, "wordID": 498, "type": "PRES_VIS", "trial_index": 204}, "uniqueid": "MTK3772:3IXEICO793Q0AO4I9P3VP7W1KZNT66", "dateTime": 1521236690474}, {"current_trial": 205, "trialdata": {"rt": -1, "trial_type": "single-stim", "word": "child", "stimulus": "<p id=\"stim\">CHILD</p>", "conditions": [24, 1600, "v", 12000], "internal_node_id": "0.0-151.0", "trial": 5, "time_elapsed": 1305505, "serialpos": 20, "key_press": -1, "wordID": 298, "type": "PRES_VIS", "trial_index": 205}, "uniqueid": "MTK3772:3IXEICO793Q0AO4I9P3VP7W1KZNT66", "dateTime": 1521236693292}, {"current_trial": 206, "trialdata": {"rt": -1, "trial_type": "single-stim", "word": "taxi", "stimulus": "<p id=\"stim\">TAXI</p>", "conditions": [24, 1600, "v", 12000], "internal_node_id": "0.0-152.0", "trial": 5, "time_elapsed": 1308255, "serialpos": 21, "key_press": -1, "wordID": 1437, "type": "PRES_VIS", "trial_index": 206}, "uniqueid": "MTK3772:3IXEICO793Q0AO4I9P3VP7W1KZNT66", "dateTime": 1521236696042}, {"current_trial": 207, "trialdata": {"rt": -1, "trial_type": "single-stim", "word": "branch", "stimulus": "<p id=\"stim\">BRANCH</p>", "conditions": [24, 1600, "v", 12000], "internal_node_id": "0.0-153.0", "trial": 5, "time_elapsed": 1310908, "serialpos": 22, "key_press": -1, "wordID": 167, "type": "PRES_VIS", "trial_index": 207}, "uniqueid": "MTK3772:3IXEICO793Q0AO4I9P3VP7W1KZNT66", "dateTime": 1521236698695}, {"current_trial": 208, "trialdata": {"rt": -1, "trial_type": "single-stim", "word": "gazelle", "stimulus": "<p id=\"stim\">GAZELLE</p>", "conditions": [24, 1600, "v", 12000], "internal_node_id": "0.0-154.0", "trial": 5, "time_elapsed": 1313600, "serialpos": 23, "key_press": -1, "wordID": 627, "type": "PRES_VIS", "trial_index": 208}, "uniqueid": "MTK3772:3IXEICO793Q0AO4I9P3VP7W1KZNT66", "dateTime": 1521236701387}, {"current_trial": 209, "trialdata": {"rt": -1, "trial_type": "single-stim", "stimulus": "", "internal_node_id": "0.0-155.0-0.0", "time_elapsed": 1315896, "key_press": -1, "type": "PRE_RECALL_DELAY", "trial_index": 209}, "uniqueid": "MTK3772:3IXEICO793Q0AO4I9P3VP7W1KZNT66", "dateTime": 1521236703683}, {"current_trial": 210, "trialdata": {"rt": -1000, "trial_type": "single-audio", "stimulus": "/static/audio/400Hz.wav", "internal_node_id": "0.0-156.0", "time_elapsed": 1316400, "key_press": -1, "type": "PRE_RECALL_ALERT", "trial_index": 210}, "uniqueid": "MTK3772:3IXEICO793Q0AO4I9P3VP7W1KZNT66", "dateTime": 1521236704188}, {"current_trial": 211, "trialdata": {"rt": [1974, 4939, 6738, 7889, 9473, 14669, 20209, 32181, 35381], "recwords": ["branch", "gazelle", "tractor", "driver", "taxi", "denim", "lily", "neutron", "tweezers"], "key_times": [1033, 1114, 1336, 1459, 1575, 1683, 1974, 3250, 3390, 3602, 3792, 4136, 4493, 4659, 4939, 5553, 5681, 5879, 6035, 6209, 6399, 6516, 6738, 7131, 7293, 7427, 7528, 7655, 7746, 7889, 8475, 8669, 8845, 9010, 9473, 10679, 10771, 11011, 11393, 11568, 11740, 11915, 13681, 13750, 14062, 14218, 14351, 14669, 19294, 19475, 19622, 19884, 20209, 31116, 31240, 31394, 31500, 31556, 31671, 31823, 32181, 33364, 33559, 33888, 34059, 34267, 34485, 34560, 34738, 35381], "trial_type": "free-recall", "conditions": [24, 1600, "v", 12000], "internal_node_id": "0.0-157.0-0.0", "key_presses": [66, 82, 65, 78, 67, 72, 13, 71, 65, 90, 69, 76, 76, 69, 13, 84, 82, 65, 67, 84, 79, 82, 13, 68, 82, 73, 86, 69, 82, 13, 84, 65, 88, 73, 13, 66, 82, 65, 8, 8, 8, 8, 68, 69, 78, 73, 77, 13, 76, 73, 76, 89, 13, 78, 69, 85, 84, 82, 79, 78, 13, 84, 87, 69, 69, 90, 69, 82, 83, 13], "trial": 5, "time_elapsed": 1376410, "type": "FREE_RECALL", "trial_index": 211}, "uniqueid": "MTK3772:3IXEICO793Q0AO4I9P3VP7W1KZNT66", "dateTime": 1521236764223}, {"current_trial": 212, "trialdata": {"rt": 991, "trial_type": "text", "internal_node_id": "0.0-158.0", "time_elapsed": 1379434, "key_press": 13, "type": "INSTRUCTIONS", "trial_index": 212}, "uniqueid": "MTK3772:3IXEICO793Q0AO4I9P3VP7W1KZNT66", "dateTime": 1521236767221}, {"current_trial": 213, "trialdata": {"rt": [2458, 5482, 7393, 10564, 12003, 14119, 16179, 18160, 20110, 22677], "trial_type": "math-distractor", "key_times": [1869, 2041, 2458, 4385, 5197, 5482, 6998, 7117, 7393, 10142, 10294, 10564, 11798, 12003, 13650, 13882, 14119, 15768, 15930, 16179, 17799, 17890, 18160, 19658, 19826, 20110, 22329, 22492, 22677], "responses": ["18", "13", "12", "19", "4", "17", "19", "12", "18", "22"], "num2": [9, 8, 8, 6, 2, 6, 7, 4, 2, 7, 3], "num3": [5, 2, 2, 5, 1, 5, 5, 3, 7, 8, 6], "conditions": [12, 800, "v", 24000], "internal_node_id": "0.0-159.0", "key_presses": [97, 104, 13, 97, 99, 13, 97, 98, 13, 97, 105, 13, 100, 13, 97, 103, 13, 97, 105, 13, 97, 98, 13, 97, 104, 13, 98, 98, 13], "trial": 6, "time_elapsed": 1405444, "type": "DISTRACTOR", "trial_index": 213, "num1": [4, 3, 1, 8, 1, 6, 7, 5, 9, 7, 6]}, "uniqueid": "MTK3772:3IXEICO793Q0AO4I9P3VP7W1KZNT66", "dateTime": 1521236793231}, {"current_trial": 214, "trialdata": {"rt": -1, "trial_type": "single-stim", "stimulus": "<p id=\"stim\">10</p>", "internal_node_id": "0.0-160.0-0.0", "time_elapsed": 1408462, "key_press": -1, "trial_index": 214}, "uniqueid": "MTK3772:3IXEICO793Q0AO4I9P3VP7W1KZNT66", "dateTime": 1521236796250}, {"current_trial": 215, "trialdata": {"rt": -1, "trial_type": "single-stim", "stimulus": "<p id=\"stim\">9</p>", "internal_node_id": "0.0-160.0-1.0", "time_elapsed": 1409467, "key_press": -1, "trial_index": 215}, "uniqueid": "MTK3772:3IXEICO793Q0AO4I9P3VP7W1KZNT66", "dateTime": 1521236797255}, {"current_trial": 216, "trialdata": {"rt": -1, "trial_type": "single-stim", "stimulus": "<p id=\"stim\">8</p>", "internal_node_id": "0.0-160.0-2.0", "time_elapsed": 1410471, "key_press": -1, "trial_index": 216}, "uniqueid": "MTK3772:3IXEICO793Q0AO4I9P3VP7W1KZNT66", "dateTime": 1521236798258}, {"current_trial": 217, "trialdata": {"rt": -1, "trial_type": "single-stim", "stimulus": "<p id=\"stim\">7</p>", "internal_node_id": "0.0-160.0-3.0", "time_elapsed": 1411475, "key_press": -1, "trial_index": 217}, "uniqueid": "MTK3772:3IXEICO793Q0AO4I9P3VP7W1KZNT66", "dateTime": 1521236799263}, {"current_trial": 218, "trialdata": {"rt": -1, "trial_type": "single-stim", "stimulus": "<p id=\"stim\">6</p>", "internal_node_id": "0.0-160.0-4.0", "time_elapsed": 1412486, "key_press": -1, "trial_index": 218}, "uniqueid": "MTK3772:3IXEICO793Q0AO4I9P3VP7W1KZNT66", "dateTime": 1521236800273}, {"current_trial": 219, "trialdata": {"rt": -1, "trial_type": "single-stim", "stimulus": "<p id=\"stim\">5</p>", "internal_node_id": "0.0-160.0-5.0", "time_elapsed": 1413492, "key_press": -1, "trial_index": 219}, "uniqueid": "MTK3772:3IXEICO793Q0AO4I9P3VP7W1KZNT66", "dateTime": 1521236801279}, {"current_trial": 220, "trialdata": {"rt": -1, "trial_type": "single-stim", "stimulus": "<p id=\"stim\">4</p>", "internal_node_id": "0.0-160.0-6.0", "time_elapsed": 1414498, "key_press": -1, "trial_index": 220}, "uniqueid": "MTK3772:3IXEICO793Q0AO4I9P3VP7W1KZNT66", "dateTime": 1521236802286}, {"current_trial": 221, "trialdata": {"rt": -1, "trial_type": "single-stim", "stimulus": "<p id=\"stim\">3</p>", "internal_node_id": "0.0-160.0-7.0", "time_elapsed": 1415502, "key_press": -1, "trial_index": 221}, "uniqueid": "MTK3772:3IXEICO793Q0AO4I9P3VP7W1KZNT66", "dateTime": 1521236803289}, {"current_trial": 222, "trialdata": {"rt": -1, "trial_type": "single-stim", "stimulus": "<p id=\"stim\">2</p>", "internal_node_id": "0.0-160.0-8.0", "time_elapsed": 1416508, "key_press": -1, "trial_index": 222}, "uniqueid": "MTK3772:3IXEICO793Q0AO4I9P3VP7W1KZNT66", "dateTime": 1521236804295}, {"current_trial": 223, "trialdata": {"rt": -1, "trial_type": "single-stim", "stimulus": "<p id=\"stim\">1</p>", "internal_node_id": "0.0-160.0-9.0", "time_elapsed": 1417711, "key_press": -1, "trial_index": 223}, "uniqueid": "MTK3772:3IXEICO793Q0AO4I9P3VP7W1KZNT66", "dateTime": 1521236805498}, {"current_trial": 224, "trialdata": {"rt": -1, "trial_type": "single-stim", "stimulus": "<p id=\"stim\">+</p>", "internal_node_id": "0.0-161.0-0.0", "time_elapsed": 1419215, "key_press": -1, "type": "FIXATION", "trial_index": 224}, "uniqueid": "MTK3772:3IXEICO793Q0AO4I9P3VP7W1KZNT66", "dateTime": 1521236807002}, {"current_trial": 225, "trialdata": {"rt": -1, "trial_type": "single-stim", "word": "candy", "stimulus": "<p id=\"stim\">CANDY</p>", "conditions": [12, 800, "v", 24000], "internal_node_id": "0.0-162.0", "trial": 6, "time_elapsed": 1420024, "serialpos": 0, "key_press": -1, "wordID": 229, "type": "PRES_VIS", "trial_index": 225}, "uniqueid": "MTK3772:3IXEICO793Q0AO4I9P3VP7W1KZNT66", "dateTime": 1521236807811}, {"current_trial": 226, "trialdata": {"rt": -1, "trial_type": "single-stim", "word": "finger", "stimulus": "<p id=\"stim\">FINGER</p>", "conditions": [12, 800, "v", 24000], "internal_node_id": "0.0-163.0", "trial": 6, "time_elapsed": 1422016, "serialpos": 1, "key_press": -1, "wordID": 566, "type": "PRES_VIS", "trial_index": 226}, "uniqueid": "MTK3772:3IXEICO793Q0AO4I9P3VP7W1KZNT66", "dateTime": 1521236809803}, {"current_trial": 227, "trialdata": {"rt": -1, "trial_type": "single-stim", "word": "wrist", "stimulus": "<p id=\"stim\">WRIST</p>", "conditions": [12, 800, "v", 24000], "internal_node_id": "0.0-164.0", "trial": 6, "time_elapsed": 1423799, "serialpos": 2, "key_press": -1, "wordID": 1625, "type": "PRES_VIS", "trial_index": 227}, "uniqueid": "MTK3772:3IXEICO793Q0AO4I9P3VP7W1KZNT66", "dateTime": 1521236811587}, {"current_trial": 228, "trialdata": {"rt": -1, "trial_type": "single-stim", "word": "clam", "stimulus": "<p id=\"stim\">CLAM</p>", "conditions": [12, 800, "v", 24000], "internal_node_id": "0.0-165.0", "trial": 6, "time_elapsed": 1425750, "serialpos": 3, "key_press": -1, "wordID": 314, "type": "PRES_VIS", "trial_index": 228}, "uniqueid": "MTK3772:3IXEICO793Q0AO4I9P3VP7W1KZNT66", "dateTime": 1521236813537}, {"current_trial": 229, "trialdata": {"rt": -1, "trial_type": "single-stim", "word": "tourist", "stimulus": "<p id=\"stim\">TOURIST</p>", "conditions": [12, 800, "v", 24000], "internal_node_id": "0.0-166.0", "trial": 6, "time_elapsed": 1427440, "serialpos": 4, "key_press": -1, "wordID": 1487, "type": "PRES_VIS", "trial_index": 229}, "uniqueid": "MTK3772:3IXEICO793Q0AO4I9P3VP7W1KZNT66", "dateTime": 1521236815227}, {"current_trial": 230, "trialdata": {"rt": -1, "trial_type": "single-stim", "word": "shoulder", "stimulus": "<p id=\"stim\">SHOULDER</p>", "conditions": [12, 800, "v", 24000], "internal_node_id": "0.0-167.0", "trial": 6, "time_elapsed": 1429185, "serialpos": 5, "key_press": -1, "wordID": 1293, "type": "PRES_VIS", "trial_index": 230}, "uniqueid": "MTK3772:3IXEICO793Q0AO4I9P3VP7W1KZNT66", "dateTime": 1521236816973}, {"current_trial": 231, "trialdata": {"rt": -1, "trial_type": "single-stim", "word": "switch", "stimulus": "<p id=\"stim\">SWITCH</p>", "conditions": [12, 800, "v", 24000], "internal_node_id": "0.0-168.0", "trial": 6, "time_elapsed": 1431065, "serialpos": 6, "key_press": -1, "wordID": 1421, "type": "PRES_VIS", "trial_index": 231}, "uniqueid": "MTK3772:3IXEICO793Q0AO4I9P3VP7W1KZNT66", "dateTime": 1521236818853}, {"current_trial": 232, "trialdata": {"rt": -1, "trial_type": "single-stim", "word": "peanut", "stimulus": "<p id=\"stim\">PEANUT</p>", "conditions": [12, 800, "v", 24000], "internal_node_id": "0.0-169.0", "trial": 6, "time_elapsed": 1432769, "serialpos": 7, "key_press": -1, "wordID": 1031, "type": "PRES_VIS", "trial_index": 232}, "uniqueid": "MTK3772:3IXEICO793Q0AO4I9P3VP7W1KZNT66", "dateTime": 1521236820556}, {"current_trial": 233, "trialdata": {"rt": -1, "trial_type": "single-stim", "word": "hawk", "stimulus": "<p id=\"stim\">HAWK</p>", "conditions": [12, 800, "v", 24000], "internal_node_id": "0.0-170.0", "trial": 6, "time_elapsed": 1434418, "serialpos": 8, "key_press": -1, "wordID": 691, "type": "PRES_VIS", "trial_index": 233}, "uniqueid": "MTK3772:3IXEICO793Q0AO4I9P3VP7W1KZNT66", "dateTime": 1521236822206}, {"current_trial": 234, "trialdata": {"rt": -1, "trial_type": "single-stim", "word": "venus", "stimulus": "<p id=\"stim\">VENUS</p>", "conditions": [12, 800, "v", 24000], "internal_node_id": "0.0-171.0", "trial": 6, "time_elapsed": 1436111, "serialpos": 9, "key_press": -1, "wordID": 1556, "type": "PRES_VIS", "trial_index": 234}, "uniqueid": "MTK3772:3IXEICO793Q0AO4I9P3VP7W1KZNT66", "dateTime": 1521236823899}, {"current_trial": 235, "trialdata": {"rt": -1, "trial_type": "single-stim", "word": "beef", "stimulus": "<p id=\"stim\">BEEF</p>", "conditions": [12, 800, "v", 24000], "internal_node_id": "0.0-172.0", "trial": 6, "time_elapsed": 1437788, "serialpos": 10, "key_press": -1, "wordID": 112, "type": "PRES_VIS", "trial_index": 235}, "uniqueid": "MTK3772:3IXEICO793Q0AO4I9P3VP7W1KZNT66", "dateTime": 1521236825576}, {"current_trial": 236, "trialdata": {"rt": -1, "trial_type": "single-stim", "word": "arm", "stimulus": "<p id=\"stim\">ARM</p>", "conditions": [12, 800, "v", 24000], "internal_node_id": "0.0-173.0", "trial": 6, "time_elapsed": 1439509, "serialpos": 11, "key_press": -1, "wordID": 37, "type": "PRES_VIS", "trial_index": 236}, "uniqueid": "MTK3772:3IXEICO793Q0AO4I9P3VP7W1KZNT66", "dateTime": 1521236827296}, {"current_trial": 237, "trialdata": {"rt": -1, "trial_type": "single-stim", "stimulus": "", "internal_node_id": "0.0-174.0-0.0", "time_elapsed": 1441840, "key_press": -1, "type": "PRE_RECALL_DELAY", "trial_index": 237}, "uniqueid": "MTK3772:3IXEICO793Q0AO4I9P3VP7W1KZNT66", "dateTime": 1521236829627}, {"current_trial": 238, "trialdata": {"rt": -1000, "trial_type": "single-audio", "stimulus": "/static/audio/400Hz.wav", "internal_node_id": "0.0-175.0", "time_elapsed": 1442349, "key_press": -1, "type": "PRE_RECALL_ALERT", "trial_index": 238}, "uniqueid": "MTK3772:3IXEICO793Q0AO4I9P3VP7W1KZNT66", "dateTime": 1521236830136}, {"current_trial": 239, "trialdata": {"rt": [3552, 4562, 6106, 8035, 9458, 11080, 12082, 14030], "recwords": ["switch", "beef", "venus", "finger", "wrist", "shoulder", "arm", "candy"], "key_times": [2695, 2747, 2896, 3069, 3160, 3271, 3552, 3858, 3966, 4101, 4274, 4562, 5263, 5369, 5487, 5630, 5729, 6106, 7330, 7416, 7566, 7740, 7817, 7878, 8035, 8449, 8617, 8766, 8889, 9002, 9458, 10056, 10198, 10352, 10490, 10646, 10744, 10798, 10929, 11080, 11488, 11660, 11772, 12082, 13198, 13339, 13459, 13546, 13651, 14030, 29883], "trial_type": "free-recall", "conditions": [12, 800, "v", 24000], "internal_node_id": "0.0-176.0-0.0", "key_presses": [83, 87, 73, 84, 67, 72, 13, 66, 69, 69, 70, 13, 86, 69, 78, 85, 83, 13, 70, 73, 78, 71, 69, 82, 13, 87, 82, 73, 83, 84, 13, 83, 72, 79, 85, 76, 68, 69, 82, 13, 65, 82, 77, 13, 67, 65, 78, 68, 89, 13, 16], "trial": 6, "time_elapsed": 1502356, "type": "FREE_RECALL", "trial_index": 239}, "uniqueid": "MTK3772:3IXEICO793Q0AO4I9P3VP7W1KZNT66", "dateTime": 1521236890151}, {"current_trial": 240, "trialdata": {"rt": 128327, "trial_type": "text", "internal_node_id": "0.0-177.0", "time_elapsed": 1632694, "key_press": 78, "type": "INSTRUCTIONS", "trial_index": 240}, "uniqueid": "MTK3772:3IXEICO793Q0AO4I9P3VP7W1KZNT66", "dateTime": 1521237020482}, {"current_trial": 241, "trialdata": {"rt": [1836, 3536, 7266, 9956, 13709, 16521, 17989, 19795, 22106, 23870], "trial_type": "math-distractor", "key_times": [1456, 1628, 1836, 3124, 3328, 3536, 4871, 5136, 6013, 6643, 7266, 9595, 9735, 9956, 13246, 13454, 13709, 16150, 16321, 16521, 17670, 17810, 17989, 19443, 19550, 19795, 21785, 21910, 22106, 23644, 23870], "responses": ["18", "10", "14", "23", "17", "24", "11", "12", "21", "9"], "num2": [9, 5, 4, 8, 8, 8, 5, 6, 8, 6, 1], "num3": [5, 2, 1, 6, 5, 9, 1, 5, 7, 2, 6], "conditions": [12, 1600, "v", 24000], "internal_node_id": "0.0-178.0", "key_presses": [97, 104, 13, 97, 96, 13, 97, 98, 8, 100, 13, 98, 99, 13, 97, 103, 13, 98, 100, 13, 97, 97, 13, 97, 98, 13, 98, 97, 13, 105, 13], "trial": 7, "time_elapsed": 1658710, "type": "DISTRACTOR", "trial_index": 241, "num1": [4, 3, 9, 9, 5, 7, 5, 1, 6, 1, 3]}, "uniqueid": "MTK3772:3IXEICO793Q0AO4I9P3VP7W1KZNT66", "dateTime": 1521237046498}, {"current_trial": 242, "trialdata": {"rt": -1, "trial_type": "single-stim", "stimulus": "<p id=\"stim\">10</p>", "internal_node_id": "0.0-179.0-0.0", "time_elapsed": 1661718, "key_press": -1, "trial_index": 242}, "uniqueid": "MTK3772:3IXEICO793Q0AO4I9P3VP7W1KZNT66", "dateTime": 1521237049506}, {"current_trial": 243, "trialdata": {"rt": -1, "trial_type": "single-stim", "stimulus": "<p id=\"stim\">9</p>", "internal_node_id": "0.0-179.0-1.0", "time_elapsed": 1662728, "key_press": -1, "trial_index": 243}, "uniqueid": "MTK3772:3IXEICO793Q0AO4I9P3VP7W1KZNT66", "dateTime": 1521237050515}, {"current_trial": 244, "trialdata": {"rt": -1, "trial_type": "single-stim", "stimulus": "<p id=\"stim\">8</p>", "internal_node_id": "0.0-179.0-2.0", "time_elapsed": 1663750, "key_press": -1, "trial_index": 244}, "uniqueid": "MTK3772:3IXEICO793Q0AO4I9P3VP7W1KZNT66", "dateTime": 1521237051538}, {"current_trial": 245, "trialdata": {"rt": -1, "trial_type": "single-stim", "stimulus": "<p id=\"stim\">7</p>", "internal_node_id": "0.0-179.0-3.0", "time_elapsed": 1664760, "key_press": -1, "trial_index": 245}, "uniqueid": "MTK3772:3IXEICO793Q0AO4I9P3VP7W1KZNT66", "dateTime": 1521237052547}, {"current_trial": 246, "trialdata": {"rt": -1, "trial_type": "single-stim", "stimulus": "<p id