{"assignmentId": "3IRIK4HM3BRJO727N3850XWXVBGC6U", "workerId": "MTK3202", "questiondata": {"avail_screen_height": 824, "color_depth": 24, "screen_width": 1536, "pixel_depth": 24, "avail_screen_width": 1536, "screen_height": 864}, "bonus": 0, "hitId": "35ZRNT9RUI5JDTEY44EWZAIAQ3U3OO", "counterbalance": 932, "useragent": "Mozilla/5.0 (Windows NT 10.0; Win64; x64; rv:58.0) Gecko/20100101 Firefox/58.0", "eventdata": [{"eventtype": "initialized", "interval": 0, "value": null, "timestamp": 1520125425675}, {"eventtype": "window_resize", "interval": 0, "value": [1536, 764], "timestamp": 1520125425675}, {"eventtype": "focus", "interval": 263551, "value": "off", "timestamp": 1520125689226}, {"eventtype": "focus", "interval": 1631, "value": "on", "timestamp": 1520125690857}, {"eventtype": "focus", "interval": 2233665, "value": "off", "timestamp": 1520127924522}, {"eventtype": "focus", "interval": 1, "value": "on", "timestamp": 1520127924523}, {"eventtype": "focus", "interval": 122991, "value": "off", "timestamp": 1520128047514}, {"eventtype": "window_resize", "interval": 206, "value": [1522, 750], "timestamp": 1520128047720}, {"eventtype": "window_resize", "interval": 16556, "value": [1536, 764], "timestamp": 1520128064276}, {"eventtype": "focus", "interval": 16564, "value": "on", "timestamp": 1520128080840}], "data": [{"current_trial": 0, "trialdata": {"rt": 3898, "trial_type": "text", "internal_node_id": "0.0-0.0", "time_elapsed": 3901, "key_press": 13, "type": "INSTRUCTIONS", "trial_index": 0}, "uniqueid": "MTK3202:3IRIK4HM3BRJO727N3850XWXVBGC6U", "dateTime": 1520125429997}, {"current_trial": 1, "trialdata": {"rt": 39824, "trial_type": "text", "internal_node_id": "0.0-1.0", "time_elapsed": 43727, "key_press": 13, "type": "INSTRUCTIONS", "trial_index": 1}, "uniqueid": "MTK3202:3IRIK4HM3BRJO727N3850XWXVBGC6U", "dateTime": 1520125469823}, {"current_trial": 2, "trialdata": {"rt": [9133], "trial_type": "audio-test", "responses": ["ocean"], "internal_node_id": "0.0-2.0", "time_elapsed": 52980, "type": "AUDIO_TEST", "trial_index": 2}, "uniqueid": "MTK3202:3IRIK4HM3BRJO727N3850XWXVBGC6U", "dateTime": 1520125479076}, {"current_trial": 3, "trialdata": {"rt": [4546], "trial_type": "audio-test", "responses": ["crystal"], "internal_node_id": "0.0-3.0", "time_elapsed": 57538, "type": "AUDIO_TEST", "trial_index": 3}, "uniqueid": "MTK3202:3IRIK4HM3BRJO727N3850XWXVBGC6U", "dateTime": 1520125483634}, {"current_trial": 4, "trialdata": {"rt": [3758], "trial_type": "audio-test", "responses": ["spice"], "internal_node_id": "0.0-4.0", "time_elapsed": 61308, "type": "AUDIO_TEST", "trial_index": 4}, "uniqueid": "MTK3202:3IRIK4HM3BRJO727N3850XWXVBGC6U", "dateTime": 1520125487404}, {"current_trial": 5, "trialdata": {"rt": 16628, "trial_type": "survey-text", "responses": "{\"Q0\":\"12 am\",\"Q1\":\"9 am\",\"Q2\":\"5\"}", "internal_node_id": "0.0-5.0", "time_elapsed": 78690, "type": "SLEEP_SURVEY", "trial_index": 5}, "uniqueid": "MTK3202:3IRIK4HM3BRJO727N3850XWXVBGC6U", "dateTime": 1520125504786}, {"current_trial": 6, "trialdata": {"rt": 32773, "trial_type": "text", "internal_node_id": "0.0-6.0", "time_elapsed": 112466, "key_press": 13, "type": "INSTRUCTIONS", "trial_index": 6}, "uniqueid": "MTK3202:3IRIK4HM3BRJO727N3850XWXVBGC6U", "dateTime": 1520125538562}, {"current_trial": 7, "trialdata": {"rt": 9476, "trial_type": "text", "internal_node_id": "0.0-7.0", "time_elapsed": 122444, "key_press": 34, "type": "INSTRUCTIONS", "trial_index": 7}, "uniqueid": "MTK3202:3IRIK4HM3BRJO727N3850XWXVBGC6U", "dateTime": 1520125548541}, {"current_trial": 8, "trialdata": {"rt": 8287, "trial_type": "text", "internal_node_id": "0.0-8.0", "time_elapsed": 131234, "key_press": 13, "type": "INSTRUCTIONS", "trial_index": 8}, "uniqueid": "MTK3202:3IRIK4HM3BRJO727N3850XWXVBGC6U", "dateTime": 1520125557330}, {"current_trial": 9, "trialdata": {"rt": [2866, 4822, 8812, 10834, 12673, 14921, 17728], "trial_type": "math-distractor", "key_times": [2087, 2411, 2866, 4299, 4656, 4822, 8456, 8651, 8812, 10255, 10457, 10834, 12240, 12452, 12673, 14414, 14764, 14921, 17275, 17387, 17728], "responses": ["18", "15", "23", "18", "25", "17", "21"], "num2": [8, 6, 7, 8, 9, 1, 8, 4], "num3": [7, 5, 7, 6, 7, 8, 8, 2], "conditions": [18, 1200, "v", 18000], "internal_node_id": "0.0-9.0", "key_presses": [49, 56, 13, 49, 53, 13, 50, 51, 13, 49, 56, 13, 50, 53, 13, 49, 55, 13, 50, 49, 13], "trial": 0, "time_elapsed": 150239, "type": "DISTRACTOR", "trial_index": 9, "num1": [3, 4, 9, 4, 9, 8, 5, 6]}, "uniqueid": "MTK3202:3IRIK4HM3BRJO727N3850XWXVBGC6U", "dateTime": 1520125576336}, {"current_trial": 10, "trialdata": {"rt": -1, "trial_type": "single-stim", "stimulus": "<p id=\"stim\">10</p>", "internal_node_id": "0.0-10.0-0.0", "time_elapsed": 153242, "key_press": -1, "trial_index": 10}, "uniqueid": "MTK3202:3IRIK4HM3BRJO727N3850XWXVBGC6U", "dateTime": 1520125579338}, {"current_trial": 11, "trialdata": {"rt": -1, "trial_type": "single-stim", "stimulus": "<p id=\"stim\">9</p>", "internal_node_id": "0.0-10.0-1.0", "time_elapsed": 154244, "key_press": -1, "trial_index": 11}, "uniqueid": "MTK3202:3IRIK4HM3BRJO727N3850XWXVBGC6U", "dateTime": 1520125580341}, {"current_trial": 12, "trialdata": {"rt": -1, "trial_type": "single-stim", "stimulus": "<p id=\"stim\">8</p>", "internal_node_id": "0.0-10.0-2.0", "time_elapsed": 155246, "key_press": -1, "trial_index": 12}, "uniqueid": "MTK3202:3IRIK4HM3BRJO727N3850XWXVBGC6U", "dateTime": 1520125581342}, {"current_trial": 13, "trialdata": {"rt": -1, "trial_type": "single-stim", "stimulus": "<p id=\"stim\">7</p>", "internal_node_id": "0.0-10.0-3.0", "time_elapsed": 156247, "key_press": -1, "trial_index": 13}, "uniqueid": "MTK3202:3IRIK4HM3BRJO727N3850XWXVBGC6U", "dateTime": 1520125582344}, {"current_trial": 14, "trialdata": {"rt": -1, "trial_type": "single-stim", "stimulus": "<p id=\"stim\">6</p>", "internal_node_id": "0.0-10.0-4.0", "time_elapsed": 157248, "key_press": -1, "trial_index": 14}, "uniqueid": "MTK3202:3IRIK4HM3BRJO727N3850XWXVBGC6U", "dateTime": 1520125583344}, {"current_trial": 15, "trialdata": {"rt": -1, "trial_type": "single-stim", "stimulus": "<p id=\"stim\">5</p>", "internal_node_id": "0.0-10.0-5.0", "time_elapsed": 158250, "key_press": -1, "trial_index": 15}, "uniqueid": "MTK3202:3IRIK4HM3BRJO727N3850XWXVBGC6U", "dateTime": 1520125584346}, {"current_trial": 16, "trialdata": {"rt": -1, "trial_type": "single-stim", "stimulus": "<p id=\"stim\">4</p>", "internal_node_id": "0.0-10.0-6.0", "time_elapsed": 159251, "key_press": -1, "trial_index": 16}, "uniqueid": "MTK3202:3IRIK4HM3BRJO727N3850XWXVBGC6U", "dateTime": 1520125585347}, {"current_trial": 17, "trialdata": {"rt": -1, "trial_type": "single-stim", "stimulus": "<p id=\"stim\">3</p>", "internal_node_id": "0.0-10.0-7.0", "time_elapsed": 160252, "key_press": -1, "trial_index": 17}, "uniqueid": "MTK3202:3IRIK4HM3BRJO727N3850XWXVBGC6U", "dateTime": 1520125586348}, {"current_trial": 18, "trialdata": {"rt": -1, "trial_type": "single-stim", "stimulus": "<p id=\"stim\">2</p>", "internal_node_id": "0.0-10.0-8.0", "time_elapsed": 161253, "key_press": -1, "trial_index": 18}, "uniqueid": "MTK3202:3IRIK4HM3BRJO727N3850XWXVBGC6U", "dateTime": 1520125587349}, {"current_trial": 19, "trialdata": {"rt": -1, "trial_type": "single-stim", "stimulus": "<p id=\"stim\">1</p>", "internal_node_id": "0.0-10.0-9.0", "time_elapsed": 162254, "key_press": -1, "trial_index": 19}, "uniqueid": "MTK3202:3IRIK4HM3BRJO727N3850XWXVBGC6U", "dateTime": 1520125588350}, {"current_trial": 20, "trialdata": {"rt": -1, "trial_type": "single-stim", "stimulus": "<p id=\"stim\">+</p>", "internal_node_id": "0.0-11.0-0.0", "time_elapsed": 163755, "key_press": -1, "type": "FIXATION", "trial_index": 20}, "uniqueid": "MTK3202:3IRIK4HM3BRJO727N3850XWXVBGC6U", "dateTime": 1520125589852}, {"current_trial": 21, "trialdata": {"rt": -1, "trial_type": "single-stim", "word": "treat", "stimulus": "<p id=\"stim\">TREAT</p>", "conditions": [18, 1200, "v", 18000], "internal_node_id": "0.0-12.0", "trial": 0, "time_elapsed": 164956, "serialpos": 0, "key_press": -1, "wordID": 1500, "type": "PRES_VIS", "trial_index": 21}, "uniqueid": "MTK3202:3IRIK4HM3BRJO727N3850XWXVBGC6U", "dateTime": 1520125591053}, {"current_trial": 22, "trialdata": {"rt": -1, "trial_type": "single-stim", "word": "globe", "stimulus": "<p id=\"stim\">GLOBE</p>", "conditions": [18, 1200, "v", 18000], "internal_node_id": "0.0-13.0", "trial": 0, "time_elapsed": 167041, "serialpos": 1, "key_press": -1, "wordID": 640, "type": "PRES_VIS", "trial_index": 22}, "uniqueid": "MTK3202:3IRIK4HM3BRJO727N3850XWXVBGC6U", "dateTime": 1520125593137}, {"current_trial": 23, "trialdata": {"rt": -1, "trial_type": "single-stim", "word": "canyon", "stimulus": "<p id=\"stim\">CANYON</p>", "conditions": [18, 1200, "v", 18000], "internal_node_id": "0.0-14.0", "trial": 0, "time_elapsed": 169057, "serialpos": 2, "key_press": -1, "wordID": 234, "type": "PRES_VIS", "trial_index": 23}, "uniqueid": "MTK3202:3IRIK4HM3BRJO727N3850XWXVBGC6U", "dateTime": 1520125595154}, {"current_trial": 24, "trialdata": {"rt": -1, "trial_type": "single-stim", "word": "female", "stimulus": "<p id=\"stim\">FEMALE</p>", "conditions": [18, 1200, "v", 18000], "internal_node_id": "0.0-15.0", "trial": 0, "time_elapsed": 171421, "serialpos": 3, "key_press": -1, "wordID": 558, "type": "PRES_VIS", "trial_index": 24}, "uniqueid": "MTK3202:3IRIK4HM3BRJO727N3850XWXVBGC6U", "dateTime": 1520125597518}, {"current_trial": 25, "trialdata": {"rt": -1, "trial_type": "single-stim", "word": "postage", "stimulus": "<p id=\"stim\">POSTAGE</p>", "conditions": [18, 1200, "v", 18000], "internal_node_id": "0.0-16.0", "trial": 0, "time_elapsed": 173611, "serialpos": 4, "key_press": -1, "wordID": 1112, "type": "PRES_VIS", "trial_index": 25}, "uniqueid": "MTK3202:3IRIK4HM3BRJO727N3850XWXVBGC6U", "dateTime": 1520125599707}, {"current_trial": 26, "trialdata": {"rt": -1, "trial_type": "single-stim", "word": "jelly", "stimulus": "<p id=\"stim\">JELLY</p>", "conditions": [18, 1200, "v", 18000], "internal_node_id": "0.0-17.0", "trial": 0, "time_elapsed": 175795, "serialpos": 5, "key_press": -1, "wordID": 754, "type": "PRES_VIS", "trial_index": 26}, "uniqueid": "MTK3202:3IRIK4HM3BRJO727N3850XWXVBGC6U", "dateTime": 1520125601891}, {"current_trial": 27, "trialdata": {"rt": -1, "trial_type": "single-stim", "word": "bathtub", "stimulus": "<p id=\"stim\">BATHTUB</p>", "conditions": [18, 1200, "v", 18000], "internal_node_id": "0.0-18.0", "trial": 0, "time_elapsed": 178032, "serialpos": 6, "key_press": -1, "wordID": 99, "type": "PRES_VIS", "trial_index": 27}, "uniqueid": "MTK3202:3IRIK4HM3BRJO727N3850XWXVBGC6U", "dateTime": 1520125604128}, {"current_trial": 28, "trialdata": {"rt": -1, "trial_type": "single-stim", "word": "snail", "stimulus": "<p id=\"stim\">SNAIL</p>", "conditions": [18, 1200, "v", 18000], "internal_node_id": "0.0-19.0", "trial": 0, "time_elapsed": 180409, "serialpos": 7, "key_press": -1, "wordID": 1331, "type": "PRES_VIS", "trial_index": 28}, "uniqueid": "MTK3202:3IRIK4HM3BRJO727N3850XWXVBGC6U", "dateTime": 1520125606506}, {"current_trial": 29, "trialdata": {"rt": -1, "trial_type": "single-stim", "word": "atlas", "stimulus": "<p id=\"stim\">ATLAS</p>", "conditions": [18, 1200, "v", 18000], "internal_node_id": "0.0-20.0", "trial": 0, "time_elapsed": 182671, "serialpos": 8, "key_press": -1, "wordID": 52, "type": "PRES_VIS", "trial_index": 29}, "uniqueid": "MTK3202:3IRIK4HM3BRJO727N3850XWXVBGC6U", "dateTime": 1520125608767}, {"current_trial": 30, "trialdata": {"rt": -1, "trial_type": "single-stim", "word": "handbag", "stimulus": "<p id=\"stim\">HANDBAG</p>", "conditions": [18, 1200, "v", 18000], "internal_node_id": "0.0-21.0", "trial": 0, "time_elapsed": 184766, "serialpos": 9, "key_press": -1, "wordID": 683, "type": "PRES_VIS", "trial_index": 30}, "uniqueid": "MTK3202:3IRIK4HM3BRJO727N3850XWXVBGC6U", "dateTime": 1520125610862}, {"current_trial": 31, "trialdata": {"rt": -1, "trial_type": "single-stim", "word": "beast", "stimulus": "<p id=\"stim\">BEAST</p>", "conditions": [18, 1200, "v", 18000], "internal_node_id": "0.0-22.0", "trial": 0, "time_elapsed": 186905, "serialpos": 10, "key_press": -1, "wordID": 107, "type": "PRES_VIS", "trial_index": 31}, "uniqueid": "MTK3202:3IRIK4HM3BRJO727N3850XWXVBGC6U", "dateTime": 1520125613001}, {"current_trial": 32, "trialdata": {"rt": -1, "trial_type": "single-stim", "word": "queen", "stimulus": "<p id=\"stim\">QUEEN</p>", "conditions": [18, 1200, "v", 18000], "internal_node_id": "0.0-23.0", "trial": 0, "time_elapsed": 189240, "serialpos": 11, "key_press": -1, "wordID": 1148, "type": "PRES_VIS", "trial_index": 32}, "uniqueid": "MTK3202:3IRIK4HM3BRJO727N3850XWXVBGC6U", "dateTime": 1520125615336}, {"current_trial": 33, "trialdata": {"rt": -1, "trial_type": "single-stim", "word": "trout", "stimulus": "<p id=\"stim\">TROUT</p>", "conditions": [18, 1200, "v", 18000], "internal_node_id": "0.0-24.0", "trial": 0, "time_elapsed": 191429, "serialpos": 12, "key_press": -1, "wordID": 1510, "type": "PRES_VIS", "trial_index": 33}, "uniqueid": "MTK3202:3IRIK4HM3BRJO727N3850XWXVBGC6U", "dateTime": 1520125617525}, {"current_trial": 34, "trialdata": {"rt": -1, "trial_type": "single-stim", "word": "money", "stimulus": "<p id=\"stim\">MONEY</p>", "conditions": [18, 1200, "v", 18000], "internal_node_id": "0.0-25.0", "trial": 0, "time_elapsed": 193432, "serialpos": 13, "key_press": -1, "wordID": 907, "type": "PRES_VIS", "trial_index": 34}, "uniqueid": "MTK3202:3IRIK4HM3BRJO727N3850XWXVBGC6U", "dateTime": 1520125619528}, {"current_trial": 35, "trialdata": {"rt": -1, "trial_type": "single-stim", "word": "portrait", "stimulus": "<p id=\"stim\">PORTRAIT</p>", "conditions": [18, 1200, "v", 18000], "internal_node_id": "0.0-26.0", "trial": 0, "time_elapsed": 195760, "serialpos": 14, "key_press": -1, "wordID": 1110, "type": "PRES_VIS", "trial_index": 35}, "uniqueid": "MTK3202:3IRIK4HM3BRJO727N3850XWXVBGC6U", "dateTime": 1520125621856}, {"current_trial": 36, "trialdata": {"rt": -1, "trial_type": "single-stim", "word": "hamper", "stimulus": "<p id=\"stim\">HAMPER</p>", "conditions": [18, 1200, "v", 18000], "internal_node_id": "0.0-27.0", "trial": 0, "time_elapsed": 198092, "serialpos": 15, "key_press": -1, "wordID": 681, "type": "PRES_VIS", "trial_index": 36}, "uniqueid": "MTK3202:3IRIK4HM3BRJO727N3850XWXVBGC6U", "dateTime": 1520125624188}, {"current_trial": 37, "trialdata": {"rt": -1, "trial_type": "single-stim", "word": "office", "stimulus": "<p id=\"stim\">OFFICE</p>", "conditions": [18, 1200, "v", 18000], "internal_node_id": "0.0-28.0", "trial": 0, "time_elapsed": 200403, "serialpos": 16, "key_press": -1, "wordID": 971, "type": "PRES_VIS", "trial_index": 37}, "uniqueid": "MTK3202:3IRIK4HM3BRJO727N3850XWXVBGC6U", "dateTime": 1520125626499}, {"current_trial": 38, "trialdata": {"rt": -1, "trial_type": "single-stim", "word": "convict", "stimulus": "<p id=\"stim\">CONVICT</p>", "conditions": [18, 1200, "v", 18000], "internal_node_id": "0.0-29.0", "trial": 0, "time_elapsed": 202464, "serialpos": 17, "key_press": -1, "wordID": 370, "type": "PRES_VIS", "trial_index": 38}, "uniqueid": "MTK3202:3IRIK4HM3BRJO727N3850XWXVBGC6U", "dateTime": 1520125628560}, {"current_trial": 39, "trialdata": {"rt": -1, "trial_type": "single-stim", "stimulus": "", "internal_node_id": "0.0-30.0-0.0", "time_elapsed": 204865, "key_press": -1, "type": "PRE_RECALL_DELAY", "trial_index": 39}, "uniqueid": "MTK3202:3IRIK4HM3BRJO727N3850XWXVBGC6U", "dateTime": 1520125630961}, {"current_trial": 40, "trialdata": {"rt": -1000, "trial_type": "single-audio", "stimulus": "/static/audio/400Hz.wav", "internal_node_id": "0.0-31.0", "time_elapsed": 205366, "key_press": -1, "type": "PRE_RECALL_ALERT", "trial_index": 40}, "uniqueid": "MTK3202:3IRIK4HM3BRJO727N3850XWXVBGC6U", "dateTime": 1520125631462}, {"current_trial": 41, "trialdata": {"rt": [3417, 6774, 8833, 11961, 16205, 21295, 22233, 33936, 38327, 47264], "recwords": ["treat", "globe", "canyon", "handbag", "convict", "trade", "fish", "handbag", "trout", "snail"], "key_times": [2006, 2395, 2518, 2612, 2694, 3417, 4347, 4587, 4817, 4923, 5038, 5675, 5868, 6387, 6480, 6774, 7144, 7279, 7371, 7517, 7654, 8291, 8833, 9766, 9818, 9954, 10017, 10173, 10361, 10988, 11150, 11289, 11961, 12287, 12446, 12620, 12773, 12904, 13038, 13226, 16205, 20660, 20832, 20937, 21039, 21124, 21295, 21647, 21713, 21880, 21953, 22233, 29365, 29542, 31459, 31750, 32449, 32575, 32690, 33099, 33276, 33390, 33495, 33936, 37472, 37657, 37784, 37961, 38087, 38327, 46463, 46591, 46745, 46806, 47052, 47264, 57757], "trial_type": "free-recall", "conditions": [18, 1200, "v", 18000], "internal_node_id": "0.0-32.0-0.0", "key_presses": [84, 82, 69, 65, 84, 32, 71, 76, 79, 86, 69, 8, 8, 66, 69, 32, 67, 65, 78, 89, 79, 78, 32, 72, 65, 78, 68, 66, 71, 8, 65, 71, 32, 67, 79, 78, 86, 73, 67, 84, 13, 84, 82, 65, 68, 69, 13, 70, 73, 83, 72, 13, 67, 65, 8, 8, 72, 65, 78, 68, 66, 65, 71, 13, 84, 82, 79, 85, 84, 13, 83, 78, 65, 73, 76, 13, 9], "trial": 0, "time_elapsed": 265370, "type": "FREE_RECALL", "trial_index": 41}, "uniqueid": "MTK3202:3IRIK4HM3BRJO727N3850XWXVBGC6U", "dateTime": 1520125691469}, {"current_trial": 42, "trialdata": {"rt": 1971, "trial_type": "text", "internal_node_id": "0.0-33.0", "time_elapsed": 269345, "key_press": 32, "type": "INSTRUCTIONS", "trial_index": 42}, "uniqueid": "MTK3202:3IRIK4HM3BRJO727N3850XWXVBGC6U", "dateTime": 1520125695441}, {"current_trial": 43, "trialdata": {"rt": [2994, 4984, 8473, 11144, 12866, 14088, 16513], "trial_type": "math-distractor", "key_times": [2451, 2724, 2994, 4659, 4752, 4984, 7684, 8201, 8473, 10650, 10946, 11144, 12584, 12740, 12866, 13849, 13987, 14088, 16315, 16513, 17768], "responses": ["17", "19", "13", "19", "12", "11", "9"], "num2": [6, 1, 7, 5, 4, 9, 2, 6], "num3": [2, 9, 2, 6, 6, 1, 4, 4], "conditions": [18, 1200, "v", 18000], "internal_node_id": "0.0-34.0", "key_presses": [49, 55, 13, 49, 57, 13, 49, 51, 13, 49, 57, 13, 49, 50, 13, 49, 49, 13, 57, 13, 49], "trial": 1, "time_elapsed": 289348, "type": "DISTRACTOR", "trial_index": 43, "num1": [9, 9, 4, 8, 2, 1, 3, 4]}, "uniqueid": "MTK3202:3IRIK4HM3BRJO727N3850XWXVBGC6U", "dateTime": 1520125715444}, {"current_trial": 44, "trialdata": {"rt": -1, "trial_type": "single-stim", "stimulus": "<p id=\"stim\">10</p>", "internal_node_id": "0.0-35.0-0.0", "time_elapsed": 292350, "key_press": -1, "trial_index": 44}, "uniqueid": "MTK3202:3IRIK4HM3BRJO727N3850XWXVBGC6U", "dateTime": 1520125718446}, {"current_trial": 45, "trialdata": {"rt": -1, "trial_type": "single-stim", "stimulus": "<p id=\"stim\">9</p>", "internal_node_id": "0.0-35.0-1.0", "time_elapsed": 293350, "key_press": -1, "trial_index": 45}, "uniqueid": "MTK3202:3IRIK4HM3BRJO727N3850XWXVBGC6U", "dateTime": 1520125719446}, {"current_trial": 46, "trialdata": {"rt": -1, "trial_type": "single-stim", "stimulus": "<p id=\"stim\">8</p>", "internal_node_id": "0.0-35.0-2.0", "time_elapsed": 294351, "key_press": -1, "trial_index": 46}, "uniqueid": "MTK3202:3IRIK4HM3BRJO727N3850XWXVBGC6U", "dateTime": 1520125720448}, {"current_trial": 47, "trialdata": {"rt": -1, "trial_type": "single-stim", "stimulus": "<p id=\"stim\">7</p>", "internal_node_id": "0.0-35.0-3.0", "time_elapsed": 295353, "key_press": -1, "trial_index": 47}, "uniqueid": "MTK3202:3IRIK4HM3BRJO727N3850XWXVBGC6U", "dateTime": 1520125721449}, {"current_trial": 48, "trialdata": {"rt": -1, "trial_type": "single-stim", "stimulus": "<p id=\"stim\">6</p>", "internal_node_id": "0.0-35.0-4.0", "time_elapsed": 296354, "key_press": -1, "trial_index": 48}, "uniqueid": "MTK3202:3IRIK4HM3BRJO727N3850XWXVBGC6U", "dateTime": 1520125722450}, {"current_trial": 49, "trialdata": {"rt": -1, "trial_type": "single-stim", "stimulus": "<p id=\"stim\">5</p>", "internal_node_id": "0.0-35.0-5.0", "time_elapsed": 297355, "key_press": -1, "trial_index": 49}, "uniqueid": "MTK3202:3IRIK4HM3BRJO727N3850XWXVBGC6U", "dateTime": 1520125723451}, {"current_trial": 50, "trialdata": {"rt": -1, "trial_type": "single-stim", "stimulus": "<p id=\"stim\">4</p>", "internal_node_id": "0.0-35.0-6.0", "time_elapsed": 298357, "key_press": -1, "trial_index": 50}, "uniqueid": "MTK3202:3IRIK4HM3BRJO727N3850XWXVBGC6U", "dateTime": 1520125724453}, {"current_trial": 51, "trialdata": {"rt": -1, "trial_type": "single-stim", "stimulus": "<p id=\"stim\">3</p>", "internal_node_id": "0.0-35.0-7.0", "time_elapsed": 299358, "key_press": -1, "trial_index": 51}, "uniqueid": "MTK3202:3IRIK4HM3BRJO727N3850XWXVBGC6U", "dateTime": 1520125725454}, {"current_trial": 52, "trialdata": {"rt": -1, "trial_type": "single-stim", "stimulus": "<p id=\"stim\">2</p>", "internal_node_id": "0.0-35.0-8.0", "time_elapsed": 300359, "key_press": -1, "trial_index": 52}, "uniqueid": "MTK3202:3IRIK4HM3BRJO727N3850XWXVBGC6U", "dateTime": 1520125726455}, {"current_trial": 53, "trialdata": {"rt": -1, "trial_type": "single-stim", "stimulus": "<p id=\"stim\">1</p>", "internal_node_id": "0.0-35.0-9.0", "time_elapsed": 301360, "key_press": -1, "trial_index": 53}, "uniqueid": "MTK3202:3IRIK4HM3BRJO727N3850XWXVBGC6U", "dateTime": 1520125727456}, {"current_trial": 54, "trialdata": {"rt": -1, "trial_type": "single-stim", "stimulus": "<p id=\"stim\">+</p>", "internal_node_id": "0.0-36.0-0.0", "time_elapsed": 302860, "key_press": -1, "type": "FIXATION", "trial_index": 54}, "uniqueid": "MTK3202:3IRIK4HM3BRJO727N3850XWXVBGC6U", "dateTime": 1520125728956}, {"current_trial": 55, "trialdata": {"rt": -1, "trial_type": "single-stim", "word": "climber", "stimulus": "<p id=\"stim\">CLIMBER</p>", "conditions": [18, 1200, "v", 18000], "internal_node_id": "0.0-37.0", "trial": 1, "time_elapsed": 304061, "serialpos": 0, "key_press": -1, "wordID": 322, "type": "PRES_VIS", "trial_index": 55}, "uniqueid": "MTK3202:3IRIK4HM3BRJO727N3850XWXVBGC6U", "dateTime": 1520125730157}, {"current_trial": 56, "trialdata": {"rt": -1, "trial_type": "single-stim", "word": "star", "stimulus": "<p id=\"stim\">STAR</p>", "conditions": [18, 1200, "v", 18000], "internal_node_id": "0.0-38.0", "trial": 1, "time_elapsed": 306444, "serialpos": 1, "key_press": -1, "wordID": 1372, "type": "PRES_VIS", "trial_index": 56}, "uniqueid": "MTK3202:3IRIK4HM3BRJO727N3850XWXVBGC6U", "dateTime": 1520125732540}, {"current_trial": 57, "trialdata": {"rt": -1, "trial_type": "single-stim", "word": "spouse", "stimulus": "<p id=\"stim\">SPOUSE</p>", "conditions": [18, 1200, "v", 18000], "internal_node_id": "0.0-39.0", "trial": 1, "time_elapsed": 308502, "serialpos": 2, "key_press": -1, "wordID": 1357, "type": "PRES_VIS", "trial_index": 57}, "uniqueid": "MTK3202:3IRIK4HM3BRJO727N3850XWXVBGC6U", "dateTime": 1520125734598}, {"current_trial": 58, "trialdata": {"rt": -1, "trial_type": "single-stim", "word": "cloud", "stimulus": "<p id=\"stim\">CLOUD</p>", "conditions": [18, 1200, "v", 18000], "internal_node_id": "0.0-40.0", "trial": 1, "time_elapsed": 310551, "serialpos": 3, "key_press": -1, "wordID": 327, "type": "PRES_VIS", "trial_index": 58}, "uniqueid": "MTK3202:3IRIK4HM3BRJO727N3850XWXVBGC6U", "dateTime": 1520125736647}, {"current_trial": 59, "trialdata": {"rt": -1, "trial_type": "single-stim", "word": "diver", "stimulus": "<p id=\"stim\">DIVER</p>", "conditions": [18, 1200, "v", 18000], "internal_node_id": "0.0-41.0", "trial": 1, "time_elapsed": 312772, "serialpos": 4, "key_press": -1, "wordID": 475, "type": "PRES_VIS", "trial_index": 59}, "uniqueid": "MTK3202:3IRIK4HM3BRJO727N3850XWXVBGC6U", "dateTime": 1520125738868}, {"current_trial": 60, "trialdata": {"rt": -1, "trial_type": "single-stim", "word": "seal", "stimulus": "<p id=\"stim\">SEAL</p>", "conditions": [18, 1200, "v", 18000], "internal_node_id": "0.0-42.0", "trial": 1, "time_elapsed": 314904, "serialpos": 5, "key_press": -1, "wordID": 1261, "type": "PRES_VIS", "trial_index": 60}, "uniqueid": "MTK3202:3IRIK4HM3BRJO727N3850XWXVBGC6U", "dateTime": 1520125741001}, {"current_trial": 61, "trialdata": {"rt": -1, "trial_type": "single-stim", "word": "honey", "stimulus": "<p id=\"stim\">HONEY</p>", "conditions": [18, 1200, "v", 18000], "internal_node_id": "0.0-43.0", "trial": 1, "time_elapsed": 317134, "serialpos": 6, "key_press": -1, "wordID": 712, "type": "PRES_VIS", "trial_index": 61}, "uniqueid": "MTK3202:3IRIK4HM3BRJO727N3850XWXVBGC6U", "dateTime": 1520125743230}, {"current_trial": 62, "trialdata": {"rt": -1, "trial_type": "single-stim", "word": "gavel", "stimulus": "<p id=\"stim\">GAVEL</p>", "conditions": [18, 1200, "v", 18000], "internal_node_id": "0.0-44.0", "trial": 1, "time_elapsed": 319488, "serialpos": 7, "key_press": -1, "wordID": 626, "type": "PRES_VIS", "trial_index": 62}, "uniqueid": "MTK3202:3IRIK4HM3BRJO727N3850XWXVBGC6U", "dateTime": 1520125745584}, {"current_trial": 63, "trialdata": {"rt": -1, "trial_type": "single-stim", "word": "waitress", "stimulus": "<p id=\"stim\">WAITRESS</p>", "conditions": [18, 1200, "v", 18000], "internal_node_id": "0.0-45.0", "trial": 1, "time_elapsed": 321537, "serialpos": 8, "key_press": -1, "wordID": 1580, "type": "PRES_VIS", "trial_index": 63}, "uniqueid": "MTK3202:3IRIK4HM3BRJO727N3850XWXVBGC6U", "dateTime": 1520125747633}, {"current_trial": 64, "trialdata": {"rt": -1, "trial_type": "single-stim", "word": "cottage", "stimulus": "<p id=\"stim\">COTTAGE</p>", "conditions": [18, 1200, "v", 18000], "internal_node_id": "0.0-46.0", "trial": 1, "time_elapsed": 323698, "serialpos": 9, "key_press": -1, "wordID": 383, "type": "PRES_VIS", "trial_index": 64}, "uniqueid": "MTK3202:3IRIK4HM3BRJO727N3850XWXVBGC6U", "dateTime": 1520125749794}, {"current_trial": 65, "trialdata": {"rt": -1, "trial_type": "single-stim", "word": "tablet", "stimulus": "<p id=\"stim\">TABLET</p>", "conditions": [18, 1200, "v", 18000], "internal_node_id": "0.0-47.0", "trial": 1, "time_elapsed": 326056, "serialpos": 10, "key_press": -1, "wordID": 1426, "type": "PRES_VIS", "trial_index": 65}, "uniqueid": "MTK3202:3IRIK4HM3BRJO727N3850XWXVBGC6U", "dateTime": 1520125752152}, {"current_trial": 66, "trialdata": {"rt": -1, "trial_type": "single-stim", "word": "marsh", "stimulus": "<p id=\"stim\">MARSH</p>", "conditions": [18, 1200, "v", 18000], "internal_node_id": "0.0-48.0", "trial": 1, "time_elapsed": 328349, "serialpos": 11, "key_press": -1, "wordID": 873, "type": "PRES_VIS", "trial_index": 66}, "uniqueid": "MTK3202:3IRIK4HM3BRJO727N3850XWXVBGC6U", "dateTime": 1520125754445}, {"current_trial": 67, "trialdata": {"rt": -1, "trial_type": "single-stim", "word": "flipper", "stimulus": "<p id=\"stim\">FLIPPER</p>", "conditions": [18, 1200, "v", 18000], "internal_node_id": "0.0-49.0", "trial": 1, "time_elapsed": 330556, "serialpos": 12, "key_press": -1, "wordID": 579, "type": "PRES_VIS", "trial_index": 67}, "uniqueid": "MTK3202:3IRIK4HM3BRJO727N3850XWXVBGC6U", "dateTime": 1520125756652}, {"current_trial": 68, "trialdata": {"rt": -1, "trial_type": "single-stim", "word": "outlaw", "stimulus": "<p id=\"stim\">OUTLAW</p>", "conditions": [18, 1200, "v", 18000], "internal_node_id": "0.0-50.0", "trial": 1, "time_elapsed": 332685, "serialpos": 13, "key_press": -1, "wordID": 988, "type": "PRES_VIS", "trial_index": 68}, "uniqueid": "MTK3202:3IRIK4HM3BRJO727N3850XWXVBGC6U", "dateTime": 1520125758781}, {"current_trial": 69, "trialdata": {"rt": -1, "trial_type": "single-stim", "word": "tourist", "stimulus": "<p id=\"stim\">TOURIST</p>", "conditions": [18, 1200, "v", 18000], "internal_node_id": "0.0-51.0", "trial": 1, "time_elapsed": 334746, "serialpos": 14, "key_press": -1, "wordID": 1487, "type": "PRES_VIS", "trial_index": 69}, "uniqueid": "MTK3202:3IRIK4HM3BRJO727N3850XWXVBGC6U", "dateTime": 1520125760842}, {"current_trial": 70, "trialdata": {"rt": -1, "trial_type": "single-stim", "word": "plaza", "stimulus": "<p id=\"stim\">PLAZA</p>", "conditions": [18, 1200, "v", 18000], "internal_node_id": "0.0-52.0", "trial": 1, "time_elapsed": 337071, "serialpos": 15, "key_press": -1, "wordID": 1087, "type": "PRES_VIS", "trial_index": 70}, "uniqueid": "MTK3202:3IRIK4HM3BRJO727N3850XWXVBGC6U", "dateTime": 1520125763167}, {"current_trial": 71, "trialdata": {"rt": -1, "trial_type": "single-stim", "word": "clock", "stimulus": "<p id=\"stim\">CLOCK</p>", "conditions": [18, 1200, "v", 18000], "internal_node_id": "0.0-53.0", "trial": 1, "time_elapsed": 339411, "serialpos": 16, "key_press": -1, "wordID": 324, "type": "PRES_VIS", "trial_index": 71}, "uniqueid": "MTK3202:3IRIK4HM3BRJO727N3850XWXVBGC6U", "dateTime": 1520125765507}, {"current_trial": 72, "trialdata": {"rt": -1, "trial_type": "single-stim", "word": "candy", "stimulus": "<p id=\"stim\">CANDY</p>", "conditions": [18, 1200, "v", 18000], "internal_node_id": "0.0-54.0", "trial": 1, "time_elapsed": 341796, "serialpos": 17, "key_press": -1, "wordID": 229, "type": "PRES_VIS", "trial_index": 72}, "uniqueid": "MTK3202:3IRIK4HM3BRJO727N3850XWXVBGC6U", "dateTime": 1520125767892}, {"current_trial": 73, "trialdata": {"rt": -1, "trial_type": "single-stim", "stimulus": "", "internal_node_id": "0.0-55.0-0.0", "time_elapsed": 344106, "key_press": -1, "type": "PRE_RECALL_DELAY", "trial_index": 73}, "uniqueid": "MTK3202:3IRIK4HM3BRJO727N3850XWXVBGC6U", "dateTime": 1520125770203}, {"current_trial": 74, "trialdata": {"rt": -1000, "trial_type": "single-audio", "stimulus": "/static/audio/400Hz.wav", "internal_node_id": "0.0-56.0", "time_elapsed": 344608, "key_press": -1, "type": "PRE_RECALL_ALERT", "trial_index": 74}, "uniqueid": "MTK3202:3IRIK4HM3BRJO727N3850XWXVBGC6U", "dateTime": 1520125770704}, {"current_trial": 75, "trialdata": {"rt": [1769, 2957, 3955, 4940, 6413, 19817, 23625, 26521], "recwords": ["candy", "climber", "outlaw", "plaza", "city", "plaza", "city", "wall"], "key_times": [973, 1182, 1317, 1415, 1625, 1769, 2031, 2135, 2332, 2462, 2658, 2765, 2803, 2957, 3184, 3371, 3477, 3611, 3717, 3822, 3955, 4206, 4387, 4468, 4628, 4771, 4940, 5096, 5344, 5796, 6027, 6132, 6305, 6413, 17309, 17521, 17654, 18724, 19181, 19486, 19683, 19817, 23093, 23227, 23352, 23520, 23625, 25938, 26001, 26165, 26321, 26521], "trial_type": "free-recall", "conditions": [18, 1200, "v", 18000], "internal_node_id": "0.0-57.0-0.0", "key_presses": [67, 65, 78, 68, 89, 13, 67, 76, 73, 77, 66, 69, 82, 13, 79, 85, 84, 76, 65, 87, 13, 80, 76, 65, 90, 65, 13, 67, 84, 8, 73, 84, 89, 13, 80, 76, 20, 20, 65, 90, 65, 13, 67, 73, 84, 89, 13, 87, 65, 76, 76, 13], "trial": 1, "time_elapsed": 404610, "type": "FREE_RECALL", "trial_index": 75}, "uniqueid": "MTK3202:3IRIK4HM3BRJO727N3850XWXVBGC6U", "dateTime": 1520125830708}, {"current_trial": 76, "trialdata": {"rt": 3705, "trial_type": "text", "internal_node_id": "0.0-58.0", "time_elapsed": 410319, "key_press": 32, "type": "INSTRUCTIONS", "trial_index": 76}, "uniqueid": "MTK3202:3IRIK4HM3BRJO727N3850XWXVBGC6U", "dateTime": 1520125836415}, {"current_trial": 77, "trialdata": {"rt": [2935, 5640, 7605, 8996], "trial_type": "math-distractor", "key_times": [2430, 2595, 2935, 5374, 5552, 5640, 7071, 7388, 7605, 8597, 8881, 8996, 10599, 11603, 11786], "responses": ["24", "12", "19", "16"], "num2": [9, 8, 8, 7, 8], "num3": [8, 3, 5, 2, 4], "conditions": [12, 800, "v", 12000], "internal_node_id": "0.0-59.0", "key_presses": [50, 52, 13, 49, 50, 13, 49, 57, 13, 49, 54, 13, 49, 8, 54], "trial": 2, "time_elapsed": 423322, "type": "DISTRACTOR", "trial_index": 77, "num1": [7, 1, 6, 7, 4]}, "uniqueid": "MTK3202:3IRIK4HM3BRJO727N3850XWXVBGC6U", "dateTime": 1520125849418}, {"current_trial": 78, "trialdata": {"rt": -1, "trial_type": "single-stim", "stimulus": "<p id=\"stim\">10</p>", "internal_node_id": "0.0-60.0-0.0", "time_elapsed": 426323, "key_press": -1, "trial_index": 78}, "uniqueid": "MTK3202:3IRIK4HM3BRJO727N3850XWXVBGC6U", "dateTime": 1520125852419}, {"current_trial": 79, "trialdata": {"rt": -1, "trial_type": "single-stim", "stimulus": "<p id=\"stim\">9</p>", "internal_node_id": "0.0-60.0-1.0", "time_elapsed": 427324, "key_press": -1, "trial_index": 79}, "uniqueid": "MTK3202:3IRIK4HM3BRJO727N3850XWXVBGC6U", "dateTime": 1520125853420}, {"current_trial": 80, "trialdata": {"rt": -1, "trial_type": "single-stim", "stimulus": "<p id=\"stim\">8</p>", "internal_node_id": "0.0-60.0-2.0", "time_elapsed": 428325, "key_press": -1, "trial_index": 80}, "uniqueid": "MTK3202:3IRIK4HM3BRJO727N3850XWXVBGC6U", "dateTime": 1520125854421}, {"current_trial": 81, "trialdata": {"rt": -1, "trial_type": "single-stim", "stimulus": "<p id=\"stim\">7</p>", "internal_node_id": "0.0-60.0-3.0", "time_elapsed": 429325, "key_press": -1, "trial_index": 81}, "uniqueid": "MTK3202:3IRIK4HM3BRJO727N3850XWXVBGC6U", "dateTime": 1520125855422}, {"current_trial": 82, "trialdata": {"rt": -1, "trial_type": "single-stim", "stimulus": "<p id=\"stim\">6</p>", "internal_node_id": "0.0-60.0-4.0", "time_elapsed": 430326, "key_press": -1, "trial_index": 82}, "uniqueid": "MTK3202:3IRIK4HM3BRJO727N3850XWXVBGC6U", "dateTime": 1520125856422}, {"current_trial": 83, "trialdata": {"rt": -1, "trial_type": "single-stim", "stimulus": "<p id=\"stim\">5</p>", "internal_node_id": "0.0-60.0-5.0", "time_elapsed": 431327, "key_press": -1, "trial_index": 83}, "uniqueid": "MTK3202:3IRIK4HM3BRJO727N3850XWXVBGC6U", "dateTime": 1520125857423}, {"current_trial": 84, "trialdata": {"rt": -1, "trial_type": "single-stim", "stimulus": "<p id=\"stim\">4</p>", "internal_node_id": "0.0-60.0-6.0", "time_elapsed": 432328, "key_press": -1, "trial_index": 84}, "uniqueid": "MTK3202:3IRIK4HM3BRJO727N3850XWXVBGC6U", "dateTime": 1520125858424}, {"current_trial": 85, "trialdata": {"rt": -1, "trial_type": "single-stim", "stimulus": "<p id=\"stim\">3</p>", "internal_node_id": "0.0-60.0-7.0", "time_elapsed": 433328, "key_press": -1, "trial_index": 85}, "uniqueid": "MTK3202:3IRIK4HM3BRJO727N3850XWXVBGC6U", "dateTime": 1520125859424}, {"current_trial": 86, "trialdata": {"rt": -1, "trial_type": "single-stim", "stimulus": "<p id=\"stim\">2</p>", "internal_node_id": "0.0-60.0-8.0", "time_elapsed": 434329, "key_press": -1, "trial_index": 86}, "uniqueid": "MTK3202:3IRIK4HM3BRJO727N3850XWXVBGC6U", "dateTime": 1520125860425}, {"current_trial": 87, "trialdata": {"rt": -1, "trial_type": "single-stim", "stimulus": "<p id=\"stim\">1</p>", "internal_node_id": "0.0-60.0-9.0", "time_elapsed": 435330, "key_press": -1, "trial_index": 87}, "uniqueid": "MTK3202:3IRIK4HM3BRJO727N3850XWXVBGC6U", "dateTime": 1520125861426}, {"current_trial": 88, "trialdata": {"rt": -1, "trial_type": "single-stim", "stimulus": "<p id=\"stim\">+</p>", "internal_node_id": "0.0-61.0-0.0", "time_elapsed": 436831, "key_press": -1, "type": "FIXATION", "trial_index": 88}, "uniqueid": "MTK3202:3IRIK4HM3BRJO727N3850XWXVBGC6U", "dateTime": 1520125862927}, {"current_trial": 89, "trialdata": {"rt": -1, "trial_type": "single-stim", "word": "suspect", "stimulus": "<p id=\"stim\">SUSPECT</p>", "conditions": [12, 800, "v", 12000], "internal_node_id": "0.0-62.0", "trial": 2, "time_elapsed": 437632, "serialpos": 0, "key_press": -1, "wordID": 1414, "type": "PRES_VIS", "trial_index": 89}, "uniqueid": "MTK3202:3IRIK4HM3BRJO727N3850XWXVBGC6U", "dateTime": 1520125863728}, {"current_trial": 90, "trialdata": {"rt": -1, "trial_type": "single-stim", "word": "gymnast", "stimulus": "<p id=\"stim\">GYMNAST</p>", "conditions": [12, 800, "v", 12000], "internal_node_id": "0.0-63.0", "trial": 2, "time_elapsed": 439434, "serialpos": 1, "key_press": -1, "wordID": 674, "type": "PRES_VIS", "trial_index": 90}, "uniqueid": "MTK3202:3IRIK4HM3BRJO727N3850XWXVBGC6U", "dateTime": 1520125865530}, {"current_trial": 91, "trialdata": {"rt": -1, "trial_type": "single-stim", "word": "knife", "stimulus": "<p id=\"stim\">KNIFE</p>", "conditions": [12, 800, "v", 12000], "internal_node_id": "0.0-64.0", "trial": 2, "time_elapsed": 441080, "serialpos": 2, "key_press": -1, "wordID": 784, "type": "PRES_VIS", "trial_index": 91}, "uniqueid": "MTK3202:3IRIK4HM3BRJO727N3850XWXVBGC6U", "dateTime": 1520125867177}, {"current_trial": 92, "trialdata": {"rt": -1, "trial_type": "single-stim", "word": "razor", "stimulus": "<p id=\"stim\">RAZOR</p>", "conditions": [12, 800, "v", 12000], "internal_node_id": "0.0-65.0", "trial": 2, "time_elapsed": 442790, "serialpos": 3, "key_press": -1, "wordID": 1170, "type": "PRES_VIS", "trial_index": 92}, "uniqueid": "MTK3202:3IRIK4HM3BRJO727N3850XWXVBGC6U", "dateTime": 1520125868886}, {"current_trial": 93, "trialdata": {"rt": -1, "trial_type": "single-stim", "word": "slime", "stimulus": "<p id=\"stim\">SLIME</p>", "conditions": [12, 800, "v", 12000], "internal_node_id": "0.0-66.0", "trial": 2, "time_elapsed": 444615, "serialpos": 4, "key_press": -1, "wordID": 1326, "type": "PRES_VIS", "trial_index": 93}, "uniqueid": "MTK3202:3IRIK4HM3BRJO727N3850XWXVBGC6U", "dateTime": 1520125870711}, {"current_trial": 94, "trialdata": {"rt": -1, "trial_type": "single-stim", "word": "dancer", "stimulus": "<p id=\"stim\">DANCER</p>", "conditions": [12, 800, "v", 12000], "internal_node_id": "0.0-67.0", "trial": 2, "time_elapsed": 446268, "serialpos": 5, "key_press": -1, "wordID": 436, "type": "PRES_VIS", "trial_index": 94}, "uniqueid": "MTK3202:3IRIK4HM3BRJO727N3850XWXVBGC6U", "dateTime": 1520125872364}, {"current_trial": 95, "trialdata": {"rt": -1, "trial_type": "single-stim", "word": "airport", "stimulus": "<p id=\"stim\">AIRPORT</p>", "conditions": [12, 800, "v", 12000], "internal_node_id": "0.0-68.0", "trial": 2, "time_elapsed": 447960, "serialpos": 6, "key_press": -1, "wordID": 12, "type": "PRES_VIS", "trial_index": 95}, "uniqueid": "MTK3202:3IRIK4HM3BRJO727N3850XWXVBGC6U", "dateTime": 1520125874056}, {"current_trial": 96, "trialdata": {"rt": -1, "trial_type": "single-stim", "word": "braces", "stimulus": "<p id=\"stim\">BRACES</p>", "conditions": [12, 800, "v", 12000], "internal_node_id": "0.0-69.0", "trial": 2, "time_elapsed": 449702, "serialpos": 7, "key_press": -1, "wordID": 163, "type": "PRES_VIS", "trial_index": 96}, "uniqueid": "MTK3202:3IRIK4HM3BRJO727N3850XWXVBGC6U", "dateTime": 1520125875799}, {"current_trial": 97, "trialdata": {"rt": -1, "trial_type": "single-stim", "word": "puppy", "stimulus": "<p id=\"stim\">PUPPY</p>", "conditions": [12, 800, "v", 12000], "internal_node_id": "0.0-70.0", "trial": 2, "time_elapsed": 451547, "serialpos": 8, "key_press": -1, "wordID": 1143, "type": "PRES_VIS", "trial_index": 97}, "uniqueid": "MTK3202:3IRIK4HM3BRJO727N3850XWXVBGC6U", "dateTime": 1520125877644}, {"current_trial": 98, "trialdata": {"rt": -1, "trial_type": "single-stim", "word": "cousin", "stimulus": "<p id=\"stim\">COUSIN</p>", "conditions": [12, 800, "v", 12000], "internal_node_id": "0.0-71.0", "trial": 2, "time_elapsed": 453337, "serialpos": 9, "key_press": -1, "wordID": 391, "type": "PRES_VIS", "trial_index": 98}, "uniqueid": "MTK3202:3IRIK4HM3BRJO727N3850XWXVBGC6U", "dateTime": 1520125879434}, {"current_trial": 99, "trialdata": {"rt": -1, "trial_type": "single-stim", "word": "flute", "stimulus": "<p id=\"stim\">FLUTE</p>", "conditions": [12, 800, "v", 12000], "internal_node_id": "0.0-72.0", "trial": 2, "time_elapsed": 455087, "serialpos": 10, "key_press": -1, "wordID": 584, "type": "PRES_VIS", "trial_index": 99}, "uniqueid": "MTK3202:3IRIK4HM3BRJO727N3850XWXVBGC6U", "dateTime": 1520125881183}, {"current_trial": 100, "trialdata": {"rt": -1, "trial_type": "single-stim", "word": "proton", "stimulus": "<p id=\"stim\">PROTON</p>", "conditions": [12, 800, "v", 12000], "internal_node_id": "0.0-73.0", "trial": 2, "time_elapsed": 456705, "serialpos": 11, "key_press": -1, "wordID": 1131, "type": "PRES_VIS", "trial_index": 100}, "uniqueid": "MTK3202:3IRIK4HM3BRJO727N3850XWXVBGC6U", "dateTime": 1520125882801}, {"current_trial": 101, "trialdata": {"rt": -1, "trial_type": "single-stim", "stimulus": "", "internal_node_id": "0.0-74.0-0.0", "time_elapsed": 458902, "key_press": -1, "type": "PRE_RECALL_DELAY", "trial_index": 101}, "uniqueid": "MTK3202:3IRIK4HM3BRJO727N3850XWXVBGC6U", "dateTime": 1520125884998}, {"current_trial": 102, "trialdata": {"rt": -1000, "trial_type": "single-audio", "stimulus": "/static/audio/400Hz.wav", "internal_node_id": "0.0-75.0", "time_elapsed": 459403, "key_press": -1, "type": "PRE_RECALL_ALERT", "trial_index": 102}, "uniqueid": "MTK3202:3IRIK4HM3BRJO727N3850XWXVBGC6U", "dateTime": 1520125885499}, {"current_trial": 103, "trialdata": {"rt": [2041, 6301, 7272, 8481, 9600, 15551, 20269, 21791, 27292, 31444, 41681], "recwords": ["proton", "gymnast", "knife", "puppy", "proton", "criminal", "razor", "edge", "slime", "puppy", "canyon"], "key_times": [1040, 1183, 1319, 1475, 1559, 1636, 2041, 2196, 2374, 2489, 2696, 3515, 3662, 3804, 4511, 4655, 4809, 4937, 5076, 5453, 5780, 5901, 6012, 6126, 6301, 6645, 6748, 6839, 7028, 7154, 7272, 7498, 7715, 7928, 8077, 8265, 8481, 8692, 8815, 8964, 9126, 9223, 9301, 9600, 14452, 14671, 14830, 14870, 15027, 15111, 15206, 15331, 15551, 19261, 19401, 19655, 19808, 20013, 20269, 21310, 21454, 21624, 21689, 21791, 24803, 24911, 25107, 25189, 25625, 26790, 26915, 27292, 30513, 30764, 30996, 31141, 31255, 31444, 40806, 40894, 41023, 41179, 41273, 41322, 41681], "trial_type": "free-recall", "conditions": [12, 800, "v", 12000], "internal_node_id": "0.0-76.0-0.0", "key_presses": [80, 82, 79, 84, 79, 78, 13, 71, 89, 78, 77, 65, 83, 84, 8, 8, 8, 8, 8, 77, 78, 65, 83, 84, 13, 75, 78, 73, 70, 69, 13, 80, 85, 80, 80, 89, 13, 80, 82, 79, 84, 79, 78, 13, 67, 82, 73, 77, 73, 78, 65, 76, 13, 82, 65, 90, 79, 82, 13, 69, 68, 71, 69, 13, 83, 76, 73, 77, 89, 8, 69, 13, 80, 85, 80, 80, 89, 13, 67, 65, 78, 89, 79, 78, 13], "trial": 2, "time_elapsed": 519405, "type": "FREE_RECALL", "trial_index": 103}, "uniqueid": "MTK3202:3IRIK4HM3BRJO727N3850XWXVBGC6U", "dateTime": 1520125945503}, {"current_trial": 104, "trialdata": {"rt": 1895, "trial_type": "text", "internal_node_id": "0.0-77.0", "time_elapsed": 523303, "key_press": 32, "type": "INSTRUCTIONS", "trial_index": 104}, "uniqueid": "MTK3202:3IRIK4HM3BRJO727N3850XWXVBGC6U", "dateTime": 1520125949399}, {"current_trial": 105, "trialdata": {"rt": [4022, 7392, 8979, 11011], "trial_type": "math-distractor", "key_times": [2131, 2947, 3729, 3827, 4022, 7014, 7289, 7392, 8656, 8879, 8979, 10429, 10872, 11011], "responses": ["23", "14", "15", "15"], "num2": [5, 7, 5, 7, 3], "num3": [9, 5, 3, 2, 7], "conditions": [12, 800, "v", 12000], "internal_node_id": "0.0-78.0", "key_presses": [50, 52, 8, 51, 13, 49, 52, 13, 49, 53, 13, 49, 53, 13], "trial": 3, "time_elapsed": 537306, "type": "DISTRACTOR", "trial_index": 105, "num1": [9, 2, 7, 6, 7]}, "uniqueid": "MTK3202:3IRIK4HM3BRJO727N3850XWXVBGC6U", "dateTime": 1520125963402}, {"current_trial": 106, "trialdata": {"rt": -1, "trial_type": "single-stim", "stimulus": "<p id=\"stim\">10</p>", "internal_node_id": "0.0-79.0-0.0", "time_elapsed": 540308, "key_press": -1, "trial_index": 106}, "uniqueid": "MTK3202:3IRIK4HM3BRJO727N3850XWXVBGC6U", "dateTime": 1520125966404}, {"current_trial": 107, "trialdata": {"rt": -1, "trial_type": "single-stim", "stimulus": "<p id=\"stim\">9</p>", "internal_node_id": "0.0-79.0-1.0", "time_elapsed": 541310, "key_press": -1, "trial_index": 107}, "uniqueid": "MTK3202:3IRIK4HM3BRJO727N3850XWXVBGC6U", "dateTime": 1520125967406}, {"current_trial": 108, "trialdata": {"rt": -1, "trial_type": "single-stim", "stimulus": "<p id=\"stim\">8</p>", "internal_node_id": "0.0-79.0-2.0", "time_elapsed": 542311, "key_press": -1, "trial_index": 108}, "uniqueid": "MTK3202:3IRIK4HM3BRJO727N3850XWXVBGC6U", "dateTime": 1520125968407}, {"current_trial": 109, "trialdata": {"rt": -1, "trial_type": "single-stim", "stimulus": "<p id=\"stim\">7</p>", "internal_node_id": "0.0-79.0-3.0", "time_elapsed": 543312, "key_press": -1, "trial_index": 109}, "uniqueid": "MTK3202:3IRIK4HM3BRJO727N3850XWXVBGC6U", "dateTime": 1520125969408}, {"current_trial": 110, "trialdata": {"rt": -1, "trial_type": "single-stim", "stimulus": "<p id=\"stim\">6</p>", "internal_node_id": "0.0-79.0-4.0", "time_elapsed": 544313, "key_press": -1, "trial_index": 110}, "uniqueid": "MTK3202:3IRIK4HM3BRJO727N3850XWXVBGC6U", "dateTime": 1520125970409}, {"current_trial": 111, "trialdata": {"rt": -1, "trial_type": "single-stim", "stimulus": "<p id=\"stim\">5</p>", "internal_node_id": "0.0-79.0-5.0", "time_elapsed": 545314, "key_press": -1, "trial_index": 111}, "uniqueid": "MTK3202:3IRIK4HM3BRJO727N3850XWXVBGC6U", "dateTime": 1520125971410}, {"current_trial": 112, "trialdata": {"rt": -1, "trial_type": "single-stim", "stimulus": "<p id=\"stim\">4</p>", "internal_node_id": "0.0-79.0-6.0", "time_elapsed": 546315, "key_press": -1, "trial_index": 112}, "uniqueid": "MTK3202:3IRIK4HM3BRJO727N3850XWXVBGC6U", "dateTime": 1520125972411}, {"current_trial": 113, "trialdata": {"rt": -1, "trial_type": "single-stim", "stimulus": "<p id=\"stim\">3</p>", "internal_node_id": "0.0-79.0-7.0", "time_elapsed": 547315, "key_press": -1, "trial_index": 113}, "uniqueid": "MTK3202:3IRIK4HM3BRJO727N3850XWXVBGC6U", "dateTime": 1520125973411}, {"current_trial": 114, "trialdata": {"rt": -1, "trial_type": "single-stim", "stimulus": "<p id=\"stim\">2</p>", "internal_node_id": "0.0-79.0-8.0", "time_elapsed": 548316, "key_press": -1, "trial_index": 114}, "uniqueid": "MTK3202:3IRIK4HM3BRJO727N3850XWXVBGC6U", "dateTime": 1520125974412}, {"current_trial": 115, "trialdata": {"rt": -1, "trial_type": "single-stim", "stimulus": "<p id=\"stim\">1</p>", "internal_node_id": "0.0-79.0-9.0", "time_elapsed": 549318, "key_press": -1, "trial_index": 115}, "uniqueid": "MTK3202:3IRIK4HM3BRJO727N3850XWXVBGC6U", "dateTime": 1520125975414}, {"current_trial": 116, "trialdata": {"rt": -1, "trial_type": "single-stim", "stimulus": "<p id=\"stim\">+</p>", "internal_node_id": "0.0-80.0-0.0", "time_elapsed": 550819, "key_press": -1, "type": "FIXATION", "trial_index": 116}, "uniqueid": "MTK3202:3IRIK4HM3BRJO727N3850XWXVBGC6U", "dateTime": 1520125976915}, {"current_trial": 117, "trialdata": {"rt": -1, "trial_type": "single-stim", "word": "missile", "stimulus": "<p id=\"stim\">MISSILE</p>", "conditions": [12, 800, "v", 12000], "internal_node_id": "0.0-81.0", "trial": 3, "time_elapsed": 551620, "serialpos": 0, "key_press": -1, "wordID": 899, "type": "PRES_VIS", "trial_index": 117}, "uniqueid": "MTK3202:3IRIK4HM3BRJO727N3850XWXVBGC6U", "dateTime": 1520125977716}, {"current_trial": 118, "trialdata": {"rt": -1, "trial_type": "single-stim", "word": "balloon", "stimulus": "<p id=\"stim\">BALLOON</p>", "conditions": [12, 800, "v", 12000], "internal_node_id": "0.0-82.0", "trial": 3, "time_elapsed": 553407, "serialpos": 1, "key_press": -1, "wordID": 74, "type": "PRES_VIS", "trial_index": 118}, "uniqueid": "MTK3202:3IRIK4HM3BRJO727N3850XWXVBGC6U", "dateTime": 1520125979503}, {"current_trial": 119, "trialdata": {"rt": -1, "trial_type": "single-stim", "word": "piston", "stimulus": "<p id=\"stim\">PISTON</p>", "conditions": [12, 800, "v", 12000], "internal_node_id": "0.0-83.0", "trial": 3, "time_elapsed": 555059, "serialpos": 2, "key_press": -1, "wordID": 1075, "type": "PRES_VIS", "trial_index": 119}, "uniqueid": "MTK3202:3IRIK4HM3BRJO727N3850XWXVBGC6U", "dateTime": 1520125981155}, {"current_trial": 120, "trialdata": {"rt": -1, "trial_type": "single-stim", "word": "motor", "stimulus": "<p id=\"stim\">MOTOR</p>", "conditions": [12, 800, "v", 12000], "internal_node_id": "0.0-84.0", "trial": 3, "time_elapsed": 556983, "serialpos": 3, "key_press": -1, "wordID": 921, "type": "PRES_VIS", "trial_index": 120}, "uniqueid": "MTK3202:3IRIK4HM3BRJO727N3850XWXVBGC6U", "dateTime": 1520125983079}, {"current_trial": 121, "trialdata": {"rt": -1, "trial_type": "single-stim", "word": "crib", "stimulus": "<p id=\"stim\">CRIB</p>", "conditions": [12, 800, "v", 12000], "internal_node_id": "0.0-85.0", "trial": 3, "time_elapsed": 558656, "serialpos": 4, "key_press": -1, "wordID": 406, "type": "PRES_VIS", "trial_index": 121}, "uniqueid": "MTK3202:3IRIK4HM3BRJO727N3850XWXVBGC6U", "dateTime": 1520125984752}, {"current_trial": 122, "trialdata": {"rt": -1, "trial_type": "single-stim", "word": "leader", "stimulus": "<p id=\"stim\">LEADER</p>", "conditions": [12, 800, "v", 12000], "internal_node_id": "0.0-86.0", "trial": 3, "time_elapsed": 560463, "serialpos": 5, "key_press": -1, "wordID": 806, "type": "PRES_VIS", "trial_index": 122}, "uniqueid": "MTK3202:3IRIK4HM3BRJO727N3850XWXVBGC6U", "dateTime": 1520125986559}, {"current_trial": 123, "trialdata": {"rt": -1, "trial_type": "single-stim", "word": "bucket", "stimulus": "<p id=\"stim\">BUCKET</p>", "conditions": [12, 800, "v", 12000], "internal_node_id": "0.0-87.0", "trial": 3, "time_elapsed": 562450, "serialpos": 6, "key_press": -1, "wordID": 183, "type": "PRES_VIS", "trial_index": 123}, "uniqueid": "MTK3202:3IRIK4HM3BRJO727N3850XWXVBGC6U", "dateTime": 1520125988546}, {"current_trial": 124, "trialdata": {"rt": -1, "trial_type": "single-stim", "word": "lily", "stimulus": "<p id=\"stim\">LILY</p>", "conditions": [12, 800, "v", 12000], "internal_node_id": "0.0-88.0", "trial": 3, "time_elapsed": 564123, "serialpos": 7, "key_press": -1, "wordID": 820, "type": "PRES_VIS", "trial_index": 124}, "uniqueid": "MTK3202:3IRIK4HM3BRJO727N3850XWXVBGC6U", "dateTime": 1520125990219}, {"current_trial": 125, "trialdata": {"rt": -1, "trial_type": "single-stim", "word": "dashboard", "stimulus": "<p id=\"stim\">DASHBOARD</p>", "conditions": [12, 800, "v", 12000], "internal_node_id": "0.0-89.0", "trial": 3, "time_elapsed": 565739, "serialpos": 8, "key_press": -1, "wordID": 440, "type": "PRES_VIS", "trial_index": 125}, "uniqueid": "MTK3202:3IRIK4HM3BRJO727N3850XWXVBGC6U", "dateTime": 1520125991835}, {"current_trial": 126, "trialdata": {"rt": -1, "trial_type": "single-stim", "word": "robber", "stimulus": "<p id=\"stim\">ROBBER</p>", "conditions": [12, 800, "v", 12000], "internal_node_id": "0.0-90.0", "trial": 3, "time_elapsed": 567600, "serialpos": 9, "key_press": -1, "wordID": 1196, "type": "PRES_VIS", "trial_index": 126}, "uniqueid": "MTK3202:3IRIK4HM3BRJO727N3850XWXVBGC6U", "dateTime": 1520125993696}, {"current_trial": 127, "trialdata": {"rt": -1, "trial_type": "single-stim", "word": "burglar", "stimulus": "<p id=\"stim\">BURGLAR</p>", "conditions": [12, 800, "v", 12000], "internal_node_id": "0.0-91.0", "trial": 3, "time_elapsed": 569396, "serialpos": 10, "key_press": -1, "wordID": 199, "type": "PRES_VIS", "trial_index": 127}, "uniqueid": "MTK3202:3IRIK4HM3BRJO727N3850XWXVBGC6U", "dateTime": 1520125995492}, {"current_trial": 128, "trialdata": {"rt": -1, "trial_type": "single-stim", "word": "rocket", "stimulus": "<p id=\"stim\">ROCKET</p>", "conditions": [12, 800, "v", 12000], "internal_node_id": "0.0-92.0", "trial": 3, "time_elapsed": 571064, "serialpos": 11, "key_press": -1, "wordID": 1201, "type": "PRES_VIS", "trial_index": 128}, "uniqueid": "MTK3202:3IRIK4HM3BRJO727N3850XWXVBGC6U", "dateTime": 1520125997160}, {"current_trial": 129, "trialdata": {"rt": -1, "trial_type": "single-stim", "stimulus": "", "internal_node_id": "0.0-93.0-0.0", "time_elapsed": 573167, "key_press": -1, "type": "PRE_RECALL_DELAY", "trial_index": 129}, "uniqueid": "MTK3202:3IRIK4HM3BRJO727N3850XWXVBGC6U", "dateTime": 1520125999263}, {"current_trial": 130, "trialdata": {"rt": -1000, "trial_type": "single-audio", "stimulus": "/static/audio/400Hz.wav", "internal_node_id": "0.0-94.0", "time_elapsed": 573668, "key_press": -1, "type": "PRE_RECALL_ALERT", "trial_index": 130}, "uniqueid": "MTK3202:3IRIK4HM3BRJO727N3850XWXVBGC6U", "dateTime": 1520125999764}, {"current_trial": 131, "trialdata": {"rt": [1694, 4137, 4923, 5985, 9866, 10860, 16184, 19684, 25104, 31957, 37888], "recwords": ["robber", "burgular", "rocket", "missle", "balloon", "basket", "piston", "rocket", "dashboard", "basket", "robber"], "key_times": [573, 1054, 1284, 1413, 1533, 1558, 1694, 1921, 2006, 2207, 2521, 2635, 2871, 2988, 3046, 4137, 4335, 4400, 4563, 4651, 4763, 4839, 4923, 5113, 5194, 5329, 5483, 5676, 5814, 5985, 8321, 8456, 8786, 8999, 9209, 9364, 9480, 9866, 10264, 10353, 10442, 10535, 10641, 10703, 10860, 15335, 15562, 15607, 15737, 15808, 15891, 16184, 18894, 19037, 19176, 19287, 19487, 19556, 19684, 24045, 24150, 24257, 24339, 24561, 24724, 24770, 24822, 24974, 25104, 31044, 31126, 31217, 31384, 31470, 31546, 31957, 37228, 37312, 37500, 37646, 37740, 37782, 37888], "trial_type": "free-recall", "conditions": [12, 800, "v", 12000], "internal_node_id": "0.0-95.0-0.0", "key_presses": [82, 79, 66, 66, 69, 82, 13, 66, 85, 82, 71, 85, 76, 65, 82, 13, 82, 79, 67, 75, 69, 84, 13, 77, 73, 83, 83, 76, 69, 13, 66, 65, 76, 76, 79, 79, 78, 13, 66, 65, 83, 75, 69, 84, 13, 80, 73, 83, 84, 79, 78, 13, 82, 79, 67, 75, 69, 84, 13, 68, 65, 83, 72, 66, 79, 65, 82, 68, 13, 66, 65, 83, 75, 69, 84, 13, 82, 79, 66, 66, 69, 82, 13], "trial": 3, "time_elapsed": 633671, "type": "FREE_RECALL", "trial_index": 131}, "uniqueid": "MTK3202:3IRIK4HM3BRJO727N3850XWXVBGC6U", "dateTime": 1520126059769}, {"current_trial": 132, "trialdata": {"rt": 41498, "trial_type": "text", "internal_node_id": "0.0-96.0", "time_elapsed": 677172, "key_press": 32, "type": "INSTRUCTIONS", "trial_index": 132}, "uniqueid": "MTK3202:3IRIK4HM3BRJO727N3850XWXVBGC6U", "dateTime": 1520126103268}, {"current_trial": 133, "trialdata": {"rt": [5191, 7906, 9568, 12679, 14960, 16829, 18956, 21825], "trial_type": "math-distractor", "key_times": [4784, 4973, 5191, 7261, 7434, 7906, 8989, 9450, 9568, 12441, 12575, 12679, 13977, 14658, 14960, 16123, 16543, 16829, 18570, 18855, 18956, 21626, 21737, 21825, 23473, 23905], "responses": ["23", "12", "13", "15", "17", "13", "16", "21"], "num2": [5, 1, 3, 7, 4, 8, 2, 6, 2], "num3": [9, 3, 5, 3, 6, 3, 6, 7, 6], "conditions": [12, 1600, "v", 24000], "internal_node_id": "0.0-97.0", "key_presses": [50, 51, 13, 49, 50, 13, 49, 51, 13, 49, 53, 13, 49, 55, 13, 49, 51, 13, 49, 54, 13, 50, 49, 13, 49, 51], "trial": 4, "time_elapsed": 703175, "type": "DISTRACTOR", "trial_index": 133, "num1": [7, 8, 5, 5, 7, 2, 8, 8, 5]}, "uniqueid": "MTK3202:3IRIK4HM3BRJO727N3850XWXVBGC6U", "dateTime": 1520126129271}, {"current_trial": 134, "trialdata": {"rt": -1, "trial_type": "single-stim", "stimulus": "<p id=\"stim\">10</p>", "internal_node_id": "0.0-98.0-0.0", "time_elapsed": 706176, "key_press": -1, "trial_index": 134}, "uniqueid": "MTK3202:3IRIK4HM3BRJO727N3850XWXVBGC6U", "dateTime": 1520126132272}, {"current_trial": 135, "trialdata": {"rt": -1, "trial_type": "single-stim", "stimulus": "<p id=\"stim\">9</p>", "internal_node_id": "0.0-98.0-1.0", "time_elapsed": 707176, "key_press": -1, "trial_index": 135}, "uniqueid": "MTK3202:3IRIK4HM3BRJO727N3850XWXVBGC6U", "dateTime": 1520126133272}, {"current_trial": 136, "trialdata": {"rt": -1, "trial_type": "single-stim", "stimulus": "<p id=\"stim\">8</p>", "internal_node_id": "0.0-98.0-2.0", "time_elapsed": 708178, "key_press": -1, "trial_index": 136}, "uniqueid": "MTK3202:3IRIK4HM3BRJO727N3850XWXVBGC6U", "dateTime": 1520126134274}, {"current_trial": 137, "trialdata": {"rt": -1, "trial_type": "single-stim", "stimulus": "<p id=\"stim\">7</p>", "internal_node_id": "0.0-98.0-3.0", "time_elapsed": 709179, "key_press": -1, "trial_index": 137}, "uniqueid": "MTK3202:3IRIK4HM3BRJO727N3850XWXVBGC6U", "dateTime": 1520126135275}, {"current_trial": 138, "trialdata": {"rt": 613, "trial_type": "single-stim", "stimulus": "<p id=\"stim\">6</p>", "internal_node_id": "0.0-98.0-4.0", "time_elapsed": 710181, "key_press": 91, "trial_index": 138}, "uniqueid": "MTK3202:3IRIK4HM3BRJO727N3850XWXVBGC6U", "dateTime": 1520126136277}, {"current_trial": 139, "trialdata": {"rt": -1, "trial_type": "single-stim", "stimulus": "<p id=\"stim\">5</p>", "internal_node_id": "0.0-98.0-5.0", "time_elapsed": 711181, "key_press": -1, "trial_index": 139}, "uniqueid": "MTK3202:3IRIK4HM3BRJO727N3850XWXVBGC6U", "dateTime": 1520126137277}, {"current_trial": 140, "trialdata": {"rt": -1, "trial_type": "single-stim", "stimulus": "<p id=\"stim\">4</p>", "internal_node_id": "0.0-98.0-6.0", "time_elapsed": 712182, "key_press": -1, "trial_index": 140}, "uniqueid": "MTK3202:3IRIK4HM3BRJO727N3850XWXVBGC6U", "dateTime": 1520126138279}, {"current_trial": 141, "trialdata": {"rt": -1, "trial_type": "single-stim", "stimulus": "<p id=\"stim\">3</p>", "internal_node_id": "0.0-98.0-7.0", "time_elapsed": 713183, "key_press": -1, "trial_index": 141}, "uniqueid": "MTK3202:3IRIK4HM3BRJO727N3850XWXVBGC6U", "dateTime": 1520126139279}, {"current_trial": 142, "trialdata": {"rt": -1, "trial_type": "single-stim", "stimulus": "<p id=\"stim\">2</p>", "internal_node_id": "0.0-98.0-8.0", "time_elapsed": 714185, "key_press": -1, "trial_index": 142}, "uniqueid": "MTK3202:3IRIK4HM3BRJO727N3850XWXVBGC6U", "dateTime": 1520126140281}, {"current_trial": 143, "trialdata": {"rt": -1, "trial_type": "single-stim", "stimulus": "<p id=\"stim\">1</p>", "internal_node_id": "0.0-98.0-9.0", "time_elapsed": 715186, "key_press": -1, "trial_index": 143}, "uniqueid": "MTK3202:3IRIK4HM3BRJO727N3850XWXVBGC6U", "dateTime": 1520126141282}, {"current_trial": 144, "trialdata": {"rt": -1, "trial_type": "single-stim", "stimulus": "<p id=\"stim\">+</p>", "internal_node_id": "0.0-99.0-0.0", "time_elapsed": 716687, "key_press": -1, "type": "FIXATION", "trial_index": 144}, "uniqueid": "MTK3202:3IRIK4HM3BRJO727N3850XWXVBGC6U", "dateTime": 1520126142783}, {"current_trial": 145, "trialdata": {"rt": -1, "trial_type": "single-stim", "word": "velvet", "stimulus": "<p id=\"stim\">VELVET</p>", "conditions": [12, 1600, "v", 24000], "internal_node_id": "0.0-100.0", "trial": 4, "time_elapsed": 718289, "serialpos": 0, "key_press": -1, "wordID": 1554, "type": "PRES_VIS", "trial_index": 145}, "uniqueid": "MTK3202:3IRIK4HM3BRJO727N3850XWXVBGC6U", "dateTime": 1520126144385}, {"current_trial": 146, "trialdata": {"rt": -1, "trial_type": "single-stim", "word": "lagoon", "stimulus": "<p id=\"stim\">LAGOON</p>", "conditions": [12, 1600, "v", 24000], "internal_node_id": "0.0-101.0", "trial": 4, "time_elapsed": 721014, "serialpos": 1, "key_press": -1, "wordID": 794, "type": "PRES_VIS", "trial_index": 146}, "uniqueid": "MTK3202:3IRIK4HM3BRJO727N3850XWXVBGC6U", "dateTime": 1520126147111}, {"current_trial": 147, "trialdata": {"rt": -1, "trial_type": "single-stim", "word": "scotch", "stimulus": "<p id=\"stim\">SCOTCH</p>", "conditions": [12, 1600, "v", 24000], "internal_node_id": "0.0-102.0", "trial": 4, "time_elapsed": 723780, "serialpos": 2, "key_press": -1, "wordID": 1250, "type": "PRES_VIS", "trial_index": 147}, "uniqueid": "MTK3202:3IRIK4HM3BRJO727N3850XWXVBGC6U", "dateTime": 1520126149876}, {"current_trial": 148, "trialdata": {"rt": -1, "trial_type": "single-stim", "word": "peach", "stimulus": "<p id=\"stim\">PEACH</p>", "conditions": [12, 1600, "v", 24000], "internal_node_id": "0.0-103.0", "trial": 4, "time_elapsed": 726220, "serialpos": 3, "key_press": -1, "wordID": 1030, "type": "PRES_VIS", "trial_index": 148}, "uniqueid": "MTK3202:3IRIK4HM3BRJO727N3850XWXVBGC6U", "dateTime": 1520126152316}, {"current_trial": 149, "trialdata": {"rt": -1, "trial_type": "single-stim", "word": "rust", "stimulus": "<p id=\"stim\">RUST</p>", "conditions": [12, 1600, "v", 24000], "internal_node_id": "0.0-104.0", "trial": 4, "time_elapsed": 728957, "serialpos": 4, "key_press": -1, "wordID": 1218, "type": "PRES_VIS", "trial_index": 149}, "uniqueid": "MTK3202:3IRIK4HM3BRJO727N3850XWXVBGC6U", "dateTime": 1520126155053}, {"current_trial": 150, "trialdata": {"rt": -1, "trial_type": "single-stim", "word": "box", "stimulus": "<p id=\"stim\">BOX</p>", "conditions": [12, 1600, "v", 24000], "internal_node_id": "0.0-105.0", "trial": 4, "time_elapsed": 731522, "serialpos": 5, "key_press": -1, "wordID": 158, "type": "PRES_VIS", "trial_index": 150}, "uniqueid": "MTK3202:3IRIK4HM3BRJO727N3850XWXVBGC6U", "dateTime": 1520126157618}, {"current_trial": 151, "trialdata": {"rt": -1, "trial_type": "single-stim", "word": "lake", "stimulus": "<p id=\"stim\">LAKE</p>", "conditions": [12, 1600, "v", 24000], "internal_node_id": "0.0-106.0", "trial": 4, "time_elapsed": 734092, "serialpos": 6, "key_press": -1, "wordID": 795, "type": "PRES_VIS", "trial_index": 151}, "uniqueid": "MTK3202:3IRIK4HM3BRJO727N3850XWXVBGC6U", "dateTime": 1520126160188}, {"current_trial": 152, "trialdata": {"rt": -1, "trial_type": "single-stim", "word": "palace", "stimulus": "<p id=\"stim\">PALACE</p>", "conditions": [12, 1600, "v", 24000], "internal_node_id": "0.0-107.0", "trial": 4, "time_elapsed": 736535, "serialpos": 7, "key_press": -1, "wordID": 1005, "type": "PRES_VIS", "trial_index": 152}, "uniqueid": "MTK3202:3IRIK4HM3BRJO727N3850XWXVBGC6U", "dateTime": 1520126162631}, {"current_trial": 153, "trialdata": {"rt": -1, "trial_type": "single-stim", "word": "body", "stimulus": "<p id=\"stim\">BODY</p>", "conditions": [12, 1600, "v", 24000], "internal_node_id": "0.0-108.0", "trial": 4, "time_elapsed": 739281, "serialpos": 8, "key_press": -1, "wordID": 144, "type": "PRES_VIS", "trial_index": 153}, "uniqueid": "MTK3202:3IRIK4HM3BRJO727N3850XWXVBGC6U", "dateTime": 1520126165377}, {"current_trial": 154, "trialdata": {"rt": -1, "trial_type": "single-stim", "word": "whiskers", "stimulus": "<p id=\"stim\">WHISKERS</p>", "conditions": [12, 1600, "v", 24000], "internal_node_id": "0.0-109.0", "trial": 4, "time_elapsed": 742046, "serialpos": 9, "key_press": -1, "wordID": 1604, "type": "PRES_VIS", "trial_index": 154}, "uniqueid": "MTK3202:3IRIK4HM3BRJO727N3850XWXVBGC6U", "dateTime": 1520126168142}, {"current_trial": 155, "trialdata": {"rt": -1, "trial_type": "single-stim", "word": "custard", "stimulus": "<p id=\"stim\">CUSTARD</p>", "conditions": [12, 1600, "v", 24000], "internal_node_id": "0.0-110.0", "trial": 4, "time_elapsed": 744590, "serialpos": 10, "key_press": -1, "wordID": 428, "type": "PRES_VIS", "trial_index": 155}, "uniqueid": "MTK3202:3IRIK4HM3BRJO727N3850XWXVBGC6U", "dateTime": 1520126170686}, {"current_trial": 156, "trialdata": {"rt": -1, "trial_type": "single-stim", "word": "pastry", "stimulus": "<p id=\"stim\">PASTRY</p>", "conditions": [12, 1600, "v", 24000], "internal_node_id": "0.0-111.0", "trial": 4, "time_elapsed": 747368, "serialpos": 11, "key_press": -1, "wordID": 1021, "type": "PRES_VIS", "trial_index": 156}, "uniqueid": "MTK3202:3IRIK4HM3BRJO727N3850XWXVBGC6U", "dateTime": 1520126173464}, {"current_trial": 157, "trialdata": {"rt": -1, "trial_type": "single-stim", "stimulus": "", "internal_node_id": "0.0-112.0-0.0", "time_elapsed": 749880, "key_press": -1, "type": "PRE_RECALL_DELAY", "trial_index": 157}, "uniqueid": "MTK3202:3IRIK4HM3BRJO727N3850XWXVBGC6U", "dateTime": 1520126175976}, {"current_trial": 158, "trialdata": {"rt": -1000, "trial_type": "single-audio", "stimulus": "/static/audio/400Hz.wav", "internal_node_id": "0.0-113.0", "time_elapsed": 750381, "key_press": -1, "type": "PRE_RECALL_ALERT", "trial_index": 158}, "uniqueid": "MTK3202:3IRIK4HM3BRJO727N3850XWXVBGC6U", "dateTime": 1520126176478}, {"current_trial": 159, "trialdata": {"rt": [2409, 3544, 4315, 4975, 6586, 7945, 9421, 13844, 15920, 21942, 52252], "recwords": ["velvet", "lagoon", "peach", "rust", "whiskers", "lake", "rust", "custard", "pastry", "custard", "peach"], "key_times": [979, 1113, 1303, 1422, 1471, 1838, 2409, 2705, 2843, 2935, 3008, 3166, 3294, 3544, 3733, 3833, 3929, 4004, 4058, 4315, 4434, 4539, 4685, 4789, 4975, 5616, 5855, 5941, 6004, 6171, 6241, 6304, 6419, 6586, 7433, 7520, 7656, 7737, 7945, 8970, 9075, 9190, 9274, 9421, 12936, 13041, 13137, 13242, 13355, 13479, 13677, 13844, 14202, 14610, 14799, 14903, 14979, 15100, 15279, 15479, 15920, 21027, 21141, 21255, 21381, 21491, 21601, 21787, 21942, 51551, 51707, 51823, 51885, 51941, 52252], "trial_type": "free-recall", "conditions": [12, 1600, "v", 24000], "internal_node_id": "0.0-114.0-0.0", "key_presses": [86, 69, 76, 86, 69, 84, 13, 76, 65, 71, 79, 79, 78, 13, 80, 69, 65, 67, 72, 13, 82, 85, 83, 84, 13, 87, 72, 73, 83, 75, 69, 82, 83, 13, 76, 65, 75, 69, 13, 82, 85, 83, 84, 13, 67, 85, 83, 84, 65, 82, 68, 13, 65, 8, 80, 65, 83, 84, 82, 89, 13, 67, 85, 83, 84, 65, 82, 68, 13, 80, 69, 65, 67, 72, 13], "trial": 4, "time_elapsed": 810383, "type": "FREE_RECALL", "trial_index": 159}, "uniqueid": "MTK3202:3IRIK4HM3BRJO727N3850XWXVBGC6U", "dateTime": 1520126236482}, {"current_trial": 160, "trialdata": {"rt": 1967, "trial_type": "text", "internal_node_id": "0.0-115.0", "time_elapsed": 814353, "key_press": 13, "type": "INSTRUCTIONS", "trial_index": 160}, "uniqueid": "MTK3202:3IRIK4HM3BRJO727N3850XWXVBGC6U", "dateTime": 1520126240449}, {"current_trial": 161, "trialdata": {"rt": [3006, 5308, 6887, 9531, 11157], "trial_type": "math-distractor", "key_times": [2443, 2611, 3006, 4850, 5090, 5308, 6503, 6794, 6887, 9252, 9452, 9531, 10779, 11073, 11157], "responses": ["13", "20", "17", "16", "14"], "num2": [2, 7, 8, 5, 1, 4], "num3": [4, 6, 7, 4, 9, 2], "conditions": [24, 800, "v", 12000], "internal_node_id": "0.0-116.0", "key_presses": [49, 51, 13, 50, 48, 13, 49, 55, 13, 49, 54, 13, 49, 52, 13], "trial": 5, "time_elapsed": 828356, "type": "DISTRACTOR", "trial_index": 161, "num1": [7, 7, 2, 7, 4, 1]}, "uniqueid": "MTK3202:3IRIK4HM3BRJO727N3850XWXVBGC6U", "dateTime": 1520126254452}, {"current_trial": 162, "trialdata": {"rt": -1, "trial_type": "single-stim", "stimulus": "<p id=\"stim\">10</p>", "internal_node_id": "0.0-117.0-0.0", "time_elapsed": 831356, "key_press": -1, "trial_index": 162}, "uniqueid": "MTK3202:3IRIK4HM3BRJO727N3850XWXVBGC6U", "dateTime": 1520126257452}, {"current_trial": 163, "trialdata": {"rt": -1, "trial_type": "single-stim", "stimulus": "<p id=\"stim\">9</p>", "internal_node_id": "0.0-117.0-1.0", "time_elapsed": 832357, "key_press": -1, "trial_index": 163}, "uniqueid": "MTK3202:3IRIK4HM3BRJO727N3850XWXVBGC6U", "dateTime": 1520126258453}, {"current_trial": 164, "trialdata": {"rt": -1, "trial_type": "single-stim", "stimulus": "<p id=\"stim\">8</p>", "internal_node_id": "0.0-117.0-2.0", "time_elapsed": 833358, "key_press": -1, "trial_index": 164}, "uniqueid": "MTK3202:3IRIK4HM3BRJO727N3850XWXVBGC6U", "dateTime": 1520126259454}, {"current_trial": 165, "trialdata": {"rt": -1, "trial_type": "single-stim", "stimulus": "<p id=\"stim\">7</p>", "internal_node_id": "0.0-117.0-3.0", "time_elapsed": 834359, "key_press": -1, "trial_index": 165}, "uniqueid": "MTK3202:3IRIK4HM3BRJO727N3850XWXVBGC6U", "dateTime": 1520126260455}, {"current_trial": 166, "trialdata": {"rt": -1, "trial_type": "single-stim", "stimulus": "<p id=\"stim\">6</p>", "internal_node_id": "0.0-117.0-4.0", "time_elapsed": 835359, "key_press": -1, "trial_index": 166}, "uniqueid": "MTK3202:3IRIK4HM3BRJO727N3850XWXVBGC6U", "dateTime": 1520126261455}, {"current_trial": 167, "trialdata": {"rt": -1, "trial_type": "single-stim", "stimulus": "<p id=\"stim\">5</p>", "internal_node_id": "0.0-117.0-5.0", "time_elapsed": 836361, "key_press": -1, "trial_index": 167}, "uniqueid": "MTK3202:3IRIK4HM3BRJO727N3850XWXVBGC6U", "dateTime": 1520126262457}, {"current_trial": 168, "trialdata": {"rt": -1, "trial_type": "single-stim", "stimulus": "<p id=\"stim\">4</p>", "internal_node_id": "0.0-117.0-6.0", "time_elapsed": 837363, "key_press": -1, "trial_index": 168}, "uniqueid": "MTK3202:3IRIK4HM3BRJO727N3850XWXVBGC6U", "dateTime": 1520126263459}, {"current_trial": 169, "trialdata": {"rt": -1, "trial_type": "single-stim", "stimulus": "<p id=\"stim\">3</p>", "internal_node_id": "0.0-117.0-7.0", "time_elapsed": 838364, "key_press": -1, "trial_index": 169}, "uniqueid": "MTK3202:3IRIK4HM3BRJO727N3850XWXVBGC6U", "dateTime": 1520126264460}, {"current_trial": 170, "trialdata": {"rt": -1, "trial_type": "single-stim", "stimulus": "<p id=\"stim\">2</p>", "internal_node_id": "0.0-117.0-8.0", "time_elapsed": 839364, "key_press": -1, "trial_index": 170}, "uniqueid": "MTK3202:3IRIK4HM3BRJO727N3850XWXVBGC6U", "dateTime": 1520126265460}, {"current_trial": 171, "trialdata": {"rt": -1, "trial_type": "single-stim", "stimulus": "<p id=\"stim\">1</p>", "internal_node_id": "0.0-117.0-9.0", "time_elapsed": 840365, "key_press": -1, "trial_index": 171}, "uniqueid": "MTK3202:3IRIK4HM3BRJO727N3850XWXVBGC6U", "dateTime": 1520126266461}, {"current_trial": 172, "trialdata": {"rt": -1, "trial_type": "single-stim", "stimulus": "<p id=\"stim\">+</p>", "internal_node_id": "0.0-118.0-0.0", "time_elapsed": 841866, "key_press": -1, "type": "FIXATION", "trial_index": 172}, "uniqueid": "MTK3202:3IRIK4HM3BRJO727N3850XWXVBGC6U", "dateTime": 1520126267962}, {"current_trial": 173, "trialdata": {"rt": -1, "trial_type": "single-stim", "word": "child", "stimulus": "<p id=\"stim\">CHILD</p>", "conditions": [24, 800, "v", 12000], "internal_node_id": "0.0-119.0", "trial": 5, "time_elapsed": 842668, "serialpos": 0, "key_press": -1, "wordID": 298, "type": "PRES_VIS", "trial_index": 173}, "uniqueid": "MTK3202:3IRIK4HM3BRJO727N3850XWXVBGC6U", "dateTime": 1520126268764}, {"current_trial": 174, "trialdata": {"rt": -1, "trial_type": "single-stim", "word": "tile", "stimulus": "<p id=\"stim\">TILE</p>", "conditions": [24, 800, "v", 12000], "internal_node_id": "0.0-120.0", "trial": 5, "time_elapsed": 844474, "serialpos": 1, "key_press": -1, "wordID": 1467, "type": "PRES_VIS", "trial_index": 174}, "uniqueid": "MTK3202:3IRIK4HM3BRJO727N3850XWXVBGC6U", "dateTime": 1520126270570}, {"current_trial": 175, "trialdata": {"rt": -1, "trial_type": "single-stim", "word": "brick", "stimulus": "<p id=\"stim\">BRICK</p>", "conditions": [24, 800, "v", 12000], "internal_node_id": "0.0-121.0", "trial": 5, "time_elapsed": 846384, "serialpos": 2, "key_press": -1, "wordID": 171, "type": "PRES_VIS", "trial_index": 175}, "uniqueid": "MTK3202:3IRIK4HM3BRJO727N3850XWXVBGC6U", "dateTime": 1520126272481}, {"current_trial": 176, "trialdata": {"rt": -1, "trial_type": "single-stim", "word": "dustpan", "stimulus": "<p id=\"stim\">DUSTPAN</p>", "conditions": [24, 800, "v", 12000], "internal_node_id": "0.0-122.0", "trial": 5, "time_elapsed": 848210, "serialpos": 3, "key_press": -1, "wordID": 508, "type": "PRES_VIS", "trial_index": 176}, "uniqueid": "MTK3202:3IRIK4HM3BRJO727N3850XWXVBGC6U", "dateTime": 1520126274306}, {"current_trial": 177, "trialdata": {"rt": -1, "trial_type": "single-stim", "word": "stomach", "stimulus": "<p id=\"stim\">STOMACH</p>", "conditions": [24, 800, "v", 12000], "internal_node_id": "0.0-123.0", "trial": 5, "time_elapsed": 850061, "serialpos": 4, "key_press": -1, "wordID": 1383, "type": "PRES_VIS", "trial_index": 177}, "uniqueid": "MTK3202:3IRIK4HM3BRJO727N3850XWXVBGC6U", "dateTime": 1520126276157}, {"current_trial": 178, "trialdata": {"rt": -1, "trial_type": "single-stim", "word": "egypt", "stimulus": "<p id=\"stim\">EGYPT</p>", "conditions": [24, 800, "v", 12000], "internal_node_id": "0.0-124.0", "trial": 5, "time_elapsed": 851663, "serialpos": 5, "key_press": -1, "wordID": 518, "type": "PRES_VIS", "trial_index": 178}, "uniqueid": "MTK3202:3IRIK4HM3BRJO727N3850XWXVBGC6U", "dateTime": 1520126277759}, {"current_trial": 179, "trialdata": {"rt": -1, "trial_type": "single-stim", "word": "brother", "stimulus": "<p id=\"stim\">BROTHER</p>", "conditions": [24, 800, "v", 12000], "internal_node_id": "0.0-125.0", "trial": 5, "time_elapsed": 853560, "serialpos": 6, "key_press": -1, "wordID": 178, "type": "PRES_VIS", "trial_index": 179}, "uniqueid": "MTK3202:3IRIK4HM3BRJO727N3850XWXVBGC6U", "dateTime": 1520126279656}, {"current_trial": 180, "trialdata": {"rt": -1, "trial_type": "single-stim", "word": "hostess", "stimulus": "<p id=\"stim\">HOSTESS</p>", "conditions": [24, 800, "v", 12000], "internal_node_id": "0.0-126.0", "trial": 5, "time_elapsed": 855400, "serialpos": 7, "key_press": -1, "wordID": 722, "type": "PRES_VIS", "trial_index": 180}, "uniqueid": "MTK3202:3IRIK4HM3BRJO727N3850XWXVBGC6U", "dateTime": 1520126281497}, {"current_trial": 181, "trialdata": {"rt": -1, "trial_type": "single-stim", "word": "perfume", "stimulus": "<p id=\"stim\">PERFUME</p>", "conditions": [24, 800, "v", 12000], "internal_node_id": "0.0-127.0", "trial": 5, "time_elapsed": 857178, "serialpos": 8, "key_press": -1, "wordID": 1048, "type": "PRES_VIS", "trial_index": 181}, "uniqueid": "MTK3202:3IRIK4HM3BRJO727N3850XWXVBGC6U", "dateTime": 1520126283274}, {"current_trial": 182, "trialdata": {"rt": -1, "trial_type": "single-stim", "word": "garden", "stimulus": "<p id=\"stim\">GARDEN</p>", "conditions": [24, 800, "v", 12000], "internal_node_id": "0.0-128.0", "trial": 5, "time_elapsed": 859037, "serialpos": 9, "key_press": -1, "wordID": 622, "type": "PRES_VIS", "trial_index": 182}, "uniqueid": "MTK3202:3IRIK4HM3BRJO727N3850XWXVBGC6U", "dateTime": 1520126285133}, {"current_trial": 183, "trialdata": {"rt": -1, "trial_type": "single-stim", "word": "sibling", "stimulus": "<p id=\"stim\">SIBLING</p>", "conditions": [24, 800, "v", 12000], "internal_node_id": "0.0-129.0", "trial": 5, "time_elapsed": 861035, "serialpos": 10, "key_press": -1, "wordID": 1300, "type": "PRES_VIS", "trial_index": 183}, "uniqueid": "MTK3202:3IRIK4HM3BRJO727N3850XWXVBGC6U", "dateTime": 1520126287131}, {"current_trial": 184, "trialdata": {"rt": -1, "trial_type": "single-stim", "word": "japan", "stimulus": "<p id=\"stim\">JAPAN</p>", "conditions": [24, 800, "v", 12000], "internal_node_id": "0.0-130.0", "trial": 5, "time_elapsed": 862814, "serialpos": 11, "key_press": -1, "wordID": 748, "type": "PRES_VIS", "trial_index": 184}, "uniqueid": "MTK3202:3IRIK4HM3BRJO727N3850XWXVBGC6U", "dateTime": 1520126288910}, {"current_trial": 185, "trialdata": {"rt": -1, "trial_type": "single-stim", "word": "paddle", "stimulus": "<p id=\"stim\">PADDLE</p>", "conditions": [24, 800, "v", 12000], "internal_node_id": "0.0-131.0", "trial": 5, "time_elapsed": 864589, "serialpos": 12, "key_press": -1, "wordID": 999, "type": "PRES_VIS", "trial_index": 185}, "uniqueid": "MTK3202:3IRIK4HM3BRJO727N3850XWXVBGC6U", "dateTime": 1520126290686}, {"current_trial": 186, "trialdata": {"rt": -1, "trial_type": "single-stim", "word": "badge", "stimulus": "<p id=\"stim\">BADGE</p>", "conditions": [24, 800, "v", 12000], "internal_node_id": "0.0-132.0", "trial": 5, "time_elapsed": 866438, "serialpos": 13, "key_press": -1, "wordID": 67, "type": "PRES_VIS", "trial_index": 186}, "uniqueid": "MTK3202:3IRIK4HM3BRJO727N3850XWXVBGC6U", "dateTime": 1520126292534}, {"current_trial": 187, "trialdata": {"rt": -1, "trial_type": "single-stim", "word": "sticker", "stimulus": "<p id=\"stim\">STICKER</p>", "conditions": [24, 800, "v", 12000], "internal_node_id": "0.0-133.0", "trial": 5, "time_elapsed": 868310, "serialpos": 14, "key_press": -1, "wordID": 1381, "type": "PRES_VIS", "trial_index": 187}, "uniqueid": "MTK3202:3IRIK4HM3BRJO727N3850XWXVBGC6U", "dateTime": 1520126294406}, {"current_trial": 188, "trialdata": {"rt": -1, "trial_type": "single-stim", "word": "hawk", "stimulus": "<p id=\"stim\">HAWK</p>", "conditions": [24, 800, "v", 12000], "internal_node_id": "0.0-134.0", "trial": 5, "time_elapsed": 870302, "serialpos": 15, "key_press": -1, "wordID": 691, "type": "PRES_VIS", "trial_index": 188}, "uniqueid": "MTK3202:3IRIK4HM3BRJO727N3850XWXVBGC6U", "dateTime": 1520126296398}, {"current_trial": 189, "trialdata": {"rt": -1, "trial_type": "single-stim", "word": "bison", "stimulus": "<p id=\"stim\">BISON</p>", "conditions": [24, 800, "v", 12000], "internal_node_id": "0.0-135.0", "trial": 5, "time_elapsed": 871936, "serialpos": 16, "key_press": -1, "wordID": 130, "type": "PRES_VIS", "trial_index": 189}, "uniqueid": "MTK3202:3IRIK4HM3BRJO727N3850XWXVBGC6U", "dateTime": 1520126298032}, {"current_trial": 190, "trialdata": {"rt": -1, "trial_type": "single-stim", "word": "flag", "stimulus": "<p id=\"stim\">FLAG</p>", "conditions": [24, 800, "v", 12000], "internal_node_id": "0.0-136.0", "trial": 5, "time_elapsed": 873647, "serialpos": 17, "key_press": -1, "wordID": 572, "type": "PRES_VIS", "trial_index": 190}, "uniqueid": "MTK3202:3IRIK4HM3BRJO727N3850XWXVBGC6U", "dateTime": 1520126299743}, {"current_trial": 191, "trialdata": {"rt": -1, "trial_type": "single-stim", "word": "curtain", "stimulus": "<p id=\"stim\">CURTAIN</p>", "conditions": [24, 800, "v", 12000], "internal_node_id": "0.0-137.0", "trial": 5, "time_elapsed": 875504, "serialpos": 18, "key_press": -1, "wordID": 426, "type": "PRES_VIS", "trial_index": 191}, "uniqueid": "MTK3202:3IRIK4HM3BRJO727N3850XWXVBGC6U", "dateTime": 1520126301600}, {"current_trial": 192, "trialdata": {"rt": -1, "trial_type": "single-stim", "word": "sparrow", "stimulus": "<p id=\"stim\">SPARROW</p>", "conditions": [24, 800, "v", 12000], "internal_node_id": "0.0-138.0", "trial": 5, "time_elapsed": 877137, "serialpos": 19, "key_press": -1, "wordID": 1346, "type": "PRES_VIS", "trial_index": 192}, "uniqueid": "MTK3202:3IRIK4HM3BRJO727N3850XWXVBGC6U", "dateTime": 1520126303233}, {"current_trial": 193, "trialdata": {"rt": -1, "trial_type": "single-stim", "word": "cattle", "stimulus": "<p id=\"stim\">CATTLE</p>", "conditions": [24, 800, "v", 12000], "internal_node_id": "0.0-139.0", "trial": 5, "time_elapsed": 879001, "serialpos": 20, "key_press": -1, "wordID": 260, "type": "PRES_VIS", "trial_index": 193}, "uniqueid": "MTK3202:3IRIK4HM3BRJO727N3850XWXVBGC6U", "dateTime": 1520126305097}, {"current_trial": 194, "trialdata": {"rt": -1, "trial_type": "single-stim", "word": "iceberg", "stimulus": "<p id=\"stim\">ICEBERG</p>", "conditions": [24, 800, "v", 12000], "internal_node_id": "0.0-140.0", "trial": 5, "time_elapsed": 880835, "serialpos": 21, "key_press": -1, "wordID": 730, "type": "PRES_VIS", "trial_index": 194}, "uniqueid": "MTK3202:3IRIK4HM3BRJO727N3850XWXVBGC6U", "dateTime": 1520126306932}, {"current_trial": 195, "trialdata": {"rt": -1, "trial_type": "single-stim", "word": "wagon", "stimulus": "<p id=\"stim\">WAGON</p>", "conditions": [24, 800, "v", 12000], "internal_node_id": "0.0-141.0", "trial": 5, "time_elapsed": 882728, "serialpos": 22, "key_press": -1, "wordID": 1577, "type": "PRES_VIS", "trial_index": 195}, "uniqueid": "MTK3202:3IRIK4HM3BRJO727N3850XWXVBGC6U", "dateTime": 1520126308824}, {"current_trial": 196, "trialdata": {"rt": -1, "trial_type": "single-stim", "word": "sister", "stimulus": "<p id=\"stim\">SISTER</p>", "conditions": [24, 800, "v", 12000], "internal_node_id": "0.0-142.0", "trial": 5, "time_elapsed": 884638, "serialpos": 23, "key_press": -1, "wordID": 1311, "type": "PRES_VIS", "trial_index": 196}, "uniqueid": "MTK3202:3IRIK4HM3BRJO727N3850XWXVBGC6U", "dateTime": 1520126310734}, {"current_trial": 197, "trialdata": {"rt": -1, "trial_type": "single-stim", "stimulus": "", "internal_node_id": "0.0-143.0-0.0", "time_elapsed": 886989, "key_press": -1, "type": "PRE_RECALL_DELAY", "trial_index": 197}, "uniqueid": "MTK3202:3IRIK4HM3BRJO727N3850XWXVBGC6U", "dateTime": 1520126313085}, {"current_trial": 198, "trialdata": {"rt": -1000, "trial_type": "single-audio", "stimulus": "/static/audio/400Hz.wav", "internal_node_id": "0.0-144.0", "time_elapsed": 887489, "key_press": -1, "type": "PRE_RECALL_ALERT", "trial_index": 198}, "uniqueid": "MTK3202:3IRIK4HM3BRJO727N3850XWXVBGC6U", "dateTime": 1520126313586}, {"current_trial": 199, "trialdata": {"rt": [1139, 2345, 3857, 5043, 9265, 17324, 19989, 25435, 29214, 46669, 52845, 54783, 56854], "recwords": ["brother", "sister", "egypt", "japan", "waitress", "bison", "cat", "iceberg", "walnut", "sibling", "sparrow", "hawk", "walnut"], "key_times": [385, 508, 636, 746, 850, 929, 986, 1139, 1277, 1370, 1509, 1662, 1773, 1881, 2345, 2478, 2836, 3031, 3335, 3679, 3857, 4245, 4400, 4517, 4672, 4768, 5043, 8072, 8205, 8354, 8499, 8678, 8759, 8958, 9120, 9265, 15660, 16375, 16611, 16767, 16904, 16968, 17055, 17324, 19613, 19706, 19842, 19989, 24148, 24302, 24403, 24978, 25090, 25131, 25308, 25435, 28114, 28186, 28239, 28373, 28483, 28647, 29214, 39164, 39341, 39896, 40115, 40375, 44535, 44769, 45317, 45620, 45802, 45861, 46146, 46669, 51984, 52117, 52209, 52326, 52492, 52586, 52722, 52845, 53121, 53236, 53331, 54282, 54783, 55955, 56058, 56091, 56243, 56379, 56616, 56854], "trial_type": "free-recall", "conditions": [24, 800, "v", 12000], "internal_node_id": "0.0-145.0-0.0", "key_presses": [66, 82, 79, 84, 72, 69, 82, 13, 83, 73, 83, 84, 69, 82, 13, 69, 71, 89, 80, 84, 13, 74, 65, 80, 65, 78, 13, 87, 65, 73, 84, 82, 69, 83, 83, 13, 78, 8, 66, 73, 83, 79, 78, 13, 67, 65, 84, 13, 73, 67, 69, 66, 69, 82, 71, 13, 87, 65, 76, 78, 85, 84, 13, 84, 87, 8, 8, 8, 83, 73, 66, 76, 73, 78, 71, 13, 83, 80, 65, 82, 82, 79, 87, 13, 72, 65, 87, 75, 13, 87, 65, 76, 78, 85, 84, 13], "trial": 5, "time_elapsed": 947492, "type": "FREE_RECALL", "trial_index": 199}, "uniqueid": "MTK3202:3IRIK4HM3BRJO727N3850XWXVBGC6U", "dateTime": 1520126373591}, {"current_trial": 200, "trialdata": {"rt": 1122, "trial_type": "text", "internal_node_id": "0.0-146.0", "time_elapsed": 950618, "key_press": 13, "type": "INSTRUCTIONS", "trial_index": 200}, "uniqueid": "MTK3202:3IRIK4HM3BRJO727N3850XWXVBGC6U", "dateTime": 1520126376715}, {"current_trial": 201, "trialdata": {"rt": [4235, 5518, 7663, 10413], "trial_type": "math-distractor", "key_times": [3956, 4235, 5427, 5518, 7412, 7582, 7663, 9915, 10332, 10413], "responses": ["8", "7", "12", "14"], "num2": [3, 2, 3, 1, 3], "num3": [4, 1, 6, 8, 5], "conditions": [24, 800, "v", 12000], "internal_node_id": "0.0-147.0", "key_presses": [56, 13, 55, 13, 49, 50, 13, 49, 52, 13], "trial": 6, "time_elapsed": 964622, "type": "DISTRACTOR", "trial_index": 201, "num1": [1, 4, 3, 5, 3]}, "uniqueid": "MTK3202:3IRIK4HM3BRJO727N3850XWXVBGC6U", "dateTime": 1520126390718}, {"current_trial": 202, "trialdata": {"rt": -1, "trial_type": "single-stim", "stimulus": "<p id=\"stim\">10</p>", "internal_node_id": "0.0-148.0-0.0", "time_elapsed": 967623, "key_press": -1, "trial_index": 202}, "uniqueid": "MTK3202:3IRIK4HM3BRJO727N3850XWXVBGC6U", "dateTime": 1520126393719}, {"current_trial": 203, "trialdata": {"rt": -1, "trial_type": "single-stim", "stimulus": "<p id=\"stim\">9</p>", "internal_node_id": "0.0-148.0-1.0", "time_elapsed": 968625, "key_press": -1, "trial_index": 203}, "uniqueid": "MTK3202:3IRIK4HM3BRJO727N3850XWXVBGC6U", "dateTime": 1520126394721}, {"current_trial": 204, "trialdata": {"rt": -1, "trial_type": "single-stim", "stimulus": "<p id=\"stim\">8</p>", "internal_node_id": "0.0-148.0-2.0", "time_elapsed": 969625, "key_press": -1, "trial_index": 204}, "uniqueid": "MTK3202:3IRIK4HM3BRJO727N3850XWXVBGC6U", "dateTime": 1520126395721}, {"current_trial": 205, "trialdata": {"rt": -1, "trial_type": "single-stim", "stimulus": "<p id=\"stim\">7</p>", "internal_node_id": "0.0-148.0-3.0", "time_elapsed": 970626, "key_press": -1, "trial_index": 205}, "uniqueid": "MTK3202:3IRIK4HM3BRJO727N3850XWXVBGC6U", "dateTime": 1520126396722}, {"current_trial": 206, "trialdata": {"rt": -1, "trial_type": "single-stim", "stimulus": "<p id=\"stim\">6</p>", "internal_node_id": "0.0-148.0-4.0", "time_elapsed": 971627, "key_press": -1, "trial_index": 206}, "uniqueid": "MTK3202:3IRIK4HM3BRJO727N3850XWXVBGC6U", "dateTime": 1520126397723}, {"current_trial": 207, "trialdata": {"rt": -1, "trial_type": "single-stim", "stimulus": "<p id=\"stim\">5</p>", "internal_node_id": "0.0-148.0-5.0", "time_elapsed": 972628, "key_press": -1, "trial_index": 207}, "uniqueid": "MTK3202:3IRIK4HM3BRJO727N3850XWXVBGC6U", "dateTime": 1520126398724}, {"current_trial": 208, "trialdata": {"rt": -1, "trial_type": "single-stim", "stimulus": "<p id=\"stim\">4</p>", "internal_node_id": "0.0-148.0-6.0", "time_elapsed": 973630, "key_press": -1, "trial_index": 208}, "uniqueid": "MTK3202:3IRIK4HM3BRJO727N3850XWXVBGC6U", "dateTime": 1520126399726}, {"current_trial": 209, "trialdata": {"rt": -1, "trial_type": "single-stim", "stimulus": "<p id=\"stim\">3</p>", "internal_node_id": "0.0-148.0-7.0", "time_elapsed": 974631, "key_press": -1, "trial_index": 209}, "uniqueid": "MTK3202:3IRIK4HM3BRJO727N3850XWXVBGC6U", "dateTime": 1520126400727}, {"current_trial": 210, "trialdata": {"rt": -1, "trial_type": "single-stim", "stimulus": "<p id=\"stim\">2</p>", "internal_node_id": "0.0-148.0-8.0", "time_elapsed": 975631, "key_press": -1, "trial_index": 210}, "uniqueid": "MTK3202:3IRIK4HM3BRJO727N3850XWXVBGC6U", "dateTime": 1520126401727}, {"current_trial": 211, "trialdata": {"rt": -1, "trial_type": "single-stim", "stimulus": "<p id=\"stim\">1</p>", "internal_node_id": "0.0-148.0-9.0", "time_elapsed": 976632, "key_press": -1, "trial_index": 211}, "uniqueid": "MTK3202:3IRIK4HM3BRJO727N3850XWXVBGC6U", "dateTime": 1520126402728}, {"current_trial": 212, "trialdata": {"rt": -1, "trial_type": "single-stim", "stimulus": "<p id=\"stim\">+</p>", "internal_node_id": "0.0-149.0-0.0", "time_elapsed": 978133, "key_press": -1, "type": "FIXATION", "trial_index": 212}, "uniqueid": "MTK3202:3IRIK4HM3BRJO727N3850XWXVBGC6U", "dateTime": 1520126404229}, {"current_trial": 213, "trialdata": {"rt": -1, "trial_type": "single-stim", "word": "lunch", "stimulus": "<p id=\"stim\">LUNCH</p>", "conditions": [24, 800, "v", 12000], "internal_node_id": "0.0-150.0", "trial": 6, "time_elapsed": 978934, "serialpos": 0, "key_press": -1, "wordID": 848, "type": "PRES_VIS", "trial_index": 213}, "uniqueid": "MTK3202:3IRIK4HM3BRJO727N3850XWXVBGC6U", "dateTime": 1520126405030}, {"current_trial": 214, "trialdata": {"rt": -1, "trial_type": "single-stim", "word": "actor", "stimulus": "<p id=\"stim\">ACTOR</p>", "conditions": [24, 800, "v", 12000], "internal_node_id": "0.0-151.0", "trial": 6, "time_elapsed": 980684, "serialpos": 1, "key_press": -1, "wordID": 4, "type": "PRES_VIS", "trial_index": 214}, "uniqueid": "MTK3202:3IRIK4HM3BRJO727N3850XWXVBGC6U", "dateTime": 1520126406780}, {"current_trial": 215, "trialdata": {"rt": -1, "trial_type": "single-stim", "word": "mister", "stimulus": "<p id=\"stim\">MISTER</p>", "conditions": [24, 800, "v", 12000], "internal_node_id": "0.0-152.0", "trial": 6, "time_elapsed": 982588, "serialpos": 2, "key_press": -1, "wordID": 900, "type": "PRES_VIS", "trial_index": 215}, "uniqueid": "MTK3202:3IRIK4HM3BRJO727N3850XWXVBGC6U", "dateTime": 1520126408684}, {"current_trial": 216, "trialdata": {"rt": -1, "trial_type": "single-stim", "word": "bacon", "stimulus": "<p id=\"stim\">BACON</p>", "conditions": [24, 800, "v", 12000], "internal_node_id": "0.0-153.0", "trial": 6, "time_elapsed": 984306, "serialpos": 3, "key_press": -1, "wordID": 66, "type": "PRES_VIS", "trial_index": 216}, "uniqueid": "MTK3202:3IRIK4HM3BRJO727N3850XWXVBGC6U", "dateTime": 1520126410402}, {"current_trial": 217, "trialdata": {"rt": -1, "trial_type": "single-stim", "word": "bubble", "stimulus": "<p id=\"stim\">BUBBLE</p>", "conditions": [24, 800, "v", 12000], "internal_node_id": "0.0-154.0", "trial": 6, "time_elapsed": 986288, "serialpos": 4, "key_press": -1, "wordID": 182, "type": "PRES_VIS", "trial_index": 217}, "uniqueid": "MTK3202:3IRIK4HM3BRJO727N3850XWXVBGC6U", "dateTime": 1520126412384}, {"current_trial": 218, "trialdata": {"rt": -1, "trial_type": "single-stim", "word": "rod", "stimulus": "<p id=\"stim\">ROD</p>", "conditions": [24, 800, "v", 12000], "internal_node_id": "0.0-155.0", "trial": 6, "time_elapsed": 987971, "serialpos": 5, "key_press": -1, "wordID": 1202, "type": "PRES_VIS", "trial_index": 218}, "uniqueid": "MTK3202:3IRIK4HM3BRJO727N3850XWXVBGC6U", "dateTime": 1520126414067}, {"current_trial": 219, "trialdata": {"rt": -1, "trial_type": "single-stim", "word": "spool", "stimulus": "<p id=\"stim\">SPOOL</p>", "conditions": [24, 800, "v", 12000], "internal_node_id": "0.0-156.0", "trial": 6, "time_elapsed": 989856, "serialpos": 6, "key_press": -1, "wordID": 1355, "type": "PRES_VIS", "trial_index": 219}, "uniqueid": "MTK3202:3IRIK4HM3BRJO727N3850XWXVBGC6U", "dateTime": 1520126415952}, {"current_trial": 220, "trialdata": {"rt": -1, "trial_type": "single-stim", "word": "creature", "stimulus": "<p id=\"stim\">CREATURE</p>", "conditions": [24, 800, "v", 12000], "internal_node_id": "0.0-157.0", "trial": 6, "time_elapsed": 991468, "serialpos": 7, "key_press": -1, "wordID": 402, "type": "PRES_VIS", "trial_index": 220}, "uniqueid": "MTK3202:3IRIK4HM3BRJO727N3850XWXVBGC6U", "dateTime": 1520126417564}, {"current_trial": 221, "trialdata": {"rt": -1, "trial_type": "single-stim", "word": "champagne", "stimulus": "<p id=\"stim\">CHAMPAGNE</p>", "conditions": [24, 800, "v", 12000], "internal_node_id": "0.0-158.0", "trial": 6, "time_elapsed": 993148, "serialpos": 8, "key_press": -1, "wordID": 277, "type": "PRES_VIS", "trial_index": 221}, "uniqueid": "MTK3202:3IRIK4HM3BRJO727N3850XWXVBGC6U", "dateTime": 1520126419244}, {"current_trial": 222, "trialdata": {"rt": -1, "trial_type": "single-stim", "word": "cod", "stimulus": "<p id=\"stim\">COD</p>", "conditions": [24, 800, "v", 12000], "internal_node_id": "0.0-159.0", "trial": 6, "time_elapsed": 995112, "serialpos": 9, "key_press": -1, "wordID": 339, "type": "PRES_VIS", "trial_index": 222}, "uniqueid": "MTK3202:3IRIK4HM3BRJO727N3850XWXVBGC6U", "dateTime": 1520126421208}, {"current_trial": 223, "trialdata": {"rt": -1, "trial_type": "single-stim", "word": "tortoise", "stimulus": "<p id=\"stim\">TORTOISE</p>", "conditions": [24, 800, "v", 12000], "internal_node_id": "0.0-160.0", "trial": 6, "time_elapsed": 996964, "serialpos": 10, "key_press": -1, "wordID": 1485, "type": "PRES_VIS", "trial_index": 223}, "uniqueid": "MTK3202:3IRIK4HM3BRJO727N3850XWXVBGC6U", "dateTime": 1520126423060}, {"current_trial": 224, "trialdata": {"rt": -1, "trial_type": "single-stim", "word": "mammal", "stimulus": "<p id=\"stim\">MAMMAL</p>", "conditions": [24, 800, "v", 12000], "internal_node_id": "0.0-161.0", "trial": 6, "time_elapsed": 998656, "serialpos": 11, "key_press": -1, "wordID": 860, "type": "PRES_VIS", "trial_index": 224}, "uniqueid": "MTK3202:3IRIK4HM3BRJO727N3850XWXVBGC6U", "dateTime": 1520126424753}, {"current_trial": 225, "trialdata": {"rt": -1, "trial_type": "single-stim", "word": "suitcase", "stimulus": "<p id=\"stim\">SUITCASE</p>", "conditions": [24, 800, "v", 12000], "internal_node_id": "0.0-162.0", "trial": 6, "time_elapsed": 1000295, "serialpos": 12, "key_press": -1, "wordID": 1402, "type": "PRES_VIS", "trial_index": 225}, "uniqueid": "MTK3202:3IRIK4HM3BRJO727N3850XWXVBGC6U", "dateTime": 1520126426392}, {"current_trial": 226, "trialdata": {"rt": -1, "trial_type": "single-stim", "word": "dress", "stimulus": "<p id=\"stim\">DRESS</p>", "conditions": [24, 800, "v", 12000], "internal_node_id": "0.0-163.0", "trial": 6, "time_elapsed": 1001904, "serialpos": 13, "key_press": -1, "wordID": 494, "type": "PRES_VIS", "trial_index": 226}, "uniqueid": "MTK3202:3IRIK4HM3BRJO727N3850XWXVBGC6U", "dateTime": 1520126428000}, {"current_trial": 227, "trialdata": {"rt": -1, "trial_type": "single-stim", "word": "snack", "stimulus": "<p id=\"stim\">SNACK</p>", "conditions": [24, 800, "v", 12000], "internal_node_id": "0.0-164.0", "trial": 6, "time_elapsed": 1003857, "serialpos": 14, "key_press": -1, "wordID": 1330, "type": "PRES_VIS", "trial_index": 227}, "uniqueid": "MTK3202:3IRIK4HM3BRJO727N3850XWXVBGC6U", "dateTime": 1520126429953}, {"current_trial": 228, "trialdata": {"rt": -1, "trial_type": "single-stim", "word": "clothes", "stimulus": "<p id=\"stim\">CLOTHES</p>", "conditions": [24, 800, "v", 12000], "internal_node_id": "0.0-165.0", "trial": 6, "time_elapsed": 1005784, "serialpos": 15, "key_press": -1, "wordID": 326, "type": "PRES_VIS", "trial_index": 228}, "uniqueid": "MTK3202:3IRIK4HM3BRJO727N3850XWXVBGC6U", "dateTime": 1520126431880}, {"current_trial": 229, "trialdata": {"rt": -1, "trial_type": "single-stim", "word": "bunny", "stimulus": "<p id=\"stim\">BUNNY</p>", "conditions": [24, 800, "v", 12000], "internal_node_id": "0.0-166.0", "trial": 6, "time_elapsed": 1007402, "serialpos": 16, "key_press": -1, "wordID": 197, "type": "PRES_VIS", "trial_index": 229}, "uniqueid": "MTK3202:3IRIK4HM3BRJO727N3850XWXVBGC6U", "dateTime": 1520126433498}, {"current_trial": 230, "trialdata": {"rt": -1, "trial_type": "single-stim", "word": "piano", "stimulus": "<p id=\"stim\">PIANO</p>", "conditions": [24, 800, "v", 12000], "internal_node_id": "0.0-167.0", "trial": 6, "time_elapsed": 1009094, "serialpos": 17, "key_press": -1, "wordID": 1056, "type": "PRES_VIS", "trial_index": 230}, "uniqueid": "MTK3202:3IRIK4HM3BRJO727N3850XWXVBGC6U", "dateTime": 1520126435190}, {"current_trial": 231, "trialdata": {"rt": -1, "trial_type": "single-stim", "word": "london", "stimulus": "<p id=\"stim\">LONDON</p>", "conditions": [24, 800, "v", 12000], "internal_node_id": "0.0-168.0", "trial": 6, "time_elapsed": 1010793, "serialpos": 18, "key_press": -1, "wordID": 842, "type": "PRES_VIS", "trial_index": 231}, "uniqueid": "MTK3202:3IRIK4HM3BRJO727N3850XWXVBGC6U", "dateTime": 1520126436889}, {"current_trial": 232, "trialdata": {"rt": -1, "trial_type": "single-stim", "word": "briefcase", "stimulus": "<p id=\"stim\">BRIEFCASE</p>", "conditions": [24, 800, "v", 12000], "internal_node_id": "0.0-169.0", "trial": 6, "time_elapsed": 1012772, "serialpos": 19, "key_press": -1, "wordID": 174, "type": "PRES_VIS", "trial_index": 232}, "uniqueid": "MTK3202:3IRIK4HM3BRJO727N3850XWXVBGC6U", "dateTime": 1520126438868}, {"current_trial": 233, "trialdata": {"rt": -1, "trial_type": "single-stim", "word": "dolphin", "stimulus": "<p id=\"stim\">DOLPHIN</p>", "conditions": [24, 800, "v", 12000], "internal_node_id": "0.0-170.0", "trial": 6, "time_elapsed": 1014604, "serialpos": 20, "key_press": -1, "wordID": 482, "type": "PRES_VIS", "trial_index": 233}, "uniqueid": "MTK3202:3IRIK4HM3BRJO727N3850XWXVBGC6U", "dateTime": 1520126440700}, {"current_trial": 234, "trialdata": {"rt": -1, "trial_type": "single-stim", "word": "shark", "stimulus": "<p id=\"stim\">SHARK</p>", "conditions": [24, 800, "v", 12000], "internal_node_id": "0.0-171.0", "trial": 6, "time_elapsed": 1016536, "serialpos": 21, "key_press": -1, "wordID": 1274, "type": "PRES_VIS", "trial_index": 234}, "uniqueid": "MTK3202:3IRIK4HM3BRJO727N3850XWXVBGC6U", "dateTime": 1520126442632}, {"current_trial": 235, "trialdata": {"rt": -1, "trial_type": "single-stim", "word": "doughnut", "stimulus": "<p id=\"stim\">DOUGHNUT</p>", "conditions": [24, 800, "v", 12000], "internal_node_id": "0.0-172.0", "trial": 6, "time_elapsed": 1018216, "serialpos": 22, "key_press": -1, "wordID": 489, "type": "PRES_VIS", "trial_index": 235}, "uniqueid": "MTK3202:3IRIK4HM3BRJO727N3850XWXVBGC6U", "dateTime": 1520126444312}, {"current_trial": 236, "trialdata": {"rt": -1, "trial_type": "single-stim", "word": "truck", "stimulus": "<p id=\"stim\">TRUCK</p>", "conditions": [24, 800, "v", 12000], "internal_node_id": "0.0-173.0", "trial": 6, "time_elapsed": 1019953, "serialpos": 23, "key_press": -1, "wordID": 1511, "type": "PRES_VIS", "trial_index": 236}, "uniqueid": "MTK3202:3IRIK4HM3BRJO727N3850XWXVBGC6U", "dateTime": 1520126446050}, {"current_trial": 237, "trialdata": {"rt": -1, "trial_type": "single-stim", "stimulus": "", "internal_node_id": "0.0-174.0-0.0", "time_elapsed": 1022371, "key_press": -1, "type": "PRE_RECALL_DELAY", "trial_index": 237}, "uniqueid": "MTK3202:3IRIK4HM3BRJO727N3850XWXVBGC6U", "dateTime": 1520126448467}, {"current_trial": 238, "trialdata": {"rt": -1000, "trial_type": "single-audio", "stimulus": "/static/audio/400Hz.wav", "internal_node_id": "0.0-175.0", "time_elapsed": 1022872, "key_press": -1, "type": "PRE_RECALL_ALERT", "trial_index": 238}, "uniqueid": "MTK3202:3IRIK4HM3BRJO727N3850XWXVBGC6U", "dateTime": 1520126448968}, {"current_trial": 239, "trialdata": {"rt": [3065, 3977, 5015, 7126, 8950, 11061, 14990, 17869, 21707, 30160, 35699, 38299], "recwords": ["dolphin", "truck", "suitcase", "clothes", "lunch", "briefcase", "shark", "dolphin", "travel", "dress", "mammal", "rabbit"], "key_times": [393, 525, 744, 1278, 1527, 1685, 2097, 2249, 2451, 2602, 2722, 3065, 3192, 3349, 3438, 3579, 3700, 3977, 4101, 4209, 4397, 4426, 4619, 4691, 4785, 4916, 5015, 5814, 5891, 6057, 6148, 6225, 6501, 6822, 6878, 7043, 7126, 7367, 7608, 7870, 8329, 8506, 8623, 8713, 8950, 9163, 9295, 9928, 10013, 10116, 10245, 10357, 10622, 10708, 10800, 10955, 11061, 14293, 14379, 14504, 14567, 14636, 14990, 15121, 15958, 16167, 16341, 16568, 16790, 17224, 17418, 17527, 17869, 20971, 21135, 21224, 21329, 21385, 21486, 21707, 29203, 29485, 29607, 29816, 29973, 30160, 33120, 33259, 33354, 33518, 33612, 33760, 33926, 34567, 35699, 37494, 37616, 37686, 37838, 37929, 38119, 38299], "trial_type": "free-recall", "conditions": [24, 800, "v", 12000], "internal_node_id": "0.0-176.0-0.0", "key_presses": [68, 79, 76, 80, 74, 73, 8, 8, 72, 73, 78, 13, 84, 82, 85, 67, 75, 13, 83, 85, 73, 84, 67, 65, 83, 69, 13, 67, 76, 79, 84, 72, 83, 8, 69, 83, 13, 76, 85, 67, 8, 78, 67, 72, 13, 66, 70, 8, 82, 73, 69, 70, 67, 65, 83, 69, 13, 83, 72, 65, 82, 75, 13, 68, 79, 76, 80, 72, 78, 8, 73, 78, 13, 84, 82, 65, 86, 69, 76, 13, 68, 82, 69, 83, 83, 13, 77, 65, 77, 77, 65, 76, 76, 8, 13, 82, 65, 66, 66, 73, 84, 13], "trial": 6, "time_elapsed": 1082874, "type": "FREE_RECALL", "trial_index": 239}, "uniqueid": "MTK3202:3IRIK4HM3BRJO727N3850XWXVBGC6U", "dateTime": 1520126508973}, {"current_trial": 240, "trialdata": {"rt": 946, "trial_type": "text", "internal_node_id": "0.0-177.0", "time_elapsed": 1085824, "key_press": 32, "type": "INSTRUCTIONS", "trial_index": 240}, "uniqueid": "MTK3202:3IRIK4HM3BRJO727N3850XWXVBGC6U", "dateTime": 1520126511920}, {"current_trial": 241, "trialdata": {"rt": [2797, 5472, 7270, 9109, 11095, 12546, 14567, 16710, 19055, 21551, 23577], "trial_type": "math-distractor", "key_times": [2168, 2797, 5120, 5224, 5472, 6633, 7187, 7270, 8827, 9008, 9109, 10595, 10824, 11095, 12466, 12546, 14403, 14466, 14567, 16282, 16532, 16710, 18836, 18967, 19055, 21157, 21551, 23311, 23473, 23577], "responses": ["6", "18", "14", "12", "17", "6", "15", "23", "13", "9", "12"], "num2": [1, 3, 3, 6, 5, 3, 7, 6, 6, 1, 4, 8], "num3": [3, 6, 2, 1, 7, 1, 1, 9, 2, 6, 1, 8], "conditions": [24, 800, "v", 24000], "internal_node_id": "0.0-178.0", "key_presses": [54, 13, 49, 56, 13, 49, 52, 13, 49, 50, 13, 49, 55, 13, 54, 13, 49, 53, 13, 50, 51, 13, 49, 51, 13, 57, 13, 49, 50, 13], "trial": 7, "time_elapsed": 1111827, "type": "DISTRACTOR", "trial_index": 241, "num1": [2, 9, 8, 5, 5, 2, 7, 8, 5, 2, 7, 4]}, "uniqueid": "MTK3202:3IRIK4HM3BRJO727N3850XWXVBGC6U", "dateTime": 1520126537923}, {"current_trial": 242, "trialdata": {"rt": -1, "trial_type": "single-stim", "stimulus": "<p id=\"stim\">10</p>", "internal_node_id": "0.0-179.0-0.0", "time_elapsed": 1114828, "key_press": -1, "trial_index": 242}, "uniqueid": "MTK3202:3IRIK4HM3BRJO727N3850XWXVBGC6U", "dateTime": 1520126540924}, {"current_trial": 243, "trialdata": {"rt": -1, "trial_type": "single-stim", "stimulus": "<p id=\"stim\">9</p>", "internal_node_id": "0.0-179.0-1.0", "time_elapsed": 1115828, "key_press": -1, "trial_index": 243}, "uniqueid": "MTK3202:3IRIK4HM3BRJO727N3850XWXVBGC6U", "dateTime": 1520126541924}, {"current_trial": 244, "trialdata": {"rt": -1, "trial_type": "single-stim", "stimulus": "<p id=\"stim\">8</p>", "internal_node_id": "0.0-179.0-2.0", "time_elapsed": 1116829, "key_press": -1, "trial_index": 244}, "uniqueid": "MTK3202:3IRIK4HM3BRJO727N3850XWXVBGC6U", "dateTime": 1520126542926}, {"current_trial": 245, "trialdata": {"rt": -1, "trial_type": "single-stim", "stimulus": "<p id=\"stim\">7</p>", "internal_node_id": "0.0-179.0-3.0", "time_elapsed": 1117831, "key_press": -1, "trial_index": 245}, "uniqueid": "MTK3202:3IRIK4HM3BRJO727N3850XWXVBGC6U", "dateTime": 1520126543927}, {"current_trial": 246, "trialdata": {"rt": -1, "trial_type": "single-stim", "stimulus": "<p id=\"stim\">6</p>", "internal_node_id": "0.0-179.0-4.0", "time_elapsed": 1118832, "key_press": -1, "trial_index": 246}, "uniqueid": "MTK3202:3IRIK4HM3BRJO727N3850XWXVBGC6U", "dateTime": 1520126544928}, {"current_trial": 247, "trialdata": {"rt": -1, "trial_type": "single-stim", "stimulus": "<p id=\"stim\">5</p>", "internal_node_id": "0.0-179.0-5.0", "time_elapsed": 1119833, "key_press": -1, "trial_index": 247}, "uniqueid": "MTK3202:3IRIK4HM3BRJO727N3850XWXVBGC6U", "dateTime": 1520126545930}, {"current_trial": 248, "trialdata": {"rt": -1, "trial_type": "single-stim", "stimulus": "<p id=\"stim\">4</p>", "internal_node_id": "0.0-179.0-6.0", "time_elapsed": 1120835, "key_press": -1, "trial_index": 248}, "uniqueid": "MTK3202:3IRIK4HM3BRJO727N3850XWXVBGC6U", "dateTime": 1520126546931}, {"current_trial": 249, "trialdata": {"rt": -1, "trial_type": "single-stim", "stimulus": "<p id=\"stim\">3</p>", "internal_node_id": "0.0-179.0-7.0", "time_elapsed": 1121835, "key_press": -1, "trial_index": 249}, "uniqueid": "MTK3202:3IRIK4HM3BRJO727N3850XWXVBGC6U", "dateTime": 1520126547931}, {"current_trial": 250, "trialdata": {"rt": -1, "trial_type": "single-stim", "stimulus": "<p i