{"assignmentId": "3UNH76FOCTCYGDO46BXBMKL2PNJYMH", "workerId": "MTK3605", "questiondata": {"origin": "United States", "strat-rehearsal": "56", "marital": "Married/Domestic Partnership", "education": "Bachelor's degree", "ethnicity": "Not Hispanic", "color_depth": 24, "distracted": "No", "wrote-notes": "No", "strat-other": "", "screen_width": 1440, "avail_screen_width": 1440, "avail_screen_height": 807, "strat-image": "68", "language": "English", "gender": "Female", "age": "32", "gender_other": "", "race": ["White"], "strat-categorize": "76", "pixel_depth": 24, "strat-spatial": "32", "strat-story": "45", "race_other": "", "screen_height": 900}, "bonus": 0, "hitId": "378G7J1SJL5US03XKAM2ZVZTK0UEWP", "counterbalance": 1635, "useragent": "Mozilla/5.0 (Macintosh; Intel Mac OS X 10_13_3) AppleWebKit/537.36 (KHTML, like Gecko) Chrome/64.0.3282.186 Safari/537.36", "eventdata": [{"eventtype": "initialized", "interval": 0, "value": null, "timestamp": 1520802032676}, {"eventtype": "window_resize", "interval": 0, "value": [1440, 756], "timestamp": 1520802032676}, {"eventtype": "focus", "interval": 1152221, "value": "off", "timestamp": 1520803184897}, {"eventtype": "focus", "interval": 436459, "value": "on", "timestamp": 1520803621356}, {"eventtype": "focus", "interval": 284288, "value": "off", "timestamp": 1520803905644}, {"eventtype": "focus", "interval": 111725, "value": "on", "timestamp": 1520804017369}, {"eventtype": "focus", "interval": 553979, "value": "off", "timestamp": 1520804571348}, {"eventtype": "focus", "interval": 141015, "value": "on", "timestamp": 1520804712363}], "data": [{"current_trial": 0, "trialdata": {"rt": 16414, "trial_type": "text", "internal_node_id": "0.0-0.0", "time_elapsed": 16416, "key_press": 69, "type": "INSTRUCTIONS", "trial_index": 0}, "uniqueid": "MTK3605:3UNH76FOCTCYGDO46BXBMKL2PNJYMH", "dateTime": 1520802049711}, {"current_trial": 1, "trialdata": {"rt": 47543, "trial_type": "text", "internal_node_id": "0.0-1.0", "time_elapsed": 63961, "key_press": 69, "type": "INSTRUCTIONS", "trial_index": 1}, "uniqueid": "MTK3605:3UNH76FOCTCYGDO46BXBMKL2PNJYMH", "dateTime": 1520802097255}, {"current_trial": 2, "trialdata": {"rt": [24407], "trial_type": "audio-test", "responses": ["ocean"], "internal_node_id": "0.0-2.0", "time_elapsed": 88375, "type": "AUDIO_TEST", "trial_index": 2}, "uniqueid": "MTK3605:3UNH76FOCTCYGDO46BXBMKL2PNJYMH", "dateTime": 1520802121669}, {"current_trial": 3, "trialdata": {"rt": [4673], "trial_type": "audio-test", "responses": ["crystal"], "internal_node_id": "0.0-3.0", "time_elapsed": 93052, "type": "AUDIO_TEST", "trial_index": 3}, "uniqueid": "MTK3605:3UNH76FOCTCYGDO46BXBMKL2PNJYMH", "dateTime": 1520802126346}, {"current_trial": 4, "trialdata": {"rt": [4054], "trial_type": "audio-test", "responses": ["spice"], "internal_node_id": "0.0-4.0", "time_elapsed": 97111, "type": "AUDIO_TEST", "trial_index": 4}, "uniqueid": "MTK3605:3UNH76FOCTCYGDO46BXBMKL2PNJYMH", "dateTime": 1520802130405}, {"current_trial": 5, "trialdata": {"rt": 25965, "trial_type": "survey-text", "responses": "{\"Q0\":\"1:00\",\"Q1\":\"12:45\",\"Q2\":\"4\"}", "internal_node_id": "0.0-5.0", "time_elapsed": 123828, "type": "SLEEP_SURVEY", "trial_index": 5}, "uniqueid": "MTK3605:3UNH76FOCTCYGDO46BXBMKL2PNJYMH", "dateTime": 1520802157122}, {"current_trial": 6, "trialdata": {"rt": 32749, "trial_type": "text", "internal_node_id": "0.0-6.0", "time_elapsed": 157583, "key_press": 32, "type": "INSTRUCTIONS", "trial_index": 6}, "uniqueid": "MTK3605:3UNH76FOCTCYGDO46BXBMKL2PNJYMH", "dateTime": 1520802190878}, {"current_trial": 7, "trialdata": {"rt": 72850, "trial_type": "text", "internal_node_id": "0.0-7.0", "time_elapsed": 230939, "key_press": 75, "type": "INSTRUCTIONS", "trial_index": 7}, "uniqueid": "MTK3605:3UNH76FOCTCYGDO46BXBMKL2PNJYMH", "dateTime": 1520802264233}, {"current_trial": 8, "trialdata": {"rt": 25665, "trial_type": "text", "internal_node_id": "0.0-8.0", "time_elapsed": 257106, "key_press": 74, "type": "INSTRUCTIONS", "trial_index": 8}, "uniqueid": "MTK3605:3UNH76FOCTCYGDO46BXBMKL2PNJYMH", "dateTime": 1520802290400}, {"current_trial": 9, "trialdata": {"rt": [2804, 4631, 7181, 9100, 13996, 15684], "trial_type": "math-distractor", "key_times": [2151, 2222, 2804, 4417, 4631, 6507, 6674, 7181, 8807, 8870, 9100, 11575, 11815, 13996, 15399, 15556, 15684], "responses": ["12", "9", "18", "12", "16", "15"], "num2": [3, 1, 8, 3, 4, 4, 4], "num3": [8, 1, 3, 2, 5, 3, 6], "conditions": [18, 1200, "v", 18000], "internal_node_id": "0.0-9.0", "key_presses": [49, 50, 13, 57, 13, 49, 56, 13, 49, 50, 13, 49, 54, 13, 49, 53, 13], "trial": 0, "time_elapsed": 276116, "type": "DISTRACTOR", "trial_index": 9, "num1": [1, 7, 7, 7, 7, 8, 4]}, "uniqueid": "MTK3605:3UNH76FOCTCYGDO46BXBMKL2PNJYMH", "dateTime": 1520802309410}, {"current_trial": 10, "trialdata": {"rt": -1, "trial_type": "single-stim", "stimulus": "<p id=\"stim\">10</p>", "internal_node_id": "0.0-10.0-0.0", "time_elapsed": 279122, "key_press": -1, "trial_index": 10}, "uniqueid": "MTK3605:3UNH76FOCTCYGDO46BXBMKL2PNJYMH", "dateTime": 1520802312416}, {"current_trial": 11, "trialdata": {"rt": -1, "trial_type": "single-stim", "stimulus": "<p id=\"stim\">9</p>", "internal_node_id": "0.0-10.0-1.0", "time_elapsed": 280125, "key_press": -1, "trial_index": 11}, "uniqueid": "MTK3605:3UNH76FOCTCYGDO46BXBMKL2PNJYMH", "dateTime": 1520802313420}, {"current_trial": 12, "trialdata": {"rt": -1, "trial_type": "single-stim", "stimulus": "<p id=\"stim\">8</p>", "internal_node_id": "0.0-10.0-2.0", "time_elapsed": 281132, "key_press": -1, "trial_index": 12}, "uniqueid": "MTK3605:3UNH76FOCTCYGDO46BXBMKL2PNJYMH", "dateTime": 1520802314426}, {"current_trial": 13, "trialdata": {"rt": -1, "trial_type": "single-stim", "stimulus": "<p id=\"stim\">7</p>", "internal_node_id": "0.0-10.0-3.0", "time_elapsed": 282134, "key_press": -1, "trial_index": 13}, "uniqueid": "MTK3605:3UNH76FOCTCYGDO46BXBMKL2PNJYMH", "dateTime": 1520802315428}, {"current_trial": 14, "trialdata": {"rt": -1, "trial_type": "single-stim", "stimulus": "<p id=\"stim\">6</p>", "internal_node_id": "0.0-10.0-4.0", "time_elapsed": 283139, "key_press": -1, "trial_index": 14}, "uniqueid": "MTK3605:3UNH76FOCTCYGDO46BXBMKL2PNJYMH", "dateTime": 1520802316433}, {"current_trial": 15, "trialdata": {"rt": -1, "trial_type": "single-stim", "stimulus": "<p id=\"stim\">5</p>", "internal_node_id": "0.0-10.0-5.0", "time_elapsed": 284142, "key_press": -1, "trial_index": 15}, "uniqueid": "MTK3605:3UNH76FOCTCYGDO46BXBMKL2PNJYMH", "dateTime": 1520802317436}, {"current_trial": 16, "trialdata": {"rt": -1, "trial_type": "single-stim", "stimulus": "<p id=\"stim\">4</p>", "internal_node_id": "0.0-10.0-6.0", "time_elapsed": 285146, "key_press": -1, "trial_index": 16}, "uniqueid": "MTK3605:3UNH76FOCTCYGDO46BXBMKL2PNJYMH", "dateTime": 1520802318441}, {"current_trial": 17, "trialdata": {"rt": -1, "trial_type": "single-stim", "stimulus": "<p id=\"stim\">3</p>", "internal_node_id": "0.0-10.0-7.0", "time_elapsed": 286150, "key_press": -1, "trial_index": 17}, "uniqueid": "MTK3605:3UNH76FOCTCYGDO46BXBMKL2PNJYMH", "dateTime": 1520802319444}, {"current_trial": 18, "trialdata": {"rt": -1, "trial_type": "single-stim", "stimulus": "<p id=\"stim\">2</p>", "internal_node_id": "0.0-10.0-8.0", "time_elapsed": 287155, "key_press": -1, "trial_index": 18}, "uniqueid": "MTK3605:3UNH76FOCTCYGDO46BXBMKL2PNJYMH", "dateTime": 1520802320449}, {"current_trial": 19, "trialdata": {"rt": -1, "trial_type": "single-stim", "stimulus": "<p id=\"stim\">1</p>", "internal_node_id": "0.0-10.0-9.0", "time_elapsed": 288159, "key_press": -1, "trial_index": 19}, "uniqueid": "MTK3605:3UNH76FOCTCYGDO46BXBMKL2PNJYMH", "dateTime": 1520802321453}, {"current_trial": 20, "trialdata": {"rt": -1, "trial_type": "single-stim", "stimulus": "<p id=\"stim\">+</p>", "internal_node_id": "0.0-11.0-0.0", "time_elapsed": 289661, "key_press": -1, "type": "FIXATION", "trial_index": 20}, "uniqueid": "MTK3605:3UNH76FOCTCYGDO46BXBMKL2PNJYMH", "dateTime": 1520802322956}, {"current_trial": 21, "trialdata": {"rt": -1, "trial_type": "single-stim", "word": "machine", "stimulus": "<p id=\"stim\">MACHINE</p>", "conditions": [18, 1200, "v", 18000], "internal_node_id": "0.0-12.0", "trial": 0, "time_elapsed": 290863, "serialpos": 0, "key_press": -1, "wordID": 851, "type": "PRES_VIS", "trial_index": 21}, "uniqueid": "MTK3605:3UNH76FOCTCYGDO46BXBMKL2PNJYMH", "dateTime": 1520802324157}, {"current_trial": 22, "trialdata": {"rt": -1, "trial_type": "single-stim", "word": "brick", "stimulus": "<p id=\"stim\">BRICK</p>", "conditions": [18, 1200, "v", 18000], "internal_node_id": "0.0-13.0", "trial": 0, "time_elapsed": 293127, "serialpos": 1, "key_press": -1, "wordID": 171, "type": "PRES_VIS", "trial_index": 22}, "uniqueid": "MTK3605:3UNH76FOCTCYGDO46BXBMKL2PNJYMH", "dateTime": 1520802326421}, {"current_trial": 23, "trialdata": {"rt": -1, "trial_type": "single-stim", "word": "whistle", "stimulus": "<p id=\"stim\">WHISTLE</p>", "conditions": [18, 1200, "v", 18000], "internal_node_id": "0.0-14.0", "trial": 0, "time_elapsed": 295153, "serialpos": 2, "key_press": -1, "wordID": 1605, "type": "PRES_VIS", "trial_index": 23}, "uniqueid": "MTK3605:3UNH76FOCTCYGDO46BXBMKL2PNJYMH", "dateTime": 1520802328447}, {"current_trial": 24, "trialdata": {"rt": -1, "trial_type": "single-stim", "word": "wrist", "stimulus": "<p id=\"stim\">WRIST</p>", "conditions": [18, 1200, "v", 18000], "internal_node_id": "0.0-15.0", "trial": 0, "time_elapsed": 297532, "serialpos": 3, "key_press": -1, "wordID": 1625, "type": "PRES_VIS", "trial_index": 24}, "uniqueid": "MTK3605:3UNH76FOCTCYGDO46BXBMKL2PNJYMH", "dateTime": 1520802330826}, {"current_trial": 25, "trialdata": {"rt": -1, "trial_type": "single-stim", "word": "pecan", "stimulus": "<p id=\"stim\">PECAN</p>", "conditions": [18, 1200, "v", 18000], "internal_node_id": "0.0-16.0", "trial": 0, "time_elapsed": 299540, "serialpos": 4, "key_press": -1, "wordID": 1035, "type": "PRES_VIS", "trial_index": 25}, "uniqueid": "MTK3605:3UNH76FOCTCYGDO46BXBMKL2PNJYMH", "dateTime": 1520802332834}, {"current_trial": 26, "trialdata": {"rt": -1, "trial_type": "single-stim", "word": "fiddle", "stimulus": "<p id=\"stim\">FIDDLE</p>", "conditions": [18, 1200, "v", 18000], "internal_node_id": "0.0-17.0", "trial": 0, "time_elapsed": 301886, "serialpos": 5, "key_press": -1, "wordID": 560, "type": "PRES_VIS", "trial_index": 26}, "uniqueid": "MTK3605:3UNH76FOCTCYGDO46BXBMKL2PNJYMH", "dateTime": 1520802335180}, {"current_trial": 27, "trialdata": {"rt": -1, "trial_type": "single-stim", "word": "trout", "stimulus": "<p id=\"stim\">TROUT</p>", "conditions": [18, 1200, "v", 18000], "internal_node_id": "0.0-18.0", "trial": 0, "time_elapsed": 304271, "serialpos": 6, "key_press": -1, "wordID": 1510, "type": "PRES_VIS", "trial_index": 27}, "uniqueid": "MTK3605:3UNH76FOCTCYGDO46BXBMKL2PNJYMH", "dateTime": 1520802337565}, {"current_trial": 28, "trialdata": {"rt": -1, "trial_type": "single-stim", "word": "plate", "stimulus": "<p id=\"stim\">PLATE</p>", "conditions": [18, 1200, "v", 18000], "internal_node_id": "0.0-19.0", "trial": 0, "time_elapsed": 306551, "serialpos": 7, "key_press": -1, "wordID": 1085, "type": "PRES_VIS", "trial_index": 28}, "uniqueid": "MTK3605:3UNH76FOCTCYGDO46BXBMKL2PNJYMH", "dateTime": 1520802339845}, {"current_trial": 29, "trialdata": {"rt": -1, "trial_type": "single-stim", "word": "seal", "stimulus": "<p id=\"stim\">SEAL</p>", "conditions": [18, 1200, "v", 18000], "internal_node_id": "0.0-20.0", "trial": 0, "time_elapsed": 308828, "serialpos": 8, "key_press": -1, "wordID": 1261, "type": "PRES_VIS", "trial_index": 29}, "uniqueid": "MTK3605:3UNH76FOCTCYGDO46BXBMKL2PNJYMH", "dateTime": 1520802342122}, {"current_trial": 30, "trialdata": {"rt": -1, "trial_type": "single-stim", "word": "plaster", "stimulus": "<p id=\"stim\">PLASTER</p>", "conditions": [18, 1200, "v", 18000], "internal_node_id": "0.0-21.0", "trial": 0, "time_elapsed": 311019, "serialpos": 9, "key_press": -1, "wordID": 1084, "type": "PRES_VIS", "trial_index": 30}, "uniqueid": "MTK3605:3UNH76FOCTCYGDO46BXBMKL2PNJYMH", "dateTime": 1520802344313}, {"current_trial": 31, "trialdata": {"rt": -1, "trial_type": "single-stim", "word": "leader", "stimulus": "<p id=\"stim\">LEADER</p>", "conditions": [18, 1200, "v", 18000], "internal_node_id": "0.0-22.0", "trial": 0, "time_elapsed": 313098, "serialpos": 10, "key_press": -1, "wordID": 806, "type": "PRES_VIS", "trial_index": 31}, "uniqueid": "MTK3605:3UNH76FOCTCYGDO46BXBMKL2PNJYMH", "dateTime": 1520802346392}, {"current_trial": 32, "trialdata": {"rt": -1, "trial_type": "single-stim", "word": "daisy", "stimulus": "<p id=\"stim\">DAISY</p>", "conditions": [18, 1200, "v", 18000], "internal_node_id": "0.0-23.0", "trial": 0, "time_elapsed": 315356, "serialpos": 11, "key_press": -1, "wordID": 434, "type": "PRES_VIS", "trial_index": 32}, "uniqueid": "MTK3605:3UNH76FOCTCYGDO46BXBMKL2PNJYMH", "dateTime": 1520802348650}, {"current_trial": 33, "trialdata": {"rt": -1, "trial_type": "single-stim", "word": "loft", "stimulus": "<p id=\"stim\">LOFT</p>", "conditions": [18, 1200, "v", 18000], "internal_node_id": "0.0-24.0", "trial": 0, "time_elapsed": 317486, "serialpos": 12, "key_press": -1, "wordID": 839, "type": "PRES_VIS", "trial_index": 33}, "uniqueid": "MTK3605:3UNH76FOCTCYGDO46BXBMKL2PNJYMH", "dateTime": 1520802350780}, {"current_trial": 34, "trialdata": {"rt": -1, "trial_type": "single-stim", "word": "rattle", "stimulus": "<p id=\"stim\">RATTLE</p>", "conditions": [18, 1200, "v", 18000], "internal_node_id": "0.0-25.0", "trial": 0, "time_elapsed": 319515, "serialpos": 13, "key_press": -1, "wordID": 1169, "type": "PRES_VIS", "trial_index": 34}, "uniqueid": "MTK3605:3UNH76FOCTCYGDO46BXBMKL2PNJYMH", "dateTime": 1520802352809}, {"current_trial": 35, "trialdata": {"rt": -1, "trial_type": "single-stim", "word": "ankle", "stimulus": "<p id=\"stim\">ANKLE</p>", "conditions": [18, 1200, "v", 18000], "internal_node_id": "0.0-26.0", "trial": 0, "time_elapsed": 321763, "serialpos": 14, "key_press": -1, "wordID": 23, "type": "PRES_VIS", "trial_index": 35}, "uniqueid": "MTK3605:3UNH76FOCTCYGDO46BXBMKL2PNJYMH", "dateTime": 1520802355058}, {"current_trial": 36, "trialdata": {"rt": -1, "trial_type": "single-stim", "word": "scallop", "stimulus": "<p id=\"stim\">SCALLOP</p>", "conditions": [18, 1200, "v", 18000], "internal_node_id": "0.0-27.0", "trial": 0, "time_elapsed": 323947, "serialpos": 15, "key_press": -1, "wordID": 1241, "type": "PRES_VIS", "trial_index": 36}, "uniqueid": "MTK3605:3UNH76FOCTCYGDO46BXBMKL2PNJYMH", "dateTime": 1520802357241}, {"current_trial": 37, "trialdata": {"rt": -1, "trial_type": "single-stim", "word": "blender", "stimulus": "<p id=\"stim\">BLENDER</p>", "conditions": [18, 1200, "v", 18000], "internal_node_id": "0.0-28.0", "trial": 0, "time_elapsed": 326176, "serialpos": 16, "key_press": -1, "wordID": 135, "type": "PRES_VIS", "trial_index": 37}, "uniqueid": "MTK3605:3UNH76FOCTCYGDO46BXBMKL2PNJYMH", "dateTime": 1520802359470}, {"current_trial": 38, "trialdata": {"rt": -1, "trial_type": "single-stim", "word": "salad", "stimulus": "<p id=\"stim\">SALAD</p>", "conditions": [18, 1200, "v", 18000], "internal_node_id": "0.0-29.0", "trial": 0, "time_elapsed": 328340, "serialpos": 17, "key_press": -1, "wordID": 1223, "type": "PRES_VIS", "trial_index": 38}, "uniqueid": "MTK3605:3UNH76FOCTCYGDO46BXBMKL2PNJYMH", "dateTime": 1520802361634}, {"current_trial": 39, "trialdata": {"rt": -1, "trial_type": "single-stim", "stimulus": "", "internal_node_id": "0.0-30.0-0.0", "time_elapsed": 330749, "key_press": -1, "type": "PRE_RECALL_DELAY", "trial_index": 39}, "uniqueid": "MTK3605:3UNH76FOCTCYGDO46BXBMKL2PNJYMH", "dateTime": 1520802364044}, {"current_trial": 40, "trialdata": {"rt": -1000, "trial_type": "single-audio", "stimulus": "/static/audio/400Hz.wav", "internal_node_id": "0.0-31.0", "time_elapsed": 331252, "key_press": -1, "type": "PRE_RECALL_ALERT", "trial_index": 40}, "uniqueid": "MTK3605:3UNH76FOCTCYGDO46BXBMKL2PNJYMH", "dateTime": 1520802364546}, {"current_trial": 41, "trialdata": {"rt": [2441, 4430, 5897, 7635, 10823, 24475], "recwords": ["blender", "salad", "machine", "rattle", "leader", "seal"], "key_times": [616, 781, 833, 1026, 1078, 1245, 1325, 2441, 2641, 3177, 3412, 3575, 3851, 4430, 4773, 4925, 5151, 5266, 5362, 5514, 5678, 5897, 6716, 6848, 7072, 7221, 7398, 7433, 7635, 9988, 10079, 10208, 10382, 10537, 10625, 10823, 23520, 23588, 23752, 23911, 24475], "trial_type": "free-recall", "conditions": [18, 1200, "v", 18000], "internal_node_id": "0.0-32.0-0.0", "key_presses": [66, 76, 69, 78, 68, 69, 82, 32, 83, 65, 76, 65, 68, 32, 77, 65, 67, 72, 73, 78, 69, 32, 82, 65, 84, 84, 76, 69, 32, 76, 69, 65, 68, 69, 82, 32, 83, 69, 65, 76, 32], "trial": 0, "time_elapsed": 391257, "type": "FREE_RECALL", "trial_index": 41}, "uniqueid": "MTK3605:3UNH76FOCTCYGDO46BXBMKL2PNJYMH", "dateTime": 1520802424553}, {"current_trial": 42, "trialdata": {"rt": 1232, "trial_type": "text", "internal_node_id": "0.0-33.0", "time_elapsed": 394493, "key_press": 68, "type": "INSTRUCTIONS", "trial_index": 42}, "uniqueid": "MTK3605:3UNH76FOCTCYGDO46BXBMKL2PNJYMH", "dateTime": 1520802427787}, {"current_trial": 43, "trialdata": {"rt": [2022, 3798, 5851, 7545, 9771, 12341, 13870, 15607, 17358], "trial_type": "math-distractor", "key_times": [1713, 1845, 2022, 3599, 3798, 5611, 5718, 5851, 7353, 7425, 7545, 9461, 9576, 9771, 12045, 12205, 12341, 13566, 13758, 13870, 15471, 15607, 17035, 17154, 17358], "responses": ["21", "9", "15", "12", "18", "11", "15", "4", "18"], "num2": [9, 5, 4, 4, 9, 3, 5, 2, 9, 5], "num3": [9, 3, 5, 5, 4, 5, 3, 1, 1, 8], "conditions": [18, 1200, "v", 18000], "internal_node_id": "0.0-34.0", "key_presses": [50, 49, 13, 57, 13, 49, 53, 13, 49, 50, 13, 49, 56, 13, 49, 49, 13, 49, 53, 13, 52, 13, 49, 56, 13], "trial": 1, "time_elapsed": 414505, "type": "DISTRACTOR", "trial_index": 43, "num1": [3, 1, 6, 3, 5, 3, 7, 1, 8, 5]}, "uniqueid": "MTK3605:3UNH76FOCTCYGDO46BXBMKL2PNJYMH", "dateTime": 1520802447799}, {"current_trial": 44, "trialdata": {"rt": -1, "trial_type": "single-stim", "stimulus": "<p id=\"stim\">10</p>", "internal_node_id": "0.0-35.0-0.0", "time_elapsed": 417515, "key_press": -1, "trial_index": 44}, "uniqueid": "MTK3605:3UNH76FOCTCYGDO46BXBMKL2PNJYMH", "dateTime": 1520802450809}, {"current_trial": 45, "trialdata": {"rt": -1, "trial_type": "single-stim", "stimulus": "<p id=\"stim\">9</p>", "internal_node_id": "0.0-35.0-1.0", "time_elapsed": 418519, "key_press": -1, "trial_index": 45}, "uniqueid": "MTK3605:3UNH76FOCTCYGDO46BXBMKL2PNJYMH", "dateTime": 1520802451813}, {"current_trial": 46, "trialdata": {"rt": -1, "trial_type": "single-stim", "stimulus": "<p id=\"stim\">8</p>", "internal_node_id": "0.0-35.0-2.0", "time_elapsed": 419523, "key_press": -1, "trial_index": 46}, "uniqueid": "MTK3605:3UNH76FOCTCYGDO46BXBMKL2PNJYMH", "dateTime": 1520802452817}, {"current_trial": 47, "trialdata": {"rt": -1, "trial_type": "single-stim", "stimulus": "<p id=\"stim\">7</p>", "internal_node_id": "0.0-35.0-3.0", "time_elapsed": 420527, "key_press": -1, "trial_index": 47}, "uniqueid": "MTK3605:3UNH76FOCTCYGDO46BXBMKL2PNJYMH", "dateTime": 1520802453821}, {"current_trial": 48, "trialdata": {"rt": -1, "trial_type": "single-stim", "stimulus": "<p id=\"stim\">6</p>", "internal_node_id": "0.0-35.0-4.0", "time_elapsed": 421530, "key_press": -1, "trial_index": 48}, "uniqueid": "MTK3605:3UNH76FOCTCYGDO46BXBMKL2PNJYMH", "dateTime": 1520802454824}, {"current_trial": 49, "trialdata": {"rt": -1, "trial_type": "single-stim", "stimulus": "<p id=\"stim\">5</p>", "internal_node_id": "0.0-35.0-5.0", "time_elapsed": 422535, "key_press": -1, "trial_index": 49}, "uniqueid": "MTK3605:3UNH76FOCTCYGDO46BXBMKL2PNJYMH", "dateTime": 1520802455829}, {"current_trial": 50, "trialdata": {"rt": -1, "trial_type": "single-stim", "stimulus": "<p id=\"stim\">4</p>", "internal_node_id": "0.0-35.0-6.0", "time_elapsed": 423538, "key_press": -1, "trial_index": 50}, "uniqueid": "MTK3605:3UNH76FOCTCYGDO46BXBMKL2PNJYMH", "dateTime": 1520802456833}, {"current_trial": 51, "trialdata": {"rt": -1, "trial_type": "single-stim", "stimulus": "<p id=\"stim\">3</p>", "internal_node_id": "0.0-35.0-7.0", "time_elapsed": 424543, "key_press": -1, "trial_index": 51}, "uniqueid": "MTK3605:3UNH76FOCTCYGDO46BXBMKL2PNJYMH", "dateTime": 1520802457837}, {"current_trial": 52, "trialdata": {"rt": -1, "trial_type": "single-stim", "stimulus": "<p id=\"stim\">2</p>", "internal_node_id": "0.0-35.0-8.0", "time_elapsed": 425547, "key_press": -1, "trial_index": 52}, "uniqueid": "MTK3605:3UNH76FOCTCYGDO46BXBMKL2PNJYMH", "dateTime": 1520802458841}, {"current_trial": 53, "trialdata": {"rt": -1, "trial_type": "single-stim", "stimulus": "<p id=\"stim\">1</p>", "internal_node_id": "0.0-35.0-9.0", "time_elapsed": 426549, "key_press": -1, "trial_index": 53}, "uniqueid": "MTK3605:3UNH76FOCTCYGDO46BXBMKL2PNJYMH", "dateTime": 1520802459843}, {"current_trial": 54, "trialdata": {"rt": -1, "trial_type": "single-stim", "stimulus": "<p id=\"stim\">+</p>", "internal_node_id": "0.0-36.0-0.0", "time_elapsed": 428054, "key_press": -1, "type": "FIXATION", "trial_index": 54}, "uniqueid": "MTK3605:3UNH76FOCTCYGDO46BXBMKL2PNJYMH", "dateTime": 1520802461348}, {"current_trial": 55, "trialdata": {"rt": -1, "trial_type": "single-stim", "word": "tuba", "stimulus": "<p id=\"stim\">TUBA</p>", "conditions": [18, 1200, "v", 18000], "internal_node_id": "0.0-37.0", "trial": 1, "time_elapsed": 429255, "serialpos": 0, "key_press": -1, "wordID": 1514, "type": "PRES_VIS", "trial_index": 55}, "uniqueid": "MTK3605:3UNH76FOCTCYGDO46BXBMKL2PNJYMH", "dateTime": 1520802462549}, {"current_trial": 56, "trialdata": {"rt": -1, "trial_type": "single-stim", "word": "france", "stimulus": "<p id=\"stim\">FRANCE</p>", "conditions": [18, 1200, "v", 18000], "internal_node_id": "0.0-38.0", "trial": 1, "time_elapsed": 431502, "serialpos": 1, "key_press": -1, "wordID": 600, "type": "PRES_VIS", "trial_index": 56}, "uniqueid": "MTK3605:3UNH76FOCTCYGDO46BXBMKL2PNJYMH", "dateTime": 1520802464796}, {"current_trial": 57, "trialdata": {"rt": -1, "trial_type": "single-stim", "word": "possum", "stimulus": "<p id=\"stim\">POSSUM</p>", "conditions": [18, 1200, "v", 18000], "internal_node_id": "0.0-39.0", "trial": 1, "time_elapsed": 433644, "serialpos": 2, "key_press": -1, "wordID": 1111, "type": "PRES_VIS", "trial_index": 57}, "uniqueid": "MTK3605:3UNH76FOCTCYGDO46BXBMKL2PNJYMH", "dateTime": 1520802466938}, {"current_trial": 58, "trialdata": {"rt": -1, "trial_type": "single-stim", "word": "cobra", "stimulus": "<p id=\"stim\">COBRA</p>", "conditions": [18, 1200, "v", 18000], "internal_node_id": "0.0-40.0", "trial": 1, "time_elapsed": 435699, "serialpos": 3, "key_press": -1, "wordID": 335, "type": "PRES_VIS", "trial_index": 58}, "uniqueid": "MTK3605:3UNH76FOCTCYGDO46BXBMKL2PNJYMH", "dateTime": 1520802468993}, {"current_trial": 59, "trialdata": {"rt": -1, "trial_type": "single-stim", "word": "salmon", "stimulus": "<p id=\"stim\">SALMON</p>", "conditions": [18, 1200, "v", 18000], "internal_node_id": "0.0-41.0", "trial": 1, "time_elapsed": 438066, "serialpos": 4, "key_press": -1, "wordID": 1226, "type": "PRES_VIS", "trial_index": 59}, "uniqueid": "MTK3605:3UNH76FOCTCYGDO46BXBMKL2PNJYMH", "dateTime": 1520802471360}, {"current_trial": 60, "trialdata": {"rt": -1, "trial_type": "single-stim", "word": "snake", "stimulus": "<p id=\"stim\">SNAKE</p>", "conditions": [18, 1200, "v", 18000], "internal_node_id": "0.0-42.0", "trial": 1, "time_elapsed": 440104, "serialpos": 5, "key_press": -1, "wordID": 1332, "type": "PRES_VIS", "trial_index": 60}, "uniqueid": "MTK3605:3UNH76FOCTCYGDO46BXBMKL2PNJYMH", "dateTime": 1520802473398}, {"current_trial": 61, "trialdata": {"rt": -1, "trial_type": "single-stim", "word": "clock", "stimulus": "<p id=\"stim\">CLOCK</p>", "conditions": [18, 1200, "v", 18000], "internal_node_id": "0.0-43.0", "trial": 1, "time_elapsed": 442274, "serialpos": 6, "key_press": -1, "wordID": 324, "type": "PRES_VIS", "trial_index": 61}, "uniqueid": "MTK3605:3UNH76FOCTCYGDO46BXBMKL2PNJYMH", "dateTime": 1520802475568}, {"current_trial": 62, "trialdata": {"rt": -1, "trial_type": "single-stim", "word": "crib", "stimulus": "<p id=\"stim\">CRIB</p>", "conditions": [18, 1200, "v", 18000], "internal_node_id": "0.0-44.0", "trial": 1, "time_elapsed": 444352, "serialpos": 7, "key_press": -1, "wordID": 406, "type": "PRES_VIS", "trial_index": 62}, "uniqueid": "MTK3605:3UNH76FOCTCYGDO46BXBMKL2PNJYMH", "dateTime": 1520802477646}, {"current_trial": 63, "trialdata": {"rt": -1, "trial_type": "single-stim", "word": "panther", "stimulus": "<p id=\"stim\">PANTHER</p>", "conditions": [18, 1200, "v", 18000], "internal_node_id": "0.0-45.0", "trial": 1, "time_elapsed": 446586, "serialpos": 8, "key_press": -1, "wordID": 1008, "type": "PRES_VIS", "trial_index": 63}, "uniqueid": "MTK3605:3UNH76FOCTCYGDO46BXBMKL2PNJYMH", "dateTime": 1520802479880}, {"current_trial": 64, "trialdata": {"rt": -1, "trial_type": "single-stim", "word": "harp", "stimulus": "<p id=\"stim\">HARP</p>", "conditions": [18, 1200, "v", 18000], "internal_node_id": "0.0-46.0", "trial": 1, "time_elapsed": 448943, "serialpos": 9, "key_press": -1, "wordID": 688, "type": "PRES_VIS", "trial_index": 64}, "uniqueid": "MTK3605:3UNH76FOCTCYGDO46BXBMKL2PNJYMH", "dateTime": 1520802482237}, {"current_trial": 65, "trialdata": {"rt": -1, "trial_type": "single-stim", "word": "garden", "stimulus": "<p id=\"stim\">GARDEN</p>", "conditions": [18, 1200, "v", 18000], "internal_node_id": "0.0-47.0", "trial": 1, "time_elapsed": 451175, "serialpos": 10, "key_press": -1, "wordID": 622, "type": "PRES_VIS", "trial_index": 65}, "uniqueid": "MTK3605:3UNH76FOCTCYGDO46BXBMKL2PNJYMH", "dateTime": 1520802484469}, {"current_trial": 66, "trialdata": {"rt": -1, "trial_type": "single-stim", "word": "tourist", "stimulus": "<p id=\"stim\">TOURIST</p>", "conditions": [18, 1200, "v", 18000], "internal_node_id": "0.0-48.0", "trial": 1, "time_elapsed": 453349, "serialpos": 11, "key_press": -1, "wordID": 1487, "type": "PRES_VIS", "trial_index": 66}, "uniqueid": "MTK3605:3UNH76FOCTCYGDO46BXBMKL2PNJYMH", "dateTime": 1520802486643}, {"current_trial": 67, "trialdata": {"rt": -1, "trial_type": "single-stim", "word": "freezer", "stimulus": "<p id=\"stim\">FREEZER</p>", "conditions": [18, 1200, "v", 18000], "internal_node_id": "0.0-49.0", "trial": 1, "time_elapsed": 455431, "serialpos": 12, "key_press": -1, "wordID": 603, "type": "PRES_VIS", "trial_index": 67}, "uniqueid": "MTK3605:3UNH76FOCTCYGDO46BXBMKL2PNJYMH", "dateTime": 1520802488725}, {"current_trial": 68, "trialdata": {"rt": -1, "trial_type": "single-stim", "word": "pliers", "stimulus": "<p id=\"stim\">PLIERS</p>", "conditions": [18, 1200, "v", 18000], "internal_node_id": "0.0-50.0", "trial": 1, "time_elapsed": 457830, "serialpos": 13, "key_press": -1, "wordID": 1088, "type": "PRES_VIS", "trial_index": 68}, "uniqueid": "MTK3605:3UNH76FOCTCYGDO46BXBMKL2PNJYMH", "dateTime": 1520802491125}, {"current_trial": 69, "trialdata": {"rt": -1, "trial_type": "single-stim", "word": "lodge", "stimulus": "<p id=\"stim\">LODGE</p>", "conditions": [18, 1200, "v", 18000], "internal_node_id": "0.0-51.0", "trial": 1, "time_elapsed": 459919, "serialpos": 14, "key_press": -1, "wordID": 838, "type": "PRES_VIS", "trial_index": 69}, "uniqueid": "MTK3605:3UNH76FOCTCYGDO46BXBMKL2PNJYMH", "dateTime": 1520802493213}, {"current_trial": 70, "trialdata": {"rt": -1, "trial_type": "single-stim", "word": "onion", "stimulus": "<p id=\"stim\">ONION</p>", "conditions": [18, 1200, "v", 18000], "internal_node_id": "0.0-52.0", "trial": 1, "time_elapsed": 462171, "serialpos": 15, "key_press": -1, "wordID": 976, "type": "PRES_VIS", "trial_index": 70}, "uniqueid": "MTK3605:3UNH76FOCTCYGDO46BXBMKL2PNJYMH", "dateTime": 1520802495465}, {"current_trial": 71, "trialdata": {"rt": -1, "trial_type": "single-stim", "word": "gift", "stimulus": "<p id=\"stim\">GIFT</p>", "conditions": [18, 1200, "v", 18000], "internal_node_id": "0.0-53.0", "trial": 1, "time_elapsed": 464510, "serialpos": 16, "key_press": -1, "wordID": 634, "type": "PRES_VIS", "trial_index": 71}, "uniqueid": "MTK3605:3UNH76FOCTCYGDO46BXBMKL2PNJYMH", "dateTime": 1520802497804}, {"current_trial": 72, "trialdata": {"rt": -1, "trial_type": "single-stim", "word": "barley", "stimulus": "<p id=\"stim\">BARLEY</p>", "conditions": [18, 1200, "v", 18000], "internal_node_id": "0.0-54.0", "trial": 1, "time_elapsed": 466866, "serialpos": 17, "key_press": -1, "wordID": 87, "type": "PRES_VIS", "trial_index": 72}, "uniqueid": "MTK3605:3UNH76FOCTCYGDO46BXBMKL2PNJYMH", "dateTime": 1520802500160}, {"current_trial": 73, "trialdata": {"rt": -1, "trial_type": "single-stim", "stimulus": "", "internal_node_id": "0.0-55.0-0.0", "time_elapsed": 469031, "key_press": -1, "type": "PRE_RECALL_DELAY", "trial_index": 73}, "uniqueid": "MTK3605:3UNH76FOCTCYGDO46BXBMKL2PNJYMH", "dateTime": 1520802502325}, {"current_trial": 74, "trialdata": {"rt": -1000, "trial_type": "single-audio", "stimulus": "/static/audio/400Hz.wav", "internal_node_id": "0.0-56.0", "time_elapsed": 469533, "key_press": -1, "type": "PRE_RECALL_ALERT", "trial_index": 74}, "uniqueid": "MTK3605:3UNH76FOCTCYGDO46BXBMKL2PNJYMH", "dateTime": 1520802502827}, {"current_trial": 75, "trialdata": {"rt": [2300, 4587, 6747, 14047, 15511], "recwords": ["barley", "tuba", "harp", "garden", "tourist"], "key_times": [578, 797, 922, 1548, 1661, 1810, 1922, 2063, 2300, 3100, 3236, 3426, 3657, 4065, 4242, 4326, 4406, 4587, 4925, 5576, 6155, 6303, 6747, 12777, 13004, 13256, 13485, 13633, 13843, 14047, 14472, 14638, 14746, 14924, 15068, 15196, 15364, 15511], "trial_type": "free-recall", "conditions": [18, 1200, "v", 18000], "internal_node_id": "0.0-57.0-0.0", "key_presses": [66, 65, 76, 8, 82, 76, 69, 89, 13, 84, 85, 82, 66, 8, 8, 66, 65, 32, 72, 65, 82, 80, 13, 71, 65, 82, 68, 69, 78, 13, 84, 79, 85, 82, 73, 83, 84, 13], "trial": 1, "time_elapsed": 529540, "type": "FREE_RECALL", "trial_index": 75}, "uniqueid": "MTK3605:3UNH76FOCTCYGDO46BXBMKL2PNJYMH", "dateTime": 1520802562836}, {"current_trial": 76, "trialdata": {"rt": 54889, "trial_type": "text", "internal_node_id": "0.0-58.0", "time_elapsed": 586435, "key_press": 32, "type": "INSTRUCTIONS", "trial_index": 76}, "uniqueid": "MTK3605:3UNH76FOCTCYGDO46BXBMKL2PNJYMH", "dateTime": 1520802619729}, {"current_trial": 77, "trialdata": {"rt": [1777, 3335, 4884, 6541, 8652, 10327], "trial_type": "math-distractor", "key_times": [1513, 1777, 3021, 3151, 3335, 4597, 4762, 4884, 6310, 6473, 6541, 8334, 8532, 8652, 10011, 10098, 10327, 11627], "responses": ["9", "14", "11", "11", "16", "10"], "num2": [2, 4, 3, 1, 6, 7, 8], "num3": [6, 9, 5, 3, 9, 1, 1], "conditions": [12, 1600, "v", 12000], "internal_node_id": "0.0-59.0", "key_presses": [57, 13, 49, 52, 13, 49, 49, 13, 49, 49, 13, 49, 54, 13, 49, 48, 13, 49], "trial": 2, "time_elapsed": 599444, "type": "DISTRACTOR", "trial_index": 77, "num1": [1, 1, 3, 7, 1, 2, 8]}, "uniqueid": "MTK3605:3UNH76FOCTCYGDO46BXBMKL2PNJYMH", "dateTime": 1520802632738}, {"current_trial": 78, "trialdata": {"rt": -1, "trial_type": "single-stim", "stimulus": "<p id=\"stim\">10</p>", "internal_node_id": "0.0-60.0-0.0", "time_elapsed": 602449, "key_press": -1, "trial_index": 78}, "uniqueid": "MTK3605:3UNH76FOCTCYGDO46BXBMKL2PNJYMH", "dateTime": 1520802635743}, {"current_trial": 79, "trialdata": {"rt": -1, "trial_type": "single-stim", "stimulus": "<p id=\"stim\">9</p>", "internal_node_id": "0.0-60.0-1.0", "time_elapsed": 603454, "key_press": -1, "trial_index": 79}, "uniqueid": "MTK3605:3UNH76FOCTCYGDO46BXBMKL2PNJYMH", "dateTime": 1520802636748}, {"current_trial": 80, "trialdata": {"rt": -1, "trial_type": "single-stim", "stimulus": "<p id=\"stim\">8</p>", "internal_node_id": "0.0-60.0-2.0", "time_elapsed": 604458, "key_press": -1, "trial_index": 80}, "uniqueid": "MTK3605:3UNH76FOCTCYGDO46BXBMKL2PNJYMH", "dateTime": 1520802637753}, {"current_trial": 81, "trialdata": {"rt": -1, "trial_type": "single-stim", "stimulus": "<p id=\"stim\">7</p>", "internal_node_id": "0.0-60.0-3.0", "time_elapsed": 605462, "key_press": -1, "trial_index": 81}, "uniqueid": "MTK3605:3UNH76FOCTCYGDO46BXBMKL2PNJYMH", "dateTime": 1520802638756}, {"current_trial": 82, "trialdata": {"rt": -1, "trial_type": "single-stim", "stimulus": "<p id=\"stim\">6</p>", "internal_node_id": "0.0-60.0-4.0", "time_elapsed": 606466, "key_press": -1, "trial_index": 82}, "uniqueid": "MTK3605:3UNH76FOCTCYGDO46BXBMKL2PNJYMH", "dateTime": 1520802639762}, {"current_trial": 83, "trialdata": {"rt": -1, "trial_type": "single-stim", "stimulus": "<p id=\"stim\">5</p>", "internal_node_id": "0.0-60.0-5.0", "time_elapsed": 607471, "key_press": -1, "trial_index": 83}, "uniqueid": "MTK3605:3UNH76FOCTCYGDO46BXBMKL2PNJYMH", "dateTime": 1520802640765}, {"current_trial": 84, "trialdata": {"rt": -1, "trial_type": "single-stim", "stimulus": "<p id=\"stim\">4</p>", "internal_node_id": "0.0-60.0-6.0", "time_elapsed": 608475, "key_press": -1, "trial_index": 84}, "uniqueid": "MTK3605:3UNH76FOCTCYGDO46BXBMKL2PNJYMH", "dateTime": 1520802641769}, {"current_trial": 85, "trialdata": {"rt": -1, "trial_type": "single-stim", "stimulus": "<p id=\"stim\">3</p>", "internal_node_id": "0.0-60.0-7.0", "time_elapsed": 609479, "key_press": -1, "trial_index": 85}, "uniqueid": "MTK3605:3UNH76FOCTCYGDO46BXBMKL2PNJYMH", "dateTime": 1520802642773}, {"current_trial": 86, "trialdata": {"rt": -1, "trial_type": "single-stim", "stimulus": "<p id=\"stim\">2</p>", "internal_node_id": "0.0-60.0-8.0", "time_elapsed": 610482, "key_press": -1, "trial_index": 86}, "uniqueid": "MTK3605:3UNH76FOCTCYGDO46BXBMKL2PNJYMH", "dateTime": 1520802643776}, {"current_trial": 87, "trialdata": {"rt": -1, "trial_type": "single-stim", "stimulus": "<p id=\"stim\">1</p>", "internal_node_id": "0.0-60.0-9.0", "time_elapsed": 611487, "key_press": -1, "trial_index": 87}, "uniqueid": "MTK3605:3UNH76FOCTCYGDO46BXBMKL2PNJYMH", "dateTime": 1520802644781}, {"current_trial": 88, "trialdata": {"rt": -1, "trial_type": "single-stim", "stimulus": "<p id=\"stim\">+</p>", "internal_node_id": "0.0-61.0-0.0", "time_elapsed": 612990, "key_press": -1, "type": "FIXATION", "trial_index": 88}, "uniqueid": "MTK3605:3UNH76FOCTCYGDO46BXBMKL2PNJYMH", "dateTime": 1520802646284}, {"current_trial": 89, "trialdata": {"rt": -1, "trial_type": "single-stim", "word": "hostess", "stimulus": "<p id=\"stim\">HOSTESS</p>", "conditions": [12, 1600, "v", 12000], "internal_node_id": "0.0-62.0", "trial": 2, "time_elapsed": 614594, "serialpos": 0, "key_press": -1, "wordID": 722, "type": "PRES_VIS", "trial_index": 89}, "uniqueid": "MTK3605:3UNH76FOCTCYGDO46BXBMKL2PNJYMH", "dateTime": 1520802647888}, {"current_trial": 90, "trialdata": {"rt": -1, "trial_type": "single-stim", "word": "globe", "stimulus": "<p id=\"stim\">GLOBE</p>", "conditions": [12, 1600, "v", 12000], "internal_node_id": "0.0-63.0", "trial": 2, "time_elapsed": 617337, "serialpos": 1, "key_press": -1, "wordID": 640, "type": "PRES_VIS", "trial_index": 90}, "uniqueid": "MTK3605:3UNH76FOCTCYGDO46BXBMKL2PNJYMH", "dateTime": 1520802650631}, {"current_trial": 91, "trialdata": {"rt": -1, "trial_type": "single-stim", "word": "forehead", "stimulus": "<p id=\"stim\">FOREHEAD</p>", "conditions": [12, 1600, "v", 12000], "internal_node_id": "0.0-64.0", "trial": 2, "time_elapsed": 620124, "serialpos": 2, "key_press": -1, "wordID": 591, "type": "PRES_VIS", "trial_index": 91}, "uniqueid": "MTK3605:3UNH76FOCTCYGDO46BXBMKL2PNJYMH", "dateTime": 1520802653418}, {"current_trial": 92, "trialdata": {"rt": -1, "trial_type": "single-stim", "word": "chest", "stimulus": "<p id=\"stim\">CHEST</p>", "conditions": [12, 1600, "v", 12000], "internal_node_id": "0.0-65.0", "trial": 2, "time_elapsed": 622648, "serialpos": 3, "key_press": -1, "wordID": 294, "type": "PRES_VIS", "trial_index": 92}, "uniqueid": "MTK3605:3UNH76FOCTCYGDO46BXBMKL2PNJYMH", "dateTime": 1520802655942}, {"current_trial": 93, "trialdata": {"rt": -1, "trial_type": "single-stim", "word": "dragon", "stimulus": "<p id=\"stim\">DRAGON</p>", "conditions": [12, 1600, "v", 12000], "internal_node_id": "0.0-66.0", "trial": 2, "time_elapsed": 625236, "serialpos": 4, "key_press": -1, "wordID": 491, "type": "PRES_VIS", "trial_index": 93}, "uniqueid": "MTK3605:3UNH76FOCTCYGDO46BXBMKL2PNJYMH", "dateTime": 1520802658530}, {"current_trial": 94, "trialdata": {"rt": -1, "trial_type": "single-stim", "word": "sword", "stimulus": "<p id=\"stim\">SWORD</p>", "conditions": [12, 1600, "v", 12000], "internal_node_id": "0.0-67.0", "trial": 2, "time_elapsed": 627756, "serialpos": 5, "key_press": -1, "wordID": 1422, "type": "PRES_VIS", "trial_index": 94}, "uniqueid": "MTK3605:3UNH76FOCTCYGDO46BXBMKL2PNJYMH", "dateTime": 1520802661050}, {"current_trial": 95, "trialdata": {"rt": -1, "trial_type": "single-stim", "word": "bike", "stimulus": "<p id=\"stim\">BIKE</p>", "conditions": [12, 1600, "v", 12000], "internal_node_id": "0.0-68.0", "trial": 2, "time_elapsed": 630399, "serialpos": 6, "key_press": -1, "wordID": 124, "type": "PRES_VIS", "trial_index": 95}, "uniqueid": "MTK3605:3UNH76FOCTCYGDO46BXBMKL2PNJYMH", "dateTime": 1520802663693}, {"current_trial": 96, "trialdata": {"rt": -1, "trial_type": "single-stim", "word": "captive", "stimulus": "<p id=\"stim\">CAPTIVE</p>", "conditions": [12, 1600, "v", 12000], "internal_node_id": "0.0-69.0", "trial": 2, "time_elapsed": 632828, "serialpos": 7, "key_press": -1, "wordID": 239, "type": "PRES_VIS", "trial_index": 96}, "uniqueid": "MTK3605:3UNH76FOCTCYGDO46BXBMKL2PNJYMH", "dateTime": 1520802666122}, {"current_trial": 97, "trialdata": {"rt": -1, "trial_type": "single-stim", "word": "fungus", "stimulus": "<p id=\"stim\">FUNGUS</p>", "conditions": [12, 1600, "v", 12000], "internal_node_id": "0.0-70.0", "trial": 2, "time_elapsed": 635319, "serialpos": 8, "key_press": -1, "wordID": 613, "type": "PRES_VIS", "trial_index": 97}, "uniqueid": "MTK3605:3UNH76FOCTCYGDO46BXBMKL2PNJYMH", "dateTime": 1520802668613}, {"current_trial": 98, "trialdata": {"rt": -1, "trial_type": "single-stim", "word": "eagle", "stimulus": "<p id=\"stim\">EAGLE</p>", "conditions": [12, 1600, "v", 12000], "internal_node_id": "0.0-71.0", "trial": 2, "time_elapsed": 637727, "serialpos": 9, "key_press": -1, "wordID": 511, "type": "PRES_VIS", "trial_index": 98}, "uniqueid": "MTK3605:3UNH76FOCTCYGDO46BXBMKL2PNJYMH", "dateTime": 1520802671021}, {"current_trial": 99, "trialdata": {"rt": -1, "trial_type": "single-stim", "word": "waitress", "stimulus": "<p id=\"stim\">WAITRESS</p>", "conditions": [12, 1600, "v", 12000], "internal_node_id": "0.0-72.0", "trial": 2, "time_elapsed": 640136, "serialpos": 10, "key_press": -1, "wordID": 1580, "type": "PRES_VIS", "trial_index": 99}, "uniqueid": "MTK3605:3UNH76FOCTCYGDO46BXBMKL2PNJYMH", "dateTime": 1520802673430}, {"current_trial": 100, "trialdata": {"rt": -1, "trial_type": "single-stim", "word": "slug", "stimulus": "<p id=\"stim\">SLUG</p>", "conditions": [12, 1600, "v", 12000], "internal_node_id": "0.0-73.0", "trial": 2, "time_elapsed": 642713, "serialpos": 11, "key_press": -1, "wordID": 1328, "type": "PRES_VIS", "trial_index": 100}, "uniqueid": "MTK3605:3UNH76FOCTCYGDO46BXBMKL2PNJYMH", "dateTime": 1520802676007}, {"current_trial": 101, "trialdata": {"rt": -1, "trial_type": "single-stim", "stimulus": "", "internal_node_id": "0.0-74.0-0.0", "time_elapsed": 645028, "key_press": -1, "type": "PRE_RECALL_DELAY", "trial_index": 101}, "uniqueid": "MTK3605:3UNH76FOCTCYGDO46BXBMKL2PNJYMH", "dateTime": 1520802678323}, {"current_trial": 102, "trialdata": {"rt": -1000, "trial_type": "single-audio", "stimulus": "/static/audio/400Hz.wav", "internal_node_id": "0.0-75.0", "time_elapsed": 645530, "key_press": -1, "type": "PRE_RECALL_ALERT", "trial_index": 102}, "uniqueid": "MTK3605:3UNH76FOCTCYGDO46BXBMKL2PNJYMH", "dateTime": 1520802678824}, {"current_trial": 103, "trialdata": {"rt": [2609, 3610, 5444, 7009, 12385, 14135], "recwords": ["waitress", "slug", "dragon", "sword", "globe", "forehead"], "key_times": [863, 1062, 1402, 1585, 1715, 1889, 2182, 2381, 2609, 2895, 3109, 3288, 3437, 3610, 4072, 4234, 4313, 4859, 5028, 5217, 5444, 6205, 6387, 6590, 6702, 6921, 7009, 11232, 11459, 11925, 12125, 12320, 12385, 12678, 12822, 12910, 13050, 13423, 13483, 13642, 14047, 14135], "trial_type": "free-recall", "conditions": [12, 1600, "v", 12000], "internal_node_id": "0.0-76.0-0.0", "key_presses": [87, 65, 73, 84, 82, 69, 83, 83, 13, 83, 76, 85, 71, 13, 68, 82, 65, 71, 79, 78, 13, 83, 87, 79, 82, 68, 13, 71, 76, 79, 66, 69, 13, 70, 79, 82, 69, 72, 69, 65, 68, 13], "trial": 2, "time_elapsed": 705536, "type": "FREE_RECALL", "trial_index": 103}, "uniqueid": "MTK3605:3UNH76FOCTCYGDO46BXBMKL2PNJYMH", "dateTime": 1520802738832}, {"current_trial": 104, "trialdata": {"rt": 1421, "trial_type": "text", "internal_node_id": "0.0-77.0", "time_elapsed": 708960, "key_press": 32, "type": "INSTRUCTIONS", "trial_index": 104}, "uniqueid": "MTK3605:3UNH76FOCTCYGDO46BXBMKL2PNJYMH", "dateTime": 1520802742254}, {"current_trial": 105, "trialdata": {"rt": [3716, 7353, 9543, 12629, 15142, 17353, 19929, 21419, 23346], "trial_type": "math-distractor", "key_times": [3183, 3525, 3716, 6897, 7206, 7353, 9304, 9399, 9543, 12287, 12446, 12629, 14799, 14948, 15142, 16665, 17148, 17353, 18957, 19081, 19448, 19629, 19713, 19785, 19929, 21077, 21347, 21419, 23006, 23246, 23346], "responses": ["19", "23", "12", "19", "20", "10", "12", "15", "16"], "num2": [8, 7, 4, 5, 3, 2, 2, 1, 6, 8], "num3": [5, 7, 3, 6, 9, 6, 8, 5, 8, 7], "conditions": [24, 800, "v", 24000], "internal_node_id": "0.0-78.0", "key_presses": [49, 57, 13, 50, 51, 13, 49, 50, 13, 49, 57, 13, 50, 48, 13, 49, 48, 13, 50, 49, 8, 8, 49, 50, 13, 49, 53, 13, 49, 54, 13], "trial": 3, "time_elapsed": 734970, "type": "DISTRACTOR", "trial_index": 105, "num1": [6, 9, 5, 8, 8, 2, 2, 9, 2, 3]}, "uniqueid": "MTK3605:3UNH76FOCTCYGDO46BXBMKL2PNJYMH", "dateTime": 1520802768264}, {"current_trial": 106, "trialdata": {"rt": -1, "trial_type": "single-stim", "stimulus": "<p id=\"stim\">10</p>", "internal_node_id": "0.0-79.0-0.0", "time_elapsed": 737976, "key_press": -1, "trial_index": 106}, "uniqueid": "MTK3605:3UNH76FOCTCYGDO46BXBMKL2PNJYMH", "dateTime": 1520802771270}, {"current_trial": 107, "trialdata": {"rt": -1, "trial_type": "single-stim", "stimulus": "<p id=\"stim\">9</p>", "internal_node_id": "0.0-79.0-1.0", "time_elapsed": 738981, "key_press": -1, "trial_index": 107}, "uniqueid": "MTK3605:3UNH76FOCTCYGDO46BXBMKL2PNJYMH", "dateTime": 1520802772275}, {"current_trial": 108, "trialdata": {"rt": -1, "trial_type": "single-stim", "stimulus": "<p id=\"stim\">8</p>", "internal_node_id": "0.0-79.0-2.0", "time_elapsed": 739985, "key_press": -1, "trial_index": 108}, "uniqueid": "MTK3605:3UNH76FOCTCYGDO46BXBMKL2PNJYMH", "dateTime": 1520802773279}, {"current_trial": 109, "trialdata": {"rt": -1, "trial_type": "single-stim", "stimulus": "<p id=\"stim\">7</p>", "internal_node_id": "0.0-79.0-3.0", "time_elapsed": 740988, "key_press": -1, "trial_index": 109}, "uniqueid": "MTK3605:3UNH76FOCTCYGDO46BXBMKL2PNJYMH", "dateTime": 1520802774282}, {"current_trial": 110, "trialdata": {"rt": -1, "trial_type": "single-stim", "stimulus": "<p id=\"stim\">6</p>", "internal_node_id": "0.0-79.0-4.0", "time_elapsed": 741994, "key_press": -1, "trial_index": 110}, "uniqueid": "MTK3605:3UNH76FOCTCYGDO46BXBMKL2PNJYMH", "dateTime": 1520802775288}, {"current_trial": 111, "trialdata": {"rt": -1, "trial_type": "single-stim", "stimulus": "<p id=\"stim\">5</p>", "internal_node_id": "0.0-79.0-5.0", "time_elapsed": 742997, "key_press": -1, "trial_index": 111}, "uniqueid": "MTK3605:3UNH76FOCTCYGDO46BXBMKL2PNJYMH", "dateTime": 1520802776291}, {"current_trial": 112, "trialdata": {"rt": -1, "trial_type": "single-stim", "stimulus": "<p id=\"stim\">4</p>", "internal_node_id": "0.0-79.0-6.0", "time_elapsed": 743999, "key_press": -1, "trial_index": 112}, "uniqueid": "MTK3605:3UNH76FOCTCYGDO46BXBMKL2PNJYMH", "dateTime": 1520802777293}, {"current_trial": 113, "trialdata": {"rt": -1, "trial_type": "single-stim", "stimulus": "<p id=\"stim\">3</p>", "internal_node_id": "0.0-79.0-7.0", "time_elapsed": 745001, "key_press": -1, "trial_index": 113}, "uniqueid": "MTK3605:3UNH76FOCTCYGDO46BXBMKL2PNJYMH", "dateTime": 1520802778295}, {"current_trial": 114, "trialdata": {"rt": -1, "trial_type": "single-stim", "stimulus": "<p id=\"stim\">2</p>", "internal_node_id": "0.0-79.0-8.0", "time_elapsed": 746003, "key_press": -1, "trial_index": 114}, "uniqueid": "MTK3605:3UNH76FOCTCYGDO46BXBMKL2PNJYMH", "dateTime": 1520802779298}, {"current_trial": 115, "trialdata": {"rt": -1, "trial_type": "single-stim", "stimulus": "<p id=\"stim\">1</p>", "internal_node_id": "0.0-79.0-9.0", "time_elapsed": 747008, "key_press": -1, "trial_index": 115}, "uniqueid": "MTK3605:3UNH76FOCTCYGDO46BXBMKL2PNJYMH", "dateTime": 1520802780302}, {"current_trial": 116, "trialdata": {"rt": -1, "trial_type": "single-stim", "stimulus": "<p id=\"stim\">+</p>", "internal_node_id": "0.0-80.0-0.0", "time_elapsed": 748510, "key_press": -1, "type": "FIXATION", "trial_index": 116}, "uniqueid": "MTK3605:3UNH76FOCTCYGDO46BXBMKL2PNJYMH", "dateTime": 1520802781804}, {"current_trial": 117, "trialdata": {"rt": -1, "trial_type": "single-stim", "word": "postage", "stimulus": "<p id=\"stim\">POSTAGE</p>", "conditions": [24, 800, "v", 24000], "internal_node_id": "0.0-81.0", "trial": 3, "time_elapsed": 749312, "serialpos": 0, "key_press": -1, "wordID": 1112, "type": "PRES_VIS", "trial_index": 117}, "uniqueid": "MTK3605:3UNH76FOCTCYGDO46BXBMKL2PNJYMH", "dateTime": 1520802782606}, {"current_trial": 118, "trialdata": {"rt": -1, "trial_type": "single-stim", "word": "cabbage", "stimulus": "<p id=\"stim\">CABBAGE</p>", "conditions": [24, 800, "v", 24000], "internal_node_id": "0.0-82.0", "trial": 3, "time_elapsed": 751285, "serialpos": 1, "key_press": -1, "wordID": 209, "type": "PRES_VIS", "trial_index": 118}, "uniqueid": "MTK3605:3UNH76FOCTCYGDO46BXBMKL2PNJYMH", "dateTime": 1520802784579}, {"current_trial": 119, "trialdata": {"rt": -1, "trial_type": "single-stim", "word": "blouse", "stimulus": "<p id=\"stim\">BLOUSE</p>", "conditions": [24, 800, "v", 24000], "internal_node_id": "0.0-83.0", "trial": 3, "time_elapsed": 753045, "serialpos": 2, "key_press": -1, "wordID": 138, "type": "PRES_VIS", "trial_index": 119}, "uniqueid": "MTK3605:3UNH76FOCTCYGDO46BXBMKL2PNJYMH", "dateTime": 1520802786339}, {"current_trial": 120, "trialdata": {"rt": -1, "trial_type": "single-stim", "word": "item", "stimulus": "<p id=\"stim\">ITEM</p>", "conditions": [24, 800, "v", 24000], "internal_node_id": "0.0-84.0", "trial": 3, "time_elapsed": 754936, "serialpos": 3, "key_press": -1, "wordID": 745, "type": "PRES_VIS", "trial_index": 120}, "uniqueid": "MTK3605:3UNH76FOCTCYGDO46BXBMKL2PNJYMH", "dateTime": 1520802788231}, {"current_trial": 121, "trialdata": {"rt": -1, "trial_type": "single-stim", "word": "ulcer", "stimulus": "<p id=\"stim\">ULCER</p>", "conditions": [24, 800, "v", 24000], "internal_node_id": "0.0-85.0", "trial": 3, "time_elapsed": 756800, "serialpos": 4, "key_press": -1, "wordID": 1532, "type": "PRES_VIS", "trial_index": 121}, "uniqueid": "MTK3605:3UNH76FOCTCYGDO46BXBMKL2PNJYMH", "dateTime": 1520802790094}, {"current_trial": 122, "trialdata": {"rt": -1, "trial_type": "single-stim", "word": "binder", "stimulus": "<p id=\"stim\">BINDER</p>", "conditions": [24, 800, "v", 24000], "internal_node_id": "0.0-86.0", "trial": 3, "time_elapsed": 758645, "serialpos": 5, "key_press": -1, "wordID": 126, "type": "PRES_VIS", "trial_index": 122}, "uniqueid": "MTK3605:3UNH76FOCTCYGDO46BXBMKL2PNJYMH", "dateTime": 1520802791939}, {"current_trial": 123, "trialdata": {"rt": -1, "trial_type": "single-stim", "word": "beaker", "stimulus": "<p id=\"stim\">BEAKER</p>", "conditions": [24, 800, "v", 24000], "internal_node_id": "0.0-87.0", "trial": 3, "time_elapsed": 760328, "serialpos": 6, "key_press": -1, "wordID": 103, "type": "PRES_VIS", "trial_index": 123}, "uniqueid": "MTK3605:3UNH76FOCTCYGDO46BXBMKL2PNJYMH", "dateTime": 1520802793622}, {"current_trial": 124, "trialdata": {"rt": -1, "trial_type": "single-stim", "word": "flask", "stimulus": "<p id=\"stim\">FLASK</p>", "conditions": [24, 800, "v", 24000], "internal_node_id": "0.0-88.0", "trial": 3, "time_elapsed": 762179, "serialpos": 7, "key_press": -1, "wordID": 575, "type": "PRES_VIS", "trial_index": 124}, "uniqueid": "MTK3605:3UNH76FOCTCYGDO46BXBMKL2PNJYMH", "dateTime": 1520802795474}, {"current_trial": 125, "trialdata": {"rt": -1, "trial_type": "single-stim", "word": "gymnast", "stimulus": "<p id=\"stim\">GYMNAST</p>", "conditions": [24, 800, "v", 24000], "internal_node_id": "0.0-89.0", "trial": 3, "time_elapsed": 764067, "serialpos": 8, "key_press": -1, "wordID": 674, "type": "PRES_VIS", "trial_index": 125}, "uniqueid": "MTK3605:3UNH76FOCTCYGDO46BXBMKL2PNJYMH", "dateTime": 1520802797361}, {"current_trial": 126, "trialdata": {"rt": -1, "trial_type": "single-stim", "word": "lettuce", "stimulus": "<p id=\"stim\">LETTUCE</p>", "conditions": [24, 800, "v", 24000], "internal_node_id": "0.0-90.0", "trial": 3, "time_elapsed": 765836, "serialpos": 9, "key_press": -1, "wordID": 813, "type": "PRES_VIS", "trial_index": 126}, "uniqueid": "MTK3605:3UNH76FOCTCYGDO46BXBMKL2PNJYMH", "dateTime": 1520802799130}, {"current_trial": 127, "trialdata": {"rt": -1, "trial_type": "single-stim", "word": "dentist", "stimulus": "<p id=\"stim\">DENTIST</p>", "conditions": [24, 800, "v", 24000], "internal_node_id": "0.0-91.0", "trial": 3, "time_elapsed": 767693, "serialpos": 10, "key_press": -1, "wordID": 446, "type": "PRES_VIS", "trial_index": 127}, "uniqueid": "MTK3605:3UNH76FOCTCYGDO46BXBMKL2PNJYMH", "dateTime": 1520802800987}, {"current_trial": 128, "trialdata": {"rt": -1, "trial_type": "single-stim", "word": "scalpel", "stimulus": "<p id=\"stim\">SCALPEL</p>", "conditions": [24, 800, "v", 24000], "internal_node_id": "0.0-92.0", "trial": 3, "time_elapsed": 769521, "serialpos": 11, "key_press": -1, "wordID": 1242, "type": "PRES_VIS", "trial_index": 128}, "uniqueid": "MTK3605:3UNH76FOCTCYGDO46BXBMKL2PNJYMH", "dateTime": 1520802802815}, {"current_trial": 129, "trialdata": {"rt": -1, "trial_type": "single-stim", "word": "slide", "stimulus": "<p id=\"stim\">SLIDE</p>", "conditions": [24, 800, "v", 24000], "internal_node_id": "0.0-93.0", "trial": 3, "time_elapsed": 771495, "serialpos": 12, "key_press": -1, "wordID": 1325, "type": "PRES_VIS", "trial_index": 129}, "uniqueid": "MTK3605:3UNH76FOCTCYGDO46BXBMKL2PNJYMH", "dateTime": 1520802804789}, {"current_trial": 130, "trialdata": {"rt": -1, "trial_type": "single-stim", "word": "picture", "stimulus": "<p id=\"stim\">PICTURE</p>", "conditions": [24, 800, "v", 24000], "internal_node_id": "0.0-94.0", "trial": 3, "time_elapsed": 773365, "serialpos": 13, "key_press": -1, "wordID": 1060, "type": "PRES_VIS", "trial_index": 130}, "uniqueid": "MTK3605:3UNH76FOCTCYGDO46BXBMKL2PNJYMH", "dateTime": 1520802806659}, {"current_trial": 131, "trialdata": {"rt": -1, "trial_type": "single-stim", "word": "portrait", "stimulus": "<p id=\"stim\">PORTRAIT</p>", "conditions": [24, 800, "v", 24000], "internal_node_id": "0.0-95.0", "trial": 3, "time_elapsed": 775082, "serialpos": 14, "key_press": -1, "wordID": 1110, "type": "PRES_VIS", "trial_index": 131}, "uniqueid": "MTK3605:3UNH76FOCTCYGDO46BXBMKL2PNJYMH", "dateTime": 1520802808376}, {"current_trial": 132, "trialdata": {"rt": -1, "trial_type": "single-stim", "word": "patrol", "stimulus": "<p id=\"stim\">PATROL</p>", "conditions": [24, 800, "v", 24000], "internal_node_id": "0.0-96.0", "trial": 3, "time_elapsed": 776824, "serialpos": 15, "key_press": -1, "wordID": 1026, "type": "PRES_VIS", "trial_index": 132}, "uniqueid": "MTK3605:3UNH76FOCTCYGDO46BXBMKL2PNJYMH", "dateTime": 1520802810118}, {"current_trial": 133, "trialdata": {"rt": -1, "trial_type": "single-stim", "word": "zebra", "stimulus": "<p id=\"stim\">ZEBRA</p>", "conditions": [24, 800, "v", 24000], "internal_node_id": "0.0-97.0", "trial": 3, "time_elapsed": 778592, "serialpos": 16, "key_press": -1, "wordID": 1634, "type": "PRES_VIS", "trial_index": 133}, "uniqueid": "MTK3605:3UNH76FOCTCYGDO46BXBMKL2PNJYMH", "dateTime": 1520802811886}, {"current_trial": 134, "trialdata": {"rt": -1, "trial_type": "single-stim", "word": "climber", "stimulus": "<p id=\"stim\">CLIMBER</p>", "conditions": [24, 800, "v", 24000], "internal_node_id": "0.0-98.0", "trial": 3, "time_elapsed": 780445, "serialpos": 17, "key_press": -1, "wordID": 322, "type": "PRES_VIS", "trial_index": 134}, "uniqueid": "MTK3605:3UNH76FOCTCYGDO46BXBMKL2PNJYMH", "dateTime": 1520802813739}, {"current_trial": 135, "trialdata": {"rt": -1, "trial_type": "single-stim", "word": "basement", "stimulus": "<p id=\"stim\">BASEMENT</p>", "conditions": [24, 800, "v", 24000], "internal_node_id": "0.0-99.0", "trial": 3, "time_elapsed": 782372, "serialpos": 18, "key_press": -1, "wordID": 93, "type": "PRES_VIS", "trial_index": 135}, "uniqueid": "MTK3605:3UNH76FOCTCYGDO46BXBMKL2PNJYMH", "dateTime": 1520802815666}, {"current_trial": 136, "trialdata": {"rt": -1, "trial_type": "single-stim", "word": "leopard", "stimulus": "<p id=\"stim\">LEOPARD</p>", "conditions": [24, 800, "v", 24000], "internal_node_id": "0.0-100.0", "trial": 3, "time_elapsed": 784224, "serialpos": 19, "key_press": -1, "wordID": 811, "type": "PRES_VIS", "trial_index": 136}, "uniqueid": "MTK3605:3UNH76FOCTCYGDO46BXBMKL2PNJYMH", "dateTime": 1520802817518}, {"current_trial": 137, "trialdata": {"rt": -1, "trial_type": "single-stim", "word": "driver", "stimulus": "<p id=\"stim\">DRIVER</p>", "conditions": [24, 800, "v", 24000], "internal_node_id": "0.0-101.0", "trial": 3, "time_elapsed": 786003, "serialpos": 20, "key_press": -1, "wordID": 498, "type": "PRES_VIS", "trial_index": 137}, "uniqueid": "MTK3605:3UNH76FOCTCYGDO46BXBMKL2PNJYMH", "dateTime": 1520802819297}, {"current_trial": 138, "trialdata": {"rt": -1, "trial_type": "single-stim", "word": "softball", "stimulus": "<p id=\"stim\">SOFTBALL</p>", "conditions": [24, 800, "v", 24000], "internal_node_id": "0.0-102.0", "trial": 3, "time_elapsed": 787769, "serialpos": 21, "key_press": -1, "wordID": 1342, "type": "PRES_VIS", "trial_index": 138}, "uniqueid": "MTK3605:3UNH76FOCTCYGDO46BXBMKL2PNJYMH", "dateTime": 1520802821064}, {"current_trial": 139, "trialdata": {"rt": -1, "trial_type": "single-stim", "word": "knife", "stimulus": "<p id=\"stim\">KNIFE</p>", "conditions": [24, 800, "v", 24000], "internal_node_id": "0.0-103.0", "trial": 3, "time_elapsed": 789715, "serialpos": 22, "key_press": -1, "wordID": 784, "type": "PRES_VIS", "trial_index": 139}, "uniqueid": "MTK3605:3UNH76FOCTCYGDO46BXBMKL2PNJYMH", "dateTime": 1520802823009}, {"current_trial": 140, "trialdata": {"rt": -1, "trial_type": "single-stim", "word": "heart", "stimulus": "<p id=\"stim\">HEART</p>", "conditions": [24, 800, "v", 24000], "internal_node_id": "0.0-104.0", "trial": 3, "time_elapsed": 791326, "serialpos": 23, "key_press": -1, "wordID": 696, "type": "PRES_VIS", "trial_index": 140}, "uniqueid": "MTK3605:3UNH76FOCTCYGDO46BXBMKL2PNJYMH", "dateTime": 1520802824620}, {"current_trial": 141, "trialdata": {"rt": -1, "trial_type": "single-stim", "stimulus": "", "internal_node_id": "0.0-105.0-0.0", "time_elapsed": 793811, "key_press": -1, "type": "PRE_RECALL_DELAY", "trial_index": 141}, "uniqueid": "MTK3605:3UNH76FOCTCYGDO46BXBMKL2PNJYMH", "dateTime": 1520802827105}, {"current_trial": 142, "trialdata": {"rt": -1000, "trial_type": "single-audio", "stimulus": "/static/audio/400Hz.wav", "internal_node_id": "0.0-106.0", "time_elapsed": 794313, "key_press": -1, "type": "PRE_RECALL_ALERT", "trial_index": 142}, "uniqueid": "MTK3605:3UNH76FOCTCYGDO46BXBMKL2PNJYMH", "dateTime": 1520802827607}, {"current_trial": 143, "trialdata": {"rt": [1697, 3252, 5981, 7621, 10946, 13724, 29419, 30891, 50488], "recwords": ["heart", "driver", "zebra", "leopard", "dentist", "scalpel", "postage", "lettuce", "softball"], "key_times": [593, 774, 917, 1104, 1269, 1697, 2366, 2572, 2755, 2859, 3000, 3128, 3252, 5001, 5153, 5408, 5583, 5679, 5981, 6341, 6449, 6659, 6922, 7116, 7272, 7476, 7621, 9414, 9598, 9791, 9897, 10060, 10176, 10288, 10642, 10722, 10946, 11547, 11915, 11970, 12206, 12303, 12540, 12936, 13128, 13294, 13433, 13549, 13724, 27288, 27441, 27770, 28133, 28277, 29128, 29211, 29419, 29760, 29828, 30087, 30270, 30375, 30504, 30685, 30891, 48800, 48965, 49068, 49238, 49552, 49728, 50012, 50203, 50488], "trial_type": "free-recall", "conditions": [24, 800, "v", 24000], "internal_node_id": "0.0-107.0-0.0", "key_presses": [72, 69, 65, 82, 84, 13, 68, 82, 73, 86, 69, 82, 13, 90, 69, 66, 82, 65, 13, 76, 69, 79, 80, 65, 82, 68, 13, 68, 69, 78, 84, 73, 83, 69, 8, 84, 13, 68, 8, 83, 67, 65, 80, 8, 76, 80, 69, 76, 13, 80, 79, 83, 84, 65, 71, 69, 13, 76, 69, 84, 84, 85, 67, 69, 13, 83, 79, 70, 84, 66, 65, 76, 76, 13], "trial": 3, "time_elapsed": 854317, "type": "FREE_RECALL", "trial_index": 143}, "uniqueid": "MTK3605:3UNH76FOCTCYGDO46BXBMKL2PNJYMH", "dateTime": 1520802887613}, {"current_trial": 144, "trialdata": {"rt": 1278, "trial_type": "text", "internal_node_id": "0.0-108.0", "time_elapsed": 857600, "key_press": 32, "type": "INSTRUCTIONS", "trial_index": 144}, "uniqueid": "MTK3605:3UNH76FOCTCYGDO46BXBMKL2PNJYMH", "dateTime": 1520802890895}, {"current_trial": 145, "trialdata": {"rt": [3259, 6757, 8499, 10533], "trial_type": "math-distractor", "key_times": [3035, 3150, 3259, 6255, 6462, 6757, 7861, 8250, 8499, 10312, 10533], "responses": ["21", "20", "17", "9"], "num2": [8, 8, 8, 1, 6], "num3": [7, 6, 2, 5, 5], "conditions": [12, 1600, "v", 12000], "internal_node_id": "0.0-109.0", "key_presses": [50, 49, 13, 50, 48, 13, 49, 55, 13, 57, 13], "trial": 4, "time_elapsed": 871610, "type": "DISTRACTOR", "trial_index": 145, "num1": [6, 6, 7, 3, 6]}, "uniqueid": "MTK3605:3UNH76FOCTCYGDO46BXBMKL2PNJYMH", "dateTime": 1520802904904}, {"current_trial": 146, "trialdata": {"rt": -1, "trial_type": "single-stim", "stimulus": "<p id=\"stim\">10</p>", "internal_node_id": "0.0-110.0-0.0", "time_elapsed": 874617, "key_press": -1, "trial_index": 146}, "uniqueid": "MTK3605:3UNH76FOCTCYGDO46BXBMKL2PNJYMH", "dateTime": 1520802907911}, {"current_trial": 147, "trialdata": {"rt": -1, "trial_type": "single-stim", "stimulus": "<p id=\"stim\">9</p>", "internal_node_id": "0.0-110.0-1.0", "time_elapsed": 875620, "key_press": -1, "trial_index": 147}, "uniqueid": "MTK3605:3UNH76FOCTCYGDO46BXBMKL2PNJYMH", "dateTime": 1520802908914}, {"current_trial": 148, "trialdata": {"rt": -1, "trial_type": "single-stim", "stimulus": "<p id=\"stim\">8</p>", "internal_node_id": "0.0-110.0-2.0", "time_elapsed": 876625, "key_press": -1, "trial_index": 148}, "uniqueid": "MTK3605:3UNH76FOCTCYGDO46BXBMKL2PNJYMH", "dateTime": 1520802909919}, {"current_trial": 149, "trialdata": {"rt": -1, "trial_type": "single-stim", "stimulus": "<p id=\"stim\">7</p>", "internal_node_id": "0.0-110.0-3.0", "time_elapsed": 877628, "key_press": -1, "trial_index": 149}, "uniqueid": "MTK3605:3UNH76FOCTCYGDO46BXBMKL2PNJYMH", "dateTime": 1520802910922}, {"current_trial": 150, "trialdata": {"rt": -1, "trial_type": "single-stim", "stimulus": "<p id=\"stim\">6</p>", "internal_node_id": "0.0-110.0-4.0", "time_elapsed": 878633, "key_press": -1, "trial_index": 150}, "uniqueid": "MTK3605:3UNH76FOCTCYGDO46BXBMKL2PNJYMH", "dateTime": 1520802911927}, {"current_trial": 151, "trialdata": {"rt": -1, "trial_type": "single-stim", "stimulus": "<p id=\"stim\">5</p>", "internal_node_id": "0.0-110.0-5.0", "time_elapsed": 879637, "key_press": -1, "trial_index": 151}, "uniqueid": "MTK3605:3UNH76FOCTCYGDO46BXBMKL2PNJYMH", "dateTime": 1520802912931}, {"current_trial": 152, "trialdata": {"rt": -1, "trial_type": "single-stim", "stimulus": "<p id=\"stim\">4</p>", "internal_node_id": "0.0-110.0-6.0", "time_elapsed": 880640, "key_press": -1, "trial_index": 152}, "uniqueid": "MTK3605:3UNH76FOCTCYGDO46BXBMKL2PNJYMH", "dateTime": 1520802913934}, {"current_trial": 153, "trialdata": {"rt": -1, "trial_type": "single-stim", "stimulus": "<p id=\"stim\">3</p>", "internal_node_id": "0.0-110.0-7.0", "time_elapsed": 881645, "key_press": -1, "trial_index": 153}, "uniqueid": "MTK3605:3UNH76FOCTCYGDO46BXBMKL2PNJYMH", "dateTime": 1520802914939}, {"current_trial": 154, "trialdata": {"rt": -1, "trial_type": "single-stim", "stimulus": "<p id=\"stim\">2</p>", "internal_node_id": "0.0-110.0-8.0", "time_elapsed": 882649, "key_press": -1, "trial_index": 154}, "uniqueid": "MTK3605:3UNH76FOCTCYGDO46BXBMKL2PNJYMH", "dateTime": 1520802915944}, {"current_trial": 155, "trialdata": {"rt": -1, "trial_type": "single-stim", "stimulus": "<p id=\"stim\">1</p>", "internal_node_id": "0.0-110.0-9.0", "time_elapsed": 883651, "key_press": -1, "trial_index": 155}, "uniqueid": "MTK3605:3UNH76FOCTCYGDO46BXBMKL2PNJYMH", "dateTime": 1520802916945}, {"current_trial": 156, "trialdata": {"rt": -1, "trial_type": "single-stim", "stimulus": "<p id=\"stim\">+</p>", "internal_node_id": "0.0-111.0-0.0", "time_elapsed": 885156, "key_press": -1, "type": "FIXATION", "trial_index": 156}, "uniqueid": "MTK3605:3UNH76FOCTCYGDO46BXBMKL2PNJYMH", "dateTime": 1520802918450}, {"current_trial": 157, "trialdata": {"rt": -1, "trial_type": "single-stim", "word": "igloo", "stimulus": "<p id=\"stim\">IGLOO</p>", "conditions": [12, 1600, "v", 12000], "internal_node_id": "0.0-112.0", "trial": 4, "time_elapsed": 886758, "serialpos": 0, "key_press": -1, "wordID": 733, "type": "PRES_VIS", "trial_index": 157}, "uniqueid": "MTK3605:3UNH76FOCTCYGDO46BXBMKL2PNJYMH", "dateTime": 1520802920052}, {"current_trial": 158, "trialdata": {"rt": -1, "trial_type": "single-stim", "word": "mattress", "stimulus": "<p id=\"stim\">MATTRESS</p>", "conditions": [12, 1600, "v", 12000], "internal_node_id": "0.0-113.0", "trial": 4, "time_elapsed": 889492, "serialpos": 1, "key_press": -1, "wordID": 878, "type": "PRES_VIS", "trial_index": 158}, "uniqueid": "MTK3605:3UNH76FOCTCYGDO46BXBMKL2PNJYMH", "dateTime": 1520802922786}, {"current_trial": 159, "trialdata": {"rt": -1, "trial_type": "single-stim", "word": "plaid", "stimulus": "<p id=\"stim\">PLAID</p>", "conditions": [12, 1600, "v", 12000], "internal_node_id": "0.0-114.0", "trial": 4, "time_elapsed": 892260, "serialpos": 2, "key_press": -1, "wordID": 1079, "type": "PRES_VIS", "trial_index": 159}, "uniqueid": "MTK3605:3UNH76FOCTCYGDO46BXBMKL2PNJYMH", "dateTime": 1520802925554}, {"current_trial": 160, "trialdata": {"rt": -1, "trial_type": "single-stim", "word": "space", "stimulus": "<p id=\"stim\">SPACE</p>", "conditions": [12, 1600, "v", 12000], "internal_node_id": "0.0-115.0", "trial": 4, "time_elapsed": 894925, "serialpos": 3, "key_press": -1, "wordID": 1344, "type": "PRES_VIS", "trial_index": 160}, "uniqueid": "MTK3605:3UNH76FOCTCYGDO46BXBMKL2PNJYMH", "dateTime": 1520802928219}, {"current_trial": 161, "trialdata": {"rt": -1, "trial_type": "single-stim", "word": "sausage", "stimulus": "<p id=\"stim\">SAUSAGE</p>", "conditions": [12, 1600, "v", 12000], "internal_node_id": "0.0-116.0", "trial": 4, "time_elapsed": 897694, "serialpos": 4, "key_press": -1, "wordID": 1237, "type": "PRES_VIS", "trial_index": 161}, "uniqueid": "MTK3605:3UNH76FOCTCYGDO46BXBMKL2PNJYMH", "dateTime": 1520802930989}, {"current_trial": 162, "trialdata": {"rt": -1, "trial_type": "single-stim", "word": "coffee", "stimulus": "<p id=\"stim\">COFFEE</p>", "conditions": [12, 1600, "v", 12000], "internal_node_id": "0.0-117.0", "trial": 4, "time_elapsed": 900188, "serialpos": 5, "key_press": -1, "wordID": 340, "type": "PRES_VIS", "trial_index": 162}, "uniqueid": "MTK3605:3UNH76FOCTCYGDO46BXBMKL2PNJYMH", "dateTime": 1520802933482}, {"current_trial": 163, "trialdata": {"rt": -1, "trial_type": "single-stim", "word": "vagrant", "stimulus": "<p id=\"stim\">VAGRANT</p>", "conditions": [12, 1600, "v", 12000], "internal_node_id": "0.0-118.0", "trial": 4, "time_elapsed": 902725, "serialpos": 6, "key_press": -1, "wordID": 1543, "type": "PRES_VIS", "trial_index": 163}, "uniqueid": "MTK3605:3UNH76FOCTCYGDO46BXBMKL2PNJYMH", "dateTime": 1520802936019}, {"current_trial": 164, "trialdata": {"rt": -1, "trial_type": "single-stim", "word": "handbag", "stimulus": "<p id=\"stim\">HANDBAG</p>", "conditions": [12, 1600, "v", 12000], "internal_node_id": "0.0-119.0", "trial": 4, "time_elapsed": 905389, "serialpos": 7, "key_press": -1, "wordID": 683, "type": "PRES_VIS", "trial_index": 164}, "uniqueid": "MTK3605:3UNH76FOCTCYGDO46BXBMKL2PNJYMH", "dateTime": 1520802938684}, {"current_trial": 165, "trialdata": {"rt": -1, "trial_type": "single-stim", "word": "muffin", "stimulus": "<p id=\"stim\">MUFFIN</p>", "conditions": [12, 1600, "v", 12000], "internal_node_id": "0.0-120.0", "trial": 4, "time_elapsed": 907939, "serialpos": 8, "key_press": -1, "wordID": 928, "type": "PRES_VIS", "trial_index": 165}, "uniqueid": "MTK3605:3UNH76FOCTCYGDO46BXBMKL2PNJYMH", "dateTime": 1520802941233}, {"current_trial": 166, "trialdata": {"rt": -1, "trial_type": "single-stim", "word": "flute", "stimulus": "<p id=\"stim\">FLUTE</p>", "conditions": [12, 1600, "v", 12000], "internal_node_id": "0.0-121.0", "trial": 4, "time_elapsed": 910491, "serialpos": 9, "key_press": -1, "wordID": 584, "type": "PRES_VIS", "trial_index": 166}, "uniqueid": "MTK3605:3UNH76FOCTCYGDO46BXBMKL2PNJYMH", "dateTime": 1520802943786}, {"current_trial": 167, "trialdata": {"rt": -1, "trial_type": "single-stim", "word": "trombone", "stimulus": "<p id=\"stim\">TROMBONE</p>", "conditions": [12, 1600, "v", 12000], "internal_node_id": "0.0-122.0", "trial": 4, "time_elapsed": 913108, "serialpos": 10, "key_press": -1, "wordID": 1507, "type": "PRES_VIS", "trial_index": 167}, "uniqueid": "MTK3605:3UNH76FOCTCYGDO46BXBMKL2PNJYMH", "dateTime": 1520802946402}, {"current_trial": 168, "trialdata": {"rt": -1, "trial_type": "single-stim", "word": "suitcase", "stimulus": "<p id=\"stim\">SUITCASE</p>", "conditions": [12, 1600, "v", 12000], "internal_node_id": "0.0-123.0", "trial": 4, "time_elapsed": 915680, "serialpos": 11, "key_press": -1, "wordID": 1402, "type": "PRES_VIS", "trial_index": 168}, "uniqueid": "MTK3605:3UNH76FOCTCYGDO46BXBMKL2PNJYMH", "dateTime": 1520802948974}, {"current_trial": 169, "trialdata": {"rt": -1, "trial_type": "single-stim", "stimulus": "", "internal_node_id": "0.0-124.0-0.0", "time_elapsed": 917885, "key_press": -1, "type": "PRE_RECALL_DELAY", "trial_index": 169}, "uniqueid": "MTK3605:3UNH76FOCTCYGDO46BXBMKL2PNJYMH", "dateTime": 1520802951179}, {"current_trial": 170, "trialdata": {"rt": -1000, "trial_type": "single-audio", "stimulus": "/static/audio/400Hz.wav", "internal_node_id": "0.0-125.0", "time_elapsed": 918387, "key_press": -1, "type": "PRE_RECALL_ALERT", "trial_index": 170}, "uniqueid": "MTK3605:3UNH76FOCTCYGDO46BXBMKL2PNJYMH", "dateTime": 1520802951681}, {"current_trial": 171, "trialdata": {"rt": [3193, 4816, 9763, 11813, 12794], "recwords": ["suitcase", "flute", "trombone", "space", "plaid"], "key_times": [1180, 1598, 1719, 1896, 2280, 2437, 2686, 2814, 3193, 3857, 4194, 4390, 4558, 4642, 4816, 8496, 8674, 8828, 8940, 9096, 9245, 9413, 9557, 9763, 11123, 11232, 11311, 11566, 11729, 11813, 12176, 12294, 12421, 12574, 12691, 12794], "trial_type": "free-recall", "conditions": [12, 1600, "v", 12000], "internal_node_id": "0.0-126.0-0.0", "key_presses": [83, 85, 73, 84, 67, 65, 83, 69, 13, 70, 76, 85, 84, 69, 13, 84, 82, 79, 77, 66, 79, 78, 69, 13, 83, 80, 65, 67, 69, 13, 80, 76, 65, 73, 68, 13], "trial": 4, "time_elapsed": 978392, "type": "FREE_RECALL", "trial_index": 171}, "uniqueid": "MTK3605:3UNH76FOCTCYGDO46BXBMKL2PNJYMH", "dateTime": 1520803011687}, {"current_trial": 172, "trialdata": {"rt": 31908, "trial_type": "text", "internal_node_id": "0.0-127.0", "time_elapsed": 1012310, "key_press": 190, "type": "INSTRUCTIONS", "trial_index": 172}, "uniqueid": "MTK3605:3UNH76FOCTCYGDO46BXBMKL2PNJYMH", "dateTime": 1520803045604}, {"current_trial": 173, "trialdata": {"rt": [8426, 10832, 12433, 14257, 16253, 18602, 20537, 22463], "trial_type": "math-distractor", "key_times": [103, 296, 1609, 6529, 6646, 6833, 7619, 7723, 7908, 8009, 8426, 10558, 10711, 10832, 12092, 12281, 12433, 14079, 14257, 16062, 16154, 16253, 18233, 18502, 18602, 20165, 20420, 20537, 21777, 22287, 22463], "responses": ["13", "15", "13", "9", "21", "16", "13", "13"], "num2": [5, 7, 6, 2, 8, 6, 3, 1, 9], "num3": [3, 4, 6, 4, 8, 1, 2, 3, 6], "conditions": [12, 1600, "v", 24000], "internal_node_id": "0.0-128.0", "key_presses": [76, 189, 187, 8, 8, 220, 8, 8, 49, 51, 13, 49, 53, 13, 49, 51, 13, 57, 13, 50, 49, 13, 49, 54, 13, 49, 51, 13, 49, 51, 13], "trial": 5, "time_elapsed": 1038318, "type": "DISTRACTOR", "trial_index": 173, "num1": [5, 4, 1, 3, 5, 9, 8, 7, 2]}, "uniqueid": "MTK3605:3UNH76FOCTCYGDO46BXBMKL2PNJYMH", "dateTime": 1520803071612}, {"current_trial": 174, "trialdata": {"rt": -1, "trial_type": "single-stim", "stimulus": "<p id=\"stim\">10</p>", "internal_node_id": "0.0-129.0-0.0", "time_elapsed": 1041325, "key_press": -1, "trial_index": 174}, "uniqueid": "MTK3605:3UNH76FOCTCYGDO46BXBMKL2PNJYMH", "dateTime": 1520803074619}, {"current_trial": 175, "trialdata": {"rt": -1, "trial_type": "single-stim", "stimulus": "<p id=\"stim\">9</p>", "internal_node_id": "0.0-129.0-1.0", "time_elapsed": 1042328, "key_press": -1, "trial_index": 175}, "uniqueid": "MTK3605:3UNH76FOCTCYGDO46BXBMKL2PNJYMH", "dateTime": 1520803075622}, {"current_trial": 176, "trialdata": {"rt": -1, "trial_type": "single-stim", "stimulus": "<p id=\"stim\">8</p>", "internal_node_id": "0.0-129.0-2.0", "time_elapsed": 1043333, "key_press": -1, "trial_index": 176}, "uniqueid": "MTK3605:3UNH76FOCTCYGDO46BXBMKL2PNJYMH", "dateTime": 1520803076627}, {"current_trial": 177, "trialdata": {"rt": -1, "trial_type": "single-stim", "stimulus": "<p id=\"stim\">7</p>", "internal_node_id": "0.0-129.0-3.0", "time_elapsed": 1044337, "key_press": -1, "trial_index": 177}, "uniqueid": "MTK3605:3UNH76FOCTCYGDO46BXBMKL2PNJYMH", "dateTime": 1520803077631}, {"current_trial": 178, "trialdata": {"rt": -1, "trial_type": "single-stim", "stimulus": "<p id=\"stim\">6</p>", "internal_node_id": "0.0-129.0-4.0", "time_elapsed": 1045340, "key_press": -1, "trial_index": 178}, "uniqueid": "MTK3605:3UNH76FOCTCYGDO46BXBMKL2PNJYMH", "dateTime": 1520803078634}, {"current_trial": 179, "trialdata": {"rt": -1, "trial_type": "single-stim", "stimulus": "<p id=\"stim\">5</p>", "internal_node_id": "0.0-129.0-5.0", "time_elapsed": 1046345, "key_press": -1, "trial_index": 179}, "uniqueid": "MTK3605:3UNH76FOCTCYGDO46BXBMKL2PNJYMH", "dateTime": 1520803079639}, {"current_trial": 180, "trialdata": {"rt": -1, "trial_type": "single-stim", "stimulus": "<p id=\"stim\">4</p>", "internal_node_id": "0.0-129.0-6.0", "time_elapsed": 1047349, "key_press": -1, "trial_index": 180}, "uniqueid": "MTK3605:3UNH76FOCTCYGDO46BXBMKL2PNJYMH", "dateTime": 1520803080644}, {"current_trial": 181, "trialdata": {"rt": -1, "trial_type": "single-stim", "stimulus": "<p id=\"stim\">3</p>", "internal_node_id": "0.0-129.0-7.0", "time_elapsed": 1048354, "key_press": -1, "trial_index": 181}, "uniqueid": "MTK3605:3UNH76FOCTCYGDO46BXBMKL2PNJYMH", "dateTime": 1520803081648}, {"current_trial": 182, "trialdata": {"rt": -1, "trial_type": "single-stim", "stimulus": "<p id=\"stim\">2</p>", "internal_node_id": "0.0-129.0-8.0", "time_elapsed": 1049358, "key_press": -1, "trial_index": 182}, "uniqueid": "MTK3605:3UNH76FOCTCYGDO46BXBMKL2PNJYMH", "dateTime": 1520803082652}, {"current_trial": 183, "trialdata": {"rt": -1, "trial_type": "single-stim", "stimulus": "<p id=\"stim\">1</p>", "internal_node_id": "0.0-129.0-9.0", "time_elapsed": 1050361, "key_press": -1, "trial_index": 183}, "uniqueid": "MTK3605:3UNH76FOCTCYGDO46BXBMKL2PNJYMH", "dateTime": 1520803083655}, {"current_trial": 184, "trialdata": {"rt": -1, "trial_type": "single-stim", "stimulus": "<p id=\"stim\">+</p>", "internal_node_id": "0.0-130.0-0.0", "time_elapsed": 1051864, "key_press": -1, "type": "FIXATION", "trial_index": 184}, "uniqueid": "MTK3605:3UNH76FOCTCYGDO46BXBMKL2PNJYMH", "dateTime": 1520803085159}, {"current_trial": 185, "trialdata": {"rt": -1, "trial_type": "single-stim", "word": "goblin", "stimulus": "<p id=\"stim\">GOBLIN</p>", "conditions": [12, 1600, "v", 24000], "internal_node_id": "0.0-131.0", "trial": 5, "time_elapsed": 1053465, "serialpos": 0, "key_press": -1, "wordID": 644, "type": "PRES_VIS", "trial_index": 185}, "uniqueid": "MTK3605:3UNH76FOCTCYGDO46BXBMKL2PNJYMH", "dateTime": 1520803086760}, {"current_trial": 186, "trialdata": {"rt": -1, "trial_type": "single-stim", "word": "transplant", "stimulus": "<p id=\"stim\">TRANSPLANT</p>", "conditions": [12, 1600, "v", 24000], "internal_node_id": "0.0-132.0", "trial": 5, "time_elapsed": 1056125, "serialpos": 1, "key_press": -1, "wordID": 1495, "type": "PRES_VIS", "trial_index": 186}, "uniqueid": "MTK3605:3UNH76FOCTCYGDO46BXBMKL2PNJYMH", "dateTime": 1520803089419}, {"current_trial": 187, "trialdata": {"rt": -1, "trial_type": "single-stim", "word": "rod", "stimulus": "<p id=\"stim\">ROD</p>", "conditions": [12, 1600, "v", 24000], "internal_node_id": "0.0-133.0", "trial": 5, "time_elapsed": 1058574, "serialpos": 2, "key_press": -1, "wordID": 1202, "type": "PRES_VIS", "trial_index": 187}, "uniqueid": "MTK3605:3UNH76FOCTCYGDO46BXBMKL2PNJYMH", "dateTime": 1520803091868}, {"current_trial": 188, "trialdata": {"rt": -1, "trial_type": "single-stim", "word": "motor", "stimulus": "<p id=\"stim\">MOTOR</p>", "conditions": [12, 1600, "v", 24000], "internal_node_id": "0.0-134.0", "trial": 5, "time_elapsed": 1061081, "serialpos": 3, "key_press": -1, "wordID": 921, "type": "PRES_VIS", "trial_index": 188}, "uniqueid": "MTK3605:3UNH76FOCTCYGDO46BXBMKL2PNJYMH", "dateTime": 1520803094375}, {"current_trial": 189, "trialdata": {"rt": -1, "trial_type": "single-stim", "word": "orange", "stimulus": "<p id=\"stim\">ORANGE</p>", "conditions": [12, 1600, "v", 24000], "internal_node_id": "0.0-135.0", "trial": 5, "time_elapsed": 1063782, "serialpos": 4, "key_press": -1, "wordID": 979, "type": "PRES_VIS", "trial_index": 189}, "uniqueid": "MTK3605:3UNH76FOCTCYGDO46BXBMKL2PNJYMH", "dateTime": 1520803097076}, {"current_trial": 190, "trialdata": {"rt": -1, "trial_type": "single-stim", "word": "dorm", "stimulus": "<p id=\"stim\">DORM</p>", "conditions": [12, 1600, "v", 24000], "internal_node_id": "0.0-136.0", "trial": 5, "time_elapsed": 1066381, "serialpos": 5, "key_press": -1, "wordID": 487, "type": "PRES_VIS", "trial_index": 190}, "uniqueid": "MTK3605:3UNH76FOCTCYGDO46BXBMKL2PNJYMH", "dateTime": 1520803099675}, {"current_trial": 191, "trialdata": {"rt": -1, "trial_type": "single-stim", "word": "student", "stimulus": "<p id=\"stim\">STUDENT</p>", "conditions": [12, 1600, "v", 24000], "internal_node_id": "0.0-137.0", "trial": 5, "time_elapsed": 1068845, "serialpos": 6, "key_press": -1, "wordID": 1394, "type": "PRES_VIS", "trial_index": 191}, "uniqueid": "MTK3605:3UNH76FOCTCYGDO46BXBMKL2PNJYMH", "dateTime": 1520803102139}, {"current_trial": 192, "trialdata": {"rt": -1, "trial_type": "single-stim", "word": "creature", "stimulus": "<p id=\"stim\">CREATURE</p>", "conditions": [12, 1600, "v", 24000], "internal_node_id": "0.0-138.0", "trial": 5, "time_elapsed": 1071471, "serialpos": 7, "key_press": -1, "wordID": 402, "type": "PRES_VIS", "trial_index": 192}, "uniqueid": "MTK3605:3UNH76FOCTCYGDO46BXBMKL2PNJYMH", "dateTime": 1520803104765}, {"current_trial": 193, "trialdata": {"rt": -1, "trial_type": "single-stim", "word": "piston", "stimulus": "<p id=\"stim\">PISTON</p>", "conditions": [12, 1600, "v", 24000], "internal_node_id": "0.0-139.0", "trial": 5, "time_elapsed": 1073943, "serialpos": 8, "key_press": -1, "wordID": 1075, "type": "PRES_VIS", "trial_index": 193}, "uniqueid": "MTK3605:3UNH76FOCTCYGDO46BXBMKL2PNJYMH", "dateTime": 1520803107237}, {"current_trial": 194, "trialdata": {"rt": -1, "trial_type": "single-stim", "word": "hound", "stimulus": "<p id=\"stim\">HOUND</p>", "conditions": [12, 1600, "v", 24000], "internal_node_id": "0.0-140.0", "trial": 5, "time_elapsed": 1076747, "serialpos": 9, "key_press": -1, "wordID": 723, "type": "PRES_VIS", "trial_index": 194}, "uniqueid": "MTK3605:3UNH76FOCTCYGDO46BXBMKL2PNJYMH", "dateTime": 1520803110041}, {"current_trial": 195, "trialdata": {"rt": -1, "trial_type": "single-stim", "word": "umpire", "stimulus": "<p id=\"stim\">UMPIRE</p>", "conditions": [12, 1600, "v", 24000], "internal_node_id": "0.0-141.0", "trial": 5, "time_elapsed": 1079347, "serialpos": 10, "key_press": -1, "wordID": 1534, "type": "PRES_VIS", "trial_index": 195}, "uniqueid": "MTK3605:3UNH76FOCTCYGDO46BXBMKL2PNJYMH", "dateTime": 1520803112641}, {"current_trial": 196, "trialdata": {"rt": -1, "trial_type": "single-stim", "word": "fox", "stimulus": "<p id=\"stim\">FOX</p>", "conditions": [12, 1600, "v", 24000], "internal_node_id": "0.0-142.0", "trial": 5, "time_elapsed": 1081953, "serialpos": 11, "key_press": -1, "wordID": 597, "type": "PRES_VIS", "trial_index": 196}, "uniqueid": "MTK3605:3UNH76FOCTCYGDO46BXBMKL2PNJYMH", "dateTime": 1520803115247}, {"current_trial": 197, "trialdata": {"rt": -1, "trial_type": "single-stim", "stimulus": "", "internal_node_id": "0.0-143.0-0.0", "time_elapsed": 1084089, "key_press": -1, "type": "PRE_RECALL_DELAY", "trial_index": 197}, "uniqueid": "MTK3605:3UNH76FOCTCYGDO46BXBMKL2PNJYMH", "dateTime": 1520803117383}, {"current_trial": 198, "trialdata": {"rt": -1000, "trial_type": "single-audio", "stimulus": "/static/audio/400Hz.wav", "internal_node_id": "0.0-144.0", "time_elapsed": 1084591, "key_press": -1, "type": "PRE_RECALL_ALERT", "trial_index": 198}, "uniqueid": "MTK3605:3UNH76FOCTCYGDO46BXBMKL2PNJYMH", "dateTime": 1520803117885}, {"current_trial": 199, "trialdata": {"rt": [5935, 7641, 12554, 18529], "recwords": ["creature", "fox", "hound", "goblin"], "key_times": [2026, 2222, 2310, 2482, 2663, 2933, 3073, 3217, 5935, 6549, 6908, 7320, 7641, 10999, 11299, 11524, 11865, 12189, 12554, 16120, 16508, 17065, 17461, 17672, 18197, 18529], "trial_type": "free-recall", "conditions": [12, 1600, "v", 24000], "internal_node_id": "0.0-145.0-0.0", "key_presses": [67, 82, 69, 65, 84, 85, 82, 69, 13, 70, 79, 88, 13, 72, 79, 85, 78, 68, 13, 71, 79, 66, 76, 73, 78, 13], "trial": 5, "time_elapsed": 1144594, "type": "FREE_RECALL", "trial_index": 199}, "uniqueid": "MTK3605:3UNH76FOCTCYGDO46BXBMKL2PNJYMH", "dateTime": 1520803177891}, {"current_trial": 200, "trialdata": {"rt": 449209, "trial_type": "text", "internal_node_id": "0.0-146.0", "time_elapsed": 1595812, "key_press": 83, "type": "INSTRUCTIONS", "trial_index": 200}, "uniqueid": "MTK3605:3UNH76FOCTCYGDO46BXBMKL2PNJYMH", "dateTime": 1520803629106}, {"current_trial": 201, "trialdata": {"rt": [1534, 3407, 4980, 6943, 10380, 13049, 15112, 16364, 19299, 20718, 22597], "trial_type": "math-distractor", "key_times": [1212, 1333, 1534, 3139, 3294, 3407, 4980, 6572, 6748, 6943, 9797, 10144, 10380, 12695, 12922, 13049, 14024, 14136, 14230, 14746, 14912, 14972, 15112, 16215, 16364, 18585, 18900, 19299, 20500, 20592, 20718, 22165, 22412, 22597], "responses": ["13", "15", "", "10", "17", "16", "13", "4", "16", "12", "20"], "num2": [8, 8, 6, 4, 7, 9, 5, 1, 2, 2, 9, 5], "num3": [1, 2, 6, 1, 8, 3, 3, 2, 7, 9, 9, 6], "conditions": [24, 1600, "v", 24000], "internal_node_id": "0.0-147.0", "key_presses": [49, 51, 13, 49, 53, 13, 13, 49, 48, 13, 49, 55, 13, 49, 54, 13, 49, 52, 51, 8, 8, 51, 13, 52, 13, 49, 54, 13, 49, 50, 13, 50, 48, 13], "trial": 6, "time_elapsed": 1621822, "type": "DISTRACTOR", "trial_index": 201, "num1": [4, 5, 1, 5, 2, 4, 5, 1, 7, 1, 2, 3]}, "uniqueid": "MTK3605:3UNH76FOCTCYGDO46BXBMKL2PNJYMH", "dateTime": 1520803655116}, {"current_trial": 202, "trialdata": {"rt": -1, "trial_type": "single-stim", "stimulus": "<p id=\"stim\">10</p>", "internal_node_id": "0.0-148.0-0.0", "time_elapsed": 1624828, "key_press": -1, "trial_index": 202}, "uniqueid": "MTK3605:3UNH76FOCTCYGDO46BXBMKL2PNJYMH", "dateTime": 1520803658122}, {"current_trial": 203, "trialdata": {"rt": -1, "trial_type": "single-stim", "stimulus": "<p id=\"stim\">9</p>", "internal_node_id": "0.0-148.0-1.0", "time_elapsed": 1625833, "key_press": -1, "trial_index": 203}, "uniqueid": "MTK3605:3UNH76FOCTCYGDO46BXBMKL2PNJYMH", "dateTime": 1520803659127}, {"current_trial": 204, "trialdata": {"rt": -1, "trial_type": "single-stim", "stimulus": "<p id=\"stim\">8</p>", "internal_node_id": "0.0-148.0-2.0", "time_elapsed": 1626837, "key_press": -1, "trial_index": 204}, "uniqueid": "MTK3605:3UNH76FOCTCYGDO46BXBMKL2PNJYMH", "dateTime": 1520803660131}, {"current_trial": 205, "trialdata": {"rt": -1, "trial_type": "single-stim", "stimulus": "<p id=\"stim\">7</p>", "internal_node_id": "0.0-148.0-3.0", "time_elapsed": 1627840, "key_press": -1, "trial_index": 205}, "uniqueid": "MTK3605:3UNH76FOCTCYGDO46BXBMKL2PNJYMH", "dateTime": 1520803661135}, {"current_trial": 206, "trialdata": {"rt": -1, "trial_type": "single-stim", "stimulus": "<p id=\"stim\">6</p>", "internal_node_id": "0.0-148.0-4.0", "time_elapsed": 1628845, "key_press": -1, "trial_index": 206}, "uniqueid": "MTK3605:3UNH76FOCTCYGDO46BXBMKL2PNJYMH", "dateTime": 1520803662139}, {"current_trial": 207, "trialdata": {"rt": -1, "trial_type": "single-stim", "stimulus": "<p id=\"stim\">5</p>", "internal_node_id": "0.0-148.0-5.0", "time_elapsed": 1629849, "key_press": -1, "trial_index": 207}, "uniqueid": "MTK3605:3UNH76FOCTCYGDO46BXBMKL2PNJYMH", "dateTime": 1520803663143}, {"current_trial": 208, "trialdata": {"rt": -1, "trial_type": "single-stim", "stimulus": "<p id=\"stim\">4</p>", "internal_node_id": "0.0-148.0-6.0", "time_elapsed": 1630854, "key_press": -1, "trial_index": 208}, "uniqueid": "MTK3605:3UNH76FOCTCYGDO46BXBMKL2PNJYMH", "dateTime": 1520803664148}, {"current_trial": 209, "trialdata": {"rt": -1, "trial_type": "single-stim", "stimulus": "<p id=\"stim\">3</p>", "internal_node_id": "0.0-148.0-7.0", "time_elapsed": 1631857, "key_press": -1, "trial_index": 209}, "uniqueid": "MTK3605:3UNH76FOCTCYGDO46BXBMKL2PNJYMH", "dateTime": 1520803665151}, {"current_trial": 210, "trialdata": {"rt": -1, "trial_type": "single-stim", "stimulus": "<p id=\"stim\">2</p>", "internal_node_id": "0.0-148.0-8.0", "time_elapsed": 1632861, "key_press": -1, "trial_index": 210}, "uniqueid": "MTK3605:3UNH76FOCTCYGDO46BXBMKL2PNJYMH", "dateTime": 1520803666155}, {"current_trial": 211, "trialdata": {"rt": -1, "trial_type": "single-stim", "stimulus": "<p id=\"stim\">1</p>", "internal_node_id": "0.0-148.0-9.0", "time_elapsed": 1633865, "key_press": -1, "trial_index": 211}, "uniqueid": "MTK3605:3UNH76FOCTCYGDO46BXBMKL2PNJYMH", "dateTime": 1520803667160}, {"current_trial": 212, "trialdata": {"rt": -1, "trial_type": "single-stim", "stimulus": "<p id=\"stim\">+</p>", "internal_node_id": "0.0-149.0-0.0", "time_elapsed": 1635369, "key_press": -1, "type": "FIXATION", "trial_index": 212}, "uniqueid": "MTK3605:3UNH76FOCTCYGDO46BXBMKL2PNJYMH", "dateTime": 1520803668663}, {"current_trial": 213, "trialdata": {"rt": -1, "trial_type": "single-stim", "word": "woman", "stimulus": "<p id=\"stim\">WOMAN</p>", "conditions": [24, 1600, "v", 24000], "internal_node_id": "0.0-150.0", "trial": 6, "time_elapsed": 1636971, "serialpos": 0, "key_press": -1, "wordID": 1619, "type": "PRES_VIS", "trial_index": 213}, "uniqueid": "MTK3605:3UNH76FOCTCYGDO46BXBMKL2PNJYMH", "dateTime": 1520803670265}, {"current_trial": 214, "trialdata": {"rt": -1, "trial_type": "single-stim", "word": "record", "stimulus": "<p id=\"stim\">RECORD</p>", "conditions": [24, 1600, "v", 24000], "internal_node_id": "0.0-151.0", "trial": 6, "time_elapsed": 1639472, "serialpos": 1, "key_press": -1, "wordID": 1175, "type": "PRES_VIS", "trial_index": 214}, "uniqueid": "MTK3605:3UNH76FOCTCYGDO46BXBMKL2PNJYMH", "dateTime": 1520803672766}, {"current_trial": 215, "trialdata": {"rt": -1, "trial_type": "single-stim", "word": "puddle", "stimulus": "<p id=\"stim\">PUDDLE</p>", "conditions": [24, 1600, "v", 24000], "internal_node_id": "0.0-152.0", "trial": 6, "time_elapsed": 1642019, "serialpos": 2, "key_press": -1, "wordID": 1139, "type": "PRES_VIS", "trial_index": 215}, "uniqueid": "MTK3605:3UNH76FOCTCYGDO46BXBMKL2PNJYMH", "dateTime": 1520803675313}, {"current_trial": 216, "trialdata": {"rt": -1, "trial_type": "single-stim", "word": "uncle", "stimulus": "<p id=\"stim\">UNCLE</p>", "conditions": [24, 1600, "v", 24000], "internal_node_id": "0.0-153.0", "trial": 6, "time_elapsed": 1644731, "serialpos": 3, "key_press": -1, "wordID": 1535, "type": "PRES_VIS", "trial_index": 216}, "uniqueid": "MTK3605:3UNH76FOCTCYGDO46BXBMKL2PNJYMH", "dateTime": 1520803678025}, {"current_trial": 217, "trialdata": {"rt": -1, "trial_type": "single-stim", "word": "glove", "stimulus": "<p id=\"stim\">GLOVE</p>", "conditions": [24, 1600, "v", 24000], "internal_node_id": "0.0-154.0", "trial": 6, "time_elapsed": 1647364, "serialpos": 4, "key_press": -1, "wordID": 641, "type": "PRES_VIS", "trial_index": 217}, "uniqueid": "MTK3605:3UNH76FOCTCYGDO46BXBMKL2PNJYMH", "dateTime": 1520803680661}, {"current_trial": 218, "trialdata": {"rt": -1, "trial_type": "single-stim", "word": "canal", "stimulus": "<p id=\"stim\">CANAL</p>", "conditions": [24, 1600, "v", 24000], "internal_node_id": "0.0-155.0", "trial": 6, "time_elapsed": 1650000, "serialpos": 5, "key_press": -1, "wordID": 225, "type": "PRES_VIS", "trial_index": 218}, "uniqueid": "MTK3605:3UNH76FOCTCYGDO46BXBMKL2PNJYMH", "dateTime": 1520803683294}, {"current_trial": 219, "trialdata": {"rt": -1, "trial_type": "single-stim", "word": "lake", "stimulus": "<p id=\"stim\">LAKE</p>", "conditions": [24, 1600, "v", 24000], "internal_node_id": "0.0-156.0", "trial": 6, "time_elapsed": 1652520, "serialpos": 6, "key_press": -1, "wordID": 795, "type": "PRES_VIS", "trial_index": 219}, "uniqueid": "MTK3605:3UNH76FOCTCYGDO46BXBMKL2PNJYMH", "dateTime": 1520803685814}, {"current_trial": 220, "trialdata": {"rt": -1, "trial_type": "single-stim", "word": "beast", "stimulus": "<p id=\"stim\">BEAST</p>", "conditions": [24, 1600, "v", 24000], "internal_node_id": "0.0-157.0", "trial": 6, "time_elapsed": 1654946, "serialpos": 7, "key_press": -1, "wordID": 107, "type": "PRES_VIS", "trial_index": 220}, "uniqueid": "MTK3605:3UNH76FOCTCYGDO46BXBMKL2PNJYMH", "dateTime": 1520803688240}, {"current_trial": 221, "trialdata": {"rt": -1, "trial_type": "single-stim", "word": "wife", "stimulus": "<p id=\"stim\">WIFE</p>", "conditions": [24, 1600, "v", 24000], "internal_node_id": "0.0-158.0", "trial": 6, "time_elapsed": 1657529, "serialpos": 8, "key_press": -1, "wordID": 1608, "type": "PRES_VIS", "trial_index": 221}, "uniqueid": "MTK3605:3UNH76FOCTCYGDO46BXBMKL2PNJYMH", "dateTime": 1520803690823}, {"current_trial": 222, "trialdata": {"rt": -1, "trial_type": "single-stim", "word": "shirt", "stimulus": "<p id=\"stim\">SHIRT</p>", "conditions": [24, 1600, "v", 24000], "internal_node_id": "0.0-159.0", "trial": 6, "time_elapsed": 1660055, "serialpos": 9, "key_press": -1, "wordID": 1286, "type": "PRES_VIS", "trial_index": 222}, "uniqueid": "MTK3605:3UNH76FOCTCYGDO46BXBMKL2PNJYMH", "dateTime": 1520803693349}, {"current_trial": 223, "trialdata": {"rt": -1, "trial_type": "single-stim", "word": "hero", "stimulus": "<p id=\"stim\">HERO</p>", "conditions": [24, 1600, "v", 24000], "internal_node_id": "0.0-160.0", "trial": 6, "time_elapsed": 1662827, "serialpos": 10, "key_press": -1, "wordID": 705, "type": "PRES_VIS", "trial_index": 223}, "uniqueid": "MTK3605:3UNH76FOCTCYGDO46BXBMKL2PNJYMH", "dateTime": 1520803696121}, {"current_trial": 224, "trialdata": {"rt": -1, "trial_type": "single-stim", "word": "doughnut", "stimulus": "<p id=\"stim\">DOUGHNUT</p>", "conditions": [24, 1600, "v", 24000], "internal_node_id": "0.0-161.0", "trial": 6, "time_elapsed": 1665508, "serialpos": 11, "key_press": -1, "wordID": 489, "type": "PRES_VIS", "trial_index": 224}, "uniqueid": "MTK3605:3UNH76FOCTCYGDO46BXBMKL2PNJYMH", "dateTime": 1520803698802}, {"current_trial": 225, "trialdata": {"rt": -1, "trial_type": "single-stim", "word": "hedge", "stimulus": "<p id=\"stim\">HEDGE</p>", "conditions": [24, 1600, "v", 24000], "internal_node_id": "0.0-162.0", "trial": 6, "time_elapsed": 1668259, "serialpos": 12, "key_press": -1, "wordID": 698, "type": "PRES_VIS", "trial_index": 225}, "uniqueid": "MTK3605:3UNH76FOCTCYGDO46BXBMKL2PNJYMH", "dateTime": 1520803701553}, {"current_trial": 226, "trialdata": {"rt": -1, "trial_type": "single-stim", "word": "custard", "stimulus": "<p id=\"stim\">CUSTARD</p>", "conditions": [24, 1600, "v", 24000], "internal_node_id": "0.0-163.0", "trial": 6, "time_elapsed": 1670802, "serialpos": 13, "key_press": -1, "wordID": 428, "type": "PRES_VIS", "trial_index": 226}, "uniqueid": "MTK3605:3UNH76FOCTCYGDO46BXBMKL2PNJYMH", "dateTime": 1520803704097}, {"current_trial": 227, "trialdata": {"rt": -1, "trial_type": "single-stim", "word": "sidewalk", "stimulus": "<p id=\"stim\">SIDEWALK</p>", "conditions": [24, 1600, "v", 24000], "internal_node_id": "0.0-164.0", "trial": 6, "time_elapsed": 1673473, "serialpos": 14, "key_press": -1, "wordID": 1302, "type": "PRES_VIS", "trial_index": 227}, "uniqueid": "MTK3605:3UNH76FOCTCYGDO46BXBMKL2PNJYMH", "dateTime": 1520803706767}, {"current_trial": 228, "trialdata": {"rt": -1, "trial_type": "single-stim", "word": "plaza", "stimulus": "<p id=\"stim\">PLAZA</p>", "conditions": [24, 1600, "v", 24000], "internal_node_id": "0.0-165.0", "trial": 6, "time_elapsed": 1676194, "serialpos": 15, "key_press": -1, "wordID": 1087, "type": "PRES_VIS", "trial_index": 228}, "uniqueid": "MTK3605:3UNH76FOCTCYGDO46BXBMKL2PNJYMH", "dateTime": 1520803709488}, {"current_trial": 229, "trialdata": {"rt": -1, "trial_type": "single-stim", "word": "rooster", "stimulus": "<p id=\"stim\">ROOSTER</p>", "conditions": [24, 1600, "v", 24000], "internal_node_id": "0.0-166.0", "trial": 6, "time_elapsed": 1678621, "serialpos": 16, "key_press": -1, "wordID": 1208, "type": "PRES_VIS", "trial_index": 229}, "uniqueid": "MTK3605:3UNH76FOCTCYGDO46BXBMKL2PNJYMH", "dateTime": 1520803711915}, {"current_trial": 230, "trialdata": {"rt": -1, "trial_type": "single-stim", "word": "outdoors", "stimulus": "<p id=\"stim\">OUTDOORS</p>", "conditions": [24, 1600, "v", 24000], "internal_node_id": "0.0-167.0", "trial": 6, "time_elapsed": 1681343, "serialpos": 17, "key_press": -1, "wordID": 986, "type": "PRES_VIS", "trial_index": 230}, "uniqueid": "MTK3605:3UNH76FOCTCYGDO46BXBMKL2PNJYMH", "dateTime": 1520803714637}, {"current_trial": 231, "trialdata": {"rt": -1, "trial_type": "single-stim", "word": "kleenex", "stimulus": "<p id=\"stim\">KLEENEX</p>", "conditions": [24, 1600, "v", 24000], "internal_node_id": "0.0-168.0", "trial": 6, "time_elapsed": 1684138, "serialpos": 18, "key_press": -1, "wordID": 781, "type": "PRES_VIS", "trial_index": 231}, "uniqueid": "MTK3605:3UNH76FOCTCYGDO46BXBMKL2PNJYMH", "dateTime": 1520803717432}, {"current_trial": 232, "trialdata": {"rt": -1, "trial_type": "single-stim", "word": "shortcake", "stimulus": "<p id=\"stim\">SHORTCAKE</p>", "conditions": [24, 1600, "v", 24000], "internal_node_id": "0.0-169.0", "trial": 6, "time_elapsed": 1686828, "serialpos": 19, "key_press": -1, "wordID": 1291, "type": "PRES_VIS", "trial_index": 232}, "uniqueid": "MTK3605:3UNH76FOCTCYGDO46BXBMKL2PNJYMH", "dateTime": 1520803720122}, {"current_trial": 233, "trialdata": {"rt": -1, "trial_type": "single-stim", "word": "body", "stimulus": "<p id=\"stim\">BODY</p>", "conditions": [24, 1600, "v", 24000], "internal_node_id": "0.0-170.0", "trial": 6, "time_elapsed": 1689561, "serialpos": 20, "key_press": -1, "wordID": 144, "type": "PRES_VIS", "trial_index": 233}, "uniqueid": "MTK3605:3UNH76FOCTCYGDO46BXBMKL2PNJYMH", "dateTime": 1520803722855}, {"current_trial": 234, "trialdata": {"rt": -1, "trial_type": "single-stim", "word": "liver", "stimulus": "<p id=\"stim\">LIVER</p>", "conditions": [24, 1600, "v", 24000], "internal_node_id": "0.0-171.0", "trial": 6, "time_elapsed": 1692359, "serialpos": 21, "key_press": -1, "wordID": 832, "type": "PRES_VIS", "trial_index": 234}, "uniqueid": "MTK3605:3UNH76FOCTCYGDO46BXBMKL2PNJYMH", "dateTime": 1520803725653}, {"current_trial": 235, "trialdata": {"rt": -1, "trial_type": "single-stim", "word": "piano", "stimulus": "<p id=\"stim\">PIANO</p>", "conditions": [24, 1600, "v", 24000], "internal_node_id": "0.0-172.0", "trial": 6, "time_elapsed": 1694827, "serialpos": 22, "key_press": -1, "wordID": 1056, "type": "PRES_VIS", "trial_index": 235}, "uniqueid": "MTK3605:3UNH76FOCTCYGDO46BXBMKL2PNJYMH", "dateTime": 1520803728121}, {"current_trial": 236, "trialdata": {"rt": -1, "trial_type": "single-stim", "word": "scribble", "stimulus": "<p id=\"stim\">SCRIBBLE</p>", "conditions": [24, 1600, "v", 24000], "internal_node_id": "0.0-173.0", "trial": 6, "time_elapsed": 1697280, "serialpos": 23, "key_press": -1, "wordID": 1255, "type": "PRES_VIS", "trial_index": 236}, "uniqueid": "MTK3605:3UNH76FOCTCYGDO46BXBMKL2PNJYMH", "dateTime": 1520803730574}, {"current_trial": 237, "trialdata": {"rt": -1, "trial_type": "single-stim", "stimulus": "", "internal_node_id": "0.0-174.0-0.0", "time_elapsed": 1699585, "key_press": -1, "type": "PRE_RECALL_DELAY", "trial_index": 237}, "uniqueid": "MTK3605:3UNH76FOCTCYGDO46BXBMKL2PNJYMH", "dateTime": 1520803732879}, {"current_trial": 238, "trialdata": {"rt": -1000, "trial_type": "single-audio", "stimulus": "/static/audio/400Hz.wav", "internal_node_id": "0.0-175.0", "time_elapsed": 1700085, "key_press": -1, "type": "PRE_RECALL_ALERT", "trial_index": 238}, "uniqueid": "MTK3605:3UNH76FOCTCYGDO46BXBMKL2PNJYMH", "dateTime": 1520803733380}, {"current_trial": 239, "trialdata": {"rt": [1969, 4103, 5273, 15014, 27227, 34924], "recwords": ["scribble", "liver", "piano", "scribble", "word", "woman"], "key_times": [542, 741, 921, 1073, 1220, 1405, 1543, 1701, 1969, 2315, 2601, 2867, 3135, 3290, 3466, 3587, 3786, 3903, 4103, 4396, 4505, 4675, 4846, 4990, 5273, 13348, 13560, 13750, 13946, 14532, 14678, 14802, 14878, 15014, 26580, 26679, 26824, 27104, 27227, 33881, 34141, 34304, 34444, 34605, 34924], "trial_type": "free-recall", "conditions": [24, 1600, "v", 24000], "internal_node_id": "0.0-176.0-0.0", "key_presses": [83, 67, 82, 73, 66, 66, 76, 69, 32, 76, 86, 69, 8, 8, 73, 86, 69, 82, 13, 80, 73, 65, 78, 79, 13, 83, 67, 82, 73, 66, 66, 76, 69, 13, 87, 79, 82, 68, 13, 87, 79, 77, 65, 78, 13], "trial": 6, "time_elapsed": 1760090, "type": "FREE_RECALL", "trial_index": 239}, "uniqueid": "MTK3605:3UNH76FOCTCYGDO46BXBMKL2PNJYMH", "dateTime": 1520803793388}, {"current_trial": 240, "trialdata": {"rt": 225399, "trial_type": "text", "internal_node_id": "0.0-177.0", "time_elapsed": 1987497, "key_press": 68, "type": "INSTRUCTIONS", "trial_index": 240}, "uniqueid": "MTK3605:3UNH76FOCTCYGDO46BXBMKL2PNJYMH", "dateTime": 1520804020791}, {"current_trial": 241, "trialdata": {"rt": [2190, 6605, 8954, 10922, 12289, 14377, 15918, 17009, 19044, 20837, 22821], "trial_type": "math-distractor", "key_times": [1954, 2190, 6169, 6381, 6605, 8600, 8696, 8954, 10505, 10714, 10922, 12120, 12289, 13993, 14197, 14377, 15727, 15918, 16808, 16904, 17009, 18636, 18899, 19044, 20645, 20837, 22355, 22649, 22821], "responses": ["1", "20", "13", "18", "9", "17", "8", "12", "14", "9", "22"], "num2": [1, 9, 3, 1, 3, 2, 5, 5, 4, 5, 9, 1], "num3": [7, 4, 1, 9, 6, 9, 1, 2, 8, 2, 5, 8], "conditions": [12, 800, "v", 24000], "internal_node_id": "0.0-178.0", "key_presses": [49, 13, 50, 48, 13, 49, 51, 13, 49, 56, 13, 57, 13, 49, 55, 13, 56, 13, 49, 50, 13, 49, 52, 13, 57, 13, 50, 50, 13], "trial": 7, "time_elapsed": 2013504, "type": "DISTRACTOR", "trial_index": 241, "num1": [4, 7, 9, 8, 3, 6, 2, 5, 2, 2, 8, 4]}, "uniqueid": "MTK3605:3UNH76FOCTCYGDO46BXBMKL2PNJYMH", "dateTime": 1520804046798}, {"current_trial": 242, "trialdata": {"rt": -1, "trial_type": "single-stim", "stimulus": "<p id=\"stim\">10</p>", "internal_node_id": "0.0-179.0-0.0", "time_elapsed": 2016511, "key_press": -1, "trial_index": 242}, "uniqueid": "MTK3605:3UNH76FOCTCYGDO46BXBMKL2PNJYMH", "dateTime": 1520804049805}, {"current_trial": 243, "trialdata": {"rt": -1, "trial_type": "single-stim", "stimulus": "<p id=\"stim\">9</p>", "internal_node_id": "0.0-179.0-1.0", "time_elapsed": 2017514, "key_press": -1, "trial_index": 243}, "uniqueid": "MTK3605:3UNH76FOCTCYGDO46BXBMKL2PNJYMH", "dateTime": 1520804050809}, {"current_trial": 244, "trialdata": {"rt": -1, "trial_type": "single-stim", "stimulus": "<p id=\"stim\">8</p>", "internal_node_id": "0.0-179.0-2.0", "time_elapsed": 2018519, "key_press": -1, "trial_index": 244}, "uniqueid": "MTK3605:3UNH76FOCTCYGDO46BXBMKL2PNJYMH", "dateTime": 1520804051813}, {"current_trial": 245, "trialdata": {"rt": -1, "trial_type": "single-stim", "stimulus": "<p id=\"stim\">7</p>", "internal_node_id": "0.0-179.0-3.0", "time_elapsed": 2019522, "key_press": -1, "trial_index": 245}, "uniqueid": "MTK3605:3UNH76FOCTCYGDO46BXBMKL2PNJYMH", "dateTime": 1520804052817}, {"current_trial": 246, "trialdata": {"rt": -1, "trial_type": "single-stim", "stimulus": "<p id=\"stim\">6</p>", "internal_node_id": "0.0-179.0-4.0", "time_elapsed": 2020526, "key_press": -1, "trial_index": 246}, "uniqueid": "MTK3605:3UNH76FOCTCYGDO46BXBMKL2PNJYMH", "dateTime": 1520804053820}, {"current_trial": 247, "trialdata": {"rt": -1, "trial_type": "single-stim", "stimulus": "<p id=\"stim\">5</p>", "internal_node_id": "0.0-179.0-5.0", "time_elapsed": 2021529, "key_press": -1, "trial_index": 247}, "uniqueid": "MTK3605:3UNH76FOCTCYGDO46BXBMKL2PNJYMH", "dateTime": 1520804054823}, {"current_trial": 248, "trialdata": {"rt": -1, "trial_type": "single-stim", "stimulus": "<p id=\"stim\">4</p>", "internal_node_id": "0.0-179.0-6.0", "time_elapsed": 2022535, "key_press": -1, "trial_index": 248}, "uniqueid": "MTK3605:3UNH76FOCTCYGDO46BXBMKL2PNJYMH", "dateTime": 1520804055829}, {"current_trial": 249, "trialdata": {"rt": -1, "trial_type": "single-stim", "stimulus": "<p id=\"stim\">3</p>", "internal_node_id": "0.0-179.0-7.0", "time_elapsed": 2023539, "key_press": -1, "trial_index": 249}, "uniqueid": "MTK3605:3UNH76FOCTCYGDO46BXBMKL2PNJYMH", "dateTime": 1520804056834}, {"current_trial": 250, "trialdata": {"rt": -1, "trial_type": "single-stim", "stimulus": "<p id=\"stim\">2</p>", "internal_node_id": "0.0-179.0-8.0", "time_elapsed": 2024543, "key_press": -1, "trial_index": 250}, "uniqueid": "MTK3605:3UNH76FOCTCYGDO46BXBMKL2PNJYMH", "dateTime": 1520804057838}, {"current_trial": 251, "trialdata": {"rt": -1, "trial_type": "single-stim", "stimulus": "<p id=\"stim\">1</p>", "internal_node_id": "0.0-179.0-9.0", "time_elapsed": 2025548, "key_press": -1, "trial_index": 251}, "uniqueid": "MTK3605:3UNH76FOCTCYGDO46BXBMKL2PNJYMH", "dateTime": 1520804058843}, {"current_trial": 252, "trialdata": {"rt": -1, "trial_type": "single-stim", "stimulus": "<p id=\"stim\">+</p>", "internal_node_id": "0.0-180.0-0.0", "time_elapsed": 2027050, "key_press": -1, "type": "FIXATION", "trial_index": 252}, "uniqueid": "MTK3605:3UNH76FOCTCYGDO46BXBMKL2PNJYMH", "dateTime": 1520804060345}, {"current_trial": 253, "trialdata": {"rt": -1, "trial_type": "single-stim", "word": "egypt", "stimulus": "<p id=\"stim\">EGYPT</p>", "conditions": [12, 800, "v", 24000], "internal_node_id": "0.0-181.0", "trial": 7, "time_elapsed": 2027858, "serialpos": 0, "key_press": -1, "wordID": 518, "type": "PRES_VIS", "trial_index": 253}, "uniqueid": "MTK3605:3UNH76FOCTCYGDO46BXBMKL2PNJYMH", "dateTime": 1520804061152}, {"current_trial": 254, "trialdata": {"rt": -1, "trial_type": "single-stim", "word": "husband", "stimulus": "<p id=\"stim\">HUSBAND</p>", "conditions": [12, 800, "v", 24000], "internal_node_id": "0.0-182.0", "trial": 7, "time_elapsed": 2029528, "serialpos": 1, "key_press": -1, "wordID": 727, "type": "PRES_VIS", "trial_index": 254}, "uniqueid": "MTK3605:3UNH76FOCTCYGDO46BXBMKL2PNJYMH", "dateTime": 1520804062824}, {"current_trial": 255, "trialdata": {"rt": -1, "trial_type": "single-stim", "word": "bullet", "stimulus": "<p id=\"stim\">BULLET</p>", "conditions": [12, 800, "v", 24000], "internal_node_id": "0.0-183.0", "trial": 7, "time_elapsed": 2031311, "serialpos": 2, "key_press": -1, "wordID": 193, "type": "PRES_VIS", "trial_index": 255}, "uniqueid": "MTK3605:3UNH76FOCTCYGDO46BXBMKL2PNJYMH", "dateTime": 1520804064605}, {"current_trial": 256, "trialdata": {"rt": -1, "trial_type": "single-stim", "word": "tractor", "stimulus": "<p id=\"stim\">TRACTOR</p>", "conditions": [12, 80