{"assignmentId": "3LEP4MGT3H7ZZBPGJQKOVJ08YS9BDM", "workerId": "MTK3790", "questiondata": {"origin": "United States", "strat-rehearsal": "48", "marital": "Divorced", "education": "Some college", "ethnicity": "Not Hispanic", "color_depth": 24, "distracted": "No", "wrote-notes": "No", "strat-other": "I tried to group them together at times according to sound or their relation to one another.", "screen_width": 1600, "avail_screen_width": 1600, "avail_screen_height": 900, "strat-image": "97", "language": "english", "gender": "Female", "age": "56", "gender_other": "", "race": ["White"], "strat-categorize": "100", "pixel_depth": 24, "strat-spatial": "11", "strat-story": "83", "race_other": "", "screen_height": 900}, "bonus": 0, "hitId": "38DCH97KHH9XJJT3M2YN4MUZ2Z9QJ3", "counterbalance": 1893, "useragent": "Mozilla/5.0 (Windows NT 10.0; Win64; x64) AppleWebKit/537.36 (KHTML, like Gecko) Chrome/65.0.3325.181 Safari/537.36", "eventdata": [{"eventtype": "initialized", "interval": 0, "value": null, "timestamp": 1524160158551}, {"eventtype": "window_resize", "interval": 0, "value": [1600, 853], "timestamp": 1524160158551}, {"eventtype": "focus", "interval": 203616, "value": "off", "timestamp": 1524160362167}, {"eventtype": "focus", "interval": 23545, "value": "on", "timestamp": 1524160385712}, {"eventtype": "focus", "interval": 1528963, "value": "off", "timestamp": 1524161914675}, {"eventtype": "focus", "interval": 14128, "value": "on", "timestamp": 1524161928803}, {"eventtype": "focus", "interval": 4574, "value": "off", "timestamp": 1524161933377}, {"eventtype": "focus", "interval": 10910, "value": "on", "timestamp": 1524161944287}, {"eventtype": "focus", "interval": 3295, "value": "off", "timestamp": 1524161947582}, {"eventtype": "focus", "interval": 38314, "value": "on", "timestamp": 1524161985896}], "data": [{"current_trial": 0, "trialdata": {"rt": 3082, "trial_type": "text", "internal_node_id": "0.0-0.0", "time_elapsed": 3084, "key_press": 32, "type": "INSTRUCTIONS", "trial_index": 0}, "uniqueid": "MTK3790:3LEP4MGT3H7ZZBPGJQKOVJ08YS9BDM", "dateTime": 1524160200545}, {"current_trial": 1, "trialdata": {"rt": 27347, "trial_type": "text", "internal_node_id": "0.0-1.0", "time_elapsed": 30434, "key_press": 32, "type": "INSTRUCTIONS", "trial_index": 1}, "uniqueid": "MTK3790:3LEP4MGT3H7ZZBPGJQKOVJ08YS9BDM", "dateTime": 1524160227894}, {"current_trial": 2, "trialdata": {"rt": [14078], "trial_type": "audio-test", "responses": ["ocean"], "internal_node_id": "0.0-2.0", "time_elapsed": 44521, "type": "AUDIO_TEST", "trial_index": 2}, "uniqueid": "MTK3790:3LEP4MGT3H7ZZBPGJQKOVJ08YS9BDM", "dateTime": 1524160241981}, {"current_trial": 3, "trialdata": {"rt": [10580], "trial_type": "audio-test", "responses": ["crystal"], "internal_node_id": "0.0-3.0", "time_elapsed": 55110, "type": "AUDIO_TEST", "trial_index": 3}, "uniqueid": "MTK3790:3LEP4MGT3H7ZZBPGJQKOVJ08YS9BDM", "dateTime": 1524160252570}, {"current_trial": 4, "trialdata": {"rt": [6881], "trial_type": "audio-test", "responses": ["spice"], "internal_node_id": "0.0-4.0", "time_elapsed": 61997, "type": "AUDIO_TEST", "trial_index": 4}, "uniqueid": "MTK3790:3LEP4MGT3H7ZZBPGJQKOVJ08YS9BDM", "dateTime": 1524160259458}, {"current_trial": 5, "trialdata": {"rt": 32576, "trial_type": "survey-text", "responses": "{\"Q0\":\"12 a.m.\",\"Q1\":\"8 a.m.\",\"Q2\":\"5\"}", "internal_node_id": "0.0-5.0", "time_elapsed": 95326, "type": "SLEEP_SURVEY", "trial_index": 5}, "uniqueid": "MTK3790:3LEP4MGT3H7ZZBPGJQKOVJ08YS9BDM", "dateTime": 1524160292786}, {"current_trial": 6, "trialdata": {"rt": 96360, "trial_type": "text", "internal_node_id": "0.0-6.0", "time_elapsed": 192688, "key_press": 13, "type": "INSTRUCTIONS", "trial_index": 6}, "uniqueid": "MTK3790:3LEP4MGT3H7ZZBPGJQKOVJ08YS9BDM", "dateTime": 1524160390148}, {"current_trial": 7, "trialdata": {"rt": 30998, "trial_type": "text", "internal_node_id": "0.0-7.0", "time_elapsed": 224191, "key_press": 13, "type": "INSTRUCTIONS", "trial_index": 7}, "uniqueid": "MTK3790:3LEP4MGT3H7ZZBPGJQKOVJ08YS9BDM", "dateTime": 1524160421652}, {"current_trial": 8, "trialdata": {"rt": 245878, "trial_type": "text", "internal_node_id": "0.0-8.0", "time_elapsed": 470572, "key_press": 13, "type": "INSTRUCTIONS", "trial_index": 8}, "uniqueid": "MTK3790:3LEP4MGT3H7ZZBPGJQKOVJ08YS9BDM", "dateTime": 1524160668032}, {"current_trial": 9, "trialdata": {"rt": [4752, 6957, 9068, 12100, 14683, 17445], "trial_type": "math-distractor", "key_times": [3503, 3841, 4752, 6494, 6957, 8699, 9068, 11410, 11686, 12100, 13987, 14241, 14683, 16774, 16980, 17445], "responses": ["13", "8", "8", "13", "16", "14"], "num2": [6, 4, 2, 7, 3, 5, 5], "num3": [2, 2, 3, 5, 6, 3, 4], "conditions": [18, 1200, "a", 18000], "internal_node_id": "0.0-9.0", "key_presses": [97, 99, 13, 104, 13, 104, 13, 97, 99, 13, 97, 102, 13, 97, 100, 13], "trial": 0, "time_elapsed": 489578, "type": "DISTRACTOR", "trial_index": 9, "num1": [5, 2, 3, 1, 7, 6, 5]}, "uniqueid": "MTK3790:3LEP4MGT3H7ZZBPGJQKOVJ08YS9BDM", "dateTime": 1524160687038}, {"current_trial": 10, "trialdata": {"rt": -1, "trial_type": "single-stim", "stimulus": "<p id=\"stim\">10</p>", "internal_node_id": "0.0-10.0-0.0", "time_elapsed": 492600, "key_press": -1, "trial_index": 10}, "uniqueid": "MTK3790:3LEP4MGT3H7ZZBPGJQKOVJ08YS9BDM", "dateTime": 1524160690060}, {"current_trial": 11, "trialdata": {"rt": -1, "trial_type": "single-stim", "stimulus": "<p id=\"stim\">9</p>", "internal_node_id": "0.0-10.0-1.0", "time_elapsed": 493618, "key_press": -1, "trial_index": 11}, "uniqueid": "MTK3790:3LEP4MGT3H7ZZBPGJQKOVJ08YS9BDM", "dateTime": 1524160691079}, {"current_trial": 12, "trialdata": {"rt": -1, "trial_type": "single-stim", "stimulus": "<p id=\"stim\">8</p>", "internal_node_id": "0.0-10.0-2.0", "time_elapsed": 494620, "key_press": -1, "trial_index": 12}, "uniqueid": "MTK3790:3LEP4MGT3H7ZZBPGJQKOVJ08YS9BDM", "dateTime": 1524160692080}, {"current_trial": 13, "trialdata": {"rt": -1, "trial_type": "single-stim", "stimulus": "<p id=\"stim\">7</p>", "internal_node_id": "0.0-10.0-3.0", "time_elapsed": 495635, "key_press": -1, "trial_index": 13}, "uniqueid": "MTK3790:3LEP4MGT3H7ZZBPGJQKOVJ08YS9BDM", "dateTime": 1524160693095}, {"current_trial": 14, "trialdata": {"rt": -1, "trial_type": "single-stim", "stimulus": "<p id=\"stim\">6</p>", "internal_node_id": "0.0-10.0-4.0", "time_elapsed": 496650, "key_press": -1, "trial_index": 14}, "uniqueid": "MTK3790:3LEP4MGT3H7ZZBPGJQKOVJ08YS9BDM", "dateTime": 1524160694111}, {"current_trial": 15, "trialdata": {"rt": -1, "trial_type": "single-stim", "stimulus": "<p id=\"stim\">5</p>", "internal_node_id": "0.0-10.0-5.0", "time_elapsed": 497664, "key_press": -1, "trial_index": 15}, "uniqueid": "MTK3790:3LEP4MGT3H7ZZBPGJQKOVJ08YS9BDM", "dateTime": 1524160695125}, {"current_trial": 16, "trialdata": {"rt": -1, "trial_type": "single-stim", "stimulus": "<p id=\"stim\">4</p>", "internal_node_id": "0.0-10.0-6.0", "time_elapsed": 498667, "key_press": -1, "trial_index": 16}, "uniqueid": "MTK3790:3LEP4MGT3H7ZZBPGJQKOVJ08YS9BDM", "dateTime": 1524160696127}, {"current_trial": 17, "trialdata": {"rt": -1, "trial_type": "single-stim", "stimulus": "<p id=\"stim\">3</p>", "internal_node_id": "0.0-10.0-7.0", "time_elapsed": 499667, "key_press": -1, "trial_index": 17}, "uniqueid": "MTK3790:3LEP4MGT3H7ZZBPGJQKOVJ08YS9BDM", "dateTime": 1524160697127}, {"current_trial": 18, "trialdata": {"rt": -1, "trial_type": "single-stim", "stimulus": "<p id=\"stim\">2</p>", "internal_node_id": "0.0-10.0-8.0", "time_elapsed": 500669, "key_press": -1, "trial_index": 18}, "uniqueid": "MTK3790:3LEP4MGT3H7ZZBPGJQKOVJ08YS9BDM", "dateTime": 1524160698129}, {"current_trial": 19, "trialdata": {"rt": -1, "trial_type": "single-stim", "stimulus": "<p id=\"stim\">1</p>", "internal_node_id": "0.0-10.0-9.0", "time_elapsed": 501668, "key_press": -1, "trial_index": 19}, "uniqueid": "MTK3790:3LEP4MGT3H7ZZBPGJQKOVJ08YS9BDM", "dateTime": 1524160699128}, {"current_trial": 20, "trialdata": {"rt": -1, "trial_type": "single-stim", "stimulus": "<p id=\"stim\">+</p>", "internal_node_id": "0.0-11.0-0.0", "time_elapsed": 503170, "key_press": -1, "type": "FIXATION", "trial_index": 20}, "uniqueid": "MTK3790:3LEP4MGT3H7ZZBPGJQKOVJ08YS9BDM", "dateTime": 1524160700630}, {"current_trial": 21, "trialdata": {"rt": -1000, "trial_type": "single-audio", "word": "garbage", "stimulus": "/static/audio/wordpool/GARBAGE.wav", "conditions": [18, 1200, "a", 18000], "internal_node_id": "0.0-12.0", "trial": 0, "time_elapsed": 505565, "serialpos": 0, "key_press": -1, "wordID": 621, "type": "PRES_AUD", "trial_index": 21}, "uniqueid": "MTK3790:3LEP4MGT3H7ZZBPGJQKOVJ08YS9BDM", "dateTime": 1524160703025}, {"current_trial": 22, "trialdata": {"rt": -1000, "trial_type": "single-audio", "word": "apron", "stimulus": "/static/audio/wordpool/APRON.wav", "conditions": [18, 1200, "a", 18000], "internal_node_id": "0.0-13.0", "trial": 0, "time_elapsed": 507840, "serialpos": 1, "key_press": -1, "wordID": 34, "type": "PRES_AUD", "trial_index": 22}, "uniqueid": "MTK3790:3LEP4MGT3H7ZZBPGJQKOVJ08YS9BDM", "dateTime": 1524160705300}, {"current_trial": 23, "trialdata": {"rt": 758.666666666727, "trial_type": "single-audio", "word": "barley", "stimulus": "/static/audio/wordpool/BARLEY.wav", "conditions": [18, 1200, "a", 18000], "internal_node_id": "0.0-14.0", "trial": 0, "time_elapsed": 509864, "serialpos": 2, "key_press": 175, "wordID": 87, "type": "PRES_AUD", "trial_index": 23}, "uniqueid": "MTK3790:3LEP4MGT3H7ZZBPGJQKOVJ08YS9BDM", "dateTime": 1524160707324}, {"current_trial": 24, "trialdata": {"rt": -60.00000000005912, "trial_type": "single-audio", "word": "portrait", "stimulus": "/static/audio/wordpool/PORTRAIT.wav", "conditions": [18, 1200, "a", 18000], "internal_node_id": "0.0-15.0", "trial": 0, "time_elapsed": 511932, "serialpos": 3, "key_press": 175, "wordID": 1110, "type": "PRES_AUD", "trial_index": 24}, "uniqueid": "MTK3790:3LEP4MGT3H7ZZBPGJQKOVJ08YS9BDM", "dateTime": 1524160709392}, {"current_trial": 25, "trialdata": {"rt": -1000, "trial_type": "single-audio", "word": "freezer", "stimulus": "/static/audio/wordpool/FREEZER.wav", "conditions": [18, 1200, "a", 18000], "internal_node_id": "0.0-16.0", "trial": 0, "time_elapsed": 514204, "serialpos": 4, "key_press": -1, "wordID": 603, "type": "PRES_AUD", "trial_index": 25}, "uniqueid": "MTK3790:3LEP4MGT3H7ZZBPGJQKOVJ08YS9BDM", "dateTime": 1524160711664}, {"current_trial": 26, "trialdata": {"rt": -1000, "trial_type": "single-audio", "word": "clamp", "stimulus": "/static/audio/wordpool/CLAMP.wav", "conditions": [18, 1200, "a", 18000], "internal_node_id": "0.0-17.0", "trial": 0, "time_elapsed": 516503, "serialpos": 5, "key_press": -1, "wordID": 315, "type": "PRES_AUD", "trial_index": 26}, "uniqueid": "MTK3790:3LEP4MGT3H7ZZBPGJQKOVJ08YS9BDM", "dateTime": 1524160713963}, {"current_trial": 27, "trialdata": {"rt": -1000, "trial_type": "single-audio", "word": "fruit", "stimulus": "/static/audio/wordpool/FRUIT.wav", "conditions": [18, 1200, "a", 18000], "internal_node_id": "0.0-18.0", "trial": 0, "time_elapsed": 518639, "serialpos": 6, "key_press": -1, "wordID": 609, "type": "PRES_AUD", "trial_index": 27}, "uniqueid": "MTK3790:3LEP4MGT3H7ZZBPGJQKOVJ08YS9BDM", "dateTime": 1524160716099}, {"current_trial": 28, "trialdata": {"rt": -1000, "trial_type": "single-audio", "word": "bathtub", "stimulus": "/static/audio/wordpool/BATHTUB.wav", "conditions": [18, 1200, "a", 18000], "internal_node_id": "0.0-19.0", "trial": 0, "time_elapsed": 520868, "serialpos": 7, "key_press": -1, "wordID": 99, "type": "PRES_AUD", "trial_index": 28}, "uniqueid": "MTK3790:3LEP4MGT3H7ZZBPGJQKOVJ08YS9BDM", "dateTime": 1524160718329}, {"current_trial": 29, "trialdata": {"rt": -1000, "trial_type": "single-audio", "word": "lumber", "stimulus": "/static/audio/wordpool/LUMBER.wav", "conditions": [18, 1200, "a", 18000], "internal_node_id": "0.0-20.0", "trial": 0, "time_elapsed": 523246, "serialpos": 8, "key_press": -1, "wordID": 847, "type": "PRES_AUD", "trial_index": 29}, "uniqueid": "MTK3790:3LEP4MGT3H7ZZBPGJQKOVJ08YS9BDM", "dateTime": 1524160720706}, {"current_trial": 30, "trialdata": {"rt": -1000, "trial_type": "single-audio", "word": "sunrise", "stimulus": "/static/audio/wordpool/SUNRISE.wav", "conditions": [18, 1200, "a", 18000], "internal_node_id": "0.0-21.0", "trial": 0, "time_elapsed": 525362, "serialpos": 9, "key_press": -1, "wordID": 1406, "type": "PRES_AUD", "trial_index": 30}, "uniqueid": "MTK3790:3LEP4MGT3H7ZZBPGJQKOVJ08YS9BDM", "dateTime": 1524160722822}, {"current_trial": 31, "trialdata": {"rt": -1000, "trial_type": "single-audio", "word": "country", "stimulus": "/static/audio/wordpool/COUNTRY.wav", "conditions": [18, 1200, "a", 18000], "internal_node_id": "0.0-22.0", "trial": 0, "time_elapsed": 527571, "serialpos": 10, "key_press": -1, "wordID": 387, "type": "PRES_AUD", "trial_index": 31}, "uniqueid": "MTK3790:3LEP4MGT3H7ZZBPGJQKOVJ08YS9BDM", "dateTime": 1524160725031}, {"current_trial": 32, "trialdata": {"rt": -1000, "trial_type": "single-audio", "word": "piano", "stimulus": "/static/audio/wordpool/PIANO.wav", "conditions": [18, 1200, "a", 18000], "internal_node_id": "0.0-23.0", "trial": 0, "time_elapsed": 529658, "serialpos": 11, "key_press": -1, "wordID": 1056, "type": "PRES_AUD", "trial_index": 32}, "uniqueid": "MTK3790:3LEP4MGT3H7ZZBPGJQKOVJ08YS9BDM", "dateTime": 1524160727118}, {"current_trial": 33, "trialdata": {"rt": -1000, "trial_type": "single-audio", "word": "champagne", "stimulus": "/static/audio/wordpool/CHAMPAGNE.wav", "conditions": [18, 1200, "a", 18000], "internal_node_id": "0.0-24.0", "trial": 0, "time_elapsed": 531997, "serialpos": 12, "key_press": -1, "wordID": 277, "type": "PRES_AUD", "trial_index": 33}, "uniqueid": "MTK3790:3LEP4MGT3H7ZZBPGJQKOVJ08YS9BDM", "dateTime": 1524160729458}, {"current_trial": 34, "trialdata": {"rt": -1000, "trial_type": "single-audio", "word": "cod", "stimulus": "/static/audio/wordpool/COD.wav", "conditions": [18, 1200, "a", 18000], "internal_node_id": "0.0-25.0", "trial": 0, "time_elapsed": 534327, "serialpos": 13, "key_press": -1, "wordID": 339, "type": "PRES_AUD", "trial_index": 34}, "uniqueid": "MTK3790:3LEP4MGT3H7ZZBPGJQKOVJ08YS9BDM", "dateTime": 1524160731787}, {"current_trial": 35, "trialdata": {"rt": -1000, "trial_type": "single-audio", "word": "keeper", "stimulus": "/static/audio/wordpool/KEEPER.wav", "conditions": [18, 1200, "a", 18000], "internal_node_id": "0.0-26.0", "trial": 0, "time_elapsed": 536411, "serialpos": 14, "key_press": -1, "wordID": 768, "type": "PRES_AUD", "trial_index": 35}, "uniqueid": "MTK3790:3LEP4MGT3H7ZZBPGJQKOVJ08YS9BDM", "dateTime": 1524160733871}, {"current_trial": 36, "trialdata": {"rt": -1000, "trial_type": "single-audio", "word": "shirt", "stimulus": "/static/audio/wordpool/SHIRT.wav", "conditions": [18, 1200, "a", 18000], "internal_node_id": "0.0-27.0", "trial": 0, "time_elapsed": 538715, "serialpos": 15, "key_press": -1, "wordID": 1286, "type": "PRES_AUD", "trial_index": 36}, "uniqueid": "MTK3790:3LEP4MGT3H7ZZBPGJQKOVJ08YS9BDM", "dateTime": 1524160736176}, {"current_trial": 37, "trialdata": {"rt": -1000, "trial_type": "single-audio", "word": "tile", "stimulus": "/static/audio/wordpool/TILE.wav", "conditions": [18, 1200, "a", 18000], "internal_node_id": "0.0-28.0", "trial": 0, "time_elapsed": 540736, "serialpos": 16, "key_press": -1, "wordID": 1467, "type": "PRES_AUD", "trial_index": 37}, "uniqueid": "MTK3790:3LEP4MGT3H7ZZBPGJQKOVJ08YS9BDM", "dateTime": 1524160738196}, {"current_trial": 38, "trialdata": {"rt": -1000, "trial_type": "single-audio", "word": "dustpan", "stimulus": "/static/audio/wordpool/DUSTPAN.wav", "conditions": [18, 1200, "a", 18000], "internal_node_id": "0.0-29.0", "trial": 0, "time_elapsed": 542943, "serialpos": 17, "key_press": -1, "wordID": 508, "type": "PRES_AUD", "trial_index": 38}, "uniqueid": "MTK3790:3LEP4MGT3H7ZZBPGJQKOVJ08YS9BDM", "dateTime": 1524160740403}, {"current_trial": 39, "trialdata": {"rt": -1, "trial_type": "single-stim", "stimulus": "", "internal_node_id": "0.0-30.0-0.0", "time_elapsed": 544212, "key_press": -1, "type": "PRE_RECALL_DELAY", "trial_index": 39}, "uniqueid": "MTK3790:3LEP4MGT3H7ZZBPGJQKOVJ08YS9BDM", "dateTime": 1524160741673}, {"current_trial": 40, "trialdata": {"rt": -1000, "trial_type": "single-audio", "stimulus": "/static/audio/400Hz.wav", "internal_node_id": "0.0-31.0", "time_elapsed": 544713, "key_press": -1, "type": "PRE_RECALL_ALERT", "trial_index": 40}, "uniqueid": "MTK3790:3LEP4MGT3H7ZZBPGJQKOVJ08YS9BDM", "dateTime": 1524160742173}, {"current_trial": 41, "trialdata": {"rt": [3883, 5737, 6933, 13408, 16408, 21595, 25177, 29289, 38156], "recwords": ["garbage", "country", "keeper", "champagne", "dustpan", "country", "apron", "tile", "sunrise"], "key_times": [1509, 1713, 1936, 2216, 2357, 2592, 2830, 3883, 4386, 4490, 4654, 4935, 5072, 5305, 5427, 5737, 6004, 6131, 6285, 6408, 6549, 6700, 6933, 10661, 10755, 10887, 11104, 11380, 12072, 12518, 12910, 13024, 13408, 15006, 15189, 15310, 15519, 15779, 15901, 16087, 16408, 20090, 20261, 20432, 20708, 20825, 21071, 21208, 21595, 24234, 24375, 24579, 24673, 24771, 25177, 28169, 28300, 28822, 28995, 29289, 36798, 36979, 37235, 37437, 37551, 37715, 37894, 38156], "trial_type": "free-recall", "conditions": [18, 1200, "a", 18000], "internal_node_id": "0.0-32.0-0.0", "key_presses": [71, 65, 82, 66, 65, 71, 69, 13, 67, 79, 85, 78, 84, 82, 89, 13, 75, 69, 69, 80, 69, 82, 13, 67, 72, 65, 77, 80, 65, 71, 78, 69, 13, 68, 85, 83, 84, 80, 65, 78, 13, 67, 79, 85, 78, 84, 82, 89, 13, 65, 80, 82, 79, 78, 13, 84, 73, 76, 69, 13, 83, 85, 78, 82, 73, 83, 69, 13], "trial": 0, "time_elapsed": 604717, "type": "FREE_RECALL", "trial_index": 41}, "uniqueid": "MTK3790:3LEP4MGT3H7ZZBPGJQKOVJ08YS9BDM", "dateTime": 1524160802178}, {"current_trial": 42, "trialdata": {"rt": 8240, "trial_type": "text", "internal_node_id": "0.0-33.0", "time_elapsed": 614961, "key_press": 13, "type": "INSTRUCTIONS", "trial_index": 42}, "uniqueid": "MTK3790:3LEP4MGT3H7ZZBPGJQKOVJ08YS9BDM", "dateTime": 1524160812421}, {"current_trial": 43, "trialdata": {"rt": [2793, 6387, 8563, 11235, 13408, 15397], "trial_type": "math-distractor", "key_times": [2016, 2251, 2793, 5722, 5994, 6387, 7913, 8247, 8563, 10293, 10594, 11235, 12769, 13046, 13408, 14771, 14964, 15397, 17697, 17902], "responses": ["17", "18", "13", "13", "16", "11"], "num2": [7, 9, 1, 9, 8, 3, 9], "num3": [8, 3, 8, 2, 7, 5, 5], "conditions": [18, 1200, "a", 18000], "internal_node_id": "0.0-34.0", "key_presses": [97, 103, 13, 97, 104, 13, 97, 99, 13, 97, 99, 13, 97, 102, 13, 97, 97, 13, 98, 97], "trial": 1, "time_elapsed": 634965, "type": "DISTRACTOR", "trial_index": 43, "num1": [2, 6, 4, 2, 1, 3, 7]}, "uniqueid": "MTK3790:3LEP4MGT3H7ZZBPGJQKOVJ08YS9BDM", "dateTime": 1524160832425}, {"current_trial": 44, "trialdata": {"rt": -1, "trial_type": "single-stim", "stimulus": "<p id=\"stim\">10</p>", "internal_node_id": "0.0-35.0-0.0", "time_elapsed": 637965, "key_press": -1, "trial_index": 44}, "uniqueid": "MTK3790:3LEP4MGT3H7ZZBPGJQKOVJ08YS9BDM", "dateTime": 1524160835426}, {"current_trial": 45, "trialdata": {"rt": -1, "trial_type": "single-stim", "stimulus": "<p id=\"stim\">9</p>", "internal_node_id": "0.0-35.0-1.0", "time_elapsed": 638965, "key_press": -1, "trial_index": 45}, "uniqueid": "MTK3790:3LEP4MGT3H7ZZBPGJQKOVJ08YS9BDM", "dateTime": 1524160836425}, {"current_trial": 46, "trialdata": {"rt": -1, "trial_type": "single-stim", "stimulus": "<p id=\"stim\">8</p>", "internal_node_id": "0.0-35.0-2.0", "time_elapsed": 639967, "key_press": -1, "trial_index": 46}, "uniqueid": "MTK3790:3LEP4MGT3H7ZZBPGJQKOVJ08YS9BDM", "dateTime": 1524160837427}, {"current_trial": 47, "trialdata": {"rt": -1, "trial_type": "single-stim", "stimulus": "<p id=\"stim\">7</p>", "internal_node_id": "0.0-35.0-3.0", "time_elapsed": 640968, "key_press": -1, "trial_index": 47}, "uniqueid": "MTK3790:3LEP4MGT3H7ZZBPGJQKOVJ08YS9BDM", "dateTime": 1524160838428}, {"current_trial": 48, "trialdata": {"rt": -1, "trial_type": "single-stim", "stimulus": "<p id=\"stim\">6</p>", "internal_node_id": "0.0-35.0-4.0", "time_elapsed": 641968, "key_press": -1, "trial_index": 48}, "uniqueid": "MTK3790:3LEP4MGT3H7ZZBPGJQKOVJ08YS9BDM", "dateTime": 1524160839428}, {"current_trial": 49, "trialdata": {"rt": -1, "trial_type": "single-stim", "stimulus": "<p id=\"stim\">5</p>", "internal_node_id": "0.0-35.0-5.0", "time_elapsed": 642969, "key_press": -1, "trial_index": 49}, "uniqueid": "MTK3790:3LEP4MGT3H7ZZBPGJQKOVJ08YS9BDM", "dateTime": 1524160840430}, {"current_trial": 50, "trialdata": {"rt": -1, "trial_type": "single-stim", "stimulus": "<p id=\"stim\">4</p>", "internal_node_id": "0.0-35.0-6.0", "time_elapsed": 643970, "key_press": -1, "trial_index": 50}, "uniqueid": "MTK3790:3LEP4MGT3H7ZZBPGJQKOVJ08YS9BDM", "dateTime": 1524160841431}, {"current_trial": 51, "trialdata": {"rt": -1, "trial_type": "single-stim", "stimulus": "<p id=\"stim\">3</p>", "internal_node_id": "0.0-35.0-7.0", "time_elapsed": 644971, "key_press": -1, "trial_index": 51}, "uniqueid": "MTK3790:3LEP4MGT3H7ZZBPGJQKOVJ08YS9BDM", "dateTime": 1524160842432}, {"current_trial": 52, "trialdata": {"rt": -1, "trial_type": "single-stim", "stimulus": "<p id=\"stim\">2</p>", "internal_node_id": "0.0-35.0-8.0", "time_elapsed": 645972, "key_press": -1, "trial_index": 52}, "uniqueid": "MTK3790:3LEP4MGT3H7ZZBPGJQKOVJ08YS9BDM", "dateTime": 1524160843433}, {"current_trial": 53, "trialdata": {"rt": -1, "trial_type": "single-stim", "stimulus": "<p id=\"stim\">1</p>", "internal_node_id": "0.0-35.0-9.0", "time_elapsed": 646974, "key_press": -1, "trial_index": 53}, "uniqueid": "MTK3790:3LEP4MGT3H7ZZBPGJQKOVJ08YS9BDM", "dateTime": 1524160844434}, {"current_trial": 54, "trialdata": {"rt": -1, "trial_type": "single-stim", "stimulus": "<p id=\"stim\">+</p>", "internal_node_id": "0.0-36.0-0.0", "time_elapsed": 648475, "key_press": -1, "type": "FIXATION", "trial_index": 54}, "uniqueid": "MTK3790:3LEP4MGT3H7ZZBPGJQKOVJ08YS9BDM", "dateTime": 1524160845936}, {"current_trial": 55, "trialdata": {"rt": -1000, "trial_type": "single-audio", "word": "coffee", "stimulus": "/static/audio/wordpool/COFFEE.wav", "conditions": [18, 1200, "a", 18000], "internal_node_id": "0.0-37.0", "trial": 1, "time_elapsed": 650861, "serialpos": 0, "key_press": -1, "wordID": 340, "type": "PRES_AUD", "trial_index": 55}, "uniqueid": "MTK3790:3LEP4MGT3H7ZZBPGJQKOVJ08YS9BDM", "dateTime": 1524160848321}, {"current_trial": 56, "trialdata": {"rt": -1000, "trial_type": "single-audio", "word": "farmer", "stimulus": "/static/audio/wordpool/FARMER.wav", "conditions": [18, 1200, "a", 18000], "internal_node_id": "0.0-38.0", "trial": 1, "time_elapsed": 653064, "serialpos": 1, "key_press": -1, "wordID": 552, "type": "PRES_AUD", "trial_index": 56}, "uniqueid": "MTK3790:3LEP4MGT3H7ZZBPGJQKOVJ08YS9BDM", "dateTime": 1524160850524}, {"current_trial": 57, "trialdata": {"rt": -1000, "trial_type": "single-audio", "word": "beaver", "stimulus": "/static/audio/wordpool/BEAVER.wav", "conditions": [18, 1200, "a", 18000], "internal_node_id": "0.0-39.0", "trial": 1, "time_elapsed": 655351, "serialpos": 2, "key_press": -1, "wordID": 108, "type": "PRES_AUD", "trial_index": 57}, "uniqueid": "MTK3790:3LEP4MGT3H7ZZBPGJQKOVJ08YS9BDM", "dateTime": 1524160852811}, {"current_trial": 58, "trialdata": {"rt": -1000, "trial_type": "single-audio", "word": "shrub", "stimulus": "/static/audio/wordpool/SHRUB.wav", "conditions": [18, 1200, "a", 18000], "internal_node_id": "0.0-40.0", "trial": 1, "time_elapsed": 657719, "serialpos": 3, "key_press": -1, "wordID": 1298, "type": "PRES_AUD", "trial_index": 58}, "uniqueid": "MTK3790:3LEP4MGT3H7ZZBPGJQKOVJ08YS9BDM", "dateTime": 1524160855179}, {"current_trial": 59, "trialdata": {"rt": -1000, "trial_type": "single-audio", "word": "bacon", "stimulus": "/static/audio/wordpool/BACON.wav", "conditions": [18, 1200, "a", 18000], "internal_node_id": "0.0-41.0", "trial": 1, "time_elapsed": 659761, "serialpos": 4, "key_press": -1, "wordID": 66, "type": "PRES_AUD", "trial_index": 59}, "uniqueid": "MTK3790:3LEP4MGT3H7ZZBPGJQKOVJ08YS9BDM", "dateTime": 1524160857221}, {"current_trial": 60, "trialdata": {"rt": -1000, "trial_type": "single-audio", "word": "garlic", "stimulus": "/static/audio/wordpool/GARLIC.wav", "conditions": [18, 1200, "a", 18000], "internal_node_id": "0.0-42.0", "trial": 1, "time_elapsed": 662112, "serialpos": 5, "key_press": -1, "wordID": 623, "type": "PRES_AUD", "trial_index": 60}, "uniqueid": "MTK3790:3LEP4MGT3H7ZZBPGJQKOVJ08YS9BDM", "dateTime": 1524160859572}, {"current_trial": 61, "trialdata": {"rt": -1000, "trial_type": "single-audio", "word": "iceberg", "stimulus": "/static/audio/wordpool/ICEBERG.wav", "conditions": [18, 1200, "a", 18000], "internal_node_id": "0.0-43.0", "trial": 1, "time_elapsed": 664180, "serialpos": 6, "key_press": -1, "wordID": 730, "type": "PRES_AUD", "trial_index": 61}, "uniqueid": "MTK3790:3LEP4MGT3H7ZZBPGJQKOVJ08YS9BDM", "dateTime": 1524160861641}, {"current_trial": 62, "trialdata": {"rt": -1000, "trial_type": "single-audio", "word": "glass", "stimulus": "/static/audio/wordpool/GLASS.wav", "conditions": [18, 1200, "a", 18000], "internal_node_id": "0.0-44.0", "trial": 1, "time_elapsed": 666509, "serialpos": 7, "key_press": -1, "wordID": 638, "type": "PRES_AUD", "trial_index": 62}, "uniqueid": "MTK3790:3LEP4MGT3H7ZZBPGJQKOVJ08YS9BDM", "dateTime": 1524160863969}, {"current_trial": 63, "trialdata": {"rt": -1000, "trial_type": "single-audio", "word": "snack", "stimulus": "/static/audio/wordpool/SNACK.wav", "conditions": [18, 1200, "a", 18000], "internal_node_id": "0.0-45.0", "trial": 1, "time_elapsed": 668731, "serialpos": 8, "key_press": -1, "wordID": 1330, "type": "PRES_AUD", "trial_index": 63}, "uniqueid": "MTK3790:3LEP4MGT3H7ZZBPGJQKOVJ08YS9BDM", "dateTime": 1524160866191}, {"current_trial": 64, "trialdata": {"rt": -1000, "trial_type": "single-audio", "word": "cookbook", "stimulus": "/static/audio/wordpool/COOKBOOK.wav", "conditions": [18, 1200, "a", 18000], "internal_node_id": "0.0-46.0", "trial": 1, "time_elapsed": 670798, "serialpos": 9, "key_press": -1, "wordID": 372, "type": "PRES_AUD", "trial_index": 64}, "uniqueid": "MTK3790:3LEP4MGT3H7ZZBPGJQKOVJ08YS9BDM", "dateTime": 1524160868260}, {"current_trial": 65, "trialdata": {"rt": -1000, "trial_type": "single-audio", "word": "robber", "stimulus": "/static/audio/wordpool/ROBBER.wav", "conditions": [18, 1200, "a", 18000], "internal_node_id": "0.0-47.0", "trial": 1, "time_elapsed": 673023, "serialpos": 10, "key_press": -1, "wordID": 1196, "type": "PRES_AUD", "trial_index": 65}, "uniqueid": "MTK3790:3LEP4MGT3H7ZZBPGJQKOVJ08YS9BDM", "dateTime": 1524160870483}, {"current_trial": 66, "trialdata": {"rt": -1000, "trial_type": "single-audio", "word": "machine", "stimulus": "/static/audio/wordpool/MACHINE.wav", "conditions": [18, 1200, "a", 18000], "internal_node_id": "0.0-48.0", "trial": 1, "time_elapsed": 675382, "serialpos": 11, "key_press": -1, "wordID": 851, "type": "PRES_AUD", "trial_index": 66}, "uniqueid": "MTK3790:3LEP4MGT3H7ZZBPGJQKOVJ08YS9BDM", "dateTime": 1524160872843}, {"current_trial": 67, "trialdata": {"rt": -1000, "trial_type": "single-audio", "word": "cattle", "stimulus": "/static/audio/wordpool/CATTLE.wav", "conditions": [18, 1200, "a", 18000], "internal_node_id": "0.0-49.0", "trial": 1, "time_elapsed": 677557, "serialpos": 12, "key_press": -1, "wordID": 260, "type": "PRES_AUD", "trial_index": 67}, "uniqueid": "MTK3790:3LEP4MGT3H7ZZBPGJQKOVJ08YS9BDM", "dateTime": 1524160875017}, {"current_trial": 68, "trialdata": {"rt": -1000, "trial_type": "single-audio", "word": "crib", "stimulus": "/static/audio/wordpool/CRIB.wav", "conditions": [18, 1200, "a", 18000], "internal_node_id": "0.0-50.0", "trial": 1, "time_elapsed": 679825, "serialpos": 13, "key_press": -1, "wordID": 406, "type": "PRES_AUD", "trial_index": 68}, "uniqueid": "MTK3790:3LEP4MGT3H7ZZBPGJQKOVJ08YS9BDM", "dateTime": 1524160877288}, {"current_trial": 69, "trialdata": {"rt": -1000, "trial_type": "single-audio", "word": "plaster", "stimulus": "/static/audio/wordpool/PLASTER.wav", "conditions": [18, 1200, "a", 18000], "internal_node_id": "0.0-51.0", "trial": 1, "time_elapsed": 682174, "serialpos": 14, "key_press": -1, "wordID": 1084, "type": "PRES_AUD", "trial_index": 69}, "uniqueid": "MTK3790:3LEP4MGT3H7ZZBPGJQKOVJ08YS9BDM", "dateTime": 1524160879634}, {"current_trial": 70, "trialdata": {"rt": -1000, "trial_type": "single-audio", "word": "human", "stimulus": "/static/audio/wordpool/HUMAN.wav", "conditions": [18, 1200, "a", 18000], "internal_node_id": "0.0-52.0", "trial": 1, "time_elapsed": 684556, "serialpos": 15, "key_press": -1, "wordID": 725, "type": "PRES_AUD", "trial_index": 70}, "uniqueid": "MTK3790:3LEP4MGT3H7ZZBPGJQKOVJ08YS9BDM", "dateTime": 1524160882016}, {"current_trial": 71, "trialdata": {"rt": -1000, "trial_type": "single-audio", "word": "oyster", "stimulus": "/static/audio/wordpool/OYSTER.wav", "conditions": [18, 1200, "a", 18000], "internal_node_id": "0.0-53.0", "trial": 1, "time_elapsed": 686702, "serialpos": 16, "key_press": -1, "wordID": 994, "type": "PRES_AUD", "trial_index": 71}, "uniqueid": "MTK3790:3LEP4MGT3H7ZZBPGJQKOVJ08YS9BDM", "dateTime": 1524160884162}, {"current_trial": 72, "trialdata": {"rt": -1000, "trial_type": "single-audio", "word": "quail", "stimulus": "/static/audio/wordpool/QUAIL.wav", "conditions": [18, 1200, "a", 18000], "internal_node_id": "0.0-54.0", "trial": 1, "time_elapsed": 688798, "serialpos": 17, "key_press": -1, "wordID": 1146, "type": "PRES_AUD", "trial_index": 72}, "uniqueid": "MTK3790:3LEP4MGT3H7ZZBPGJQKOVJ08YS9BDM", "dateTime": 1524160886258}, {"current_trial": 73, "trialdata": {"rt": -1, "trial_type": "single-stim", "stimulus": "", "internal_node_id": "0.0-55.0-0.0", "time_elapsed": 690018, "key_press": -1, "type": "PRE_RECALL_DELAY", "trial_index": 73}, "uniqueid": "MTK3790:3LEP4MGT3H7ZZBPGJQKOVJ08YS9BDM", "dateTime": 1524160887478}, {"current_trial": 74, "trialdata": {"rt": -1000, "trial_type": "single-audio", "stimulus": "/static/audio/400Hz.wav", "internal_node_id": "0.0-56.0", "time_elapsed": 690520, "key_press": -1, "type": "PRE_RECALL_ALERT", "trial_index": 74}, "uniqueid": "MTK3790:3LEP4MGT3H7ZZBPGJQKOVJ08YS9BDM", "dateTime": 1524160887980}, {"current_trial": 75, "trialdata": {"rt": [6563, 10503, 13804, 16335, 21433, 24553, 27638, 34197, 40491, 52685], "recwords": ["coffee", "farmer", "quall", "oyster", "glass", "iceberg", "beaver", "cattle", "snack", "machine"], "key_times": [5083, 5257, 5451, 5611, 5940, 6122, 6563, 9102, 9313, 9527, 9696, 9876, 10054, 10503, 12349, 12590, 12820, 13161, 13302, 13804, 14451, 14768, 14983, 15243, 15577, 15656, 16335, 20179, 20480, 20661, 20950, 21111, 21433, 22215, 22363, 22610, 22839, 23183, 23339, 23649, 24553, 26335, 26569, 26703, 26895, 27135, 27224, 27638, 31890, 32117, 32424, 32601, 32840, 33021, 34197, 39303, 39475, 39611, 39960, 40114, 40491, 51242, 51407, 51701, 51829, 52045, 52239, 52394, 52685], "trial_type": "free-recall", "conditions": [18, 1200, "a", 18000], "internal_node_id": "0.0-57.0-0.0", "key_presses": [67, 79, 70, 70, 69, 69, 13, 70, 65, 82, 77, 69, 82, 13, 81, 85, 65, 76, 76, 13, 79, 89, 83, 84, 69, 82, 13, 71, 76, 65, 83, 83, 13, 73, 67, 69, 66, 69, 82, 71, 13, 66, 69, 65, 86, 69, 82, 13, 67, 65, 84, 84, 76, 69, 13, 83, 78, 65, 67, 75, 13, 77, 65, 67, 72, 73, 78, 69, 13], "trial": 1, "time_elapsed": 750522, "type": "FREE_RECALL", "trial_index": 75}, "uniqueid": "MTK3790:3LEP4MGT3H7ZZBPGJQKOVJ08YS9BDM", "dateTime": 1524160947986}, {"current_trial": 76, "trialdata": {"rt": 4305, "trial_type": "text", "internal_node_id": "0.0-58.0", "time_elapsed": 756832, "key_press": 13, "type": "INSTRUCTIONS", "trial_index": 76}, "uniqueid": "MTK3790:3LEP4MGT3H7ZZBPGJQKOVJ08YS9BDM", "dateTime": 1524160954292}, {"current_trial": 77, "trialdata": {"rt": [2641, 4754, 7013, 9658, 11608], "trial_type": "math-distractor", "key_times": [2034, 2240, 2641, 4161, 4382, 4754, 6221, 6570, 7013, 9196, 9387, 9658, 10997, 11274, 11608], "responses": ["20", "14", "17", "10", "16"], "num2": [8, 2, 8, 5, 7, 2], "num3": [7, 7, 6, 3, 1, 6], "conditions": [12, 800, "a", 12000], "internal_node_id": "0.0-59.0", "key_presses": [98, 96, 13, 97, 100, 13, 97, 103, 13, 97, 96, 13, 97, 102, 13], "trial": 2, "time_elapsed": 769836, "type": "DISTRACTOR", "trial_index": 77, "num1": [6, 5, 3, 2, 8, 8]}, "uniqueid": "MTK3790:3LEP4MGT3H7ZZBPGJQKOVJ08YS9BDM", "dateTime": 1524160967296}, {"current_trial": 78, "trialdata": {"rt": -1, "trial_type": "single-stim", "stimulus": "<p id=\"stim\">10</p>", "internal_node_id": "0.0-60.0-0.0", "time_elapsed": 772838, "key_press": -1, "trial_index": 78}, "uniqueid": "MTK3790:3LEP4MGT3H7ZZBPGJQKOVJ08YS9BDM", "dateTime": 1524160970298}, {"current_trial": 79, "trialdata": {"rt": -1, "trial_type": "single-stim", "stimulus": "<p id=\"stim\">9</p>", "internal_node_id": "0.0-60.0-1.0", "time_elapsed": 773840, "key_press": -1, "trial_index": 79}, "uniqueid": "MTK3790:3LEP4MGT3H7ZZBPGJQKOVJ08YS9BDM", "dateTime": 1524160971300}, {"current_trial": 80, "trialdata": {"rt": -1, "trial_type": "single-stim", "stimulus": "<p id=\"stim\">8</p>", "internal_node_id": "0.0-60.0-2.0", "time_elapsed": 774841, "key_press": -1, "trial_index": 80}, "uniqueid": "MTK3790:3LEP4MGT3H7ZZBPGJQKOVJ08YS9BDM", "dateTime": 1524160972301}, {"current_trial": 81, "trialdata": {"rt": -1, "trial_type": "single-stim", "stimulus": "<p id=\"stim\">7</p>", "internal_node_id": "0.0-60.0-3.0", "time_elapsed": 775843, "key_press": -1, "trial_index": 81}, "uniqueid": "MTK3790:3LEP4MGT3H7ZZBPGJQKOVJ08YS9BDM", "dateTime": 1524160973303}, {"current_trial": 82, "trialdata": {"rt": -1, "trial_type": "single-stim", "stimulus": "<p id=\"stim\">6</p>", "internal_node_id": "0.0-60.0-4.0", "time_elapsed": 776845, "key_press": -1, "trial_index": 82}, "uniqueid": "MTK3790:3LEP4MGT3H7ZZBPGJQKOVJ08YS9BDM", "dateTime": 1524160974305}, {"current_trial": 83, "trialdata": {"rt": -1, "trial_type": "single-stim", "stimulus": "<p id=\"stim\">5</p>", "internal_node_id": "0.0-60.0-5.0", "time_elapsed": 777847, "key_press": -1, "trial_index": 83}, "uniqueid": "MTK3790:3LEP4MGT3H7ZZBPGJQKOVJ08YS9BDM", "dateTime": 1524160975307}, {"current_trial": 84, "trialdata": {"rt": -1, "trial_type": "single-stim", "stimulus": "<p id=\"stim\">4</p>", "internal_node_id": "0.0-60.0-6.0", "time_elapsed": 778847, "key_press": -1, "trial_index": 84}, "uniqueid": "MTK3790:3LEP4MGT3H7ZZBPGJQKOVJ08YS9BDM", "dateTime": 1524160976307}, {"current_trial": 85, "trialdata": {"rt": -1, "trial_type": "single-stim", "stimulus": "<p id=\"stim\">3</p>", "internal_node_id": "0.0-60.0-7.0", "time_elapsed": 779848, "key_press": -1, "trial_index": 85}, "uniqueid": "MTK3790:3LEP4MGT3H7ZZBPGJQKOVJ08YS9BDM", "dateTime": 1524160977309}, {"current_trial": 86, "trialdata": {"rt": -1, "trial_type": "single-stim", "stimulus": "<p id=\"stim\">2</p>", "internal_node_id": "0.0-60.0-8.0", "time_elapsed": 780849, "key_press": -1, "trial_index": 86}, "uniqueid": "MTK3790:3LEP4MGT3H7ZZBPGJQKOVJ08YS9BDM", "dateTime": 1524160978309}, {"current_trial": 87, "trialdata": {"rt": -1, "trial_type": "single-stim", "stimulus": "<p id=\"stim\">1</p>", "internal_node_id": "0.0-60.0-9.0", "time_elapsed": 781851, "key_press": -1, "trial_index": 87}, "uniqueid": "MTK3790:3LEP4MGT3H7ZZBPGJQKOVJ08YS9BDM", "dateTime": 1524160979311}, {"current_trial": 88, "trialdata": {"rt": -1, "trial_type": "single-stim", "stimulus": "<p id=\"stim\">+</p>", "internal_node_id": "0.0-61.0-0.0", "time_elapsed": 783352, "key_press": -1, "type": "FIXATION", "trial_index": 88}, "uniqueid": "MTK3790:3LEP4MGT3H7ZZBPGJQKOVJ08YS9BDM", "dateTime": 1524160980812}, {"current_trial": 89, "trialdata": {"rt": -1000, "trial_type": "single-audio", "word": "wagon", "stimulus": "/static/audio/wordpool/WAGON.wav", "conditions": [12, 800, "a", 12000], "internal_node_id": "0.0-62.0", "trial": 2, "time_elapsed": 785172, "serialpos": 0, "key_press": -1, "wordID": 1577, "type": "PRES_AUD", "trial_index": 89}, "uniqueid": "MTK3790:3LEP4MGT3H7ZZBPGJQKOVJ08YS9BDM", "dateTime": 1524160982632}, {"current_trial": 90, "trialdata": {"rt": -1000, "trial_type": "single-audio", "word": "hero", "stimulus": "/static/audio/wordpool/HERO.wav", "conditions": [12, 800, "a", 12000], "internal_node_id": "0.0-63.0", "trial": 2, "time_elapsed": 786913, "serialpos": 1, "key_press": -1, "wordID": 705, "type": "PRES_AUD", "trial_index": 90}, "uniqueid": "MTK3790:3LEP4MGT3H7ZZBPGJQKOVJ08YS9BDM", "dateTime": 1524160984373}, {"current_trial": 91, "trialdata": {"rt": -1000, "trial_type": "single-audio", "word": "record", "stimulus": "/static/audio/wordpool/RECORD.wav", "conditions": [12, 800, "a", 12000], "internal_node_id": "0.0-64.0", "trial": 2, "time_elapsed": 788806, "serialpos": 2, "key_press": -1, "wordID": 1175, "type": "PRES_AUD", "trial_index": 91}, "uniqueid": "MTK3790:3LEP4MGT3H7ZZBPGJQKOVJ08YS9BDM", "dateTime": 1524160986267}, {"current_trial": 92, "trialdata": {"rt": -1000, "trial_type": "single-audio", "word": "label", "stimulus": "/static/audio/wordpool/LABEL.wav", "conditions": [12, 800, "a", 12000], "internal_node_id": "0.0-65.0", "trial": 2, "time_elapsed": 790607, "serialpos": 3, "key_press": -1, "wordID": 789, "type": "PRES_AUD", "trial_index": 92}, "uniqueid": "MTK3790:3LEP4MGT3H7ZZBPGJQKOVJ08YS9BDM", "dateTime": 1524160988067}, {"current_trial": 93, "trialdata": {"rt": -1000, "trial_type": "single-audio", "word": "chipmunk", "stimulus": "/static/audio/wordpool/CHIPMUNK.wav", "conditions": [12, 800, "a", 12000], "internal_node_id": "0.0-66.0", "trial": 2, "time_elapsed": 792230, "serialpos": 4, "key_press": -1, "wordID": 303, "type": "PRES_AUD", "trial_index": 93}, "uniqueid": "MTK3790:3LEP4MGT3H7ZZBPGJQKOVJ08YS9BDM", "dateTime": 1524160989690}, {"current_trial": 94, "trialdata": {"rt": -1000, "trial_type": "single-audio", "word": "rust", "stimulus": "/static/audio/wordpool/RUST.wav", "conditions": [12, 800, "a", 12000], "internal_node_id": "0.0-67.0", "trial": 2, "time_elapsed": 794179, "serialpos": 5, "key_press": -1, "wordID": 1218, "type": "PRES_AUD", "trial_index": 94}, "uniqueid": "MTK3790:3LEP4MGT3H7ZZBPGJQKOVJ08YS9BDM", "dateTime": 1524160991640}, {"current_trial": 95, "trialdata": {"rt": -1000, "trial_type": "single-audio", "word": "twig", "stimulus": "/static/audio/wordpool/TWIG.wav", "conditions": [12, 800, "a", 12000], "internal_node_id": "0.0-68.0", "trial": 2, "time_elapsed": 796161, "serialpos": 6, "key_press": -1, "wordID": 1526, "type": "PRES_AUD", "trial_index": 95}, "uniqueid": "MTK3790:3LEP4MGT3H7ZZBPGJQKOVJ08YS9BDM", "dateTime": 1524160993621}, {"current_trial": 96, "trialdata": {"rt": -1000, "trial_type": "single-audio", "word": "europe", "stimulus": "/static/audio/wordpool/EUROPE.wav", "conditions": [12, 800, "a", 12000], "internal_node_id": "0.0-69.0", "trial": 2, "time_elapsed": 798011, "serialpos": 7, "key_press": -1, "wordID": 540, "type": "PRES_AUD", "trial_index": 96}, "uniqueid": "MTK3790:3LEP4MGT3H7ZZBPGJQKOVJ08YS9BDM", "dateTime": 1524160995471}, {"current_trial": 97, "trialdata": {"rt": -1000, "trial_type": "single-audio", "word": "france", "stimulus": "/static/audio/wordpool/FRANCE.wav", "conditions": [12, 800, "a", 12000], "internal_node_id": "0.0-70.0", "trial": 2, "time_elapsed": 799984, "serialpos": 8, "key_press": -1, "wordID": 600, "type": "PRES_AUD", "trial_index": 97}, "uniqueid": "MTK3790:3LEP4MGT3H7ZZBPGJQKOVJ08YS9BDM", "dateTime": 1524160997445}, {"current_trial": 98, "trialdata": {"rt": -1000, "trial_type": "single-audio", "word": "bunny", "stimulus": "/static/audio/wordpool/BUNNY.wav", "conditions": [12, 800, "a", 12000], "internal_node_id": "0.0-71.0", "trial": 2, "time_elapsed": 801832, "serialpos": 9, "key_press": -1, "wordID": 197, "type": "PRES_AUD", "trial_index": 98}, "uniqueid": "MTK3790:3LEP4MGT3H7ZZBPGJQKOVJ08YS9BDM", "dateTime": 1524160999293}, {"current_trial": 99, "trialdata": {"rt": -1000, "trial_type": "single-audio", "word": "critic", "stimulus": "/static/audio/wordpool/CRITIC.wav", "conditions": [12, 800, "a", 12000], "internal_node_id": "0.0-72.0", "trial": 2, "time_elapsed": 803686, "serialpos": 10, "key_press": -1, "wordID": 409, "type": "PRES_AUD", "trial_index": 99}, "uniqueid": "MTK3790:3LEP4MGT3H7ZZBPGJQKOVJ08YS9BDM", "dateTime": 1524161001146}, {"current_trial": 100, "trialdata": {"rt": -1000, "trial_type": "single-audio", "word": "tractor", "stimulus": "/static/audio/wordpool/TRACTOR.wav", "conditions": [12, 800, "a", 12000], "internal_node_id": "0.0-73.0", "trial": 2, "time_elapsed": 805482, "serialpos": 11, "key_press": -1, "wordID": 1492, "type": "PRES_AUD", "trial_index": 100}, "uniqueid": "MTK3790:3LEP4MGT3H7ZZBPGJQKOVJ08YS9BDM", "dateTime": 1524161002942}, {"current_trial": 101, "trialdata": {"rt": -1, "trial_type": "single-stim", "stimulus": "", "internal_node_id": "0.0-74.0-0.0", "time_elapsed": 806880, "key_press": -1, "type": "PRE_RECALL_DELAY", "trial_index": 101}, "uniqueid": "MTK3790:3LEP4MGT3H7ZZBPGJQKOVJ08YS9BDM", "dateTime": 1524161004340}, {"current_trial": 102, "trialdata": {"rt": -1000, "trial_type": "single-audio", "stimulus": "/static/audio/400Hz.wav", "internal_node_id": "0.0-75.0", "time_elapsed": 807381, "key_press": -1, "type": "PRE_RECALL_ALERT", "trial_index": 102}, "uniqueid": "MTK3790:3LEP4MGT3H7ZZBPGJQKOVJ08YS9BDM", "dateTime": 1524161004841}, {"current_trial": 103, "trialdata": {"rt": [4951, 6584, 8861, 10738, 12641, 15456, 18434, 21993, 27678, 32231, 38172, 46709], "recwords": ["europe", "france", "tractor", "critic", "wagon", "hero", "chipmunk", "bunny", "rust", "twig", "wagon", "chipmunk"], "key_times": [3418, 3661, 4094, 4275, 4543, 4701, 4951, 5314, 5588, 5785, 5903, 6063, 6295, 6584, 7287, 7517, 7656, 7889, 8164, 8310, 8430, 8861, 9237, 9469, 9654, 9912, 10188, 10366, 10738, 11434, 11624, 11840, 12104, 12251, 12641, 14090, 14286, 14557, 14838, 15456, 16464, 16576, 16739, 16948, 17216, 17529, 17738, 17949, 18434, 20546, 20717, 21014, 21148, 21511, 21993, 26620, 26864, 27072, 27332, 27678, 31255, 31548, 31718, 31843, 32231, 37120, 37323, 37525, 37739, 37853, 38172, 44921, 45048, 45171, 45457, 45749, 46026, 46222, 46403, 46709], "trial_type": "free-recall", "conditions": [12, 800, "a", 12000], "internal_node_id": "0.0-76.0-0.0", "key_presses": [69, 85, 82, 79, 80, 69, 13, 70, 82, 65, 78, 67, 69, 13, 84, 82, 65, 67, 84, 79, 82, 13, 67, 82, 73, 84, 73, 67, 13, 87, 65, 71, 79, 78, 13, 72, 69, 82, 79, 13, 67, 72, 73, 80, 77, 85, 78, 75, 13, 66, 85, 78, 78, 89, 13, 82, 85, 83, 84, 13, 84, 87, 73, 71, 13, 87, 65, 71, 79, 78, 13, 67, 72, 73, 80, 77, 85, 78, 75, 13], "trial": 2, "time_elapsed": 867383, "type": "FREE_RECALL", "trial_index": 103}, "uniqueid": "MTK3790:3LEP4MGT3H7ZZBPGJQKOVJ08YS9BDM", "dateTime": 1524161064845}, {"current_trial": 104, "trialdata": {"rt": 1322, "trial_type": "text", "internal_node_id": "0.0-77.0", "time_elapsed": 870709, "key_press": 13, "type": "INSTRUCTIONS", "trial_index": 104}, "uniqueid": "MTK3790:3LEP4MGT3H7ZZBPGJQKOVJ08YS9BDM", "dateTime": 1524161068169}, {"current_trial": 105, "trialdata": {"rt": [2830, 4734, 6437, 8841, 11424, 14126, 18080, 20796, 22931], "trial_type": "math-distractor", "key_times": [2143, 2387, 2830, 4069, 4416, 4734, 5835, 6041, 6437, 8299, 8570, 8841, 10587, 11023, 11424, 13577, 13762, 14126, 17560, 17773, 18080, 20283, 20438, 20796, 22263, 22534, 22931], "responses": ["17", "13", "14", "16", "40", "10", "25", "11", "17"], "num2": [6, 9, 2, 5, 4, 1, 8, 3, 8, 5], "num3": [6, 3, 4, 7, 4, 2, 6, 4, 4, 8], "conditions": [12, 800, "a", 24000], "internal_node_id": "0.0-78.0", "key_presses": [97, 103, 13, 97, 99, 13, 97, 100, 13, 97, 102, 13, 100, 96, 13, 97, 96, 13, 98, 101, 13, 97, 97, 13, 97, 103, 13], "trial": 3, "time_elapsed": 896711, "type": "DISTRACTOR", "trial_index": 105, "num1": [5, 1, 8, 4, 2, 7, 9, 4, 5, 7]}, "uniqueid": "MTK3790:3LEP4MGT3H7ZZBPGJQKOVJ08YS9BDM", "dateTime": 1524161094171}, {"current_trial": 106, "trialdata": {"rt": -1, "trial_type": "single-stim", "stimulus": "<p id=\"stim\">10</p>", "internal_node_id": "0.0-79.0-0.0", "time_elapsed": 899712, "key_press": -1, "trial_index": 106}, "uniqueid": "MTK3790:3LEP4MGT3H7ZZBPGJQKOVJ08YS9BDM", "dateTime": 1524161097172}, {"current_trial": 107, "trialdata": {"rt": -1, "trial_type": "single-stim", "stimulus": "<p id=\"stim\">9</p>", "internal_node_id": "0.0-79.0-1.0", "time_elapsed": 900713, "key_press": -1, "trial_index": 107}, "uniqueid": "MTK3790:3LEP4MGT3H7ZZBPGJQKOVJ08YS9BDM", "dateTime": 1524161098173}, {"current_trial": 108, "trialdata": {"rt": -1, "trial_type": "single-stim", "stimulus": "<p id=\"stim\">8</p>", "internal_node_id": "0.0-79.0-2.0", "time_elapsed": 901715, "key_press": -1, "trial_index": 108}, "uniqueid": "MTK3790:3LEP4MGT3H7ZZBPGJQKOVJ08YS9BDM", "dateTime": 1524161099175}, {"current_trial": 109, "trialdata": {"rt": -1, "trial_type": "single-stim", "stimulus": "<p id=\"stim\">7</p>", "internal_node_id": "0.0-79.0-3.0", "time_elapsed": 902715, "key_press": -1, "trial_index": 109}, "uniqueid": "MTK3790:3LEP4MGT3H7ZZBPGJQKOVJ08YS9BDM", "dateTime": 1524161100175}, {"current_trial": 110, "trialdata": {"rt": -1, "trial_type": "single-stim", "stimulus": "<p id=\"stim\">6</p>", "internal_node_id": "0.0-79.0-4.0", "time_elapsed": 903716, "key_press": -1, "trial_index": 110}, "uniqueid": "MTK3790:3LEP4MGT3H7ZZBPGJQKOVJ08YS9BDM", "dateTime": 1524161101176}, {"current_trial": 111, "trialdata": {"rt": -1, "trial_type": "single-stim", "stimulus": "<p id=\"stim\">5</p>", "internal_node_id": "0.0-79.0-5.0", "time_elapsed": 904718, "key_press": -1, "trial_index": 111}, "uniqueid": "MTK3790:3LEP4MGT3H7ZZBPGJQKOVJ08YS9BDM", "dateTime": 1524161102178}, {"current_trial": 112, "trialdata": {"rt": -1, "trial_type": "single-stim", "stimulus": "<p id=\"stim\">4</p>", "internal_node_id": "0.0-79.0-6.0", "time_elapsed": 905719, "key_press": -1, "trial_index": 112}, "uniqueid": "MTK3790:3LEP4MGT3H7ZZBPGJQKOVJ08YS9BDM", "dateTime": 1524161103179}, {"current_trial": 113, "trialdata": {"rt": -1, "trial_type": "single-stim", "stimulus": "<p id=\"stim\">3</p>", "internal_node_id": "0.0-79.0-7.0", "time_elapsed": 906721, "key_press": -1, "trial_index": 113}, "uniqueid": "MTK3790:3LEP4MGT3H7ZZBPGJQKOVJ08YS9BDM", "dateTime": 1524161104181}, {"current_trial": 114, "trialdata": {"rt": -1, "trial_type": "single-stim", "stimulus": "<p id=\"stim\">2</p>", "internal_node_id": "0.0-79.0-8.0", "time_elapsed": 907723, "key_press": -1, "trial_index": 114}, "uniqueid": "MTK3790:3LEP4MGT3H7ZZBPGJQKOVJ08YS9BDM", "dateTime": 1524161105183}, {"current_trial": 115, "trialdata": {"rt": -1, "trial_type": "single-stim", "stimulus": "<p id=\"stim\">1</p>", "internal_node_id": "0.0-79.0-9.0", "time_elapsed": 908723, "key_press": -1, "trial_index": 115}, "uniqueid": "MTK3790:3LEP4MGT3H7ZZBPGJQKOVJ08YS9BDM", "dateTime": 1524161106183}, {"current_trial": 116, "trialdata": {"rt": -1, "trial_type": "single-stim", "stimulus": "<p id=\"stim\">+</p>", "internal_node_id": "0.0-80.0-0.0", "time_elapsed": 910225, "key_press": -1, "type": "FIXATION", "trial_index": 116}, "uniqueid": "MTK3790:3LEP4MGT3H7ZZBPGJQKOVJ08YS9BDM", "dateTime": 1524161107686}, {"current_trial": 117, "trialdata": {"rt": -1000, "trial_type": "single-audio", "word": "toaster", "stimulus": "/static/audio/wordpool/TOASTER.wav", "conditions": [12, 800, "a", 24000], "internal_node_id": "0.0-81.0", "trial": 3, "time_elapsed": 912184, "serialpos": 0, "key_press": -1, "wordID": 1471, "type": "PRES_AUD", "trial_index": 117}, "uniqueid": "MTK3790:3LEP4MGT3H7ZZBPGJQKOVJ08YS9BDM", "dateTime": 1524161109645}, {"current_trial": 118, "trialdata": {"rt": -1000, "trial_type": "single-audio", "word": "cobra", "stimulus": "/static/audio/wordpool/COBRA.wav", "conditions": [12, 800, "a", 24000], "internal_node_id": "0.0-82.0", "trial": 3, "time_elapsed": 914027, "serialpos": 1, "key_press": -1, "wordID": 335, "type": "PRES_AUD", "trial_index": 118}, "uniqueid": "MTK3790:3LEP4MGT3H7ZZBPGJQKOVJ08YS9BDM", "dateTime": 1524161111487}, {"current_trial": 119, "trialdata": {"rt": -1000, "trial_type": "single-audio", "word": "cabbage", "stimulus": "/static/audio/wordpool/CABBAGE.wav", "conditions": [12, 800, "a", 24000], "internal_node_id": "0.0-83.0", "trial": 3, "time_elapsed": 915953, "serialpos": 2, "key_press": -1, "wordID": 209, "type": "PRES_AUD", "trial_index": 119}, "uniqueid": "MTK3790:3LEP4MGT3H7ZZBPGJQKOVJ08YS9BDM", "dateTime": 1524161113413}, {"current_trial": 120, "trialdata": {"rt": -1000, "trial_type": "single-audio", "word": "stove", "stimulus": "/static/audio/wordpool/STOVE.wav", "conditions": [12, 800, "a", 24000], "internal_node_id": "0.0-84.0", "trial": 3, "time_elapsed": 917590, "serialpos": 3, "key_press": -1, "wordID": 1387, "type": "PRES_AUD", "trial_index": 120}, "uniqueid": "MTK3790:3LEP4MGT3H7ZZBPGJQKOVJ08YS9BDM", "dateTime": 1524161115052}, {"current_trial": 121, "trialdata": {"rt": -1000, "trial_type": "single-audio", "word": "chapel", "stimulus": "/static/audio/wordpool/CHAPEL.wav", "conditions": [12, 800, "a", 24000], "internal_node_id": "0.0-85.0", "trial": 3, "time_elapsed": 919339, "serialpos": 4, "key_press": -1, "wordID": 279, "type": "PRES_AUD", "trial_index": 121}, "uniqueid": "MTK3790:3LEP4MGT3H7ZZBPGJQKOVJ08YS9BDM", "dateTime": 1524161116801}, {"current_trial": 122, "trialdata": {"rt": -1000, "trial_type": "single-audio", "word": "church", "stimulus": "/static/audio/wordpool/CHURCH.wav", "conditions": [12, 800, "a", 24000], "internal_node_id": "0.0-86.0", "trial": 3, "time_elapsed": 921317, "serialpos": 5, "key_press": -1, "wordID": 306, "type": "PRES_AUD", "trial_index": 122}, "uniqueid": "MTK3790:3LEP4MGT3H7ZZBPGJQKOVJ08YS9BDM", "dateTime": 1524161118777}, {"current_trial": 123, "trialdata": {"rt": -1000, "trial_type": "single-audio", "word": "shelf", "stimulus": "/static/audio/wordpool/SHELF.wav", "conditions": [12, 800, "a", 24000], "internal_node_id": "0.0-87.0", "trial": 3, "time_elapsed": 923215, "serialpos": 6, "key_press": -1, "wordID": 1279, "type": "PRES_AUD", "trial_index": 123}, "uniqueid": "MTK3790:3LEP4MGT3H7ZZBPGJQKOVJ08YS9BDM", "dateTime": 1524161120675}, {"current_trial": 124, "trialdata": {"rt": -1000, "trial_type": "single-audio", "word": "badge", "stimulus": "/static/audio/wordpool/BADGE.wav", "conditions": [12, 800, "a", 24000], "internal_node_id": "0.0-88.0", "trial": 3, "time_elapsed": 924899, "serialpos": 7, "key_press": -1, "wordID": 67, "type": "PRES_AUD", "trial_index": 124}, "uniqueid": "MTK3790:3LEP4MGT3H7ZZBPGJQKOVJ08YS9BDM", "dateTime": 1524161122359}, {"current_trial": 125, "trialdata": {"rt": -1000, "trial_type": "single-audio", "word": "tribe", "stimulus": "/static/audio/wordpool/TRIBE.wav", "conditions": [12, 800, "a", 24000], "internal_node_id": "0.0-89.0", "trial": 3, "time_elapsed": 926761, "serialpos": 8, "key_press": -1, "wordID": 1504, "type": "PRES_AUD", "trial_index": 125}, "uniqueid": "MTK3790:3LEP4MGT3H7ZZBPGJQKOVJ08YS9BDM", "dateTime": 1524161124221}, {"current_trial": 126, "trialdata": {"rt": -1000, "trial_type": "single-audio", "word": "gangster", "stimulus": "/static/audio/wordpool/GANGSTER.wav", "conditions": [12, 800, "a", 24000], "internal_node_id": "0.0-90.0", "trial": 3, "time_elapsed": 928720, "serialpos": 9, "key_press": -1, "wordID": 619, "type": "PRES_AUD", "trial_index": 126}, "uniqueid": "MTK3790:3LEP4MGT3H7ZZBPGJQKOVJ08YS9BDM", "dateTime": 1524161126181}, {"current_trial": 127, "trialdata": {"rt": -1000, "trial_type": "single-audio", "word": "sticker", "stimulus": "/static/audio/wordpool/STICKER.wav", "conditions": [12, 800, "a", 24000], "internal_node_id": "0.0-91.0", "trial": 3, "time_elapsed": 930546, "serialpos": 10, "key_press": -1, "wordID": 1381, "type": "PRES_AUD", "trial_index": 127}, "uniqueid": "MTK3790:3LEP4MGT3H7ZZBPGJQKOVJ08YS9BDM", "dateTime": 1524161128006}, {"current_trial": 128, "trialdata": {"rt": -1000, "trial_type": "single-audio", "word": "paddle", "stimulus": "/static/audio/wordpool/PADDLE.wav", "conditions": [12, 800, "a", 24000], "internal_node_id": "0.0-92.0", "trial": 3, "time_elapsed": 932170, "serialpos": 11, "key_press": -1, "wordID": 999, "type": "PRES_AUD", "trial_index": 128}, "uniqueid": "MTK3790:3LEP4MGT3H7ZZBPGJQKOVJ08YS9BDM", "dateTime": 1524161129630}, {"current_trial": 129, "trialdata": {"rt": -1, "trial_type": "single-stim", "stimulus": "", "internal_node_id": "0.0-93.0-0.0", "time_elapsed": 933452, "key_press": -1, "type": "PRE_RECALL_DELAY", "trial_index": 129}, "uniqueid": "MTK3790:3LEP4MGT3H7ZZBPGJQKOVJ08YS9BDM", "dateTime": 1524161130912}, {"current_trial": 130, "trialdata": {"rt": -1000, "trial_type": "single-audio", "stimulus": "/static/audio/400Hz.wav", "internal_node_id": "0.0-94.0", "time_elapsed": 933953, "key_press": -1, "type": "PRE_RECALL_ALERT", "trial_index": 130}, "uniqueid": "MTK3790:3LEP4MGT3H7ZZBPGJQKOVJ08YS9BDM", "dateTime": 1524161131413}, {"current_trial": 131, "trialdata": {"rt": [5634, 7962, 9753, 11986, 13426, 16273, 19377, 23986, 26470], "recwords": ["paddle", "gangster", "toaster", "chapel", "church", "store", "cobra", "cabbage", "sticker"], "key_times": [4167, 4298, 4512, 4709, 4920, 5049, 5634, 6259, 6413, 6561, 6735, 7037, 7309, 7556, 7641, 7962, 8514, 8644, 8754, 8977, 9205, 9418, 9501, 9753, 11020, 11082, 11223, 11387, 11550, 11721, 11986, 12156, 12302, 12559, 12669, 12986, 13061, 13426, 15337, 15588, 15721, 15829, 15961, 16273, 18107, 18220, 18426, 18823, 19023, 19377, 22321, 22523, 22736, 22942, 23330, 23486, 23688, 23986, 25044, 25320, 25470, 25685, 25807, 25939, 26043, 26470], "trial_type": "free-recall", "conditions": [12, 800, "a", 24000], "internal_node_id": "0.0-95.0-0.0", "key_presses": [80, 65, 68, 68, 76, 69, 13, 71, 65, 78, 71, 83, 84, 69, 82, 13, 84, 79, 65, 83, 84, 69, 82, 13, 67, 72, 65, 80, 69, 76, 13, 67, 72, 85, 82, 67, 72, 13, 83, 84, 79, 82, 69, 13, 67, 79, 66, 82, 65, 13, 67, 65, 66, 66, 65, 71, 69, 13, 83, 84, 73, 67, 75, 69, 82, 13], "trial": 3, "time_elapsed": 993955, "type": "FREE_RECALL", "trial_index": 131}, "uniqueid": "MTK3790:3LEP4MGT3H7ZZBPGJQKOVJ08YS9BDM", "dateTime": 1524161191417}, {"current_trial": 132, "trialdata": {"rt": 1954, "trial_type": "text", "internal_node_id": "0.0-96.0", "time_elapsed": 997912, "key_press": 13, "type": "INSTRUCTIONS", "trial_index": 132}, "uniqueid": "MTK3790:3LEP4MGT3H7ZZBPGJQKOVJ08YS9BDM", "dateTime": 1524161195372}, {"current_trial": 133, "trialdata": {"rt": [2063, 8336, 10243, 12841, 15385, 17456, 20039, 21870, 23964], "trial_type": "math-distractor", "key_times": [1519, 1730, 2063, 3957, 4218, 8336, 9732, 9899, 10243, 12305, 12504, 12841, 14757, 15020, 15385, 16927, 17136, 17456, 19429, 19715, 20039, 21268, 21521, 21870, 23403, 23615, 23964], "responses": ["15", "16", "11", "12", "16", "15", "16", "18", "14"], "num2": [4, 5, 5, 7, 3, 7, 6, 8, 3, 7], "num3": [8, 9, 5, 2, 4, 1, 3, 9, 5, 9], "conditions": [12, 1600, "a", 24000], "internal_node_id": "0.0-97.0", "key_presses": [97, 101, 13, 97, 102, 13, 97, 97, 13, 97, 98, 13, 97, 102, 13, 97, 101, 13, 97, 102, 13, 97, 104, 13, 97, 100, 13], "trial": 4, "time_elapsed": 1023915, "type": "DISTRACTOR", "trial_index": 133, "num1": [3, 2, 1, 4, 9, 7, 7, 1, 6, 9]}, "uniqueid": "MTK3790:3LEP4MGT3H7ZZBPGJQKOVJ08YS9BDM", "dateTime": 1524161221375}, {"current_trial": 134, "trialdata": {"rt": -1, "trial_type": "single-stim", "stimulus": "<p id=\"stim\">10</p>", "internal_node_id": "0.0-98.0-0.0", "time_elapsed": 1026915, "key_press": -1, "trial_index": 134}, "uniqueid": "MTK3790:3LEP4MGT3H7ZZBPGJQKOVJ08YS9BDM", "dateTime": 1524161224375}, {"current_trial": 135, "trialdata": {"rt": -1, "trial_type": "single-stim", "stimulus": "<p id=\"stim\">9</p>", "internal_node_id": "0.0-98.0-1.0", "time_elapsed": 1027916, "key_press": -1, "trial_index": 135}, "uniqueid": "MTK3790:3LEP4MGT3H7ZZBPGJQKOVJ08YS9BDM", "dateTime": 1524161225376}, {"current_trial": 136, "trialdata": {"rt": -1, "trial_type": "single-stim", "stimulus": "<p id=\"stim\">8</p>", "internal_node_id": "0.0-98.0-2.0", "time_elapsed": 1028917, "key_press": -1, "trial_index": 136}, "uniqueid": "MTK3790:3LEP4MGT3H7ZZBPGJQKOVJ08YS9BDM", "dateTime": 1524161226377}, {"current_trial": 137, "trialdata": {"rt": -1, "trial_type": "single-stim", "stimulus": "<p id=\"stim\">7</p>", "internal_node_id": "0.0-98.0-3.0", "time_elapsed": 1029918, "key_press": -1, "trial_index": 137}, "uniqueid": "MTK3790:3LEP4MGT3H7ZZBPGJQKOVJ08YS9BDM", "dateTime": 1524161227378}, {"current_trial": 138, "trialdata": {"rt": -1, "trial_type": "single-stim", "stimulus": "<p id=\"stim\">6</p>", "internal_node_id": "0.0-98.0-4.0", "time_elapsed": 1030918, "key_press": -1, "trial_index": 138}, "uniqueid": "MTK3790:3LEP4MGT3H7ZZBPGJQKOVJ08YS9BDM", "dateTime": 1524161228378}, {"current_trial": 139, "trialdata": {"rt": -1, "trial_type": "single-stim", "stimulus": "<p id=\"stim\">5</p>", "internal_node_id": "0.0-98.0-5.0", "time_elapsed": 1031920, "key_press": -1, "trial_index": 139}, "uniqueid": "MTK3790:3LEP4MGT3H7ZZBPGJQKOVJ08YS9BDM", "dateTime": 1524161229380}, {"current_trial": 140, "trialdata": {"rt": -1, "trial_type": "single-stim", "stimulus": "<p id=\"stim\">4</p>", "internal_node_id": "0.0-98.0-6.0", "time_elapsed": 1032921, "key_press": -1, "trial_index": 140}, "uniqueid": "MTK3790:3LEP4MGT3H7ZZBPGJQKOVJ08YS9BDM", "dateTime": 1524161230381}, {"current_trial": 141, "trialdata": {"rt": -1, "trial_type": "single-stim", "stimulus": "<p id=\"stim\">3</p>", "internal_node_id": "0.0-98.0-7.0", "time_elapsed": 1033921, "key_press": -1, "trial_index": 141}, "uniqueid": "MTK3790:3LEP4MGT3H7ZZBPGJQKOVJ08YS9BDM", "dateTime": 1524161231381}, {"current_trial": 142, "trialdata": {"rt": -1, "trial_type": "single-stim", "stimulus": "<p id=\"stim\">2</p>", "internal_node_id": "0.0-98.0-8.0", "time_elapsed": 1034923, "key_press": -1, "trial_index": 142}, "uniqueid": "MTK3790:3LEP4MGT3H7ZZBPGJQKOVJ08YS9BDM", "dateTime": 1524161232383}, {"current_trial": 143, "trialdata": {"rt": -1, "trial_type": "single-stim", "stimulus": "<p id=\"stim\">1</p>", "internal_node_id": "0.0-98.0-9.0", "time_elapsed": 1035925, "key_press": -1, "trial_index": 143}, "uniqueid": "MTK3790:3LEP4MGT3H7ZZBPGJQKOVJ08YS9BDM", "dateTime": 1524161233385}, {"current_trial": 144, "trialdata": {"rt": -1, "trial_type": "single-stim", "stimulus": "<p id=\"stim\">+</p>", "internal_node_id": "0.0-99.0-0.0", "time_elapsed": 1037426, "key_press": -1, "type": "FIXATION", "trial_index": 144}, "uniqueid": "MTK3790:3LEP4MGT3H7ZZBPGJQKOVJ08YS9BDM", "dateTime": 1524161234886}, {"current_trial": 145, "trialdata": {"rt": -1000, "trial_type": "single-audio", "word": "crown", "stimulus": "/static/audio/wordpool/CROWN.wav", "conditions": [12, 1600, "a", 24000], "internal_node_id": "0.0-100.0", "trial": 4, "time_elapsed": 1040082, "serialpos": 0, "key_press": -1, "wordID": 414, "type": "PRES_AUD", "trial_index": 145}, "uniqueid": "MTK3790:3LEP4MGT3H7ZZBPGJQKOVJ08YS9BDM", "dateTime": 1524161237542}, {"current_trial": 146, "trialdata": {"rt": -1000, "trial_type": "single-audio", "word": "actress", "stimulus": "/static/audio/wordpool/ACTRESS.wav", "conditions": [12, 1600, "a", 24000], "internal_node_id": "0.0-101.0", "trial": 4, "time_elapsed": 1042800, "serialpos": 1, "key_press": -1, "wordID": 5, "type": "PRES_AUD", "trial_index": 146}, "uniqueid": "MTK3790:3LEP4MGT3H7ZZBPGJQKOVJ08YS9BDM", "dateTime": 1524161240260}, {"current_trial": 147, "trialdata": {"rt": -1000, "trial_type": "single-audio", "word": "hiker", "stimulus": "/static/audio/wordpool/HIKER.wav", "conditions": [12, 1600, "a", 24000], "internal_node_id": "0.0-102.0", "trial": 4, "time_elapsed": 1045265, "serialpos": 2, "key_press": -1, "wordID": 707, "type": "PRES_AUD", "trial_index": 147}, "uniqueid": "MTK3790:3LEP4MGT3H7ZZBPGJQKOVJ08YS9BDM", "dateTime": 1524161242725}, {"current_trial": 148, "trialdata": {"rt": -1000, "trial_type": "single-audio", "word": "climber", "stimulus": "/static/audio/wordpool/CLIMBER.wav", "conditions": [12, 1600, "a", 24000], "internal_node_id": "0.0-103.0", "trial": 4, "time_elapsed": 1047765, "serialpos": 3, "key_press": -1, "wordID": 322, "type": "PRES_AUD", "trial_index": 148}, "uniqueid": "MTK3790:3LEP4MGT3H7ZZBPGJQKOVJ08YS9BDM", "dateTime": 1524161245225}, {"current_trial": 149, "trialdata": {"rt": -1000, "trial_type": "single-audio", "word": "actor", "stimulus": "/static/audio/wordpool/ACTOR.wav", "conditions": [12, 1600, "a", 24000], "internal_node_id": "0.0-104.0", "trial": 4, "time_elapsed": 1050185, "serialpos": 4, "key_press": -1, "wordID": 4, "type": "PRES_AUD", "trial_index": 149}, "uniqueid": "MTK3790:3LEP4MGT3H7ZZBPGJQKOVJ08YS9BDM", "dateTime": 1524161247645}, {"current_trial": 150, "trialdata": {"rt": -1000, "trial_type": "single-audio", "word": "sausage", "stimulus": "/static/audio/wordpool/SAUSAGE.wav", "conditions": [12, 1600, "a", 24000], "internal_node_id": "0.0-105.0", "trial": 4, "time_elapsed": 1052615, "serialpos": 5, "key_press": -1, "wordID": 1237, "type": "PRES_AUD", "trial_index": 150}, "uniqueid": "MTK3790:3LEP4MGT3H7ZZBPGJQKOVJ08YS9BDM", "dateTime": 1524161250075}, {"current_trial": 151, "trialdata": {"rt": -1000, "trial_type": "single-audio", "word": "doughnut", "stimulus": "/static/audio/wordpool/DOUGHNUT.wav", "conditions": [12, 1600, "a", 24000], "internal_node_id": "0.0-106.0", "trial": 4, "time_elapsed": 1055022, "serialpos": 6, "key_press": -1, "wordID": 489, "type": "PRES_AUD", "trial_index": 151}, "uniqueid": "MTK3790:3LEP4MGT3H7ZZBPGJQKOVJ08YS9BDM", "dateTime": 1524161252482}, {"current_trial": 152, "trialdata": {"rt": -1000, "trial_type": "single-audio", "word": "woman", "stimulus": "/static/audio/wordpool/WOMAN.wav", "conditions": [12, 1600, "a", 24000], "internal_node_id": "0.0-107.0", "trial": 4, "time_elapsed": 1057666, "serialpos": 7, "key_press": -1, "wordID": 1619, "type": "PRES_AUD", "trial_index": 152}, "uniqueid": "MTK3790:3LEP4MGT3H7ZZBPGJQKOVJ08YS9BDM", "dateTime": 1524161255126}, {"current_trial": 153, "trialdata": {"rt": -1000, "trial_type": "single-audio", "word": "knife", "stimulus": "/static/audio/wordpool/KNIFE.wav", "conditions": [12, 1600, "a", 24000], "internal_node_id": "0.0-108.0", "trial": 4, "time_elapsed": 1060297, "serialpos": 8, "key_press": -1, "wordID": 784, "type": "PRES_AUD", "trial_index": 153}, "uniqueid": "MTK3790:3LEP4MGT3H7ZZBPGJQKOVJ08YS9BDM", "dateTime": 1524161257757}, {"current_trial": 154, "trialdata": {"rt": -1000, "trial_type": "single-audio", "word": "clock", "stimulus": "/static/audio/wordpool/CLOCK.wav", "conditions": [12, 1600, "a", 24000], "internal_node_id": "0.0-109.0", "trial": 4, "time_elapsed": 1062992, "serialpos": 9, "key_press": -1, "wordID": 324, "type": "PRES_AUD", "trial_index": 154}, "uniqueid": "MTK3790:3LEP4MGT3H7ZZBPGJQKOVJ08YS9BDM", "dateTime": 1524161260452}, {"current_trial": 155, "trialdata": {"rt": -1000, "trial_type": "single-audio", "word": "brandy", "stimulus": "/static/audio/wordpool/BRANDY.wav", "conditions": [12, 1600, "a", 24000], "internal_node_id": "0.0-110.0", "trial": 4, "time_elapsed": 1065418, "serialpos": 10, "key_press": -1, "wordID": 168, "type": "PRES_AUD", "trial_index": 155}, "uniqueid": "MTK3790:3LEP4MGT3H7ZZBPGJQKOVJ08YS9BDM", "dateTime": 1524161262878}, {"current_trial": 156, "trialdata": {"rt": -1000, "trial_type": "single-audio", "word": "wrist", "stimulus": "/static/audio/wordpool/WRIST.wav", "conditions": [12, 1600, "a", 24000], "internal_node_id": "0.0-111.0", "trial": 4, "time_elapsed": 1068154, "serialpos": 11, "key_press": -1, "wordID": 1625, "type": "PRES_AUD", "trial_index": 156}, "uniqueid": "MTK3790:3LEP4MGT3H7ZZBPGJQKOVJ08YS9BDM", "dateTime": 1524161265614}, {"current_trial": 157, "trialdata": {"rt": -1, "trial_type": "single-stim", "stimulus": "", "internal_node_id": "0.0-112.0-0.0", "time_elapsed": 1069531, "key_press": -1, "type": "PRE_RECALL_DELAY", "trial_index": 157}, "uniqueid": "MTK3790:3LEP4MGT3H7ZZBPGJQKOVJ08YS9BDM", "dateTime": 1524161266991}, {"current_trial": 158, "trialdata": {"rt": -1000, "trial_type": "single-audio", "stimulus": "/static/audio/400Hz.wav", "internal_node_id": "0.0-113.0", "time_elapsed": 1070032, "key_press": -1, "type": "PRE_RECALL_ALERT", "trial_index": 158}, "uniqueid": "MTK3790:3LEP4MGT3H7ZZBPGJQKOVJ08YS9BDM", "dateTime": 1524161267493}, {"current_trial": 159, "trialdata": {"rt": [3408, 5136, 6458, 8400, 10582, 13287, 15658, 16997, 18812, 22105, 28378, 31217, 38414], "recwords": ["wrist", "brandy", "clock", "knife", "woman", "hiker", "climber", "actor", "actress", "clock", "crown", "clock", "wrist"], "key_times": [2053, 2501, 2761, 2913, 3131, 3408, 3698, 3918, 4084, 4216, 4485, 4772, 5136, 5478, 5591, 5784, 5956, 6106, 6458, 7054, 7246, 7435, 7736, 7984, 8400, 9571, 9657, 9820, 9997, 10116, 10582, 12250, 12456, 12702, 12878, 12958, 13287, 13699, 13825, 13975, 14199, 14391, 14788, 15324, 15658, 16038, 16278, 16524, 16659, 16733, 16997, 17128, 17386, 17586, 17793, 17951, 18188, 18390, 18812, 21128, 21293, 21501, 21677, 21792, 22105, 26933, 27243, 27437, 27647, 27914, 28378, 30286, 30471, 30637, 30763, 30892, 31217, 37404, 37677, 37838, 37995, 38211, 38414], "trial_type": "free-recall", "conditions": [12, 1600, "a", 24000], "internal_node_id": "0.0-114.0-0.0", "key_presses": [87, 82, 73, 83, 84, 13, 66, 82, 65, 78, 68, 89, 13, 67, 76, 79, 67, 75, 13, 75, 78, 73, 70, 69, 13, 87, 79, 77, 65, 78, 13, 72, 73, 75, 69, 82, 13, 67, 76, 73, 77, 66, 69, 82, 13, 65, 67, 84, 79, 82, 13, 65, 67, 84, 82, 69, 83, 83, 13, 67, 76, 79, 67, 75, 13, 67, 82, 79, 87, 78, 13, 67, 76, 79, 67, 75, 13, 87, 82, 73, 83, 84, 13], "trial": 4, "time_elapsed": 1130035, "type": "FREE_RECALL", "trial_index": 159}, "uniqueid": "MTK3790:3LEP4MGT3H7ZZBPGJQKOVJ08YS9BDM", "dateTime": 1524161327498}, {"current_trial": 160, "trialdata": {"rt": 5504, "trial_type": "text", "internal_node_id": "0.0-115.0", "time_elapsed": 1137545, "key_press": 13, "type": "INSTRUCTIONS", "trial_index": 160}, "uniqueid": "MTK3790:3LEP4MGT3H7ZZBPGJQKOVJ08YS9BDM", "dateTime": 1524161335005}, {"current_trial": 161, "trialdata": {"rt": [2044, 3973, 5973, 7888, 9883, 12534, 15037, 16887, 18699, 20379, 22806], "trial_type": "math-distractor", "key_times": [1405, 1629, 2044, 3391, 3559, 3973, 5397, 5630, 5973, 7281, 7535, 7888, 9296, 9558, 9883, 11957, 12166, 12534, 14693, 15037, 16333, 16590, 16887, 18138, 18342, 18699, 19892, 20056, 20379, 21803, 22342, 22806], "responses": ["14", "14", "18", "13", "13", "21", "9", "16", "14", "11", "22"], "num2": [2, 5, 6, 3, 8, 6, 1, 5, 4, 3, 6, 8], "num3": [5, 5, 6, 6, 2, 8, 4, 3, 5, 3, 9, 8], "conditions": [24, 1600, "a", 24000], "internal_node_id": "0.0-116.0", "key_presses": [97, 100, 13, 97, 100, 13, 97, 104, 13, 97, 99, 13, 97, 99, 13, 98, 97, 13, 105, 13, 97, 102, 13, 97, 100, 13, 97, 97, 13, 98, 98, 13], "trial": 5, "time_elapsed": 1163549, "type": "DISTRACTOR", "trial_index": 161, "num1": [7, 4, 6, 4, 3, 7, 4, 8, 5, 5, 7, 2]}, "uniqueid": "MTK3790:3LEP4MGT3H7ZZBPGJQKOVJ08YS9BDM", "dateTime": 1524161361009}, {"current_trial": 162, "trialdata": {"rt": -1, "trial_type": "single-stim", "stimulus": "<p id=\"stim\">10</p>", "internal_node_id": "0.0-117.0-0.0", "time_elapsed": 1166551, "key_press": -1, "trial_index": 162}, "uniqueid": "MTK3790:3LEP4MGT3H7ZZBPGJQKOVJ08YS9BDM", "dateTime": 1524161364011}, {"current_trial": 163, "trialdata": {"rt": -1, "trial_type": "single-stim", "stimulus": "<p id=\"stim\">9</p>", "internal_node_id": "0.0-117.0-1.0", "time_elapsed": 1167552, "key_press": -1, "trial_index": 163}, "uniqueid": "MTK3790:3LEP4MGT3H7ZZBPGJQKOVJ08YS9BDM", "dateTime": 1524161365013}, {"current_trial": 164, "trialdata": {"rt": -1, "trial_type": "single-stim", "stimulus": "<p id=\"stim\">8</p>", "internal_node_id": "0.0-117.0-2.0", "time_elapsed": 1168554, "key_press": -1, "trial_index": 164}, "uniqueid": "MTK3790:3LEP4MGT3H7ZZBPGJQKOVJ08YS9BDM", "dateTime": 1524161366014}, {"current_trial": 165, "trialdata": {"rt": -1, "trial_type": "single-stim", "stimulus": "<p id=\"stim\">7</p>", "internal_node_id": "0.0-117.0-3.0", "time_elapsed": 1169555, "key_press": -1, "trial_index": 165}, "uniqueid": "MTK3790:3LEP4MGT3H7ZZBPGJQKOVJ08YS9BDM", "dateTime": 1524161367015}, {"current_trial": 166, "trialdata": {"rt": -1, "trial_type": "single-stim", "stimulus": "<p id=\"stim\">6</p>", "internal_node_id": "0.0-117.0-4.0", "time_elapsed": 1170557, "key_press": -1, "trial_index": 166}, "uniqueid": "MTK3790:3LEP4MGT3H7ZZBPGJQKOVJ08YS9BDM", "dateTime": 1524161368017}, {"current_trial": 167, "trialdata": {"rt": -1, "trial_type": "single-stim", "stimulus": "<p id=\"stim\">5</p>", "internal_node_id": "0.0-117.0-5.0", "time_elapsed": 1171557, "key_press": -1, "trial_index": 167}, "uniqueid": "MTK3790:3LEP4MGT3H7ZZBPGJQKOVJ08YS9BDM", "dateTime": 1524161369018}, {"current_trial": 168, "trialdata": {"rt": -1, "trial_type": "single-stim", "stimulus": "<p id=\"stim\">4</p>", "internal_node_id": "0.0-117.0-6.0", "time_elapsed": 1172558, "key_press": -1, "trial_index": 168}, "uniqueid": "MTK3790:3LEP4MGT3H7ZZBPGJQKOVJ08YS9BDM", "dateTime": 1524161370018}, {"current_trial": 169, "trialdata": {"rt": -1, "trial_type": "single-stim", "stimulus": "<p id=\"stim\">3</p>", "internal_node_id": "0.0-117.0-7.0", "time_elapsed": 1173560, "key_press": -1, "trial_index": 169}, "uniqueid": "MTK3790:3LEP4MGT3H7ZZBPGJQKOVJ08YS9BDM", "dateTime": 1524161371020}, {"current_trial": 170, "trialdata": {"rt": -1, "trial_type": "single-stim", "stimulus": "<p id=\"stim\">2</p>", "internal_node_id": "0.0-117.0-8.0", "time_elapsed": 1174561, "key_press": -1, "trial_index": 170}, "uniqueid": "MTK3790:3LEP4MGT3H7ZZBPGJQKOVJ08YS9BDM", "dateTime": 1524161372021}, {"current_trial": 171, "trialdata": {"rt": -1, "trial_type": "single-stim", "stimulus": "<p id=\"stim\">1</p>", "internal_node_id": "0.0-117.0-9.0", "time_elapsed": 1175561, "key_press": -1, "trial_index": 171}, "uniqueid": "MTK3790:3LEP4MGT3H7ZZBPGJQKOVJ08YS9BDM", "dateTime": 1524161373022}, {"current_trial": 172, "trialdata": {"rt": -1, "trial_type": "single-stim", "stimulus": "<p id=\"stim\">+</p>", "internal_node_id": "0.0-118.0-0.0", "time_elapsed": 1177062, "key_press": -1, "type": "FIXATION", "trial_index": 172}, "uniqueid": "MTK3790:3LEP4MGT3H7ZZBPGJQKOVJ08YS9BDM", "dateTime": 1524161374523}, {"current_trial": 173, "trialdata": {"rt": -1000, "trial_type": "single-audio", "word": "spool", "stimulus": "/static/audio/wordpool/SPOOL.wav", "conditions": [24, 1600, "a", 24000], "internal_node_id": "0.0-119.0", "trial": 5, "time_elapsed": 1179728, "serialpos": 0, "key_press": -1, "wordID": 1355, "type": "PRES_AUD", "trial_index": 173}, "uniqueid": "MTK3790:3LEP4MGT3H7ZZBPGJQKOVJ08YS9BDM", "dateTime": 1524161377188}, {"current_trial": 174, "trialdata": {"rt": -1000, "trial_type": "single-audio", "word": "rod", "stimulus": "/static/audio/wordpool/ROD.wav", "conditions": [24, 1600, "a", 24000], "internal_node_id": "0.0-120.0", "trial": 5, "time_elapsed": 1182339, "serialpos": 1, "key_press": -1, "wordID": 1202, "type": "PRES_AUD", "trial_index": 174}, "uniqueid": "MTK3790:3LEP4MGT3H7ZZBPGJQKOVJ08YS9BDM", "dateTime": 1524161379799}, {"current_trial": 175, "trialdata": {"rt": -1000, "trial_type": "single-audio", "word": "college", "stimulus": "/static/audio/wordpool/COLLEGE.wav", "conditions": [24, 1600, "a", 24000], "internal_node_id": "0.0-121.0", "trial": 5, "time_elapsed": 1185083, "serialpos": 2, "key_press": -1, "wordID": 345, "type": "PRES_AUD", "trial_index": 175}, "uniqueid": "MTK3790:3LEP4MGT3H7ZZBPGJQKOVJ08YS9BDM", "dateTime": 1524161382545}, {"current_trial": 176, "trialdata": {"rt": -1000, "trial_type": "single-audio", "word": "scallop", "stimulus": "/static/audio/wordpool/SCALLOP.wav", "conditions": [24, 1600, "a", 24000], "internal_node_id": "0.0-122.0", "trial": 5, "time_elapsed": 1187699, "serialpos": 3, "key_press": -1, "wordID": 1241, "type": "PRES_AUD", "trial_index": 176}, "uniqueid": "MTK3790:3LEP4MGT3H7ZZBPGJQKOVJ08YS9BDM", "dateTime": 1524161385159}, {"current_trial": 177, "trialdata": {"rt": -1000, "trial_type": "single-audio", "word": "baby", "stimulus": "/static/audio/wordpool/BABY.wav", "conditions": [24, 1600, "a", 24000], "internal_node_id": "0.0-123.0", "trial": 5, "time_elapsed": 1190151, "serialpos": 4, "key_press": -1, "wordID": 63, "type": "PRES_AUD", "trial_index": 177}, "uniqueid": "MTK3790:3LEP4MGT3H7ZZBPGJQKOVJ08YS9BDM", "dateTime": 1524161387611}, {"current_trial": 178, "trialdata": {"rt": -1000, "trial_type": "single-audio", "word": "fungus", "stimulus": "/static/audio/wordpool/FUNGUS.wav", "conditions": [24, 1600, "a", 24000], "internal_node_id": "0.0-124.0", "trial": 5, "time_elapsed": 1192940, "serialpos": 5, "key_press": -1, "wordID": 613, "type": "PRES_AUD", "trial_index": 178}, "uniqueid": "MTK3790:3LEP4MGT3H7ZZBPGJQKOVJ08YS9BDM", "dateTime": 1524161390401}, {"current_trial": 179, "trialdata": {"rt": -1000, "trial_type": "single-audio", "word": "primate", "stimulus": "/static/audio/wordpool/PRIMATE.wav", "conditions": [24, 1600, "a", 24000], "internal_node_id": "0.0-125.0", "trial": 5, "time_elapsed": 1195478, "serialpos": 6, "key_press": -1, "wordID": 1122, "type": "PRES_AUD", "trial_index": 179}, "uniqueid": "MTK3790:3LEP4MGT3H7ZZBPGJQKOVJ08YS9BDM", "dateTime": 1524161392938}, {"current_trial": 180, "trialdata": {"rt": -1000, "trial_type": "single-audio", "word": "ozone", "stimulus": "/static/audio/wordpool/OZONE.wav", "conditions": [24, 1600, "a", 24000], "internal_node_id": "0.0-126.0", "trial": 5, "time_elapsed": 1198077, "serialpos": 7, "key_press": -1, "wordID": 995, "type": "PRES_AUD", "trial_index": 180}, "uniqueid": "MTK3790:3LEP4MGT3H7ZZBPGJQKOVJ08YS9BDM", "dateTime": 1524161395537}, {"current_trial": 181, "trialdata": {"rt": -1000, "trial_type": "single-audio", "word": "suspect", "stimulus": "/static/audio/wordpool/SUSPECT.wav", "conditions": [24, 1600, "a", 24000], "internal_node_id": "0.0-127.0", "trial": 5, "time_elapsed": 1200726, "serialpos": 8, "key_press": -1, "wordID": 1414, "type": "PRES_AUD", "trial_index": 181}, "uniqueid": "MTK3790:3LEP4MGT3H7ZZBPGJQKOVJ08YS9BDM", "dateTime": 1524161398186}, {"current_trial": 182, "trialdata": {"rt": -1000, "trial_type": "single-audio", "word": "plaza", "stimulus": "/static/audio/wordpool/PLAZA.wav", "conditions": [24, 1600, "a", 24000], "internal_node_id": "0.0-128.0", "trial": 5, "time_elapsed": 1203366, "serialpos": 9, "key_press": -1, "wordID": 1087, "type": "PRES_AUD", "trial_index": 182}, "uniqueid": "MTK3790:3LEP4MGT3H7ZZBPGJQKOVJ08YS9BDM", "dateTime": 1524161400826}, {"current_trial": 183, "trialdata": {"rt": -1000, "trial_type": "single-audio", "word": "softball", "stimulus": "/static/audio/wordpool/SOFTBALL.wav", "conditions": [24, 1600, "a", 24000], "internal_node_id": "0.0-129.0", "trial": 5, "time_elapsed": 1205880, "serialpos": 10, "key_press": -1, "wordID": 1342, "type": "PRES_AUD", "trial_index": 183}, "uniqueid": "MTK3790:3LEP4MGT3H7ZZBPGJQKOVJ08YS9BDM", "dateTime": 1524161403340}, {"current_trial": 184, "trialdata": {"rt": -1000, "trial_type": "single-audio", "word": "seafood", "stimulus": "/static/audio/wordpool/SEAFOOD.wav", "conditions": [24, 1600, "a", 24000], "internal_node_id": "0.0-130.0", "trial": 5, "time_elapsed": 1208553, "serialpos": 11, "key_press": -1, "wordID": 1259, "type": "PRES_AUD", "trial_index": 184}, "uniqueid": "MTK3790:3LEP4MGT3H7ZZBPGJQKOVJ08YS9BDM", "dateTime": 1524161406013}, {"current_trial": 185, "trialdata": {"rt": -1000, "trial_type": "single-audio", "word": "stone", "stimulus": "/static/audio/wordpool/STONE.wav", "conditions": [24, 1600, "a", 24000], "internal_node_id": "0.0-131.0", "trial": 5, "time_elapsed": 1211262, "serialpos": 12, "key_press": -1, "wordID": 1384, "type": "PRES_AUD", "trial_index": 185}, "uniqueid": "MTK3790:3LEP4MGT3H7ZZBPGJQKOVJ08YS9BDM", "dateTime": 1524161408722}, {"current_trial": 186, "trialdata": {"rt": -1000, "trial_type": "single-audio", "word": "viking", "stimulus": "/static/audio/wordpool/VIKING.wav", "conditions": [24, 1600, "a", 24000], "internal_node_id": "0.0-132.0", "trial": 5, "time_elapsed": 1214017, "serialpos": 13, "key_press": -1, "wordID": 1564, "type": "PRES_AUD", "trial_index": 186}, "uniqueid": "MTK3790:3LEP4MGT3H7ZZBPGJQKOVJ08YS9BDM", "dateTime": 1524161411477}, {"current_trial": 187, "trialdata": {"rt": -1000, "trial_type": "single-audio", "word": "fleet", "stimulus": "/static/audio/wordpool/FLEET.wav", "conditions": [24, 1600, "a", 24000], "internal_node_id": "0.0-133.0", "trial": 5, "time_elapsed": 1216739, "serialpos": 14, "key_press": -1, "wordID": 577, "type": "PRES_AUD", "trial_index": 187}, "uniqueid": "MTK3790:3LEP4MGT3H7ZZBPGJQKOVJ08YS9BDM", "dateTime": 1524161414199}, {"current_trial": 188, "trialdata": {"rt": -1000, "trial_type": "single-audio", "word": "tombstone", "stimulus": "/static/audio/wordpool/TOMBSTONE.wav", "conditions": [24, 1600, "a", 24000], "internal_node_id": "0.0-134.0", "trial": 5, "time_elapsed": 1219529, "serialpos": 15, "key_press": -1, "wordID": 1477, "type": "PRES_AUD", "trial_index": 188}, "uniqueid": "MTK3790:3LEP4MGT3H7ZZBPGJQKOVJ08YS9BDM", "dateTime": 1524161416989}, {"current_trial": 189, "trialdata": {"rt": -1000, "trial_type": "single-audio", "word": "mattress", "stimulus": "/static/audio/wordpool/MATTRESS.wav", "conditions": [24, 1600, "a", 24000], "internal_node_id": "0.0-135.0", "trial": 5, "time_elapsed": 1221972, "serialpos": 16, "key_press": -1, "wordID": 878, "type": "PRES_AUD", "trial_index": 189}, "uniqueid": "MTK3790:3LEP4MGT3H7ZZBPGJQKOVJ08YS9BDM", "dateTime": 1524161419432}, {"current_trial": 190, "trialdata": {"rt": -1000, "trial_type": "single-audio", "word": "briefcase", "stimulus": "/static/audio/wordpool/BRIEFCASE.wav", "conditions": [24, 1600, "a", 24000], "internal_node_id": "0.0-136.0", "trial": 5, "time_elapsed": 1224524, "serialpos": 17, "key_press": -1, "wordID": 174, "type": "PRES_AUD", "trial_index": 190}, "uniqueid": "MTK3790:3LEP4MGT3H7ZZBPGJQKOVJ08YS9BDM", "dateTime": 1524161421985}, {"current_trial": 191, "trialdata": {"rt": -1000, "trial_type": "single-audio", "word": "knapsack", "stimulus": "/static/audio/wordpool/KNAPSACK.wav", "conditions": [24, 1600, "a", 24000], "internal_node_id": "0.0-137.0", "trial": 5, "time_elapsed": 1226948, "serialpos": 18, "key_press": -1, "wordID": 782, "type": "PRES_AUD", "trial_index": 191}, "uniqueid": "MTK3790:3LEP4MGT3H7ZZBPGJQKOVJ08YS9BDM", "dateTime": 1524161424408}, {"current_trial": 192, "trialdata": {"rt": -1000, "trial_type": "single-audio", "word": "bubble", "stimulus": "/static/audio/wordpool/BUBBLE.wav", "conditions": [24, 1600, "a", 24000], "internal_node_id": "0.0-138.0", "trial": 5, "time_elapsed": 1229396, "serialpos": 19, "key_press": -1, "wordID": 182, "type": "PRES_AUD", "trial_index": 192}, "uniqueid": "MTK3790:3LEP4MGT3H7ZZBPGJQKOVJ08YS9BDM", "dateTime": 1524161426856}, {"current_trial": 193, "trialdata": {"rt": -1000, "trial_type": "single-audio", "word": "chauffeur", "stimulus": "/static/audio/wordpool/CHAUFFEUR.wav", "conditions": [24, 1600, "a", 24000], "internal_node_id": "0.0-139.0", "trial": 5, "time_elapsed": 1231957, "serialpos": 20, "key_press": -1, "wordID": 282, "type": "PRES_AUD", "trial_index": 193}, "uniqueid": "MTK3790:3LEP4MGT3H7ZZBPGJQKOVJ08YS9BDM", "dateTime": 1524161429417}, {"current_trial": 194, "trialdata": {"rt": -1000, "trial_type": "single-audio", "word": "pasta", "stimulus": "/static/audio/wordpool/PASTA.wav", "conditions": [24, 1600, "a", 24000], "internal_node_id": "0.0-140.0", "trial": 5, "time_elapsed": 1234446, "serialpos": 21, "key_press": -1, "wordID": 1020, "type": "PRES_AUD", "trial_index": 194}, "uniqueid": "MTK3790:3LEP4MGT3H7ZZBPGJQKOVJ08YS9BDM", "dateTime": 1524161431906}, {"current_trial": 195, "trialdata": {"rt": -1000, "trial_type": "single-audio", "word": "leopard", "stimulus": "/static/audio/wordpool/LEOPARD.wav", "conditions": [24, 1600, "a", 24000], "internal_node_id": "0.0-141.0", "trial": 5, "time_elapsed": 1236926, "serialpos": 22, "key_press": -1, "wordID": 811, "type": "PRES_AUD", "trial_index": 195}, "uniqueid": "MTK3790:3LEP4MGT3H7ZZBPGJQKOVJ08YS9BDM", "dateTime": 1524161434386}, {"current_trial": 196, "trialdata": {"rt": -1000, "trial_type": "single-audio", "word": "casket", "stimulus": "/static/audio/wordpool/CASKET.wav", "conditions": [24, 1600, "a", 24000], "internal_node_id": "0.0-142.0", "trial": 5, "time_elapsed": 1239646, "serialpos": 23, "key_press": -1, "wordID": 254, "type": "PRES_AUD", "trial_index": 196}, "uniqueid": "MTK3790:3LEP4MGT3H7ZZBPGJQKOVJ08YS9BDM", "dateTime": 1524161437106}, {"current_trial": 197, "trialdata": {"rt": -1, "trial_type": "single-stim", "stimulus": "", "internal_node_id": "0.0-143.0-0.0", "time_elapsed": 1241015, "key_press": -1, "type": "PRE_RECALL_DELAY", "trial_index": 197}, "uniqueid": "MTK3790:3LEP4MGT3H7ZZBPGJQKOVJ08YS9BDM", "dateTime": 1524161438475}, {"current_trial": 198, "trialdata": {"rt": -1000, "trial_type": "single-audio", "stimulus": "/static/audio/400Hz.wav", "internal_node_id": "0.0-144.0", "time_elapsed": 1241516, "key_press": -1, "type": "PRE_RECALL_ALERT", "trial_index": 198}, "uniqueid": "MTK3790:3LEP4MGT3H7ZZBPGJQKOVJ08YS9BDM", "dateTime": 1524161438976}, {"current_trial": 199, "trialdata": {"rt": [4498, 6611, 8383, 10081, 12448, 14750, 18605, 21250, 24172, 25571, 27287, 29945, 33383, 36802, 46153, 51391, 55270], "recwords": ["casket", "leopard", "pasta", "bubble", "pleat", "mattress", "spool", "rod", "scallop", "baby", "fungus", "ozone", "plaza", "viking", "college", "softball", "seafood"], "key_times": [3377, 3539, 3772, 3970, 4083, 4319, 4498, 5147, 5337, 5529, 5762, 5953, 6126, 6367, 6611, 6997, 7153, 7261, 7506, 8135, 8383, 8573, 8788, 9044, 9203, 9454, 9639, 10081, 11191, 11417, 11531, 11878, 12113, 12448, 13048, 13162, 13382, 13542, 13733, 13865, 14128, 14304, 14750, 15856, 17336, 17591, 17746, 17998, 18605, 20716, 20807, 20992, 21250, 22457, 22723, 22874, 23114, 23271, 23497, 23791, 24172, 24843, 24988, 25093, 25192, 25571, 26014, 26155, 26377, 26722, 26866, 26997, 27287, 28984, 29316, 29424, 29556, 29650, 29945, 32054, 32272, 32419, 32810, 33062, 33383, 35589, 35761, 36020, 36230, 36394, 36515, 36802, 44925, 45033, 45304, 45481, 45529, 45744, 45929, 46153, 49403, 49627, 49748, 50112, 50408, 50575, 50881, 51004, 51391, 53825, 54081, 54243, 54435, 54677, 54852, 54988, 55270], "trial_type": "free-recall", "conditions": [24, 1600, "a", 24000], "internal_node_id": "0.0-145.0-0.0", "key_presses": [67, 65, 83, 75, 69, 84, 13, 76, 69, 79, 80, 65, 82, 68, 13, 80, 65, 83, 84, 65, 13, 66, 85, 66, 66, 76, 69, 13, 80, 76, 69, 65, 84, 13, 77, 65, 84, 84, 82, 69, 83, 83, 13, 83, 80, 79, 79, 76, 13, 82, 79, 68, 13, 83, 67, 65, 76, 76, 79, 80, 13, 66, 65, 66, 89, 13, 70, 85, 78, 71, 85, 83, 13, 79, 90, 79, 78, 69, 13, 80, 76, 65, 90, 65, 13, 86, 73, 75, 73, 78, 71, 13, 67, 79, 76, 76, 69, 71, 69, 13, 83, 79, 70, 84, 66, 65, 76, 76, 13, 83, 69, 65, 70, 79, 79, 68, 13], "trial": 5, "time_elapsed": 1301518, "type": "FREE_RECALL", "trial_index": 199}, "uniqueid": "MTK3790:3LEP4MGT3H7ZZBPGJQKOVJ08YS9BDM", "dateTime": 1524161498981}, {"current_trial": 200, "trialdata": {"rt": 15253, "trial_type": "text", "internal_node_id": "0.0-146.0", "time_elapsed": 1318777, "key_press": 13, "type": "INSTRUCTIONS", "trial_index": 200}, "uniqueid": "MTK3790:3LEP4MGT3H7ZZBPGJQKOVJ08YS9BDM", "dateTime": 1524161516237}, {"current_trial": 201, "trialdata": {"rt": [2623, 4825, 6789, 8408, 10620, 13304, 16291, 18277, 20235, 22442], "trial_type": "math-distractor", "key_times": [1952, 2240, 2623, 4208, 4526, 4825, 6200, 6416, 6789, 8065, 8408, 9932, 10248, 10620, 12533, 12876, 13304, 15768, 15925, 16291, 17733, 17928, 18277, 19626, 19921, 20235, 21875, 22120, 22442, 23672, 23929], "responses": ["16", "16", "14", "9", "19", "17", "11", "14", "13", "16"], "num2": [3, 5, 7, 3, 9, 9, 2, 3, 6, 7, 7], "num3": [4, 2, 5, 1, 3, 7, 3, 3, 6, 7, 5], "conditions": [24, 800, "a", 24000], "internal_node_id": "0.0-147.0", "key_presses": [97, 102, 13, 97, 102, 13, 97, 100, 13, 105, 13, 97, 105, 13, 97, 103, 13, 97, 97, 13, 97, 100, 13, 97, 99, 13, 97, 102, 13, 97, 103], "trial": 6, "time_elapsed": 1344781, "type": "DISTRACTOR", "trial_index": 201, "num1": [9, 9, 2, 5, 7, 1, 4, 8, 1, 2, 5]}, "uniqueid": "MTK3790:3LEP4MGT3H7ZZBPGJQKOVJ08YS9BDM", "dateTime": 1524161542241}, {"current_trial": 202, "trialdata": {"rt": -1, "trial_type": "single-stim", "stimulus": "<p id=\"stim\">10</p>", "internal_node_id": "0.0-148.0-0.0", "time_elapsed": 1347782, "key_press": -1, "trial_index": 202}, "uniqueid": "MTK3790:3LEP4MGT3H7ZZBPGJQKOVJ08YS9BDM", "dateTime": 1524161545242}, {"current_trial": 203, "trialdata": {"rt": -1, "trial_type": "single-stim", "stimulus": "<p id=\"stim\">9</p>", "internal_node_id": "0.0-148.0-1.0", "time_elapsed": 1348784, "key_press": -1, "trial_index": 203}, "uniqueid": "MTK3790:3LEP4MGT3H7ZZBPGJQKOVJ08YS9BDM", "dateTime": 1524161546245}, {"current_trial": 204, "trialdata": {"rt": -1, "trial_type": "single-stim", "stimulus": "<p id=\"stim\">8</p>", "internal_node_id": "0.0-148.0-2.0", "time_elapsed": 1349787, "key_press": -1, "trial_index": 204}, "uniqueid": "MTK3790:3LEP4MGT3H7ZZBPGJQKOVJ08YS9BDM", "dateTime": 1524161547247}, {"current_trial": 205, "trialdata": {"rt": -1, "trial_type": "single-stim", "stimulus": "<p id=\"stim\">7</p>", "internal_node_id": "0.0-148.0-3.0", "time_elapsed": 1350788, "key_press": -1, "trial_index": 205}, "uniqueid": "MTK3790:3LEP4MGT3H7ZZBPGJQKOVJ08YS9BDM", "dateTime": 1524161548248}, {"current_trial": 206, "trialdata": {"rt": -1, "trial_type": "single-stim", "stimulus": "<p id=\"stim\">6</p>", "internal_node_id": "0.0-148.0-4.0", "time_elapsed": 1351788, "key_press": -1, "trial_index": 206}, "uniqueid": "MTK3790:3LEP4MGT3H7ZZBPGJQKOVJ08YS9BDM", "dateTime": 1524161549248}, {"current_trial": 207, "trialdata": {"rt": -1, "trial_type": "single-stim", "stimulus": "<p id=\"stim\">5</p>", "internal_node_id": "0.0-148.0-5.0", "time_elapsed": 1352790, "key_press": -1, "trial_index": 207}, "uniqueid": "MTK3790:3LEP4MGT3H7ZZBPGJQKOVJ08YS9BDM", "dateTime": 1524161550250}, {"current_trial": 208, "trialdata": {"rt": -1, "trial_type": "single-stim", "stimulus": "<p id=\"stim\">4</p>", "internal_node_id": "0.0-148.0-6.0", "time_elapsed": 1353791, "key_press": -1, "trial_index": 208}, "uniqueid": "MTK3790:3LEP4MGT3H7ZZBPGJQKOVJ08YS9BDM", "dateTime": 1524161551251}, {"current_trial": 209, "trialdata": {"rt": -1, "trial_type": "single-stim", "stimulus": "<p id=\"stim\">3</p>", "internal_node_id": "0.0-148.0-7.0", "time_elapsed": 1354791, "key_press": -1, "trial_index": 209}, "uniqueid": "MTK3790:3LEP4MGT3H7ZZBPGJQKOVJ08YS9BDM", "dateTime": 1524161552253}, {"current_trial": 210, "trialdata": {"rt": -1, "trial_type": "single-stim", "stimulus": "<p id=\"stim\">2</p>", "internal_node_id": "0.0-148.0-8.0", "time_elapsed": 1355794, "key_press": -1, "trial_index": 210}, "uniqueid": "MTK3790:3LEP4MGT3H7ZZBPGJQKOVJ08YS9BDM", "dateTime": 1524161553255}, {"current_trial": 211, "trialdata": {"rt": -1, "trial_type": "single-stim", "stimulus": "<p id=\"stim\">1</p>", "internal_node_id": "0.0-148.0-9.0", "time_elapsed": 1356796, "key_press": -1, "trial_index": 211}, "uniqueid": "MTK3790:3LEP4MGT3H7ZZBPGJQKOVJ08YS9BDM", "dateTime": 1524161554256}, {"current_trial": 212, "trialdata": {"rt": -1, "trial_type": "single-stim", "stimulus": "<p id=\"stim\">+</p>", "internal_node_id": "0.0-149.0-0.0", "time_elapsed": 1358297, "key_press": -1, "type": "FIXATION", "trial_index": 212}, "uniqueid": "MTK3790:3LEP4MGT3H7ZZBPGJQKOVJ08YS9BDM", "dateTime": 1524161555757}, {"current_trial": 213, "trialdata": {"rt": -1000, "trial_type": "single-audio", "word": "sandwich", "stimulus": "/static/audio/wordpool/SANDWICH.wav", "conditions": [24, 800, "a", 24000], "internal_node_id": "0.0-150.0", "trial": 6, "time_elapsed": 1360258, "serialpos": 0, "key_press": -1, "wordID": 1231, "type": "PRES_AUD", "trial_index": 213}, "uniqueid": "MTK3790:3LEP4MGT3H7ZZBPGJQKOVJ08YS9BDM", "dateTime": 1524161557718}, {"current_trial": 214, "trialdata": {"rt": -1000, "trial_type": "single-audio", "word": "daughter", "stimulus": "/static/audio/wordpool/DAUGHTER.wav", "conditions": [24, 800, "a", 24000], "internal_node_id": "0.0-151.0", "trial": 6, "time_elapsed": 1361959, "serialpos": 1, "key_press": -1, "wordID": 441, "type": "PRES_AUD", "trial_index": 214}, "uniqueid": "MTK3790:3LEP4MGT3H7ZZBPGJQKOVJ08YS9BDM", "dateTime": 1524161559419}, {"current_trial": 215, "trialdata": {"rt": -1000, "trial_type": "single-audio", "word": "sketch", "stimulus": "/static/audio/wordpool/SKETCH.wav", "conditions": [24, 800, "a", 24000], "internal_node_id": "0.0-152.0", "trial": 6, "time_elapsed": 1363720, "serialpos": 2, "key_press": -1, "wordID": 1314, "type": "PRES_AUD", "trial_index": 215}, "uniqueid": "MTK3790:3LEP4MGT3H7ZZBPGJQKOVJ08YS9BDM", "dateTime": 1524161561180}, {"current_trial": 216, "trialdata": {"rt": -1000, "trial_type": "single-audio", "word": "lagoon", "stimulus": "/static/audio/wordpool/LAGOON.wav", "conditions": [24, 800, "a", 24000], "internal_node_id": "0.0-153.0", "trial": 6, "time_elapsed": 1365606, "serialpos": 3, "key_press": -1, "wordID": 794, "type": "PRES_AUD", "trial_index": 216}, "uniqueid": "MTK3790:3LEP4MGT3H7ZZBPGJQKOVJ08YS9BDM", "dateTime": 1524161563066}, {"current_trial": 217, "trialdata": {"rt": -1000, "trial_type": "single-audio", "word": "river", "stimulus": "/static/audio/wordpool/RIVER.wav", "conditions": [24, 800, "a", 24000], "internal_node_id": "0.0-154.0", "trial": 6, "time_elapsed": 1367209, "serialpos": 4, "key_press": -1, "wordID": 1193, "type": "PRES_AUD", "trial_index": 217}, "uniqueid": "MTK3790:3LEP4MGT3H7ZZBPGJQKOVJ08YS9BDM", "dateTime": 1524161564669}, {"current_trial": 218, "trialdata": {"rt": -1000, "trial_type": "single-audio", "word": "wife", "stimulus": "/static/audio/wordpool/WIFE.wav", "conditions": [24, 800, "a", 24000], "internal_node_id": "0.0-155.0", "trial": 6, "time_elapsed": 1369173, "serialpos": 5, "key_press": -1, "wordID": 1608, "type": "PRES_AUD", "trial_index": 218}, "uniqueid": "MTK3790:3LEP4MGT3H7ZZBPGJQKOVJ08YS9BDM", "dateTime": 1524161566634}, {"current_trial": 219, "trialdata": {"rt": -1000, "trial_type": "single-audio", "word": "hostess", "stimulus": "/static/audio/wordpool/HOSTESS.wav", "conditions": [24, 800, "a", 24000], "internal_node_id": "0.0-156.0", "trial": 6, "time_elapsed": 1370834, "serialpos": 6, "key_press": -1, "wordID": 722, "type": "PRES_AUD", "trial_index": 219}, "uniqueid": "MTK3790:3LEP4MGT3H7ZZBPGJQKOVJ08YS9BDM", "dateTime": 1524161568294}, {"current_trial": 220, "trialdata": {"rt": -1000, "trial_type": "single-audio", "word": "antler", "stimulus": "/static/audio/wordpool/ANTLER.wav", "conditions": [24, 800, "a", 24000], "internal_node_id": "0.0-157.0", "trial": 6, "time_elapsed": 1372658, "serialpos": 7, "key_press": -1, "wordID": 28, "type": "PRES_AUD", "trial_index": 220}, "uniqueid": "MTK3790:3LEP4MGT3H7ZZBPGJQKOVJ08YS9BDM", "dateTime": 1524161570118}, {"current_trial": 221, "trialdata": {"rt": -1000, "trial_type": "single-audio", "word": "sword", "stimulus": "/static/audio/wordpool/SWORD.wav", "conditions": [24, 800, "a", 24000], "internal_node_id": "0.0-158.0", "trial": 6, "time_elapsed": 1374345, "serialpos": 8, "key_press": -1, "wordID": 1422, "type": "PRES_AUD", "trial_index": 221}, "uniqueid": "MTK3790:3LEP4MGT3H7ZZBPGJQKOVJ08YS9BDM", "dateTime": 1524161571805}, {"current_trial": 222, "trialdata": {"rt": -1000, "trial_type": "single-audio", "word": "termite", "stimulus": "/static/audio/wordpool/TERMITE.wav", "conditions": [24, 800, "a", 24000], "internal_node_id": "0.0-159.0", "trial": 6, "time_elapsed": 1375949, "serialpos": 9, "key_press": -1, "wordID": 1450, "type": "PRES_AUD", "trial_index": 222}, "uniqueid": "MTK3790:3LEP4MGT3H7ZZBPGJQKOVJ08YS9BDM", "dateTime": 1524161573409}, {"current_trial": 223, "trialdata": {"rt": -1000, "trial_type": "single-audio", "word": "money", "stimulus": "/static/audio/wordpool/MONEY.wav", "conditions": [24, 800, "a", 24000], "internal_node_id": "0.0-160.0", "trial": 6, "time_elapsed": 1377904, "serialpos": 10, "key_press": -1, "wordID": 907, "type": "PRES_AUD", "trial_index": 223}, "uniqueid": "MTK3790:3LEP4MGT3H7ZZBPGJQKOVJ08YS9BDM", "dateTime": 1524161575364}, {"current_trial": 224, "trialdata": {"rt": -1000, "trial_type": "single-audio", "word": "sister", "stimulus": "/static/audio/wordpool/SISTER.wav", "conditions": [24, 800, "a", 24000], "internal_node_id": "0.0-161.0", "trial": 6, "time_elapsed": 1379606, "serialpos": 11, "key_press": -1, "wordID": 1311, "type": "PRES_AUD", "trial_index": 224}, "uniqueid": "MTK3790:3LEP4MGT3H7ZZBPGJQKOVJ08YS9BDM", "dateTime": 1524161577066}, {"current_trial": 225, "trialdata": {"rt": -1000, "trial_type": "single-audio", "word": "gymnast", "stimulus": "/static/audio/wordpool/GYMNAST.wav", "conditions": [24, 800, "a", 24000], "internal_node_id": "0.0-162.0", "trial": 6, "time_elapsed": 1381458, "serialpos": 12, "key_press": -1, "wordID": 674, "type": "PRES_AUD", "trial_index": 225}, "uniqueid": "MTK3790:3LEP4MGT3H7ZZBPGJQKOVJ08YS9BDM", "dateTime": 1524161578920}, {"current_trial": 226, "trialdata": {"rt": -1000, "trial_type": "single-audio", "word": "dorm", "stimulus": "/static/audio/wordpool/DORM.wav", "conditions": [24, 800, "a", 24000], "internal_node_id": "0.0-163.0", "trial": 6, "time_elapsed": 1383443, "serialpos": 13, "key_press": -1, "wordID": 487, "type": "PRES_AUD", "trial_index": 226}, "uniqueid": "MTK3790:3LEP4MGT3H7ZZBPGJQKOVJ08YS9BDM", "dateTime": 1524161580903}, {"current_trial": 227, "trialdata": {"rt": -1000, "trial_type": "single-audio", "word": "pebble", "stimulus": "/static/audio/wordpool/PEBBLE.wav", "conditions": [24, 800, "a", 24000], "internal_node_id": "0.0-164.0", "trial": 6, "time_elapsed": 1385295, "serialpos": 14, "key_press": -1, "wordID": 1034, "type": "PRES_AUD", "trial_index": 227}, "uniqueid": "MTK3790:3LEP4MGT3H7ZZBPGJQKOVJ08YS9BDM", "dateTime": 1524161582756}, {"current_trial": 228, "trialdata": {"rt": -1000, "trial_type": "single-audio", "word": "drawing", "stimulus": "/static/audio/wordpool/DRAWING.wav", "conditions": [24, 800, "a", 24000], "internal_node_id": "0.0-165.0", "trial": 6, "time_elapsed": 1387077, "serialpos": 15, "key_press": -1, "wordID": 493, "type": "PRES_AUD", "trial_index": 228}, "uniqueid": "MTK3790:3LEP4MGT3H7ZZBPGJQKOVJ08YS9BDM", "dateTime": 1524161584537}, {"current_trial": 229, "trialdata": {"rt": -1000, "trial_type": "single-audio", "word": "puppy", "stimulus": "/static/audio/wordpool/PUPPY.wav", "conditions": [24, 800, "a", 24000], "internal_node_id": "0.0-166.0", "trial": 6, "time_elapsed": 1388900, "serialpos": 16, "key_press": -1, "wordID": 1143, "type": "PRES_AUD", "trial_index": 229}, "uniqueid": "MTK3790:3LEP4MGT3H7ZZBPGJQKOVJ08YS9BDM", "dateTime": 1524161586362}, {"current_trial": 230, "trialdata": {"rt": -1000, "trial_type": "single-audio", "word": "carriage", "stimulus": "/static/audio/wordpool/CARRIAGE.wav", "conditions": [24, 800, "a", 24000], "internal_node_id": "0.0-167.0", "trial": 6, "time_elapsed": 1390858, "serialpos": 17, "key_press": -1, "wordID": 247, "type": "PRES_AUD", "trial_index": 230}, "uniqueid": "MTK3790:3LEP4MGT3H7ZZBPGJQKOVJ08YS9BDM", "dateTime": 1524161588318}, {"current_trial": 231, "trialdata": {"rt": -1000, "trial_type": "single-audio", "word": "snail", "stimulus": "/static/audio/wordpool/SNAIL.wav", "conditions": [24, 800, "a", 24000], "internal_node_id": "0.0-168.0", "trial": 6, "time_elapsed": 1392636, "serialpos": 18, "key_press": -1, "wordID": 1331, "type": "PRES_AUD", "trial_index": 231}, "uniqueid": "MTK3790:3LEP4MGT3H7ZZBPGJQKOVJ08YS9BDM", "dateTime": 1524161590096}, {"current_trial": 232, "trialdata": {"rt": -1000, "trial_type": "single-audio", "word": "student", "stimulus": "/static/audio/wordpool/STUDENT.wav", "conditions": [24, 800, "a", 24000], "internal_node_id": "0.0-169.0", "trial": 6, "time_elapsed": 1394327, "serialpos": 19, "key_press": -1, "wordID": 1394, "type": "PRES_AUD", "trial_index": 232}, "uniqueid": "MTK3790:3LEP4MGT3H7ZZBPGJQKOVJ08YS9BDM", "dateTime": 1524161591787}, {"current_trial": 233, "trialdata": {"rt": -1000, "trial_type": "single-audio", "word": "plate", "stimulus": "/static/audio/wordpool/PLATE.wav", "conditions": [24, 800, "a", 24000], "internal_node_id": "0.0-170.0", "trial": 6, "time_elapsed": 1396060, "serialpos": 20, "key_press": -1, "wordID": 1085, "type": "PRES_AUD", "trial_index": 233}, "uniqueid": "MTK3790:3LEP4MGT3H7ZZBPGJQKOVJ08YS9BDM", "dateTime": 1524161593521}, {"current_trial": 234, "trialdata": {"rt": -1000, "trial_type": "single-audio", "word": "banquet", "stimulus": "/static/audio/wordpool/BANQUET.wav", "conditions": [24, 800, "a", 24000], "internal_node_id": "0.0-171.0", "trial": 6, "time_elapsed": 1397908, "serialpos": 21, "key_press": -1, "wordID": 85, "type": "PRES_AUD", "trial_index": 234}, "uniqueid": "MTK3790:3LEP4MGT3H7ZZBPGJQKOVJ08YS9BDM", "dateTime": 1524161595368}, {"current_trial": 235, "trialdata": {"rt": -1000, "trial_type": "single-audio", "word": "kitchen", "stimulus": "/static/audio/wordpool/KITCHEN.wav", "conditions": [24, 800, "a", 24000], "internal_node_id": "0.0-172.0", "trial": 6, "time_elapsed": 1399788, "serialpos": 22, "key_press": -1, "wordID": 777, "type": "PRES_AUD", "trial_index": 235}, "uniqueid": "MTK3790:3LEP4MGT3H7ZZBPGJQKOVJ08YS9BDM", "dateTime": 1524161597250}, {"current_trial": 236, "trialdata": {"rt": -1000, "trial_type": "single-audio", "word": "basement", "stimulus": "/static/audio/wordpool/BASEMENT.wav", "conditions": [24, 800, "a", 24000], "internal_node_id": "0.0-173.0", "trial": 6, "time_elapsed": 1401687, "serialpos": 23, "key_press": -1, "wordID": 93, "type": "PRES_AUD", "trial_index": 236}, "uniqueid": "MTK3790:3LEP4MGT3H7ZZBPGJQKOVJ08YS9BDM", "dateTime": 1524161599147}, {"current_trial": 237, "trialdata": {"rt": -1, "trial_type": "single-stim", "stimulus": "", "internal_node_id": "0.0-174.0-0.0", "time_elapsed": 1403039, "key_press": -1, "type": "PRE_RECALL_DELAY", "trial_index": 237}, "uniqueid": "MTK3790:3LEP4MGT3H7ZZBPGJQKOVJ08YS9BDM", "dateTime": 1524161600499}, {"current_trial": 238, "trialdata": {"rt": -1000, "trial_type": "single-audio", "stimulus": "/static/audio/400Hz.wav", "internal_node_id": "0.0-175.0", "time_elapsed": 1403540, "key_press": -1, "type": "PRE_RECALL_ALERT", "trial_index": 238}, "uniqueid": "MTK3790:3LEP4MGT3H7ZZBPGJQKOVJ08YS9BDM", "dateTime": 1524161601000}, {"current_trial": 239, "trialdata": {"rt": [4109, 6252, 8195, 10196, 12471, 13797, 16218, 17892, 21020, 23132, 33636, 38489], "recwords": ["basement", "kitchen", "wife", "sandwich", "lagoon", "river", "antler", "sword", "dorm", "puppy", "sketch", "money"], "key_times": [2570, 2706, 2953, 3247, 3449, 3589, 3713, 3909, 4109, 4668, 4881, 5043, 5369, 5535, 5743, 5929, 6252, 7078, 7370, 7543, 7867, 8195, 8600, 8785, 8932, 9016, 9270, 9469, 9717, 9824, 10196, 10931, 11054, 11352, 11643, 11793, 11980, 12471, 12893, 13064, 13198, 13444, 13515, 13797, 15126, 15276, 15536, 15770, 15920, 15983, 16218, 16569, 16863, 17097, 17321, 17600, 17892, 20006, 20188, 20418, 20576, 21020, 21833, 22047, 22321, 22428, 22751, 23132, 32097, 32402, 32544, 32835, 33166, 33270, 33636, 37514, 37691, 37796, 37898, 38158, 38489], "trial_type": "free-recall", "conditions": [24, 800, "a", 24000], "internal_node_id": "0.0-176.0-0.0", "key_presses": [66, 65, 83, 69, 77, 69, 78, 84, 13, 75, 73, 84, 67, 72, 69, 78, 13, 87, 73, 70, 69, 13, 83, 65, 78, 68, 87, 73, 67, 72, 13, 76, 65, 71, 79, 79, 78, 13, 82, 73, 86, 69, 82, 13, 65, 78, 84, 76, 69, 82, 13, 83, 87, 79, 82, 68, 13, 68, 79, 82, 77, 13, 80, 85, 80, 80, 89, 13, 83, 75, 69, 84, 67, 72, 13, 77, 79, 78, 69, 89, 13], "trial": 6, "time_elapsed": 1463542, "type": "FREE_RECALL", "trial_index": 239}, "uniqueid": "MTK3790:3LEP4MGT3H7ZZBPGJQKOVJ08YS9BDM", "dateTime": 1524161661007}, {"current_trial": 240, "trialdata": {"rt": 5352, "trial_type": "text", "internal_node_id": "0.0-177.0", "time_elapsed": 1470904, "key_press": 13, "type": "INSTRUCTIONS", "trial_index": 240}, "uniqueid": "MTK3790:3LEP4MGT3H7ZZBPGJQKOVJ08YS9BDM", "dateTime": 1524161668364}, {"current_trial": 241, "trialdata": {"rt": [3630, 5581, 7489, 9366, 11031, 13131, 15098, 18334, 20766, 22539], "trial_type": "math-distractor", "key_t