{"assignmentId": "3QECW5O0KI84RK4446TQX1I1O6NT55", "workerId": "MTK3244", "questiondata": {"avail_screen_height": 1040, "color_depth": 24, "screen_width": 1920, "pixel_depth": 24, "avail_screen_width": 1920, "screen_height": 1080}, "bonus": 0, "hitId": "3NSCTNUR2ZUXP47184X7DCWPFKY5A2", "counterbalance": 105, "useragent": "Mozilla/5.0 (Windows NT 10.0; Win64; x64) AppleWebKit/537.36 (KHTML, like Gecko) Chrome/64.0.3282.186 Safari/537.36", "eventdata": [{"eventtype": "initialized", "interval": 0, "value": null, "timestamp": 1520273548989}, {"eventtype": "window_resize", "interval": 0, "value": [1920, 1033], "timestamp": 1520273548989}], "data": [{"current_trial": 0, "trialdata": {"rt": 2530, "trial_type": "text", "internal_node_id": "0.0-0.0", "time_elapsed": 2533, "key_press": 78, "type": "INSTRUCTIONS", "trial_index": 0}, "uniqueid": "MTK3244:3QECW5O0KI84RK4446TQX1I1O6NT55", "dateTime": 1520273551750}, {"current_trial": 1, "trialdata": {"rt": 2195, "trial_type": "text", "internal_node_id": "0.0-1.0", "time_elapsed": 4732, "key_press": 78, "type": "INSTRUCTIONS", "trial_index": 1}, "uniqueid": "MTK3244:3QECW5O0KI84RK4446TQX1I1O6NT55", "dateTime": 1520273553946}, {"current_trial": 2, "trialdata": {"rt": [11691], "trial_type": "audio-test", "responses": ["ocean"], "internal_node_id": "0.0-2.0", "time_elapsed": 16436, "type": "AUDIO_TEST", "trial_index": 2}, "uniqueid": "MTK3244:3QECW5O0KI84RK4446TQX1I1O6NT55", "dateTime": 1520273565650}, {"current_trial": 3, "trialdata": {"rt": [8250], "trial_type": "audio-test", "responses": ["crystal"], "internal_node_id": "0.0-3.0", "time_elapsed": 24692, "type": "AUDIO_TEST", "trial_index": 3}, "uniqueid": "MTK3244:3QECW5O0KI84RK4446TQX1I1O6NT55", "dateTime": 1520273573906}, {"current_trial": 4, "trialdata": {"rt": [6193], "trial_type": "audio-test", "responses": ["spice"], "internal_node_id": "0.0-4.0", "time_elapsed": 30891, "type": "AUDIO_TEST", "trial_index": 4}, "uniqueid": "MTK3244:3QECW5O0KI84RK4446TQX1I1O6NT55", "dateTime": 1520273580105}, {"current_trial": 5, "trialdata": {"rt": 39020, "trial_type": "survey-text", "responses": "{\"Q0\":\"12:30\",\"Q1\":\"7:30\",\"Q2\":\"5\"}", "internal_node_id": "0.0-5.0", "time_elapsed": 70663, "type": "SLEEP_SURVEY", "trial_index": 5}, "uniqueid": "MTK3244:3QECW5O0KI84RK4446TQX1I1O6NT55", "dateTime": 1520273619878}, {"current_trial": 6, "trialdata": {"rt": 76427, "trial_type": "text", "internal_node_id": "0.0-6.0", "time_elapsed": 148094, "key_press": 78, "type": "INSTRUCTIONS", "trial_index": 6}, "uniqueid": "MTK3244:3QECW5O0KI84RK4446TQX1I1O6NT55", "dateTime": 1520273697308}, {"current_trial": 7, "trialdata": {"rt": 29489, "trial_type": "text", "internal_node_id": "0.0-7.0", "time_elapsed": 178085, "key_press": 75, "type": "INSTRUCTIONS", "trial_index": 7}, "uniqueid": "MTK3244:3QECW5O0KI84RK4446TQX1I1O6NT55", "dateTime": 1520273727300}, {"current_trial": 8, "trialdata": {"rt": 19761, "trial_type": "text", "internal_node_id": "0.0-8.0", "time_elapsed": 198348, "key_press": 66, "type": "INSTRUCTIONS", "trial_index": 8}, "uniqueid": "MTK3244:3QECW5O0KI84RK4446TQX1I1O6NT55", "dateTime": 1520273747562}, {"current_trial": 9, "trialdata": {"rt": [5761, 9386, 13345, 16281], "trial_type": "math-distractor", "key_times": [4738, 5761, 8962, 9146, 9386, 12793, 13106, 13345, 15889, 16065, 16281], "responses": ["9", "11", "13", "12"], "num2": [1, 3, 2, 7, 5], "num3": [5, 2, 6, 3, 6], "conditions": [18, 1200, "v", 18000], "internal_node_id": "0.0-9.0", "key_presses": [57, 13, 49, 49, 13, 49, 51, 13, 49, 50, 13], "trial": 0, "time_elapsed": 217355, "type": "DISTRACTOR", "trial_index": 9, "num1": [3, 6, 5, 2, 3]}, "uniqueid": "MTK3244:3QECW5O0KI84RK4446TQX1I1O6NT55", "dateTime": 1520273766569}, {"current_trial": 10, "trialdata": {"rt": -1, "trial_type": "single-stim", "stimulus": "<p id=\"stim\">10</p>", "internal_node_id": "0.0-10.0-0.0", "time_elapsed": 220357, "key_press": -1, "trial_index": 10}, "uniqueid": "MTK3244:3QECW5O0KI84RK4446TQX1I1O6NT55", "dateTime": 1520273769571}, {"current_trial": 11, "trialdata": {"rt": -1, "trial_type": "single-stim", "stimulus": "<p id=\"stim\">9</p>", "internal_node_id": "0.0-10.0-1.0", "time_elapsed": 221358, "key_press": -1, "trial_index": 11}, "uniqueid": "MTK3244:3QECW5O0KI84RK4446TQX1I1O6NT55", "dateTime": 1520273770572}, {"current_trial": 12, "trialdata": {"rt": -1, "trial_type": "single-stim", "stimulus": "<p id=\"stim\">8</p>", "internal_node_id": "0.0-10.0-2.0", "time_elapsed": 222357, "key_press": -1, "trial_index": 12}, "uniqueid": "MTK3244:3QECW5O0KI84RK4446TQX1I1O6NT55", "dateTime": 1520273771573}, {"current_trial": 13, "trialdata": {"rt": -1, "trial_type": "single-stim", "stimulus": "<p id=\"stim\">7</p>", "internal_node_id": "0.0-10.0-3.0", "time_elapsed": 223359, "key_press": -1, "trial_index": 13}, "uniqueid": "MTK3244:3QECW5O0KI84RK4446TQX1I1O6NT55", "dateTime": 1520273772574}, {"current_trial": 14, "trialdata": {"rt": -1, "trial_type": "single-stim", "stimulus": "<p id=\"stim\">6</p>", "internal_node_id": "0.0-10.0-4.0", "time_elapsed": 224360, "key_press": -1, "trial_index": 14}, "uniqueid": "MTK3244:3QECW5O0KI84RK4446TQX1I1O6NT55", "dateTime": 1520273773575}, {"current_trial": 15, "trialdata": {"rt": -1, "trial_type": "single-stim", "stimulus": "<p id=\"stim\">5</p>", "internal_node_id": "0.0-10.0-5.0", "time_elapsed": 225361, "key_press": -1, "trial_index": 15}, "uniqueid": "MTK3244:3QECW5O0KI84RK4446TQX1I1O6NT55", "dateTime": 1520273774576}, {"current_trial": 16, "trialdata": {"rt": -1, "trial_type": "single-stim", "stimulus": "<p id=\"stim\">4</p>", "internal_node_id": "0.0-10.0-6.0", "time_elapsed": 226363, "key_press": -1, "trial_index": 16}, "uniqueid": "MTK3244:3QECW5O0KI84RK4446TQX1I1O6NT55", "dateTime": 1520273775577}, {"current_trial": 17, "trialdata": {"rt": -1, "trial_type": "single-stim", "stimulus": "<p id=\"stim\">3</p>", "internal_node_id": "0.0-10.0-7.0", "time_elapsed": 227365, "key_press": -1, "trial_index": 17}, "uniqueid": "MTK3244:3QECW5O0KI84RK4446TQX1I1O6NT55", "dateTime": 1520273776579}, {"current_trial": 18, "trialdata": {"rt": -1, "trial_type": "single-stim", "stimulus": "<p id=\"stim\">2</p>", "internal_node_id": "0.0-10.0-8.0", "time_elapsed": 228366, "key_press": -1, "trial_index": 18}, "uniqueid": "MTK3244:3QECW5O0KI84RK4446TQX1I1O6NT55", "dateTime": 1520273777580}, {"current_trial": 19, "trialdata": {"rt": -1, "trial_type": "single-stim", "stimulus": "<p id=\"stim\">1</p>", "internal_node_id": "0.0-10.0-9.0", "time_elapsed": 229367, "key_press": -1, "trial_index": 19}, "uniqueid": "MTK3244:3QECW5O0KI84RK4446TQX1I1O6NT55", "dateTime": 1520273778582}, {"current_trial": 20, "trialdata": {"rt": -1, "trial_type": "single-stim", "stimulus": "<p id=\"stim\">+</p>", "internal_node_id": "0.0-11.0-0.0", "time_elapsed": 230868, "key_press": -1, "type": "FIXATION", "trial_index": 20}, "uniqueid": "MTK3244:3QECW5O0KI84RK4446TQX1I1O6NT55", "dateTime": 1520273780082}, {"current_trial": 21, "trialdata": {"rt": -1, "trial_type": "single-stim", "word": "pecan", "stimulus": "<p id=\"stim\">PECAN</p>", "conditions": [18, 1200, "v", 18000], "internal_node_id": "0.0-12.0", "trial": 0, "time_elapsed": 232069, "serialpos": 0, "key_press": -1, "wordID": 1035, "type": "PRES_VIS", "trial_index": 21}, "uniqueid": "MTK3244:3QECW5O0KI84RK4446TQX1I1O6NT55", "dateTime": 1520273781284}, {"current_trial": 22, "trialdata": {"rt": -1, "trial_type": "single-stim", "word": "partner", "stimulus": "<p id=\"stim\">PARTNER</p>", "conditions": [18, 1200, "v", 18000], "internal_node_id": "0.0-13.0", "trial": 0, "time_elapsed": 234291, "serialpos": 1, "key_press": -1, "wordID": 1016, "type": "PRES_VIS", "trial_index": 22}, "uniqueid": "MTK3244:3QECW5O0KI84RK4446TQX1I1O6NT55", "dateTime": 1520273783506}, {"current_trial": 23, "trialdata": {"rt": -1, "trial_type": "single-stim", "word": "student", "stimulus": "<p id=\"stim\">STUDENT</p>", "conditions": [18, 1200, "v", 18000], "internal_node_id": "0.0-14.0", "trial": 0, "time_elapsed": 236403, "serialpos": 2, "key_press": -1, "wordID": 1394, "type": "PRES_VIS", "trial_index": 23}, "uniqueid": "MTK3244:3QECW5O0KI84RK4446TQX1I1O6NT55", "dateTime": 1520273785618}, {"current_trial": 24, "trialdata": {"rt": -1, "trial_type": "single-stim", "word": "viking", "stimulus": "<p id=\"stim\">VIKING</p>", "conditions": [18, 1200, "v", 18000], "internal_node_id": "0.0-15.0", "trial": 0, "time_elapsed": 238551, "serialpos": 3, "key_press": -1, "wordID": 1564, "type": "PRES_VIS", "trial_index": 24}, "uniqueid": "MTK3244:3QECW5O0KI84RK4446TQX1I1O6NT55", "dateTime": 1520273787766}, {"current_trial": 25, "trialdata": {"rt": -1, "trial_type": "single-stim", "word": "match", "stimulus": "<p id=\"stim\">MATCH</p>", "conditions": [18, 1200, "v", 18000], "internal_node_id": "0.0-16.0", "trial": 0, "time_elapsed": 240756, "serialpos": 4, "key_press": -1, "wordID": 877, "type": "PRES_VIS", "trial_index": 25}, "uniqueid": "MTK3244:3QECW5O0KI84RK4446TQX1I1O6NT55", "dateTime": 1520273789970}, {"current_trial": 26, "trialdata": {"rt": -1, "trial_type": "single-stim", "word": "peanut", "stimulus": "<p id=\"stim\">PEANUT</p>", "conditions": [18, 1200, "v", 18000], "internal_node_id": "0.0-17.0", "trial": 0, "time_elapsed": 242942, "serialpos": 5, "key_press": -1, "wordID": 1031, "type": "PRES_VIS", "trial_index": 26}, "uniqueid": "MTK3244:3QECW5O0KI84RK4446TQX1I1O6NT55", "dateTime": 1520273792157}, {"current_trial": 27, "trialdata": {"rt": -1, "trial_type": "single-stim", "word": "donor", "stimulus": "<p id=\"stim\">DONOR</p>", "conditions": [18, 1200, "v", 18000], "internal_node_id": "0.0-18.0", "trial": 0, "time_elapsed": 245306, "serialpos": 6, "key_press": -1, "wordID": 484, "type": "PRES_VIS", "trial_index": 27}, "uniqueid": "MTK3244:3QECW5O0KI84RK4446TQX1I1O6NT55", "dateTime": 1520273794522}, {"current_trial": 28, "trialdata": {"rt": -1, "trial_type": "single-stim", "word": "lace", "stimulus": "<p id=\"stim\">LACE</p>", "conditions": [18, 1200, "v", 18000], "internal_node_id": "0.0-19.0", "trial": 0, "time_elapsed": 247620, "serialpos": 7, "key_press": -1, "wordID": 791, "type": "PRES_VIS", "trial_index": 28}, "uniqueid": "MTK3244:3QECW5O0KI84RK4446TQX1I1O6NT55", "dateTime": 1520273796834}, {"current_trial": 29, "trialdata": {"rt": -1, "trial_type": "single-stim", "word": "parrot", "stimulus": "<p id=\"stim\">PARROT</p>", "conditions": [18, 1200, "v", 18000], "internal_node_id": "0.0-20.0", "trial": 0, "time_elapsed": 249877, "serialpos": 8, "key_press": -1, "wordID": 1014, "type": "PRES_VIS", "trial_index": 29}, "uniqueid": "MTK3244:3QECW5O0KI84RK4446TQX1I1O6NT55", "dateTime": 1520273799092}, {"current_trial": 30, "trialdata": {"rt": -1, "trial_type": "single-stim", "word": "eyelash", "stimulus": "<p id=\"stim\">EYELASH</p>", "conditions": [18, 1200, "v", 18000], "internal_node_id": "0.0-21.0", "trial": 0, "time_elapsed": 252201, "serialpos": 9, "key_press": -1, "wordID": 545, "type": "PRES_VIS", "trial_index": 30}, "uniqueid": "MTK3244:3QECW5O0KI84RK4446TQX1I1O6NT55", "dateTime": 1520273801416}, {"current_trial": 31, "trialdata": {"rt": -1, "trial_type": "single-stim", "word": "waiter", "stimulus": "<p id=\"stim\">WAITER</p>", "conditions": [18, 1200, "v", 18000], "internal_node_id": "0.0-22.0", "trial": 0, "time_elapsed": 254301, "serialpos": 10, "key_press": -1, "wordID": 1579, "type": "PRES_VIS", "trial_index": 31}, "uniqueid": "MTK3244:3QECW5O0KI84RK4446TQX1I1O6NT55", "dateTime": 1520273803517}, {"current_trial": 32, "trialdata": {"rt": -1, "trial_type": "single-stim", "word": "label", "stimulus": "<p id=\"stim\">LABEL</p>", "conditions": [18, 1200, "v", 18000], "internal_node_id": "0.0-23.0", "trial": 0, "time_elapsed": 256614, "serialpos": 11, "key_press": -1, "wordID": 789, "type": "PRES_VIS", "trial_index": 32}, "uniqueid": "MTK3244:3QECW5O0KI84RK4446TQX1I1O6NT55", "dateTime": 1520273805829}, {"current_trial": 33, "trialdata": {"rt": -1, "trial_type": "single-stim", "word": "cricket", "stimulus": "<p id=\"stim\">CRICKET</p>", "conditions": [18, 1200, "v", 18000], "internal_node_id": "0.0-24.0", "trial": 0, "time_elapsed": 258713, "serialpos": 12, "key_press": -1, "wordID": 407, "type": "PRES_VIS", "trial_index": 33}, "uniqueid": "MTK3244:3QECW5O0KI84RK4446TQX1I1O6NT55", "dateTime": 1520273807927}, {"current_trial": 34, "trialdata": {"rt": -1, "trial_type": "single-stim", "word": "window", "stimulus": "<p id=\"stim\">WINDOW</p>", "conditions": [18, 1200, "v", 18000], "internal_node_id": "0.0-25.0", "trial": 0, "time_elapsed": 260802, "serialpos": 13, "key_press": -1, "wordID": 1610, "type": "PRES_VIS", "trial_index": 34}, "uniqueid": "MTK3244:3QECW5O0KI84RK4446TQX1I1O6NT55", "dateTime": 1520273810016}, {"current_trial": 35, "trialdata": {"rt": -1, "trial_type": "single-stim", "word": "shrub", "stimulus": "<p id=\"stim\">SHRUB</p>", "conditions": [18, 1200, "v", 18000], "internal_node_id": "0.0-26.0", "trial": 0, "time_elapsed": 262938, "serialpos": 14, "key_press": -1, "wordID": 1298, "type": "PRES_VIS", "trial_index": 35}, "uniqueid": "MTK3244:3QECW5O0KI84RK4446TQX1I1O6NT55", "dateTime": 1520273812154}, {"current_trial": 36, "trialdata": {"rt": -1, "trial_type": "single-stim", "word": "sword", "stimulus": "<p id=\"stim\">SWORD</p>", "conditions": [18, 1200, "v", 18000], "internal_node_id": "0.0-27.0", "trial": 0, "time_elapsed": 265322, "serialpos": 15, "key_press": -1, "wordID": 1422, "type": "PRES_VIS", "trial_index": 36}, "uniqueid": "MTK3244:3QECW5O0KI84RK4446TQX1I1O6NT55", "dateTime": 1520273814537}, {"current_trial": 37, "trialdata": {"rt": -1, "trial_type": "single-stim", "word": "lettuce", "stimulus": "<p id=\"stim\">LETTUCE</p>", "conditions": [18, 1200, "v", 18000], "internal_node_id": "0.0-28.0", "trial": 0, "time_elapsed": 267519, "serialpos": 16, "key_press": -1, "wordID": 813, "type": "PRES_VIS", "trial_index": 37}, "uniqueid": "MTK3244:3QECW5O0KI84RK4446TQX1I1O6NT55", "dateTime": 1520273816734}, {"current_trial": 38, "trialdata": {"rt": -1, "trial_type": "single-stim", "word": "flute", "stimulus": "<p id=\"stim\">FLUTE</p>", "conditions": [18, 1200, "v", 18000], "internal_node_id": "0.0-29.0", "trial": 0, "time_elapsed": 269885, "serialpos": 17, "key_press": -1, "wordID": 584, "type": "PRES_VIS", "trial_index": 38}, "uniqueid": "MTK3244:3QECW5O0KI84RK4446TQX1I1O6NT55", "dateTime": 1520273819100}, {"current_trial": 39, "trialdata": {"rt": -1, "trial_type": "single-stim", "stimulus": "", "internal_node_id": "0.0-30.0-0.0", "time_elapsed": 272342, "key_press": -1, "type": "PRE_RECALL_DELAY", "trial_index": 39}, "uniqueid": "MTK3244:3QECW5O0KI84RK4446TQX1I1O6NT55", "dateTime": 1520273821556}, {"current_trial": 40, "trialdata": {"rt": -1000, "trial_type": "single-audio", "stimulus": "/static/audio/400Hz.wav", "internal_node_id": "0.0-31.0", "time_elapsed": 272847, "key_press": -1, "type": "PRE_RECALL_ALERT", "trial_index": 40}, "uniqueid": "MTK3244:3QECW5O0KI84RK4446TQX1I1O6NT55", "dateTime": 1520273822061}, {"current_trial": 41, "trialdata": {"rt": [4745, 7065, 12066, 14641, 19009, 31210], "recwords": ["flute", "sword", "partner", "student", "viking", "lace"], "key_times": [2548, 3098, 3482, 3762, 4035, 4745, 5674, 5914, 6251, 6490, 6794, 7065, 10490, 10650, 10930, 11114, 11346, 11474, 11690, 12066, 13010, 13386, 13618, 13810, 14035, 14202, 14402, 14641, 17658, 17930, 18146, 18370, 18586, 18770, 19009, 30113, 30451, 30690, 30929, 31210], "trial_type": "free-recall", "conditions": [18, 1200, "v", 18000], "internal_node_id": "0.0-32.0-0.0", "key_presses": [70, 76, 85, 84, 69, 13, 83, 87, 79, 82, 68, 13, 80, 65, 82, 84, 78, 69, 82, 13, 83, 84, 85, 68, 69, 78, 84, 13, 86, 73, 75, 73, 78, 71, 13, 76, 65, 67, 69, 13], "trial": 0, "time_elapsed": 332851, "type": "FREE_RECALL", "trial_index": 41}, "uniqueid": "MTK3244:3QECW5O0KI84RK4446TQX1I1O6NT55", "dateTime": 1520273882077}, {"current_trial": 42, "trialdata": {"rt": 3235, "trial_type": "text", "internal_node_id": "0.0-33.0", "time_elapsed": 338100, "key_press": 77, "type": "INSTRUCTIONS", "trial_index": 42}, "uniqueid": "MTK3244:3QECW5O0KI84RK4446TQX1I1O6NT55", "dateTime": 1520273887314}, {"current_trial": 43, "trialdata": {"rt": [4259, 9347, 12172, 16820], "trial_type": "math-distractor", "key_times": [3412, 3604, 4259, 8654, 9347, 11772, 11956, 12172, 15939, 16619, 16820], "responses": ["12", "7", "11", "18"], "num2": [3, 4, 2, 8, 7], "num3": [2, 1, 4, 7, 2], "conditions": [18, 1200, "v", 18000], "internal_node_id": "0.0-34.0", "key_presses": [49, 50, 13, 55, 13, 49, 49, 13, 49, 56, 13], "trial": 1, "time_elapsed": 358103, "type": "DISTRACTOR", "trial_index": 43, "num1": [7, 2, 7, 3, 6]}, "uniqueid": "MTK3244:3QECW5O0KI84RK4446TQX1I1O6NT55", "dateTime": 1520273907317}, {"current_trial": 44, "trialdata": {"rt": -1, "trial_type": "single-stim", "stimulus": "<p id=\"stim\">10</p>", "internal_node_id": "0.0-35.0-0.0", "time_elapsed": 361103, "key_press": -1, "trial_index": 44}, "uniqueid": "MTK3244:3QECW5O0KI84RK4446TQX1I1O6NT55", "dateTime": 1520273910317}, {"current_trial": 45, "trialdata": {"rt": -1, "trial_type": "single-stim", "stimulus": "<p id=\"stim\">9</p>", "internal_node_id": "0.0-35.0-1.0", "time_elapsed": 362105, "key_press": -1, "trial_index": 45}, "uniqueid": "MTK3244:3QECW5O0KI84RK4446TQX1I1O6NT55", "dateTime": 1520273911319}, {"current_trial": 46, "trialdata": {"rt": -1, "trial_type": "single-stim", "stimulus": "<p id=\"stim\">8</p>", "internal_node_id": "0.0-35.0-2.0", "time_elapsed": 363106, "key_press": -1, "trial_index": 46}, "uniqueid": "MTK3244:3QECW5O0KI84RK4446TQX1I1O6NT55", "dateTime": 1520273912320}, {"current_trial": 47, "trialdata": {"rt": -1, "trial_type": "single-stim", "stimulus": "<p id=\"stim\">7</p>", "internal_node_id": "0.0-35.0-3.0", "time_elapsed": 364107, "key_press": -1, "trial_index": 47}, "uniqueid": "MTK3244:3QECW5O0KI84RK4446TQX1I1O6NT55", "dateTime": 1520273913321}, {"current_trial": 48, "trialdata": {"rt": -1, "trial_type": "single-stim", "stimulus": "<p id=\"stim\">6</p>", "internal_node_id": "0.0-35.0-4.0", "time_elapsed": 365107, "key_press": -1, "trial_index": 48}, "uniqueid": "MTK3244:3QECW5O0KI84RK4446TQX1I1O6NT55", "dateTime": 1520273914321}, {"current_trial": 49, "trialdata": {"rt": -1, "trial_type": "single-stim", "stimulus": "<p id=\"stim\">5</p>", "internal_node_id": "0.0-35.0-5.0", "time_elapsed": 366109, "key_press": -1, "trial_index": 49}, "uniqueid": "MTK3244:3QECW5O0KI84RK4446TQX1I1O6NT55", "dateTime": 1520273915323}, {"current_trial": 50, "trialdata": {"rt": -1, "trial_type": "single-stim", "stimulus": "<p id=\"stim\">4</p>", "internal_node_id": "0.0-35.0-6.0", "time_elapsed": 367110, "key_press": -1, "trial_index": 50}, "uniqueid": "MTK3244:3QECW5O0KI84RK4446TQX1I1O6NT55", "dateTime": 1520273916324}, {"current_trial": 51, "trialdata": {"rt": -1, "trial_type": "single-stim", "stimulus": "<p id=\"stim\">3</p>", "internal_node_id": "0.0-35.0-7.0", "time_elapsed": 368111, "key_press": -1, "trial_index": 51}, "uniqueid": "MTK3244:3QECW5O0KI84RK4446TQX1I1O6NT55", "dateTime": 1520273917325}, {"current_trial": 52, "trialdata": {"rt": -1, "trial_type": "single-stim", "stimulus": "<p id=\"stim\">2</p>", "internal_node_id": "0.0-35.0-8.0", "time_elapsed": 369111, "key_press": -1, "trial_index": 52}, "uniqueid": "MTK3244:3QECW5O0KI84RK4446TQX1I1O6NT55", "dateTime": 1520273918325}, {"current_trial": 53, "trialdata": {"rt": -1, "trial_type": "single-stim", "stimulus": "<p id=\"stim\">1</p>", "internal_node_id": "0.0-35.0-9.0", "time_elapsed": 370113, "key_press": -1, "trial_index": 53}, "uniqueid": "MTK3244:3QECW5O0KI84RK4446TQX1I1O6NT55", "dateTime": 1520273919327}, {"current_trial": 54, "trialdata": {"rt": -1, "trial_type": "single-stim", "stimulus": "<p id=\"stim\">+</p>", "internal_node_id": "0.0-36.0-0.0", "time_elapsed": 371613, "key_press": -1, "type": "FIXATION", "trial_index": 54}, "uniqueid": "MTK3244:3QECW5O0KI84RK4446TQX1I1O6NT55", "dateTime": 1520273920828}, {"current_trial": 55, "trialdata": {"rt": -1, "trial_type": "single-stim", "word": "zipper", "stimulus": "<p id=\"stim\">ZIPPER</p>", "conditions": [18, 1200, "v", 18000], "internal_node_id": "0.0-37.0", "trial": 1, "time_elapsed": 372814, "serialpos": 0, "key_press": -1, "wordID": 1635, "type": "PRES_VIS", "trial_index": 55}, "uniqueid": "MTK3244:3QECW5O0KI84RK4446TQX1I1O6NT55", "dateTime": 1520273922029}, {"current_trial": 56, "trialdata": {"rt": -1, "trial_type": "single-stim", "word": "flipper", "stimulus": "<p id=\"stim\">FLIPPER</p>", "conditions": [18, 1200, "v", 18000], "internal_node_id": "0.0-38.0", "trial": 1, "time_elapsed": 375130, "serialpos": 1, "key_press": -1, "wordID": 579, "type": "PRES_VIS", "trial_index": 56}, "uniqueid": "MTK3244:3QECW5O0KI84RK4446TQX1I1O6NT55", "dateTime": 1520273924344}, {"current_trial": 57, "trialdata": {"rt": -1, "trial_type": "single-stim", "word": "mailbox", "stimulus": "<p id=\"stim\">MAILBOX</p>", "conditions": [18, 1200, "v", 18000], "internal_node_id": "0.0-39.0", "trial": 1, "time_elapsed": 377281, "serialpos": 2, "key_press": -1, "wordID": 856, "type": "PRES_VIS", "trial_index": 57}, "uniqueid": "MTK3244:3QECW5O0KI84RK4446TQX1I1O6NT55", "dateTime": 1520273926496}, {"current_trial": 58, "trialdata": {"rt": -1, "trial_type": "single-stim", "word": "spouse", "stimulus": "<p id=\"stim\">SPOUSE</p>", "conditions": [18, 1200, "v", 18000], "internal_node_id": "0.0-40.0", "trial": 1, "time_elapsed": 379669, "serialpos": 3, "key_press": -1, "wordID": 1357, "type": "PRES_VIS", "trial_index": 58}, "uniqueid": "MTK3244:3QECW5O0KI84RK4446TQX1I1O6NT55", "dateTime": 1520273928883}, {"current_trial": 59, "trialdata": {"rt": -1, "trial_type": "single-stim", "word": "crevice", "stimulus": "<p id=\"stim\">CREVICE</p>", "conditions": [18, 1200, "v", 18000], "internal_node_id": "0.0-41.0", "trial": 1, "time_elapsed": 382037, "serialpos": 4, "key_press": -1, "wordID": 404, "type": "PRES_VIS", "trial_index": 59}, "uniqueid": "MTK3244:3QECW5O0KI84RK4446TQX1I1O6NT55", "dateTime": 1520273931252}, {"current_trial": 60, "trialdata": {"rt": -1, "trial_type": "single-stim", "word": "scotch", "stimulus": "<p id=\"stim\">SCOTCH</p>", "conditions": [18, 1200, "v", 18000], "internal_node_id": "0.0-42.0", "trial": 1, "time_elapsed": 384062, "serialpos": 5, "key_press": -1, "wordID": 1250, "type": "PRES_VIS", "trial_index": 60}, "uniqueid": "MTK3244:3QECW5O0KI84RK4446TQX1I1O6NT55", "dateTime": 1520273933276}, {"current_trial": 61, "trialdata": {"rt": -1, "trial_type": "single-stim", "word": "rust", "stimulus": "<p id=\"stim\">RUST</p>", "conditions": [18, 1200, "v", 18000], "internal_node_id": "0.0-43.0", "trial": 1, "time_elapsed": 386458, "serialpos": 6, "key_press": -1, "wordID": 1218, "type": "PRES_VIS", "trial_index": 61}, "uniqueid": "MTK3244:3QECW5O0KI84RK4446TQX1I1O6NT55", "dateTime": 1520273935673}, {"current_trial": 62, "trialdata": {"rt": -1, "trial_type": "single-stim", "word": "knife", "stimulus": "<p id=\"stim\">KNIFE</p>", "conditions": [18, 1200, "v", 18000], "internal_node_id": "0.0-44.0", "trial": 1, "time_elapsed": 388752, "serialpos": 7, "key_press": -1, "wordID": 784, "type": "PRES_VIS", "trial_index": 62}, "uniqueid": "MTK3244:3QECW5O0KI84RK4446TQX1I1O6NT55", "dateTime": 1520273937967}, {"current_trial": 63, "trialdata": {"rt": -1, "trial_type": "single-stim", "word": "neutron", "stimulus": "<p id=\"stim\">NEUTRON</p>", "conditions": [18, 1200, "v", 18000], "internal_node_id": "0.0-45.0", "trial": 1, "time_elapsed": 391000, "serialpos": 8, "key_press": -1, "wordID": 946, "type": "PRES_VIS", "trial_index": 63}, "uniqueid": "MTK3244:3QECW5O0KI84RK4446TQX1I1O6NT55", "dateTime": 1520273940215}, {"current_trial": 64, "trialdata": {"rt": -1, "trial_type": "single-stim", "word": "gangster", "stimulus": "<p id=\"stim\">GANGSTER</p>", "conditions": [18, 1200, "v", 18000], "internal_node_id": "0.0-46.0", "trial": 1, "time_elapsed": 393089, "serialpos": 9, "key_press": -1, "wordID": 619, "type": "PRES_VIS", "trial_index": 64}, "uniqueid": "MTK3244:3QECW5O0KI84RK4446TQX1I1O6NT55", "dateTime": 1520273942304}, {"current_trial": 65, "trialdata": {"rt": -1, "trial_type": "single-stim", "word": "binder", "stimulus": "<p id=\"stim\">BINDER</p>", "conditions": [18, 1200, "v", 18000], "internal_node_id": "0.0-47.0", "trial": 1, "time_elapsed": 395116, "serialpos": 10, "key_press": -1, "wordID": 126, "type": "PRES_VIS", "trial_index": 65}, "uniqueid": "MTK3244:3QECW5O0KI84RK4446TQX1I1O6NT55", "dateTime": 1520273944330}, {"current_trial": 66, "trialdata": {"rt": -1, "trial_type": "single-stim", "word": "curtain", "stimulus": "<p id=\"stim\">CURTAIN</p>", "conditions": [18, 1200, "v", 18000], "internal_node_id": "0.0-48.0", "trial": 1, "time_elapsed": 397231, "serialpos": 11, "key_press": -1, "wordID": 426, "type": "PRES_VIS", "trial_index": 66}, "uniqueid": "MTK3244:3QECW5O0KI84RK4446TQX1I1O6NT55", "dateTime": 1520273946446}, {"current_trial": 67, "trialdata": {"rt": -1, "trial_type": "single-stim", "word": "empire", "stimulus": "<p id=\"stim\">EMPIRE</p>", "conditions": [18, 1200, "v", 18000], "internal_node_id": "0.0-49.0", "trial": 1, "time_elapsed": 399584, "serialpos": 12, "key_press": -1, "wordID": 529, "type": "PRES_VIS", "trial_index": 67}, "uniqueid": "MTK3244:3QECW5O0KI84RK4446TQX1I1O6NT55", "dateTime": 1520273948799}, {"current_trial": 68, "trialdata": {"rt": -1, "trial_type": "single-stim", "word": "shirt", "stimulus": "<p id=\"stim\">SHIRT</p>", "conditions": [18, 1200, "v", 18000], "internal_node_id": "0.0-50.0", "trial": 1, "time_elapsed": 401774, "serialpos": 13, "key_press": -1, "wordID": 1286, "type": "PRES_VIS", "trial_index": 68}, "uniqueid": "MTK3244:3QECW5O0KI84RK4446TQX1I1O6NT55", "dateTime": 1520273950993}, {"current_trial": 69, "trialdata": {"rt": -1, "trial_type": "single-stim", "word": "scarecrow", "stimulus": "<p id=\"stim\">SCARECROW</p>", "conditions": [18, 1200, "v", 18000], "internal_node_id": "0.0-51.0", "trial": 1, "time_elapsed": 404066, "serialpos": 14, "key_press": -1, "wordID": 1244, "type": "PRES_VIS", "trial_index": 69}, "uniqueid": "MTK3244:3QECW5O0KI84RK4446TQX1I1O6NT55", "dateTime": 1520273953280}, {"current_trial": 70, "trialdata": {"rt": -1, "trial_type": "single-stim", "word": "paddle", "stimulus": "<p id=\"stim\">PADDLE</p>", "conditions": [18, 1200, "v", 18000], "internal_node_id": "0.0-52.0", "trial": 1, "time_elapsed": 406143, "serialpos": 15, "key_press": -1, "wordID": 999, "type": "PRES_VIS", "trial_index": 70}, "uniqueid": "MTK3244:3QECW5O0KI84RK4446TQX1I1O6NT55", "dateTime": 1520273955358}, {"current_trial": 71, "trialdata": {"rt": -1, "trial_type": "single-stim", "word": "rod", "stimulus": "<p id=\"stim\">ROD</p>", "conditions": [18, 1200, "v", 18000], "internal_node_id": "0.0-53.0", "trial": 1, "time_elapsed": 408431, "serialpos": 16, "key_press": -1, "wordID": 1202, "type": "PRES_VIS", "trial_index": 71}, "uniqueid": "MTK3244:3QECW5O0KI84RK4446TQX1I1O6NT55", "dateTime": 1520273957646}, {"current_trial": 72, "trialdata": {"rt": -1, "trial_type": "single-stim", "word": "cross", "stimulus": "<p id=\"stim\">CROSS</p>", "conditions": [18, 1200, "v", 18000], "internal_node_id": "0.0-54.0", "trial": 1, "time_elapsed": 410628, "serialpos": 17, "key_press": -1, "wordID": 412, "type": "PRES_VIS", "trial_index": 72}, "uniqueid": "MTK3244:3QECW5O0KI84RK4446TQX1I1O6NT55", "dateTime": 1520273959842}, {"current_trial": 73, "trialdata": {"rt": -1, "trial_type": "single-stim", "stimulus": "", "internal_node_id": "0.0-55.0-0.0", "time_elapsed": 412872, "key_press": -1, "type": "PRE_RECALL_DELAY", "trial_index": 73}, "uniqueid": "MTK3244:3QECW5O0KI84RK4446TQX1I1O6NT55", "dateTime": 1520273962087}, {"current_trial": 74, "trialdata": {"rt": -1000, "trial_type": "single-audio", "stimulus": "/static/audio/400Hz.wav", "internal_node_id": "0.0-56.0", "time_elapsed": 413375, "key_press": -1, "type": "PRE_RECALL_ALERT", "trial_index": 74}, "uniqueid": "MTK3244:3QECW5O0KI84RK4446TQX1I1O6NT55", "dateTime": 1520273962589}, {"current_trial": 75, "trialdata": {"rt": [3753, 10577, 20585, 28201, 35153, 42265], "recwords": ["cross", "zipper", "scarecrow", "rust", "binder", "empire"], "key_times": [2123, 2402, 2618, 3058, 3346, 3753, 8585, 8946, 9226, 9402, 9674, 9882, 10577, 18147, 18402, 18698, 18986, 19218, 19466, 19714, 20011, 20289, 20585, 27322, 27595, 27714, 27994, 28201, 33721, 33985, 34265, 34473, 34666, 34851, 35153, 39834, 40081, 40411, 41529, 41825, 42033, 42265], "trial_type": "free-recall", "conditions": [18, 1200, "v", 18000], "internal_node_id": "0.0-57.0-0.0", "key_presses": [67, 82, 79, 83, 83, 13, 90, 73, 80, 80, 69, 82, 13, 83, 67, 65, 82, 69, 67, 82, 79, 87, 13, 82, 85, 83, 84, 13, 66, 73, 78, 68, 69, 82, 13, 69, 77, 80, 73, 82, 69, 13], "trial": 1, "time_elapsed": 473379, "type": "FREE_RECALL", "trial_index": 75}, "uniqueid": "MTK3244:3QECW5O0KI84RK4446TQX1I1O6NT55", "dateTime": 1520274022597}, {"current_trial": 76, "trialdata": {"rt": 9789, "trial_type": "text", "internal_node_id": "0.0-58.0", "time_elapsed": 485172, "key_press": 78, "type": "INSTRUCTIONS", "trial_index": 76}, "uniqueid": "MTK3244:3QECW5O0KI84RK4446TQX1I1O6NT55", "dateTime": 1520274034386}, {"current_trial": 77, "trialdata": {"rt": [2876, 9133, 11907, 15788, 18893, 23109], "trial_type": "math-distractor", "key_times": [2100, 2404, 2876, 8692, 8892, 9133, 11100, 11700, 11907, 14957, 15485, 15788, 18236, 18567, 18893, 22341, 22573, 23109], "responses": ["13", "21", "17", "13", "10", "11"], "num2": [4, 9, 4, 1, 4, 5, 8], "num3": [4, 7, 7, 8, 4, 2, 1], "conditions": [12, 1600, "v", 24000], "internal_node_id": "0.0-59.0", "key_presses": [49, 51, 13, 50, 49, 13, 49, 55, 13, 49, 51, 13, 49, 48, 13, 49, 49, 13], "trial": 2, "time_elapsed": 510175, "type": "DISTRACTOR", "trial_index": 77, "num1": [5, 4, 6, 4, 2, 4, 1]}, "uniqueid": "MTK3244:3QECW5O0KI84RK4446TQX1I1O6NT55", "dateTime": 1520274059389}, {"current_trial": 78, "trialdata": {"rt": -1, "trial_type": "single-stim", "stimulus": "<p id=\"stim\">10</p>", "internal_node_id": "0.0-60.0-0.0", "time_elapsed": 513176, "key_press": -1, "trial_index": 78}, "uniqueid": "MTK3244:3QECW5O0KI84RK4446TQX1I1O6NT55", "dateTime": 1520274062390}, {"current_trial": 79, "trialdata": {"rt": -1, "trial_type": "single-stim", "stimulus": "<p id=\"stim\">9</p>", "internal_node_id": "0.0-60.0-1.0", "time_elapsed": 514177, "key_press": -1, "trial_index": 79}, "uniqueid": "MTK3244:3QECW5O0KI84RK4446TQX1I1O6NT55", "dateTime": 1520274063391}, {"current_trial": 80, "trialdata": {"rt": -1, "trial_type": "single-stim", "stimulus": "<p id=\"stim\">8</p>", "internal_node_id": "0.0-60.0-2.0", "time_elapsed": 515178, "key_press": -1, "trial_index": 80}, "uniqueid": "MTK3244:3QECW5O0KI84RK4446TQX1I1O6NT55", "dateTime": 1520274064392}, {"current_trial": 81, "trialdata": {"rt": -1, "trial_type": "single-stim", "stimulus": "<p id=\"stim\">7</p>", "internal_node_id": "0.0-60.0-3.0", "time_elapsed": 516179, "key_press": -1, "trial_index": 81}, "uniqueid": "MTK3244:3QECW5O0KI84RK4446TQX1I1O6NT55", "dateTime": 1520274065393}, {"current_trial": 82, "trialdata": {"rt": -1, "trial_type": "single-stim", "stimulus": "<p id=\"stim\">6</p>", "internal_node_id": "0.0-60.0-4.0", "time_elapsed": 517181, "key_press": -1, "trial_index": 82}, "uniqueid": "MTK3244:3QECW5O0KI84RK4446TQX1I1O6NT55", "dateTime": 1520274066395}, {"current_trial": 83, "trialdata": {"rt": -1, "trial_type": "single-stim", "stimulus": "<p id=\"stim\">5</p>", "internal_node_id": "0.0-60.0-5.0", "time_elapsed": 518182, "key_press": -1, "trial_index": 83}, "uniqueid": "MTK3244:3QECW5O0KI84RK4446TQX1I1O6NT55", "dateTime": 1520274067396}, {"current_trial": 84, "trialdata": {"rt": -1, "trial_type": "single-stim", "stimulus": "<p id=\"stim\">4</p>", "internal_node_id": "0.0-60.0-6.0", "time_elapsed": 519183, "key_press": -1, "trial_index": 84}, "uniqueid": "MTK3244:3QECW5O0KI84RK4446TQX1I1O6NT55", "dateTime": 1520274068397}, {"current_trial": 85, "trialdata": {"rt": -1, "trial_type": "single-stim", "stimulus": "<p id=\"stim\">3</p>", "internal_node_id": "0.0-60.0-7.0", "time_elapsed": 520184, "key_press": -1, "trial_index": 85}, "uniqueid": "MTK3244:3QECW5O0KI84RK4446TQX1I1O6NT55", "dateTime": 1520274069398}, {"current_trial": 86, "trialdata": {"rt": -1, "trial_type": "single-stim", "stimulus": "<p id=\"stim\">2</p>", "internal_node_id": "0.0-60.0-8.0", "time_elapsed": 521185, "key_press": -1, "trial_index": 86}, "uniqueid": "MTK3244:3QECW5O0KI84RK4446TQX1I1O6NT55", "dateTime": 1520274070399}, {"current_trial": 87, "trialdata": {"rt": -1, "trial_type": "single-stim", "stimulus": "<p id=\"stim\">1</p>", "internal_node_id": "0.0-60.0-9.0", "time_elapsed": 522187, "key_press": -1, "trial_index": 87}, "uniqueid": "MTK3244:3QECW5O0KI84RK4446TQX1I1O6NT55", "dateTime": 1520274071401}, {"current_trial": 88, "trialdata": {"rt": -1, "trial_type": "single-stim", "stimulus": "<p id=\"stim\">+</p>", "internal_node_id": "0.0-61.0-0.0", "time_elapsed": 523686, "key_press": -1, "type": "FIXATION", "trial_index": 88}, "uniqueid": "MTK3244:3QECW5O0KI84RK4446TQX1I1O6NT55", "dateTime": 1520274072900}, {"current_trial": 89, "trialdata": {"rt": -1, "trial_type": "single-stim", "word": "saddle", "stimulus": "<p id=\"stim\">SADDLE</p>", "conditions": [12, 1600, "v", 24000], "internal_node_id": "0.0-62.0", "trial": 2, "time_elapsed": 525289, "serialpos": 0, "key_press": -1, "wordID": 1220, "type": "PRES_VIS", "trial_index": 89}, "uniqueid": "MTK3244:3QECW5O0KI84RK4446TQX1I1O6NT55", "dateTime": 1520274074503}, {"current_trial": 90, "trialdata": {"rt": -1, "trial_type": "single-stim", "word": "velvet", "stimulus": "<p id=\"stim\">VELVET</p>", "conditions": [12, 1600, "v", 24000], "internal_node_id": "0.0-63.0", "trial": 2, "time_elapsed": 527772, "serialpos": 1, "key_press": -1, "wordID": 1554, "type": "PRES_VIS", "trial_index": 90}, "uniqueid": "MTK3244:3QECW5O0KI84RK4446TQX1I1O6NT55", "dateTime": 1520274076988}, {"current_trial": 91, "trialdata": {"rt": -1, "trial_type": "single-stim", "word": "snail", "stimulus": "<p id=\"stim\">SNAIL</p>", "conditions": [12, 1600, "v", 24000], "internal_node_id": "0.0-64.0", "trial": 2, "time_elapsed": 530375, "serialpos": 2, "key_press": -1, "wordID": 1331, "type": "PRES_VIS", "trial_index": 91}, "uniqueid": "MTK3244:3QECW5O0KI84RK4446TQX1I1O6NT55", "dateTime": 1520274079589}, {"current_trial": 92, "trialdata": {"rt": -1, "trial_type": "single-stim", "word": "contract", "stimulus": "<p id=\"stim\">CONTRACT</p>", "conditions": [12, 1600, "v", 24000], "internal_node_id": "0.0-65.0", "trial": 2, "time_elapsed": 533065, "serialpos": 3, "key_press": -1, "wordID": 367, "type": "PRES_VIS", "trial_index": 92}, "uniqueid": "MTK3244:3QECW5O0KI84RK4446TQX1I1O6NT55", "dateTime": 1520274082279}, {"current_trial": 93, "trialdata": {"rt": -1, "trial_type": "single-stim", "word": "daughter", "stimulus": "<p id=\"stim\">DAUGHTER</p>", "conditions": [12, 1600, "v", 24000], "internal_node_id": "0.0-66.0", "trial": 2, "time_elapsed": 535630, "serialpos": 4, "key_press": -1, "wordID": 441, "type": "PRES_VIS", "trial_index": 93}, "uniqueid": "MTK3244:3QECW5O0KI84RK4446TQX1I1O6NT55", "dateTime": 1520274084844}, {"current_trial": 94, "trialdata": {"rt": -1, "trial_type": "single-stim", "word": "picture", "stimulus": "<p id=\"stim\">PICTURE</p>", "conditions": [12, 1600, "v", 24000], "internal_node_id": "0.0-67.0", "trial": 2, "time_elapsed": 538242, "serialpos": 5, "key_press": -1, "wordID": 1060, "type": "PRES_VIS", "trial_index": 94}, "uniqueid": "MTK3244:3QECW5O0KI84RK4446TQX1I1O6NT55", "dateTime": 1520274087456}, {"current_trial": 95, "trialdata": {"rt": -1, "trial_type": "single-stim", "word": "portrait", "stimulus": "<p id=\"stim\">PORTRAIT</p>", "conditions": [12, 1600, "v", 24000], "internal_node_id": "0.0-68.0", "trial": 2, "time_elapsed": 540745, "serialpos": 6, "key_press": -1, "wordID": 1110, "type": "PRES_VIS", "trial_index": 95}, "uniqueid": "MTK3244:3QECW5O0KI84RK4446TQX1I1O6NT55", "dateTime": 1520274089959}, {"current_trial": 96, "trialdata": {"rt": -1, "trial_type": "single-stim", "word": "award", "stimulus": "<p id=\"stim\">AWARD</p>", "conditions": [12, 1600, "v", 24000], "internal_node_id": "0.0-69.0", "trial": 2, "time_elapsed": 543157, "serialpos": 7, "key_press": -1, "wordID": 62, "type": "PRES_VIS", "trial_index": 96}, "uniqueid": "MTK3244:3QECW5O0KI84RK4446TQX1I1O6NT55", "dateTime": 1520274092371}, {"current_trial": 97, "trialdata": {"rt": -1, "trial_type": "single-stim", "word": "kitchen", "stimulus": "<p id=\"stim\">KITCHEN</p>", "conditions": [12, 1600, "v", 24000], "internal_node_id": "0.0-70.0", "trial": 2, "time_elapsed": 545595, "serialpos": 8, "key_press": -1, "wordID": 777, "type": "PRES_VIS", "trial_index": 97}, "uniqueid": "MTK3244:3QECW5O0KI84RK4446TQX1I1O6NT55", "dateTime": 1520274094809}, {"current_trial": 98, "trialdata": {"rt": -1, "trial_type": "single-stim", "word": "cobra", "stimulus": "<p id=\"stim\">COBRA</p>", "conditions": [12, 1600, "v", 24000], "internal_node_id": "0.0-71.0", "trial": 2, "time_elapsed": 548302, "serialpos": 9, "key_press": -1, "wordID": 335, "type": "PRES_VIS", "trial_index": 98}, "uniqueid": "MTK3244:3QECW5O0KI84RK4446TQX1I1O6NT55", "dateTime": 1520274097516}, {"current_trial": 99, "trialdata": {"rt": -1, "trial_type": "single-stim", "word": "cousin", "stimulus": "<p id=\"stim\">COUSIN</p>", "conditions": [12, 1600, "v", 24000], "internal_node_id": "0.0-72.0", "trial": 2, "time_elapsed": 550924, "serialpos": 10, "key_press": -1, "wordID": 391, "type": "PRES_VIS", "trial_index": 99}, "uniqueid": "MTK3244:3QECW5O0KI84RK4446TQX1I1O6NT55", "dateTime": 1520274100138}, {"current_trial": 100, "trialdata": {"rt": -1, "trial_type": "single-stim", "word": "girl", "stimulus": "<p id=\"stim\">GIRL</p>", "conditions": [12, 1600, "v", 24000], "internal_node_id": "0.0-73.0", "trial": 2, "time_elapsed": 553510, "serialpos": 11, "key_press": -1, "wordID": 636, "type": "PRES_VIS", "trial_index": 100}, "uniqueid": "MTK3244:3QECW5O0KI84RK4446TQX1I1O6NT55", "dateTime": 1520274102725}, {"current_trial": 101, "trialdata": {"rt": -1, "trial_type": "single-stim", "stimulus": "", "internal_node_id": "0.0-74.0-0.0", "time_elapsed": 555963, "key_press": -1, "type": "PRE_RECALL_DELAY", "trial_index": 101}, "uniqueid": "MTK3244:3QECW5O0KI84RK4446TQX1I1O6NT55", "dateTime": 1520274105179}, {"current_trial": 102, "trialdata": {"rt": -1000, "trial_type": "single-audio", "stimulus": "/static/audio/400Hz.wav", "internal_node_id": "0.0-75.0", "time_elapsed": 556465, "key_press": -1, "type": "PRE_RECALL_ALERT", "trial_index": 102}, "uniqueid": "MTK3244:3QECW5O0KI84RK4446TQX1I1O6NT55", "dateTime": 1520274105679}, {"current_trial": 103, "trialdata": {"rt": [3757, 10213, 15998, 22678, 30709], "recwords": ["girl", "daughter", "kitchen", "saddle", "award"], "key_times": [1855, 2118, 2408, 3037, 3757, 7214, 7893, 8637, 8863, 9030, 9295, 9478, 9615, 9823, 10047, 10213, 13798, 14350, 14550, 14837, 15039, 15246, 15461, 15998, 21367, 21574, 21782, 21934, 22190, 22397, 22678, 29222, 29463, 29694, 29974, 30198, 30709], "trial_type": "free-recall", "conditions": [12, 1600, "v", 24000], "internal_node_id": "0.0-76.0-0.0", "key_presses": [71, 73, 82, 76, 13, 83, 8, 68, 65, 85, 71, 72, 84, 69, 82, 13, 75, 73, 84, 67, 72, 69, 78, 13, 83, 65, 68, 68, 76, 69, 13, 65, 87, 65, 82, 68, 13], "trial": 2, "time_elapsed": 616469, "type": "FREE_RECALL", "trial_index": 103}, "uniqueid": "MTK3244:3QECW5O0KI84RK4446TQX1I1O6NT55", "dateTime": 1520274165686}, {"current_trial": 104, "trialdata": {"rt": 2628, "trial_type": "text", "internal_node_id": "0.0-77.0", "time_elapsed": 621101, "key_press": 77, "type": "INSTRUCTIONS", "trial_index": 104}, "uniqueid": "MTK3244:3QECW5O0KI84RK4446TQX1I1O6NT55", "dateTime": 1520274170315}, {"current_trial": 105, "trialdata": {"rt": [3795, 7554, 10771, 15578, 19275, 22020], "trial_type": "math-distractor", "key_times": [2355, 2923, 3795, 6683, 7188, 7554, 10124, 10539, 10771, 14979, 15355, 15578, 18675, 19027, 19275, 21405, 21811, 22020], "responses": ["18", "12", "14", "25", "13", "16"], "num2": [8, 4, 6, 8, 2, 1, 3], "num3": [7, 7, 1, 8, 3, 7, 9], "conditions": [24, 800, "v", 24000], "internal_node_id": "0.0-78.0", "key_presses": [49, 56, 13, 49, 50, 13, 49, 52, 13, 50, 53, 13, 49, 51, 13, 49, 54, 13], "trial": 3, "time_elapsed": 647105, "type": "DISTRACTOR", "trial_index": 105, "num1": [3, 1, 7, 9, 8, 8, 8]}, "uniqueid": "MTK3244:3QECW5O0KI84RK4446TQX1I1O6NT55", "dateTime": 1520274196319}, {"current_trial": 106, "trialdata": {"rt": -1, "trial_type": "single-stim", "stimulus": "<p id=\"stim\">10</p>", "internal_node_id": "0.0-79.0-0.0", "time_elapsed": 650105, "key_press": -1, "trial_index": 106}, "uniqueid": "MTK3244:3QECW5O0KI84RK4446TQX1I1O6NT55", "dateTime": 1520274199319}, {"current_trial": 107, "trialdata": {"rt": -1, "trial_type": "single-stim", "stimulus": "<p id=\"stim\">9</p>", "internal_node_id": "0.0-79.0-1.0", "time_elapsed": 651106, "key_press": -1, "trial_index": 107}, "uniqueid": "MTK3244:3QECW5O0KI84RK4446TQX1I1O6NT55", "dateTime": 1520274200320}, {"current_trial": 108, "trialdata": {"rt": -1, "trial_type": "single-stim", "stimulus": "<p id=\"stim\">8</p>", "internal_node_id": "0.0-79.0-2.0", "time_elapsed": 652107, "key_press": -1, "trial_index": 108}, "uniqueid": "MTK3244:3QECW5O0KI84RK4446TQX1I1O6NT55", "dateTime": 1520274201321}, {"current_trial": 109, "trialdata": {"rt": -1, "trial_type": "single-stim", "stimulus": "<p id=\"stim\">7</p>", "internal_node_id": "0.0-79.0-3.0", "time_elapsed": 653108, "key_press": -1, "trial_index": 109}, "uniqueid": "MTK3244:3QECW5O0KI84RK4446TQX1I1O6NT55", "dateTime": 1520274202322}, {"current_trial": 110, "trialdata": {"rt": -1, "trial_type": "single-stim", "stimulus": "<p id=\"stim\">6</p>", "internal_node_id": "0.0-79.0-4.0", "time_elapsed": 654109, "key_press": -1, "trial_index": 110}, "uniqueid": "MTK3244:3QECW5O0KI84RK4446TQX1I1O6NT55", "dateTime": 1520274203323}, {"current_trial": 111, "trialdata": {"rt": -1, "trial_type": "single-stim", "stimulus": "<p id=\"stim\">5</p>", "internal_node_id": "0.0-79.0-5.0", "time_elapsed": 655110, "key_press": -1, "trial_index": 111}, "uniqueid": "MTK3244:3QECW5O0KI84RK4446TQX1I1O6NT55", "dateTime": 1520274204324}, {"current_trial": 112, "trialdata": {"rt": -1, "trial_type": "single-stim", "stimulus": "<p id=\"stim\">4</p>", "internal_node_id": "0.0-79.0-6.0", "time_elapsed": 656111, "key_press": -1, "trial_index": 112}, "uniqueid": "MTK3244:3QECW5O0KI84RK4446TQX1I1O6NT55", "dateTime": 1520274205325}, {"current_trial": 113, "trialdata": {"rt": -1, "trial_type": "single-stim", "stimulus": "<p id=\"stim\">3</p>", "internal_node_id": "0.0-79.0-7.0", "time_elapsed": 657112, "key_press": -1, "trial_index": 113}, "uniqueid": "MTK3244:3QECW5O0KI84RK4446TQX1I1O6NT55", "dateTime": 1520274206326}, {"current_trial": 114, "trialdata": {"rt": -1, "trial_type": "single-stim", "stimulus": "<p id=\"stim\">2</p>", "internal_node_id": "0.0-79.0-8.0", "time_elapsed": 658114, "key_press": -1, "trial_index": 114}, "uniqueid": "MTK3244:3QECW5O0KI84RK4446TQX1I1O6NT55", "dateTime": 1520274207328}, {"current_trial": 115, "trialdata": {"rt": -1, "trial_type": "single-stim", "stimulus": "<p id=\"stim\">1</p>", "internal_node_id": "0.0-79.0-9.0", "time_elapsed": 659114, "key_press": -1, "trial_index": 115}, "uniqueid": "MTK3244:3QECW5O0KI84RK4446TQX1I1O6NT55", "dateTime": 1520274208328}, {"current_trial": 116, "trialdata": {"rt": -1, "trial_type": "single-stim", "stimulus": "<p id=\"stim\">+</p>", "internal_node_id": "0.0-80.0-0.0", "time_elapsed": 660614, "key_press": -1, "type": "FIXATION", "trial_index": 116}, "uniqueid": "MTK3244:3QECW5O0KI84RK4446TQX1I1O6NT55", "dateTime": 1520274209828}, {"current_trial": 117, "trialdata": {"rt": -1, "trial_type": "single-stim", "word": "crib", "stimulus": "<p id=\"stim\">CRIB</p>", "conditions": [24, 800, "v", 24000], "internal_node_id": "0.0-81.0", "trial": 3, "time_elapsed": 661415, "serialpos": 0, "key_press": -1, "wordID": 406, "type": "PRES_VIS", "trial_index": 117}, "uniqueid": "MTK3244:3QECW5O0KI84RK4446TQX1I1O6NT55", "dateTime": 1520274210629}, {"current_trial": 118, "trialdata": {"rt": -1, "trial_type": "single-stim", "word": "human", "stimulus": "<p id=\"stim\">HUMAN</p>", "conditions": [24, 800, "v", 24000], "internal_node_id": "0.0-82.0", "trial": 3, "time_elapsed": 663411, "serialpos": 1, "key_press": -1, "wordID": 725, "type": "PRES_VIS", "trial_index": 118}, "uniqueid": "MTK3244:3QECW5O0KI84RK4446TQX1I1O6NT55", "dateTime": 1520274212625}, {"current_trial": 119, "trialdata": {"rt": -1, "trial_type": "single-stim", "word": "costume", "stimulus": "<p id=\"stim\">COSTUME</p>", "conditions": [24, 800, "v", 24000], "internal_node_id": "0.0-83.0", "trial": 3, "time_elapsed": 665358, "serialpos": 2, "key_press": -1, "wordID": 382, "type": "PRES_VIS", "trial_index": 119}, "uniqueid": "MTK3244:3QECW5O0KI84RK4446TQX1I1O6NT55", "dateTime": 1520274214572}, {"current_trial": 120, "trialdata": {"rt": -1, "trial_type": "single-stim", "word": "gift", "stimulus": "<p id=\"stim\">GIFT</p>", "conditions": [24, 800, "v", 24000], "internal_node_id": "0.0-84.0", "trial": 3, "time_elapsed": 667021, "serialpos": 3, "key_press": -1, "wordID": 634, "type": "PRES_VIS", "trial_index": 120}, "uniqueid": "MTK3244:3QECW5O0KI84RK4446TQX1I1O6NT55", "dateTime": 1520274216235}, {"current_trial": 121, "trialdata": {"rt": -1, "trial_type": "single-stim", "word": "mattress", "stimulus": "<p id=\"stim\">MATTRESS</p>", "conditions": [24, 800, "v", 24000], "internal_node_id": "0.0-85.0", "trial": 3, "time_elapsed": 668858, "serialpos": 4, "key_press": -1, "wordID": 878, "type": "PRES_VIS", "trial_index": 121}, "uniqueid": "MTK3244:3QECW5O0KI84RK4446TQX1I1O6NT55", "dateTime": 1520274218072}, {"current_trial": 122, "trialdata": {"rt": -1, "trial_type": "single-stim", "word": "stream", "stimulus": "<p id=\"stim\">STREAM</p>", "conditions": [24, 800, "v", 24000], "internal_node_id": "0.0-86.0", "trial": 3, "time_elapsed": 670615, "serialpos": 5, "key_press": -1, "wordID": 1391, "type": "PRES_VIS", "trial_index": 122}, "uniqueid": "MTK3244:3QECW5O0KI84RK4446TQX1I1O6NT55", "dateTime": 1520274219830}, {"current_trial": 123, "trialdata": {"rt": -1, "trial_type": "single-stim", "word": "popcorn", "stimulus": "<p id=\"stim\">POPCORN</p>", "conditions": [24, 800, "v", 24000], "internal_node_id": "0.0-87.0", "trial": 3, "time_elapsed": 672223, "serialpos": 6, "key_press": -1, "wordID": 1103, "type": "PRES_VIS", "trial_index": 123}, "uniqueid": "MTK3244:3QECW5O0KI84RK4446TQX1I1O6NT55", "dateTime": 1520274221437}, {"current_trial": 124, "trialdata": {"rt": -1, "trial_type": "single-stim", "word": "spider", "stimulus": "<p id=\"stim\">SPIDER</p>", "conditions": [24, 800, "v", 24000], "internal_node_id": "0.0-88.0", "trial": 3, "time_elapsed": 673864, "serialpos": 7, "key_press": -1, "wordID": 1350, "type": "PRES_VIS", "trial_index": 124}, "uniqueid": "MTK3244:3QECW5O0KI84RK4446TQX1I1O6NT55", "dateTime": 1520274223078}, {"current_trial": 125, "trialdata": {"rt": -1, "trial_type": "single-stim", "word": "fireman", "stimulus": "<p id=\"stim\">FIREMAN</p>", "conditions": [24, 800, "v", 24000], "internal_node_id": "0.0-89.0", "trial": 3, "time_elapsed": 675747, "serialpos": 8, "key_press": -1, "wordID": 568, "type": "PRES_VIS", "trial_index": 125}, "uniqueid": "MTK3244:3QECW5O0KI84RK4446TQX1I1O6NT55", "dateTime": 1520274224961}, {"current_trial": 126, "trialdata": {"rt": -1, "trial_type": "single-stim", "word": "flask", "stimulus": "<p id=\"stim\">FLASK</p>", "conditions": [24, 800, "v", 24000], "internal_node_id": "0.0-90.0", "trial": 3, "time_elapsed": 677518, "serialpos": 9, "key_press": -1, "wordID": 575, "type": "PRES_VIS", "trial_index": 126}, "uniqueid": "MTK3244:3QECW5O0KI84RK4446TQX1I1O6NT55", "dateTime": 1520274226732}, {"current_trial": 127, "trialdata": {"rt": -1, "trial_type": "single-stim", "word": "beaker", "stimulus": "<p id=\"stim\">BEAKER</p>", "conditions": [24, 800, "v", 24000], "internal_node_id": "0.0-91.0", "trial": 3, "time_elapsed": 679142, "serialpos": 10, "key_press": -1, "wordID": 103, "type": "PRES_VIS", "trial_index": 127}, "uniqueid": "MTK3244:3QECW5O0KI84RK4446TQX1I1O6NT55", "dateTime": 1520274228356}, {"current_trial": 128, "trialdata": {"rt": -1, "trial_type": "single-stim", "word": "smog", "stimulus": "<p id=\"stim\">SMOG</p>", "conditions": [24, 800, "v", 24000], "internal_node_id": "0.0-92.0", "trial": 3, "time_elapsed": 680888, "serialpos": 11, "key_press": -1, "wordID": 1329, "type": "PRES_VIS", "trial_index": 128}, "uniqueid": "MTK3244:3QECW5O0KI84RK4446TQX1I1O6NT55", "dateTime": 1520274230103}, {"current_trial": 129, "trialdata": {"rt": -1, "trial_type": "single-stim", "word": "grape", "stimulus": "<p id=\"stim\">GRAPE</p>", "conditions": [24, 800, "v", 24000], "internal_node_id": "0.0-93.0", "trial": 3, "time_elapsed": 682762, "serialpos": 12, "key_press": -1, "wordID": 653, "type": "PRES_VIS", "trial_index": 129}, "uniqueid": "MTK3244:3QECW5O0KI84RK4446TQX1I1O6NT55", "dateTime": 1520274231976}, {"current_trial": 130, "trialdata": {"rt": -1, "trial_type": "single-stim", "word": "japan", "stimulus": "<p id=\"stim\">JAPAN</p>", "conditions": [24, 800, "v", 24000], "internal_node_id": "0.0-94.0", "trial": 3, "time_elapsed": 684399, "serialpos": 13, "key_press": -1, "wordID": 748, "type": "PRES_VIS", "trial_index": 130}, "uniqueid": "MTK3244:3QECW5O0KI84RK4446TQX1I1O6NT55", "dateTime": 1520274233613}, {"current_trial": 131, "trialdata": {"rt": -1, "trial_type": "single-stim", "word": "igloo", "stimulus": "<p id=\"stim\">IGLOO</p>", "conditions": [24, 800, "v", 24000], "internal_node_id": "0.0-95.0", "trial": 3, "time_elapsed": 686198, "serialpos": 14, "key_press": -1, "wordID": 733, "type": "PRES_VIS", "trial_index": 131}, "uniqueid": "MTK3244:3QECW5O0KI84RK4446TQX1I1O6NT55", "dateTime": 1520274235412}, {"current_trial": 132, "trialdata": {"rt": -1, "trial_type": "single-stim", "word": "penguin", "stimulus": "<p id=\"stim\">PENGUIN</p>", "conditions": [24, 800, "v", 24000], "internal_node_id": "0.0-96.0", "trial": 3, "time_elapsed": 688068, "serialpos": 15, "key_press": -1, "wordID": 1043, "type": "PRES_VIS", "trial_index": 132}, "uniqueid": "MTK3244:3QECW5O0KI84RK4446TQX1I1O6NT55", "dateTime": 1520274237282}, {"current_trial": 133, "trialdata": {"rt": -1, "trial_type": "single-stim", "word": "lady", "stimulus": "<p id=\"stim\">LADY</p>", "conditions": [24, 800, "v", 24000], "internal_node_id": "0.0-97.0", "trial": 3, "time_elapsed": 689870, "serialpos": 16, "key_press": -1, "wordID": 793, "type": "PRES_VIS", "trial_index": 133}, "uniqueid": "MTK3244:3QECW5O0KI84RK4446TQX1I1O6NT55", "dateTime": 1520274239084}, {"current_trial": 134, "trialdata": {"rt": -1, "trial_type": "single-stim", "word": "hedge", "stimulus": "<p id=\"stim\">HEDGE</p>", "conditions": [24, 800, "v", 24000], "internal_node_id": "0.0-98.0", "trial": 3, "time_elapsed": 691590, "serialpos": 17, "key_press": -1, "wordID": 698, "type": "PRES_VIS", "trial_index": 134}, "uniqueid": "MTK3244:3QECW5O0KI84RK4446TQX1I1O6NT55", "dateTime": 1520274240804}, {"current_trial": 135, "trialdata": {"rt": -1, "trial_type": "single-stim", "word": "outdoors", "stimulus": "<p id=\"stim\">OUTDOORS</p>", "conditions": [24, 800, "v", 24000], "internal_node_id": "0.0-99.0", "trial": 3, "time_elapsed": 693427, "serialpos": 18, "key_press": -1, "wordID": 986, "type": "PRES_VIS", "trial_index": 135}, "uniqueid": "MTK3244:3QECW5O0KI84RK4446TQX1I1O6NT55", "dateTime": 1520274242641}, {"current_trial": 136, "trialdata": {"rt": -1, "trial_type": "single-stim", "word": "barley", "stimulus": "<p id=\"stim\">BARLEY</p>", "conditions": [24, 800, "v", 24000], "internal_node_id": "0.0-100.0", "trial": 3, "time_elapsed": 695416, "serialpos": 19, "key_press": -1, "wordID": 87, "type": "PRES_VIS", "trial_index": 136}, "uniqueid": "MTK3244:3QECW5O0KI84RK4446TQX1I1O6NT55", "dateTime": 1520274244630}, {"current_trial": 137, "trialdata": {"rt": -1, "trial_type": "single-stim", "word": "orchid", "stimulus": "<p id=\"stim\">ORCHID</p>", "conditions": [24, 800, "v", 24000], "internal_node_id": "0.0-101.0", "trial": 3, "time_elapsed": 697312, "serialpos": 20, "key_press": -1, "wordID": 981, "type": "PRES_VIS", "trial_index": 137}, "uniqueid": "MTK3244:3QECW5O0KI84RK4446TQX1I1O6NT55", "dateTime": 1520274246526}, {"current_trial": 138, "trialdata": {"rt": -1, "trial_type": "single-stim", "word": "lily", "stimulus": "<p id=\"stim\">LILY</p>", "conditions": [24, 800, "v", 24000], "internal_node_id": "0.0-102.0", "trial": 3, "time_elapsed": 698982, "serialpos": 21, "key_press": -1, "wordID": 820, "type": "PRES_VIS", "trial_index": 138}, "uniqueid": "MTK3244:3QECW5O0KI84RK4446TQX1I1O6NT55", "dateTime": 1520274248196}, {"current_trial": 139, "trialdata": {"rt": -1, "trial_type": "single-stim", "word": "lake", "stimulus": "<p id=\"stim\">LAKE</p>", "conditions": [24, 800, "v", 24000], "internal_node_id": "0.0-103.0", "trial": 3, "time_elapsed": 700967, "serialpos": 22, "key_press": -1, "wordID": 795, "type": "PRES_VIS", "trial_index": 139}, "uniqueid": "MTK3244:3QECW5O0KI84RK4446TQX1I1O6NT55", "dateTime": 1520274250182}, {"current_trial": 140, "trialdata": {"rt": -1, "trial_type": "single-stim", "word": "church", "stimulus": "<p id=\"stim\">CHURCH</p>", "conditions": [24, 800, "v", 24000], "internal_node_id": "0.0-104.0", "trial": 3, "time_elapsed": 702932, "serialpos": 23, "key_press": -1, "wordID": 306, "type": "PRES_VIS", "trial_index": 140}, "uniqueid": "MTK3244:3QECW5O0KI84RK4446TQX1I1O6NT55", "dateTime": 1520274252147}, {"current_trial": 141, "trialdata": {"rt": -1, "trial_type": "single-stim", "stimulus": "", "internal_node_id": "0.0-105.0-0.0", "time_elapsed": 705383, "key_press": -1, "type": "PRE_RECALL_DELAY", "trial_index": 141}, "uniqueid": "MTK3244:3QECW5O0KI84RK4446TQX1I1O6NT55", "dateTime": 1520274254597}, {"current_trial": 142, "trialdata": {"rt": -1000, "trial_type": "single-audio", "stimulus": "/static/audio/400Hz.wav", "internal_node_id": "0.0-106.0", "time_elapsed": 705894, "key_press": -1, "type": "PRE_RECALL_ALERT", "trial_index": 142}, "uniqueid": "MTK3244:3QECW5O0KI84RK4446TQX1I1O6NT55", "dateTime": 1520274255108}, {"current_trial": 143, "trialdata": {"rt": [3908, 6932, 12244, 14699, 23003, 34082, 37666], "recwords": ["lake", "church", "flask", "beaker", "crib", "igloo", "penguin"], "key_times": [3038, 3259, 3483, 3732, 3908, 4188, 4396, 4644, 4931, 5236, 6540, 6932, 10115, 10332, 10531, 10980, 11229, 12244, 13140, 13491, 13764, 14011, 14227, 14436, 14699, 21508, 21788, 22260, 22699, 23003, 32044, 32394, 32627, 32954, 33131, 34082, 35027, 35554, 35795, 36419, 36618, 36803, 37155, 37666], "trial_type": "free-recall", "conditions": [24, 800, "v", 24000], "internal_node_id": "0.0-107.0-0.0", "key_presses": [76, 65, 75, 69, 32, 67, 72, 85, 82, 67, 72, 13, 70, 76, 65, 83, 75, 13, 66, 69, 65, 75, 69, 82, 13, 67, 82, 73, 66, 13, 73, 71, 76, 79, 79, 13, 80, 69, 78, 71, 85, 73, 78, 13], "trial": 3, "time_elapsed": 765895, "type": "FREE_RECALL", "trial_index": 143}, "uniqueid": "MTK3244:3QECW5O0KI84RK4446TQX1I1O6NT55", "dateTime": 1520274315114}, {"current_trial": 144, "trialdata": {"rt": 5960, "trial_type": "text", "internal_node_id": "0.0-108.0", "time_elapsed": 773860, "key_press": 32, "type": "INSTRUCTIONS", "trial_index": 144}, "uniqueid": "MTK3244:3QECW5O0KI84RK4446TQX1I1O6NT55", "dateTime": 1520274323074}, {"current_trial": 145, "trialdata": {"rt": [2276, 5579, 7964, 11580, 13957, 16556, 19964], "trial_type": "math-distractor", "key_times": [1949, 2276, 4853, 5348, 5579, 7492, 7725, 7964, 10926, 11148, 11580, 13581, 13788, 13957, 16037, 16373, 16556, 18461, 19589, 19964], "responses": ["6", "19", "21", "12", "12", "14", "15"], "num2": [1, 9, 8, 4, 3, 4, 5, 7], "num3": [4, 1, 5, 4, 8, 6, 4, 5], "conditions": [24, 1600, "v", 24000], "internal_node_id": "0.0-109.0", "key_presses": [54, 13, 49, 57, 13, 50, 49, 13, 49, 50, 13, 49, 50, 13, 49, 52, 13, 49, 53, 13], "trial": 4, "time_elapsed": 799862, "type": "DISTRACTOR", "trial_index": 145, "num1": [1, 9, 8, 4, 1, 4, 7, 6]}, "uniqueid": "MTK3244:3QECW5O0KI84RK4446TQX1I1O6NT55", "dateTime": 1520274349076}, {"current_trial": 146, "trialdata": {"rt": -1, "trial_type": "single-stim", "stimulus": "<p id=\"stim\">10</p>", "internal_node_id": "0.0-110.0-0.0", "time_elapsed": 802862, "key_press": -1, "trial_index": 146}, "uniqueid": "MTK3244:3QECW5O0KI84RK4446TQX1I1O6NT55", "dateTime": 1520274352077}, {"current_trial": 147, "trialdata": {"rt": -1, "trial_type": "single-stim", "stimulus": "<p id=\"stim\">9</p>", "internal_node_id": "0.0-110.0-1.0", "time_elapsed": 803864, "key_press": -1, "trial_index": 147}, "uniqueid": "MTK3244:3QECW5O0KI84RK4446TQX1I1O6NT55", "dateTime": 1520274353078}, {"current_trial": 148, "trialdata": {"rt": -1, "trial_type": "single-stim", "stimulus": "<p id=\"stim\">8</p>", "internal_node_id": "0.0-110.0-2.0", "time_elapsed": 804864, "key_press": -1, "trial_index": 148}, "uniqueid": "MTK3244:3QECW5O0KI84RK4446TQX1I1O6NT55", "dateTime": 1520274354079}, {"current_trial": 149, "trialdata": {"rt": -1, "trial_type": "single-stim", "stimulus": "<p id=\"stim\">7</p>", "internal_node_id": "0.0-110.0-3.0", "time_elapsed": 805865, "key_press": -1, "trial_index": 149}, "uniqueid": "MTK3244:3QECW5O0KI84RK4446TQX1I1O6NT55", "dateTime": 1520274355081}, {"current_trial": 150, "trialdata": {"rt": -1, "trial_type": "single-stim", "stimulus": "<p id=\"stim\">6</p>", "internal_node_id": "0.0-110.0-4.0", "time_elapsed": 806867, "key_press": -1, "trial_index": 150}, "uniqueid": "MTK3244:3QECW5O0KI84RK4446TQX1I1O6NT55", "dateTime": 1520274356081}, {"current_trial": 151, "trialdata": {"rt": -1, "trial_type": "single-stim", "stimulus": "<p id=\"stim\">5</p>", "internal_node_id": "0.0-110.0-5.0", "time_elapsed": 807867, "key_press": -1, "trial_index": 151}, "uniqueid": "MTK3244:3QECW5O0KI84RK4446TQX1I1O6NT55", "dateTime": 1520274357082}, {"current_trial": 152, "trialdata": {"rt": -1, "trial_type": "single-stim", "stimulus": "<p id=\"stim\">4</p>", "internal_node_id": "0.0-110.0-6.0", "time_elapsed": 808869, "key_press": -1, "trial_index": 152}, "uniqueid": "MTK3244:3QECW5O0KI84RK4446TQX1I1O6NT55", "dateTime": 1520274358083}, {"current_trial": 153, "trialdata": {"rt": -1, "trial_type": "single-stim", "stimulus": "<p id=\"stim\">3</p>", "internal_node_id": "0.0-110.0-7.0", "time_elapsed": 809869, "key_press": -1, "trial_index": 153}, "uniqueid": "MTK3244:3QECW5O0KI84RK4446TQX1I1O6NT55", "dateTime": 1520274359084}, {"current_trial": 154, "trialdata": {"rt": -1, "trial_type": "single-stim", "stimulus": "<p id=\"stim\">2</p>", "internal_node_id": "0.0-110.0-8.0", "time_elapsed": 810871, "key_press": -1, "trial_index": 154}, "uniqueid": "MTK3244:3QECW5O0KI84RK4446TQX1I1O6NT55", "dateTime": 1520274360085}, {"current_trial": 155, "trialdata": {"rt": -1, "trial_type": "single-stim", "stimulus": "<p id=\"stim\">1</p>", "internal_node_id": "0.0-110.0-9.0", "time_elapsed": 811871, "key_press": -1, "trial_index": 155}, "uniqueid": "MTK3244:3QECW5O0KI84RK4446TQX1I1O6NT55", "dateTime": 1520274361085}, {"current_trial": 156, "trialdata": {"rt": -1, "trial_type": "single-stim", "stimulus": "<p id=\"stim\">+</p>", "internal_node_id": "0.0-111.0-0.0", "time_elapsed": 813373, "key_press": -1, "type": "FIXATION", "trial_index": 156}, "uniqueid": "MTK3244:3QECW5O0KI84RK4446TQX1I1O6NT55", "dateTime": 1520274362587}, {"current_trial": 157, "trialdata": {"rt": -1, "trial_type": "single-stim", "word": "beef", "stimulus": "<p id=\"stim\">BEEF</p>", "conditions": [24, 1600, "v", 24000], "internal_node_id": "0.0-112.0", "trial": 4, "time_elapsed": 814973, "serialpos": 0, "key_press": -1, "wordID": 112, "type": "PRES_VIS", "trial_index": 157}, "uniqueid": "MTK3244:3QECW5O0KI84RK4446TQX1I1O6NT55", "dateTime": 1520274364188}, {"current_trial": 158, "trialdata": {"rt": -1, "trial_type": "single-stim", "word": "camel", "stimulus": "<p id=\"stim\">CAMEL</p>", "conditions": [24, 1600, "v", 24000], "internal_node_id": "0.0-113.0", "trial": 4, "time_elapsed": 817510, "serialpos": 1, "key_press": -1, "wordID": 222, "type": "PRES_VIS", "trial_index": 158}, "uniqueid": "MTK3244:3QECW5O0KI84RK4446TQX1I1O6NT55", "dateTime": 1520274366724}, {"current_trial": 159, "trialdata": {"rt": -1, "trial_type": "single-stim", "word": "donkey", "stimulus": "<p id=\"stim\">DONKEY</p>", "conditions": [24, 1600, "v", 24000], "internal_node_id": "0.0-114.0", "trial": 4, "time_elapsed": 819953, "serialpos": 2, "key_press": -1, "wordID": 483, "type": "PRES_VIS", "trial_index": 159}, "uniqueid": "MTK3244:3QECW5O0KI84RK4446TQX1I1O6NT55", "dateTime": 1520274369167}, {"current_trial": 160, "trialdata": {"rt": -1, "trial_type": "single-stim", "word": "coffee", "stimulus": "<p id=\"stim\">COFFEE</p>", "conditions": [24, 1600, "v", 24000], "internal_node_id": "0.0-115.0", "trial": 4, "time_elapsed": 822422, "serialpos": 3, "key_press": -1, "wordID": 340, "type": "PRES_VIS", "trial_index": 160}, "uniqueid": "MTK3244:3QECW5O0KI84RK4446TQX1I1O6NT55", "dateTime": 1520274371636}, {"current_trial": 161, "trialdata": {"rt": -1, "trial_type": "single-stim", "word": "milk", "stimulus": "<p id=\"stim\">MILK</p>", "conditions": [24, 1600, "v", 24000], "internal_node_id": "0.0-116.0", "trial": 4, "time_elapsed": 825210, "serialpos": 4, "key_press": -1, "wordID": 894, "type": "PRES_VIS", "trial_index": 161}, "uniqueid": "MTK3244:3QECW5O0KI84RK4446TQX1I1O6NT55", "dateTime": 1520274374424}, {"current_trial": 162, "trialdata": {"rt": -1, "trial_type": "single-stim", "word": "softball", "stimulus": "<p id=\"stim\">SOFTBALL</p>", "conditions": [24, 1600, "v", 24000], "internal_node_id": "0.0-117.0", "trial": 4, "time_elapsed": 827691, "serialpos": 5, "key_press": -1, "wordID": 1342, "type": "PRES_VIS", "trial_index": 162}, "uniqueid": "MTK3244:3QECW5O0KI84RK4446TQX1I1O6NT55", "dateTime": 1520274376905}, {"current_trial": 163, "trialdata": {"rt": -1, "trial_type": "single-stim", "word": "uncle", "stimulus": "<p id=\"stim\">UNCLE</p>", "conditions": [24, 1600, "v", 24000], "internal_node_id": "0.0-118.0", "trial": 4, "time_elapsed": 830373, "serialpos": 6, "key_press": -1, "wordID": 1535, "type": "PRES_VIS", "trial_index": 163}, "uniqueid": "MTK3244:3QECW5O0KI84RK4446TQX1I1O6NT55", "dateTime": 1520274379587}, {"current_trial": 164, "trialdata": {"rt": -1, "trial_type": "single-stim", "word": "child", "stimulus": "<p id=\"stim\">CHILD</p>", "conditions": [24, 1600, "v", 24000], "internal_node_id": "0.0-119.0", "trial": 4, "time_elapsed": 832777, "serialpos": 7, "key_press": -1, "wordID": 298, "type": "PRES_VIS", "trial_index": 164}, "uniqueid": "MTK3244:3QECW5O0KI84RK4446TQX1I1O6NT55", "dateTime": 1520274381991}, {"current_trial": 165, "trialdata": {"rt": -1, "trial_type": "single-stim", "word": "cashier", "stimulus": "<p id=\"stim\">CASHIER</p>", "conditions": [24, 1600, "v", 24000], "internal_node_id": "0.0-120.0", "trial": 4, "time_elapsed": 835495, "serialpos": 8, "key_press": -1, "wordID": 253, "type": "PRES_VIS", "trial_index": 165}, "uniqueid": "MTK3244:3QECW5O0KI84RK4446TQX1I1O6NT55", "dateTime": 1520274384709}, {"current_trial": 166, "trialdata": {"rt": -1, "trial_type": "single-stim", "word": "plaster", "stimulus": "<p id=\"stim\">PLASTER</p>", "conditions": [24, 1600, "v", 24000], "internal_node_id": "0.0-121.0", "trial": 4, "time_elapsed": 838082, "serialpos": 9, "key_press": -1, "wordID": 1084, "type": "PRES_VIS", "trial_index": 166}, "uniqueid": "MTK3244:3QECW5O0KI84RK4446TQX1I1O6NT55", "dateTime": 1520274387296}, {"current_trial": 167, "trialdata": {"rt": -1, "trial_type": "single-stim", "word": "baby", "stimulus": "<p id=\"stim\">BABY</p>", "conditions": [24, 1600, "v", 24000], "internal_node_id": "0.0-122.0", "trial": 4, "time_elapsed": 840683, "serialpos": 10, "key_press": -1, "wordID": 63, "type": "PRES_VIS", "trial_index": 167}, "uniqueid": "MTK3244:3QECW5O0KI84RK4446TQX1I1O6NT55", "dateTime": 1520274389898}, {"current_trial": 168, "trialdata": {"rt": -1, "trial_type": "single-stim", "word": "trombone", "stimulus": "<p id=\"stim\">TROMBONE</p>", "conditions": [24, 1600, "v", 24000], "internal_node_id": "0.0-123.0", "trial": 4, "time_elapsed": 843473, "serialpos": 11, "key_press": -1, "wordID": 1507, "type": "PRES_VIS", "trial_index": 168}, "uniqueid": "MTK3244:3QECW5O0KI84RK4446TQX1I1O6NT55", "dateTime": 1520274392688}, {"current_trial": 169, "trialdata": {"rt": -1, "trial_type": "single-stim", "word": "quarter", "stimulus": "<p id=\"stim\">QUARTER</p>", "conditions": [24, 1600, "v", 24000], "internal_node_id": "0.0-124.0", "trial": 4, "time_elapsed": 846115, "serialpos": 12, "key_press": -1, "wordID": 1147, "type": "PRES_VIS", "trial_index": 169}, "uniqueid": "MTK3244:3QECW5O0KI84RK4446TQX1I1O6NT55", "dateTime": 1520274395329}, {"current_trial": 170, "trialdata": {"rt": -1, "trial_type": "single-stim", "word": "postage", "stimulus": "<p id=\"stim\">POSTAGE</p>", "conditions": [24, 1600, "v", 24000], "internal_node_id": "0.0-125.0", "trial": 4, "time_elapsed": 848849, "serialpos": 13, "key_press": -1, "wordID": 1112, "type": "PRES_VIS", "trial_index": 170}, "uniqueid": "MTK3244:3QECW5O0KI84RK4446TQX1I1O6NT55", "dateTime": 1520274398064}, {"current_trial": 171, "trialdata": {"rt": -1, "trial_type": "single-stim", "word": "banquet", "stimulus": "<p id=\"stim\">BANQUET</p>", "conditions": [24, 1600, "v", 24000], "internal_node_id": "0.0-126.0", "trial": 4, "time_elapsed": 851325, "serialpos": 14, "key_press": -1, "wordID": 85, "type": "PRES_VIS", "trial_index": 171}, "uniqueid": "MTK3244:3QECW5O0KI84RK4446TQX1I1O6NT55", "dateTime": 1520274400539}, {"current_trial": 172, "trialdata": {"rt": -1, "trial_type": "single-stim", "word": "supper", "stimulus": "<p id=\"stim\">SUPPER</p>", "conditions": [24, 1600, "v", 24000], "internal_node_id": "0.0-127.0", "trial": 4, "time_elapsed": 853885, "serialpos": 15, "key_press": -1, "wordID": 1410, "type": "PRES_VIS", "trial_index": 172}, "uniqueid": "MTK3244:3QECW5O0KI84RK4446TQX1I1O6NT55", "dateTime": 1520274403099}, {"current_trial": 173, "trialdata": {"rt": -1, "trial_type": "single-stim", "word": "flower", "stimulus": "<p id=\"stim\">FLOWER</p>", "conditions": [24, 1600, "v", 24000], "internal_node_id": "0.0-128.0", "trial": 4, "time_elapsed": 856391, "serialpos": 16, "key_press": -1, "wordID": 583, "type": "PRES_VIS", "trial_index": 173}, "uniqueid": "MTK3244:3QECW5O0KI84RK4446TQX1I1O6NT55", "dateTime": 1520274405605}, {"current_trial": 174, "trialdata": {"rt": -1, "trial_type": "single-stim", "word": "piston", "stimulus": "<p id=\"stim\">PISTON</p>", "conditions": [24, 1600, "v", 24000], "internal_node_id": "0.0-129.0", "trial": 4, "time_elapsed": 858947, "serialpos": 17, "key_press": -1, "wordID": 1075, "type": "PRES_VIS", "trial_index": 174}, "uniqueid": "MTK3244:3QECW5O0KI84RK4446TQX1I1O6NT55", "dateTime": 1520274408162}, {"current_trial": 175, "trialdata": {"rt": -1, "trial_type": "single-stim", "word": "forehead", "stimulus": "<p id=\"stim\">FOREHEAD</p>", "conditions": [24, 1600, "v", 24000], "internal_node_id": "0.0-130.0", "trial": 4, "time_elapsed": 861411, "serialpos": 18, "key_press": -1, "wordID": 591, "type": "PRES_VIS", "trial_index": 175}, "uniqueid": "MTK3244:3QECW5O0KI84RK4446TQX1I1O6NT55", "dateTime": 1520274410625}, {"current_trial": 176, "trialdata": {"rt": -1, "trial_type": "single-stim", "word": "sister", "stimulus": "<p id=\"stim\">SISTER</p>", "conditions": [24, 1600, "v", 24000], "internal_node_id": "0.0-131.0", "trial": 4, "time_elapsed": 864158, "serialpos": 19, "key_press": -1, "wordID": 1311, "type": "PRES_VIS", "trial_index": 176}, "uniqueid": "MTK3244:3QECW5O0KI84RK4446TQX1I1O6NT55", "dateTime": 1520274413372}, {"current_trial": 177, "trialdata": {"rt": -1, "trial_type": "single-stim", "word": "paper", "stimulus": "<p id=\"stim\">PAPER</p>", "conditions": [24, 1600, "v", 24000], "internal_node_id": "0.0-132.0", "trial": 4, "time_elapsed": 866858, "serialpos": 20, "key_press": -1, "wordID": 1010, "type": "PRES_VIS", "trial_index": 177}, "uniqueid": "MTK3244:3QECW5O0KI84RK4446TQX1I1O6NT55", "dateTime": 1520274416072}, {"current_trial": 178, "trialdata": {"rt": -1, "trial_type": "single-stim", "word": "dresser", "stimulus": "<p id=\"stim\">DRESSER</p>", "conditions": [24, 1600, "v", 24000], "internal_node_id": "0.0-133.0", "trial": 4, "time_elapsed": 869265, "serialpos": 21, "key_press": -1, "wordID": 495, "type": "PRES_VIS", "trial_index": 178}, "uniqueid": "MTK3244:3QECW5O0KI84RK4446TQX1I1O6NT55", "dateTime": 1520274418479}, {"current_trial": 179, "trialdata": {"rt": -1, "trial_type": "single-stim", "word": "marsh", "stimulus": "<p id=\"stim\">MARSH</p>", "conditions": [24, 1600, "v", 24000], "internal_node_id": "0.0-134.0", "trial": 4, "time_elapsed": 871730, "serialpos": 22, "key_press": -1, "wordID": 873, "type": "PRES_VIS", "trial_index": 179}, "uniqueid": "MTK3244:3QECW5O0KI84RK4446TQX1I1O6NT55", "dateTime": 1520274420944}, {"current_trial": 180, "trialdata": {"rt": -1, "trial_type": "single-stim", "word": "garden", "stimulus": "<p id=\"stim\">GARDEN</p>", "conditions": [24, 1600, "v", 24000], "internal_node_id": "0.0-135.0", "trial": 4, "time_elapsed": 874273, "serialpos": 23, "key_press": -1, "wordID": 622, "type": "PRES_VIS", "trial_index": 180}, "uniqueid": "MTK3244:3QECW5O0KI84RK4446TQX1I1O6NT55", "dateTime": 1520274423487}, {"current_trial": 181, "trialdata": {"rt": -1, "trial_type": "single-stim", "stimulus": "", "internal_node_id": "0.0-136.0-0.0", "time_elapsed": 876424, "key_press": -1, "type": "PRE_RECALL_DELAY", "trial_index": 181}, "uniqueid": "MTK3244:3QECW5O0KI84RK4446TQX1I1O6NT55", "dateTime": 1520274425638}, {"current_trial": 182, "trialdata": {"rt": -1000, "trial_type": "single-audio", "stimulus": "/static/audio/400Hz.wav", "internal_node_id": "0.0-137.0", "time_elapsed": 876935, "key_press": -1, "type": "PRE_RECALL_ALERT", "trial_index": 182}, "uniqueid": "MTK3244:3QECW5O0KI84RK4446TQX1I1O6NT55", "dateTime": 1520274426149}, {"current_trial": 183, "trialdata": {"rt": [3498, 7674, 14274, 17483, 24737, 27979, 35865, 46962, 49602], "recwords": ["garden", "trombone", "supper", "banquet", "camel", "donkey", "beef", "coffee", "milk"], "key_times": [1579, 1882, 2187, 2403, 2594, 2835, 3498, 5339, 5563, 5779, 6058, 6323, 6523, 6803, 6978, 7674, 12683, 12939, 13450, 13619, 13851, 14051, 14274, 15402, 15691, 15890, 16162, 16427, 16674, 16939, 17483, 23323, 23619, 23899, 24250, 24474, 24737, 25090, 25338, 25635, 25946, 26858, 27531, 27979, 34915, 35186, 35354, 35610, 35865, 45459, 45723, 46067, 46227, 46483, 46667, 46962, 48307, 48595, 48906, 49163, 49602], "trial_type": "free-recall", "conditions": [24, 1600, "v", 24000], "internal_node_id": "0.0-138.0-0.0", "key_presses": [71, 65, 82, 68, 69, 78, 13, 84, 82, 79, 77, 66, 79, 78, 69, 13, 83, 85, 80, 80, 69, 82, 32, 66, 65, 78, 81, 85, 69, 84, 13, 67, 65, 77, 69, 76, 32, 68, 79, 78, 75, 69, 89, 13, 66, 69, 69, 70, 13, 67, 79, 70, 70, 69, 69, 32, 77, 73, 76, 75, 13], "trial": 4, "time_elapsed": 936938, "type": "FREE_RECALL", "trial_index": 183}, "uniqueid": "MTK3244:3QECW5O0KI84RK4446TQX1I1O6NT55", "dateTime": 1520274486157}, {"current_trial": 184, "trialdata": {"rt": 4733, "trial_type": "text", "internal_node_id": "0.0-139.0", "time_elapsed": 943677, "key_press": 78, "type": "INSTRUCTIONS", "trial_index": 184}, "uniqueid": "MTK3244:3QECW5O0KI84RK4446TQX1I1O6NT55", "dateTime": 1520274492891}, {"current_trial": 185, "trialdata": {"rt": [5597, 9253, 11963, 15932, 18435, 20211], "trial_type": "math-distractor", "key_times": [2947, 3308, 4580, 5348, 5597, 9029, 9253, 11684, 11963, 15525, 15724, 15932, 17524, 18101, 18435, 20012, 20211], "responses": ["16", "7", "7", "11", "10", "3"], "num2": [2, 4, 1, 5, 8, 1, 6], "num3": [5, 2, 1, 4, 1, 1, 9], "conditions": [12, 800, "v", 24000], "internal_node_id": "0.0-140.0", "key_presses": [49, 53, 8, 54, 13, 55, 13, 55, 13, 49, 49, 13, 49, 48, 13, 51, 13], "trial": 5, "time_elapsed": 969680, "type": "DISTRACTOR", "trial_index": 185, "num1": [9, 1, 5, 1, 1, 1, 6]}, "uniqueid": "MTK3244:3QECW5O0KI84RK4446TQX1I1O6NT55", "dateTime": 1520274518894}, {"current_trial": 186, "trialdata": {"rt": -1, "trial_type": "single-stim", "stimulus": "<p id=\"stim\">10</p>", "internal_node_id": "0.0-141.0-0.0", "time_elapsed": 972679, "key_press": -1, "trial_index": 186}, "uniqueid": "MTK3244:3QECW5O0KI84RK4446TQX1I1O6NT55", "dateTime": 1520274521895}, {"current_trial": 187, "trialdata": {"rt": -1, "trial_type": "single-stim", "stimulus": "<p id=\"stim\">9</p>", "internal_node_id": "0.0-141.0-1.0", "time_elapsed": 973680, "key_press": -1, "trial_index": 187}, "uniqueid": "MTK3244:3QECW5O0KI84RK4446TQX1I1O6NT55", "dateTime": 1520274522896}, {"current_trial": 188, "trialdata": {"rt": -1, "trial_type": "single-stim", "stimulus": "<p id=\"stim\">8</p>", "internal_node_id": "0.0-141.0-2.0", "time_elapsed": 974682, "key_press": -1, "trial_index": 188}, "uniqueid": "MTK3244:3QECW5O0KI84RK4446TQX1I1O6NT55", "dateTime": 1520274523896}, {"current_trial": 189, "trialdata": {"rt": -1, "trial_type": "single-stim", "stimulus": "<p id=\"stim\">7</p>", "internal_node_id": "0.0-141.0-3.0", "time_elapsed": 975682, "key_press": -1, "trial_index": 189}, "uniqueid": "MTK3244:3QECW5O0KI84RK4446TQX1I1O6NT55", "dateTime": 1520274524897}, {"current_trial": 190, "trialdata": {"rt": -1, "trial_type": "single-stim", "stimulus": "<p id=\"stim\">6</p>", "internal_node_id": "0.0-141.0-4.0", "time_elapsed": 976683, "key_press": -1, "trial_index": 190}, "uniqueid": "MTK3244:3QECW5O0KI84RK4446TQX1I1O6NT55", "dateTime": 1520274525898}, {"current_trial": 191, "trialdata": {"rt": -1, "trial_type": "single-stim", "stimulus": "<p id=\"stim\">5</p>", "internal_node_id": "0.0-141.0-5.0", "time_elapsed": 977684, "key_press": -1, "trial_index": 191}, "uniqueid": "MTK3244:3QECW5O0KI84RK4446TQX1I1O6NT55", "dateTime": 1520274526899}, {"current_trial": 192, "trialdata": {"rt": -1, "trial_type": "single-stim", "stimulus": "<p id=\"stim\">4</p>", "internal_node_id": "0.0-141.0-6.0", "time_elapsed": 978685, "key_press": -1, "trial_index": 192}, "uniqueid": "MTK3244:3QECW5O0KI84RK4446TQX1I1O6NT55", "dateTime": 1520274527900}, {"current_trial": 193, "trialdata": {"rt": -1, "trial_type": "single-stim", "stimulus": "<p id=\"stim\">3</p>", "internal_node_id": "0.0-141.0-7.0", "time_elapsed": 979686, "key_press": -1, "trial_index": 193}, "uniqueid": "MTK3244:3QECW5O0KI84RK4446TQX1I1O6NT55", "dateTime": 1520274528901}, {"current_trial": 194, "trialdata": {"rt": -1, "trial_type": "single-stim", "stimulus": "<p id=\"stim\">2</p>", "internal_node_id": "0.0-141.0-8.0", "time_elapsed": 980687, "key_press": -1, "trial_index": 194}, "uniqueid": "MTK3244:3QECW5O0KI84RK4446TQX1I1O6NT55", "dateTime": 1520274529902}, {"current_trial": 195, "trialdata": {"rt": -1, "trial_type": "single-stim", "stimulus": "<p id=\"stim\">1</p>", "internal_node_id": "0.0-141.0-9.0", "time_elapsed": 981688, "key_press": -1, "trial_index": 195}, "uniqueid": "MTK3244:3QECW5O0KI84RK4446TQX1I1O6NT55", "dateTime": 1520274530903}, {"current_trial": 196, "trialdata": {"rt": -1, "trial_type": "single-stim", "stimulus": "<p id=\"stim\">+</p>", "internal_node_id": "0.0-142.0-0.0", "time_elapsed": 983189, "key_press": -1, "type": "FIXATION", "trial_index": 196}, "uniqueid": "MTK3244:3QECW5O0KI84RK4446TQX1I1O6NT55", "dateTime": 1520274532404}, {"current_trial": 197, "trialdata": {"rt": -1, "trial_type": "single-stim", "word": "freckle", "stimulus": "<p id=\"stim\">FRECKLE</p>", "conditions": [12, 800, "v", 24000], "internal_node_id": "0.0-143.0", "trial": 5, "time_elapsed": 983990, "serialpos": 0, "key_press": -1, "wordID": 601, "type": "PRES_VIS", "trial_index": 197}, "uniqueid": "MTK3244:3QECW5O0KI84RK4446TQX1I1O6NT55", "dateTime": 1520274533205}, {"current_trial": 198, "trialdata": {"rt": -1, "trial_type": "single-stim", "word": "dress", "stimulus": "<p id=\"stim\">DRESS</p>", "conditions": [12, 800, "v", 24000], "internal_node_id": "0.0-144.0", "trial": 5, "time_elapsed": 985907, "serialpos": 1, "key_press": -1, "wordID": 494, "type": "PRES_VIS", "trial_index": 198}, "uniqueid": "MTK3244:3QECW5O0KI84RK4446TQX1I1O6NT55", "dateTime": 1520274535122}, {"current_trial": 199, "trialdata": {"rt": -1, "trial_type": "single-stim", "word": "tutu", "stimulus": "<p id=\"stim\">TUTU</p>", "conditions": [12, 800, "v", 24000], "internal_node_id": "0.0-145.0", "trial": 5, "time_elapsed": 987826, "serialpos": 2, "key_press": -1, "wordID": 1523, "type": "PRES_VIS", "trial_index": 199}, "uniqueid": "MTK3244:3QECW5O0KI84RK4446TQX1I1O6NT55", "dateTime": 1520274537040}, {"current_trial": 200, "trialdata": {"rt": -1, "trial_type": "single-stim", "word": "hook", "stimulus": "<p id=\"stim\">HOOK</p>", "conditions": [12, 800, "v", 24000], "internal_node_id": "0.0-146.0", "trial": 5, "time_elapsed": 989446, "serialpos": 3, "key_press": -1, "wordID": 714, "type": "PRES_VIS", "trial_index": 200}, "uniqueid": "MTK3244:3QECW5O0KI84RK4446TQX1I1O6NT55", "dateTime": 1520274538661}, {"current_trial": 201, "trialdata": {"rt": -1, "trial_type": "single-stim", "word": "icing", "stimulus": "<p id=\"stim\">ICING</p>", "conditions": [12, 800, "v", 24000], "internal_node_id": "0.0-147.0", "trial": 5, "time_elapsed": 991414, "serialpos": 4, "key_press": -1, "wordID": 731, "type": "PRES_VIS", "trial_index": 201}, "uniqueid": "MTK3244:3QECW5O0KI84RK4446TQX1I1O6NT55", "dateTime": 1520274540629}, {"current_trial": 202, "trialdata": {"rt": -1, "trial_type": "single-stim", "word": "blender", "stimulus": "<p id=\"stim\">BLENDER</p>", "conditions": [12, 800, "v", 24000], "internal_node_id": "0.0-148.0", "trial": 5, "time_elapsed": 993252, "serialpos": 5, "key_press": -1, "wordID": 135, "type": "PRES_VIS", "trial_index": 202}, "uniqueid": "MTK3244:3QECW5O0KI84RK4446TQX1I1O6NT55", "dateTime": 1520274542466}, {"current_trial": 203, "trialdata": {"rt": -1, "trial_type": "single-stim", "word": "turtle", "stimulus": "<p id=\"stim\">TURTLE</p>", "conditions": [12, 800, "v", 24000], "internal_node_id": "0.0-149.0", "trial": 5, "time_elapsed": 995167, "serialpos": 6, "key_press": -1, "wordID": 1521, "type": "PRES_VIS", "trial_index": 203}, "uniqueid": "MTK3244:3QECW5O0KI84RK4446TQX1I1O6NT55", "dateTime": 1520274544382}, {"current_trial": 204, "trialdata": {"rt": -1, "trial_type": "single-stim", "word": "patrol", "stimulus": "<p id=\"stim\">PATROL</p>", "conditions": [12, 800, "v", 24000], "internal_node_id": "0.0-150.0", "trial": 5, "time_elapsed": 996943, "serialpos": 7, "key_press": -1, "wordID": 1026, "type": "PRES_VIS", "trial_index": 204}, "uniqueid": "MTK3244:3QECW5O0KI84RK4446TQX1I1O6NT55", "dateTime": 1520274546158}, {"current_trial": 205, "trialdata": {"rt": -1, "trial_type": "single-stim", "word": "sidewalk", "stimulus": "<p id=\"stim\">SIDEWALK</p>", "conditions": [12, 800, "v", 24000], "internal_node_id": "0.0-151.0", "trial": 5, "time_elapsed": 998549, "serialpos": 8, "key_press": -1, "wordID": 1302, "type": "PRES_VIS", "trial_index": 205}, "uniqueid": "MTK3244:3QECW5O0KI84RK4446TQX1I1O6NT55", "dateTime": 1520274547764}, {"current_trial": 206, "trialdata": {"rt": -1, "trial_type": "single-stim", "word": "pimple", "stimulus": "<p id=\"stim\">PIMPLE</p>", "conditions": [12, 800, "v", 24000], "internal_node_id": "0.0-152.0", "trial": 5, "time_elapsed": 1000226, "serialpos": 9, "key_press": -1, "wordID": 1070, "type": "PRES_VIS", "trial_index": 206}, "uniqueid": "MTK3244:3QECW5O0KI84RK4446TQX1I1O6NT55", "dateTime": 1520274549441}, {"current_trial": 207, "trialdata": {"rt": -1, "trial_type": "single-stim", "word": "loft", "stimulus": "<p id=\"stim\">LOFT</p>", "conditions": [12, 800, "v", 24000], "internal_node_id": "0.0-153.0", "trial": 5, "time_elapsed": 1002057, "serialpos": 10, "key_press": -1, "wordID": 839, "type": "PRES_VIS", "trial_index": 207}, "uniqueid": "MTK3244:3QECW5O0KI84RK4446TQX1I1O6NT55", "dateTime": 1520274551272}, {"current_trial": 208, "trialdata": {"rt": -1, "trial_type": "single-stim", "word": "female", "stimulus": "<p id=\"stim\">FEMALE</p>", "conditions": [12, 800, "v", 24000], "internal_node_id": "0.0-154.0", "trial": 5, "time_elapsed": 1003858, "serialpos": 11, "key_press": -1, "wordID": 558, "type": "PRES_VIS", "trial_index": 208}, "uniqueid": "MTK3244:3QECW5O0KI84RK4446TQX1I1O6NT55", "dateTime": 1520274553072}, {"current_trial": 209, "trialdata": {"rt": -1, "trial_type": "single-stim", "stimulus": "", "internal_node_id": "0.0-155.0-0.0", "time_elapsed": 1006275, "key_press": -1, "type": "PRE_RECALL_DELAY", "trial_index": 209}, "uniqueid": "MTK3244:3QECW5O0KI84RK4446TQX1I1O6NT55", "dateTime": 1520274555490}, {"current_trial": 210, "trialdata": {"rt": -1000, "trial_type": "single-audio", "stimulus": "/static/audio/400Hz.wav", "internal_node_id": "0.0-156.0", "time_elapsed": 1006777, "key_press": -1, "type": "PRE_RECALL_ALERT", "trial_index": 210}, "uniqueid": "MTK3244:3QECW5O0KI84RK4446TQX1I1O6NT55", "dateTime": 1520274555991}, {"current_trial": 211, "trialdata": {"rt": [7663, 12215, 19343, 22839, 25566], "recwords": ["loft", "female", "freckle", "dress", "tutu"], "key_times": [5560, 5839, 6111, 6367, 7663, 10607, 10895, 11143, 11343, 11527, 11783, 12215, 14751, 14975, 15191, 15463, 15752, 15991, 16247, 19343, 21447, 21695, 21903, 22175, 22399, 22839, 24416, 24703, 24927, 25134, 25566], "trial_type": "free-recall", "conditions": [12, 800, "v", 24000], "internal_node_id": "0.0-157.0-0.0", "key_presses": [76, 79, 70, 84, 13, 70, 69, 77, 65, 76, 69, 13, 70, 82, 69, 67, 75, 76, 69, 13, 68, 82, 69, 83, 83, 32, 84, 85, 84, 85, 13], "trial": 5, "time_elapsed": 1066779, "type": "FREE_RECALL", "trial_index": 211}, "uniqueid": "MTK3244:3QECW5O0KI84RK4446TQX1I1O6NT55", "dateTime": 1520274615996}, {"current_trial": 212, "trialdata": {"rt": 2339, "trial_type": "text", "internal_node_id": "0.0-158.0", "time_elapsed": 1071123, "key_press": 77, "type": "INSTRUCTIONS", "trial_index": 212}, "uniqueid": "MTK3244:3QECW5O0KI84RK4446TQX1I1O6NT55", "dateTime": 1520274620337}, {"current_trial": 213, "trialdata": {"rt": [6820, 11444], "trial_type": "math-distractor", "key_times": [5782, 6125, 6820, 10916, 11181, 11444], "responses": ["21", "24"], "num2": [3, 7, 2], "num3": [8, 8, 8], "conditions": [24, 800, "v", 12000], "internal_node_id": "0.0-159.0", "key_presses": [50, 49, 13, 50, 52, 13], "trial": 6, "time_elapsed": 1085126, "type": "DISTRACTOR", "trial_index": 213, "num1": [9, 9, 8]}, "uniqueid": "MTK3244:3QECW5O0KI84RK4446TQX1I1O6NT55", "dateTime": 1520274634340}, {"current_trial": 214, "trialdata": {"rt": -1, "trial_type": "single-stim", "stimulus": "<p id=\"stim\">10</p>", "internal_node_id": "0.0-160.0-0.0", "time_elapsed": 1088127, "key_press": -1, "trial_index": 214}, "uniqueid": "MTK3244:3QECW5O0KI84RK4446TQX1I1O6NT55", "dateTime": 1520274637341}, {"current_trial": 215, "trialdata": {"rt": -1, "trial_type": "single-stim", "stimulus": "<p id=\"stim\">9</p>", "internal_node_id": "0.0-160.0-1.0", "time_elapsed": 1089127, "key_press": -1, "trial_index": 215}, "uniqueid": "MTK3244:3QECW5O0KI84RK4446TQX1I1O6NT55", "dateTime": 1520274638341}, {"current_trial": 216, "trialdata": {"rt": -1, "trial_type": "single-stim", "stimulus": "<p id=\"stim\">8</p>", "internal_node_id": "0.0-160.0-2.0", "time_elapsed": 1090128, "key_press": -1, "trial_index": 216}, "uniqueid": "MTK3244:3QECW5O0KI84RK4446TQX1I1O6NT55", "dateTime": 1520274639342}, {"current_trial": 217, "trialdata": {"rt": -1, "trial_type": "single-stim", "stimulus": "<p id=\"stim\">7</p>", "internal_node_id": "0.0-160.0-3.0", "time_elapsed": 1091129, "key_press": -1, "trial_index": 217}, "uniqueid": "MTK3244:3QECW5O0KI84RK4446TQX1I1O6NT55", "dateTime": 1520274640343}, {"current_trial": 218, "trialdata": {"rt": -1, "trial_type": "single-stim", "stimulus": "<p id=\"stim\">6</p>", "internal_node_id": "0.0-160.0-4.0", "time_elapsed": 1092130, "key_press": -1, "trial_index": 218}, "uniqueid": "MTK3244:3QECW5O0KI84RK4446TQX1I1O6NT55", "dateTime": 1520274641344}, {"current_trial": 219, "trialdata": {"rt": -1, "trial_type": "single-stim", "stimulus": "<p id=\"stim\">5</p>", "internal_node_id": "0.0-160.0-5.0", "time_elapsed": 1093131, "key_press": -1, "trial_index": 219}, "uniqueid": "MTK3244:3QECW5O0KI84RK4446TQX1I1O6NT55", "dateTime": 1520274642345}, {"current_trial": 220, "trialdata": {"rt": -1, "trial_type": "single-stim", "stimulus": "<p id=\"stim\">4</p>", "internal_node_id": "0.0-160.0-6.0", "time_elapsed": 1094132, "key_press": -1, "trial_index": 220}, "uniqueid": "MTK3244:3QECW5O0KI84RK4446TQX1I1O6NT55", "dateTime": 1520274643346}, {"current_trial": 221, "trialdata": {"rt": -1, "trial_type": "single-stim", "stimulus": "<p id=\"stim\">3</p>", "internal_node_id": "0.0-160.0-7.0", "time_elapsed": 1095133, "key_press": -1, "trial_index": 221}, "uniqueid": "MTK3244:3QECW5O0KI84RK4446TQX1I1O6NT55", "dateTime": 1520274644347}, {"current_trial": 222, "trialdata": {"rt": -1, "trial_type": "single-stim", "stimulus": "<p id=\"stim\">2</p>", "internal_node_id": "0.0-160.0-8.0", "time_elapsed": 1096134, "key_press": -1, "trial_index": 222}, "uniqueid": "MTK3244:3QECW5O0KI84RK4446TQX1I1O6NT55", "dateTime": 1520274645348}, {"current_trial": 223, "trialdata": {"rt": -1, "trial_type": "single-stim", "stimulus": "<p id=\"stim\">1</p>", "internal_node_id": "0.0-160.0-9.0", "time_elapsed": 1097135, "key_press": -1, "trial_index": 223}, "uniqueid": "MTK3244:3QECW5O0KI84RK4446TQX1I1O6NT55", "dateTime": 1520274646349}, {"current_trial": 224, "trialdata": {"rt": -1, "trial_type": "single-stim", "stimulus": "<p id=\"stim\">+</p>", "internal_node_id": "0.0-161.0-0.0", "time_elapsed": 1098635, "key_press": -1, "type": "FIXATION", "trial_index": 224}, "uniqueid": "MTK3244:3QECW5O0KI84RK4446TQX1I1O6NT55", "dateTime": 1520274647850}, {"current_trial": 225, "trialdata": {"rt": -1, "trial_type": "single-stim", "word": "sunrise", "stimulus": "<p id=\"stim\">SUNRISE</p>", "conditions": [24, 800, "v", 12000], "internal_node_id": "0.0-162.0", "trial": 6, "time_elapsed": 1099436, "serialpos": 0, "key_press": -1, "wordID": 1406, "type": "PRES_VIS", "trial_index": 225}, "uniqueid": "MTK3244:3QECW5O0KI84RK4446TQX1I1O6NT55", "dateTime": 1520274648650}, {"current_trial": 226, "trialdata": {"rt": -1, "trial_type": "single-stim", "word": "river", "stimulus": "<p id=\"stim\">RIVER</p>", "conditions": [24, 800, "v", 12000], "internal_node_id": "0.0-163.0", "trial": 6, "time_elapsed": 1101285, "serialpos": 1, "key_press": -1, "wordID": 1193, "type": "PRES_VIS", "trial_index": 226}, "uniqueid": "MTK3244:3QECW5O0KI84RK4446TQX1I1O6NT55", "dateTime": 1520274650501}, {"current_trial": 227, "trialdata": {"rt": -1, "trial_type": "single-stim", "word": "world", "stimulus": "<p id=\"stim\">WORLD</p>", "conditions": [24, 800, "v", 12000], "internal_node_id": "0.0-164.0", "trial": 6, "time_elapsed": 1103096, "serialpos": 2, "key_press": -1, "wordID": 1621, "type": "PRES_VIS", "trial_index": 227}, "uniqueid": "MTK3244:3QECW5O0KI84RK4446TQX1I1O6NT55", "dateTime": 1520274652310}, {"current_trial": 228, "trialdata": {"rt": -1, "trial_type": "single-stim", "word": "country", "stimulus": "<p id=\"stim\">COUNTRY</p>", "conditions": [24, 800, "v", 12000], "internal_node_id": "0.0-165.0", "trial": 6, "time_elapsed": 1104892, "serialpos": 3, "key_press": -1, "wordID": 387, "type": "PRES_VIS", "trial_index": 228}, "uniqueid": "MTK3244:3QECW5O0KI84RK4446TQX1I1O6NT55", "dateTime": 1520274654107}, {"current_trial": 229, "trialdata": {"rt": -1, "trial_type": "single-stim", "word": "suspect", "stimulus": "<p id=\"stim\">SUSPECT</p>", "conditions": [24, 800, "v", 12000], "internal_node_id": "0.0-166.0", "trial": 6, "time_elapsed": 1106733, "serialpos": 4, "key_press": -1, "wordID": 1414, "type": "PRES_VIS", "trial_index": 229}, "uniqueid": "MTK3244:3QECW5O0KI84RK4446TQX1I1O6NT55", "dateTime": 1520274655949}, {"current_trial": 230, "trialdata": {"rt": -1, "trial_type": "single-stim", "word": "rattle", "stimulus": "<p id=\"stim\">RATTLE</p>", "conditions": [24, 800, "v", 12000], "internal_node_id": "0.0-167.0", "trial": 6, "time_elapsed": 1108423, "serialpos": 5, "key_press": -1, "wordID": 1169, "type": "PRES_VIS", "trial_index": 230}, "uniqueid": "MTK3244:3QECW5O0KI84RK4446TQX1I1O6NT55", "dateTime": 1520274657639}, {"current_trial": 231, "trialdata": {"rt": -1, "trial_type": "single-stim", "word": "lagoon", "stimulus": "<p id=\"stim\">LAGOON</p>", "conditions": [24, 800, "v", 12000], "internal_node_id": "0.0-168.0", "trial": 6, "time_elapsed": 1110359, "serialpos": 6, "key_press": -1, "wordID": 794, "type": "PRES_VIS", "trial_index": 231}, "uniqueid": "MTK3244:3QECW5O0KI84RK4446TQX1I1O6NT55", "dateTime": 1520274659574}, {"current_trial": 232, "trialdata": {"rt": -1, "trial_type": "single-stim", "word": "canyon", "stimulus": "<p id=\"stim\">CANYON</p>", "conditions": [24, 800, "v", 12000], "internal_node_id": "0.0-169.0", "trial": 6, "time_elapsed": 1112244, "serialpos": 7, "key_press": -1, "wordID": 234, "type": "PRES_VIS", "trial_index": 232}, "uniqueid": "MTK3244:3QECW5O0KI84RK4446TQX1I1O6NT55", "dateTime": 1520274661458}, {"current_trial": 233, "trialdata": {"rt": -1, "trial_type": "single-stim", "word": "sunset", "stimulus": "<p id=\"stim\">SUNSET</p>", "conditions": [24, 800, "v", 12000], "internal_node_id": "0.0-170.0", "trial": 6, "time_elapsed": 1114087, "serialpos": 8, "key_press": -1, "wordID": 1407, "type": "PRES_VIS", "trial_index": 233}, "uniqueid": "MTK3244:3QECW5O0KI84RK4446TQX1I1O6NT55", "dateTime": 1520274663301}, {"current_trial": 234, "trialdata": {"rt": -1, "trial_type": "single-stim", "word": "racket", "stimulus": "<p id=\"stim\">RACKET</p>", "conditions": [24, 800, "v", 12000], "internal_node_id": "0.0-171.0", "trial": 6, "time_elapsed": 1115985, "serialpos": 9, "key_press": -1, "wordID": 1154, "type": "PRES_VIS", "trial_index": 234}, "uniqueid": "MTK3244:3QECW5O0KI84RK4446TQX1I1O6NT55", "dateTime": 1520274665199}, {"current_trial": 235, "trialdata": {"rt": -1, "trial_type": "single-stim", "word": "puppy", "stimulus": "<p id=\"stim\">PUPPY</p>", "conditions": [24, 800, "v", 12000], "internal_node_id": "0.0-172.0", "trial": 6, "time_elapsed": 1117727, "serialpos": 10, "key_press": -1, "wordID": 1143, "type": "PRES_VIS", "trial_index": 235}, "uniqueid": "MTK3244:3QECW5O0KI84RK4446TQX1I1O6NT55", "dateTime": 1520274666942}, {"current_trial": 236, "trialdata": {"rt": -1, "trial_type": "single-stim", "word": "ketchup", "stimulus": "<p id=\"stim\">KETCHUP</p>", "conditions": [24, 800, "v", 12000], "internal_node_id": "0.0-173.0", "trial": 6, "time_elapsed": 1119571, "serialpos": 11, "key_press": -1, "wordID": 770, "type": "PRES_VIS", "trial_index": 236}, "uniqueid": "MTK3244:3QECW5O0KI84RK4446TQX1I1O6NT55", "dateTime": 1520274668786}, {"current_trial": 237, "trialdata": {"rt": -1, "trial_type": "single-stim", "word": "woman", "stimulus": "<p id=\"stim\">WOMAN</p>", "conditions": [24, 800, "v", 12000], "internal_node_id": "0.0-174.0", "trial": 6, "time_elapsed": 1121501, "serialpos": 12, "key_press": -1, "wordID": 1619, "type": "PRES_VIS", "trial_index": 237}, "uniqueid": "MTK3244:3QECW5O0KI84RK4446TQX1I1O6NT55", "dateTime": 1520274670716}, {"current_trial": 238, "trialdata": {"rt": -1, "trial_type": "single-stim", "word": "scalpel", "stimulus": "<p id=\"stim\">SCALPEL</p>", "conditions": [24, 800, "v", 12000], "internal_node_id": "0.0-175.0", "trial": 6, "time_elapsed": 1123330, "serialpos": 13, "key_press": -1, "wordID": 1242, "type": "PRES_VIS", "trial_index": 238}, "uniqueid": "MTK3244:3QECW5O0KI84RK4446TQX1I1O6NT55", "dateTime": 1520274672545}, {"current_trial": 239, "trialdata": {"rt": -1, "trial_type": "single-stim", "word": "slug", "stimulus": "<p id=\"stim\">SLUG</p>", "conditions": [24, 800, "v", 12000], "internal_node_id": "0.0-176.0", "trial": 6, "time_elapsed": 1125180, "serialpos": 14, "key_press": -1, "wordID": 1328, "type": "PRES_VIS", "trial_index": 239}, "uniqueid": "MTK3244:3QECW5O0KI84RK4446TQX1I1O6NT55", "dateTime": 1520274674394}, {"current_trial": 240, "trialdata": {"rt": -1, "trial_type": "single-stim", "word": "creature", "stimulus": "<p id=\"stim\">CREATURE</p>", "conditions": [24, 800, "v", 12000], "internal_node_id": "0.0-177.0", "trial": 6, "time_elapsed": 1126851, "serialpos": 15, "key_press": -1, "wordID": 402, "type": "PRES_VIS", "trial_index": 240}, "uniqueid": "MTK3244:3QECW5O0KI84RK4446TQX1I1O6NT55", "dateTime": 1520274676065}, {"current_trial": 241, "trialdata": {"rt": -1, "trial_type": "single-stim", "word": "leg", "stimulus": "<p id=\"stim\">LEG</p>", "conditions": [24, 800, "v", 12000], "internal_node_id": "0.0-178.0", "trial": 6, "time_elapsed": 1128471, "serialpos": 16, "key_press": -1, "wordID": 808, "type": "PRES_VIS", "trial_index": 241}, "uniqueid": "MTK3244:3QECW5O0KI84RK4446TQX1I1O6NT55", "dateTime": 1520274677687}, {"current_trial": 242, "trialdata": {"rt": -1, "trial_type": "single-stim", "word": "suitcase", "stimulus": "<p id=\"stim\">SUITCASE</p>", "conditions": [24, 800, "v", 12000], "internal_node_id": "0.0-179.0", "trial": 6, "time_elapsed": 1130245, "serialpos": 17, "key_press": -1, "wordID": 1402, "type": "PRES_VIS", "trial_index": 242}, "uniqueid": "MTK3244:3QECW5O0KI84RK4446TQX1I1O6NT55", "dateTime": 1520274679460}, {"current_trial": 243, "trialdata": {"rt": -1, "trial_type": "single-stim", "word": "perfume", "stimulus": "<p id=\"stim\">PERFUME</p>", "conditions": [24, 800, "v", 12000], "internal_node_id": "0.0-180.0", "trial": 6, "time_elapsed": 1131988, "serialpos": 18, "key_press": -1, "wordID": 1048, "type": "PRES_VIS", "trial_index": 243}, "uniqueid": "MTK3244:3QECW5O0KI84RK4446TQX1I1O6NT55", "dateTime": 1520274681202}, {"current_trial": 244, "trialdata": {"rt": -1, "trial_type": "single-stim", "word": "fragrance", "stimulus": "<p id=\"stim\">FRAGRANCE</p>", "conditions": [24, 800, "v", 12000], "internal_node_id": "0.0-181.0", "trial": 6, "time_elapsed": 1133674, "serialpos": 19, "key_press": -1, "wordID": 598, "type": "PRES_VIS", "trial_index": 244}, "uniqueid": "MTK3244:3QECW5O0KI84RK4446TQX1I1O6NT55", "dateTime": 1520274682889}, {"current_trial": 245, "trialdata": {"rt": -1, "trial_type": "single-stim", "word": "airport", "stimulus": "<p id=\"stim\">AIRPORT</p>", "conditions": [24, 800, "v", 12000], "internal_node_id": "0.0-182.0", "trial": 6, "time_elapsed": 1135513, "serialpos": 20, "key_press": -1, "wordID": 12, "type": "PRES_VIS", "trial_index": 245}, "uniqueid": "MTK3244:3QECW5O0KI84RK4446TQX1I1O6NT55", "dateTime": 1520274684728}, {"current_trial": 246, "trialdata": {"rt": -1, "trial_type": "single-stim", "word": "piano", "stimulus": "<p id=\"stim\">PIANO</p>", "conditions": [24, 800, "v", 12000], "internal_node_id": "0.0-183.0", "trial": 6, "time_elapsed": 1137153, "serialpos": 21, "key_press": -1, "wordID": 1056, "type": "PRES_VIS", "trial_index": 246}, "uniqueid": "MTK3244:3QECW5O0KI84RK4446TQX1I1O6NT55", "dateTime": 1520274686367}, {"current_trial": 247, "trialdata": {"rt": -1, "trial_type": "single-stim", "word": "handbag", "stimulus": "<p id=\"stim\">HANDBAG</p>", "conditions": [24, 800, "v", 12000], "internal_node_id": "0.0-184.0", "trial": 6, "time_elapsed": 1139127, "serialpos": 22, "key_press": -1, "wordID": 683, "type": "PRES_VIS", "trial_index": 247}, "uniqueid": "MTK3244:3QECW5O0KI84RK4446TQX1I1O6NT55", "dateTime": 1520274688341}, {"current_trial": 248, "trialdata": {"rt": -1, "trial_type": "single-stim", "word": "luggage", "stimulus": "<p id=\"stim\">LUGGAGE</p>", "conditions": [24, 800, "v", 12000], "internal_node_id": "0.0-185.0", "trial": 6, "time_elapsed": 1140822, "serialpos": 23, "key_press": -1, "wordID": 846, "type": "PRES_VIS", "trial_index": 248}, "uniqueid": "MTK3244:3QECW5O0KI84RK4446TQX1I1O6NT55", "dateTime": 1520274690036}, {"current_trial": 249, "trialdata": {"rt": -1, "trial_type": "single-stim", "stimulus": "", "internal_node_id": "0.0-186.0-0.0", "time_elapsed": 1142973, "key_press": -1, "type": "PRE_RECALL_DELAY", "trial_index": 249}, "uniqueid": "MTK3244:3QECW5O0KI84RK4446TQX1I1O6NT55", "dateTime": 1520274692188}, {"current_trial": 250, "trialdata": {"rt": -1000, "trial_type": "single-audio", "stimulus": "/static/audio/400Hz.wav", "internal_node_id": "0.0-187.0", "time_elapsed": 1143476, "key_press": -1, "type": "PRE_RECALL_ALERT", "trial_index": 250}, "uniqueid": "MTK3244:3QECW5O0KI84RK4446TQX1I1O6NT55", "dateTime": 1520274692690}, {"current_trial": 251, "trialdata": {"rt": [7033, 13377, 20995, 26882, 36498, 39010, 47745, 58474], "recwords": ["luggage", "sunrise", "perfume", "fragrance", "canyon", "sunset", "river", "scalpel"], "key_times": [4859, 5243, 5539, 5723, 6091, 6475, 6739, 7033, 11458, 11859, 12179, 12387, 12618, 12827, 13075, 13377, 19172, 19419, 19611, 19843, 20043, 20339, 20515, 20995, 22090, 22299, 22595, 22867, 24236, 25115, 25563, 25803, 26402, 26882, 33515, 33794, 34050, 34667, 35058, 35387, 36498, 37394, 37731, 38026, 38251, 38531, 38787, 39010, 46619, 46889, 47089, 47321, 47530, 47745, 55603, 55851, 56107, 56427, 56788, 57051, 57283, 58474], "trial_type": "free-recall", "conditions": [24, 800, "v", 12000], "internal_node_id": "0.0-188.0-0.0", "key_presses": [76, 85, 71, 71, 65, 71, 69, 13, 83, 85, 78, 82, 73, 83, 69, 13, 80, 69, 82, 70, 85, 77, 69, 32, 70, 82, 65, 71, 82, 65, 78, 67, 69, 13, 67, 65, 78, 89, 79, 78, 13, 83, 85, 78, 83, 69, 84, 13, 82, 73, 86, 69, 82, 13, 83, 67, 65, 76, 80, 69, 76, 13], "trial": 6, "time_elapsed": 1203479, "type": "FREE_RECALL", "trial_index": 251}, "uniqueid": "MTK3244:3QECW5O0KI84RK4446TQX1I1O6NT55", "dateTime": 1520274752700}, {"current_trial": 252, "trialdata": {"rt": 13124, "trial_type": "text", "internal_node_id": "0.0-189.0", "time_elapsed": 1218611, "key_press": 77, "type": "INSTRUCTIONS", "trial_index": 252}, "uniqueid": "MTK3244:3QECW5O0KI84RK4446TQX1I1O6NT55", "dateTime": 1520274767826}, {"current_trial": 253, "trialdata": {"rt": [4788, 7868, 11724], "trial_type": "math-distractor", "key_times": [3052, 3772, 4788, 7172, 7500, 7868, 11254, 11445, 11724], "responses": ["14", "10", "11"], "num2": [8, 6, 3, 1], "num3": [3, 1, 6, 3], "conditions": [12, 1600, "v", 12000], "internal_node_id": "0.0-190.0", "key_presses": [49, 52, 13, 49, 48, 13, 49, 49, 13], "trial": 7, "time_elapsed": 1232613, "type": "DISTRACTOR", "trial_index": 253, "num1": [3, 3, 2, 2]}, "uniqueid": "MTK3244:3QECW5O0KI84RK4446TQX1I1O6NT55", "dateTime": 1520274781827}, {"current_trial": 254, "trialdata": {"rt": -1, "trial_type": "single-stim", "stimulus": "<p id=\"stim\">10</p>", "internal_node_id": "0.0-191.0-0.0", "time_elapsed": 1235615, "key_press": -1, "trial_index": 254}, "uniqueid": "MTK3244:3QECW5O0KI84RK4446TQX1I1O6NT55", "dateTime": 1520274784830}, {"current_trial": 255, "trialdata": {"rt": -1, "trial_type": "single-stim", "stimulus": "<p id=\"stim\">9</p>", "internal_node_id": "0.0-191.0-1.0", "time_elapsed": 1236616, "key_press": -1, "trial_index": 255}, "uniqueid": "MTK3244:3QECW5O0KI84RK4446TQX1I1O6NT55", "dateTime": 1520274785830}, {"current_trial": 256, "trialdata": {"rt": -1, "trial_type": "single-stim", "stimulus": "<p id=\"stim\">8</p>", "internal_node_id": "0.0-191.0-2.0", "time_elapsed": 1237617, "key_press": -1, "trial_index": 256}, "uniqueid": "MTK3244:3QECW5O0KI84RK4446TQX1I1O6NT55", "dateTime": 1520274786832}, {"current_trial": 257, "trialdata": {"rt": -1, "trial_type": "single-stim", "stimulus": "<p id=\"stim\">7</p>", "internal_node_id": "0.0-191.0-3.0", "time_elapsed": 1238617, "key_press": -1, "trial_index": 257}, "uniqueid": "MTK3244:3QECW5O0KI84RK4446TQX1I1O6NT55", "dateTime": 1520274787833}, {"current_trial": 258, "trialdata": {"rt": -1, "trial_type": "single-stim", "stimulus": "<p id=\"stim\">6</p>", "internal_node_id": "0.0-191.0-4.0", "time_elapsed": 1239618, "key_press": -1, "trial_index": 258}, "uniqueid": "MTK3244:3QECW5O0KI84RK4446TQX1I1O6NT55", "dateTime": 1520274788834}, {"current_trial": 259, "trialdata": {"rt": -1, "trial_type": "single-stim", "stimulus": "<p id=\"stim\">5</p>", "internal_node_id": "0.0-191.0-5.0", "time_elapsed": 1240620, "key_press": -1, "trial_index": 259}, "uniqueid": "MTK3244:3QECW5O0KI84RK4446TQX1I1O6NT55", "dateTime": 1520274789835}, {"curr