{"assignmentId": "3NVC2EB65R6XURGU0TSWQLCWPATY3K", "workerId": "MTK3761", "questiondata": {"origin": "United States", "strat-rehearsal": "90", "marital": "Married/Domestic Partnership", "education": "Bachelor's degree", "ethnicity": "Not Hispanic", "color_depth": 24, "distracted": "No", "wrote-notes": "Yes", "strat-other": "", "screen_width": 1366, "avail_screen_width": 1366, "avail_screen_height": 728, "strat-image": "89", "language": "ENGLISH", "gender": "Female", "age": "49", "gender_other": "", "race": ["White"], "strat-categorize": "91", "pixel_depth": 24, "strat-spatial": "92", "strat-story": "87", "race_other": "", "screen_height": 768}, "bonus": 0, "hitId": "3VIVIU06FKJA3TB5CR66BCVUEVEMIE", "counterbalance": 992, "useragent": "Mozilla/5.0 (Windows NT 6.1) AppleWebKit/537.36 (KHTML, like Gecko) Chrome/64.0.3282.186 Safari/537.36", "eventdata": [{"eventtype": "initialized", "interval": 0, "value": null, "timestamp": 1521227691808}, {"eventtype": "window_resize", "interval": 0, "value": [1366, 722], "timestamp": 1521227691808}, {"eventtype": "focus", "interval": 20614, "value": "off", "timestamp": 1521227712422}, {"eventtype": "focus", "interval": 11881, "value": "on", "timestamp": 1521227724303}, {"eventtype": "focus", "interval": 1366003, "value": "off", "timestamp": 1521229090306}, {"eventtype": "focus", "interval": 5385, "value": "on", "timestamp": 1521229095691}, {"eventtype": "focus", "interval": 659204, "value": "off", "timestamp": 1521229754895}, {"eventtype": "focus", "interval": 4353, "value": "on", "timestamp": 1521229759248}, {"eventtype": "focus", "interval": 960425, "value": "off", "timestamp": 1521230719673}, {"eventtype": "focus", "interval": 22104, "value": "on", "timestamp": 1521230741777}, {"eventtype": "focus", "interval": 77819, "value": "off", "timestamp": 1521230819596}, {"eventtype": "focus", "interval": 8922, "value": "on", "timestamp": 1521230828518}], "data": [{"current_trial": 0, "trialdata": {"rt": 2863, "trial_type": "text", "internal_node_id": "0.0-0.0", "time_elapsed": 2863, "key_press": 13, "type": "INSTRUCTIONS", "trial_index": 0}, "uniqueid": "MTK3761:3NVC2EB65R6XURGU0TSWQLCWPATY3K", "dateTime": 1521227696703}, {"current_trial": 1, "trialdata": {"rt": 1159, "trial_type": "text", "internal_node_id": "0.0-1.0", "time_elapsed": 4032, "key_press": 13, "type": "INSTRUCTIONS", "trial_index": 1}, "uniqueid": "MTK3761:3NVC2EB65R6XURGU0TSWQLCWPATY3K", "dateTime": 1521227697862}, {"current_trial": 2, "trialdata": {"rt": [38129], "trial_type": "audio-test", "responses": ["ocean"], "internal_node_id": "0.0-2.0", "time_elapsed": 42196, "type": "AUDIO_TEST", "trial_index": 2}, "uniqueid": "MTK3761:3NVC2EB65R6XURGU0TSWQLCWPATY3K", "dateTime": 1521227736026}, {"current_trial": 3, "trialdata": {"rt": [3659], "trial_type": "audio-test", "responses": ["crystal"], "internal_node_id": "0.0-3.0", "time_elapsed": 45859, "type": "AUDIO_TEST", "trial_index": 3}, "uniqueid": "MTK3761:3NVC2EB65R6XURGU0TSWQLCWPATY3K", "dateTime": 1521227739689}, {"current_trial": 4, "trialdata": {"rt": [2513], "trial_type": "audio-test", "responses": ["spice"], "internal_node_id": "0.0-4.0", "time_elapsed": 48376, "type": "AUDIO_TEST", "trial_index": 4}, "uniqueid": "MTK3761:3NVC2EB65R6XURGU0TSWQLCWPATY3K", "dateTime": 1521227742206}, {"current_trial": 5, "trialdata": {"rt": 18073, "trial_type": "survey-text", "responses": "{\"Q0\":\"19:00\",\"Q1\":\"08:00\",\"Q2\":\"4\"}", "internal_node_id": "0.0-5.0", "time_elapsed": 67200, "type": "SLEEP_SURVEY", "trial_index": 5}, "uniqueid": "MTK3761:3NVC2EB65R6XURGU0TSWQLCWPATY3K", "dateTime": 1521227761030}, {"current_trial": 6, "trialdata": {"rt": 5227, "trial_type": "text", "internal_node_id": "0.0-6.0", "time_elapsed": 73429, "key_press": 13, "type": "INSTRUCTIONS", "trial_index": 6}, "uniqueid": "MTK3761:3NVC2EB65R6XURGU0TSWQLCWPATY3K", "dateTime": 1521227767259}, {"current_trial": 7, "trialdata": {"rt": 3338, "trial_type": "text", "internal_node_id": "0.0-7.0", "time_elapsed": 77267, "key_press": 13, "type": "INSTRUCTIONS", "trial_index": 7}, "uniqueid": "MTK3761:3NVC2EB65R6XURGU0TSWQLCWPATY3K", "dateTime": 1521227771097}, {"current_trial": 8, "trialdata": {"rt": 73688, "trial_type": "text", "internal_node_id": "0.0-8.0", "time_elapsed": 151457, "key_press": 13, "type": "INSTRUCTIONS", "trial_index": 8}, "uniqueid": "MTK3761:3NVC2EB65R6XURGU0TSWQLCWPATY3K", "dateTime": 1521227845288}, {"current_trial": 9, "trialdata": {"rt": [10384], "trial_type": "math-distractor", "key_times": [9923, 10102, 10384], "responses": ["22"], "num2": [8, 4], "num3": [5, 6], "conditions": [18, 1200, "v", 18000], "internal_node_id": "0.0-9.0", "key_presses": [98, 98, 13], "trial": 0, "time_elapsed": 170462, "type": "DISTRACTOR", "trial_index": 9, "num1": [9, 9]}, "uniqueid": "MTK3761:3NVC2EB65R6XURGU0TSWQLCWPATY3K", "dateTime": 1521227864293}, {"current_trial": 10, "trialdata": {"rt": -1, "trial_type": "single-stim", "stimulus": "<p id=\"stim\">10</p>", "internal_node_id": "0.0-10.0-0.0", "time_elapsed": 173463, "key_press": -1, "trial_index": 10}, "uniqueid": "MTK3761:3NVC2EB65R6XURGU0TSWQLCWPATY3K", "dateTime": 1521227867293}, {"current_trial": 11, "trialdata": {"rt": -1, "trial_type": "single-stim", "stimulus": "<p id=\"stim\">9</p>", "internal_node_id": "0.0-10.0-1.0", "time_elapsed": 174464, "key_press": -1, "trial_index": 11}, "uniqueid": "MTK3761:3NVC2EB65R6XURGU0TSWQLCWPATY3K", "dateTime": 1521227868294}, {"current_trial": 12, "trialdata": {"rt": -1, "trial_type": "single-stim", "stimulus": "<p id=\"stim\">8</p>", "internal_node_id": "0.0-10.0-2.0", "time_elapsed": 175464, "key_press": -1, "trial_index": 12}, "uniqueid": "MTK3761:3NVC2EB65R6XURGU0TSWQLCWPATY3K", "dateTime": 1521227869294}, {"current_trial": 13, "trialdata": {"rt": -1, "trial_type": "single-stim", "stimulus": "<p id=\"stim\">7</p>", "internal_node_id": "0.0-10.0-3.0", "time_elapsed": 176464, "key_press": -1, "trial_index": 13}, "uniqueid": "MTK3761:3NVC2EB65R6XURGU0TSWQLCWPATY3K", "dateTime": 1521227870294}, {"current_trial": 14, "trialdata": {"rt": -1, "trial_type": "single-stim", "stimulus": "<p id=\"stim\">6</p>", "internal_node_id": "0.0-10.0-4.0", "time_elapsed": 177464, "key_press": -1, "trial_index": 14}, "uniqueid": "MTK3761:3NVC2EB65R6XURGU0TSWQLCWPATY3K", "dateTime": 1521227871294}, {"current_trial": 15, "trialdata": {"rt": -1, "trial_type": "single-stim", "stimulus": "<p id=\"stim\">5</p>", "internal_node_id": "0.0-10.0-5.0", "time_elapsed": 178465, "key_press": -1, "trial_index": 15}, "uniqueid": "MTK3761:3NVC2EB65R6XURGU0TSWQLCWPATY3K", "dateTime": 1521227872295}, {"current_trial": 16, "trialdata": {"rt": -1, "trial_type": "single-stim", "stimulus": "<p id=\"stim\">4</p>", "internal_node_id": "0.0-10.0-6.0", "time_elapsed": 179466, "key_press": -1, "trial_index": 16}, "uniqueid": "MTK3761:3NVC2EB65R6XURGU0TSWQLCWPATY3K", "dateTime": 1521227873296}, {"current_trial": 17, "trialdata": {"rt": -1, "trial_type": "single-stim", "stimulus": "<p id=\"stim\">3</p>", "internal_node_id": "0.0-10.0-7.0", "time_elapsed": 180466, "key_press": -1, "trial_index": 17}, "uniqueid": "MTK3761:3NVC2EB65R6XURGU0TSWQLCWPATY3K", "dateTime": 1521227874296}, {"current_trial": 18, "trialdata": {"rt": -1, "trial_type": "single-stim", "stimulus": "<p id=\"stim\">2</p>", "internal_node_id": "0.0-10.0-8.0", "time_elapsed": 181466, "key_press": -1, "trial_index": 18}, "uniqueid": "MTK3761:3NVC2EB65R6XURGU0TSWQLCWPATY3K", "dateTime": 1521227875296}, {"current_trial": 19, "trialdata": {"rt": -1, "trial_type": "single-stim", "stimulus": "<p id=\"stim\">1</p>", "internal_node_id": "0.0-10.0-9.0", "time_elapsed": 182466, "key_press": -1, "trial_index": 19}, "uniqueid": "MTK3761:3NVC2EB65R6XURGU0TSWQLCWPATY3K", "dateTime": 1521227876296}, {"current_trial": 20, "trialdata": {"rt": -1, "trial_type": "single-stim", "stimulus": "<p id=\"stim\">+</p>", "internal_node_id": "0.0-11.0-0.0", "time_elapsed": 183967, "key_press": -1, "type": "FIXATION", "trial_index": 20}, "uniqueid": "MTK3761:3NVC2EB65R6XURGU0TSWQLCWPATY3K", "dateTime": 1521227877797}, {"current_trial": 21, "trialdata": {"rt": -1, "trial_type": "single-stim", "word": "world", "stimulus": "<p id=\"stim\">WORLD</p>", "conditions": [18, 1200, "v", 18000], "internal_node_id": "0.0-12.0", "trial": 0, "time_elapsed": 185166, "serialpos": 0, "key_press": -1, "wordID": 1621, "type": "PRES_VIS", "trial_index": 21}, "uniqueid": "MTK3761:3NVC2EB65R6XURGU0TSWQLCWPATY3K", "dateTime": 1521227878996}, {"current_trial": 22, "trialdata": {"rt": -1, "trial_type": "single-stim", "word": "brother", "stimulus": "<p id=\"stim\">BROTHER</p>", "conditions": [18, 1200, "v", 18000], "internal_node_id": "0.0-13.0", "trial": 0, "time_elapsed": 187506, "serialpos": 1, "key_press": -1, "wordID": 178, "type": "PRES_VIS", "trial_index": 22}, "uniqueid": "MTK3761:3NVC2EB65R6XURGU0TSWQLCWPATY3K", "dateTime": 1521227881336}, {"current_trial": 23, "trialdata": {"rt": -1, "trial_type": "single-stim", "word": "rooster", "stimulus": "<p id=\"stim\">ROOSTER</p>", "conditions": [18, 1200, "v", 18000], "internal_node_id": "0.0-14.0", "trial": 0, "time_elapsed": 189796, "serialpos": 2, "key_press": -1, "wordID": 1208, "type": "PRES_VIS", "trial_index": 23}, "uniqueid": "MTK3761:3NVC2EB65R6XURGU0TSWQLCWPATY3K", "dateTime": 1521227883626}, {"current_trial": 24, "trialdata": {"rt": -1, "trial_type": "single-stim", "word": "grape", "stimulus": "<p id=\"stim\">GRAPE</p>", "conditions": [18, 1200, "v", 18000], "internal_node_id": "0.0-15.0", "trial": 0, "time_elapsed": 191947, "serialpos": 3, "key_press": -1, "wordID": 653, "type": "PRES_VIS", "trial_index": 24}, "uniqueid": "MTK3761:3NVC2EB65R6XURGU0TSWQLCWPATY3K", "dateTime": 1521227885777}, {"current_trial": 25, "trialdata": {"rt": -1, "trial_type": "single-stim", "word": "iceberg", "stimulus": "<p id=\"stim\">ICEBERG</p>", "conditions": [18, 1200, "v", 18000], "internal_node_id": "0.0-16.0", "trial": 0, "time_elapsed": 194101, "serialpos": 4, "key_press": -1, "wordID": 730, "type": "PRES_VIS", "trial_index": 25}, "uniqueid": "MTK3761:3NVC2EB65R6XURGU0TSWQLCWPATY3K", "dateTime": 1521227887931}, {"current_trial": 26, "trialdata": {"rt": -1, "trial_type": "single-stim", "word": "island", "stimulus": "<p id=\"stim\">ISLAND</p>", "conditions": [18, 1200, "v", 18000], "internal_node_id": "0.0-17.0", "trial": 0, "time_elapsed": 196195, "serialpos": 5, "key_press": -1, "wordID": 744, "type": "PRES_VIS", "trial_index": 26}, "uniqueid": "MTK3761:3NVC2EB65R6XURGU0TSWQLCWPATY3K", "dateTime": 1521227890025}, {"current_trial": 27, "trialdata": {"rt": -1, "trial_type": "single-stim", "word": "guard", "stimulus": "<p id=\"stim\">GUARD</p>", "conditions": [18, 1200, "v", 18000], "internal_node_id": "0.0-18.0", "trial": 0, "time_elapsed": 198350, "serialpos": 6, "key_press": -1, "wordID": 666, "type": "PRES_VIS", "trial_index": 27}, "uniqueid": "MTK3761:3NVC2EB65R6XURGU0TSWQLCWPATY3K", "dateTime": 1521227892180}, {"current_trial": 28, "trialdata": {"rt": -1, "trial_type": "single-stim", "word": "champagne", "stimulus": "<p id=\"stim\">CHAMPAGNE</p>", "conditions": [18, 1200, "v", 18000], "internal_node_id": "0.0-19.0", "trial": 0, "time_elapsed": 200727, "serialpos": 7, "key_press": -1, "wordID": 277, "type": "PRES_VIS", "trial_index": 28}, "uniqueid": "MTK3761:3NVC2EB65R6XURGU0TSWQLCWPATY3K", "dateTime": 1521227894557}, {"current_trial": 29, "trialdata": {"rt": -1, "trial_type": "single-stim", "word": "lodge", "stimulus": "<p id=\"stim\">LODGE</p>", "conditions": [18, 1200, "v", 18000], "internal_node_id": "0.0-20.0", "trial": 0, "time_elapsed": 202937, "serialpos": 8, "key_press": -1, "wordID": 838, "type": "PRES_VIS", "trial_index": 29}, "uniqueid": "MTK3761:3NVC2EB65R6XURGU0TSWQLCWPATY3K", "dateTime": 1521227896767}, {"current_trial": 30, "trialdata": {"rt": -1, "trial_type": "single-stim", "word": "stomach", "stimulus": "<p id=\"stim\">STOMACH</p>", "conditions": [18, 1200, "v", 18000], "internal_node_id": "0.0-21.0", "trial": 0, "time_elapsed": 205075, "serialpos": 9, "key_press": -1, "wordID": 1383, "type": "PRES_VIS", "trial_index": 30}, "uniqueid": "MTK3761:3NVC2EB65R6XURGU0TSWQLCWPATY3K", "dateTime": 1521227898905}, {"current_trial": 31, "trialdata": {"rt": -1, "trial_type": "single-stim", "word": "umpire", "stimulus": "<p id=\"stim\">UMPIRE</p>", "conditions": [18, 1200, "v", 18000], "internal_node_id": "0.0-22.0", "trial": 0, "time_elapsed": 207223, "serialpos": 10, "key_press": -1, "wordID": 1534, "type": "PRES_VIS", "trial_index": 31}, "uniqueid": "MTK3761:3NVC2EB65R6XURGU0TSWQLCWPATY3K", "dateTime": 1521227901053}, {"current_trial": 32, "trialdata": {"rt": -1, "trial_type": "single-stim", "word": "sunrise", "stimulus": "<p id=\"stim\">SUNRISE</p>", "conditions": [18, 1200, "v", 18000], "internal_node_id": "0.0-23.0", "trial": 0, "time_elapsed": 209553, "serialpos": 11, "key_press": -1, "wordID": 1406, "type": "PRES_VIS", "trial_index": 32}, "uniqueid": "MTK3761:3NVC2EB65R6XURGU0TSWQLCWPATY3K", "dateTime": 1521227903383}, {"current_trial": 33, "trialdata": {"rt": -1, "trial_type": "single-stim", "word": "donkey", "stimulus": "<p id=\"stim\">DONKEY</p>", "conditions": [18, 1200, "v", 18000], "internal_node_id": "0.0-24.0", "trial": 0, "time_elapsed": 211758, "serialpos": 12, "key_press": -1, "wordID": 483, "type": "PRES_VIS", "trial_index": 33}, "uniqueid": "MTK3761:3NVC2EB65R6XURGU0TSWQLCWPATY3K", "dateTime": 1521227905588}, {"current_trial": 34, "trialdata": {"rt": -1, "trial_type": "single-stim", "word": "hound", "stimulus": "<p id=\"stim\">HOUND</p>", "conditions": [18, 1200, "v", 18000], "internal_node_id": "0.0-25.0", "trial": 0, "time_elapsed": 214138, "serialpos": 13, "key_press": -1, "wordID": 723, "type": "PRES_VIS", "trial_index": 34}, "uniqueid": "MTK3761:3NVC2EB65R6XURGU0TSWQLCWPATY3K", "dateTime": 1521227907968}, {"current_trial": 35, "trialdata": {"rt": -1, "trial_type": "single-stim", "word": "guitar", "stimulus": "<p id=\"stim\">GUITAR</p>", "conditions": [18, 1200, "v", 18000], "internal_node_id": "0.0-26.0", "trial": 0, "time_elapsed": 216537, "serialpos": 14, "key_press": -1, "wordID": 669, "type": "PRES_VIS", "trial_index": 35}, "uniqueid": "MTK3761:3NVC2EB65R6XURGU0TSWQLCWPATY3K", "dateTime": 1521227910367}, {"current_trial": 36, "trialdata": {"rt": -1, "trial_type": "single-stim", "word": "seagull", "stimulus": "<p id=\"stim\">SEAGULL</p>", "conditions": [18, 1200, "v", 18000], "internal_node_id": "0.0-27.0", "trial": 0, "time_elapsed": 218571, "serialpos": 15, "key_press": -1, "wordID": 1260, "type": "PRES_VIS", "trial_index": 36}, "uniqueid": "MTK3761:3NVC2EB65R6XURGU0TSWQLCWPATY3K", "dateTime": 1521227912401}, {"current_trial": 37, "trialdata": {"rt": -1, "trial_type": "single-stim", "word": "burglar", "stimulus": "<p id=\"stim\">BURGLAR</p>", "conditions": [18, 1200, "v", 18000], "internal_node_id": "0.0-28.0", "trial": 0, "time_elapsed": 220649, "serialpos": 16, "key_press": -1, "wordID": 199, "type": "PRES_VIS", "trial_index": 37}, "uniqueid": "MTK3761:3NVC2EB65R6XURGU0TSWQLCWPATY3K", "dateTime": 1521227914479}, {"current_trial": 38, "trialdata": {"rt": -1, "trial_type": "single-stim", "word": "breast", "stimulus": "<p id=\"stim\">BREAST</p>", "conditions": [18, 1200, "v", 18000], "internal_node_id": "0.0-29.0", "trial": 0, "time_elapsed": 222975, "serialpos": 17, "key_press": -1, "wordID": 170, "type": "PRES_VIS", "trial_index": 38}, "uniqueid": "MTK3761:3NVC2EB65R6XURGU0TSWQLCWPATY3K", "dateTime": 1521227916805}, {"current_trial": 39, "trialdata": {"rt": -1, "trial_type": "single-stim", "stimulus": "", "internal_node_id": "0.0-30.0-0.0", "time_elapsed": 225407, "key_press": -1, "type": "PRE_RECALL_DELAY", "trial_index": 39}, "uniqueid": "MTK3761:3NVC2EB65R6XURGU0TSWQLCWPATY3K", "dateTime": 1521227919237}, {"current_trial": 40, "trialdata": {"rt": -1000, "trial_type": "single-audio", "stimulus": "/static/audio/400Hz.wav", "internal_node_id": "0.0-31.0", "time_elapsed": 225913, "key_press": -1, "type": "PRE_RECALL_ALERT", "trial_index": 40}, "uniqueid": "MTK3761:3NVC2EB65R6XURGU0TSWQLCWPATY3K", "dateTime": 1521227919743}, {"current_trial": 41, "trialdata": {"rt": [7960, 9603, 11487, 15030, 17400, 18355, 20895, 22415, 25443, 28227, 30055, 31858, 34433, 36546, 38779, 42774], "recwords": ["brother", "rooster", "grape", "iceberg", "island", "guard", "champagne", "lodge", "stomach", "umpire", "sunrise", "donkey", "hoond", "guitar", "seagull", "burglar"], "key_times": [6521, 6718, 6857, 7071, 7358, 7480, 7563, 7691, 7753, 7960, 8544, 8666, 8857, 9001, 9211, 9361, 9436, 9603, 10867, 11107, 11191, 11304, 11371, 11487, 13082, 13230, 13323, 14090, 14284, 14443, 14696, 15030, 15548, 16287, 16484, 16637, 16776, 16884, 17094, 17263, 17400, 17660, 17790, 17955, 18021, 18237, 18355, 19561, 19741, 19864, 19971, 20158, 20291, 20485, 20605, 20788, 20895, 21636, 21844, 21964, 22221, 22297, 22415, 23797, 24013, 24121, 24247, 24838, 25064, 25200, 25443, 26096, 26503, 26670, 26680, 27094, 27233, 27594, 27796, 27953, 28020, 28227, 28696, 28872, 29223, 29459, 29559, 29661, 29910, 30055, 30729, 30817, 30963, 31290, 31408, 31660, 31858, 33014, 33251, 33462, 33608, 33991, 34123, 34236, 34433, 35656, 35833, 36016, 36179, 36352, 36410, 36546, 37281, 37416, 37579, 37782, 38057, 38399, 38613, 38779, 39595, 39751, 40157, 40624, 40674, 40979, 40984, 41350, 41530, 41699, 41860, 41970, 42119, 42240, 42372, 42493, 42576, 42774], "trial_type": "free-recall", "conditions": [18, 1200, "v", 18000], "internal_node_id": "0.0-32.0-0.0", "key_presses": [66, 82, 79, 72, 8, 84, 72, 69, 82, 13, 82, 79, 79, 83, 84, 69, 82, 13, 71, 82, 65, 80, 69, 13, 73, 67, 69, 66, 69, 82, 71, 13, 83, 8, 73, 83, 76, 65, 78, 68, 13, 71, 85, 65, 82, 68, 13, 67, 72, 65, 77, 80, 65, 71, 78, 69, 13, 76, 79, 68, 71, 69, 13, 83, 84, 79, 77, 65, 67, 72, 13, 73, 8, 85, 74, 8, 77, 80, 73, 82, 69, 13, 83, 85, 78, 82, 73, 83, 69, 13, 68, 79, 78, 75, 69, 89, 13, 72, 79, 79, 68, 8, 78, 68, 13, 71, 85, 73, 84, 65, 82, 13, 83, 69, 65, 71, 85, 76, 76, 13, 66, 85, 84, 8, 82, 66, 86, 8, 8, 66, 71, 8, 8, 71, 76, 65, 82, 13], "trial": 0, "time_elapsed": 285913, "type": "FREE_RECALL", "trial_index": 41}, "uniqueid": "MTK3761:3NVC2EB65R6XURGU0TSWQLCWPATY3K", "dateTime": 1521227979745}, {"current_trial": 42, "trialdata": {"rt": 5334, "trial_type": "text", "internal_node_id": "0.0-33.0", "time_elapsed": 293249, "key_press": 13, "type": "INSTRUCTIONS", "trial_index": 42}, "uniqueid": "MTK3761:3NVC2EB65R6XURGU0TSWQLCWPATY3K", "dateTime": 1521227987079}, {"current_trial": 43, "trialdata": {"rt": [3760, 6196, 8894, 12671, 16367], "trial_type": "math-distractor", "key_times": [3355, 3557, 3760, 5920, 6015, 6196, 8667, 8729, 8894, 12385, 12553, 12671, 16054, 16367], "responses": ["20", "16", "32", "10", "8"], "num2": [4, 7, 6, 4, 1, 6], "num3": [8, 7, 8, 4, 5, 3], "conditions": [18, 1200, "v", 18000], "internal_node_id": "0.0-34.0", "key_presses": [98, 96, 13, 97, 102, 13, 99, 98, 13, 97, 96, 13, 104, 13], "trial": 1, "time_elapsed": 313250, "type": "DISTRACTOR", "trial_index": 43, "num1": [8, 2, 8, 2, 2, 7]}, "uniqueid": "MTK3761:3NVC2EB65R6XURGU0TSWQLCWPATY3K", "dateTime": 1521228007080}, {"current_trial": 44, "trialdata": {"rt": -1, "trial_type": "single-stim", "stimulus": "<p id=\"stim\">10</p>", "internal_node_id": "0.0-35.0-0.0", "time_elapsed": 316250, "key_press": -1, "trial_index": 44}, "uniqueid": "MTK3761:3NVC2EB65R6XURGU0TSWQLCWPATY3K", "dateTime": 1521228010080}, {"current_trial": 45, "trialdata": {"rt": -1, "trial_type": "single-stim", "stimulus": "<p id=\"stim\">9</p>", "internal_node_id": "0.0-35.0-1.0", "time_elapsed": 317251, "key_press": -1, "trial_index": 45}, "uniqueid": "MTK3761:3NVC2EB65R6XURGU0TSWQLCWPATY3K", "dateTime": 1521228011081}, {"current_trial": 46, "trialdata": {"rt": -1, "trial_type": "single-stim", "stimulus": "<p id=\"stim\">8</p>", "internal_node_id": "0.0-35.0-2.0", "time_elapsed": 318250, "key_press": -1, "trial_index": 46}, "uniqueid": "MTK3761:3NVC2EB65R6XURGU0TSWQLCWPATY3K", "dateTime": 1521228012080}, {"current_trial": 47, "trialdata": {"rt": -1, "trial_type": "single-stim", "stimulus": "<p id=\"stim\">7</p>", "internal_node_id": "0.0-35.0-3.0", "time_elapsed": 319251, "key_press": -1, "trial_index": 47}, "uniqueid": "MTK3761:3NVC2EB65R6XURGU0TSWQLCWPATY3K", "dateTime": 1521228013081}, {"current_trial": 48, "trialdata": {"rt": -1, "trial_type": "single-stim", "stimulus": "<p id=\"stim\">6</p>", "internal_node_id": "0.0-35.0-4.0", "time_elapsed": 320250, "key_press": -1, "trial_index": 48}, "uniqueid": "MTK3761:3NVC2EB65R6XURGU0TSWQLCWPATY3K", "dateTime": 1521228014080}, {"current_trial": 49, "trialdata": {"rt": -1, "trial_type": "single-stim", "stimulus": "<p id=\"stim\">5</p>", "internal_node_id": "0.0-35.0-5.0", "time_elapsed": 321251, "key_press": -1, "trial_index": 49}, "uniqueid": "MTK3761:3NVC2EB65R6XURGU0TSWQLCWPATY3K", "dateTime": 1521228015081}, {"current_trial": 50, "trialdata": {"rt": -1, "trial_type": "single-stim", "stimulus": "<p id=\"stim\">4</p>", "internal_node_id": "0.0-35.0-6.0", "time_elapsed": 322251, "key_press": -1, "trial_index": 50}, "uniqueid": "MTK3761:3NVC2EB65R6XURGU0TSWQLCWPATY3K", "dateTime": 1521228016081}, {"current_trial": 51, "trialdata": {"rt": -1, "trial_type": "single-stim", "stimulus": "<p id=\"stim\">3</p>", "internal_node_id": "0.0-35.0-7.0", "time_elapsed": 323250, "key_press": -1, "trial_index": 51}, "uniqueid": "MTK3761:3NVC2EB65R6XURGU0TSWQLCWPATY3K", "dateTime": 1521228017080}, {"current_trial": 52, "trialdata": {"rt": -1, "trial_type": "single-stim", "stimulus": "<p id=\"stim\">2</p>", "internal_node_id": "0.0-35.0-8.0", "time_elapsed": 324251, "key_press": -1, "trial_index": 52}, "uniqueid": "MTK3761:3NVC2EB65R6XURGU0TSWQLCWPATY3K", "dateTime": 1521228018081}, {"current_trial": 53, "trialdata": {"rt": -1, "trial_type": "single-stim", "stimulus": "<p id=\"stim\">1</p>", "internal_node_id": "0.0-35.0-9.0", "time_elapsed": 325252, "key_press": -1, "trial_index": 53}, "uniqueid": "MTK3761:3NVC2EB65R6XURGU0TSWQLCWPATY3K", "dateTime": 1521228019082}, {"current_trial": 54, "trialdata": {"rt": -1, "trial_type": "single-stim", "stimulus": "<p id=\"stim\">+</p>", "internal_node_id": "0.0-36.0-0.0", "time_elapsed": 326751, "key_press": -1, "type": "FIXATION", "trial_index": 54}, "uniqueid": "MTK3761:3NVC2EB65R6XURGU0TSWQLCWPATY3K", "dateTime": 1521228020581}, {"current_trial": 55, "trialdata": {"rt": -1, "trial_type": "single-stim", "word": "tractor", "stimulus": "<p id=\"stim\">TRACTOR</p>", "conditions": [18, 1200, "v", 18000], "internal_node_id": "0.0-37.0", "trial": 1, "time_elapsed": 327951, "serialpos": 0, "key_press": -1, "wordID": 1492, "type": "PRES_VIS", "trial_index": 55}, "uniqueid": "MTK3761:3NVC2EB65R6XURGU0TSWQLCWPATY3K", "dateTime": 1521228021781}, {"current_trial": 56, "trialdata": {"rt": -1, "trial_type": "single-stim", "word": "robot", "stimulus": "<p id=\"stim\">ROBOT</p>", "conditions": [18, 1200, "v", 18000], "internal_node_id": "0.0-38.0", "trial": 1, "time_elapsed": 330207, "serialpos": 1, "key_press": -1, "wordID": 1199, "type": "PRES_VIS", "trial_index": 56}, "uniqueid": "MTK3761:3NVC2EB65R6XURGU0TSWQLCWPATY3K", "dateTime": 1521228024037}, {"current_trial": 57, "trialdata": {"rt": -1, "trial_type": "single-stim", "word": "cricket", "stimulus": "<p id=\"stim\">CRICKET</p>", "conditions": [18, 1200, "v", 18000], "internal_node_id": "0.0-39.0", "trial": 1, "time_elapsed": 332343, "serialpos": 2, "key_press": -1, "wordID": 407, "type": "PRES_VIS", "trial_index": 57}, "uniqueid": "MTK3761:3NVC2EB65R6XURGU0TSWQLCWPATY3K", "dateTime": 1521228026173}, {"current_trial": 58, "trialdata": {"rt": -1, "trial_type": "single-stim", "word": "backbone", "stimulus": "<p id=\"stim\">BACKBONE</p>", "conditions": [18, 1200, "v", 18000], "internal_node_id": "0.0-40.0", "trial": 1, "time_elapsed": 334460, "serialpos": 3, "key_press": -1, "wordID": 65, "type": "PRES_VIS", "trial_index": 58}, "uniqueid": "MTK3761:3NVC2EB65R6XURGU0TSWQLCWPATY3K", "dateTime": 1521228028290}, {"current_trial": 59, "trialdata": {"rt": -1, "trial_type": "single-stim", "word": "dentist", "stimulus": "<p id=\"stim\">DENTIST</p>", "conditions": [18, 1200, "v", 18000], "internal_node_id": "0.0-41.0", "trial": 1, "time_elapsed": 336789, "serialpos": 4, "key_press": -1, "wordID": 446, "type": "PRES_VIS", "trial_index": 59}, "uniqueid": "MTK3761:3NVC2EB65R6XURGU0TSWQLCWPATY3K", "dateTime": 1521228030619}, {"current_trial": 60, "trialdata": {"rt": -1, "trial_type": "single-stim", "word": "sunset", "stimulus": "<p id=\"stim\">SUNSET</p>", "conditions": [18, 1200, "v", 18000], "internal_node_id": "0.0-42.0", "trial": 1, "time_elapsed": 338828, "serialpos": 5, "key_press": -1, "wordID": 1407, "type": "PRES_VIS", "trial_index": 60}, "uniqueid": "MTK3761:3NVC2EB65R6XURGU0TSWQLCWPATY3K", "dateTime": 1521228032658}, {"current_trial": 61, "trialdata": {"rt": -1, "trial_type": "single-stim", "word": "blade", "stimulus": "<p id=\"stim\">BLADE</p>", "conditions": [18, 1200, "v", 18000], "internal_node_id": "0.0-43.0", "trial": 1, "time_elapsed": 340971, "serialpos": 6, "key_press": -1, "wordID": 133, "type": "PRES_VIS", "trial_index": 61}, "uniqueid": "MTK3761:3NVC2EB65R6XURGU0TSWQLCWPATY3K", "dateTime": 1521228034801}, {"current_trial": 62, "trialdata": {"rt": -1, "trial_type": "single-stim", "word": "wasp", "stimulus": "<p id=\"stim\">WASP</p>", "conditions": [18, 1200, "v", 18000], "internal_node_id": "0.0-44.0", "trial": 1, "time_elapsed": 343169, "serialpos": 7, "key_press": -1, "wordID": 1592, "type": "PRES_VIS", "trial_index": 62}, "uniqueid": "MTK3761:3NVC2EB65R6XURGU0TSWQLCWPATY3K", "dateTime": 1521228036999}, {"current_trial": 63, "trialdata": {"rt": -1, "trial_type": "single-stim", "word": "rattle", "stimulus": "<p id=\"stim\">RATTLE</p>", "conditions": [18, 1200, "v", 18000], "internal_node_id": "0.0-45.0", "trial": 1, "time_elapsed": 345372, "serialpos": 8, "key_press": -1, "wordID": 1169, "type": "PRES_VIS", "trial_index": 63}, "uniqueid": "MTK3761:3NVC2EB65R6XURGU0TSWQLCWPATY3K", "dateTime": 1521228039202}, {"current_trial": 64, "trialdata": {"rt": -1, "trial_type": "single-stim", "word": "smog", "stimulus": "<p id=\"stim\">SMOG</p>", "conditions": [18, 1200, "v", 18000], "internal_node_id": "0.0-46.0", "trial": 1, "time_elapsed": 347374, "serialpos": 9, "key_press": -1, "wordID": 1329, "type": "PRES_VIS", "trial_index": 64}, "uniqueid": "MTK3761:3NVC2EB65R6XURGU0TSWQLCWPATY3K", "dateTime": 1521228041204}, {"current_trial": 65, "trialdata": {"rt": -1, "trial_type": "single-stim", "word": "spouse", "stimulus": "<p id=\"stim\">SPOUSE</p>", "conditions": [18, 1200, "v", 18000], "internal_node_id": "0.0-47.0", "trial": 1, "time_elapsed": 349495, "serialpos": 10, "key_press": -1, "wordID": 1357, "type": "PRES_VIS", "trial_index": 65}, "uniqueid": "MTK3761:3NVC2EB65R6XURGU0TSWQLCWPATY3K", "dateTime": 1521228043325}, {"current_trial": 66, "trialdata": {"rt": -1, "trial_type": "single-stim", "word": "queen", "stimulus": "<p id=\"stim\">QUEEN</p>", "conditions": [18, 1200, "v", 18000], "internal_node_id": "0.0-48.0", "trial": 1, "time_elapsed": 351832, "serialpos": 11, "key_press": -1, "wordID": 1148, "type": "PRES_VIS", "trial_index": 66}, "uniqueid": "MTK3761:3NVC2EB65R6XURGU0TSWQLCWPATY3K", "dateTime": 1521228045662}, {"current_trial": 67, "trialdata": {"rt": -1, "trial_type": "single-stim", "word": "radish", "stimulus": "<p id=\"stim\">RADISH</p>", "conditions": [18, 1200, "v", 18000], "internal_node_id": "0.0-49.0", "trial": 1, "time_elapsed": 354223, "serialpos": 12, "key_press": -1, "wordID": 1157, "type": "PRES_VIS", "trial_index": 67}, "uniqueid": "MTK3761:3NVC2EB65R6XURGU0TSWQLCWPATY3K", "dateTime": 1521228048053}, {"current_trial": 68, "trialdata": {"rt": -1, "trial_type": "single-stim", "word": "swamp", "stimulus": "<p id=\"stim\">SWAMP</p>", "conditions": [18, 1200, "v", 18000], "internal_node_id": "0.0-50.0", "trial": 1, "time_elapsed": 356229, "serialpos": 13, "key_press": -1, "wordID": 1415, "type": "PRES_VIS", "trial_index": 68}, "uniqueid": "MTK3761:3NVC2EB65R6XURGU0TSWQLCWPATY3K", "dateTime": 1521228050061}, {"current_trial": 69, "trialdata": {"rt": -1, "trial_type": "single-stim", "word": "clothes", "stimulus": "<p id=\"stim\">CLOTHES</p>", "conditions": [18, 1200, "v", 18000], "internal_node_id": "0.0-51.0", "trial": 1, "time_elapsed": 358591, "serialpos": 14, "key_press": -1, "wordID": 326, "type": "PRES_VIS", "trial_index": 69}, "uniqueid": "MTK3761:3NVC2EB65R6XURGU0TSWQLCWPATY3K", "dateTime": 1521228052421}, {"current_trial": 70, "trialdata": {"rt": -1, "trial_type": "single-stim", "word": "concert", "stimulus": "<p id=\"stim\">CONCERT</p>", "conditions": [18, 1200, "v", 18000], "internal_node_id": "0.0-52.0", "trial": 1, "time_elapsed": 360851, "serialpos": 15, "key_press": -1, "wordID": 359, "type": "PRES_VIS", "trial_index": 70}, "uniqueid": "MTK3761:3NVC2EB65R6XURGU0TSWQLCWPATY3K", "dateTime": 1521228054681}, {"current_trial": 71, "trialdata": {"rt": -1, "trial_type": "single-stim", "word": "teacher", "stimulus": "<p id=\"stim\">TEACHER</p>", "conditions": [18, 1200, "v", 18000], "internal_node_id": "0.0-53.0", "trial": 1, "time_elapsed": 362949, "serialpos": 16, "key_press": -1, "wordID": 1439, "type": "PRES_VIS", "trial_index": 71}, "uniqueid": "MTK3761:3NVC2EB65R6XURGU0TSWQLCWPATY3K", "dateTime": 1521228056779}, {"current_trial": 72, "trialdata": {"rt": -1, "trial_type": "single-stim", "word": "scalpel", "stimulus": "<p id=\"stim\">SCALPEL</p>", "conditions": [18, 1200, "v", 18000], "internal_node_id": "0.0-54.0", "trial": 1, "time_elapsed": 365006, "serialpos": 17, "key_press": -1, "wordID": 1242, "type": "PRES_VIS", "trial_index": 72}, "uniqueid": "MTK3761:3NVC2EB65R6XURGU0TSWQLCWPATY3K", "dateTime": 1521228058836}, {"current_trial": 73, "trialdata": {"rt": -1, "trial_type": "single-stim", "stimulus": "", "internal_node_id": "0.0-55.0-0.0", "time_elapsed": 367363, "key_press": -1, "type": "PRE_RECALL_DELAY", "trial_index": 73}, "uniqueid": "MTK3761:3NVC2EB65R6XURGU0TSWQLCWPATY3K", "dateTime": 1521228061193}, {"current_trial": 74, "trialdata": {"rt": -1000, "trial_type": "single-audio", "stimulus": "/static/audio/400Hz.wav", "internal_node_id": "0.0-56.0", "time_elapsed": 367865, "key_press": -1, "type": "PRE_RECALL_ALERT", "trial_index": 74}, "uniqueid": "MTK3761:3NVC2EB65R6XURGU0TSWQLCWPATY3K", "dateTime": 1521228061695}, {"current_trial": 75, "trialdata": {"rt": [7459, 8900, 11517, 16296, 18437, 19804, 22146, 25076, 26366, 28557, 30683, 33073, 36247, 38722, 40306, 42291, 44555], "recwords": ["tractor", "robot", "cricket", "backbone", "sunset", "blade", "wasp", "rattle", "smog", "spuse", "queen", "radish", "swamp", "clothes", "concert", "teacher", "scapel"], "key_times": [6298, 6543, 6613, 6760, 7021, 7141, 7246, 7459, 8186, 8286, 8456, 8650, 8761, 8900, 10420, 10652, 10790, 10997, 11123, 11266, 11380, 11517, 12636, 12790, 13169, 13267, 13664, 14050, 14553, 14591, 14625, 14659, 14693, 14726, 14761, 14793, 14891, 15003, 15133, 15253, 15749, 15963, 16089, 16226, 16296, 16896, 17023, 17229, 17567, 17739, 17826, 17966, 18239, 18437, 19170, 19399, 19503, 19574, 19694, 19804, 21126, 21246, 21523, 21779, 22146, 23383, 23959, 24119, 24321, 24652, 24879, 25076, 25617, 25729, 25866, 26239, 26366, 27547, 27749, 28092, 28314, 28409, 28557, 29919, 30091, 30201, 30376, 30514, 30683, 32272, 32466, 32571, 32697, 32810, 32905, 33073, 34416, 34424, 35270, 35423, 35656, 35932, 36117, 36247, 37060, 37177, 37669, 37901, 38058, 38174, 38618, 38722, 39139, 39243, 39363, 39529, 39598, 39813, 40145, 40306, 41342, 41471, 41525, 41744, 41879, 42009, 42106, 42291, 43057, 43696, 43787, 44074, 44274, 44401, 44555], "trial_type": "free-recall", "conditions": [18, 1200, "v", 18000], "internal_node_id": "0.0-57.0-0.0", "key_presses": [84, 82, 65, 67, 84, 79, 82, 13, 82, 79, 66, 79, 84, 13, 67, 82, 73, 67, 75, 69, 84, 13, 67, 65, 67, 75, 66, 8, 8, 8, 8, 8, 8, 8, 8, 8, 66, 65, 67, 75, 66, 79, 78, 69, 13, 83, 85, 83, 8, 78, 83, 69, 84, 13, 66, 76, 65, 68, 69, 13, 87, 65, 83, 80, 13, 82, 65, 84, 84, 76, 69, 13, 83, 77, 79, 71, 13, 83, 80, 85, 83, 69, 13, 81, 85, 69, 69, 78, 13, 82, 65, 68, 73, 83, 72, 13, 83, 68, 8, 87, 65, 77, 80, 13, 67, 76, 79, 84, 72, 69, 83, 13, 67, 79, 78, 67, 69, 82, 84, 13, 84, 69, 65, 67, 72, 69, 82, 13, 83, 67, 65, 80, 69, 76, 13], "trial": 1, "time_elapsed": 427865, "type": "FREE_RECALL", "trial_index": 75}, "uniqueid": "MTK3761:3NVC2EB65R6XURGU0TSWQLCWPATY3K", "dateTime": 1521228121697}, {"current_trial": 76, "trialdata": {"rt": 23258, "trial_type": "text", "internal_node_id": "0.0-58.0", "time_elapsed": 453125, "key_press": 13, "type": "INSTRUCTIONS", "trial_index": 76}, "uniqueid": "MTK3761:3NVC2EB65R6XURGU0TSWQLCWPATY3K", "dateTime": 1521228146955}, {"current_trial": 77, "trialdata": {"rt": [7728, 9851], "trial_type": "math-distractor", "key_times": [7296, 7434, 7728, 9465, 9565, 9851], "responses": ["18", "15"], "num2": [4, 2, 9], "num3": [7, 5, 5], "conditions": [12, 800, "v", 12000], "internal_node_id": "0.0-59.0", "key_presses": [97, 104, 13, 97, 101, 13], "trial": 2, "time_elapsed": 466125, "type": "DISTRACTOR", "trial_index": 77, "num1": [7, 9, 5]}, "uniqueid": "MTK3761:3NVC2EB65R6XURGU0TSWQLCWPATY3K", "dateTime": 1521228159955}, {"current_trial": 78, "trialdata": {"rt": -1, "trial_type": "single-stim", "stimulus": "<p id=\"stim\">10</p>", "internal_node_id": "0.0-60.0-0.0", "time_elapsed": 469125, "key_press": -1, "trial_index": 78}, "uniqueid": "MTK3761:3NVC2EB65R6XURGU0TSWQLCWPATY3K", "dateTime": 1521228162955}, {"current_trial": 79, "trialdata": {"rt": -1, "trial_type": "single-stim", "stimulus": "<p id=\"stim\">9</p>", "internal_node_id": "0.0-60.0-1.0", "time_elapsed": 470125, "key_press": -1, "trial_index": 79}, "uniqueid": "MTK3761:3NVC2EB65R6XURGU0TSWQLCWPATY3K", "dateTime": 1521228163955}, {"current_trial": 80, "trialdata": {"rt": -1, "trial_type": "single-stim", "stimulus": "<p id=\"stim\">8</p>", "internal_node_id": "0.0-60.0-2.0", "time_elapsed": 471125, "key_press": -1, "trial_index": 80}, "uniqueid": "MTK3761:3NVC2EB65R6XURGU0TSWQLCWPATY3K", "dateTime": 1521228164955}, {"current_trial": 81, "trialdata": {"rt": -1, "trial_type": "single-stim", "stimulus": "<p id=\"stim\">7</p>", "internal_node_id": "0.0-60.0-3.0", "time_elapsed": 472125, "key_press": -1, "trial_index": 81}, "uniqueid": "MTK3761:3NVC2EB65R6XURGU0TSWQLCWPATY3K", "dateTime": 1521228165955}, {"current_trial": 82, "trialdata": {"rt": -1, "trial_type": "single-stim", "stimulus": "<p id=\"stim\">6</p>", "internal_node_id": "0.0-60.0-4.0", "time_elapsed": 473126, "key_press": -1, "trial_index": 82}, "uniqueid": "MTK3761:3NVC2EB65R6XURGU0TSWQLCWPATY3K", "dateTime": 1521228166956}, {"current_trial": 83, "trialdata": {"rt": -1, "trial_type": "single-stim", "stimulus": "<p id=\"stim\">5</p>", "internal_node_id": "0.0-60.0-5.0", "time_elapsed": 474125, "key_press": -1, "trial_index": 83}, "uniqueid": "MTK3761:3NVC2EB65R6XURGU0TSWQLCWPATY3K", "dateTime": 1521228167955}, {"current_trial": 84, "trialdata": {"rt": -1, "trial_type": "single-stim", "stimulus": "<p id=\"stim\">4</p>", "internal_node_id": "0.0-60.0-6.0", "time_elapsed": 475126, "key_press": -1, "trial_index": 84}, "uniqueid": "MTK3761:3NVC2EB65R6XURGU0TSWQLCWPATY3K", "dateTime": 1521228168956}, {"current_trial": 85, "trialdata": {"rt": -1, "trial_type": "single-stim", "stimulus": "<p id=\"stim\">3</p>", "internal_node_id": "0.0-60.0-7.0", "time_elapsed": 476126, "key_press": -1, "trial_index": 85}, "uniqueid": "MTK3761:3NVC2EB65R6XURGU0TSWQLCWPATY3K", "dateTime": 1521228169956}, {"current_trial": 86, "trialdata": {"rt": -1, "trial_type": "single-stim", "stimulus": "<p id=\"stim\">2</p>", "internal_node_id": "0.0-60.0-8.0", "time_elapsed": 477127, "key_press": -1, "trial_index": 86}, "uniqueid": "MTK3761:3NVC2EB65R6XURGU0TSWQLCWPATY3K", "dateTime": 1521228170957}, {"current_trial": 87, "trialdata": {"rt": -1, "trial_type": "single-stim", "stimulus": "<p id=\"stim\">1</p>", "internal_node_id": "0.0-60.0-9.0", "time_elapsed": 478126, "key_press": -1, "trial_index": 87}, "uniqueid": "MTK3761:3NVC2EB65R6XURGU0TSWQLCWPATY3K", "dateTime": 1521228171956}, {"current_trial": 88, "trialdata": {"rt": -1, "trial_type": "single-stim", "stimulus": "<p id=\"stim\">+</p>", "internal_node_id": "0.0-61.0-0.0", "time_elapsed": 479626, "key_press": -1, "type": "FIXATION", "trial_index": 88}, "uniqueid": "MTK3761:3NVC2EB65R6XURGU0TSWQLCWPATY3K", "dateTime": 1521228173456}, {"current_trial": 89, "trialdata": {"rt": -1, "trial_type": "single-stim", "word": "cellar", "stimulus": "<p id=\"stim\">CELLAR</p>", "conditions": [12, 800, "v", 12000], "internal_node_id": "0.0-62.0", "trial": 2, "time_elapsed": 480427, "serialpos": 0, "key_press": -1, "wordID": 266, "type": "PRES_VIS", "trial_index": 89}, "uniqueid": "MTK3761:3NVC2EB65R6XURGU0TSWQLCWPATY3K", "dateTime": 1521228174257}, {"current_trial": 90, "trialdata": {"rt": -1, "trial_type": "single-stim", "word": "quail", "stimulus": "<p id=\"stim\">QUAIL</p>", "conditions": [12, 800, "v", 12000], "internal_node_id": "0.0-63.0", "trial": 2, "time_elapsed": 482413, "serialpos": 1, "key_press": -1, "wordID": 1146, "type": "PRES_VIS", "trial_index": 90}, "uniqueid": "MTK3761:3NVC2EB65R6XURGU0TSWQLCWPATY3K", "dateTime": 1521228176243}, {"current_trial": 91, "trialdata": {"rt": -1, "trial_type": "single-stim", "word": "sidewalk", "stimulus": "<p id=\"stim\">SIDEWALK</p>", "conditions": [12, 800, "v", 12000], "internal_node_id": "0.0-64.0", "trial": 2, "time_elapsed": 484183, "serialpos": 2, "key_press": -1, "wordID": 1302, "type": "PRES_VIS", "trial_index": 91}, "uniqueid": "MTK3761:3NVC2EB65R6XURGU0TSWQLCWPATY3K", "dateTime": 1521228178013}, {"current_trial": 92, "trialdata": {"rt": -1, "trial_type": "single-stim", "word": "nightgown", "stimulus": "<p id=\"stim\">NIGHTGOWN</p>", "conditions": [12, 800, "v", 12000], "internal_node_id": "0.0-65.0", "trial": 2, "time_elapsed": 486120, "serialpos": 3, "key_press": -1, "wordID": 952, "type": "PRES_VIS", "trial_index": 92}, "uniqueid": "MTK3761:3NVC2EB65R6XURGU0TSWQLCWPATY3K", "dateTime": 1521228179950}, {"current_trial": 93, "trialdata": {"rt": -1, "trial_type": "single-stim", "word": "robber", "stimulus": "<p id=\"stim\">ROBBER</p>", "conditions": [12, 800, "v", 12000], "internal_node_id": "0.0-66.0", "trial": 2, "time_elapsed": 487756, "serialpos": 4, "key_press": -1, "wordID": 1196, "type": "PRES_VIS", "trial_index": 93}, "uniqueid": "MTK3761:3NVC2EB65R6XURGU0TSWQLCWPATY3K", "dateTime": 1521228181586}, {"current_trial": 94, "trialdata": {"rt": -1, "trial_type": "single-stim", "word": "cabbage", "stimulus": "<p id=\"stim\">CABBAGE</p>", "conditions": [12, 800, "v", 12000], "internal_node_id": "0.0-67.0", "trial": 2, "time_elapsed": 489730, "serialpos": 5, "key_press": -1, "wordID": 209, "type": "PRES_VIS", "trial_index": 94}, "uniqueid": "MTK3761:3NVC2EB65R6XURGU0TSWQLCWPATY3K", "dateTime": 1521228183560}, {"current_trial": 95, "trialdata": {"rt": -1, "trial_type": "single-stim", "word": "rifle", "stimulus": "<p id=\"stim\">RIFLE</p>", "conditions": [12, 800, "v", 12000], "internal_node_id": "0.0-68.0", "trial": 2, "time_elapsed": 491472, "serialpos": 6, "key_press": -1, "wordID": 1191, "type": "PRES_VIS", "trial_index": 95}, "uniqueid": "MTK3761:3NVC2EB65R6XURGU0TSWQLCWPATY3K", "dateTime": 1521228185302}, {"current_trial": 96, "trialdata": {"rt": -1, "trial_type": "single-stim", "word": "turnip", "stimulus": "<p id=\"stim\">TURNIP</p>", "conditions": [12, 800, "v", 12000], "internal_node_id": "0.0-69.0", "trial": 2, "time_elapsed": 493095, "serialpos": 7, "key_press": -1, "wordID": 1520, "type": "PRES_VIS", "trial_index": 96}, "uniqueid": "MTK3761:3NVC2EB65R6XURGU0TSWQLCWPATY3K", "dateTime": 1521228186925}, {"current_trial": 97, "trialdata": {"rt": -1, "trial_type": "single-stim", "word": "cousin", "stimulus": "<p id=\"stim\">COUSIN</p>", "conditions": [12, 800, "v", 12000], "internal_node_id": "0.0-70.0", "trial": 2, "time_elapsed": 494710, "serialpos": 8, "key_press": -1, "wordID": 391, "type": "PRES_VIS", "trial_index": 97}, "uniqueid": "MTK3761:3NVC2EB65R6XURGU0TSWQLCWPATY3K", "dateTime": 1521228188540}, {"current_trial": 98, "trialdata": {"rt": -1, "trial_type": "single-stim", "word": "husband", "stimulus": "<p id=\"stim\">HUSBAND</p>", "conditions": [12, 800, "v", 12000], "internal_node_id": "0.0-71.0", "trial": 2, "time_elapsed": 496454, "serialpos": 9, "key_press": -1, "wordID": 727, "type": "PRES_VIS", "trial_index": 98}, "uniqueid": "MTK3761:3NVC2EB65R6XURGU0TSWQLCWPATY3K", "dateTime": 1521228190284}, {"current_trial": 99, "trialdata": {"rt": -1, "trial_type": "single-stim", "word": "parsley", "stimulus": "<p id=\"stim\">PARSLEY</p>", "conditions": [12, 800, "v", 12000], "internal_node_id": "0.0-72.0", "trial": 2, "time_elapsed": 498243, "serialpos": 10, "key_press": -1, "wordID": 1015, "type": "PRES_VIS", "trial_index": 99}, "uniqueid": "MTK3761:3NVC2EB65R6XURGU0TSWQLCWPATY3K", "dateTime": 1521228192073}, {"current_trial": 100, "trialdata": {"rt": -1, "trial_type": "single-stim", "word": "sausage", "stimulus": "<p id=\"stim\">SAUSAGE</p>", "conditions": [12, 800, "v", 12000], "internal_node_id": "0.0-73.0", "trial": 2, "time_elapsed": 499879, "serialpos": 11, "key_press": -1, "wordID": 1237, "type": "PRES_VIS", "trial_index": 100}, "uniqueid": "MTK3761:3NVC2EB65R6XURGU0TSWQLCWPATY3K", "dateTime": 1521228193709}, {"current_trial": 101, "trialdata": {"rt": -1, "trial_type": "single-stim", "stimulus": "", "internal_node_id": "0.0-74.0-0.0", "time_elapsed": 502090, "key_press": -1, "type": "PRE_RECALL_DELAY", "trial_index": 101}, "uniqueid": "MTK3761:3NVC2EB65R6XURGU0TSWQLCWPATY3K", "dateTime": 1521228195920}, {"current_trial": 102, "trialdata": {"rt": -1000, "trial_type": "single-audio", "stimulus": "/static/audio/400Hz.wav", "internal_node_id": "0.0-75.0", "time_elapsed": 502590, "key_press": -1, "type": "PRE_RECALL_ALERT", "trial_index": 102}, "uniqueid": "MTK3761:3NVC2EB65R6XURGU0TSWQLCWPATY3K", "dateTime": 1521228196420}, {"current_trial": 103, "trialdata": {"rt": [6726, 10707, 15141, 16642, 19976, 21761, 25237, 29405, 31667], "recwords": ["rifle", "quail", "robber", "cabbage", "turnip", "cousin", "husband", "sausage", "parslay"], "key_times": [6159, 6276, 6369, 6483, 6599, 6726, 7069, 7172, 7714, 8608, 8732, 8979, 9149, 9301, 9393, 9439, 9681, 10069, 10183, 10249, 10495, 10707, 13696, 13805, 13999, 14195, 14266, 14342, 14569, 14892, 15141, 15712, 15852, 15999, 16196, 16296, 16456, 16568, 16642, 17369, 17462, 17612, 17989, 18171, 18412, 19036, 19189, 19338, 19424, 19562, 19792, 19976, 20636, 20789, 21031, 21429, 21489, 21640, 21761, 22833, 22909, 23019, 23252, 23262, 23519, 23672, 23869, 24039, 24069, 24149, 24595, 24755, 24931, 25055, 25237, 25479, 25669, 25849, 26058, 26205, 26355, 26482, 26567, 27545, 27885, 28049, 28125, 28239, 28389, 28700, 28915, 29129, 29259, 29405, 30165, 30235, 30403, 30605, 31005, 31216, 31475, 31667], "trial_type": "free-recall", "conditions": [12, 800, "v", 12000], "internal_node_id": "0.0-76.0-0.0", "key_presses": [82, 73, 70, 76, 69, 13, 67, 79, 8, 81, 85, 8, 8, 8, 81, 85, 73, 8, 65, 73, 76, 13, 82, 79, 66, 66, 69, 82, 84, 8, 13, 67, 65, 66, 66, 65, 71, 69, 13, 82, 73, 71, 8, 8, 8, 84, 85, 82, 78, 73, 80, 13, 67, 79, 85, 83, 73, 78, 13, 72, 73, 83, 66, 78, 8, 8, 8, 8, 85, 83, 66, 65, 78, 68, 13, 80, 65, 82, 8, 8, 8, 8, 65, 85, 8, 8, 83, 65, 85, 83, 65, 71, 69, 13, 80, 65, 82, 83, 76, 65, 89, 13], "trial": 2, "time_elapsed": 562591, "type": "FREE_RECALL", "trial_index": 103}, "uniqueid": "MTK3761:3NVC2EB65R6XURGU0TSWQLCWPATY3K", "dateTime": 1521228256423}, {"current_trial": 104, "trialdata": {"rt": 1457, "trial_type": "text", "internal_node_id": "0.0-77.0", "time_elapsed": 566050, "key_press": 13, "type": "INSTRUCTIONS", "trial_index": 104}, "uniqueid": "MTK3761:3NVC2EB65R6XURGU0TSWQLCWPATY3K", "dateTime": 1521228259881}, {"current_trial": 105, "trialdata": {"rt": [3082, 5203], "trial_type": "math-distractor", "key_times": [2702, 2879, 3082, 4650, 4729, 5203], "responses": ["11", "12"], "num2": [1, 2, 1], "num3": [3, 4, 7], "conditions": [12, 1600, "v", 12000], "internal_node_id": "0.0-78.0", "key_presses": [97, 97, 13, 97, 98, 13], "trial": 3, "time_elapsed": 580052, "type": "DISTRACTOR", "trial_index": 105, "num1": [7, 6, 6]}, "uniqueid": "MTK3761:3NVC2EB65R6XURGU0TSWQLCWPATY3K", "dateTime": 1521228273882}, {"current_trial": 106, "trialdata": {"rt": -1, "trial_type": "single-stim", "stimulus": "<p id=\"stim\">10</p>", "internal_node_id": "0.0-79.0-0.0", "time_elapsed": 583051, "key_press": -1, "trial_index": 106}, "uniqueid": "MTK3761:3NVC2EB65R6XURGU0TSWQLCWPATY3K", "dateTime": 1521228276881}, {"current_trial": 107, "trialdata": {"rt": -1, "trial_type": "single-stim", "stimulus": "<p id=\"stim\">9</p>", "internal_node_id": "0.0-79.0-1.0", "time_elapsed": 584052, "key_press": -1, "trial_index": 107}, "uniqueid": "MTK3761:3NVC2EB65R6XURGU0TSWQLCWPATY3K", "dateTime": 1521228277882}, {"current_trial": 108, "trialdata": {"rt": -1, "trial_type": "single-stim", "stimulus": "<p id=\"stim\">8</p>", "internal_node_id": "0.0-79.0-2.0", "time_elapsed": 585052, "key_press": -1, "trial_index": 108}, "uniqueid": "MTK3761:3NVC2EB65R6XURGU0TSWQLCWPATY3K", "dateTime": 1521228278882}, {"current_trial": 109, "trialdata": {"rt": -1, "trial_type": "single-stim", "stimulus": "<p id=\"stim\">7</p>", "internal_node_id": "0.0-79.0-3.0", "time_elapsed": 586052, "key_press": -1, "trial_index": 109}, "uniqueid": "MTK3761:3NVC2EB65R6XURGU0TSWQLCWPATY3K", "dateTime": 1521228279882}, {"current_trial": 110, "trialdata": {"rt": -1, "trial_type": "single-stim", "stimulus": "<p id=\"stim\">6</p>", "internal_node_id": "0.0-79.0-4.0", "time_elapsed": 587051, "key_press": -1, "trial_index": 110}, "uniqueid": "MTK3761:3NVC2EB65R6XURGU0TSWQLCWPATY3K", "dateTime": 1521228280881}, {"current_trial": 111, "trialdata": {"rt": -1, "trial_type": "single-stim", "stimulus": "<p id=\"stim\">5</p>", "internal_node_id": "0.0-79.0-5.0", "time_elapsed": 588052, "key_press": -1, "trial_index": 111}, "uniqueid": "MTK3761:3NVC2EB65R6XURGU0TSWQLCWPATY3K", "dateTime": 1521228281882}, {"current_trial": 112, "trialdata": {"rt": -1, "trial_type": "single-stim", "stimulus": "<p id=\"stim\">4</p>", "internal_node_id": "0.0-79.0-6.0", "time_elapsed": 589051, "key_press": -1, "trial_index": 112}, "uniqueid": "MTK3761:3NVC2EB65R6XURGU0TSWQLCWPATY3K", "dateTime": 1521228282881}, {"current_trial": 113, "trialdata": {"rt": -1, "trial_type": "single-stim", "stimulus": "<p id=\"stim\">3</p>", "internal_node_id": "0.0-79.0-7.0", "time_elapsed": 590051, "key_press": -1, "trial_index": 113}, "uniqueid": "MTK3761:3NVC2EB65R6XURGU0TSWQLCWPATY3K", "dateTime": 1521228283881}, {"current_trial": 114, "trialdata": {"rt": -1, "trial_type": "single-stim", "stimulus": "<p id=\"stim\">2</p>", "internal_node_id": "0.0-79.0-8.0", "time_elapsed": 591052, "key_press": -1, "trial_index": 114}, "uniqueid": "MTK3761:3NVC2EB65R6XURGU0TSWQLCWPATY3K", "dateTime": 1521228284882}, {"current_trial": 115, "trialdata": {"rt": -1, "trial_type": "single-stim", "stimulus": "<p id=\"stim\">1</p>", "internal_node_id": "0.0-79.0-9.0", "time_elapsed": 592053, "key_press": -1, "trial_index": 115}, "uniqueid": "MTK3761:3NVC2EB65R6XURGU0TSWQLCWPATY3K", "dateTime": 1521228285883}, {"current_trial": 116, "trialdata": {"rt": -1, "trial_type": "single-stim", "stimulus": "<p id=\"stim\">+</p>", "internal_node_id": "0.0-80.0-0.0", "time_elapsed": 593552, "key_press": -1, "type": "FIXATION", "trial_index": 116}, "uniqueid": "MTK3761:3NVC2EB65R6XURGU0TSWQLCWPATY3K", "dateTime": 1521228287382}, {"current_trial": 117, "trialdata": {"rt": -1, "trial_type": "single-stim", "word": "shirt", "stimulus": "<p id=\"stim\">SHIRT</p>", "conditions": [12, 1600, "v", 12000], "internal_node_id": "0.0-81.0", "trial": 3, "time_elapsed": 595153, "serialpos": 0, "key_press": -1, "wordID": 1286, "type": "PRES_VIS", "trial_index": 117}, "uniqueid": "MTK3761:3NVC2EB65R6XURGU0TSWQLCWPATY3K", "dateTime": 1521228288983}, {"current_trial": 118, "trialdata": {"rt": -1, "trial_type": "single-stim", "word": "fruit", "stimulus": "<p id=\"stim\">FRUIT</p>", "conditions": [12, 1600, "v", 12000], "internal_node_id": "0.0-82.0", "trial": 3, "time_elapsed": 597772, "serialpos": 1, "key_press": -1, "wordID": 609, "type": "PRES_VIS", "trial_index": 118}, "uniqueid": "MTK3761:3NVC2EB65R6XURGU0TSWQLCWPATY3K", "dateTime": 1521228291602}, {"current_trial": 119, "trialdata": {"rt": -1, "trial_type": "single-stim", "word": "dress", "stimulus": "<p id=\"stim\">DRESS</p>", "conditions": [12, 1600, "v", 12000], "internal_node_id": "0.0-83.0", "trial": 3, "time_elapsed": 600448, "serialpos": 2, "key_press": -1, "wordID": 494, "type": "PRES_VIS", "trial_index": 119}, "uniqueid": "MTK3761:3NVC2EB65R6XURGU0TSWQLCWPATY3K", "dateTime": 1521228294278}, {"current_trial": 120, "trialdata": {"rt": -1, "trial_type": "single-stim", "word": "leg", "stimulus": "<p id=\"stim\">LEG</p>", "conditions": [12, 1600, "v", 12000], "internal_node_id": "0.0-84.0", "trial": 3, "time_elapsed": 603172, "serialpos": 3, "key_press": -1, "wordID": 808, "type": "PRES_VIS", "trial_index": 120}, "uniqueid": "MTK3761:3NVC2EB65R6XURGU0TSWQLCWPATY3K", "dateTime": 1521228297002}, {"current_trial": 121, "trialdata": {"rt": -1, "trial_type": "single-stim", "word": "lake", "stimulus": "<p id=\"stim\">LAKE</p>", "conditions": [12, 1600, "v", 12000], "internal_node_id": "0.0-85.0", "trial": 3, "time_elapsed": 605963, "serialpos": 4, "key_press": -1, "wordID": 795, "type": "PRES_VIS", "trial_index": 121}, "uniqueid": "MTK3761:3NVC2EB65R6XURGU0TSWQLCWPATY3K", "dateTime": 1521228299793}, {"current_trial": 122, "trialdata": {"rt": -1, "trial_type": "single-stim", "word": "clock", "stimulus": "<p id=\"stim\">CLOCK</p>", "conditions": [12, 1600, "v", 12000], "internal_node_id": "0.0-86.0", "trial": 3, "time_elapsed": 608556, "serialpos": 5, "key_press": -1, "wordID": 324, "type": "PRES_VIS", "trial_index": 122}, "uniqueid": "MTK3761:3NVC2EB65R6XURGU0TSWQLCWPATY3K", "dateTime": 1521228302386}, {"current_trial": 123, "trialdata": {"rt": -1, "trial_type": "single-stim", "word": "marker", "stimulus": "<p id=\"stim\">MARKER</p>", "conditions": [12, 1600, "v", 12000], "internal_node_id": "0.0-87.0", "trial": 3, "time_elapsed": 611222, "serialpos": 6, "key_press": -1, "wordID": 869, "type": "PRES_VIS", "trial_index": 123}, "uniqueid": "MTK3761:3NVC2EB65R6XURGU0TSWQLCWPATY3K", "dateTime": 1521228305052}, {"current_trial": 124, "trialdata": {"rt": -1, "trial_type": "single-stim", "word": "compass", "stimulus": "<p id=\"stim\">COMPASS</p>", "conditions": [12, 1600, "v", 12000], "internal_node_id": "0.0-88.0", "trial": 3, "time_elapsed": 613719, "serialpos": 7, "key_press": -1, "wordID": 357, "type": "PRES_VIS", "trial_index": 124}, "uniqueid": "MTK3761:3NVC2EB65R6XURGU0TSWQLCWPATY3K", "dateTime": 1521228307549}, {"current_trial": 125, "trialdata": {"rt": -1, "trial_type": "single-stim", "word": "marsh", "stimulus": "<p id=\"stim\">MARSH</p>", "conditions": [12, 1600, "v", 12000], "internal_node_id": "0.0-89.0", "trial": 3, "time_elapsed": 616453, "serialpos": 8, "key_press": -1, "wordID": 873, "type": "PRES_VIS", "trial_index": 125}, "uniqueid": "MTK3761:3NVC2EB65R6XURGU0TSWQLCWPATY3K", "dateTime": 1521228310283}, {"current_trial": 126, "trialdata": {"rt": -1, "trial_type": "single-stim", "word": "whistle", "stimulus": "<p id=\"stim\">WHISTLE</p>", "conditions": [12, 1600, "v", 12000], "internal_node_id": "0.0-90.0", "trial": 3, "time_elapsed": 619104, "serialpos": 9, "key_press": -1, "wordID": 1605, "type": "PRES_VIS", "trial_index": 126}, "uniqueid": "MTK3761:3NVC2EB65R6XURGU0TSWQLCWPATY3K", "dateTime": 1521228312934}, {"current_trial": 127, "trialdata": {"rt": -1, "trial_type": "single-stim", "word": "lagoon", "stimulus": "<p id=\"stim\">LAGOON</p>", "conditions": [12, 1600, "v", 12000], "internal_node_id": "0.0-91.0", "trial": 3, "time_elapsed": 621678, "serialpos": 10, "key_press": -1, "wordID": 794, "type": "PRES_VIS", "trial_index": 127}, "uniqueid": "MTK3761:3NVC2EB65R6XURGU0TSWQLCWPATY3K", "dateTime": 1521228315508}, {"current_trial": 128, "trialdata": {"rt": -1, "trial_type": "single-stim", "word": "canal", "stimulus": "<p id=\"stim\">CANAL</p>", "conditions": [12, 1600, "v", 12000], "internal_node_id": "0.0-92.0", "trial": 3, "time_elapsed": 624325, "serialpos": 11, "key_press": -1, "wordID": 225, "type": "PRES_VIS", "trial_index": 128}, "uniqueid": "MTK3761:3NVC2EB65R6XURGU0TSWQLCWPATY3K", "dateTime": 1521228318155}, {"current_trial": 129, "trialdata": {"rt": -1, "trial_type": "single-stim", "stimulus": "", "internal_node_id": "0.0-93.0-0.0", "time_elapsed": 626538, "key_press": -1, "type": "PRE_RECALL_DELAY", "trial_index": 129}, "uniqueid": "MTK3761:3NVC2EB65R6XURGU0TSWQLCWPATY3K", "dateTime": 1521228320368}, {"current_trial": 130, "trialdata": {"rt": -1000, "trial_type": "single-audio", "stimulus": "/static/audio/400Hz.wav", "internal_node_id": "0.0-94.0", "time_elapsed": 627039, "key_press": -1, "type": "PRE_RECALL_ALERT", "trial_index": 130}, "uniqueid": "MTK3761:3NVC2EB65R6XURGU0TSWQLCWPATY3K", "dateTime": 1521228320869}, {"current_trial": 131, "trialdata": {"rt": [7700, 10148, 11328, 13705, 19674, 21107, 22181, 25478, 27251, 30344, 32696, 34923], "recwords": ["shirt", "fruit", "dress", "leg", "clock", "lake", "marker", "compass", "marsh", "whistle", "lagoon", "canal"], "key_times": [6982, 7105, 7172, 7369, 7565, 7700, 8819, 9019, 9200, 9509, 9609, 9799, 9898, 10148, 10451, 10655, 10752, 10961, 11159, 11328, 13482, 13561, 13628, 13705, 18516, 19065, 19248, 19407, 19532, 19674, 20114, 20298, 20831, 20961, 21107, 21374, 21455, 21584, 21785, 21913, 22004, 22181, 23740, 23870, 23994, 24885, 24955, 25197, 25371, 25478, 26358, 26448, 26630, 26876, 26996, 27251, 29182, 29416, 29671, 29798, 29971, 30144, 30236, 30344, 31621, 31691, 31857, 32065, 32242, 32491, 32696, 34261, 34383, 34429, 34580, 34763, 34923], "trial_type": "free-recall", "conditions": [12, 1600, "v", 12000], "internal_node_id": "0.0-95.0-0.0", "key_presses": [83, 72, 73, 82, 84, 13, 70, 82, 73, 8, 85, 73, 84, 13, 68, 82, 69, 83, 83, 13, 76, 69, 71, 13, 67, 76, 79, 67, 75, 13, 76, 65, 75, 69, 13, 77, 65, 82, 75, 69, 82, 13, 67, 79, 77, 80, 65, 83, 83, 13, 77, 65, 82, 83, 72, 13, 87, 72, 73, 83, 84, 76, 69, 13, 76, 65, 71, 79, 79, 78, 13, 67, 65, 78, 65, 76, 13], "trial": 3, "time_elapsed": 687039, "type": "FREE_RECALL", "trial_index": 131}, "uniqueid": "MTK3761:3NVC2EB65R6XURGU0TSWQLCWPATY3K", "dateTime": 1521228380872}, {"current_trial": 132, "trialdata": {"rt": 403, "trial_type": "text", "internal_node_id": "0.0-96.0", "time_elapsed": 689446, "key_press": 13, "type": "INSTRUCTIONS", "trial_index": 132}, "uniqueid": "MTK3761:3NVC2EB65R6XURGU0TSWQLCWPATY3K", "dateTime": 1521228383276}, {"current_trial": 133, "trialdata": {"rt": [5767, 8285, 11462], "trial_type": "math-distractor", "key_times": [5382, 5578, 5767, 7801, 7982, 8285, 10183, 11192, 11462], "responses": ["13", "19", "17"], "num2": [5, 3, 6, 2], "num3": [6, 8, 2, 4], "conditions": [24, 800, "v", 12000], "internal_node_id": "0.0-97.0", "key_presses": [97, 99, 13, 97, 105, 13, 97, 103, 13], "trial": 4, "time_elapsed": 703448, "type": "DISTRACTOR", "trial_index": 133, "num1": [2, 8, 9, 4]}, "uniqueid": "MTK3761:3NVC2EB65R6XURGU0TSWQLCWPATY3K", "dateTime": 1521228397278}, {"current_trial": 134, "trialdata": {"rt": -1, "trial_type": "single-stim", "stimulus": "<p id=\"stim\">10</p>", "internal_node_id": "0.0-98.0-0.0", "time_elapsed": 706448, "key_press": -1, "trial_index": 134}, "uniqueid": "MTK3761:3NVC2EB65R6XURGU0TSWQLCWPATY3K", "dateTime": 1521228400278}, {"current_trial": 135, "trialdata": {"rt": -1, "trial_type": "single-stim", "stimulus": "<p id=\"stim\">9</p>", "internal_node_id": "0.0-98.0-1.0", "time_elapsed": 707448, "key_press": -1, "trial_index": 135}, "uniqueid": "MTK3761:3NVC2EB65R6XURGU0TSWQLCWPATY3K", "dateTime": 1521228401278}, {"current_trial": 136, "trialdata": {"rt": -1, "trial_type": "single-stim", "stimulus": "<p id=\"stim\">8</p>", "internal_node_id": "0.0-98.0-2.0", "time_elapsed": 708448, "key_press": -1, "trial_index": 136}, "uniqueid": "MTK3761:3NVC2EB65R6XURGU0TSWQLCWPATY3K", "dateTime": 1521228402278}, {"current_trial": 137, "trialdata": {"rt": -1, "trial_type": "single-stim", "stimulus": "<p id=\"stim\">7</p>", "internal_node_id": "0.0-98.0-3.0", "time_elapsed": 709449, "key_press": -1, "trial_index": 137}, "uniqueid": "MTK3761:3NVC2EB65R6XURGU0TSWQLCWPATY3K", "dateTime": 1521228403279}, {"current_trial": 138, "trialdata": {"rt": -1, "trial_type": "single-stim", "stimulus": "<p id=\"stim\">6</p>", "internal_node_id": "0.0-98.0-4.0", "time_elapsed": 710449, "key_press": -1, "trial_index": 138}, "uniqueid": "MTK3761:3NVC2EB65R6XURGU0TSWQLCWPATY3K", "dateTime": 1521228404279}, {"current_trial": 139, "trialdata": {"rt": -1, "trial_type": "single-stim", "stimulus": "<p id=\"stim\">5</p>", "internal_node_id": "0.0-98.0-5.0", "time_elapsed": 711449, "key_press": -1, "trial_index": 139}, "uniqueid": "MTK3761:3NVC2EB65R6XURGU0TSWQLCWPATY3K", "dateTime": 1521228405279}, {"current_trial": 140, "trialdata": {"rt": -1, "trial_type": "single-stim", "stimulus": "<p id=\"stim\">4</p>", "internal_node_id": "0.0-98.0-6.0", "time_elapsed": 712449, "key_press": -1, "trial_index": 140}, "uniqueid": "MTK3761:3NVC2EB65R6XURGU0TSWQLCWPATY3K", "dateTime": 1521228406279}, {"current_trial": 141, "trialdata": {"rt": -1, "trial_type": "single-stim", "stimulus": "<p id=\"stim\">3</p>", "internal_node_id": "0.0-98.0-7.0", "time_elapsed": 713449, "key_press": -1, "trial_index": 141}, "uniqueid": "MTK3761:3NVC2EB65R6XURGU0TSWQLCWPATY3K", "dateTime": 1521228407279}, {"current_trial": 142, "trialdata": {"rt": -1, "trial_type": "single-stim", "stimulus": "<p id=\"stim\">2</p>", "internal_node_id": "0.0-98.0-8.0", "time_elapsed": 714449, "key_press": -1, "trial_index": 142}, "uniqueid": "MTK3761:3NVC2EB65R6XURGU0TSWQLCWPATY3K", "dateTime": 1521228408279}, {"current_trial": 143, "trialdata": {"rt": -1, "trial_type": "single-stim", "stimulus": "<p id=\"stim\">1</p>", "internal_node_id": "0.0-98.0-9.0", "time_elapsed": 715449, "key_press": -1, "trial_index": 143}, "uniqueid": "MTK3761:3NVC2EB65R6XURGU0TSWQLCWPATY3K", "dateTime": 1521228409279}, {"current_trial": 144, "trialdata": {"rt": -1, "trial_type": "single-stim", "stimulus": "<p id=\"stim\">+</p>", "internal_node_id": "0.0-99.0-0.0", "time_elapsed": 716949, "key_press": -1, "type": "FIXATION", "trial_index": 144}, "uniqueid": "MTK3761:3NVC2EB65R6XURGU0TSWQLCWPATY3K", "dateTime": 1521228410779}, {"current_trial": 145, "trialdata": {"rt": -1, "trial_type": "single-stim", "word": "shoulder", "stimulus": "<p id=\"stim\">SHOULDER</p>", "conditions": [24, 800, "v", 12000], "internal_node_id": "0.0-100.0", "trial": 4, "time_elapsed": 717749, "serialpos": 0, "key_press": -1, "wordID": 1293, "type": "PRES_VIS", "trial_index": 145}, "uniqueid": "MTK3761:3NVC2EB65R6XURGU0TSWQLCWPATY3K", "dateTime": 1521228411579}, {"current_trial": 146, "trialdata": {"rt": -1, "trial_type": "single-stim", "word": "igloo", "stimulus": "<p id=\"stim\">IGLOO</p>", "conditions": [24, 800, "v", 12000], "internal_node_id": "0.0-101.0", "trial": 4, "time_elapsed": 719455, "serialpos": 1, "key_press": -1, "wordID": 733, "type": "PRES_VIS", "trial_index": 146}, "uniqueid": "MTK3761:3NVC2EB65R6XURGU0TSWQLCWPATY3K", "dateTime": 1521228413285}, {"current_trial": 147, "trialdata": {"rt": -1, "trial_type": "single-stim", "word": "proton", "stimulus": "<p id=\"stim\">PROTON</p>", "conditions": [24, 800, "v", 12000], "internal_node_id": "0.0-102.0", "trial": 4, "time_elapsed": 721295, "serialpos": 2, "key_press": -1, "wordID": 1131, "type": "PRES_VIS", "trial_index": 147}, "uniqueid": "MTK3761:3NVC2EB65R6XURGU0TSWQLCWPATY3K", "dateTime": 1521228415125}, {"current_trial": 148, "trialdata": {"rt": -1, "trial_type": "single-stim", "word": "missile", "stimulus": "<p id=\"stim\">MISSILE</p>", "conditions": [24, 800, "v", 12000], "internal_node_id": "0.0-103.0", "trial": 4, "time_elapsed": 723142, "serialpos": 3, "key_press": -1, "wordID": 899, "type": "PRES_VIS", "trial_index": 148}, "uniqueid": "MTK3761:3NVC2EB65R6XURGU0TSWQLCWPATY3K", "dateTime": 1521228416972}, {"current_trial": 149, "trialdata": {"rt": -1, "trial_type": "single-stim", "word": "sculpture", "stimulus": "<p id=\"stim\">SCULPTURE</p>", "conditions": [24, 800, "v", 12000], "internal_node_id": "0.0-104.0", "trial": 4, "time_elapsed": 724862, "serialpos": 4, "key_press": -1, "wordID": 1257, "type": "PRES_VIS", "trial_index": 149}, "uniqueid": "MTK3761:3NVC2EB65R6XURGU0TSWQLCWPATY3K", "dateTime": 1521228418692}, {"current_trial": 150, "trialdata": {"rt": -1, "trial_type": "single-stim", "word": "outdoors", "stimulus": "<p id=\"stim\">OUTDOORS</p>", "conditions": [24, 800, "v", 12000], "internal_node_id": "0.0-105.0", "trial": 4, "time_elapsed": 726477, "serialpos": 5, "key_press": -1, "wordID": 986, "type": "PRES_VIS", "trial_index": 150}, "uniqueid": "MTK3761:3NVC2EB65R6XURGU0TSWQLCWPATY3K", "dateTime": 1521228420307}, {"current_trial": 151, "trialdata": {"rt": -1, "trial_type": "single-stim", "word": "lightning", "stimulus": "<p id=\"stim\">LIGHTNING</p>", "conditions": [24, 800, "v", 12000], "internal_node_id": "0.0-106.0", "trial": 4, "time_elapsed": 728402, "serialpos": 6, "key_press": -1, "wordID": 819, "type": "PRES_VIS", "trial_index": 151}, "uniqueid": "MTK3761:3NVC2EB65R6XURGU0TSWQLCWPATY3K", "dateTime": 1521228422232}, {"current_trial": 152, "trialdata": {"rt": -1, "trial_type": "single-stim", "word": "playground", "stimulus": "<p id=\"stim\">PLAYGROUND</p>", "conditions": [24, 800, "v", 12000], "internal_node_id": "0.0-107.0", "trial": 4, "time_elapsed": 730065, "serialpos": 7, "key_press": -1, "wordID": 1086, "type": "PRES_VIS", "trial_index": 152}, "uniqueid": "MTK3761:3NVC2EB65R6XURGU0TSWQLCWPATY3K", "dateTime": 1521228423895}, {"current_trial": 153, "trialdata": {"rt": -1, "trial_type": "single-stim", "word": "statue", "stimulus": "<p id=\"stim\">STATUE</p>", "conditions": [24, 800, "v", 12000], "internal_node_id": "0.0-108.0", "trial": 4, "time_elapsed": 731966, "serialpos": 8, "key_press": -1, "wordID": 1373, "type": "PRES_VIS", "trial_index": 153}, "uniqueid": "MTK3761:3NVC2EB65R6XURGU0TSWQLCWPATY3K", "dateTime": 1521228425796}, {"current_trial": 154, "trialdata": {"rt": -1, "trial_type": "single-stim", "word": "orchid", "stimulus": "<p id=\"stim\">ORCHID</p>", "conditions": [24, 800, "v", 12000], "internal_node_id": "0.0-109.0", "trial": 4, "time_elapsed": 733716, "serialpos": 9, "key_press": -1, "wordID": 981, "type": "PRES_VIS", "trial_index": 154}, "uniqueid": "MTK3761:3NVC2EB65R6XURGU0TSWQLCWPATY3K", "dateTime": 1521228427546}, {"current_trial": 155, "trialdata": {"rt": -1, "trial_type": "single-stim", "word": "shrub", "stimulus": "<p id=\"stim\">SHRUB</p>", "conditions": [24, 800, "v", 12000], "internal_node_id": "0.0-110.0", "trial": 4, "time_elapsed": 735398, "serialpos": 10, "key_press": -1, "wordID": 1298, "type": "PRES_VIS", "trial_index": 155}, "uniqueid": "MTK3761:3NVC2EB65R6XURGU0TSWQLCWPATY3K", "dateTime": 1521228429228}, {"current_trial": 156, "trialdata": {"rt": -1, "trial_type": "single-stim", "word": "grill", "stimulus": "<p id=\"stim\">GRILL</p>", "conditions": [24, 800, "v", 12000], "internal_node_id": "0.0-111.0", "trial": 4, "time_elapsed": 737273, "serialpos": 11, "key_press": -1, "wordID": 660, "type": "PRES_VIS", "trial_index": 156}, "uniqueid": "MTK3761:3NVC2EB65R6XURGU0TSWQLCWPATY3K", "dateTime": 1521228431103}, {"current_trial": 157, "trialdata": {"rt": -1, "trial_type": "single-stim", "word": "lamp", "stimulus": "<p id=\"stim\">LAMP</p>", "conditions": [24, 800, "v", 12000], "internal_node_id": "0.0-112.0", "trial": 4, "time_elapsed": 739066, "serialpos": 12, "key_press": -1, "wordID": 797, "type": "PRES_VIS", "trial_index": 157}, "uniqueid": "MTK3761:3NVC2EB65R6XURGU0TSWQLCWPATY3K", "dateTime": 1521228432896}, {"current_trial": 158, "trialdata": {"rt": -1, "trial_type": "single-stim", "word": "banker", "stimulus": "<p id=\"stim\">BANKER</p>", "conditions": [24, 800, "v", 12000], "internal_node_id": "0.0-113.0", "trial": 4, "time_elapsed": 740943, "serialpos": 13, "key_press": -1, "wordID": 83, "type": "PRES_VIS", "trial_index": 158}, "uniqueid": "MTK3761:3NVC2EB65R6XURGU0TSWQLCWPATY3K", "dateTime": 1521228434773}, {"current_trial": 159, "trialdata": {"rt": -1, "trial_type": "single-stim", "word": "friend", "stimulus": "<p id=\"stim\">FRIEND</p>", "conditions": [24, 800, "v", 12000], "internal_node_id": "0.0-114.0", "trial": 4, "time_elapsed": 742820, "serialpos": 14, "key_press": -1, "wordID": 605, "type": "PRES_VIS", "trial_index": 159}, "uniqueid": "MTK3761:3NVC2EB65R6XURGU0TSWQLCWPATY3K", "dateTime": 1521228436650}, {"current_trial": 160, "trialdata": {"rt": -1, "trial_type": "single-stim", "word": "mister", "stimulus": "<p id=\"stim\">MISTER</p>", "conditions": [24, 800, "v", 12000], "internal_node_id": "0.0-115.0", "trial": 4, "time_elapsed": 744807, "serialpos": 15, "key_press": -1, "wordID": 900, "type": "PRES_VIS", "trial_index": 160}, "uniqueid": "MTK3761:3NVC2EB65R6XURGU0TSWQLCWPATY3K", "dateTime": 1521228438637}, {"current_trial": 161, "trialdata": {"rt": -1, "trial_type": "single-stim", "word": "toaster", "stimulus": "<p id=\"stim\">TOASTER</p>", "conditions": [24, 800, "v", 12000], "internal_node_id": "0.0-116.0", "trial": 4, "time_elapsed": 746661, "serialpos": 16, "key_press": -1, "wordID": 1471, "type": "PRES_VIS", "trial_index": 161}, "uniqueid": "MTK3761:3NVC2EB65R6XURGU0TSWQLCWPATY3K", "dateTime": 1521228440491}, {"current_trial": 162, "trialdata": {"rt": -1, "trial_type": "single-stim", "word": "pigeon", "stimulus": "<p id=\"stim\">PIGEON</p>", "conditions": [24, 800, "v", 12000], "internal_node_id": "0.0-117.0", "trial": 4, "time_elapsed": 748576, "serialpos": 17, "key_press": -1, "wordID": 1064, "type": "PRES_VIS", "trial_index": 162}, "uniqueid": "MTK3761:3NVC2EB65R6XURGU0TSWQLCWPATY3K", "dateTime": 1521228442406}, {"current_trial": 163, "trialdata": {"rt": -1, "trial_type": "single-stim", "word": "buggy", "stimulus": "<p id=\"stim\">BUGGY</p>", "conditions": [24, 800, "v", 12000], "internal_node_id": "0.0-118.0", "trial": 4, "time_elapsed": 750310, "serialpos": 18, "key_press": -1, "wordID": 187, "type": "PRES_VIS", "trial_index": 163}, "uniqueid": "MTK3761:3NVC2EB65R6XURGU0TSWQLCWPATY3K", "dateTime": 1521228444140}, {"current_trial": 164, "trialdata": {"rt": -1, "trial_type": "single-stim", "word": "knife", "stimulus": "<p id=\"stim\">KNIFE</p>", "conditions": [24, 800, "v", 12000], "internal_node_id": "0.0-119.0", "trial": 4, "time_elapsed": 752219, "serialpos": 19, "key_press": -1, "wordID": 784, "type": "PRES_VIS", "trial_index": 164}, "uniqueid": "MTK3761:3NVC2EB65R6XURGU0TSWQLCWPATY3K", "dateTime": 1521228446049}, {"current_trial": 165, "trialdata": {"rt": -1, "trial_type": "single-stim", "word": "bank", "stimulus": "<p id=\"stim\">BANK</p>", "conditions": [24, 800, "v", 12000], "internal_node_id": "0.0-120.0", "trial": 4, "time_elapsed": 754058, "serialpos": 20, "key_press": -1, "wordID": 82, "type": "PRES_VIS", "trial_index": 165}, "uniqueid": "MTK3761:3NVC2EB65R6XURGU0TSWQLCWPATY3K", "dateTime": 1521228447888}, {"current_trial": 166, "trialdata": {"rt": -1, "trial_type": "single-stim", "word": "hiker", "stimulus": "<p id=\"stim\">HIKER</p>", "conditions": [24, 800, "v", 12000], "internal_node_id": "0.0-121.0", "trial": 4, "time_elapsed": 756002, "serialpos": 21, "key_press": -1, "wordID": 707, "type": "PRES_VIS", "trial_index": 166}, "uniqueid": "MTK3761:3NVC2EB65R6XURGU0TSWQLCWPATY3K", "dateTime": 1521228449832}, {"current_trial": 167, "trialdata": {"rt": -1, "trial_type": "single-stim", "word": "soda", "stimulus": "<p id=\"stim\">SODA</p>", "conditions": [24, 800, "v", 12000], "internal_node_id": "0.0-122.0", "trial": 4, "time_elapsed": 757849, "serialpos": 22, "key_press": -1, "wordID": 1340, "type": "PRES_VIS", "trial_index": 167}, "uniqueid": "MTK3761:3NVC2EB65R6XURGU0TSWQLCWPATY3K", "dateTime": 1521228451679}, {"current_trial": 168, "trialdata": {"rt": -1, "trial_type": "single-stim", "word": "popcorn", "stimulus": "<p id=\"stim\">POPCORN</p>", "conditions": [24, 800, "v", 12000], "internal_node_id": "0.0-123.0", "trial": 4, "time_elapsed": 759650, "serialpos": 23, "key_press": -1, "wordID": 1103, "type": "PRES_VIS", "trial_index": 168}, "uniqueid": "MTK3761:3NVC2EB65R6XURGU0TSWQLCWPATY3K", "dateTime": 1521228453480}, {"current_trial": 169, "trialdata": {"rt": -1, "trial_type": "single-stim", "stimulus": "", "internal_node_id": "0.0-124.0-0.0", "time_elapsed": 762167, "key_press": -1, "type": "PRE_RECALL_DELAY", "trial_index": 169}, "uniqueid": "MTK3761:3NVC2EB65R6XURGU0TSWQLCWPATY3K", "dateTime": 1521228455997}, {"current_trial": 170, "trialdata": {"rt": -1000, "trial_type": "single-audio", "stimulus": "/static/audio/400Hz.wav", "internal_node_id": "0.0-125.0", "time_elapsed": 762667, "key_press": -1, "type": "PRE_RECALL_ALERT", "trial_index": 170}, "uniqueid": "MTK3761:3NVC2EB65R6XURGU0TSWQLCWPATY3K", "dateTime": 1521228456497}, {"current_trial": 171, "trialdata": {"rt": [7318, 8574, 10648, 28087, 31113, 32335, 33367, 35369, 36965, 38740, 40908, 43504, 45372, 46783, 48971, 52763, 55264], "recwords": ["igloo", "proton", "missile", "statue", "shrub", "grill", "lamp", "banker", "friend", "mister", "toaster", "pigeon", "buggy", "knife", "bank", "hiker", "porcorn"], "key_times": [4381, 4494, 4918, 5094, 5998, 6152, 6291, 6521, 6758, 7318, 7644, 7851, 8019, 8175, 8285, 8385, 8574, 9318, 9428, 9544, 9741, 10160, 10349, 10468, 10648, 11123, 11424, 11525, 11734, 12038, 12164, 13249, 13593, 14372, 14531, 14701, 15013, 15228, 16246, 16523, 16668, 16908, 16937, 17400, 17483, 17715, 17818, 18406, 18829, 19336, 19374, 19407, 19441, 19475, 19509, 19542, 19575, 19610, 19615, 19716, 19947, 20242, 20615, 21401, 21653, 26198, 26371, 26419, 26528, 26776, 26967, 27126, 27310, 27362, 27495, 27641, 27781, 27856, 28087, 28901, 29794, 29997, 30413, 30846, 31113, 31455, 31680, 31774, 31971, 32167, 32335, 32732, 32931, 33019, 33238, 33367, 34341, 34473, 34610, 34935, 35162, 35243, 35369, 36160, 36356, 36479, 36562, 36718, 36865, 36965, 38123, 38246, 38324, 38441, 38531, 38624, 38740, 40061, 40210, 40354, 40450, 40609, 40727, 40814, 40908, 41966, 42145, 42320, 42422, 42695, 43078, 43233, 43323, 43504, 44457, 44631, 44833, 44981, 45208, 45372, 45870, 46067, 46276, 46579, 46707, 46783, 47811, 47932, 48222, 48508, 48661, 48807, 48971, 50294, 50299, 50359, 50707, 50871, 51145, 51382, 51624, 51787, 51857, 52113, 52223, 52482, 52763, 53624, 53816, 53925, 54169, 54378, 54528, 54849, 55264], "trial_type": "free-recall", "conditions": [24, 800, "v", 12000], "internal_node_id": "0.0-126.0-0.0", "key_presses": [83, 72, 8, 8, 73, 71, 76, 79, 79, 13, 80, 82, 79, 84, 79, 78, 13, 77, 73, 83, 83, 73, 76, 69, 13, 83, 67, 85, 76, 84, 85, 8, 8, 8, 8, 8, 8, 8, 80, 76, 65, 89, 84, 8, 71, 82, 65, 8, 8, 8, 8, 8, 8, 8, 8, 8, 8, 8, 83, 65, 84, 85, 68, 8, 8, 8, 8, 83, 84, 65, 8, 8, 8, 84, 65, 84, 85, 69, 13, 83, 72, 82, 85, 66, 13, 71, 82, 73, 76, 76, 13, 76, 65, 77, 80, 13, 66, 65, 78, 75, 69, 82, 13, 70, 82, 73, 69, 78, 68, 13, 77, 73, 83, 84, 69, 82, 13, 84, 79, 65, 83, 84, 69, 82, 13, 80, 73, 71, 69, 78, 8, 79, 78, 13, 66, 85, 71, 71, 89, 13, 75, 78, 73, 70, 69, 13, 66, 65, 75, 8, 78, 75, 13, 72, 71, 73, 8, 8, 79, 75, 8, 8, 73, 75, 69, 82, 13, 80, 79, 82, 67, 79, 82, 78, 13], "trial": 4, "time_elapsed": 822666, "type": "FREE_RECALL", "trial_index": 171}, "uniqueid": "MTK3761:3NVC2EB65R6XURGU0TSWQLCWPATY3K", "dateTime": 1521228516499}, {"current_trial": 172, "trialdata": {"rt": 1421, "trial_type": "text", "internal_node_id": "0.0-127.0", "time_elapsed": 826090, "key_press": 13, "type": "INSTRUCTIONS", "trial_index": 172}, "uniqueid": "MTK3761:3NVC2EB65R6XURGU0TSWQLCWPATY3K", "dateTime": 1521228519920}, {"current_trial": 173, "trialdata": {"rt": [6625, 13314, 18659], "trial_type": "math-distractor", "key_times": [6312, 6365, 6625, 13084, 13140, 13314, 18379, 18542, 18659], "responses": ["23", "21", "11"], "num2": [9, 6, 7, 7], "num3": [5, 7, 2, 9], "conditions": [24, 1600, "v", 24000], "internal_node_id": "0.0-128.0", "key_presses": [98, 99, 13, 98, 97, 13, 97, 97, 13], "trial": 5, "time_elapsed": 852091, "type": "DISTRACTOR", "trial_index": 173, "num1": [9, 8, 2, 9]}, "uniqueid": "MTK3761:3NVC2EB65R6XURGU0TSWQLCWPATY3K", "dateTime": 1521228545921}, {"current_trial": 174, "trialdata": {"rt": -1, "trial_type": "single-stim", "stimulus": "<p id=\"stim\">10</p>", "internal_node_id": "0.0-129.0-0.0", "time_elapsed": 855092, "key_press": -1, "trial_index": 174}, "uniqueid": "MTK3761:3NVC2EB65R6XURGU0TSWQLCWPATY3K", "dateTime": 1521228548922}, {"current_trial": 175, "trialdata": {"rt": -1, "trial_type": "single-stim", "stimulus": "<p id=\"stim\">9</p>", "internal_node_id": "0.0-129.0-1.0", "time_elapsed": 856092, "key_press": -1, "trial_index": 175}, "uniqueid": "MTK3761:3NVC2EB65R6XURGU0TSWQLCWPATY3K", "dateTime": 1521228549922}, {"current_trial": 176, "trialdata": {"rt": -1, "trial_type": "single-stim", "stimulus": "<p id=\"stim\">8</p>", "internal_node_id": "0.0-129.0-2.0", "time_elapsed": 857092, "key_press": -1, "trial_index": 176}, "uniqueid": "MTK3761:3NVC2EB65R6XURGU0TSWQLCWPATY3K", "dateTime": 1521228550922}, {"current_trial": 177, "trialdata": {"rt": -1, "trial_type": "single-stim", "stimulus": "<p id=\"stim\">7</p>", "internal_node_id": "0.0-129.0-3.0", "time_elapsed": 858092, "key_press": -1, "trial_index": 177}, "uniqueid": "MTK3761:3NVC2EB65R6XURGU0TSWQLCWPATY3K", "dateTime": 1521228551922}, {"current_trial": 178, "trialdata": {"rt": -1, "trial_type": "single-stim", "stimulus": "<p id=\"stim\">6</p>", "internal_node_id": "0.0-129.0-4.0", "time_elapsed": 859091, "key_press": -1, "trial_index": 178}, "uniqueid": "MTK3761:3NVC2EB65R6XURGU0TSWQLCWPATY3K", "dateTime": 1521228552921}, {"current_trial": 179, "trialdata": {"rt": -1, "trial_type": "single-stim", "stimulus": "<p id=\"stim\">5</p>", "internal_node_id": "0.0-129.0-5.0", "time_elapsed": 860093, "key_press": -1, "trial_index": 179}, "uniqueid": "MTK3761:3NVC2EB65R6XURGU0TSWQLCWPATY3K", "dateTime": 1521228553923}, {"current_trial": 180, "trialdata": {"rt": -1, "trial_type": "single-stim", "stimulus": "<p id=\"stim\">4</p>", "internal_node_id": "0.0-129.0-6.0", "time_elapsed": 861093, "key_press": -1, "trial_index": 180}, "uniqueid": "MTK3761:3NVC2EB65R6XURGU0TSWQLCWPATY3K", "dateTime": 1521228554923}, {"current_trial": 181, "trialdata": {"rt": -1, "trial_type": "single-stim", "stimulus": "<p id=\"stim\">3</p>", "internal_node_id": "0.0-129.0-7.0", "time_elapsed": 862093, "key_press": -1, "trial_index": 181}, "uniqueid": "MTK3761:3NVC2EB65R6XURGU0TSWQLCWPATY3K", "dateTime": 1521228555923}, {"current_trial": 182, "trialdata": {"rt": -1, "trial_type": "single-stim", "stimulus": "<p id=\"stim\">2</p>", "internal_node_id": "0.0-129.0-8.0", "time_elapsed": 863093, "key_press": -1, "trial_index": 182}, "uniqueid": "MTK3761:3NVC2EB65R6XURGU0TSWQLCWPATY3K", "dateTime": 1521228556923}, {"current_trial": 183, "trialdata": {"rt": -1, "trial_type": "single-stim", "stimulus": "<p id=\"stim\">1</p>", "internal_node_id": "0.0-129.0-9.0", "time_elapsed": 864092, "key_press": -1, "trial_index": 183}, "uniqueid": "MTK3761:3NVC2EB65R6XURGU0TSWQLCWPATY3K", "dateTime": 1521228557922}, {"current_trial": 184, "trialdata": {"rt": -1, "trial_type": "single-stim", "stimulus": "<p id=\"stim\">+</p>", "internal_node_id": "0.0-130.0-0.0", "time_elapsed": 865592, "key_press": -1, "type": "FIXATION", "trial_index": 184}, "uniqueid": "MTK3761:3NVC2EB65R6XURGU0TSWQLCWPATY3K", "dateTime": 1521228559422}, {"current_trial": 185, "trialdata": {"rt": -1, "trial_type": "single-stim", "word": "stove", "stimulus": "<p id=\"stim\">STOVE</p>", "conditions": [24, 1600, "v", 24000], "internal_node_id": "0.0-131.0", "trial": 5, "time_elapsed": 867193, "serialpos": 0, "key_press": -1, "wordID": 1387, "type": "PRES_VIS", "trial_index": 185}, "uniqueid": "MTK3761:3NVC2EB65R6XURGU0TSWQLCWPATY3K", "dateTime": 1521228561023}, {"current_trial": 186, "trialdata": {"rt": -1, "trial_type": "single-stim", "word": "custard", "stimulus": "<p id=\"stim\">CUSTARD</p>", "conditions": [24, 1600, "v", 24000], "internal_node_id": "0.0-132.0", "trial": 5, "time_elapsed": 869696, "serialpos": 1, "key_press": -1, "wordID": 428, "type": "PRES_VIS", "trial_index": 186}, "uniqueid": "MTK3761:3NVC2EB65R6XURGU0TSWQLCWPATY3K", "dateTime": 1521228563526}, {"current_trial": 187, "trialdata": {"rt": -1, "trial_type": "single-stim", "word": "costume", "stimulus": "<p id=\"stim\">COSTUME</p>", "conditions": [24, 1600, "v", 24000], "internal_node_id": "0.0-133.0", "trial": 5, "time_elapsed": 872231, "serialpos": 2, "key_press": -1, "wordID": 382, "type": "PRES_VIS", "trial_index": 187}, "uniqueid": "MTK3761:3NVC2EB65R6XURGU0TSWQLCWPATY3K", "dateTime": 1521228566061}, {"current_trial": 188, "trialdata": {"rt": -1, "trial_type": "single-stim", "word": "pepper", "stimulus": "<p id=\"stim\">PEPPER</p>", "conditions": [24, 1600, "v", 24000], "internal_node_id": "0.0-134.0", "trial": 5, "time_elapsed": 875014, "serialpos": 3, "key_press": -1, "wordID": 1046, "type": "PRES_VIS", "trial_index": 188}, "uniqueid": "MTK3761:3NVC2EB65R6XURGU0TSWQLCWPATY3K", "dateTime": 1521228568844}, {"current_trial": 189, "trialdata": {"rt": -1, "trial_type": "single-stim", "word": "paddle", "stimulus": "<p id=\"stim\">PADDLE</p>", "conditions": [24, 1600, "v", 24000], "internal_node_id": "0.0-135.0", "trial": 5, "time_elapsed": 877529, "serialpos": 4, "key_press": -1, "wordID": 999, "type": "PRES_VIS", "trial_index": 189}, "uniqueid": "MTK3761:3NVC2EB65R6XURGU0TSWQLCWPATY3K", "dateTime": 1521228571359}, {"current_trial": 190, "trialdata": {"rt": -1, "trial_type": "single-stim", "word": "pluto", "stimulus": "<p id=\"stim\">PLUTO</p>", "conditions": [24, 1600, "v", 24000], "internal_node_id": "0.0-136.0", "trial": 5, "time_elapsed": 880190, "serialpos": 5, "key_press": -1, "wordID": 1091, "type": "PRES_VIS", "trial_index": 190}, "uniqueid": "MTK3761:3NVC2EB65R6XURGU0TSWQLCWPATY3K", "dateTime": 1521228574020}, {"current_trial": 191, "trialdata": {"rt": -1, "trial_type": "single-stim", "word": "dragon", "stimulus": "<p id=\"stim\">DRAGON</p>", "conditions": [24, 1600, "v", 24000], "internal_node_id": "0.0-137.0", "trial": 5, "time_elapsed": 882900, "serialpos": 6, "key_press": -1, "wordID": 491, "type": "PRES_VIS", "trial_index": 191}, "uniqueid": "MTK3761:3NVC2EB65R6XURGU0TSWQLCWPATY3K", "dateTime": 1521228576730}, {"current_trial": 192, "trialdata": {"rt": -1, "trial_type": "single-stim", "word": "salmon", "stimulus": "<p id=\"stim\">SALMON</p>", "conditions": [24, 1600, "v", 24000], "internal_node_id": "0.0-138.0", "trial": 5, "time_elapsed": 885588, "serialpos": 7, "key_press": -1, "wordID": 1226, "type": "PRES_VIS", "trial_index": 192}, "uniqueid": "MTK3761:3NVC2EB65R6XURGU0TSWQLCWPATY3K", "dateTime": 1521228579418}, {"current_trial": 193, "trialdata": {"rt": -1, "trial_type": "single-stim", "word": "taxi", "stimulus": "<p id=\"stim\">TAXI</p>", "conditions": [24, 1600, "v", 24000], "internal_node_id": "0.0-139.0", "trial": 5, "time_elapsed": 888376, "serialpos": 8, "key_press": -1, "wordID": 1437, "type": "PRES_VIS", "trial_index": 193}, "uniqueid": "MTK3761:3NVC2EB65R6XURGU0TSWQLCWPATY3K", "dateTime": 1521228582206}, {"current_trial": 194, "trialdata": {"rt": -1, "trial_type": "single-stim", "word": "peach", "stimulus": "<p id=\"stim\">PEACH</p>", "conditions": [24, 1600, "v", 24000], "internal_node_id": "0.0-140.0", "trial": 5, "time_elapsed": 890966, "serialpos": 9, "key_press": -1, "wordID": 1030, "type": "PRES_VIS", "trial_index": 194}, "uniqueid": "MTK3761:3NVC2EB65R6XURGU0TSWQLCWPATY3K", "dateTime": 1521228584796}, {"current_trial": 195, "trialdata": {"rt": -1, "trial_type": "single-stim", "word": "apple", "stimulus": "<p id=\"stim\">APPLE</p>", "conditions": [24, 1600, "v", 24000], "internal_node_id": "0.0-141.0", "trial": 5, "time_elapsed": 893480, "serialpos": 10, "key_press": -1, "wordID": 32, "type": "PRES_VIS", "trial_index": 195}, "uniqueid": "MTK3761:3NVC2EB65R6XURGU0TSWQLCWPATY3K", "dateTime": 1521228587310}, {"current_trial": 196, "trialdata": {"rt": -1, "trial_type": "single-stim", "word": "trout", "stimulus": "<p id=\"stim\">TROUT</p>", "conditions": [24, 1600, "v", 24000], "internal_node_id": "0.0-142.0", "trial": 5, "time_elapsed": 896116, "serialpos": 11, "key_press": -1, "wordID": 1510, "type": "PRES_VIS", "trial_index": 196}, "uniqueid": "MTK3761:3NVC2EB65R6XURGU0TSWQLCWPATY3K", "dateTime": 1521228589946}, {"current_trial": 197, "trialdata": {"rt": -1, "trial_type": "single-stim", "word": "pilot", "stimulus": "<p id=\"stim\">PILOT</p>", "conditions": [24, 1600, "v", 24000], "internal_node_id": "0.0-143.0", "trial": 5, "time_elapsed": 898814, "serialpos": 12, "key_press": -1, "wordID": 1069, "type": "PRES_VIS", "trial_index": 197}, "uniqueid": "MTK3761:3NVC2EB65R6XURGU0TSWQLCWPATY3K", "dateTime": 1521228592644}, {"current_trial": 198, "trialdata": {"rt": -1, "trial_type": "single-stim", "word": "donor", "stimulus": "<p id=\"stim\">DONOR</p>", "conditions": [24, 1600, "v", 24000], "internal_node_id": "0.0-144.0", "trial": 5, "time_elapsed": 901565, "serialpos": 13, "key_press": -1, "wordID": 484, "type": "PRES_VIS", "trial_index": 198}, "uniqueid": "MTK3761:3NVC2EB65R6XURGU0TSWQLCWPATY3K", "dateTime": 1521228595395}, {"current_trial": 199, "trialdata": {"rt": -1, "trial_type": "single-stim", "word": "brandy", "stimulus": "<p id=\"stim\">BRANDY</p>", "conditions": [24, 1600, "v", 24000], "internal_node_id": "0.0-145.0", "trial": 5, "time_elapsed": 904358, "serialpos": 14, "key_press": -1, "wordID": 168, "type": "PRES_VIS", "trial_index": 199}, "uniqueid": "MTK3761:3NVC2EB65R6XURGU0TSWQLCWPATY3K", "dateTime": 1521228598188}, {"current_trial": 200, "trialdata": {"rt": -1, "trial_type": "single-stim", "word": "beast", "stimulus": "<p id=\"stim\">BEAST</p>", "conditions": [24, 1600, "v", 24000], "internal_node_id": "0.0-146.0", "trial": 5, "time_elapsed": 906855, "serialpos": 15, "key_press": -1, "wordID": 107, "type": "PRES_VIS", "trial_index": 200}, "uniqueid": "MTK3761:3NVC2EB65R6XURGU0TSWQLCWPATY3K", "dateTime": 1521228600685}, {"current_trial": 201, "trialdata": {"rt": -1, "trial_type": "single-stim", "word": "county", "stimulus": "<p id=\"stim\">COUNTY</p>", "conditions": [24, 1600, "v", 24000], "internal_node_id": "0.0-147.0", "trial": 5, "time_elapsed": 909418, "serialpos": 16, "key_press": -1, "wordID": 388, "type": "PRES_VIS", "trial_index": 201}, "uniqueid": "MTK3761:3NVC2EB65R6XURGU0TSWQLCWPATY3K", "dateTime": 1521228603248}, {"current_trial": 202, "trialdata": {"rt": -1, "trial_type": "single-stim", "word": "cafe", "stimulus": "<p id=\"stim\">CAFE</p>", "conditions": [24, 1600, "v", 24000], "internal_node_id": "0.0-148.0", "trial": 5, "time_elapsed": 912166, "serialpos": 17, "key_press": -1, "wordID": 215, "type": "PRES_VIS", "trial_index": 202}, "uniqueid": "MTK3761:3NVC2EB65R6XURGU0TSWQLCWPATY3K", "dateTime": 1521228605996}, {"current_trial": 203, "trialdata": {"rt": -1, "trial_type": "single-stim", "word": "diver", "stimulus": "<p id=\"stim\">DIVER</p>", "conditions": [24, 1600, "v", 24000], "internal_node_id": "0.0-149.0", "trial": 5, "time_elapsed": 914831, "serialpos": 18, "key_press": -1, "wordID": 475, "type": "PRES_VIS", "trial_index": 203}, "uniqueid": "MTK3761:3NVC2EB65R6XURGU0TSWQLCWPATY3K", "dateTime": 1521228608661}, {"current_trial": 204, "trialdata": {"rt": -1, "trial_type": "single-stim", "word": "drink", "stimulus": "<p id=\"stim\">DRINK</p>", "conditions": [24, 1600, "v", 24000], "internal_node_id": "0.0-150.0", "trial": 5, "time_elapsed": 917430, "serialpos": 19, "key_press": -1, "wordID": 497, "type": "PRES_VIS", "trial_index": 204}, "uniqueid": "MTK3761:3NVC2EB65R6XURGU0TSWQLCWPATY3K", "dateTime": 1521228611260}, {"current_trial": 205, "trialdata": {"rt": -1, "trial_type": "single-stim", "word": "coffee", "stimulus": "<p id=\"stim\">COFFEE</p>", "conditions": [24, 1600, "v", 24000], "internal_node_id": "0.0-151.0", "trial": 5, "time_elapsed": 919863, "serialpos": 20, "key_press": -1, "wordID": 340, "type": "PRES_VIS", "trial_index": 205}, "uniqueid": "MTK3761:3NVC2EB65R6XURGU0TSWQLCWPATY3K", "dateTime": 1521228613693}, {"current_trial": 206, "trialdata": {"rt": -1, "trial_type": "single-stim", "word": "sheriff", "stimulus": "<p id=\"stim\">SHERIFF</p>", "conditions": [24, 1600, "v", 24000], "internal_node_id": "0.0-152.0", "trial": 5, "time_elapsed": 922402, "serialpos": 21, "key_press": -1, "wordID": 1283, "type": "PRES_VIS", "trial_index": 206}, "uniqueid": "MTK3761:3NVC2EB65R6XURGU0TSWQLCWPATY3K", "dateTime": 1521228616232}, {"current_trial": 207, "trialdata": {"rt": -1, "trial_type": "single-stim", "word": "mailman", "stimulus": "<p id=\"stim\">MAILMAN</p>", "conditions": [24, 1600, "v", 24000], "internal_node_id": "0.0-153.0", "trial": 5, "time_elapsed": 924860, "serialpos": 22, "key_press": -1, "wordID": 857, "type": "PRES_VIS", "trial_index": 207}, "uniqueid": "MTK3761:3NVC2EB65R6XURGU0TSWQLCWPATY3K", "dateTime": 1521228618690}, {"current_trial": 208, "trialdata": {"rt": -1, "trial_type": "single-stim", "word": "mailbox", "stimulus": "<p id=\"stim\">MAILBOX</p>", "conditions": [24, 1600, "v", 24000], "internal_node_id": "0.0-154.0", "trial": 5, "time_elapsed": 927657, "serialpos": 23, "key_press": -1, "wordID": 856, "type": "PRES_VIS", "trial_index": 208}, "uniqueid": "MTK3761:3NVC2EB65R6XURGU0TSWQLCWPATY3K", "dateTime": 1521228621487}, {"current_trial": 209, "trialdata": {"rt": -1, "trial_type": "single-stim", "stimulus": "", "internal_node_id": "0.0-155.0-0.0", "time_elapsed": 930013, "key_press": -1, "type": "PRE_RECALL_DELAY", "trial_index": 209}, "uniqueid": "MTK3761:3NVC2EB65R6XURGU0TSWQLCWPATY3K", "dateTime": 1521228623843}, {"current_trial": 210, "trialdata": {"rt": -1000, "trial_type": "single-audio", "stimulus": "/static/audio/400Hz.wav", "internal_node_id": "0.0-156.0", "time_elapsed": 930513, "key_press": -1, "type": "PRE_RECALL_ALERT", "trial_index": 210}, "uniqueid": "MTK3761:3NVC2EB65R6XURGU0TSWQLCWPATY3K", "dateTime": 1521228624343}, {"current_trial": 211, "trialdata": {"rt": [4327, 7085, 8793, 13855, 15341, 18085, 20021, 22050, 27432, 29135, 30926, 33096, 36059, 41026, 43271, 44253, 46225, 48774, 49947, 51048, 53680, 56148, 57913, 59644], "recwords": ["stoeve", "custard", "costume", "paddle", "pepper", "pluto", "dragon", "salmon", "peach", "taxi", "apple", "trout", "pilot", "branfyt", "brandy", "beast", "donor", "country", "cafe", "diver", "drin", "drink", "cofee", "sheriff"], "key_times": [3523, 3703, 3809, 3956, 4127, 4213, 4327, 5236, 5473, 5603, 5796, 5939, 6075, 6532, 6776, 6972, 7085, 7675, 7792, 8032, 8202, 8332, 8475, 8622, 8793, 12978, 13105, 13228, 13491, 13628, 13711, 13855, 14107, 14295, 14759, 14955, 15105, 15175, 15341, 16156, 16527, 16799, 17281, 17630, 18085, 19106, 19285, 19408, 19566, 19660, 19816, 20021, 21095, 21229, 21359, 21515, 21702, 21859, 22050, 26430, 26672, 26782, 27065, 27225, 27432, 27802, 27959, 28245, 28918, 29135, 29462, 29602, 30438, 30534, 30676, 30926, 31781, 31986, 32231, 32434, 32625, 33096, 34428, 34611, 34907, 35085, 35222, 35515, 35613, 36059, 37094, 37729, 39936, 40054, 40150, 40277, 40590, 40908, 40912, 41026, 42048, 42193, 42325, 42520, 42666, 42993, 43271, 43561, 43680, 43759, 43895, 44103, 44253, 44567, 44700, 45011, 45464, 45666, 45986, 46103, 46225, 46523, 46602, 46808, 46915, 47013, 48255, 48521, 48774, 49068, 49226, 49426, 49601, 49947, 50322, 50434, 50589, 50797, 50871, 51048, 53132, 53360, 53444, 53523, 53680, 55151, 55350, 55505, 55781, 55897, 56148, 56384, 56548, 56993, 57108, 57385, 57913, 58275, 58388, 58543, 58699, 58835, 59000, 59447, 59644], "trial_type": "free-recall", "conditions": [24, 1600, "v", 24000], "internal_node_id": "0.0-157.0-0.0", "key_presses": [83, 84, 79, 69, 86, 69, 13, 67, 85, 83, 84, 65, 82, 8, 82, 68, 13, 67, 79, 83, 84, 85, 77, 69, 13, 80, 65, 68, 68, 76, 69, 13, 80, 69, 80, 80, 69, 82, 13, 80, 76, 85, 84, 79, 13, 68, 82, 65, 71, 79, 78, 13, 83, 65, 76, 77, 79, 78, 13, 80, 69, 65, 67, 72, 13, 84, 65, 88, 73, 13, 65, 80, 80, 76, 69, 13, 84, 82, 79, 85, 84, 13, 80, 73, 76, 79, 82, 8, 84, 13, 68, 8, 66, 82, 65, 78, 70, 89, 84, 13, 66, 82, 65, 78, 68, 89, 13, 66, 69, 65, 83, 84, 13, 68, 79, 79, 8, 78, 79, 82, 13, 67, 79, 85, 78, 84, 82, 89, 13, 67, 65, 70, 69, 13, 68, 73, 86, 69, 82, 13, 68, 82, 73, 78, 13, 68, 82, 73, 78, 75, 13, 67, 79, 70, 69, 69, 13, 83, 72, 69, 82, 73, 70, 70, 13], "trial": 5, "time_elapsed": 990513, "type": "FREE_RECALL", "trial_index": 211}, "uniqueid": "MTK3761:3NVC2EB65R6XURGU0TSWQLCWPATY3K", "dateTime": 1521228684346}, {"current_trial": 212, "trialdata": {"rt": 4620, "trial_type": "text", "internal_node_id": "0.0-158.0", "time_elapsed": 997137, "key_press": 13, "type": "INSTRUCTIONS", "trial_index": 212}, "uniqueid": "MTK3761:3NVC2EB65R6XURGU0TSWQLCWPATY3K", "dateTime": 1521228690967}, {"current_trial": 213, "trialdata": {"rt": [7438, 11173, 13170, 17260], "trial_type": "math-distractor", "key_times": [7127, 7228, 7438, 10080, 10791, 10921, 10967, 11173, 12826, 13012, 13170, 15955, 16312, 17087, 17260], "responses": ["13", "15", "20", "8"], "num2": [4, 5, 9, 5, 8], "num3": [7, 9, 2, 2, 7], "conditions": [24, 1600, "v", 24000], "internal_node_id": "0.0-159.0", "key_presses": [97, 99, 13, 101, 8, 97, 101, 13, 98, 96, 13, 104, 99, 8, 13], "trial": 6, "time_elapsed": 1023138, "type": "DISTRACTOR", "trial_index": 213, "num1": [2, 1, 9, 1, 6]}, "uniqueid": "MTK3761:3NVC2EB65R6XURGU0TSWQLCWPATY3K", "dateTime": 1521228716968}, {"current_trial": 214, "trialdata": {"rt": -1, "trial_type": "single-stim", "stimulus": "<p id=\"stim\">10</p>", "internal_node_id": "0.0-160.0-0.0", "time_elapsed": 1026138, "key_press": -1, "trial_index": 214}, "uniqueid": "MTK3761:3NVC2EB65R6XURGU0TSWQLCWPATY3K", "dateTime": 1521228719968}, {"current_trial": 215, "trialdata": {"rt": -1, "trial_type": "single-stim", "stimulus": "<p id=\"stim\">9</p>", "internal_node_id": "0.0-160.0-1.0", "time_elapsed": 1027138, "key_press": -1, "trial_index": 215}, "uniqueid": "MTK3761:3NVC2EB65R6XURGU0TSWQLCWPATY3K", "dateTime": 1521228720968}, {"current_trial": 216, "trialdata": {"rt": -1, "trial_type": "single-stim", "stimulus": "<p id=\"stim\">8</p>", "internal_node_id": "0.0-160.0-2.0", "time_elapsed": 1028138, "key_press": -1, "trial_index": 216}, "uniqueid": "MTK3761:3NVC2EB65R6XURGU0TSWQLCWPATY3K", "dateTime": 1521228721968}, {"current_trial": 217, "trialdata": {"rt": -1, "trial_type": "single-stim", "stimulus": "<p id=\"stim\">7</p>", "internal_node_id": "0.0-160.0-3.0", "time_elapsed": 1029139, "key_press": -1, "trial_index": 217}, "uniqueid": "MTK3761:3NVC2EB65R6XURGU0TSWQLCWPATY3K", "dateTime": 1521228722969}, {"current_trial": 218, "trialdata": {"rt": -1, "trial_type": "single-stim", "stimulus": "<p id=\"stim\">6</p>", "internal_node_id": "0.0-160.0-4.0", "time_elapsed": 1030139, "key_press": -1, "trial_index": 218}, "uniqueid": "MTK3761:3NVC2EB65R6XURGU0TSWQLCWPATY3K", "dateTime": 1521228723969}, {"current_trial": 219, "trialdata": {"rt": -1, "trial_type": "single-stim", "stimulus": "<p id=\"stim\">5</p>", "internal_node_id": "0.0-160.0-5.0", "time_elapsed": 1031139, "key_press": -1, "trial_index": 219}, "uniqueid": "MTK3761:3NVC2EB65R6XURGU0TSWQLCWPATY3K", "dateTime": 1521228724969}, {"current_trial": 220, "trialdata": {"rt": -1, "trial_type": "single-stim", "stimulus": "<p id=\"stim\">4</p>", "internal_node_id": "0.0-160.0-6.0", "time_elapsed": 1032139, "key_press": -1, "trial_index": 220}, "uniqueid": "MTK3761:3NVC2EB65R6XURGU0TSWQLCWPATY3K", "dateTime": 1521228725970}, {"current_trial": 221, "trialdata": {"rt": -1, "trial_type": "single-stim", "stimulus": "<p id=\"stim\">3</p>", "internal_node_id": "0.0-160.0-7.0", "time_elapsed": 1033140, "key_press": -1, "trial_index": 221}, "uniqueid": "MTK3761:3NVC2EB65R6XURGU0TSWQLCWPATY3K", "dateTime": 1521228726970}, {"current_trial": 222, "trialdata": {"rt": -1, "trial_type": "single-stim", "stimulus": "<p id=\"stim\">2</p>", "internal_node_id": "0.0-160.0-8.0", "time_elapsed": 1034140, "key_press": -1, "trial_index": 222}, "uniqueid": "MTK3761:3NVC2EB65R6XURGU0TSWQLCWPATY3K", "dateTime": 1521228727970}, {"current_trial": 223, "trialdata": {"rt": -1, "trial_type": "single-stim", "stimulus": "<p id=\"stim\">1</p>", "internal_node_id": "0.0-160.0-9.0", "time_elapsed": 1035140, "key_press": -1, "trial_index": 223}, "uniqueid": "MTK3761:3NVC2EB65R6XURGU0TSWQLCWPATY3K", "dateTime": 1521228728970}, {"current_trial": 224, "trialdata": {"rt": -1, "trial_type": "single-stim", "stimulus": "<p id=\"stim\">+</p>", "internal_node_id": "0.0-161.0-0.0", "time_elapsed": 1036640, "key_press": -1, "type": "FIXATION", "trial_index": 224}, "uniqueid": "MTK3761:3NVC2EB65R6XURGU0TSWQLCWPATY3K", "dateTime": 1521228730470}, {"current_trial": 225, "trialdata": {"rt": -1, "trial_type": "single-stim", "word": "gallon", "stimulus": "<p id=\"stim\">GALLON</p>", "conditions": [24, 1600, "v", 24000], "internal_node_id": "0.0-162.0", "trial": 6, "time_elapsed": 1038241, "serialpos": 0, "key_press": -1, "wordID": 617, "type": "PRES_VIS", "trial_index": 225}, "uniqueid": "MTK3761:3NVC2EB65R6XURGU0TSWQLCWPATY3K", "dateTime": 1521228732071}, {"current_trial": 226, "trialdata": {"rt": -1, "trial_type": "single-stim", "word": "shovel", "stimulus": "<p id=\"stim\">SHOVEL</p>", "conditions": [24, 1600, "v", 24000], "internal_node_id": "0.0-163.0", "trial": 6, "time_elapsed": 1041006, "serialpos": 1, "key_press": -1, "wordID": 1294, "type": "PRES_VIS", "trial_index": 226}, "uniqueid": "MTK3761:3NVC2EB65R6XURGU0TSWQLCWPATY3K", "dateTime": 1521228734836}, {"current_trial": 227, "trialdata": {"rt": -1, "trial_type": "single-stim", "word": "scallop", "stimulus": "<p id=\"stim\">SCALLOP</p>", "conditions": [24, 1600, "v", 24000], "internal_node_id": "0.0-164.0", "trial": 6, "time_elapsed": 1043647, "serialpos": 2, "key_press": -1, "wordID": 1241, "type": "PRES_VIS", "trial_index": 227}, "uniqueid": "MTK3761:3NVC2EB65R6XURGU0TSWQLCWPATY3K", "dateTime": 1521228737477}, {"current_trial": 228, "trialdata": {"rt": -1, "trial_type": "single-stim", "word": "cook", "stimulus": "<p id=\"stim\">COOK</p>", "conditions": [24, 1600, "v", 24000], "internal_node_id": "0.0-165.0", "trial": 6, "time_elapsed": 1046352, "serialpos": 3, "key_press": -1, "wordID": 371, "type": "PRES_VIS", "trial_index": 228}, "uniqueid": "MTK3761:3NVC2EB65R6XURGU0TSWQLCWPATY3K", "dateTime": 1521228740182}, {"current_trial": 229, "trialdata": {"rt": -1, "trial_type": "single-stim", "word": "empire", "stimulus": "<p id=\"stim\">EMPIRE</p>", "conditions": [24, 1600, "v", 24000], "internal_node_id": "0.0-166.0", "trial": 6, "time_elapsed": 1049121, "serialpos": 4, "key_press": -1, "wordID": 529, "type": "PRES_VIS", "trial_index": 229}, "uniqueid": "MTK3761:3NVC2EB65R6XURGU0TSWQLCWPATY3K", "dateTime": 1521228742951}, {"current_trial": 230, "trialdata": {"rt": -1, "trial_type": "single-stim", "word": "apron", "stimulus": "<p id=\"stim\">APRON</p>", "conditions": [24, 1600, "v", 24000], "internal_node_id": "0.0-167.0", "trial": 6, "time_elapsed": 1051858, "serialpos": 5, "key_press": -1, "wordID": 34, "type": "PRES_VIS", "trial_index": 230}, "uniqueid": "MTK3761:3NVC2EB65R6XURGU0TSWQLCWPATY3K", "dateTime": 1521228745688}, {"current_trial": 231, "trialdata": {"rt": -1, "trial_type": "single-stim", "word": "chemist", "stimulus": "<p id=\"stim\">CHEMIST</p>", "conditions": [24, 1600, "v", 24000], "internal_node_id": "0.0-168.0", "trial": 6, "time_elapsed": 1054550, "serialpos": 6, "key_press": -1, "wordID": 291, "type": "PRES_VIS", "trial_index": 231}, "uniqueid": "MTK3761:3NVC2EB65R6XURGU0TSWQLCWPATY3K", "dateTime": 1521228748380}, {"current_trial": 232, "trialdata": {"rt": -1, "trial_type": "single-stim", "word": "clam", "stimulus": "<p id=\"stim\">CLAM</p>", "conditions": [24, 1600, "v", 24000], "internal_node_id": "0.0-169.0", "trial": 6, "time_elapsed": 1057042, "serialpos": 7, "key_press": -1, "wordID": 314, "type": "PRES_VIS", "trial_index": 232}, "uniqueid": "MTK3761:3NVC2EB65R6XURGU0TSWQLCWPATY3K", "dateTime": 1521228750872}, {"current_trial": 233, "trialdata": {"rt": -1, "trial_type": "single-stim", "word": "oyster", "stimulus": "<p id=\"stim\">OYSTER</p>", "conditions": [24, 1600, "v", 24000], "internal_node_id": "0.0-170.0", "trial": 6, "time_elapsed": 1059489, "serialpos": 8, "key_press": -1, "wordID": 994, "type": "PRES_VIS", "trial_index": 233}, "uniqueid": "MTK3761:3NVC2EB65R6XURGU0TSWQLCWPATY3K", "dateTime": 1521228753319}, {"current_trial": 234, "trialdata": {"rt": -1, "trial_type": "single-stim", "word": "spool", "stimulus": "<p id=\"stim\">SPOOL</p>", "conditions": [24, 1600, "v", 24000], "internal_node_id": "0.0-171.0", "trial": 6, "time_elapsed": 1062181, "serialpos": 9, "key_press": -1, "wordID": 1355, "type": "PRES_VIS", "trial_index": 234}, "uniqueid": "MTK3761:3NVC2EB65R6XURGU0TSWQLCWPATY3K", "dateTime": 1521228756011}, {"current_trial": 235, "trialdata": {"rt": -1, "trial_type": "single-stim", "word": "barrel", "stimulus": "<p id=\"stim\">BARREL</p>", "conditions": [24, 1600, "v", 24000], "internal_node_id": "0.0-172.0", "trial": 6, "time_elapsed": 1064914, "serialpos": 10, "key_press": -1, "wordID": 90, "type": "PRES_VIS", "trial_index": 235}, "uniqueid": "MTK3761:3NVC2EB65R6XURGU0TSWQLCWPATY3K", "dateTime": 1521228758744}, {"current_trial": 236, "trialdata": {"rt": -1, "trial_type": "single-stim", "word": "fleet", "stimulus": "<p id=\"stim\">FLEET</p>", "conditions": [24, 1600, "v", 24000], "internal_node_id": "0.0-173.0", "trial": 6, "time_elapsed": 1067531, "serialpos": 11, "key_press": -1, "wordID": 577, "type": "PRES_VIS", "trial_index": 236}, "uniqueid": "MTK3761:3NVC2EB65R6XURGU0TSWQLCWPATY3K", "dateTime": 1521228761361}, {"current_trial": 237, "trialdata": {"rt": -1, "trial_type": "single-stim", "word": "monster", "stimulus": "<p id=\"stim\">MONSTER</p>", "conditions": [24, 1600, "v", 24000], "internal_node_id": "0.0-174.0", "trial": 6, "time_elapsed": 1070130, "serialpos": 12, "key_press": -1, "wordID": 911, "type": "PRES_VIS", "trial_index": 237}, "uniqueid": "MTK3761:3NVC2EB65R6XURGU0TSWQLCWPATY3K", "dateTime": 1521228763960}, {"current_trial": 238, "trialdata": {"rt": -1, "trial_type": "single-stim", "word": "bunny", "stimulus": "<p id=\"stim\">BUNNY</p>", "conditions": [24, 1600, "v", 24000], "internal_node_id": "0.0-175.0", "trial": 6, "time_elapsed": 1072534, "serialpos": 13, "key_press": -1, "wordID": 197, "type": "PRES_VIS", "trial_index": 238}, "uniqueid": "MTK3761:3NVC2EB65R6XURGU0TSWQLCWPATY3K", "dateTime": 1521228766364}, {"current_trial": 239, "trialdata": {"rt": -1, "trial_type": "single-stim", "word": "briefcase", "stimulus": "<p id=\"stim\">BRIEFCASE</p>", "conditions": [24, 1600, "v", 24000], "internal_node_id": "0.0-176.0", "trial": 6, "time_elapsed": 1075091, "serialpos": 14, "key_press": -1, "wordID": 174, "type": "PRES_VIS", "trial_index": 239}, "uniqueid": "MTK3761:3NVC2EB65R6XURGU0TSWQLCWPATY3K", "dateTime": 1521228768921}, {"current_trial": 240, "trialdata": {"rt": -1, "trial_type": "single-stim", "word": "lettuce", "stimulus": "<p id=\"stim\">LETTUCE</p>", "conditions": [24, 1600, "v", 24000], "internal_node_id": "0.0-177.0", "trial": 6, "time_elapsed": 1077681, "serialpos": 15, "key_press": -1, "wordID": 813, "type": "PRES_VIS", "trial_index": 240}, "uniqueid": "MTK3761:3NVC2EB65R6XURGU0TSWQLCWPATY3K", "dateTime": 1521228771511}, {"current_trial": 241, "trialdata": {"rt": -1, "trial_type": "single-stim", "word": "yarn", "stimulus": "<p id=\"stim\">YARN</p>", "conditions": [24, 1600, "v", 24000], "internal_node_id": "0.0-178.0", "trial": 6, "time_elapsed": 1080418, "serialpos": 16, "key_press": -1, "wordID": 1630, "type": "PRES_VIS", "trial_index": 241}, "uniqueid": "MTK3761:3NVC2EB65R6XURGU0TSWQLCWPATY3K", "dateTime": 1521228774248}, {"current_tr