{"assignmentId": "3JJVG1YBEC44VYAN4K25X7CFIKP5BZ", "workerId": "MTK3614", "questiondata": {"avail_screen_height": 709, "color_depth": 24, "screen_width": 1280, "pixel_depth": 24, "avail_screen_width": 1280, "screen_height": 800}, "bonus": 0, "hitId": "3DGDV62G7OGCDBUGF4D650I8U01P23", "counterbalance": 2614, "useragent": "Mozilla/5.0 (Macintosh; Intel Mac OS X 10_13_3) AppleWebKit/537.36 (KHTML, like Gecko) Chrome/64.0.3282.186 Safari/537.36", "eventdata": [{"eventtype": "initialized", "interval": 0, "value": null, "timestamp": 1520808478544}, {"eventtype": "window_resize", "interval": 0, "value": [1280, 665], "timestamp": 1520808478544}, {"eventtype": "focus", "interval": 1322783, "value": "off", "timestamp": 1520809801327}, {"eventtype": "focus", "interval": 5104, "value": "on", "timestamp": 1520809806431}, {"eventtype": "focus", "interval": 940427, "value": "off", "timestamp": 1520810746858}, {"eventtype": "focus", "interval": 28785, "value": "on", "timestamp": 1520810775643}], "data": [{"current_trial": 0, "trialdata": {"rt": 2385, "trial_type": "text", "internal_node_id": "0.0-0.0", "time_elapsed": 2387, "key_press": 32, "type": "INSTRUCTIONS", "trial_index": 0}, "uniqueid": "MTK3614:3JJVG1YBEC44VYAN4K25X7CFIKP5BZ", "dateTime": 1520808481799}, {"current_trial": 1, "trialdata": {"rt": 11772, "trial_type": "text", "internal_node_id": "0.0-1.0", "time_elapsed": 14160, "key_press": 32, "type": "INSTRUCTIONS", "trial_index": 1}, "uniqueid": "MTK3614:3JJVG1YBEC44VYAN4K25X7CFIKP5BZ", "dateTime": 1520808493572}, {"current_trial": 2, "trialdata": {"rt": [11119], "trial_type": "audio-test", "responses": ["ocean"], "internal_node_id": "0.0-2.0", "time_elapsed": 25292, "type": "AUDIO_TEST", "trial_index": 2}, "uniqueid": "MTK3614:3JJVG1YBEC44VYAN4K25X7CFIKP5BZ", "dateTime": 1520808504704}, {"current_trial": 3, "trialdata": {"rt": [5961], "trial_type": "audio-test", "responses": ["crystal"], "internal_node_id": "0.0-3.0", "time_elapsed": 31255, "type": "AUDIO_TEST", "trial_index": 3}, "uniqueid": "MTK3614:3JJVG1YBEC44VYAN4K25X7CFIKP5BZ", "dateTime": 1520808510667}, {"current_trial": 4, "trialdata": {"rt": [4939], "trial_type": "audio-test", "responses": ["spice"], "internal_node_id": "0.0-4.0", "time_elapsed": 36198, "type": "AUDIO_TEST", "trial_index": 4}, "uniqueid": "MTK3614:3JJVG1YBEC44VYAN4K25X7CFIKP5BZ", "dateTime": 1520808515610}, {"current_trial": 5, "trialdata": {"rt": 20911, "trial_type": "survey-text", "responses": "{\"Q0\":\"11:30PM\",\"Q1\":\"7:30AM\",\"Q2\":\"3\"}", "internal_node_id": "0.0-5.0", "time_elapsed": 57866, "type": "SLEEP_SURVEY", "trial_index": 5}, "uniqueid": "MTK3614:3JJVG1YBEC44VYAN4K25X7CFIKP5BZ", "dateTime": 1520808537279}, {"current_trial": 6, "trialdata": {"rt": 20716, "trial_type": "text", "internal_node_id": "0.0-6.0", "time_elapsed": 79586, "key_press": 32, "type": "INSTRUCTIONS", "trial_index": 6}, "uniqueid": "MTK3614:3JJVG1YBEC44VYAN4K25X7CFIKP5BZ", "dateTime": 1520808558998}, {"current_trial": 7, "trialdata": {"rt": 9940, "trial_type": "text", "internal_node_id": "0.0-7.0", "time_elapsed": 90030, "key_press": 32, "type": "INSTRUCTIONS", "trial_index": 7}, "uniqueid": "MTK3614:3JJVG1YBEC44VYAN4K25X7CFIKP5BZ", "dateTime": 1520808569442}, {"current_trial": 8, "trialdata": {"rt": 8197, "trial_type": "text", "internal_node_id": "0.0-8.0", "time_elapsed": 98731, "key_press": 32, "type": "INSTRUCTIONS", "trial_index": 8}, "uniqueid": "MTK3614:3JJVG1YBEC44VYAN4K25X7CFIKP5BZ", "dateTime": 1520808578143}, {"current_trial": 9, "trialdata": {"rt": [2421, 4223, 7053, 8651, 10372, 12445, 14096, 16330, 17923], "trial_type": "math-distractor", "key_times": [2120, 2273, 2421, 4058, 4132, 4223, 6353, 6469, 6704, 7053, 8392, 8548, 8651, 10023, 10272, 10372, 12086, 12362, 12445, 13662, 13958, 14096, 16083, 16166, 16330, 17511, 17810, 17923], "responses": ["11", "12", "18", "11", "15", "17", "10", "20", "15"], "num2": [4, 9, 7, 8, 3, 2, 5, 8, 7, 3], "num3": [6, 2, 3, 2, 5, 9, 1, 9, 1, 6], "conditions": [18, 1200, "v", 18000], "internal_node_id": "0.0-9.0", "key_presses": [49, 49, 13, 49, 50, 13, 49, 56, 16, 13, 49, 49, 13, 49, 53, 13, 49, 55, 13, 49, 48, 13, 50, 48, 13, 49, 53, 13], "trial": 0, "time_elapsed": 117737, "type": "DISTRACTOR", "trial_index": 9, "num1": [1, 1, 8, 1, 7, 6, 4, 3, 7, 8]}, "uniqueid": "MTK3614:3JJVG1YBEC44VYAN4K25X7CFIKP5BZ", "dateTime": 1520808597149}, {"current_trial": 10, "trialdata": {"rt": -1, "trial_type": "single-stim", "stimulus": "<p id=\"stim\">10</p>", "internal_node_id": "0.0-10.0-0.0", "time_elapsed": 120743, "key_press": -1, "trial_index": 10}, "uniqueid": "MTK3614:3JJVG1YBEC44VYAN4K25X7CFIKP5BZ", "dateTime": 1520808600155}, {"current_trial": 11, "trialdata": {"rt": -1, "trial_type": "single-stim", "stimulus": "<p id=\"stim\">9</p>", "internal_node_id": "0.0-10.0-1.0", "time_elapsed": 121747, "key_press": -1, "trial_index": 11}, "uniqueid": "MTK3614:3JJVG1YBEC44VYAN4K25X7CFIKP5BZ", "dateTime": 1520808601159}, {"current_trial": 12, "trialdata": {"rt": -1, "trial_type": "single-stim", "stimulus": "<p id=\"stim\">8</p>", "internal_node_id": "0.0-10.0-2.0", "time_elapsed": 122752, "key_press": -1, "trial_index": 12}, "uniqueid": "MTK3614:3JJVG1YBEC44VYAN4K25X7CFIKP5BZ", "dateTime": 1520808602164}, {"current_trial": 13, "trialdata": {"rt": -1, "trial_type": "single-stim", "stimulus": "<p id=\"stim\">7</p>", "internal_node_id": "0.0-10.0-3.0", "time_elapsed": 123755, "key_press": -1, "trial_index": 13}, "uniqueid": "MTK3614:3JJVG1YBEC44VYAN4K25X7CFIKP5BZ", "dateTime": 1520808603167}, {"current_trial": 14, "trialdata": {"rt": -1, "trial_type": "single-stim", "stimulus": "<p id=\"stim\">6</p>", "internal_node_id": "0.0-10.0-4.0", "time_elapsed": 124759, "key_press": -1, "trial_index": 14}, "uniqueid": "MTK3614:3JJVG1YBEC44VYAN4K25X7CFIKP5BZ", "dateTime": 1520808604172}, {"current_trial": 15, "trialdata": {"rt": -1, "trial_type": "single-stim", "stimulus": "<p id=\"stim\">5</p>", "internal_node_id": "0.0-10.0-5.0", "time_elapsed": 125764, "key_press": -1, "trial_index": 15}, "uniqueid": "MTK3614:3JJVG1YBEC44VYAN4K25X7CFIKP5BZ", "dateTime": 1520808605176}, {"current_trial": 16, "trialdata": {"rt": -1, "trial_type": "single-stim", "stimulus": "<p id=\"stim\">4</p>", "internal_node_id": "0.0-10.0-6.0", "time_elapsed": 126768, "key_press": -1, "trial_index": 16}, "uniqueid": "MTK3614:3JJVG1YBEC44VYAN4K25X7CFIKP5BZ", "dateTime": 1520808606180}, {"current_trial": 17, "trialdata": {"rt": -1, "trial_type": "single-stim", "stimulus": "<p id=\"stim\">3</p>", "internal_node_id": "0.0-10.0-7.0", "time_elapsed": 127772, "key_press": -1, "trial_index": 17}, "uniqueid": "MTK3614:3JJVG1YBEC44VYAN4K25X7CFIKP5BZ", "dateTime": 1520808607185}, {"current_trial": 18, "trialdata": {"rt": -1, "trial_type": "single-stim", "stimulus": "<p id=\"stim\">2</p>", "internal_node_id": "0.0-10.0-8.0", "time_elapsed": 128777, "key_press": -1, "trial_index": 18}, "uniqueid": "MTK3614:3JJVG1YBEC44VYAN4K25X7CFIKP5BZ", "dateTime": 1520808608189}, {"current_trial": 19, "trialdata": {"rt": -1, "trial_type": "single-stim", "stimulus": "<p id=\"stim\">1</p>", "internal_node_id": "0.0-10.0-9.0", "time_elapsed": 129780, "key_press": -1, "trial_index": 19}, "uniqueid": "MTK3614:3JJVG1YBEC44VYAN4K25X7CFIKP5BZ", "dateTime": 1520808609192}, {"current_trial": 20, "trialdata": {"rt": -1, "trial_type": "single-stim", "stimulus": "<p id=\"stim\">+</p>", "internal_node_id": "0.0-11.0-0.0", "time_elapsed": 131282, "key_press": -1, "type": "FIXATION", "trial_index": 20}, "uniqueid": "MTK3614:3JJVG1YBEC44VYAN4K25X7CFIKP5BZ", "dateTime": 1520808610694}, {"current_trial": 21, "trialdata": {"rt": -1, "trial_type": "single-stim", "word": "banker", "stimulus": "<p id=\"stim\">BANKER</p>", "conditions": [18, 1200, "v", 18000], "internal_node_id": "0.0-12.0", "trial": 0, "time_elapsed": 132485, "serialpos": 0, "key_press": -1, "wordID": 83, "type": "PRES_VIS", "trial_index": 21}, "uniqueid": "MTK3614:3JJVG1YBEC44VYAN4K25X7CFIKP5BZ", "dateTime": 1520808611897}, {"current_trial": 22, "trialdata": {"rt": -1, "trial_type": "single-stim", "word": "notebook", "stimulus": "<p id=\"stim\">NOTEBOOK</p>", "conditions": [18, 1200, "v", 18000], "internal_node_id": "0.0-13.0", "trial": 0, "time_elapsed": 134819, "serialpos": 1, "key_press": -1, "wordID": 958, "type": "PRES_VIS", "trial_index": 22}, "uniqueid": "MTK3614:3JJVG1YBEC44VYAN4K25X7CFIKP5BZ", "dateTime": 1520808614231}, {"current_trial": 23, "trialdata": {"rt": -1, "trial_type": "single-stim", "word": "dancer", "stimulus": "<p id=\"stim\">DANCER</p>", "conditions": [18, 1200, "v", 18000], "internal_node_id": "0.0-14.0", "trial": 0, "time_elapsed": 136897, "serialpos": 2, "key_press": -1, "wordID": 436, "type": "PRES_VIS", "trial_index": 23}, "uniqueid": "MTK3614:3JJVG1YBEC44VYAN4K25X7CFIKP5BZ", "dateTime": 1520808616309}, {"current_trial": 24, "trialdata": {"rt": -1, "trial_type": "single-stim", "word": "cyclone", "stimulus": "<p id=\"stim\">CYCLONE</p>", "conditions": [18, 1200, "v", 18000], "internal_node_id": "0.0-15.0", "trial": 0, "time_elapsed": 138957, "serialpos": 3, "key_press": -1, "wordID": 430, "type": "PRES_VIS", "trial_index": 24}, "uniqueid": "MTK3614:3JJVG1YBEC44VYAN4K25X7CFIKP5BZ", "dateTime": 1520808618369}, {"current_trial": 25, "trialdata": {"rt": -1, "trial_type": "single-stim", "word": "scotch", "stimulus": "<p id=\"stim\">SCOTCH</p>", "conditions": [18, 1200, "v", 18000], "internal_node_id": "0.0-16.0", "trial": 0, "time_elapsed": 141313, "serialpos": 4, "key_press": -1, "wordID": 1250, "type": "PRES_VIS", "trial_index": 25}, "uniqueid": "MTK3614:3JJVG1YBEC44VYAN4K25X7CFIKP5BZ", "dateTime": 1520808620726}, {"current_trial": 26, "trialdata": {"rt": -1, "trial_type": "single-stim", "word": "paddle", "stimulus": "<p id=\"stim\">PADDLE</p>", "conditions": [18, 1200, "v", 18000], "internal_node_id": "0.0-17.0", "trial": 0, "time_elapsed": 143606, "serialpos": 5, "key_press": -1, "wordID": 999, "type": "PRES_VIS", "trial_index": 26}, "uniqueid": "MTK3614:3JJVG1YBEC44VYAN4K25X7CFIKP5BZ", "dateTime": 1520808623018}, {"current_trial": 27, "trialdata": {"rt": -1, "trial_type": "single-stim", "word": "shelf", "stimulus": "<p id=\"stim\">SHELF</p>", "conditions": [18, 1200, "v", 18000], "internal_node_id": "0.0-18.0", "trial": 0, "time_elapsed": 145725, "serialpos": 6, "key_press": -1, "wordID": 1279, "type": "PRES_VIS", "trial_index": 27}, "uniqueid": "MTK3614:3JJVG1YBEC44VYAN4K25X7CFIKP5BZ", "dateTime": 1520808625137}, {"current_trial": 28, "trialdata": {"rt": -1, "trial_type": "single-stim", "word": "cashier", "stimulus": "<p id=\"stim\">CASHIER</p>", "conditions": [18, 1200, "v", 18000], "internal_node_id": "0.0-19.0", "trial": 0, "time_elapsed": 147780, "serialpos": 7, "key_press": -1, "wordID": 253, "type": "PRES_VIS", "trial_index": 28}, "uniqueid": "MTK3614:3JJVG1YBEC44VYAN4K25X7CFIKP5BZ", "dateTime": 1520808627192}, {"current_trial": 29, "trialdata": {"rt": -1, "trial_type": "single-stim", "word": "trombone", "stimulus": "<p id=\"stim\">TROMBONE</p>", "conditions": [18, 1200, "v", 18000], "internal_node_id": "0.0-20.0", "trial": 0, "time_elapsed": 149984, "serialpos": 8, "key_press": -1, "wordID": 1507, "type": "PRES_VIS", "trial_index": 29}, "uniqueid": "MTK3614:3JJVG1YBEC44VYAN4K25X7CFIKP5BZ", "dateTime": 1520808629397}, {"current_trial": 30, "trialdata": {"rt": -1, "trial_type": "single-stim", "word": "kleenex", "stimulus": "<p id=\"stim\">KLEENEX</p>", "conditions": [18, 1200, "v", 18000], "internal_node_id": "0.0-21.0", "trial": 0, "time_elapsed": 152080, "serialpos": 9, "key_press": -1, "wordID": 781, "type": "PRES_VIS", "trial_index": 30}, "uniqueid": "MTK3614:3JJVG1YBEC44VYAN4K25X7CFIKP5BZ", "dateTime": 1520808631492}, {"current_trial": 31, "trialdata": {"rt": -1, "trial_type": "single-stim", "word": "forehead", "stimulus": "<p id=\"stim\">FOREHEAD</p>", "conditions": [18, 1200, "v", 18000], "internal_node_id": "0.0-22.0", "trial": 0, "time_elapsed": 154272, "serialpos": 10, "key_press": -1, "wordID": 591, "type": "PRES_VIS", "trial_index": 31}, "uniqueid": "MTK3614:3JJVG1YBEC44VYAN4K25X7CFIKP5BZ", "dateTime": 1520808633684}, {"current_trial": 32, "trialdata": {"rt": -1, "trial_type": "single-stim", "word": "kitchen", "stimulus": "<p id=\"stim\">KITCHEN</p>", "conditions": [18, 1200, "v", 18000], "internal_node_id": "0.0-23.0", "trial": 0, "time_elapsed": 156311, "serialpos": 11, "key_press": -1, "wordID": 777, "type": "PRES_VIS", "trial_index": 32}, "uniqueid": "MTK3614:3JJVG1YBEC44VYAN4K25X7CFIKP5BZ", "dateTime": 1520808635723}, {"current_trial": 33, "trialdata": {"rt": -1, "trial_type": "single-stim", "word": "helmet", "stimulus": "<p id=\"stim\">HELMET</p>", "conditions": [18, 1200, "v", 18000], "internal_node_id": "0.0-24.0", "trial": 0, "time_elapsed": 158716, "serialpos": 12, "key_press": -1, "wordID": 701, "type": "PRES_VIS", "trial_index": 33}, "uniqueid": "MTK3614:3JJVG1YBEC44VYAN4K25X7CFIKP5BZ", "dateTime": 1520808638128}, {"current_trial": 34, "trialdata": {"rt": -1, "trial_type": "single-stim", "word": "crutch", "stimulus": "<p id=\"stim\">CRUTCH</p>", "conditions": [18, 1200, "v", 18000], "internal_node_id": "0.0-25.0", "trial": 0, "time_elapsed": 160722, "serialpos": 13, "key_press": -1, "wordID": 416, "type": "PRES_VIS", "trial_index": 34}, "uniqueid": "MTK3614:3JJVG1YBEC44VYAN4K25X7CFIKP5BZ", "dateTime": 1520808640134}, {"current_trial": 35, "trialdata": {"rt": -1, "trial_type": "single-stim", "word": "lizard", "stimulus": "<p id=\"stim\">LIZARD</p>", "conditions": [18, 1200, "v", 18000], "internal_node_id": "0.0-26.0", "trial": 0, "time_elapsed": 162957, "serialpos": 14, "key_press": -1, "wordID": 833, "type": "PRES_VIS", "trial_index": 35}, "uniqueid": "MTK3614:3JJVG1YBEC44VYAN4K25X7CFIKP5BZ", "dateTime": 1520808642369}, {"current_trial": 36, "trialdata": {"rt": -1, "trial_type": "single-stim", "word": "dashboard", "stimulus": "<p id=\"stim\">DASHBOARD</p>", "conditions": [18, 1200, "v", 18000], "internal_node_id": "0.0-27.0", "trial": 0, "time_elapsed": 165074, "serialpos": 15, "key_press": -1, "wordID": 440, "type": "PRES_VIS", "trial_index": 36}, "uniqueid": "MTK3614:3JJVG1YBEC44VYAN4K25X7CFIKP5BZ", "dateTime": 1520808644486}, {"current_trial": 37, "trialdata": {"rt": -1, "trial_type": "single-stim", "word": "rabbit", "stimulus": "<p id=\"stim\">RABBIT</p>", "conditions": [18, 1200, "v", 18000], "internal_node_id": "0.0-28.0", "trial": 0, "time_elapsed": 167363, "serialpos": 16, "key_press": -1, "wordID": 1151, "type": "PRES_VIS", "trial_index": 37}, "uniqueid": "MTK3614:3JJVG1YBEC44VYAN4K25X7CFIKP5BZ", "dateTime": 1520808646775}, {"current_trial": 38, "trialdata": {"rt": -1, "trial_type": "single-stim", "word": "denim", "stimulus": "<p id=\"stim\">DENIM</p>", "conditions": [18, 1200, "v", 18000], "internal_node_id": "0.0-29.0", "trial": 0, "time_elapsed": 169371, "serialpos": 17, "key_press": -1, "wordID": 445, "type": "PRES_VIS", "trial_index": 38}, "uniqueid": "MTK3614:3JJVG1YBEC44VYAN4K25X7CFIKP5BZ", "dateTime": 1520808648783}, {"current_trial": 39, "trialdata": {"rt": -1, "trial_type": "single-stim", "stimulus": "", "internal_node_id": "0.0-30.0-0.0", "time_elapsed": 171467, "key_press": -1, "type": "PRE_RECALL_DELAY", "trial_index": 39}, "uniqueid": "MTK3614:3JJVG1YBEC44VYAN4K25X7CFIKP5BZ", "dateTime": 1520808650879}, {"current_trial": 40, "trialdata": {"rt": -1000, "trial_type": "single-audio", "stimulus": "/static/audio/400Hz.wav", "internal_node_id": "0.0-31.0", "time_elapsed": 171970, "key_press": -1, "type": "PRE_RECALL_ALERT", "trial_index": 40}, "uniqueid": "MTK3614:3JJVG1YBEC44VYAN4K25X7CFIKP5BZ", "dateTime": 1520808651382}, {"current_trial": 41, "trialdata": {"rt": [2081, 3768, 5322, 6909, 8271, 12163, 15713, 30053, 44637, 52159, 58589], "recwords": ["demin", "denim", "rabbit", "cyclone", "banker", "trombone", "cashier", "rabbit", "", "jacket", "chalkboard"], "key_times": [1388, 1469, 1599, 1733, 1840, 2081, 3050, 3155, 3348, 3501, 3576, 3768, 4473, 4591, 4843, 4997, 5077, 5208, 5322, 5647, 5884, 5968, 6142, 6332, 6578, 6658, 6909, 7316, 7402, 7521, 7639, 7790, 7913, 8271, 10927, 11101, 11171, 11224, 11410, 11495, 11720, 11829, 12163, 14929, 15028, 15229, 15269, 15374, 15474, 15563, 15713, 28226, 28346, 28498, 28643, 28744, 28931, 29044, 30053, 44637, 51623, 51659, 51781, 51868, 51959, 52083, 52159, 56960, 57037, 57138, 57477, 57565, 58038, 58137, 58205, 58318, 58488, 58589, 59577, 59682, 59852], "trial_type": "free-recall", "conditions": [18, 1200, "v", 18000], "internal_node_id": "0.0-32.0-0.0", "key_presses": [68, 69, 77, 73, 78, 13, 68, 69, 78, 73, 77, 13, 82, 65, 66, 66, 73, 84, 13, 67, 89, 67, 76, 79, 78, 69, 13, 66, 65, 78, 75, 69, 82, 13, 84, 82, 79, 77, 66, 79, 78, 69, 13, 67, 65, 83, 72, 73, 69, 82, 13, 82, 65, 66, 66, 73, 84, 16, 13, 13, 74, 65, 67, 75, 69, 84, 13, 67, 72, 65, 76, 75, 66, 79, 65, 82, 68, 13, 67, 65, 82], "trial": 0, "time_elapsed": 231975, "type": "FREE_RECALL", "trial_index": 41}, "uniqueid": "MTK3614:3JJVG1YBEC44VYAN4K25X7CFIKP5BZ", "dateTime": 1520808711390}, {"current_trial": 42, "trialdata": {"rt": 893, "trial_type": "text", "internal_node_id": "0.0-33.0", "time_elapsed": 234876, "key_press": 32, "type": "INSTRUCTIONS", "trial_index": 42}, "uniqueid": "MTK3614:3JJVG1YBEC44VYAN4K25X7CFIKP5BZ", "dateTime": 1520808714288}, {"current_trial": 43, "trialdata": {"rt": [1733, 3637, 6159, 8259, 10155, 12496, 14375, 16933], "trial_type": "math-distractor", "key_times": [1503, 1638, 1733, 3318, 3553, 3637, 5865, 5982, 6159, 7914, 8176, 8259, 9860, 10037, 10155, 11976, 12256, 12496, 14096, 14245, 14375, 16589, 16801, 16933], "responses": ["14", "15", "19", "16", "15", "16", "13", "15"], "num2": [7, 4, 9, 4, 1, 4, 2, 2, 9], "num3": [1, 7, 6, 5, 8, 5, 4, 6, 4], "conditions": [18, 1200, "v", 18000], "internal_node_id": "0.0-34.0", "key_presses": [49, 52, 13, 49, 53, 13, 49, 57, 13, 49, 54, 13, 49, 53, 13, 49, 54, 13, 49, 51, 13, 49, 53, 13], "trial": 1, "time_elapsed": 254883, "type": "DISTRACTOR", "trial_index": 43, "num1": [6, 4, 4, 7, 6, 7, 7, 7, 7]}, "uniqueid": "MTK3614:3JJVG1YBEC44VYAN4K25X7CFIKP5BZ", "dateTime": 1520808734295}, {"current_trial": 44, "trialdata": {"rt": -1, "trial_type": "single-stim", "stimulus": "<p id=\"stim\">10</p>", "internal_node_id": "0.0-35.0-0.0", "time_elapsed": 257891, "key_press": -1, "trial_index": 44}, "uniqueid": "MTK3614:3JJVG1YBEC44VYAN4K25X7CFIKP5BZ", "dateTime": 1520808737303}, {"current_trial": 45, "trialdata": {"rt": -1, "trial_type": "single-stim", "stimulus": "<p id=\"stim\">9</p>", "internal_node_id": "0.0-35.0-1.0", "time_elapsed": 258894, "key_press": -1, "trial_index": 45}, "uniqueid": "MTK3614:3JJVG1YBEC44VYAN4K25X7CFIKP5BZ", "dateTime": 1520808738306}, {"current_trial": 46, "trialdata": {"rt": -1, "trial_type": "single-stim", "stimulus": "<p id=\"stim\">8</p>", "internal_node_id": "0.0-35.0-2.0", "time_elapsed": 259901, "key_press": -1, "trial_index": 46}, "uniqueid": "MTK3614:3JJVG1YBEC44VYAN4K25X7CFIKP5BZ", "dateTime": 1520808739313}, {"current_trial": 47, "trialdata": {"rt": -1, "trial_type": "single-stim", "stimulus": "<p id=\"stim\">7</p>", "internal_node_id": "0.0-35.0-3.0", "time_elapsed": 260902, "key_press": -1, "trial_index": 47}, "uniqueid": "MTK3614:3JJVG1YBEC44VYAN4K25X7CFIKP5BZ", "dateTime": 1520808740314}, {"current_trial": 48, "trialdata": {"rt": -1, "trial_type": "single-stim", "stimulus": "<p id=\"stim\">6</p>", "internal_node_id": "0.0-35.0-4.0", "time_elapsed": 261907, "key_press": -1, "trial_index": 48}, "uniqueid": "MTK3614:3JJVG1YBEC44VYAN4K25X7CFIKP5BZ", "dateTime": 1520808741319}, {"current_trial": 49, "trialdata": {"rt": -1, "trial_type": "single-stim", "stimulus": "<p id=\"stim\">5</p>", "internal_node_id": "0.0-35.0-5.0", "time_elapsed": 262911, "key_press": -1, "trial_index": 49}, "uniqueid": "MTK3614:3JJVG1YBEC44VYAN4K25X7CFIKP5BZ", "dateTime": 1520808742323}, {"current_trial": 50, "trialdata": {"rt": -1, "trial_type": "single-stim", "stimulus": "<p id=\"stim\">4</p>", "internal_node_id": "0.0-35.0-6.0", "time_elapsed": 263916, "key_press": -1, "trial_index": 50}, "uniqueid": "MTK3614:3JJVG1YBEC44VYAN4K25X7CFIKP5BZ", "dateTime": 1520808743328}, {"current_trial": 51, "trialdata": {"rt": -1, "trial_type": "single-stim", "stimulus": "<p id=\"stim\">3</p>", "internal_node_id": "0.0-35.0-7.0", "time_elapsed": 264919, "key_press": -1, "trial_index": 51}, "uniqueid": "MTK3614:3JJVG1YBEC44VYAN4K25X7CFIKP5BZ", "dateTime": 1520808744331}, {"current_trial": 52, "trialdata": {"rt": -1, "trial_type": "single-stim", "stimulus": "<p id=\"stim\">2</p>", "internal_node_id": "0.0-35.0-8.0", "time_elapsed": 265923, "key_press": -1, "trial_index": 52}, "uniqueid": "MTK3614:3JJVG1YBEC44VYAN4K25X7CFIKP5BZ", "dateTime": 1520808745335}, {"current_trial": 53, "trialdata": {"rt": -1, "trial_type": "single-stim", "stimulus": "<p id=\"stim\">1</p>", "internal_node_id": "0.0-35.0-9.0", "time_elapsed": 266928, "key_press": -1, "trial_index": 53}, "uniqueid": "MTK3614:3JJVG1YBEC44VYAN4K25X7CFIKP5BZ", "dateTime": 1520808746340}, {"current_trial": 54, "trialdata": {"rt": -1, "trial_type": "single-stim", "stimulus": "<p id=\"stim\">+</p>", "internal_node_id": "0.0-36.0-0.0", "time_elapsed": 268430, "key_press": -1, "type": "FIXATION", "trial_index": 54}, "uniqueid": "MTK3614:3JJVG1YBEC44VYAN4K25X7CFIKP5BZ", "dateTime": 1520808747843}, {"current_trial": 55, "trialdata": {"rt": -1, "trial_type": "single-stim", "word": "lagoon", "stimulus": "<p id=\"stim\">LAGOON</p>", "conditions": [18, 1200, "v", 18000], "internal_node_id": "0.0-37.0", "trial": 1, "time_elapsed": 269632, "serialpos": 0, "key_press": -1, "wordID": 794, "type": "PRES_VIS", "trial_index": 55}, "uniqueid": "MTK3614:3JJVG1YBEC44VYAN4K25X7CFIKP5BZ", "dateTime": 1520808749044}, {"current_trial": 56, "trialdata": {"rt": -1, "trial_type": "single-stim", "word": "monster", "stimulus": "<p id=\"stim\">MONSTER</p>", "conditions": [18, 1200, "v", 18000], "internal_node_id": "0.0-38.0", "trial": 1, "time_elapsed": 271692, "serialpos": 1, "key_press": -1, "wordID": 911, "type": "PRES_VIS", "trial_index": 56}, "uniqueid": "MTK3614:3JJVG1YBEC44VYAN4K25X7CFIKP5BZ", "dateTime": 1520808751104}, {"current_trial": 57, "trialdata": {"rt": -1, "trial_type": "single-stim", "word": "beast", "stimulus": "<p id=\"stim\">BEAST</p>", "conditions": [18, 1200, "v", 18000], "internal_node_id": "0.0-39.0", "trial": 1, "time_elapsed": 273945, "serialpos": 2, "key_press": -1, "wordID": 107, "type": "PRES_VIS", "trial_index": 57}, "uniqueid": "MTK3614:3JJVG1YBEC44VYAN4K25X7CFIKP5BZ", "dateTime": 1520808753357}, {"current_trial": 58, "trialdata": {"rt": -1, "trial_type": "single-stim", "word": "cattle", "stimulus": "<p id=\"stim\">CATTLE</p>", "conditions": [18, 1200, "v", 18000], "internal_node_id": "0.0-40.0", "trial": 1, "time_elapsed": 275993, "serialpos": 3, "key_press": -1, "wordID": 260, "type": "PRES_VIS", "trial_index": 58}, "uniqueid": "MTK3614:3JJVG1YBEC44VYAN4K25X7CFIKP5BZ", "dateTime": 1520808755405}, {"current_trial": 59, "trialdata": {"rt": -1, "trial_type": "single-stim", "word": "atlas", "stimulus": "<p id=\"stim\">ATLAS</p>", "conditions": [18, 1200, "v", 18000], "internal_node_id": "0.0-41.0", "trial": 1, "time_elapsed": 278384, "serialpos": 4, "key_press": -1, "wordID": 52, "type": "PRES_VIS", "trial_index": 59}, "uniqueid": "MTK3614:3JJVG1YBEC44VYAN4K25X7CFIKP5BZ", "dateTime": 1520808757797}, {"current_trial": 60, "trialdata": {"rt": -1, "trial_type": "single-stim", "word": "clamp", "stimulus": "<p id=\"stim\">CLAMP</p>", "conditions": [18, 1200, "v", 18000], "internal_node_id": "0.0-42.0", "trial": 1, "time_elapsed": 280544, "serialpos": 5, "key_press": -1, "wordID": 315, "type": "PRES_VIS", "trial_index": 60}, "uniqueid": "MTK3614:3JJVG1YBEC44VYAN4K25X7CFIKP5BZ", "dateTime": 1520808759956}, {"current_trial": 61, "trialdata": {"rt": -1, "trial_type": "single-stim", "word": "seal", "stimulus": "<p id=\"stim\">SEAL</p>", "conditions": [18, 1200, "v", 18000], "internal_node_id": "0.0-43.0", "trial": 1, "time_elapsed": 282894, "serialpos": 6, "key_press": -1, "wordID": 1261, "type": "PRES_VIS", "trial_index": 61}, "uniqueid": "MTK3614:3JJVG1YBEC44VYAN4K25X7CFIKP5BZ", "dateTime": 1520808762306}, {"current_trial": 62, "trialdata": {"rt": -1, "trial_type": "single-stim", "word": "marrow", "stimulus": "<p id=\"stim\">MARROW</p>", "conditions": [18, 1200, "v", 18000], "internal_node_id": "0.0-44.0", "trial": 1, "time_elapsed": 284903, "serialpos": 7, "key_press": -1, "wordID": 871, "type": "PRES_VIS", "trial_index": 62}, "uniqueid": "MTK3614:3JJVG1YBEC44VYAN4K25X7CFIKP5BZ", "dateTime": 1520808764315}, {"current_trial": 63, "trialdata": {"rt": -1, "trial_type": "single-stim", "word": "baby", "stimulus": "<p id=\"stim\">BABY</p>", "conditions": [18, 1200, "v", 18000], "internal_node_id": "0.0-45.0", "trial": 1, "time_elapsed": 287028, "serialpos": 8, "key_press": -1, "wordID": 63, "type": "PRES_VIS", "trial_index": 63}, "uniqueid": "MTK3614:3JJVG1YBEC44VYAN4K25X7CFIKP5BZ", "dateTime": 1520808766440}, {"current_trial": 64, "trialdata": {"rt": -1, "trial_type": "single-stim", "word": "judge", "stimulus": "<p id=\"stim\">JUDGE</p>", "conditions": [18, 1200, "v", 18000], "internal_node_id": "0.0-46.0", "trial": 1, "time_elapsed": 289041, "serialpos": 9, "key_press": -1, "wordID": 760, "type": "PRES_VIS", "trial_index": 64}, "uniqueid": "MTK3614:3JJVG1YBEC44VYAN4K25X7CFIKP5BZ", "dateTime": 1520808768453}, {"current_trial": 65, "trialdata": {"rt": -1, "trial_type": "single-stim", "word": "jury", "stimulus": "<p id=\"stim\">JURY</p>", "conditions": [18, 1200, "v", 18000], "internal_node_id": "0.0-47.0", "trial": 1, "time_elapsed": 291195, "serialpos": 10, "key_press": -1, "wordID": 765, "type": "PRES_VIS", "trial_index": 65}, "uniqueid": "MTK3614:3JJVG1YBEC44VYAN4K25X7CFIKP5BZ", "dateTime": 1520808770607}, {"current_trial": 66, "trialdata": {"rt": -1, "trial_type": "single-stim", "word": "lily", "stimulus": "<p id=\"stim\">LILY</p>", "conditions": [18, 1200, "v", 18000], "internal_node_id": "0.0-48.0", "trial": 1, "time_elapsed": 293331, "serialpos": 11, "key_press": -1, "wordID": 820, "type": "PRES_VIS", "trial_index": 66}, "uniqueid": "MTK3614:3JJVG1YBEC44VYAN4K25X7CFIKP5BZ", "dateTime": 1520808772743}, {"current_trial": 67, "trialdata": {"rt": -1, "trial_type": "single-stim", "word": "tutu", "stimulus": "<p id=\"stim\">TUTU</p>", "conditions": [18, 1200, "v", 18000], "internal_node_id": "0.0-49.0", "trial": 1, "time_elapsed": 295588, "serialpos": 12, "key_press": -1, "wordID": 1523, "type": "PRES_VIS", "trial_index": 67}, "uniqueid": "MTK3614:3JJVG1YBEC44VYAN4K25X7CFIKP5BZ", "dateTime": 1520808775000}, {"current_trial": 68, "trialdata": {"rt": -1, "trial_type": "single-stim", "word": "pudding", "stimulus": "<p id=\"stim\">PUDDING</p>", "conditions": [18, 1200, "v", 18000], "internal_node_id": "0.0-50.0", "trial": 1, "time_elapsed": 297685, "serialpos": 13, "key_press": -1, "wordID": 1138, "type": "PRES_VIS", "trial_index": 68}, "uniqueid": "MTK3614:3JJVG1YBEC44VYAN4K25X7CFIKP5BZ", "dateTime": 1520808777099}, {"current_trial": 69, "trialdata": {"rt": -1, "trial_type": "single-stim", "word": "tribe", "stimulus": "<p id=\"stim\">TRIBE</p>", "conditions": [18, 1200, "v", 18000], "internal_node_id": "0.0-51.0", "trial": 1, "time_elapsed": 300064, "serialpos": 14, "key_press": -1, "wordID": 1504, "type": "PRES_VIS", "trial_index": 69}, "uniqueid": "MTK3614:3JJVG1YBEC44VYAN4K25X7CFIKP5BZ", "dateTime": 1520808779476}, {"current_trial": 70, "trialdata": {"rt": -1, "trial_type": "single-stim", "word": "vagrant", "stimulus": "<p id=\"stim\">VAGRANT</p>", "conditions": [18, 1200, "v", 18000], "internal_node_id": "0.0-52.0", "trial": 1, "time_elapsed": 302205, "serialpos": 15, "key_press": -1, "wordID": 1543, "type": "PRES_VIS", "trial_index": 70}, "uniqueid": "MTK3614:3JJVG1YBEC44VYAN4K25X7CFIKP5BZ", "dateTime": 1520808781617}, {"current_trial": 71, "trialdata": {"rt": -1, "trial_type": "single-stim", "word": "apron", "stimulus": "<p id=\"stim\">APRON</p>", "conditions": [18, 1200, "v", 18000], "internal_node_id": "0.0-53.0", "trial": 1, "time_elapsed": 304236, "serialpos": 16, "key_press": -1, "wordID": 34, "type": "PRES_VIS", "trial_index": 71}, "uniqueid": "MTK3614:3JJVG1YBEC44VYAN4K25X7CFIKP5BZ", "dateTime": 1520808783649}, {"current_trial": 72, "trialdata": {"rt": -1, "trial_type": "single-stim", "word": "scarecrow", "stimulus": "<p id=\"stim\">SCARECROW</p>", "conditions": [18, 1200, "v", 18000], "internal_node_id": "0.0-54.0", "trial": 1, "time_elapsed": 306326, "serialpos": 17, "key_press": -1, "wordID": 1244, "type": "PRES_VIS", "trial_index": 72}, "uniqueid": "MTK3614:3JJVG1YBEC44VYAN4K25X7CFIKP5BZ", "dateTime": 1520808785738}, {"current_trial": 73, "trialdata": {"rt": -1, "trial_type": "single-stim", "stimulus": "", "internal_node_id": "0.0-55.0-0.0", "time_elapsed": 308787, "key_press": -1, "type": "PRE_RECALL_DELAY", "trial_index": 73}, "uniqueid": "MTK3614:3JJVG1YBEC44VYAN4K25X7CFIKP5BZ", "dateTime": 1520808788199}, {"current_trial": 74, "trialdata": {"rt": -1000, "trial_type": "single-audio", "stimulus": "/static/audio/400Hz.wav", "internal_node_id": "0.0-56.0", "time_elapsed": 309289, "key_press": -1, "type": "PRE_RECALL_ALERT", "trial_index": 74}, "uniqueid": "MTK3614:3JJVG1YBEC44VYAN4K25X7CFIKP5BZ", "dateTime": 1520808788701}, {"current_trial": 75, "trialdata": {"rt": [1864, 3516, 4954, 5891], "recwords": ["scarecrow", "vagrant", "lagoon", "monster"], "key_times": [422, 733, 827, 1042, 1129, 1295, 1469, 1562, 1699, 1864, 2125, 2259, 2446, 2622, 2700, 3092, 3258, 3516, 4092, 4168, 4367, 4451, 4590, 4738, 4954, 5135, 5243, 5346, 5407, 5548, 5652, 5752, 5891], "trial_type": "free-recall", "conditions": [18, 1200, "v", 18000], "internal_node_id": "0.0-57.0-0.0", "key_presses": [83, 67, 65, 82, 69, 67, 82, 79, 87, 13, 86, 65, 71, 82, 65, 78, 84, 13, 76, 65, 71, 79, 79, 78, 13, 77, 79, 78, 83, 84, 69, 82, 13], "trial": 1, "time_elapsed": 369296, "type": "FREE_RECALL", "trial_index": 75}, "uniqueid": "MTK3614:3JJVG1YBEC44VYAN4K25X7CFIKP5BZ", "dateTime": 1520808848708}, {"current_trial": 76, "trialdata": {"rt": 10288, "trial_type": "text", "internal_node_id": "0.0-58.0", "time_elapsed": 381587, "key_press": 32, "type": "INSTRUCTIONS", "trial_index": 76}, "uniqueid": "MTK3614:3JJVG1YBEC44VYAN4K25X7CFIKP5BZ", "dateTime": 1520808860999}, {"current_trial": 77, "trialdata": {"rt": [2495, 5110, 7321, 8932, 10937], "trial_type": "math-distractor", "key_times": [1253, 1417, 1615, 2121, 2495, 4679, 4986, 5110, 6814, 7202, 7321, 8838, 8932, 10515, 10808, 10937], "responses": ["14", "16", "19", "9", "20"], "num2": [4, 6, 4, 5, 9, 7], "num3": [4, 7, 7, 1, 6, 8], "conditions": [24, 1600, "v", 12000], "internal_node_id": "0.0-59.0", "key_presses": [49, 52, 220, 8, 13, 49, 54, 13, 49, 57, 13, 57, 13, 50, 48, 13], "trial": 2, "time_elapsed": 394593, "type": "DISTRACTOR", "trial_index": 77, "num1": [6, 3, 8, 3, 5, 5]}, "uniqueid": "MTK3614:3JJVG1YBEC44VYAN4K25X7CFIKP5BZ", "dateTime": 1520808874005}, {"current_trial": 78, "trialdata": {"rt": -1, "trial_type": "single-stim", "stimulus": "<p id=\"stim\">10</p>", "internal_node_id": "0.0-60.0-0.0", "time_elapsed": 397601, "key_press": -1, "trial_index": 78}, "uniqueid": "MTK3614:3JJVG1YBEC44VYAN4K25X7CFIKP5BZ", "dateTime": 1520808877013}, {"current_trial": 79, "trialdata": {"rt": -1, "trial_type": "single-stim", "stimulus": "<p id=\"stim\">9</p>", "internal_node_id": "0.0-60.0-1.0", "time_elapsed": 398606, "key_press": -1, "trial_index": 79}, "uniqueid": "MTK3614:3JJVG1YBEC44VYAN4K25X7CFIKP5BZ", "dateTime": 1520808878018}, {"current_trial": 80, "trialdata": {"rt": -1, "trial_type": "single-stim", "stimulus": "<p id=\"stim\">8</p>", "internal_node_id": "0.0-60.0-2.0", "time_elapsed": 399611, "key_press": -1, "trial_index": 80}, "uniqueid": "MTK3614:3JJVG1YBEC44VYAN4K25X7CFIKP5BZ", "dateTime": 1520808879023}, {"current_trial": 81, "trialdata": {"rt": -1, "trial_type": "single-stim", "stimulus": "<p id=\"stim\">7</p>", "internal_node_id": "0.0-60.0-3.0", "time_elapsed": 400615, "key_press": -1, "trial_index": 81}, "uniqueid": "MTK3614:3JJVG1YBEC44VYAN4K25X7CFIKP5BZ", "dateTime": 1520808880027}, {"current_trial": 82, "trialdata": {"rt": -1, "trial_type": "single-stim", "stimulus": "<p id=\"stim\">6</p>", "internal_node_id": "0.0-60.0-4.0", "time_elapsed": 401620, "key_press": -1, "trial_index": 82}, "uniqueid": "MTK3614:3JJVG1YBEC44VYAN4K25X7CFIKP5BZ", "dateTime": 1520808881032}, {"current_trial": 83, "trialdata": {"rt": -1, "trial_type": "single-stim", "stimulus": "<p id=\"stim\">5</p>", "internal_node_id": "0.0-60.0-5.0", "time_elapsed": 402624, "key_press": -1, "trial_index": 83}, "uniqueid": "MTK3614:3JJVG1YBEC44VYAN4K25X7CFIKP5BZ", "dateTime": 1520808882036}, {"current_trial": 84, "trialdata": {"rt": -1, "trial_type": "single-stim", "stimulus": "<p id=\"stim\">4</p>", "internal_node_id": "0.0-60.0-6.0", "time_elapsed": 403628, "key_press": -1, "trial_index": 84}, "uniqueid": "MTK3614:3JJVG1YBEC44VYAN4K25X7CFIKP5BZ", "dateTime": 1520808883040}, {"current_trial": 85, "trialdata": {"rt": -1, "trial_type": "single-stim", "stimulus": "<p id=\"stim\">3</p>", "internal_node_id": "0.0-60.0-7.0", "time_elapsed": 404633, "key_press": -1, "trial_index": 85}, "uniqueid": "MTK3614:3JJVG1YBEC44VYAN4K25X7CFIKP5BZ", "dateTime": 1520808884045}, {"current_trial": 86, "trialdata": {"rt": -1, "trial_type": "single-stim", "stimulus": "<p id=\"stim\">2</p>", "internal_node_id": "0.0-60.0-8.0", "time_elapsed": 405638, "key_press": -1, "trial_index": 86}, "uniqueid": "MTK3614:3JJVG1YBEC44VYAN4K25X7CFIKP5BZ", "dateTime": 1520808885050}, {"current_trial": 87, "trialdata": {"rt": -1, "trial_type": "single-stim", "stimulus": "<p id=\"stim\">1</p>", "internal_node_id": "0.0-60.0-9.0", "time_elapsed": 406642, "key_press": -1, "trial_index": 87}, "uniqueid": "MTK3614:3JJVG1YBEC44VYAN4K25X7CFIKP5BZ", "dateTime": 1520808886055}, {"current_trial": 88, "trialdata": {"rt": -1, "trial_type": "single-stim", "stimulus": "<p id=\"stim\">+</p>", "internal_node_id": "0.0-61.0-0.0", "time_elapsed": 408145, "key_press": -1, "type": "FIXATION", "trial_index": 88}, "uniqueid": "MTK3614:3JJVG1YBEC44VYAN4K25X7CFIKP5BZ", "dateTime": 1520808887557}, {"current_trial": 89, "trialdata": {"rt": -1, "trial_type": "single-stim", "word": "church", "stimulus": "<p id=\"stim\">CHURCH</p>", "conditions": [24, 1600, "v", 12000], "internal_node_id": "0.0-62.0", "trial": 2, "time_elapsed": 409747, "serialpos": 0, "key_press": -1, "wordID": 306, "type": "PRES_VIS", "trial_index": 89}, "uniqueid": "MTK3614:3JJVG1YBEC44VYAN4K25X7CFIKP5BZ", "dateTime": 1520808889159}, {"current_trial": 90, "trialdata": {"rt": -1, "trial_type": "single-stim", "word": "chapel", "stimulus": "<p id=\"stim\">CHAPEL</p>", "conditions": [24, 1600, "v", 12000], "internal_node_id": "0.0-63.0", "trial": 2, "time_elapsed": 412361, "serialpos": 1, "key_press": -1, "wordID": 279, "type": "PRES_VIS", "trial_index": 90}, "uniqueid": "MTK3614:3JJVG1YBEC44VYAN4K25X7CFIKP5BZ", "dateTime": 1520808891773}, {"current_trial": 91, "trialdata": {"rt": -1, "trial_type": "single-stim", "word": "poison", "stimulus": "<p id=\"stim\">POISON</p>", "conditions": [24, 1600, "v", 12000], "internal_node_id": "0.0-64.0", "trial": 2, "time_elapsed": 415066, "serialpos": 2, "key_press": -1, "wordID": 1095, "type": "PRES_VIS", "trial_index": 91}, "uniqueid": "MTK3614:3JJVG1YBEC44VYAN4K25X7CFIKP5BZ", "dateTime": 1520808894478}, {"current_trial": 92, "trialdata": {"rt": -1, "trial_type": "single-stim", "word": "wasp", "stimulus": "<p id=\"stim\">WASP</p>", "conditions": [24, 1600, "v", 12000], "internal_node_id": "0.0-65.0", "trial": 2, "time_elapsed": 417829, "serialpos": 3, "key_press": -1, "wordID": 1592, "type": "PRES_VIS", "trial_index": 92}, "uniqueid": "MTK3614:3JJVG1YBEC44VYAN4K25X7CFIKP5BZ", "dateTime": 1520808897241}, {"current_trial": 93, "trialdata": {"rt": -1, "trial_type": "single-stim", "word": "swimmer", "stimulus": "<p id=\"stim\">SWIMMER</p>", "conditions": [24, 1600, "v", 12000], "internal_node_id": "0.0-66.0", "trial": 2, "time_elapsed": 420272, "serialpos": 4, "key_press": -1, "wordID": 1419, "type": "PRES_VIS", "trial_index": 93}, "uniqueid": "MTK3614:3JJVG1YBEC44VYAN4K25X7CFIKP5BZ", "dateTime": 1520808899684}, {"current_trial": 94, "trialdata": {"rt": -1, "trial_type": "single-stim", "word": "penguin", "stimulus": "<p id=\"stim\">PENGUIN</p>", "conditions": [24, 1600, "v", 12000], "internal_node_id": "0.0-67.0", "trial": 2, "time_elapsed": 422681, "serialpos": 5, "key_press": -1, "wordID": 1043, "type": "PRES_VIS", "trial_index": 94}, "uniqueid": "MTK3614:3JJVG1YBEC44VYAN4K25X7CFIKP5BZ", "dateTime": 1520808902093}, {"current_trial": 95, "trialdata": {"rt": -1, "trial_type": "single-stim", "word": "spider", "stimulus": "<p id=\"stim\">SPIDER</p>", "conditions": [24, 1600, "v", 12000], "internal_node_id": "0.0-68.0", "trial": 2, "time_elapsed": 425349, "serialpos": 6, "key_press": -1, "wordID": 1350, "type": "PRES_VIS", "trial_index": 95}, "uniqueid": "MTK3614:3JJVG1YBEC44VYAN4K25X7CFIKP5BZ", "dateTime": 1520808904761}, {"current_trial": 96, "trialdata": {"rt": -1, "trial_type": "single-stim", "word": "lumber", "stimulus": "<p id=\"stim\">LUMBER</p>", "conditions": [24, 1600, "v", 12000], "internal_node_id": "0.0-69.0", "trial": 2, "time_elapsed": 427930, "serialpos": 7, "key_press": -1, "wordID": 847, "type": "PRES_VIS", "trial_index": 96}, "uniqueid": "MTK3614:3JJVG1YBEC44VYAN4K25X7CFIKP5BZ", "dateTime": 1520808907342}, {"current_trial": 97, "trialdata": {"rt": -1, "trial_type": "single-stim", "word": "jello", "stimulus": "<p id=\"stim\">JELLO</p>", "conditions": [24, 1600, "v", 12000], "internal_node_id": "0.0-70.0", "trial": 2, "time_elapsed": 430408, "serialpos": 8, "key_press": -1, "wordID": 753, "type": "PRES_VIS", "trial_index": 97}, "uniqueid": "MTK3614:3JJVG1YBEC44VYAN4K25X7CFIKP5BZ", "dateTime": 1520808909820}, {"current_trial": 98, "trialdata": {"rt": -1, "trial_type": "single-stim", "word": "crater", "stimulus": "<p id=\"stim\">CRATER</p>", "conditions": [24, 1600, "v", 12000], "internal_node_id": "0.0-71.0", "trial": 2, "time_elapsed": 432996, "serialpos": 9, "key_press": -1, "wordID": 399, "type": "PRES_VIS", "trial_index": 98}, "uniqueid": "MTK3614:3JJVG1YBEC44VYAN4K25X7CFIKP5BZ", "dateTime": 1520808912408}, {"current_trial": 99, "trialdata": {"rt": -1, "trial_type": "single-stim", "word": "perfume", "stimulus": "<p id=\"stim\">PERFUME</p>", "conditions": [24, 1600, "v", 12000], "internal_node_id": "0.0-72.0", "trial": 2, "time_elapsed": 435615, "serialpos": 10, "key_press": -1, "wordID": 1048, "type": "PRES_VIS", "trial_index": 99}, "uniqueid": "MTK3614:3JJVG1YBEC44VYAN4K25X7CFIKP5BZ", "dateTime": 1520808915027}, {"current_trial": 100, "trialdata": {"rt": -1, "trial_type": "single-stim", "word": "worker", "stimulus": "<p id=\"stim\">WORKER</p>", "conditions": [24, 1600, "v", 12000], "internal_node_id": "0.0-73.0", "trial": 2, "time_elapsed": 438215, "serialpos": 11, "key_press": -1, "wordID": 1620, "type": "PRES_VIS", "trial_index": 100}, "uniqueid": "MTK3614:3JJVG1YBEC44VYAN4K25X7CFIKP5BZ", "dateTime": 1520808917627}, {"current_trial": 101, "trialdata": {"rt": -1, "trial_type": "single-stim", "word": "creature", "stimulus": "<p id=\"stim\">CREATURE</p>", "conditions": [24, 1600, "v", 12000], "internal_node_id": "0.0-74.0", "trial": 2, "time_elapsed": 440708, "serialpos": 12, "key_press": -1, "wordID": 402, "type": "PRES_VIS", "trial_index": 101}, "uniqueid": "MTK3614:3JJVG1YBEC44VYAN4K25X7CFIKP5BZ", "dateTime": 1520808920120}, {"current_trial": 102, "trialdata": {"rt": -1, "trial_type": "single-stim", "word": "velvet", "stimulus": "<p id=\"stim\">VELVET</p>", "conditions": [24, 1600, "v", 12000], "internal_node_id": "0.0-75.0", "trial": 2, "time_elapsed": 443265, "serialpos": 13, "key_press": -1, "wordID": 1554, "type": "PRES_VIS", "trial_index": 102}, "uniqueid": "MTK3614:3JJVG1YBEC44VYAN4K25X7CFIKP5BZ", "dateTime": 1520808922677}, {"current_trial": 103, "trialdata": {"rt": -1, "trial_type": "single-stim", "word": "zebra", "stimulus": "<p id=\"stim\">ZEBRA</p>", "conditions": [24, 1600, "v", 12000], "internal_node_id": "0.0-76.0", "trial": 2, "time_elapsed": 446039, "serialpos": 14, "key_press": -1, "wordID": 1634, "type": "PRES_VIS", "trial_index": 103}, "uniqueid": "MTK3614:3JJVG1YBEC44VYAN4K25X7CFIKP5BZ", "dateTime": 1520808925451}, {"current_trial": 104, "trialdata": {"rt": -1, "trial_type": "single-stim", "word": "spouse", "stimulus": "<p id=\"stim\">SPOUSE</p>", "conditions": [24, 1600, "v", 12000], "internal_node_id": "0.0-77.0", "trial": 2, "time_elapsed": 448523, "serialpos": 15, "key_press": -1, "wordID": 1357, "type": "PRES_VIS", "trial_index": 104}, "uniqueid": "MTK3614:3JJVG1YBEC44VYAN4K25X7CFIKP5BZ", "dateTime": 1520808927935}, {"current_trial": 105, "trialdata": {"rt": -1, "trial_type": "single-stim", "word": "orchid", "stimulus": "<p id=\"stim\">ORCHID</p>", "conditions": [24, 1600, "v", 12000], "internal_node_id": "0.0-78.0", "trial": 2, "time_elapsed": 450937, "serialpos": 16, "key_press": -1, "wordID": 981, "type": "PRES_VIS", "trial_index": 105}, "uniqueid": "MTK3614:3JJVG1YBEC44VYAN4K25X7CFIKP5BZ", "dateTime": 1520808930350}, {"current_trial": 106, "trialdata": {"rt": -1, "trial_type": "single-stim", "word": "guitar", "stimulus": "<p id=\"stim\">GUITAR</p>", "conditions": [24, 1600, "v", 12000], "internal_node_id": "0.0-79.0", "trial": 2, "time_elapsed": 453552, "serialpos": 17, "key_press": -1, "wordID": 669, "type": "PRES_VIS", "trial_index": 106}, "uniqueid": "MTK3614:3JJVG1YBEC44VYAN4K25X7CFIKP5BZ", "dateTime": 1520808932964}, {"current_trial": 107, "trialdata": {"rt": -1, "trial_type": "single-stim", "word": "tuba", "stimulus": "<p id=\"stim\">TUBA</p>", "conditions": [24, 1600, "v", 12000], "internal_node_id": "0.0-80.0", "trial": 2, "time_elapsed": 456281, "serialpos": 18, "key_press": -1, "wordID": 1514, "type": "PRES_VIS", "trial_index": 107}, "uniqueid": "MTK3614:3JJVG1YBEC44VYAN4K25X7CFIKP5BZ", "dateTime": 1520808935693}, {"current_trial": 108, "trialdata": {"rt": -1, "trial_type": "single-stim", "word": "hornet", "stimulus": "<p id=\"stim\">HORNET</p>", "conditions": [24, 1600, "v", 12000], "internal_node_id": "0.0-81.0", "trial": 2, "time_elapsed": 459005, "serialpos": 19, "key_press": -1, "wordID": 717, "type": "PRES_VIS", "trial_index": 108}, "uniqueid": "MTK3614:3JJVG1YBEC44VYAN4K25X7CFIKP5BZ", "dateTime": 1520808938417}, {"current_trial": 109, "trialdata": {"rt": -1, "trial_type": "single-stim", "word": "silk", "stimulus": "<p id=\"stim\">SILK</p>", "conditions": [24, 1600, "v", 12000], "internal_node_id": "0.0-82.0", "trial": 2, "time_elapsed": 461461, "serialpos": 20, "key_press": -1, "wordID": 1306, "type": "PRES_VIS", "trial_index": 109}, "uniqueid": "MTK3614:3JJVG1YBEC44VYAN4K25X7CFIKP5BZ", "dateTime": 1520808940873}, {"current_trial": 110, "trialdata": {"rt": -1, "trial_type": "single-stim", "word": "mask", "stimulus": "<p id=\"stim\">MASK</p>", "conditions": [24, 1600, "v", 12000], "internal_node_id": "0.0-83.0", "trial": 2, "time_elapsed": 464079, "serialpos": 21, "key_press": -1, "wordID": 875, "type": "PRES_VIS", "trial_index": 110}, "uniqueid": "MTK3614:3JJVG1YBEC44VYAN4K25X7CFIKP5BZ", "dateTime": 1520808943491}, {"current_trial": 111, "trialdata": {"rt": -1, "trial_type": "single-stim", "word": "wife", "stimulus": "<p id=\"stim\">WIFE</p>", "conditions": [24, 1600, "v", 12000], "internal_node_id": "0.0-84.0", "trial": 2, "time_elapsed": 466819, "serialpos": 22, "key_press": -1, "wordID": 1608, "type": "PRES_VIS", "trial_index": 111}, "uniqueid": "MTK3614:3JJVG1YBEC44VYAN4K25X7CFIKP5BZ", "dateTime": 1520808946231}, {"current_trial": 112, "trialdata": {"rt": -1, "trial_type": "single-stim", "word": "parent", "stimulus": "<p id=\"stim\">PARENT</p>", "conditions": [24, 1600, "v", 12000], "internal_node_id": "0.0-85.0", "trial": 2, "time_elapsed": 469280, "serialpos": 23, "key_press": -1, "wordID": 1012, "type": "PRES_VIS", "trial_index": 112}, "uniqueid": "MTK3614:3JJVG1YBEC44VYAN4K25X7CFIKP5BZ", "dateTime": 1520808948692}, {"current_trial": 113, "trialdata": {"rt": -1, "trial_type": "single-stim", "stimulus": "", "internal_node_id": "0.0-86.0-0.0", "time_elapsed": 471749, "key_press": -1, "type": "PRE_RECALL_DELAY", "trial_index": 113}, "uniqueid": "MTK3614:3JJVG1YBEC44VYAN4K25X7CFIKP5BZ", "dateTime": 1520808951161}, {"current_trial": 114, "trialdata": {"rt": -1000, "trial_type": "single-audio", "stimulus": "/static/audio/400Hz.wav", "internal_node_id": "0.0-87.0", "time_elapsed": 472250, "key_press": -1, "type": "PRE_RECALL_ALERT", "trial_index": 114}, "uniqueid": "MTK3614:3JJVG1YBEC44VYAN4K25X7CFIKP5BZ", "dateTime": 1520808951663}, {"current_trial": 115, "trialdata": {"rt": [2524, 3548, 6269, 12809, 15780, 16948, 25534, 26689, 27614, 32939, 35998, 37227, 41548, 48954, 51723, 59375], "recwords": ["wife", "parent", "spouse", "wife", "church", "chapel", "wasp", "poison", "spider", "tuba", "penguin", "swimmer", "lumber", "perfume", "worker", "zebra"], "key_times": [2067, 2221, 2305, 2409, 2524, 2787, 2859, 3054, 3122, 3234, 3366, 3548, 4063, 4132, 4799, 5308, 5631, 5850, 6010, 6111, 6269, 12164, 12243, 12343, 12411, 12809, 14964, 15056, 15195, 15307, 15504, 15565, 15780, 15959, 16124, 16224, 16347, 16458, 16720, 16948, 25029, 25104, 25213, 25348, 25534, 25756, 25887, 26120, 26360, 26436, 26526, 26689, 26799, 26898, 27079, 27203, 27324, 27460, 27614, 32380, 32459, 32640, 32753, 32939, 33365, 33837, 34968, 35082, 35211, 35383, 35542, 35729, 35778, 35998, 36203, 36370, 36446, 36567, 36719, 36930, 37018, 37227, 40646, 40815, 41010, 41205, 41307, 41408, 41548, 48163, 48220, 48289, 48442, 48530, 48699, 48812, 48954, 51133, 51217, 51337, 51401, 51519, 51607, 51723, 58391, 58476, 58678, 58798, 58986, 59375], "trial_type": "free-recall", "conditions": [24, 1600, "v", 12000], "internal_node_id": "0.0-88.0-0.0", "key_presses": [87, 73, 70, 69, 13, 80, 65, 82, 69, 78, 84, 13, 83, 79, 8, 80, 79, 85, 83, 69, 13, 87, 73, 70, 69, 13, 67, 72, 85, 82, 67, 72, 13, 67, 72, 65, 80, 69, 76, 13, 87, 65, 83, 80, 13, 80, 79, 73, 83, 79, 78, 13, 83, 80, 73, 68, 69, 82, 13, 84, 85, 66, 65, 13, 84, 8, 80, 69, 78, 71, 85, 73, 78, 13, 83, 87, 73, 77, 77, 69, 82, 13, 76, 85, 77, 66, 69, 82, 13, 80, 69, 82, 70, 85, 77, 69, 13, 87, 79, 82, 75, 69, 82, 13, 90, 69, 66, 82, 65, 13], "trial": 2, "time_elapsed": 532260, "type": "FREE_RECALL", "trial_index": 115}, "uniqueid": "MTK3614:3JJVG1YBEC44VYAN4K25X7CFIKP5BZ", "dateTime": 1520809011674}, {"current_trial": 116, "trialdata": {"rt": 7050, "trial_type": "text", "internal_node_id": "0.0-89.0", "time_elapsed": 541318, "key_press": 32, "type": "INSTRUCTIONS", "trial_index": 116}, "uniqueid": "MTK3614:3JJVG1YBEC44VYAN4K25X7CFIKP5BZ", "dateTime": 1520809020730}, {"current_trial": 117, "trialdata": {"rt": [3754, 5241, 6513, 7961, 9352, 11034, 12681, 14591, 16477, 20694, 22676], "trial_type": "math-distractor", "key_times": [3188, 3545, 3754, 4838, 5038, 5241, 6410, 6513, 7845, 7961, 9092, 9198, 9352, 10722, 10942, 11034, 12338, 12540, 12681, 14309, 14475, 14591, 16185, 16354, 16477, 20345, 20555, 20694, 22094, 22529, 22676], "responses": ["15", "18", "8", "7", "12", "15", "20", "13", "14", "24", "16"], "num2": [6, 5, 6, 3, 2, 8, 8, 3, 6, 6, 9, 9], "num3": [4, 8, 1, 2, 5, 4, 8, 9, 6, 9, 1, 7], "conditions": [12, 800, "v", 24000], "internal_node_id": "0.0-90.0", "key_presses": [49, 53, 13, 49, 56, 13, 56, 13, 55, 13, 49, 50, 13, 49, 53, 13, 50, 48, 13, 49, 51, 13, 49, 52, 13, 50, 52, 13, 49, 54, 13], "trial": 3, "time_elapsed": 567328, "type": "DISTRACTOR", "trial_index": 117, "num1": [5, 5, 1, 2, 5, 3, 4, 1, 4, 9, 6, 4]}, "uniqueid": "MTK3614:3JJVG1YBEC44VYAN4K25X7CFIKP5BZ", "dateTime": 1520809046741}, {"current_trial": 118, "trialdata": {"rt": -1, "trial_type": "single-stim", "stimulus": "<p id=\"stim\">10</p>", "internal_node_id": "0.0-91.0-0.0", "time_elapsed": 570335, "key_press": -1, "trial_index": 118}, "uniqueid": "MTK3614:3JJVG1YBEC44VYAN4K25X7CFIKP5BZ", "dateTime": 1520809049747}, {"current_trial": 119, "trialdata": {"rt": -1, "trial_type": "single-stim", "stimulus": "<p id=\"stim\">9</p>", "internal_node_id": "0.0-91.0-1.0", "time_elapsed": 571339, "key_press": -1, "trial_index": 119}, "uniqueid": "MTK3614:3JJVG1YBEC44VYAN4K25X7CFIKP5BZ", "dateTime": 1520809050751}, {"current_trial": 120, "trialdata": {"rt": -1, "trial_type": "single-stim", "stimulus": "<p id=\"stim\">8</p>", "internal_node_id": "0.0-91.0-2.0", "time_elapsed": 572343, "key_press": -1, "trial_index": 120}, "uniqueid": "MTK3614:3JJVG1YBEC44VYAN4K25X7CFIKP5BZ", "dateTime": 1520809051755}, {"current_trial": 121, "trialdata": {"rt": -1, "trial_type": "single-stim", "stimulus": "<p id=\"stim\">7</p>", "internal_node_id": "0.0-91.0-3.0", "time_elapsed": 573347, "key_press": -1, "trial_index": 121}, "uniqueid": "MTK3614:3JJVG1YBEC44VYAN4K25X7CFIKP5BZ", "dateTime": 1520809052759}, {"current_trial": 122, "trialdata": {"rt": -1, "trial_type": "single-stim", "stimulus": "<p id=\"stim\">6</p>", "internal_node_id": "0.0-91.0-4.0", "time_elapsed": 574351, "key_press": -1, "trial_index": 122}, "uniqueid": "MTK3614:3JJVG1YBEC44VYAN4K25X7CFIKP5BZ", "dateTime": 1520809053763}, {"current_trial": 123, "trialdata": {"rt": -1, "trial_type": "single-stim", "stimulus": "<p id=\"stim\">5</p>", "internal_node_id": "0.0-91.0-5.0", "time_elapsed": 575354, "key_press": -1, "trial_index": 123}, "uniqueid": "MTK3614:3JJVG1YBEC44VYAN4K25X7CFIKP5BZ", "dateTime": 1520809054766}, {"current_trial": 124, "trialdata": {"rt": -1, "trial_type": "single-stim", "stimulus": "<p id=\"stim\">4</p>", "internal_node_id": "0.0-91.0-6.0", "time_elapsed": 576356, "key_press": -1, "trial_index": 124}, "uniqueid": "MTK3614:3JJVG1YBEC44VYAN4K25X7CFIKP5BZ", "dateTime": 1520809055768}, {"current_trial": 125, "trialdata": {"rt": -1, "trial_type": "single-stim", "stimulus": "<p id=\"stim\">3</p>", "internal_node_id": "0.0-91.0-7.0", "time_elapsed": 577358, "key_press": -1, "trial_index": 125}, "uniqueid": "MTK3614:3JJVG1YBEC44VYAN4K25X7CFIKP5BZ", "dateTime": 1520809056770}, {"current_trial": 126, "trialdata": {"rt": -1, "trial_type": "single-stim", "stimulus": "<p id=\"stim\">2</p>", "internal_node_id": "0.0-91.0-8.0", "time_elapsed": 578361, "key_press": -1, "trial_index": 126}, "uniqueid": "MTK3614:3JJVG1YBEC44VYAN4K25X7CFIKP5BZ", "dateTime": 1520809057773}, {"current_trial": 127, "trialdata": {"rt": -1, "trial_type": "single-stim", "stimulus": "<p id=\"stim\">1</p>", "internal_node_id": "0.0-91.0-9.0", "time_elapsed": 579367, "key_press": -1, "trial_index": 127}, "uniqueid": "MTK3614:3JJVG1YBEC44VYAN4K25X7CFIKP5BZ", "dateTime": 1520809058779}, {"current_trial": 128, "trialdata": {"rt": -1, "trial_type": "single-stim", "stimulus": "<p id=\"stim\">+</p>", "internal_node_id": "0.0-92.0-0.0", "time_elapsed": 580870, "key_press": -1, "type": "FIXATION", "trial_index": 128}, "uniqueid": "MTK3614:3JJVG1YBEC44VYAN4K25X7CFIKP5BZ", "dateTime": 1520809060282}, {"current_trial": 129, "trialdata": {"rt": -1, "trial_type": "single-stim", "word": "robin", "stimulus": "<p id=\"stim\">ROBIN</p>", "conditions": [12, 800, "v", 24000], "internal_node_id": "0.0-93.0", "trial": 3, "time_elapsed": 581676, "serialpos": 0, "key_press": -1, "wordID": 1198, "type": "PRES_VIS", "trial_index": 129}, "uniqueid": "MTK3614:3JJVG1YBEC44VYAN4K25X7CFIKP5BZ", "dateTime": 1520809061088}, {"current_trial": 130, "trialdata": {"rt": -1, "trial_type": "single-stim", "word": "pecan", "stimulus": "<p id=\"stim\">PECAN</p>", "conditions": [12, 800, "v", 24000], "internal_node_id": "0.0-94.0", "trial": 3, "time_elapsed": 583650, "serialpos": 1, "key_press": -1, "wordID": 1035, "type": "PRES_VIS", "trial_index": 130}, "uniqueid": "MTK3614:3JJVG1YBEC44VYAN4K25X7CFIKP5BZ", "dateTime": 1520809063062}, {"current_trial": 131, "trialdata": {"rt": -1, "trial_type": "single-stim", "word": "apple", "stimulus": "<p id=\"stim\">APPLE</p>", "conditions": [12, 800, "v", 24000], "internal_node_id": "0.0-95.0", "trial": 3, "time_elapsed": 585536, "serialpos": 2, "key_press": -1, "wordID": 32, "type": "PRES_VIS", "trial_index": 131}, "uniqueid": "MTK3614:3JJVG1YBEC44VYAN4K25X7CFIKP5BZ", "dateTime": 1520809064948}, {"current_trial": 132, "trialdata": {"rt": -1, "trial_type": "single-stim", "word": "atom", "stimulus": "<p id=\"stim\">ATOM</p>", "conditions": [12, 800, "v", 24000], "internal_node_id": "0.0-96.0", "trial": 3, "time_elapsed": 587167, "serialpos": 3, "key_press": -1, "wordID": 54, "type": "PRES_VIS", "trial_index": 132}, "uniqueid": "MTK3614:3JJVG1YBEC44VYAN4K25X7CFIKP5BZ", "dateTime": 1520809066579}, {"current_trial": 133, "trialdata": {"rt": -1, "trial_type": "single-stim", "word": "eyelash", "stimulus": "<p id=\"stim\">EYELASH</p>", "conditions": [12, 800, "v", 24000], "internal_node_id": "0.0-97.0", "trial": 3, "time_elapsed": 588792, "serialpos": 4, "key_press": -1, "wordID": 545, "type": "PRES_VIS", "trial_index": 133}, "uniqueid": "MTK3614:3JJVG1YBEC44VYAN4K25X7CFIKP5BZ", "dateTime": 1520809068204}, {"current_trial": 134, "trialdata": {"rt": -1, "trial_type": "single-stim", "word": "twister", "stimulus": "<p id=\"stim\">TWISTER</p>", "conditions": [12, 800, "v", 24000], "internal_node_id": "0.0-98.0", "trial": 3, "time_elapsed": 590737, "serialpos": 5, "key_press": -1, "wordID": 1529, "type": "PRES_VIS", "trial_index": 134}, "uniqueid": "MTK3614:3JJVG1YBEC44VYAN4K25X7CFIKP5BZ", "dateTime": 1520809070149}, {"current_trial": 135, "trialdata": {"rt": -1, "trial_type": "single-stim", "word": "peanut", "stimulus": "<p id=\"stim\">PEANUT</p>", "conditions": [12, 800, "v", 24000], "internal_node_id": "0.0-99.0", "trial": 3, "time_elapsed": 592623, "serialpos": 6, "key_press": -1, "wordID": 1031, "type": "PRES_VIS", "trial_index": 135}, "uniqueid": "MTK3614:3JJVG1YBEC44VYAN4K25X7CFIKP5BZ", "dateTime": 1520809072035}, {"current_trial": 136, "trialdata": {"rt": -1, "trial_type": "single-stim", "word": "yacht", "stimulus": "<p id=\"stim\">YACHT</p>", "conditions": [12, 800, "v", 24000], "internal_node_id": "0.0-100.0", "trial": 3, "time_elapsed": 594504, "serialpos": 7, "key_press": -1, "wordID": 1628, "type": "PRES_VIS", "trial_index": 136}, "uniqueid": "MTK3614:3JJVG1YBEC44VYAN4K25X7CFIKP5BZ", "dateTime": 1520809073916}, {"current_trial": 137, "trialdata": {"rt": -1, "trial_type": "single-stim", "word": "puddle", "stimulus": "<p id=\"stim\">PUDDLE</p>", "conditions": [12, 800, "v", 24000], "internal_node_id": "0.0-101.0", "trial": 3, "time_elapsed": 596239, "serialpos": 8, "key_press": -1, "wordID": 1139, "type": "PRES_VIS", "trial_index": 137}, "uniqueid": "MTK3614:3JJVG1YBEC44VYAN4K25X7CFIKP5BZ", "dateTime": 1520809075651}, {"current_trial": 138, "trialdata": {"rt": -1, "trial_type": "single-stim", "word": "stallion", "stimulus": "<p id=\"stim\">STALLION</p>", "conditions": [12, 800, "v", 24000], "internal_node_id": "0.0-102.0", "trial": 3, "time_elapsed": 597962, "serialpos": 9, "key_press": -1, "wordID": 1368, "type": "PRES_VIS", "trial_index": 138}, "uniqueid": "MTK3614:3JJVG1YBEC44VYAN4K25X7CFIKP5BZ", "dateTime": 1520809077374}, {"current_trial": 139, "trialdata": {"rt": -1, "trial_type": "single-stim", "word": "flute", "stimulus": "<p id=\"stim\">FLUTE</p>", "conditions": [12, 800, "v", 24000], "internal_node_id": "0.0-103.0", "trial": 3, "time_elapsed": 599611, "serialpos": 10, "key_press": -1, "wordID": 584, "type": "PRES_VIS", "trial_index": 139}, "uniqueid": "MTK3614:3JJVG1YBEC44VYAN4K25X7CFIKP5BZ", "dateTime": 1520809079023}, {"current_trial": 140, "trialdata": {"rt": -1, "trial_type": "single-stim", "word": "harp", "stimulus": "<p id=\"stim\">HARP</p>", "conditions": [12, 800, "v", 24000], "internal_node_id": "0.0-104.0", "trial": 3, "time_elapsed": 601230, "serialpos": 11, "key_press": -1, "wordID": 688, "type": "PRES_VIS", "trial_index": 140}, "uniqueid": "MTK3614:3JJVG1YBEC44VYAN4K25X7CFIKP5BZ", "dateTime": 1520809080642}, {"current_trial": 141, "trialdata": {"rt": -1, "trial_type": "single-stim", "stimulus": "", "internal_node_id": "0.0-105.0-0.0", "time_elapsed": 603486, "key_press": -1, "type": "PRE_RECALL_DELAY", "trial_index": 141}, "uniqueid": "MTK3614:3JJVG1YBEC44VYAN4K25X7CFIKP5BZ", "dateTime": 1520809082898}, {"current_trial": 142, "trialdata": {"rt": -1000, "trial_type": "single-audio", "stimulus": "/static/audio/400Hz.wav", "internal_node_id": "0.0-106.0", "time_elapsed": 603987, "key_press": -1, "type": "PRE_RECALL_ALERT", "trial_index": 142}, "uniqueid": "MTK3614:3JJVG1YBEC44VYAN4K25X7CFIKP5BZ", "dateTime": 1520809083399}, {"current_trial": 143, "trialdata": {"rt": [8487, 9538, 14630, 16261, 18250, 22573, 24124, 25087], "recwords": ["pecan", "apple", "twister", "eyelash", "yacht", "stallion", "flute", "puddle"], "key_times": [7764, 7851, 8059, 8159, 8267, 8487, 8923, 9073, 9208, 9300, 9434, 9538, 13816, 13995, 14112, 14208, 14327, 14443, 14546, 14630, 14968, 15181, 15256, 15436, 15558, 15726, 15912, 16261, 17615, 17683, 17839, 18007, 18134, 18250, 20961, 21211, 21558, 21723, 21864, 22007, 22159, 22316, 22573, 23532, 23608, 23767, 23900, 24016, 24124, 24324, 24493, 24583, 24714, 24810, 24930, 25087], "trial_type": "free-recall", "conditions": [12, 800, "v", 24000], "internal_node_id": "0.0-107.0-0.0", "key_presses": [80, 69, 67, 65, 78, 13, 65, 80, 80, 76, 69, 13, 84, 87, 73, 83, 84, 69, 82, 13, 69, 89, 69, 76, 65, 83, 72, 13, 89, 65, 67, 72, 84, 13, 83, 84, 65, 76, 76, 73, 79, 78, 13, 70, 76, 85, 84, 69, 13, 80, 85, 68, 68, 76, 69, 13], "trial": 3, "time_elapsed": 663994, "type": "FREE_RECALL", "trial_index": 143}, "uniqueid": "MTK3614:3JJVG1YBEC44VYAN4K25X7CFIKP5BZ", "dateTime": 1520809143409}, {"current_trial": 144, "trialdata": {"rt": 89572, "trial_type": "text", "internal_node_id": "0.0-108.0", "time_elapsed": 755572, "key_press": 32, "type": "INSTRUCTIONS", "trial_index": 144}, "uniqueid": "MTK3614:3JJVG1YBEC44VYAN4K25X7CFIKP5BZ", "dateTime": 1520809234985}, {"current_trial": 145, "trialdata": {"rt": [2644, 4134, 5981, 12336, 13604, 14971, 17299, 19096, 21263, 23924], "trial_type": "math-distractor", "key_times": [2327, 2329, 2385, 2644, 4036, 4134, 5707, 5797, 5981, 12065, 12222, 12336, 13495, 13604, 14717, 14846, 14971, 17049, 17176, 17299, 18798, 18978, 19096, 21153, 21263, 23177, 23714, 23924], "responses": ["217", "8", "19", "24", "6", "12", "13", "14", "9", "16"], "num2": [8, 1, 9, 7, 1, 4, 2, 7, 3, 7, 3], "num3": [4, 6, 8, 8, 3, 6, 8, 5, 4, 5, 5], "conditions": [12, 800, "v", 24000], "internal_node_id": "0.0-109.0", "key_presses": [50, 49, 55, 13, 56, 13, 49, 57, 13, 50, 52, 13, 54, 13, 49, 50, 13, 49, 51, 13, 49, 52, 13, 57, 13, 49, 54, 13], "trial": 4, "time_elapsed": 781585, "type": "DISTRACTOR", "trial_index": 145, "num1": [5, 1, 2, 9, 2, 2, 3, 2, 2, 4, 2]}, "uniqueid": "MTK3614:3JJVG1YBEC44VYAN4K25X7CFIKP5BZ", "dateTime": 1520809260997}, {"current_trial": 146, "trialdata": {"rt": -1, "trial_type": "single-stim", "stimulus": "<p id=\"stim\">10</p>", "internal_node_id": "0.0-110.0-0.0", "time_elapsed": 784596, "key_press": -1, "trial_index": 146}, "uniqueid": "MTK3614:3JJVG1YBEC44VYAN4K25X7CFIKP5BZ", "dateTime": 1520809264008}, {"current_trial": 147, "trialdata": {"rt": -1, "trial_type": "single-stim", "stimulus": "<p id=\"stim\">9</p>", "internal_node_id": "0.0-110.0-1.0", "time_elapsed": 785600, "key_press": -1, "trial_index": 147}, "uniqueid": "MTK3614:3JJVG1YBEC44VYAN4K25X7CFIKP5BZ", "dateTime": 1520809265012}, {"current_trial": 148, "trialdata": {"rt": -1, "trial_type": "single-stim", "stimulus": "<p id=\"stim\">8</p>", "internal_node_id": "0.0-110.0-2.0", "time_elapsed": 786604, "key_press": -1, "trial_index": 148}, "uniqueid": "MTK3614:3JJVG1YBEC44VYAN4K25X7CFIKP5BZ", "dateTime": 1520809266016}, {"current_trial": 149, "trialdata": {"rt": -1, "trial_type": "single-stim", "stimulus": "<p id=\"stim\">7</p>", "internal_node_id": "0.0-110.0-3.0", "time_elapsed": 787608, "key_press": -1, "trial_index": 149}, "uniqueid": "MTK3614:3JJVG1YBEC44VYAN4K25X7CFIKP5BZ", "dateTime": 1520809267020}, {"current_trial": 150, "trialdata": {"rt": -1, "trial_type": "single-stim", "stimulus": "<p id=\"stim\">6</p>", "internal_node_id": "0.0-110.0-4.0", "time_elapsed": 788613, "key_press": -1, "trial_index": 150}, "uniqueid": "MTK3614:3JJVG1YBEC44VYAN4K25X7CFIKP5BZ", "dateTime": 1520809268025}, {"current_trial": 151, "trialdata": {"rt": -1, "trial_type": "single-stim", "stimulus": "<p id=\"stim\">5</p>", "internal_node_id": "0.0-110.0-5.0", "time_elapsed": 789617, "key_press": -1, "trial_index": 151}, "uniqueid": "MTK3614:3JJVG1YBEC44VYAN4K25X7CFIKP5BZ", "dateTime": 1520809269029}, {"current_trial": 152, "trialdata": {"rt": -1, "trial_type": "single-stim", "stimulus": "<p id=\"stim\">4</p>", "internal_node_id": "0.0-110.0-6.0", "time_elapsed": 790620, "key_press": -1, "trial_index": 152}, "uniqueid": "MTK3614:3JJVG1YBEC44VYAN4K25X7CFIKP5BZ", "dateTime": 1520809270032}, {"current_trial": 153, "trialdata": {"rt": -1, "trial_type": "single-stim", "stimulus": "<p id=\"stim\">3</p>", "internal_node_id": "0.0-110.0-7.0", "time_elapsed": 791625, "key_press": -1, "trial_index": 153}, "uniqueid": "MTK3614:3JJVG1YBEC44VYAN4K25X7CFIKP5BZ", "dateTime": 1520809271037}, {"current_trial": 154, "trialdata": {"rt": -1, "trial_type": "single-stim", "stimulus": "<p id=\"stim\">2</p>", "internal_node_id": "0.0-110.0-8.0", "time_elapsed": 792629, "key_press": -1, "trial_index": 154}, "uniqueid": "MTK3614:3JJVG1YBEC44VYAN4K25X7CFIKP5BZ", "dateTime": 1520809272041}, {"current_trial": 155, "trialdata": {"rt": -1, "trial_type": "single-stim", "stimulus": "<p id=\"stim\">1</p>", "internal_node_id": "0.0-110.0-9.0", "time_elapsed": 793633, "key_press": -1, "trial_index": 155}, "uniqueid": "MTK3614:3JJVG1YBEC44VYAN4K25X7CFIKP5BZ", "dateTime": 1520809273045}, {"current_trial": 156, "trialdata": {"rt": -1, "trial_type": "single-stim", "stimulus": "<p id=\"stim\">+</p>", "internal_node_id": "0.0-111.0-0.0", "time_elapsed": 795136, "key_press": -1, "type": "FIXATION", "trial_index": 156}, "uniqueid": "MTK3614:3JJVG1YBEC44VYAN4K25X7CFIKP5BZ", "dateTime": 1520809274548}, {"current_trial": 157, "trialdata": {"rt": -1, "trial_type": "single-stim", "word": "forest", "stimulus": "<p id=\"stim\">FOREST</p>", "conditions": [12, 800, "v", 24000], "internal_node_id": "0.0-112.0", "trial": 4, "time_elapsed": 795939, "serialpos": 0, "key_press": -1, "wordID": 592, "type": "PRES_VIS", "trial_index": 157}, "uniqueid": "MTK3614:3JJVG1YBEC44VYAN4K25X7CFIKP5BZ", "dateTime": 1520809275351}, {"current_trial": 158, "trialdata": {"rt": -1, "trial_type": "single-stim", "word": "whiskers", "stimulus": "<p id=\"stim\">WHISKERS</p>", "conditions": [12, 800, "v", 24000], "internal_node_id": "0.0-113.0", "trial": 4, "time_elapsed": 797759, "serialpos": 1, "key_press": -1, "wordID": 1604, "type": "PRES_VIS", "trial_index": 158}, "uniqueid": "MTK3614:3JJVG1YBEC44VYAN4K25X7CFIKP5BZ", "dateTime": 1520809277171}, {"current_trial": 159, "trialdata": {"rt": -1, "trial_type": "single-stim", "word": "rust", "stimulus": "<p id=\"stim\">RUST</p>", "conditions": [12, 800, "v", 24000], "internal_node_id": "0.0-114.0", "trial": 4, "time_elapsed": 799588, "serialpos": 2, "key_press": -1, "wordID": 1218, "type": "PRES_VIS", "trial_index": 159}, "uniqueid": "MTK3614:3JJVG1YBEC44VYAN4K25X7CFIKP5BZ", "dateTime": 1520809279000}, {"current_trial": 160, "trialdata": {"rt": -1, "trial_type": "single-stim", "word": "turkey", "stimulus": "<p id=\"stim\">TURKEY</p>", "conditions": [12, 800, "v", 24000], "internal_node_id": "0.0-115.0", "trial": 4, "time_elapsed": 801359, "serialpos": 3, "key_press": -1, "wordID": 1519, "type": "PRES_VIS", "trial_index": 160}, "uniqueid": "MTK3614:3JJVG1YBEC44VYAN4K25X7CFIKP5BZ", "dateTime": 1520809280771}, {"current_trial": 161, "trialdata": {"rt": -1, "trial_type": "single-stim", "word": "quail", "stimulus": "<p id=\"stim\">QUAIL</p>", "conditions": [12, 800, "v", 24000], "internal_node_id": "0.0-116.0", "trial": 4, "time_elapsed": 803024, "serialpos": 4, "key_press": -1, "wordID": 1146, "type": "PRES_VIS", "trial_index": 161}, "uniqueid": "MTK3614:3JJVG1YBEC44VYAN4K25X7CFIKP5BZ", "dateTime": 1520809282436}, {"current_trial": 162, "trialdata": {"rt": -1, "trial_type": "single-stim", "word": "sculpture", "stimulus": "<p id=\"stim\">SCULPTURE</p>", "conditions": [12, 800, "v", 24000], "internal_node_id": "0.0-117.0", "trial": 4, "time_elapsed": 804981, "serialpos": 5, "key_press": -1, "wordID": 1257, "type": "PRES_VIS", "trial_index": 162}, "uniqueid": "MTK3614:3JJVG1YBEC44VYAN4K25X7CFIKP5BZ", "dateTime": 1520809284393}, {"current_trial": 163, "trialdata": {"rt": -1, "trial_type": "single-stim", "word": "grill", "stimulus": "<p id=\"stim\">GRILL</p>", "conditions": [12, 800, "v", 24000], "internal_node_id": "0.0-118.0", "trial": 4, "time_elapsed": 806936, "serialpos": 6, "key_press": -1, "wordID": 660, "type": "PRES_VIS", "trial_index": 163}, "uniqueid": "MTK3614:3JJVG1YBEC44VYAN4K25X7CFIKP5BZ", "dateTime": 1520809286348}, {"current_trial": 164, "trialdata": {"rt": -1, "trial_type": "single-stim", "word": "frame", "stimulus": "<p id=\"stim\">FRAME</p>", "conditions": [12, 800, "v", 24000], "internal_node_id": "0.0-119.0", "trial": 4, "time_elapsed": 808591, "serialpos": 7, "key_press": -1, "wordID": 599, "type": "PRES_VIS", "trial_index": 164}, "uniqueid": "MTK3614:3JJVG1YBEC44VYAN4K25X7CFIKP5BZ", "dateTime": 1520809288003}, {"current_trial": 165, "trialdata": {"rt": -1, "trial_type": "single-stim", "word": "chest", "stimulus": "<p id=\"stim\">CHEST</p>", "conditions": [12, 800, "v", 24000], "internal_node_id": "0.0-120.0", "trial": 4, "time_elapsed": 810337, "serialpos": 8, "key_press": -1, "wordID": 294, "type": "PRES_VIS", "trial_index": 165}, "uniqueid": "MTK3614:3JJVG1YBEC44VYAN4K25X7CFIKP5BZ", "dateTime": 1520809289749}, {"current_trial": 166, "trialdata": {"rt": -1, "trial_type": "single-stim", "word": "crown", "stimulus": "<p id=\"stim\">CROWN</p>", "conditions": [12, 800, "v", 24000], "internal_node_id": "0.0-121.0", "trial": 4, "time_elapsed": 811998, "serialpos": 9, "key_press": -1, "wordID": 414, "type": "PRES_VIS", "trial_index": 166}, "uniqueid": "MTK3614:3JJVG1YBEC44VYAN4K25X7CFIKP5BZ", "dateTime": 1520809291410}, {"current_trial": 167, "trialdata": {"rt": -1, "trial_type": "single-stim", "word": "daisy", "stimulus": "<p id=\"stim\">DAISY</p>", "conditions": [12, 800, "v", 24000], "internal_node_id": "0.0-122.0", "trial": 4, "time_elapsed": 813657, "serialpos": 10, "key_press": -1, "wordID": 434, "type": "PRES_VIS", "trial_index": 167}, "uniqueid": "MTK3614:3JJVG1YBEC44VYAN4K25X7CFIKP5BZ", "dateTime": 1520809293069}, {"current_trial": 168, "trialdata": {"rt": -1, "trial_type": "single-stim", "word": "skillet", "stimulus": "<p id=\"stim\">SKILLET</p>", "conditions": [12, 800, "v", 24000], "internal_node_id": "0.0-123.0", "trial": 4, "time_elapsed": 815273, "serialpos": 11, "key_press": -1, "wordID": 1316, "type": "PRES_VIS", "trial_index": 168}, "uniqueid": "MTK3614:3JJVG1YBEC44VYAN4K25X7CFIKP5BZ", "dateTime": 1520809294685}, {"current_trial": 169, "trialdata": {"rt": -1, "trial_type": "single-stim", "stimulus": "", "internal_node_id": "0.0-124.0-0.0", "time_elapsed": 817535, "key_press": -1, "type": "PRE_RECALL_DELAY", "trial_index": 169}, "uniqueid": "MTK3614:3JJVG1YBEC44VYAN4K25X7CFIKP5BZ", "dateTime": 1520809296947}, {"current_trial": 170, "trialdata": {"rt": -1000, "trial_type": "single-audio", "stimulus": "/static/audio/400Hz.wav", "internal_node_id": "0.0-125.0", "time_elapsed": 818035, "key_press": -1, "type": "PRE_RECALL_ALERT", "trial_index": 170}, "uniqueid": "MTK3614:3JJVG1YBEC44VYAN4K25X7CFIKP5BZ", "dateTime": 1520809297447}, {"current_trial": 171, "trialdata": {"rt": [1725, 2696, 8537, 12446, 14474, 15024, 17373, 21050, 24607, 27412], "recwords": ["daisy", "skillet", "whiskers", "turkey", "quail", "rust", "grill", "chest", "crown", "frame"], "key_times": [1170, 1201, 1338, 1446, 1541, 1725, 1885, 1977, 2151, 2293, 2424, 2520, 2609, 2696, 7770, 7839, 7933, 7988, 8124, 8229, 8317, 8412, 8537, 11391, 11489, 11573, 11743, 11829, 11962, 12216, 12324, 12446, 13331, 13479, 13770, 13988, 14101, 14197, 14276, 14474, 14620, 14716, 14807, 14924, 15024, 16669, 16830, 16883, 17100, 17220, 17373, 20257, 20329, 20468, 20565, 20696, 21050, 21770, 22009, 22133, 22379, 22521, 22938, 23014, 23148, 23284, 24607, 25950, 26129, 26217, 26458, 26896, 27148, 27276, 27412], "trial_type": "free-recall", "conditions": [12, 800, "v", 24000], "internal_node_id": "0.0-126.0-0.0", "key_presses": [68, 65, 73, 83, 89, 13, 83, 75, 73, 76, 76, 69, 84, 13, 87, 72, 73, 83, 75, 69, 82, 83, 13, 84, 85, 82, 75, 69, 84, 8, 89, 13, 81, 73, 8, 85, 65, 73, 76, 13, 82, 85, 83, 84, 13, 71, 82, 73, 76, 76, 13, 67, 72, 69, 83, 84, 13, 67, 82, 79, 8, 8, 82, 79, 87, 78, 13, 70, 82, 65, 69, 8, 77, 69, 13], "trial": 4, "time_elapsed": 878040, "type": "FREE_RECALL", "trial_index": 171}, "uniqueid": "MTK3614:3JJVG1YBEC44VYAN4K25X7CFIKP5BZ", "dateTime": 1520809357454}, {"current_trial": 172, "trialdata": {"rt": 21547, "trial_type": "text", "internal_node_id": "0.0-127.0", "time_elapsed": 901594, "key_press": 32, "type": "INSTRUCTIONS", "trial_index": 172}, "uniqueid": "MTK3614:3JJVG1YBEC44VYAN4K25X7CFIKP5BZ", "dateTime": 1520809381007}, {"current_trial": 173, "trialdata": {"rt": [1861, 3890, 5601, 7070, 9283, 10665, 12363, 13988, 15477, 16917, 19207, 21132], "trial_type": "math-distractor", "key_times": [1586, 1688, 1861, 3589, 3754, 3890, 5379, 5496, 5601, 6750, 6999, 7070, 8872, 9112, 9283, 10437, 10569, 10665, 11761, 12232, 12363, 13531, 13774, 13988, 15304, 15477, 16564, 16781, 16917, 18830, 19068, 19207, 20788, 20978, 21132, 23589, 23898], "responses": ["10", "14", "12", "15", "19", "11", "15", "17", "9", "15", "26", "16"], "num2": [2, 3, 7, 7, 8, 3, 7, 5, 4, 6, 9, 8, 7], "num3": [5, 3, 1, 3, 9, 1, 3, 5, 1, 8, 8, 6, 2], "conditions": [24, 1600, "v", 24000], "internal_node_id": "0.0-128.0", "key_presses": [49, 48, 13, 49, 52, 13, 49, 50, 13, 49, 53, 13, 49, 57, 13, 49, 49, 13, 49, 53, 13, 49, 55, 13, 57, 13, 49, 53, 13, 50, 54, 13, 49, 54, 13, 49, 52], "trial": 5, "time_elapsed": 927607, "type": "DISTRACTOR", "trial_index": 173, "num1": [3, 8, 4, 5, 2, 7, 5, 7, 4, 1, 9, 2, 5]}, "uniqueid": "MTK3614:3JJVG1YBEC44VYAN4K25X7CFIKP5BZ", "dateTime": 1520809407019}, {"current_trial": 174, "trialdata": {"rt": -1, "trial_type": "single-stim", "stimulus": "<p id=\"stim\">10</p>", "internal_node_id": "0.0-129.0-0.0", "time_elapsed": 930614, "key_press": -1, "trial_index": 174}, "uniqueid": "MTK3614:3JJVG1YBEC44VYAN4K25X7CFIKP5BZ", "dateTime": 1520809410026}, {"current_trial": 175, "trialdata": {"rt": -1, "trial_type": "single-stim", "stimulus": "<p id=\"stim\">9</p>", "internal_node_id": "0.0-129.0-1.0", "time_elapsed": 931618, "key_press": -1, "trial_index": 175}, "uniqueid": "MTK3614:3JJVG1YBEC44VYAN4K25X7CFIKP5BZ", "dateTime": 1520809411030}, {"current_trial": 176, "trialdata": {"rt": -1, "trial_type": "single-stim", "stimulus": "<p id=\"stim\">8</p>", "internal_node_id": "0.0-129.0-2.0", "time_elapsed": 932621, "key_press": -1, "trial_index": 176}, "uniqueid": "MTK3614:3JJVG1YBEC44VYAN4K25X7CFIKP5BZ", "dateTime": 1520809412034}, {"current_trial": 177, "trialdata": {"rt": -1, "trial_type": "single-stim", "stimulus": "<p id=\"stim\">7</p>", "internal_node_id": "0.0-129.0-3.0", "time_elapsed": 933626, "key_press": -1, "trial_index": 177}, "uniqueid": "MTK3614:3JJVG1YBEC44VYAN4K25X7CFIKP5BZ", "dateTime": 1520809413038}, {"current_trial": 178, "trialdata": {"rt": -1, "trial_type": "single-stim", "stimulus": "<p id=\"stim\">6</p>", "internal_node_id": "0.0-129.0-4.0", "time_elapsed": 934630, "key_press": -1, "trial_index": 178}, "uniqueid": "MTK3614:3JJVG1YBEC44VYAN4K25X7CFIKP5BZ", "dateTime": 1520809414042}, {"current_trial": 179, "trialdata": {"rt": -1, "trial_type": "single-stim", "stimulus": "<p id=\"stim\">5</p>", "internal_node_id": "0.0-129.0-5.0", "time_elapsed": 935634, "key_press": -1, "trial_index": 179}, "uniqueid": "MTK3614:3JJVG1YBEC44VYAN4K25X7CFIKP5BZ", "dateTime": 1520809415047}, {"current_trial": 180, "trialdata": {"rt": -1, "trial_type": "single-stim", "stimulus": "<p id=\"stim\">4</p>", "internal_node_id": "0.0-129.0-6.0", "time_elapsed": 936638, "key_press": -1, "trial_index": 180}, "uniqueid": "MTK3614:3JJVG1YBEC44VYAN4K25X7CFIKP5BZ", "dateTime": 1520809416050}, {"current_trial": 181, "trialdata": {"rt": -1, "trial_type": "single-stim", "stimulus": "<p id=\"stim\">3</p>", "internal_node_id": "0.0-129.0-7.0", "time_elapsed": 937642, "key_press": -1, "trial_index": 181}, "uniqueid": "MTK3614:3JJVG1YBEC44VYAN4K25X7CFIKP5BZ", "dateTime": 1520809417055}, {"current_trial": 182, "trialdata": {"rt": -1, "trial_type": "single-stim", "stimulus": "<p id=\"stim\">2</p>", "internal_node_id": "0.0-129.0-8.0", "time_elapsed": 938645, "key_press": -1, "trial_index": 182}, "uniqueid": "MTK3614:3JJVG1YBEC44VYAN4K25X7CFIKP5BZ", "dateTime": 1520809418058}, {"current_trial": 183, "trialdata": {"rt": -1, "trial_type": "single-stim", "stimulus": "<p id=\"stim\">1</p>", "internal_node_id": "0.0-129.0-9.0", "time_elapsed": 939650, "key_press": -1, "trial_index": 183}, "uniqueid": "MTK3614:3JJVG1YBEC44VYAN4K25X7CFIKP5BZ", "dateTime": 1520809419063}, {"current_trial": 184, "trialdata": {"rt": -1, "trial_type": "single-stim", "stimulus": "<p id=\"stim\">+</p>", "internal_node_id": "0.0-130.0-0.0", "time_elapsed": 941154, "key_press": -1, "type": "FIXATION", "trial_index": 184}, "uniqueid": "MTK3614:3JJVG1YBEC44VYAN4K25X7CFIKP5BZ", "dateTime": 1520809420566}, {"current_trial": 185, "trialdata": {"rt": -1, "trial_type": "single-stim", "word": "xerox", "stimulus": "<p id=\"stim\">XEROX</p>", "conditions": [24, 1600, "v", 24000], "internal_node_id": "0.0-131.0", "trial": 5, "time_elapsed": 942757, "serialpos": 0, "key_press": -1, "wordID": 1627, "type": "PRES_VIS", "trial_index": 185}, "uniqueid": "MTK3614:3JJVG1YBEC44VYAN4K25X7CFIKP5BZ", "dateTime": 1520809422169}, {"current_trial": 186, "trialdata": {"rt": -1, "trial_type": "single-stim", "word": "dress", "stimulus": "<p id=\"stim\">DRESS</p>", "conditions": [24, 1600, "v", 24000], "internal_node_id": "0.0-132.0", "trial": 5, "time_elapsed": 945281, "serialpos": 1, "key_press": -1, "wordID": 494, "type": "PRES_VIS", "trial_index": 186}, "uniqueid": "MTK3614:3JJVG1YBEC44VYAN4K25X7CFIKP5BZ", "dateTime": 1520809424693}, {"current_trial": 187, "trialdata": {"rt": -1, "trial_type": "single-stim", "word": "sunrise", "stimulus": "<p id=\"stim\">SUNRISE</p>", "conditions": [24, 1600, "v", 24000], "internal_node_id": "0.0-133.0", "trial": 5, "time_elapsed": 947696, "serialpos": 2, "key_press": -1, "wordID": 1406, "type": "PRES_VIS", "trial_index": 187}, "uniqueid": "MTK3614:3JJVG1YBEC44VYAN4K25X7CFIKP5BZ", "dateTime": 1520809427108}, {"current_trial": 188, "trialdata": {"rt": -1, "trial_type": "single-stim", "word": "trout", "stimulus": "<p id=\"stim\">TROUT</p>", "conditions": [24, 1600, "v", 24000], "internal_node_id": "0.0-134.0", "trial": 5, "time_elapsed": 950406, "serialpos": 3, "key_press": -1, "wordID": 1510, "type": "PRES_VIS", "trial_index": 188}, "uniqueid": "MTK3614:3JJVG1YBEC44VYAN4K25X7CFIKP5BZ", "dateTime": 1520809429818}, {"current_trial": 189, "trialdata": {"rt": -1, "trial_type": "single-stim", "word": "wagon", "stimulus": "<p id=\"stim\">WAGON</p>", "conditions": [24, 1600, "v", 24000], "internal_node_id": "0.0-135.0", "trial": 5, "time_elapsed": 953000, "serialpos": 4, "key_press": -1, "wordID": 1577, "type": "PRES_VIS", "trial_index": 189}, "uniqueid": "MTK3614:3JJVG1YBEC44VYAN4K25X7CFIKP5BZ", "dateTime": 1520809432412}, {"current_trial": 190, "trialdata": {"rt": -1, "trial_type": "single-stim", "word": "clothes", "stimulus": "<p id=\"stim\">CLOTHES</p>", "conditions": [24, 1600, "v", 24000], "internal_node_id": "0.0-136.0", "trial": 5, "time_elapsed": 955767, "serialpos": 5, "key_press": -1, "wordID": 326, "type": "PRES_VIS", "trial_index": 190}, "uniqueid": "MTK3614:3JJVG1YBEC44VYAN4K25X7CFIKP5BZ", "dateTime": 1520809435179}, {"current_trial": 191, "trialdata": {"rt": -1, "trial_type": "single-stim", "word": "nightgown", "stimulus": "<p id=\"stim\">NIGHTGOWN</p>", "conditions": [24, 1600, "v", 24000], "internal_node_id": "0.0-137.0", "trial": 5, "time_elapsed": 958189, "serialpos": 6, "key_press": -1, "wordID": 952, "type": "PRES_VIS", "trial_index": 191}, "uniqueid": "MTK3614:3JJVG1YBEC44VYAN4K25X7CFIKP5BZ", "dateTime": 1520809437601}, {"current_trial": 192, "trialdata": {"rt": -1, "trial_type": "single-stim", "word": "jungle", "stimulus": "<p id=\"stim\">JUNGLE</p>", "conditions": [24, 1600, "v", 24000], "internal_node_id": "0.0-138.0", "trial": 5, "time_elapsed": 960604, "serialpos": 7, "key_press": -1, "wordID": 763, "type": "PRES_VIS", "trial_index": 192}, "uniqueid": "MTK3614:3JJVG1YBEC44VYAN4K25X7CFIKP5BZ", "dateTime": 1520809440016}, {"current_trial": 193, "trialdata": {"rt": -1, "trial_type": "single-stim", "word": "patient", "stimulus": "<p id=\"stim\">PATIENT</p>", "conditions": [24, 1600, "v", 24000], "internal_node_id": "0.0-139.0", "trial": 5, "time_elapsed": 963210, "serialpos": 8, "key_press": -1, "wordID": 1023, "type": "PRES_VIS", "trial_index": 193}, "uniqueid": "MTK3614:3JJVG1YBEC44VYAN4K25X7CFIKP5BZ", "dateTime": 1520809442622}, {"current_trial": 194, "trialdata": {"rt": -1, "trial_type": "single-stim", "word": "yarn", "stimulus": "<p id=\"stim\">YARN</p>", "conditions": [24, 1600, "v", 24000], "internal_node_id": "0.0-140.0", "trial": 5, "time_elapsed": 965903, "serialpos": 9, "key_press": -1, "wordID": 1630, "type": "PRES_VIS", "trial_index": 194}, "uniqueid": "MTK3614:3JJVG1YBEC44VYAN4K25X7CFIKP5BZ", "dateTime": 1520809445316}, {"current_trial": 195, "trialdata": {"rt": -1, "trial_type": "single-stim", "word": "europe", "stimulus": "<p id=\"stim\">EUROPE</p>", "conditions": [24, 1600, "v", 24000], "internal_node_id": "0.0-141.0", "trial": 5, "time_elapsed": 968491, "serialpos": 10, "key_press": -1, "wordID": 540, "type": "PRES_VIS", "trial_index": 195}, "uniqueid": "MTK3614:3JJVG1YBEC44VYAN4K25X7CFIKP5BZ", "dateTime": 1520809447903}, {"current_trial": 196, "trialdata": {"rt": -1, "trial_type": "single-stim", "word": "truck", "stimulus": "<p id=\"stim\">TRUCK</p>", "conditions": [24, 1600, "v", 24000], "internal_node_id": "0.0-142.0", "trial": 5, "time_elapsed": 971058, "serialpos": 11, "key_press": -1, "wordID": 1511, "type": "PRES_VIS", "trial_index": 196}, "uniqueid": "MTK3614:3JJVG1YBEC44VYAN4K25X7CFIKP5BZ", "dateTime": 1520809450470}, {"current_trial": 197, "trialdata": {"rt": -1, "trial_type": "single-stim", "word": "mop", "stimulus": "<p id=\"stim\">MOP</p>", "conditions": [24, 1600, "v", 24000], "internal_node_id": "0.0-143.0", "trial": 5, "time_elapsed": 973706, "serialpos": 12, "key_press": -1, "wordID": 915, "type": "PRES_VIS", "trial_index": 197}, "uniqueid": "MTK3614:3JJVG1YBEC44VYAN4K25X7CFIKP5BZ", "dateTime": 1520809453119}, {"current_trial": 198, "trialdata": {"rt": -1, "trial_type": "single-stim", "word": "slime", "stimulus": "<p id=\"stim\">SLIME</p>", "conditions": [24, 1600, "v", 24000], "internal_node_id": "0.0-144.0", "trial": 5, "time_elapsed": 976455, "serialpos": 13, "key_press": -1, "wordID": 1326, "type": "PRES_VIS", "trial_index": 198}, "uniqueid": "MTK3614:3JJVG1YBEC44VYAN4K25X7CFIKP5BZ", "dateTime": 1520809455867}, {"current_trial": 199, "trialdata": {"rt": -1, "trial_type": "single-stim", "word": "drink", "stimulus": "<p id=\"stim\">DRINK</p>", "conditions": [24, 1600, "v", 24000], "internal_node_id": "0.0-145.0", "trial": 5, "time_elapsed": 979148, "serialpos": 14, "key_press": -1, "wordID": 497, "type": "PRES_VIS", "trial_index": 199}, "uniqueid": "MTK3614:3JJVG1YBEC44VYAN4K25X7CFIKP5BZ", "dateTime": 1520809458560}, {"current_trial": 200, "trialdata": {"rt": -1, "trial_type": "single-stim", "word": "dandruff", "stimulus": "<p id=\"stim\">DANDRUFF</p>", "conditions": [24, 1600, "v", 24000], "internal_node_id": "0.0-146.0", "trial": 5, "time_elapsed": 981713, "serialpos": 15, "key_press": -1, "wordID": 438, "type": "PRES_VIS", "trial_index": 200}, "uniqueid": "MTK3614:3JJVG1YBEC44VYAN4K25X7CFIKP5BZ", "dateTime": 1520809461125}, {"current_trial": 201, "trialdata": {"rt": -1, "trial_type": "single-stim", "word": "river", "stimulus": "<p id=\"stim\">RIVER</p>", "conditions": [24, 1600, "v", 24000], "internal_node_id": "0.0-147.0", "trial": 5, "time_elapsed": 984343, "serialpos": 16, "key_press": -1, "wordID": 1193, "type": "PRES_VIS", "trial_index": 201}, "uniqueid": "MTK3614:3JJVG1YBEC44VYAN4K25X7CFIKP5BZ", "dateTime": 1520809463755}, {"current_trial": 202, "trialdata": {"rt": -1, "trial_type": "single-stim", "word": "popcorn", "stimulus": "<p id=\"stim\">POPCORN</p>", "conditions": [24, 1600, "v", 24000], "internal_node_id": "0.0-148.0", "trial": 5, "time_elapsed": 987030, "serialpos": 17, "key_press": -1, "wordID": 1103, "type": "PRES_VIS", "trial_index": 202}, "uniqueid": "MTK3614:3JJVG1YBEC44VYAN4K25X7CFIKP5BZ", "dateTime": 1520809466443}, {"current_trial": 203, "trialdata": {"rt": -1, "trial_type": "single-stim", "word": "candy", "stimulus": "<p id=\"stim\">CANDY</p>", "conditions": [24, 1600, "v", 24000], "internal_node_id": "0.0-149.0", "trial": 5, "time_elapsed": 989645, "serialpos": 18, "key_press": -1, "wordID": 229, "type": "PRES_VIS", "trial_index": 203}, "uniqueid": "MTK3614:3JJVG1YBEC44VYAN4K25X7CFIKP5BZ", "dateTime": 1520809469058}, {"current_trial": 204, "trialdata": {"rt": -1, "trial_type": "single-stim", "word": "girl", "stimulus": "<p id=\"stim\">GIRL</p>", "conditions": [24, 1600, "v", 24000], "internal_node_id": "0.0-150.0", "trial": 5, "time_elapsed": 992097, "serialpos": 19, "key_press": -1, "wordID": 636, "type": "PRES_VIS", "trial_index": 204}, "uniqueid": "MTK3614:3JJVG1YBEC44VYAN4K25X7CFIKP5BZ", "dateTime": 1520809471509}, {"current_trial": 205, "trialdata": {"rt": -1, "trial_type": "single-stim", "word": "brook", "stimulus": "<p id=\"stim\">BROOK</p>", "conditions": [24, 1600, "v", 24000], "internal_node_id": "0.0-151.0", "trial": 5, "time_elapsed": 994758, "serialpos": 20, "key_press": -1, "wordID": 176, "type": "PRES_VIS", "trial_index": 205}, "uniqueid": "MTK3614:3JJVG1YBEC44VYAN4K25X7CFIKP5BZ", "dateTime": 1520809474171}, {"current_trial": 206, "trialdata": {"rt": -1, "trial_type": "single-stim", "word": "hiker", "stimulus": "<p id=\"stim\">HIKER</p>", "conditions": [24, 1600, "v", 24000], "internal_node_id": "0.0-152.0", "trial": 5, "time_elapsed": 997165, "serialpos": 21, "key_press": -1, "wordID": 707, "type": "PRES_VIS", "trial_index": 206}, "uniqueid": "MTK3614:3JJVG1YBEC44VYAN4K25X7CFIKP5BZ", "dateTime": 1520809476577}, {"current_trial": 207, "trialdata": {"rt": -1, "trial_type": "single-stim", "word": "crib", "stimulus": "<p id=\"stim\">CRIB</p>", "conditions": [24, 1600, "v", 24000], "internal_node_id": "0.0-153.0", "trial": 5, "time_elapsed": 999742, "serialpos": 22, "key_press": -1, "wordID": 406, "type": "PRES_VIS", "trial_index": 207}, "uniqueid": "MTK3614:3JJVG1YBEC44VYAN4K25X7CFIKP5BZ", "dateTime": 1520809479154}, {"current_trial": 208, "trialdata": {"rt": -1, "trial_type": "single-stim", "word": "garlic", "stimulus": "<p id=\"stim\">GARLIC</p>", "conditions": [24, 1600, "v", 24000], "internal_node_id": "0.0-154.0", "trial": 5, "time_elapsed": 1002283, "serialpos": 23, "key_press": -1, "wordID": 623, "type": "PRES_VIS", "trial_index": 208}, "uniqueid": "MTK3614:3JJVG1YBEC44VYAN4K25X7CFIKP5BZ", "dateTime": 1520809481695}, {"current_trial": 209, "trialdata": {"rt": -1, "trial_type": "single-stim", "stimulus": "", "internal_node_id": "0.0-155.0-0.0", "time_elapsed": 1004566, "key_press": -1, "type": "PRE_RECALL_DELAY", "trial_index": 209}, "uniqueid": "MTK3614:3JJVG1YBEC44VYAN4K25X7CFIKP5BZ", "dateTime": 1520809483978}, {"current_trial": 210, "trialdata": {"rt": -1000, "trial_type": "single-audio", "stimulus": "/static/audio/400Hz.wav", "internal_node_id": "0.0-156.0", "time_elapsed": 1005067, "key_press": -1, "type": "PRE_RECALL_ALERT", "trial_index": 210}, "uniqueid": "MTK3614:3JJVG1YBEC44VYAN4K25X7CFIKP5BZ", "dateTime": 1520809484479}, {"current_trial": 211, "trialdata": {"rt": [2643, 3422, 4352, 5263, 11949, 13941, 21782, 22836, 25931, 31557, 32624, 33581, 36744, 37496, 39286, 45354, 47165, 52323, 53116], "recwords": ["garlic", "girl", "hiker", "crib", "sunrise", "trout", "nightgown", "clothes", "jungle", "europe", "patient", "yarn", "truck", "mop", "slime", "dandruff", "river", "popcorn", "candy"], "key_times": [1132, 1266, 1340, 1345, 2005, 2257, 2394, 2532, 2643, 2893, 3010, 3127, 3278, 3422, 3664, 3747, 3943, 4080, 4200, 4352, 4612, 4832, 4948, 5141, 5263, 10616, 10696, 10755, 10856, 10955, 11103, 11615, 11728, 11809, 11949, 13237, 13404, 13482, 13619, 13780, 13941, 20374, 20477, 20529, 20634, 20715, 21259, 21347, 21447, 21554, 21782, 21992, 22051, 22167, 22300, 22369, 22469, 22659, 22836, 24261, 24410, 24495, 24559, 24892, 25668, 25931, 30756, 30890, 31036, 31129, 31236, 31409, 31557, 31788, 31836, 32065, 32157, 32240, 32381, 32495, 32624, 32901, 32977, 33093, 33303, 33581, 35656, 35821, 35917, 36163, 36352, 36512, 36597, 36744, 36960, 37098, 37299, 37496, 38695, 38791, 38867, 39046, 39177, 39286, 44186, 44273, 44356, 44480, 44646, 44915, 45025, 45179, 45354, 46564, 46710, 46813, 46917, 47037, 47165, 51027, 51094, 51219, 51553, 51659, 51772, 52085, 52323, 52483, 52588, 52671, 52794, 52900, 53116], "trial_type": "free-recall", "conditions": [24, 1600, "v", 24000], "internal_node_id": "0.0-157.0-0.0", "key_presses": [71, 65, 82, 65, 8, 76, 73, 67, 13, 71, 73, 82, 76, 13, 72, 73, 75, 69, 82, 13, 67, 82, 73, 66, 13, 83, 85, 78, 82, 73, 69, 8, 83, 69, 13, 84, 82, 79, 85, 84, 13, 78, 73, 71, 72, 84, 71, 79, 87, 78, 13, 67, 76, 79, 84, 72, 69, 83, 13, 74, 85, 78, 71, 76, 69, 13, 69, 85, 82, 79, 80, 69, 13, 80, 65, 84, 73, 69, 78, 84, 13, 89, 65, 82, 78, 13, 84, 82, 73, 8, 85, 67, 75, 13, 77, 79, 80, 13, 83, 76, 73, 77, 69, 13, 68, 65, 78, 68, 82, 85, 70, 70, 13, 82, 73, 86, 69, 82, 13, 80, 79, 80, 67, 79, 82, 78, 13, 67, 65, 78, 68, 89, 13], "trial": 5, "time_elapsed": 1065076, "type": "FREE_RECALL", "trial_index": 211}, "uniqueid": "MTK3614:3JJVG1YBEC44VYAN4K25X7CFIKP5BZ", "dateTime": 1520809544490}, {"current_trial": 212, "trialdata": {"rt": 62493, "trial_type": "text", "internal_node_id": "0.0-158.0", "time_elapsed": 1129576, "key_press": 32, "type": "INSTRUCTIONS", "trial_index": 212}, "uniqueid": "MTK3614:3JJVG1YBEC44VYAN4K25X7CFIKP5BZ", "dateTime": 1520809608989}, {"current_trial": 213, "trialdata": {"rt": [1547, 3597, 5276, 6857, 8389, 10810], "trial_type": "math-distractor", "key_times": [1175, 1385, 1547, 3036, 3326, 3597, 4894, 5167, 5276, 6419, 6755, 6857, 8093, 8283, 8389, 10337, 10590, 10810], "responses": ["15", "19", "15", "17", "13", "18"], "num2": [4, 5, 1, 1, 1, 6, 6], "num3": [5, 6, 8, 9, 9, 9, 1], "conditions": [24, 1600, "v", 12000], "internal_node_id": "0.0-159.0", "key_presses": [49, 53, 13, 49, 57, 13, 49, 53, 13, 49, 55, 13, 49, 51, 13, 49, 56, 13], "trial": 6, "time_elapsed": 1143583, "type": "DISTRACTOR", "trial_index": 213, "num1": [6, 8, 6, 7, 3, 3, 1]}, "uniqueid": "MTK3614:3JJVG1YBEC44VYAN4K25X7CFIKP5BZ", "dateTime": 1520809622995}, {"current_trial": 214, "trialdata": {"rt": -1, "trial_type": "single-stim", "stimulus": "<p id=\"stim\">10</p>", "internal_node_id": "0.0-160.0-0.0", "time_elapsed": 1146589, "key_press": -1, "trial_index": 214}, "uniqueid": "MTK3614:3JJVG1YBEC44VYAN4K25X7CFIKP5BZ", "dateTime": 1520809626001}, {"current_trial": 215, "trialdata": {"rt": -1, "trial_type": "single-stim", "stimulus": "<p id=\"stim\">9</p>", "internal_node_id": "0.0-160.0-1.0", "time_elapsed": 1147593, "key_press": -1, "trial_index": 215}, "uniqueid": "MTK3614:3JJVG1YBEC44VYAN4K25X7CFIKP5BZ", "dateTime": 1520809627005}, {"current_trial": 216, "trialdata": {"rt": -1, "trial_type": "single-stim", "stimulus": "<p id=\"stim\">8</p>", "internal_node_id": "0.0-160.0-2.0", "time_elapsed": 1148597, "key_press": -1, "trial_index": 216}, "uniqueid": "MTK3614:3JJVG1YBEC44VYAN4K25X7CFIKP5BZ", "dateTime": 1520809628009}, {"current_trial": 217, "trialdata": {"rt": -1, "trial_type": "single-stim", "stimulus": "<p id=\"stim\">7</p>", "internal_node_id": "0.0-160.0-3.0", "time_elapsed": 1149601, "key_press": -1, "trial_index": 217}, "uniqueid": "MTK3614:3JJVG1YBEC44VYAN4K25X7CFIKP5BZ", "dateTime": 1520809629013}, {"current_trial": 218, "trialdata": {"rt": -1, "trial_type": "single-stim", "stimulus": "<p id=\"stim\">6</p>", "internal_node_id": "0.0-160.0-4.0", "time_elapsed": 1150605, "key_press": -1, "trial_index": 218}, "uniqueid": "MTK3614:3JJVG1YBEC44VYAN4K25X7CFIKP5BZ", "dateTime": 1520809630018}, {"current_trial": 219, "trialdata": {"rt": -1, "trial_type": "single-stim", "stimulus": "<p id=\"stim\">5</p>", "internal_node_id": "0.0-160.0-5.0", "time_elapsed": 1151609, "key_press": -1, "trial_index": 219}, "uniqueid": "MTK3614:3JJVG1YBEC44VYAN4K25X7CFIKP5BZ", "dateTime": 1520809631022}, {"current_trial": 220, "trialdata": {"rt": -1, "trial_type": "single-stim", "stimulus": "<p id=\"stim\">4</p>", "internal_node_id": "0.0-160.0-6.0", "time_elapsed": 1152613, "key_press": -1, "trial_index": 220}, "uniqueid": "MTK3614:3JJVG1YBEC44VYAN4K25X7CFIKP5BZ", "dateTime": 1520809632025}, {"current_trial": 221, "trialdata": {"rt": -1, "trial_type": "single-stim", "stimulus": "<p id=\"stim\">3</p>", "internal_node_id": "0.0-160.0-7.0", "time_elapsed": 1153618, "key_press": -1, "trial_index": 221}, "uniqueid": "MTK3614:3JJVG1YBEC44VYAN4K25X7CFIKP5BZ", "dateTime": 1520809633030}, {"current_trial": 222, "trialdata": {"rt": -1, "trial_type": "single-stim", "stimulus": "<p id=\"stim\">2</p>", "internal_node_id": "0.0-160.0-8.0", "time_elapsed": 1154622, "key_press": -1, "trial_index": 222}, "uniqueid": "MTK3614:3JJVG1YBEC44VYAN4K25X7CFIKP5BZ", "dateTime": 1520809634034}, {"current_trial": 223, "trialdata": {"rt": -1, "trial_type": "single-stim", "stimulus": "<p id=\"stim\">1</p>", "internal_node_id": "0.0-160.0-9.0", "time_elapsed": 1155626, "key_press": -1, "trial_index": 223}, "uniqueid": "MTK3614:3JJVG1YBEC44VYAN4K25X7CFIKP5BZ", "dateTime": 1520809635038}, {"current_trial": 224, "trialdata": {"rt": -1, "trial_type": "single-stim", "stimulus": "<p id=\"stim\">+</p>", "internal_node_id": "0.0-161.0-0.0", "time_elapsed": 1157129, "key_press": -1, "type": "FIXATION", "trial_index": 224}, "uniqueid": "MTK3614:3JJVG1YBEC44VYAN4K25X7CFIKP5BZ", "dateTime": 1520809636541}, {"current_trial": 225, "trialdata": {"rt": -1, "trial_type": "single-stim", "word": "lunch", "stimulus": "<p id=\"stim\">LUNCH</p>", "conditions": [24, 1600, "v", 12000], "internal_node_id": "0.0-162.0", "trial": 6, "time_elapsed": 1158734, "serialpos": 0, "key_press": -1, "wordID": 848, "type": "PRES_VIS", "trial_index": 225}, "uniqueid": "MTK3614:3JJVG1YBEC44VYAN4K25X7CFIKP5BZ", "dateTime": 1520809638147}, {"current_trial": 226, "trialdata": {"rt": -1, "trial_type": "single-stim", "word": "convict", "stimulus": "<p id=\"stim\">CONVICT</p>", "conditions": [24, 1600, "v", 12000], "internal_node_id": "0.0-163.0", "trial": 6, "time_elapsed": 1161139, "serialpos": 1, "key_press": -1, "wordID": 370, "type": "PRES_VIS", "trial_index": 226}, "uniqueid": "MTK3614:3JJVG1YBEC44VYAN4K25X7CFIKP5BZ", "dateTime": 1520809640551}, {"current_trial": 227, "trialdata": {"rt": -1, "trial_type": "single-stim", "word": "branch", "stimulus": "<p id=\"stim\">BRANCH</p>", "conditions": [24, 1600, "v", 12000], "internal_node_id": "0.0-164.0", "trial": 6, "time_elapsed": 1163926, "serialpos": 2, "key_press": -1, "wordID": 167, "type": "PRES_VIS", "trial_index": 227}, "uniqueid": "MTK3614:3JJVG1YBEC44VYAN4K25X7CFIKP5BZ", "dateTime": 1520809643338}, {"current_trial": 228, "trialdata": {"rt": -1, "trial_type": "single-stim", "word": "bullet", "stimulus": "<p id=\"stim\">BULLET</p>", "conditions": [24, 1600, "v", 12000], "internal_node_id": "0.0-165.0", "trial": 6, "time_elapsed": 1166614, "serialpos": 3, "key_press": -1, "wordID": 193, "type": "PRES_VIS", "trial_index": 228}, "uniqueid": "MTK3614:3JJVG1YBEC44VYAN4K25X7CFIKP5BZ", "dateTime": 1520809646026}, {"current_trial": 229, "trialdata": {"rt": -1, "trial_type": "single-stim", "word": "county", "stimulus": "<p id=\"stim\">COUNTY</p>", "conditions": [24, 1600, "v", 12000], "internal_node_id": "0.0-166.0", "trial": 6, "time_elapsed": 1169295, "serialpos": 4, "key_press": -1, "wordID": 388, "type": "PRES_VIS", "trial_index": 229}, "uniqueid": "MTK3614:3JJVG1YBEC44VYAN4K25X7CFIKP5BZ", "dateTime": 1520809648707}, {"current_trial": 230, "trialdata": {"rt": -1, "trial_type": "single-stim", "word": "salad", "stimulus": "<p id=\"stim\">SALAD</p>", "conditions": [24, 1600, "v", 12000], "internal_node_id": "0.0-167.0", "trial": 6, "time_elapsed": 1171808, "serialpos": 5, "key_press": -1, "wordID": 1223, "type": "PRES_VIS", "trial_index": 230}, "uniqueid": "MTK3614:3JJVG1YBEC44VYAN4K25X7CFIKP5BZ", "dateTime": 1520809651220}, {"current_trial": 231, "trialdata": {"rt": -1, "trial_type": "single-stim", "word": "fragrance", "stimulus": "<p id=\"stim\">FRAGRANCE</p>", "conditions": [24, 1600, "v", 12000], "internal_node_id": "0.0-168.0", "trial": 6, "time_elapsed": 1174466, "serialpos": 6, "key_press": -1, "wordID": 598, "type": "PRES_VIS", "trial_index": 231}, "uniqueid": "MTK3614:3JJVG1YBEC44VYAN4K25X7CFIKP5BZ", "dateTime": 1520809653878}, {"current_trial": 232, "trialdata": {"rt": -1, "trial_type": "single-stim", "word": "shirt", "stimulus": "<p id=\"stim\">SHIRT</p>", "conditions": [24, 1600, "v", 12000], "internal_node_id": "0.0-169.0", "trial": 6, "time_elapsed": 1176933, "serialpos": 7, "key_press": -1, "wordID": 1286, "type": "PRES_VIS", "trial_index": 232}, "uniqueid": "MTK3614:3JJVG1YBEC44VYAN4K25X7CFIKP5BZ", "dateTime": 1520809656345}, {"current_trial": 233, "trialdata": {"rt": -1, "trial_type": "single-stim", "word": "headband", "stimulus": "<p id=\"stim\">HEADBAND</p>", "conditions": [24, 1600, "v", 12000], "internal_node_id": "0.0-170.0", "trial": 6, "time_elapsed": 1179487, "serialpos": 8, "key_press": -1, "wordID": 695, "type": "PRES_VIS", "trial_index": 233}, "uniqueid": "MTK3614:3JJVG1YBEC44VYAN4K25X7CFIKP5BZ", "dateTime": 1520809658899}, {"current_trial": 234, "trialdata": {"rt": -1, "trial_type": "single-stim", "word": "hood", "stimulus": "<p id=\"stim\">HOOD</p>", "conditions": [24, 1600, "v", 12000], "internal_node_id": "0.0-171.0", "trial": 6, "time_elapsed": 1182285, "serialpos": 9, "key_press": -1, "wordID": 713, "type": "PRES_VIS", "trial_index": 234}, "uniqueid": "MTK3614:3JJVG1YBEC44VYAN4K25X7CFIKP5BZ", "dateTime": 1520809661697}, {"current_trial": 235, "trialdata": {"rt": -1, "trial_type": "single-stim", "word": "sheriff", "stimulus": "<p id=\"stim\">SHERIFF</p>", "conditions": [24, 1600, "v", 12000], "internal_node_id": "0.0-172.0", "trial": 6, "time_elapsed": 1184810, "serialpos": 10, "key_press": -1, "wordID": 1283, "type": "PRES_VIS", "trial_index": 235}, "uniqueid": "MTK3614:3JJVG1YBEC44VYAN4K25X7CFIKP5BZ", "dateTime": 1520809664222}, {"current_trial": 236, "trialdata": {"rt": -1, "trial_type": "single-stim", "word": "machine", "stimulus": "<p id=\"stim\">MACHINE</p>", "conditions": [24, 1600, "v", 12000], "internal_node_id": "0.0-173.0", "trial": 6, "time_elapsed": 1187540, "serialpos": 11, "key_press": -1, "wordID": 851, "type": "PRES_VIS", "trial_index": 236}, "uniqueid": "MTK3614:3JJVG1YBEC44VYAN4K25X7CFIKP5BZ", "dateTime": 1520809666952}, {"current_trial": 237, "trialdata": {"rt": -1, "trial_type": "single-stim", "word": "bunny", "stimulus": "<p id=\"stim\">BUNNY</p>", "conditions": [24, 1600, "v", 12000], "internal_node_id": "0.0-174.0", "trial": 6, "time_elapsed": 1190317, "serialpos": 12, "key_press": -1, "wordID": 197, "type": "PRES_VIS", "trial_index": 237}, "uniqueid": "MTK3614:3JJVG1YBEC44VYAN4K25X7CFIKP5BZ", "dateTime": 1520809669729}, {"current_trial": 238, "trialdata": {"rt": -1, "trial_type": "single-stim", "word": "climber", "stimulus": "<p id=\"stim\">CLIMBER</p>", "conditions": [24, 1600, "v", 12000], "internal_node_id": "0.0-175.0", "trial": 6, "time_elapsed": 1192796, "serialpos": 13, "key_press": -1, "wordID": 322, "type": "PRES_VIS", "trial_index": 238}, "uniqueid": "MTK3614:3JJVG1YBEC44VYAN4K25X7CFIKP5BZ", "dateTime": 1520809672208}, {"current_trial": 239, "trialdata": {"rt": -1, "trial_type": "single-stim", "word": "queen", "stimulus": "<p id=\"stim\">QUEEN</p>", "conditions": [24, 1600, "v", 12000], "internal_node_id": "0.0-176.0", "trial": 6, "time_elapsed": 1195274, "serialpos": 14, "key_press": -1, "wordID": 1148, "type": "PRES_VIS", "trial_index": 239}, "uniqueid": "MTK3614:3JJVG1YBEC44VYAN4K25X7CFIKP5BZ", "dateTime": 1520809674686}, {"current_trial": 240, "trialdata": {"rt": -1, "trial_type": "single-stim", "word": "chipmunk", "stimulus": "<p id=\"stim\">CHIPMUNK</p>", "conditions": [24, 1600, "v", 12000], "internal_node_id": "0.0-177.0", "trial": 6, "time_elapsed": 1197967, "serialpos": 15, "key_press": -1, "wordID": 303, "type": "PRES_VIS", "trial_index": 240}, "uniqueid": "MTK3614:3JJVG1YBEC44VYAN4K25X7CFIKP5BZ", "dateTime": 1520809677379}, {"current_trial": 241, "trialdata": {"rt": -1, "trial_type": "single-stim", "word": "pluto", "stimulus": "<p id=\"stim\">PLUTO</p>", "conditions": [24, 1600, "v", 12000], "internal_node_id": "0.0-178.0", "trial": 6, "time_elapsed": 1200463, "serialpos": 16, "key_press": -1, "wordID": 1091, "type": "PRES_VIS", "trial_index": 241}, "uniqueid": "MTK3614:3JJVG1YBEC44VYAN4K25X7CFIKP5BZ", "dateTime": 1520809679877}, {"current_trial": 242, "trialdata": {"rt": -1, "trial_type": "single-stim", "word": "market", "stimulus": "<p id=\"stim\">MARKET</p>", "conditions": [24, 1600, "v", 12000], "internal_node_id": "0.0-179.0", "trial": 6, "time_elapsed": 1202971, "serialpos": 17, "key_press": -1, "wordID": 870, "type": "PRES_VIS", "trial_index": 242}, "uniqueid": "MTK3614:3JJVG1YBEC44VYAN4K25X7CFIKP5BZ", "dateTime": 1520809682383}, {"current_trial": 243, "trialdata": {"rt": -1, "trial_type": "single-stim", "word": "woman", "stimulus": "<p id=\"stim\">WOMAN</p>", "conditions": [24, 1600, "v", 12000], "internal_node_id": "0.0-180.0", "trial": 6, "time_elapsed": 1205397, "serialpos": 18, "key_press": -1, "wordID": 1619, "type": "PRES_VIS", "trial_index": 243}, "uniqueid": "MTK3614:3JJVG1YBEC44VYAN4K25X7CFIKP5BZ", "dateTime": 1520809684809}, {"current_trial": 244, "trialdata": {"rt": -1, "trial_type": "single-stim", "word": "daughter", "stimulus": "<p id=\"stim\">DAUGHTER</p>", "conditions": [24, 1600, "v", 12000], "internal_node_id": "0.0-181.0", "trial": 6, "time_elapsed": 1208061, "serialpos": 19, "key_press": -1, "wordID": 441, "type": "PRES_VIS", "trial_index": 244}, "uniqueid": "MTK3614:3JJVG1YBEC44VYAN4K25X7CFIKP5BZ", "dateTime": 1520809687473}, {"current_trial": 245, "trialdata": {"rt": -1, "trial_type": "single-stim", "word": "garden", "stimulus": "<p id=\"stim\">GARDEN</p>", "conditions": [24, 1600, "v", 12000], "internal_node_id": "0.0-182.0", "trial": 6, "time_elapsed": 1210783, "serialpos": 20, "key_press": -1, "wordID": 622, "type": "PRES_VIS", "trial_index": 245}, "uniqueid": "MTK3614:3JJVG1YBEC44VYAN4K25X7CFIKP5BZ", "dateTime": 1520809690195}, {"current_trial": 246, "trialdata": {"rt": -1, "trial_type": "single-stim", "word": "marsh", "stimulus": "<p id=\"stim\">MARSH</p>", "conditions": [24, 1600, "v", 12000], "internal_node_id": "0.0-183.0", "trial": 6, "time_elapsed": 1213313, "serialpos": 21, "key_press": -1, "wordID": 873, "type": "PRES_VIS", "trial_index": 246}, "uniqueid": "MTK3614:3JJVG1YBEC44VYAN4K25X7CFIKP5BZ", "dateTime": 1520809692726}, {"current_trial": 247, "trialdata": {"rt": -1, "trial_type": "single-stim", "word": "space", "stimulus": "<p id=\"stim\">SPACE</p>", "conditions": [24, 1600, "v", 12000], "internal_node_id": "0.0-184.0", "trial": 6, "time_elapsed": 1215974, "serialpos": 22, "key_press": -1, "wordID": 1344, "type": "PRES_VIS", "trial_index": 247}, "uniqueid": "MTK3614:3JJVG1YBEC44VYAN4K25X7CFIKP5BZ", "dateTime": 1520809695386}, {"current_trial": 248, "trialdata": {"rt": -1, "trial_type": "single-stim", "word": "ca