{"assignmentId": "34HJIJKLP6318T4TVWAVTR08KM84V8", "workerId": "MTK3121", "questiondata": {"origin": "United States", "strat-rehearsal": "2", "marital": "Single", "education": "Some college", "ethnicity": "Not Hispanic", "color_depth": 24, "distracted": "No", "wrote-notes": "No", "strat-other": "", "screen_width": 1600, "avail_screen_width": 1600, "avail_screen_height": 838, "strat-image": "88", "language": "english", "gender": "Male", "age": "34", "gender_other": "", "race": ["White"], "strat-categorize": "3", "pixel_depth": 24, "strat-spatial": "2", "strat-story": "2", "race_other": "", "screen_height": 900}, "bonus": 0, "hitId": "3DW3BNF1GHP04AT1HXV6LJKT2HJV88", "counterbalance": 357, "useragent": "Mozilla/5.0 (Windows NT 6.2; Win64; x64) AppleWebKit/537.36 (KHTML, like Gecko) Chrome/64.0.3282.186 Safari/537.36", "eventdata": [{"eventtype": "initialized", "interval": 0, "value": null, "timestamp": 1520025796516}, {"eventtype": "window_resize", "interval": 2, "value": [1600, 787], "timestamp": 1520025796518}, {"eventtype": "focus", "interval": 140840, "value": "off", "timestamp": 1520025937358}, {"eventtype": "focus", "interval": 77413, "value": "on", "timestamp": 1520026014771}, {"eventtype": "focus", "interval": 37103, "value": "off", "timestamp": 1520026051874}, {"eventtype": "focus", "interval": 2843, "value": "on", "timestamp": 1520026054717}, {"eventtype": "focus", "interval": 1931684, "value": "off", "timestamp": 1520027986401}, {"eventtype": "focus", "interval": 4876, "value": "on", "timestamp": 1520027991277}, {"eventtype": "focus", "interval": 128635, "value": "off", "timestamp": 1520028119912}, {"eventtype": "focus", "interval": 5074, "value": "on", "timestamp": 1520028124986}, {"eventtype": "focus", "interval": 562921, "value": "off", "timestamp": 1520028687907}, {"eventtype": "focus", "interval": 73510, "value": "on", "timestamp": 1520028761417}, {"eventtype": "focus", "interval": 430478, "value": "off", "timestamp": 1520029191895}, {"eventtype": "focus", "interval": 7597, "value": "on", "timestamp": 1520029199492}], "data": [{"current_trial": 0, "trialdata": {"rt": 10659, "trial_type": "text", "internal_node_id": "0.0-0.0", "time_elapsed": 10664, "key_press": 32, "type": "INSTRUCTIONS", "trial_index": 0}, "uniqueid": "MTK3121:34HJIJKLP6318T4TVWAVTR08KM84V8", "dateTime": 1520025807993}, {"current_trial": 1, "trialdata": {"rt": 26829, "trial_type": "text", "internal_node_id": "0.0-1.0", "time_elapsed": 37494, "key_press": 32, "type": "INSTRUCTIONS", "trial_index": 1}, "uniqueid": "MTK3121:34HJIJKLP6318T4TVWAVTR08KM84V8", "dateTime": 1520025834823}, {"current_trial": 2, "trialdata": {"rt": [20390], "trial_type": "audio-test", "responses": ["ocean"], "internal_node_id": "0.0-2.0", "time_elapsed": 57918, "type": "AUDIO_TEST", "trial_index": 2}, "uniqueid": "MTK3121:34HJIJKLP6318T4TVWAVTR08KM84V8", "dateTime": 1520025855247}, {"current_trial": 3, "trialdata": {"rt": [8636], "trial_type": "audio-test", "responses": ["crystal"], "internal_node_id": "0.0-3.0", "time_elapsed": 66560, "type": "AUDIO_TEST", "trial_index": 3}, "uniqueid": "MTK3121:34HJIJKLP6318T4TVWAVTR08KM84V8", "dateTime": 1520025863889}, {"current_trial": 4, "trialdata": {"rt": [7392], "trial_type": "audio-test", "responses": ["spice"], "internal_node_id": "0.0-4.0", "time_elapsed": 73958, "type": "AUDIO_TEST", "trial_index": 4}, "uniqueid": "MTK3121:34HJIJKLP6318T4TVWAVTR08KM84V8", "dateTime": 1520025871287}, {"current_trial": 5, "trialdata": {"rt": 44925, "trial_type": "survey-text", "responses": "{\"Q0\":\"3:00 AM\",\"Q1\":\"9:00AM\",\"Q2\":\"8\"}", "internal_node_id": "0.0-5.0", "time_elapsed": 119638, "type": "SLEEP_SURVEY", "trial_index": 5}, "uniqueid": "MTK3121:34HJIJKLP6318T4TVWAVTR08KM84V8", "dateTime": 1520025916967}, {"current_trial": 6, "trialdata": {"rt": 99799, "trial_type": "text", "internal_node_id": "0.0-6.0", "time_elapsed": 220436, "key_press": 13, "type": "INSTRUCTIONS", "trial_index": 6}, "uniqueid": "MTK3121:34HJIJKLP6318T4TVWAVTR08KM84V8", "dateTime": 1520026017765}, {"current_trial": 7, "trialdata": {"rt": 38531, "trial_type": "text", "internal_node_id": "0.0-7.0", "time_elapsed": 259467, "key_press": 13, "type": "INSTRUCTIONS", "trial_index": 7}, "uniqueid": "MTK3121:34HJIJKLP6318T4TVWAVTR08KM84V8", "dateTime": 1520026056796}, {"current_trial": 8, "trialdata": {"rt": 22548, "trial_type": "text", "internal_node_id": "0.0-8.0", "time_elapsed": 282517, "key_press": 13, "type": "INSTRUCTIONS", "trial_index": 8}, "uniqueid": "MTK3121:34HJIJKLP6318T4TVWAVTR08KM84V8", "dateTime": 1520026079846}, {"current_trial": 9, "trialdata": {"rt": [3226, 8282, 12658, 15851], "trial_type": "math-distractor", "key_times": [2012, 2563, 3226, 7202, 7362, 8282, 10882, 11019, 12658, 14794, 14954, 15851], "responses": ["14", "12", "12", "21"], "num2": [9, 1, 4, 3, 1], "num3": [1, 4, 3, 9, 1], "conditions": [18, 1200, "v", 18000], "internal_node_id": "0.0-9.0", "key_presses": [49, 52, 13, 49, 50, 13, 49, 50, 13, 50, 49, 13], "trial": 0, "time_elapsed": 301525, "type": "DISTRACTOR", "trial_index": 9, "num1": [4, 7, 5, 9, 7]}, "uniqueid": "MTK3121:34HJIJKLP6318T4TVWAVTR08KM84V8", "dateTime": 1520026098855}, {"current_trial": 10, "trialdata": {"rt": -1, "trial_type": "single-stim", "stimulus": "<p id=\"stim\">10</p>", "internal_node_id": "0.0-10.0-0.0", "time_elapsed": 304527, "key_press": -1, "trial_index": 10}, "uniqueid": "MTK3121:34HJIJKLP6318T4TVWAVTR08KM84V8", "dateTime": 1520026101856}, {"current_trial": 11, "trialdata": {"rt": -1, "trial_type": "single-stim", "stimulus": "<p id=\"stim\">9</p>", "internal_node_id": "0.0-10.0-1.0", "time_elapsed": 305529, "key_press": -1, "trial_index": 11}, "uniqueid": "MTK3121:34HJIJKLP6318T4TVWAVTR08KM84V8", "dateTime": 1520026102858}, {"current_trial": 12, "trialdata": {"rt": -1, "trial_type": "single-stim", "stimulus": "<p id=\"stim\">8</p>", "internal_node_id": "0.0-10.0-2.0", "time_elapsed": 306531, "key_press": -1, "trial_index": 12}, "uniqueid": "MTK3121:34HJIJKLP6318T4TVWAVTR08KM84V8", "dateTime": 1520026103860}, {"current_trial": 13, "trialdata": {"rt": -1, "trial_type": "single-stim", "stimulus": "<p id=\"stim\">7</p>", "internal_node_id": "0.0-10.0-3.0", "time_elapsed": 307532, "key_press": -1, "trial_index": 13}, "uniqueid": "MTK3121:34HJIJKLP6318T4TVWAVTR08KM84V8", "dateTime": 1520026104861}, {"current_trial": 14, "trialdata": {"rt": -1, "trial_type": "single-stim", "stimulus": "<p id=\"stim\">6</p>", "internal_node_id": "0.0-10.0-4.0", "time_elapsed": 308532, "key_press": -1, "trial_index": 14}, "uniqueid": "MTK3121:34HJIJKLP6318T4TVWAVTR08KM84V8", "dateTime": 1520026105862}, {"current_trial": 15, "trialdata": {"rt": -1, "trial_type": "single-stim", "stimulus": "<p id=\"stim\">5</p>", "internal_node_id": "0.0-10.0-5.0", "time_elapsed": 309533, "key_press": -1, "trial_index": 15}, "uniqueid": "MTK3121:34HJIJKLP6318T4TVWAVTR08KM84V8", "dateTime": 1520026106863}, {"current_trial": 16, "trialdata": {"rt": -1, "trial_type": "single-stim", "stimulus": "<p id=\"stim\">4</p>", "internal_node_id": "0.0-10.0-6.0", "time_elapsed": 310535, "key_press": -1, "trial_index": 16}, "uniqueid": "MTK3121:34HJIJKLP6318T4TVWAVTR08KM84V8", "dateTime": 1520026107864}, {"current_trial": 17, "trialdata": {"rt": -1, "trial_type": "single-stim", "stimulus": "<p id=\"stim\">3</p>", "internal_node_id": "0.0-10.0-7.0", "time_elapsed": 311535, "key_press": -1, "trial_index": 17}, "uniqueid": "MTK3121:34HJIJKLP6318T4TVWAVTR08KM84V8", "dateTime": 1520026108866}, {"current_trial": 18, "trialdata": {"rt": -1, "trial_type": "single-stim", "stimulus": "<p id=\"stim\">2</p>", "internal_node_id": "0.0-10.0-8.0", "time_elapsed": 312537, "key_press": -1, "trial_index": 18}, "uniqueid": "MTK3121:34HJIJKLP6318T4TVWAVTR08KM84V8", "dateTime": 1520026109866}, {"current_trial": 19, "trialdata": {"rt": -1, "trial_type": "single-stim", "stimulus": "<p id=\"stim\">1</p>", "internal_node_id": "0.0-10.0-9.0", "time_elapsed": 313538, "key_press": -1, "trial_index": 19}, "uniqueid": "MTK3121:34HJIJKLP6318T4TVWAVTR08KM84V8", "dateTime": 1520026110868}, {"current_trial": 20, "trialdata": {"rt": -1, "trial_type": "single-stim", "stimulus": "<p id=\"stim\">+</p>", "internal_node_id": "0.0-11.0-0.0", "time_elapsed": 315040, "key_press": -1, "type": "FIXATION", "trial_index": 20}, "uniqueid": "MTK3121:34HJIJKLP6318T4TVWAVTR08KM84V8", "dateTime": 1520026112369}, {"current_trial": 21, "trialdata": {"rt": -1, "trial_type": "single-stim", "word": "belly", "stimulus": "<p id=\"stim\">BELLY</p>", "conditions": [18, 1200, "v", 18000], "internal_node_id": "0.0-12.0", "trial": 0, "time_elapsed": 316240, "serialpos": 0, "key_press": -1, "wordID": 118, "type": "PRES_VIS", "trial_index": 21}, "uniqueid": "MTK3121:34HJIJKLP6318T4TVWAVTR08KM84V8", "dateTime": 1520026113570}, {"current_trial": 22, "trialdata": {"rt": -1, "trial_type": "single-stim", "word": "match", "stimulus": "<p id=\"stim\">MATCH</p>", "conditions": [18, 1200, "v", 18000], "internal_node_id": "0.0-13.0", "trial": 0, "time_elapsed": 318285, "serialpos": 1, "key_press": -1, "wordID": 877, "type": "PRES_VIS", "trial_index": 22}, "uniqueid": "MTK3121:34HJIJKLP6318T4TVWAVTR08KM84V8", "dateTime": 1520026115616}, {"current_trial": 23, "trialdata": {"rt": -1, "trial_type": "single-stim", "word": "award", "stimulus": "<p id=\"stim\">AWARD</p>", "conditions": [18, 1200, "v", 18000], "internal_node_id": "0.0-14.0", "trial": 0, "time_elapsed": 320646, "serialpos": 2, "key_press": -1, "wordID": 62, "type": "PRES_VIS", "trial_index": 23}, "uniqueid": "MTK3121:34HJIJKLP6318T4TVWAVTR08KM84V8", "dateTime": 1520026117976}, {"current_trial": 24, "trialdata": {"rt": -1, "trial_type": "single-stim", "word": "drug", "stimulus": "<p id=\"stim\">DRUG</p>", "conditions": [18, 1200, "v", 18000], "internal_node_id": "0.0-15.0", "trial": 0, "time_elapsed": 322681, "serialpos": 3, "key_press": -1, "wordID": 500, "type": "PRES_VIS", "trial_index": 24}, "uniqueid": "MTK3121:34HJIJKLP6318T4TVWAVTR08KM84V8", "dateTime": 1520026120010}, {"current_trial": 25, "trialdata": {"rt": -1, "trial_type": "single-stim", "word": "fireplace", "stimulus": "<p id=\"stim\">FIREPLACE</p>", "conditions": [18, 1200, "v", 18000], "internal_node_id": "0.0-16.0", "trial": 0, "time_elapsed": 324857, "serialpos": 4, "key_press": -1, "wordID": 569, "type": "PRES_VIS", "trial_index": 25}, "uniqueid": "MTK3121:34HJIJKLP6318T4TVWAVTR08KM84V8", "dateTime": 1520026122186}, {"current_trial": 26, "trialdata": {"rt": -1, "trial_type": "single-stim", "word": "airport", "stimulus": "<p id=\"stim\">AIRPORT</p>", "conditions": [18, 1200, "v", 18000], "internal_node_id": "0.0-17.0", "trial": 0, "time_elapsed": 327147, "serialpos": 5, "key_press": -1, "wordID": 12, "type": "PRES_VIS", "trial_index": 26}, "uniqueid": "MTK3121:34HJIJKLP6318T4TVWAVTR08KM84V8", "dateTime": 1520026124476}, {"current_trial": 27, "trialdata": {"rt": -1, "trial_type": "single-stim", "word": "taxi", "stimulus": "<p id=\"stim\">TAXI</p>", "conditions": [18, 1200, "v", 18000], "internal_node_id": "0.0-18.0", "trial": 0, "time_elapsed": 329273, "serialpos": 6, "key_press": -1, "wordID": 1437, "type": "PRES_VIS", "trial_index": 27}, "uniqueid": "MTK3121:34HJIJKLP6318T4TVWAVTR08KM84V8", "dateTime": 1520026126602}, {"current_trial": 28, "trialdata": {"rt": -1, "trial_type": "single-stim", "word": "trout", "stimulus": "<p id=\"stim\">TROUT</p>", "conditions": [18, 1200, "v", 18000], "internal_node_id": "0.0-19.0", "trial": 0, "time_elapsed": 331468, "serialpos": 7, "key_press": -1, "wordID": 1510, "type": "PRES_VIS", "trial_index": 28}, "uniqueid": "MTK3121:34HJIJKLP6318T4TVWAVTR08KM84V8", "dateTime": 1520026128798}, {"current_trial": 29, "trialdata": {"rt": -1, "trial_type": "single-stim", "word": "bubble", "stimulus": "<p id=\"stim\">BUBBLE</p>", "conditions": [18, 1200, "v", 18000], "internal_node_id": "0.0-20.0", "trial": 0, "time_elapsed": 333641, "serialpos": 8, "key_press": -1, "wordID": 182, "type": "PRES_VIS", "trial_index": 29}, "uniqueid": "MTK3121:34HJIJKLP6318T4TVWAVTR08KM84V8", "dateTime": 1520026130971}, {"current_trial": 30, "trialdata": {"rt": -1, "trial_type": "single-stim", "word": "flipper", "stimulus": "<p id=\"stim\">FLIPPER</p>", "conditions": [18, 1200, "v", 18000], "internal_node_id": "0.0-21.0", "trial": 0, "time_elapsed": 335956, "serialpos": 9, "key_press": -1, "wordID": 579, "type": "PRES_VIS", "trial_index": 30}, "uniqueid": "MTK3121:34HJIJKLP6318T4TVWAVTR08KM84V8", "dateTime": 1520026133285}, {"current_trial": 31, "trialdata": {"rt": -1, "trial_type": "single-stim", "word": "apple", "stimulus": "<p id=\"stim\">APPLE</p>", "conditions": [18, 1200, "v", 18000], "internal_node_id": "0.0-22.0", "trial": 0, "time_elapsed": 338256, "serialpos": 10, "key_press": -1, "wordID": 32, "type": "PRES_VIS", "trial_index": 31}, "uniqueid": "MTK3121:34HJIJKLP6318T4TVWAVTR08KM84V8", "dateTime": 1520026135585}, {"current_trial": 32, "trialdata": {"rt": -1, "trial_type": "single-stim", "word": "carriage", "stimulus": "<p id=\"stim\">CARRIAGE</p>", "conditions": [18, 1200, "v", 18000], "internal_node_id": "0.0-23.0", "trial": 0, "time_elapsed": 340572, "serialpos": 11, "key_press": -1, "wordID": 247, "type": "PRES_VIS", "trial_index": 32}, "uniqueid": "MTK3121:34HJIJKLP6318T4TVWAVTR08KM84V8", "dateTime": 1520026137902}, {"current_trial": 33, "trialdata": {"rt": -1, "trial_type": "single-stim", "word": "scarecrow", "stimulus": "<p id=\"stim\">SCARECROW</p>", "conditions": [18, 1200, "v", 18000], "internal_node_id": "0.0-24.0", "trial": 0, "time_elapsed": 342699, "serialpos": 12, "key_press": -1, "wordID": 1244, "type": "PRES_VIS", "trial_index": 33}, "uniqueid": "MTK3121:34HJIJKLP6318T4TVWAVTR08KM84V8", "dateTime": 1520026140028}, {"current_trial": 34, "trialdata": {"rt": -1, "trial_type": "single-stim", "word": "supper", "stimulus": "<p id=\"stim\">SUPPER</p>", "conditions": [18, 1200, "v", 18000], "internal_node_id": "0.0-25.0", "trial": 0, "time_elapsed": 344702, "serialpos": 13, "key_press": -1, "wordID": 1410, "type": "PRES_VIS", "trial_index": 34}, "uniqueid": "MTK3121:34HJIJKLP6318T4TVWAVTR08KM84V8", "dateTime": 1520026142033}, {"current_trial": 35, "trialdata": {"rt": -1, "trial_type": "single-stim", "word": "wife", "stimulus": "<p id=\"stim\">WIFE</p>", "conditions": [18, 1200, "v", 18000], "internal_node_id": "0.0-26.0", "trial": 0, "time_elapsed": 346785, "serialpos": 14, "key_press": -1, "wordID": 1608, "type": "PRES_VIS", "trial_index": 35}, "uniqueid": "MTK3121:34HJIJKLP6318T4TVWAVTR08KM84V8", "dateTime": 1520026144114}, {"current_trial": 36, "trialdata": {"rt": -1, "trial_type": "single-stim", "word": "piston", "stimulus": "<p id=\"stim\">PISTON</p>", "conditions": [18, 1200, "v", 18000], "internal_node_id": "0.0-27.0", "trial": 0, "time_elapsed": 348877, "serialpos": 15, "key_press": -1, "wordID": 1075, "type": "PRES_VIS", "trial_index": 36}, "uniqueid": "MTK3121:34HJIJKLP6318T4TVWAVTR08KM84V8", "dateTime": 1520026146206}, {"current_trial": 37, "trialdata": {"rt": -1, "trial_type": "single-stim", "word": "vagrant", "stimulus": "<p id=\"stim\">VAGRANT</p>", "conditions": [18, 1200, "v", 18000], "internal_node_id": "0.0-28.0", "trial": 0, "time_elapsed": 351150, "serialpos": 16, "key_press": -1, "wordID": 1543, "type": "PRES_VIS", "trial_index": 37}, "uniqueid": "MTK3121:34HJIJKLP6318T4TVWAVTR08KM84V8", "dateTime": 1520026148479}, {"current_trial": 38, "trialdata": {"rt": -1, "trial_type": "single-stim", "word": "dresser", "stimulus": "<p id=\"stim\">DRESSER</p>", "conditions": [18, 1200, "v", 18000], "internal_node_id": "0.0-29.0", "trial": 0, "time_elapsed": 353440, "serialpos": 17, "key_press": -1, "wordID": 495, "type": "PRES_VIS", "trial_index": 38}, "uniqueid": "MTK3121:34HJIJKLP6318T4TVWAVTR08KM84V8", "dateTime": 1520026150769}, {"current_trial": 39, "trialdata": {"rt": -1, "trial_type": "single-stim", "stimulus": "", "internal_node_id": "0.0-30.0-0.0", "time_elapsed": 355568, "key_press": -1, "type": "PRE_RECALL_DELAY", "trial_index": 39}, "uniqueid": "MTK3121:34HJIJKLP6318T4TVWAVTR08KM84V8", "dateTime": 1520026152899}, {"current_trial": 40, "trialdata": {"rt": -1000, "trial_type": "single-audio", "stimulus": "/static/audio/400Hz.wav", "internal_node_id": "0.0-31.0", "time_elapsed": 356075, "key_press": -1, "type": "PRE_RECALL_ALERT", "trial_index": 40}, "uniqueid": "MTK3121:34HJIJKLP6318T4TVWAVTR08KM84V8", "dateTime": 1520026153404}, {"current_trial": 41, "trialdata": {"rt": [3882, 6968, 10589, 14305, 16775, 19222, 25089, 28087, 31825, 48568, 53784, 56072], "recwords": ["dresser", "supper", "vagrant", "flipper", "piston", "taxi", "award", "belly", "drug", "carriage", "trout", "apple"], "key_times": [1611, 1799, 2023, 2579, 2730, 2920, 3103, 3882, 4704, 5202, 5497, 5642, 6007, 6178, 6968, 7792, 8094, 8705, 8960, 9186, 9550, 9842, 10589, 11310, 11656, 11929, 12200, 12325, 12648, 12815, 14305, 15142, 15272, 15688, 15866, 16194, 16389, 16775, 17367, 17581, 17840, 18199, 19222, 22666, 22942, 23156, 23627, 23777, 25089, 26002, 26344, 26777, 26905, 27185, 28087, 30345, 30546, 31026, 31234, 31825, 46098, 46385, 46650, 46777, 47058, 47377, 47585, 47801, 48568, 51953, 52162, 52506, 52674, 52906, 53784, 54626, 55026, 55161, 55353, 55673, 56072], "trial_type": "free-recall", "conditions": [18, 1200, "v", 18000], "internal_node_id": "0.0-32.0-0.0", "key_presses": [68, 82, 69, 83, 83, 69, 82, 13, 83, 85, 80, 80, 69, 82, 13, 86, 65, 71, 82, 65, 78, 84, 13, 70, 76, 73, 80, 80, 69, 82, 13, 80, 73, 83, 84, 79, 78, 13, 84, 65, 88, 73, 13, 65, 87, 65, 82, 68, 13, 66, 69, 76, 76, 89, 13, 68, 82, 85, 71, 13, 67, 65, 82, 82, 73, 65, 71, 69, 13, 84, 82, 79, 85, 84, 13, 65, 80, 80, 76, 69, 13], "trial": 0, "time_elapsed": 416076, "type": "FREE_RECALL", "trial_index": 41}, "uniqueid": "MTK3121:34HJIJKLP6318T4TVWAVTR08KM84V8", "dateTime": 1520026213409}, {"current_trial": 42, "trialdata": {"rt": 2045, "trial_type": "text", "internal_node_id": "0.0-33.0", "time_elapsed": 420126, "key_press": 13, "type": "INSTRUCTIONS", "trial_index": 42}, "uniqueid": "MTK3121:34HJIJKLP6318T4TVWAVTR08KM84V8", "dateTime": 1520026217455}, {"current_trial": 43, "trialdata": {"rt": [3030, 6830, 9247, 12429], "trial_type": "math-distractor", "key_times": [2247, 2583, 3030, 6477, 6830, 8688, 8848, 9247, 11319, 11478, 12429], "responses": ["15", "8", "14", "14"], "num2": [2, 1, 3, 2, 7], "num3": [8, 3, 4, 7, 9], "conditions": [18, 1200, "v", 18000], "internal_node_id": "0.0-34.0", "key_presses": [49, 53, 13, 56, 13, 49, 52, 13, 49, 52, 13], "trial": 1, "time_elapsed": 440128, "type": "DISTRACTOR", "trial_index": 43, "num1": [5, 4, 7, 5, 6]}, "uniqueid": "MTK3121:34HJIJKLP6318T4TVWAVTR08KM84V8", "dateTime": 1520026237457}, {"current_trial": 44, "trialdata": {"rt": -1, "trial_type": "single-stim", "stimulus": "<p id=\"stim\">10</p>", "internal_node_id": "0.0-35.0-0.0", "time_elapsed": 443129, "key_press": -1, "trial_index": 44}, "uniqueid": "MTK3121:34HJIJKLP6318T4TVWAVTR08KM84V8", "dateTime": 1520026240458}, {"current_trial": 45, "trialdata": {"rt": -1, "trial_type": "single-stim", "stimulus": "<p id=\"stim\">9</p>", "internal_node_id": "0.0-35.0-1.0", "time_elapsed": 444131, "key_press": -1, "trial_index": 45}, "uniqueid": "MTK3121:34HJIJKLP6318T4TVWAVTR08KM84V8", "dateTime": 1520026241460}, {"current_trial": 46, "trialdata": {"rt": -1, "trial_type": "single-stim", "stimulus": "<p id=\"stim\">8</p>", "internal_node_id": "0.0-35.0-2.0", "time_elapsed": 445132, "key_press": -1, "trial_index": 46}, "uniqueid": "MTK3121:34HJIJKLP6318T4TVWAVTR08KM84V8", "dateTime": 1520026242461}, {"current_trial": 47, "trialdata": {"rt": -1, "trial_type": "single-stim", "stimulus": "<p id=\"stim\">7</p>", "internal_node_id": "0.0-35.0-3.0", "time_elapsed": 446132, "key_press": -1, "trial_index": 47}, "uniqueid": "MTK3121:34HJIJKLP6318T4TVWAVTR08KM84V8", "dateTime": 1520026243461}, {"current_trial": 48, "trialdata": {"rt": -1, "trial_type": "single-stim", "stimulus": "<p id=\"stim\">6</p>", "internal_node_id": "0.0-35.0-4.0", "time_elapsed": 447134, "key_press": -1, "trial_index": 48}, "uniqueid": "MTK3121:34HJIJKLP6318T4TVWAVTR08KM84V8", "dateTime": 1520026244463}, {"current_trial": 49, "trialdata": {"rt": -1, "trial_type": "single-stim", "stimulus": "<p id=\"stim\">5</p>", "internal_node_id": "0.0-35.0-5.0", "time_elapsed": 448134, "key_press": -1, "trial_index": 49}, "uniqueid": "MTK3121:34HJIJKLP6318T4TVWAVTR08KM84V8", "dateTime": 1520026245463}, {"current_trial": 50, "trialdata": {"rt": -1, "trial_type": "single-stim", "stimulus": "<p id=\"stim\">4</p>", "internal_node_id": "0.0-35.0-6.0", "time_elapsed": 449136, "key_press": -1, "trial_index": 50}, "uniqueid": "MTK3121:34HJIJKLP6318T4TVWAVTR08KM84V8", "dateTime": 1520026246465}, {"current_trial": 51, "trialdata": {"rt": -1, "trial_type": "single-stim", "stimulus": "<p id=\"stim\">3</p>", "internal_node_id": "0.0-35.0-7.0", "time_elapsed": 450136, "key_press": -1, "trial_index": 51}, "uniqueid": "MTK3121:34HJIJKLP6318T4TVWAVTR08KM84V8", "dateTime": 1520026247465}, {"current_trial": 52, "trialdata": {"rt": -1, "trial_type": "single-stim", "stimulus": "<p id=\"stim\">2</p>", "internal_node_id": "0.0-35.0-8.0", "time_elapsed": 451138, "key_press": -1, "trial_index": 52}, "uniqueid": "MTK3121:34HJIJKLP6318T4TVWAVTR08KM84V8", "dateTime": 1520026248467}, {"current_trial": 53, "trialdata": {"rt": -1, "trial_type": "single-stim", "stimulus": "<p id=\"stim\">1</p>", "internal_node_id": "0.0-35.0-9.0", "time_elapsed": 452137, "key_press": -1, "trial_index": 53}, "uniqueid": "MTK3121:34HJIJKLP6318T4TVWAVTR08KM84V8", "dateTime": 1520026249468}, {"current_trial": 54, "trialdata": {"rt": -1, "trial_type": "single-stim", "stimulus": "<p id=\"stim\">+</p>", "internal_node_id": "0.0-36.0-0.0", "time_elapsed": 453638, "key_press": -1, "type": "FIXATION", "trial_index": 54}, "uniqueid": "MTK3121:34HJIJKLP6318T4TVWAVTR08KM84V8", "dateTime": 1520026250968}, {"current_trial": 55, "trialdata": {"rt": -1, "trial_type": "single-stim", "word": "woman", "stimulus": "<p id=\"stim\">WOMAN</p>", "conditions": [18, 1200, "v", 18000], "internal_node_id": "0.0-37.0", "trial": 1, "time_elapsed": 454840, "serialpos": 0, "key_press": -1, "wordID": 1619, "type": "PRES_VIS", "trial_index": 55}, "uniqueid": "MTK3121:34HJIJKLP6318T4TVWAVTR08KM84V8", "dateTime": 1520026252170}, {"current_trial": 56, "trialdata": {"rt": -1, "trial_type": "single-stim", "word": "doughnut", "stimulus": "<p id=\"stim\">DOUGHNUT</p>", "conditions": [18, 1200, "v", 18000], "internal_node_id": "0.0-38.0", "trial": 1, "time_elapsed": 457019, "serialpos": 1, "key_press": -1, "wordID": 489, "type": "PRES_VIS", "trial_index": 56}, "uniqueid": "MTK3121:34HJIJKLP6318T4TVWAVTR08KM84V8", "dateTime": 1520026254350}, {"current_trial": 57, "trialdata": {"rt": -1, "trial_type": "single-stim", "word": "donkey", "stimulus": "<p id=\"stim\">DONKEY</p>", "conditions": [18, 1200, "v", 18000], "internal_node_id": "0.0-39.0", "trial": 1, "time_elapsed": 459267, "serialpos": 2, "key_press": -1, "wordID": 483, "type": "PRES_VIS", "trial_index": 57}, "uniqueid": "MTK3121:34HJIJKLP6318T4TVWAVTR08KM84V8", "dateTime": 1520026256597}, {"current_trial": 58, "trialdata": {"rt": -1, "trial_type": "single-stim", "word": "necklace", "stimulus": "<p id=\"stim\">NECKLACE</p>", "conditions": [18, 1200, "v", 18000], "internal_node_id": "0.0-40.0", "trial": 1, "time_elapsed": 461664, "serialpos": 3, "key_press": -1, "wordID": 939, "type": "PRES_VIS", "trial_index": 58}, "uniqueid": "MTK3121:34HJIJKLP6318T4TVWAVTR08KM84V8", "dateTime": 1520026258994}, {"current_trial": 59, "trialdata": {"rt": -1, "trial_type": "single-stim", "word": "cabin", "stimulus": "<p id=\"stim\">CABIN</p>", "conditions": [18, 1200, "v", 18000], "internal_node_id": "0.0-41.0", "trial": 1, "time_elapsed": 463859, "serialpos": 4, "key_press": -1, "wordID": 210, "type": "PRES_VIS", "trial_index": 59}, "uniqueid": "MTK3121:34HJIJKLP6318T4TVWAVTR08KM84V8", "dateTime": 1520026261188}, {"current_trial": 60, "trialdata": {"rt": -1, "trial_type": "single-stim", "word": "skillet", "stimulus": "<p id=\"stim\">SKILLET</p>", "conditions": [18, 1200, "v", 18000], "internal_node_id": "0.0-42.0", "trial": 1, "time_elapsed": 465997, "serialpos": 5, "key_press": -1, "wordID": 1316, "type": "PRES_VIS", "trial_index": 60}, "uniqueid": "MTK3121:34HJIJKLP6318T4TVWAVTR08KM84V8", "dateTime": 1520026263326}, {"current_trial": 61, "trialdata": {"rt": -1, "trial_type": "single-stim", "word": "cod", "stimulus": "<p id=\"stim\">COD</p>", "conditions": [18, 1200, "v", 18000], "internal_node_id": "0.0-43.0", "trial": 1, "time_elapsed": 468061, "serialpos": 6, "key_press": -1, "wordID": 339, "type": "PRES_VIS", "trial_index": 61}, "uniqueid": "MTK3121:34HJIJKLP6318T4TVWAVTR08KM84V8", "dateTime": 1520026265390}, {"current_trial": 62, "trialdata": {"rt": -1, "trial_type": "single-stim", "word": "france", "stimulus": "<p id=\"stim\">FRANCE</p>", "conditions": [18, 1200, "v", 18000], "internal_node_id": "0.0-44.0", "trial": 1, "time_elapsed": 470107, "serialpos": 7, "key_press": -1, "wordID": 600, "type": "PRES_VIS", "trial_index": 62}, "uniqueid": "MTK3121:34HJIJKLP6318T4TVWAVTR08KM84V8", "dateTime": 1520026267436}, {"current_trial": 63, "trialdata": {"rt": -1, "trial_type": "single-stim", "word": "plaster", "stimulus": "<p id=\"stim\">PLASTER</p>", "conditions": [18, 1200, "v", 18000], "internal_node_id": "0.0-45.0", "trial": 1, "time_elapsed": 472396, "serialpos": 8, "key_press": -1, "wordID": 1084, "type": "PRES_VIS", "trial_index": 63}, "uniqueid": "MTK3121:34HJIJKLP6318T4TVWAVTR08KM84V8", "dateTime": 1520026269725}, {"current_trial": 64, "trialdata": {"rt": -1, "trial_type": "single-stim", "word": "dentist", "stimulus": "<p id=\"stim\">DENTIST</p>", "conditions": [18, 1200, "v", 18000], "internal_node_id": "0.0-46.0", "trial": 1, "time_elapsed": 474456, "serialpos": 9, "key_press": -1, "wordID": 446, "type": "PRES_VIS", "trial_index": 64}, "uniqueid": "MTK3121:34HJIJKLP6318T4TVWAVTR08KM84V8", "dateTime": 1520026271787}, {"current_trial": 65, "trialdata": {"rt": -1, "trial_type": "single-stim", "word": "luggage", "stimulus": "<p id=\"stim\">LUGGAGE</p>", "conditions": [18, 1200, "v", 18000], "internal_node_id": "0.0-47.0", "trial": 1, "time_elapsed": 476656, "serialpos": 10, "key_press": -1, "wordID": 846, "type": "PRES_VIS", "trial_index": 65}, "uniqueid": "MTK3121:34HJIJKLP6318T4TVWAVTR08KM84V8", "dateTime": 1520026273985}, {"current_trial": 66, "trialdata": {"rt": -1, "trial_type": "single-stim", "word": "camel", "stimulus": "<p id=\"stim\">CAMEL</p>", "conditions": [18, 1200, "v", 18000], "internal_node_id": "0.0-48.0", "trial": 1, "time_elapsed": 478986, "serialpos": 11, "key_press": -1, "wordID": 222, "type": "PRES_VIS", "trial_index": 66}, "uniqueid": "MTK3121:34HJIJKLP6318T4TVWAVTR08KM84V8", "dateTime": 1520026276317}, {"current_trial": 67, "trialdata": {"rt": -1, "trial_type": "single-stim", "word": "mummy", "stimulus": "<p id=\"stim\">MUMMY</p>", "conditions": [18, 1200, "v", 18000], "internal_node_id": "0.0-49.0", "trial": 1, "time_elapsed": 481147, "serialpos": 12, "key_press": -1, "wordID": 931, "type": "PRES_VIS", "trial_index": 67}, "uniqueid": "MTK3121:34HJIJKLP6318T4TVWAVTR08KM84V8", "dateTime": 1520026278477}, {"current_trial": 68, "trialdata": {"rt": -1, "trial_type": "single-stim", "word": "proton", "stimulus": "<p id=\"stim\">PROTON</p>", "conditions": [18, 1200, "v", 18000], "internal_node_id": "0.0-50.0", "trial": 1, "time_elapsed": 483501, "serialpos": 13, "key_press": -1, "wordID": 1131, "type": "PRES_VIS", "trial_index": 68}, "uniqueid": "MTK3121:34HJIJKLP6318T4TVWAVTR08KM84V8", "dateTime": 1520026280835}, {"current_trial": 69, "trialdata": {"rt": -1, "trial_type": "single-stim", "word": "shorts", "stimulus": "<p id=\"stim\">SHORTS</p>", "conditions": [18, 1200, "v", 18000], "internal_node_id": "0.0-51.0", "trial": 1, "time_elapsed": 485795, "serialpos": 14, "key_press": -1, "wordID": 1292, "type": "PRES_VIS", "trial_index": 69}, "uniqueid": "MTK3121:34HJIJKLP6318T4TVWAVTR08KM84V8", "dateTime": 1520026283124}, {"current_trial": 70, "trialdata": {"rt": -1, "trial_type": "single-stim", "word": "lace", "stimulus": "<p id=\"stim\">LACE</p>", "conditions": [18, 1200, "v", 18000], "internal_node_id": "0.0-52.0", "trial": 1, "time_elapsed": 487946, "serialpos": 15, "key_press": -1, "wordID": 791, "type": "PRES_VIS", "trial_index": 70}, "uniqueid": "MTK3121:34HJIJKLP6318T4TVWAVTR08KM84V8", "dateTime": 1520026285275}, {"current_trial": 71, "trialdata": {"rt": -1, "trial_type": "single-stim", "word": "truck", "stimulus": "<p id=\"stim\">TRUCK</p>", "conditions": [18, 1200, "v", 18000], "internal_node_id": "0.0-53.0", "trial": 1, "time_elapsed": 490165, "serialpos": 16, "key_press": -1, "wordID": 1511, "type": "PRES_VIS", "trial_index": 71}, "uniqueid": "MTK3121:34HJIJKLP6318T4TVWAVTR08KM84V8", "dateTime": 1520026287495}, {"current_trial": 72, "trialdata": {"rt": -1, "trial_type": "single-stim", "word": "film", "stimulus": "<p id=\"stim\">FILM</p>", "conditions": [18, 1200, "v", 18000], "internal_node_id": "0.0-54.0", "trial": 1, "time_elapsed": 492182, "serialpos": 17, "key_press": -1, "wordID": 564, "type": "PRES_VIS", "trial_index": 72}, "uniqueid": "MTK3121:34HJIJKLP6318T4TVWAVTR08KM84V8", "dateTime": 1520026289511}, {"current_trial": 73, "trialdata": {"rt": -1, "trial_type": "single-stim", "stimulus": "", "internal_node_id": "0.0-55.0-0.0", "time_elapsed": 494390, "key_press": -1, "type": "PRE_RECALL_DELAY", "trial_index": 73}, "uniqueid": "MTK3121:34HJIJKLP6318T4TVWAVTR08KM84V8", "dateTime": 1520026291719}, {"current_trial": 74, "trialdata": {"rt": -1000, "trial_type": "single-audio", "stimulus": "/static/audio/400Hz.wav", "internal_node_id": "0.0-56.0", "time_elapsed": 494891, "key_press": -1, "type": "PRE_RECALL_ALERT", "trial_index": 74}, "uniqueid": "MTK3121:34HJIJKLP6318T4TVWAVTR08KM84V8", "dateTime": 1520026292220}, {"current_trial": 75, "trialdata": {"rt": [2943, 6213, 8377, 10743, 14545, 21246, 28361, 35713, 49194], "recwords": ["film", "luggage", "mummy", "lace", "cabin", "donought", "woman", "lace", "france"], "key_times": [1603, 2247, 2465, 2638, 2943, 3610, 3863, 4208, 4346, 4625, 5194, 5431, 6213, 6890, 7240, 7617, 7759, 8030, 8377, 8974, 9346, 9800, 10022, 10743, 11313, 11590, 12162, 12510, 12687, 14545, 17321, 17792, 19506, 19738, 19872, 20185, 20347, 20568, 21246, 21824, 22162, 22496, 23320, 23551, 24287, 24462, 24634, 24782, 25794, 26038, 26391, 26888, 28361, 33563, 33994, 34250, 35258, 35713, 46858, 47051, 47281, 47785, 48090, 48329, 49194], "trial_type": "free-recall", "conditions": [18, 1200, "v", 18000], "internal_node_id": "0.0-57.0-0.0", "key_presses": [70, 73, 76, 77, 13, 76, 85, 71, 71, 65, 71, 69, 13, 77, 85, 77, 77, 89, 13, 76, 65, 67, 69, 13, 67, 65, 66, 73, 78, 13, 68, 79, 78, 79, 85, 71, 72, 84, 13, 87, 79, 65, 77, 66, 8, 8, 8, 8, 79, 77, 65, 78, 13, 76, 65, 67, 69, 13, 70, 82, 65, 78, 67, 69, 13], "trial": 1, "time_elapsed": 554892, "type": "FREE_RECALL", "trial_index": 75}, "uniqueid": "MTK3121:34HJIJKLP6318T4TVWAVTR08KM84V8", "dateTime": 1520026352225}, {"current_trial": 76, "trialdata": {"rt": 2379, "trial_type": "text", "internal_node_id": "0.0-58.0", "time_elapsed": 559276, "key_press": 13, "type": "INSTRUCTIONS", "trial_index": 76}, "uniqueid": "MTK3121:34HJIJKLP6318T4TVWAVTR08KM84V8", "dateTime": 1520026356606}, {"current_trial": 77, "trialdata": {"rt": [4132, 8741, 11204], "trial_type": "math-distractor", "key_times": [3453, 3805, 4132, 8141, 8294, 8741, 10861, 11204], "responses": ["20", "13", "6"], "num2": [9, 3, 1, 4], "num3": [4, 5, 4, 6], "conditions": [12, 800, "v", 12000], "internal_node_id": "0.0-59.0", "key_presses": [50, 48, 13, 49, 51, 13, 54, 13], "trial": 2, "time_elapsed": 572281, "type": "DISTRACTOR", "trial_index": 77, "num1": [7, 5, 1, 5]}, "uniqueid": "MTK3121:34HJIJKLP6318T4TVWAVTR08KM84V8", "dateTime": 1520026369610}, {"current_trial": 78, "trialdata": {"rt": -1, "trial_type": "single-stim", "stimulus": "<p id=\"stim\">10</p>", "internal_node_id": "0.0-60.0-0.0", "time_elapsed": 575281, "key_press": -1, "trial_index": 78}, "uniqueid": "MTK3121:34HJIJKLP6318T4TVWAVTR08KM84V8", "dateTime": 1520026372610}, {"current_trial": 79, "trialdata": {"rt": -1, "trial_type": "single-stim", "stimulus": "<p id=\"stim\">9</p>", "internal_node_id": "0.0-60.0-1.0", "time_elapsed": 576281, "key_press": -1, "trial_index": 79}, "uniqueid": "MTK3121:34HJIJKLP6318T4TVWAVTR08KM84V8", "dateTime": 1520026373610}, {"current_trial": 80, "trialdata": {"rt": -1, "trial_type": "single-stim", "stimulus": "<p id=\"stim\">8</p>", "internal_node_id": "0.0-60.0-2.0", "time_elapsed": 577283, "key_press": -1, "trial_index": 80}, "uniqueid": "MTK3121:34HJIJKLP6318T4TVWAVTR08KM84V8", "dateTime": 1520026374612}, {"current_trial": 81, "trialdata": {"rt": -1, "trial_type": "single-stim", "stimulus": "<p id=\"stim\">7</p>", "internal_node_id": "0.0-60.0-3.0", "time_elapsed": 578283, "key_press": -1, "trial_index": 81}, "uniqueid": "MTK3121:34HJIJKLP6318T4TVWAVTR08KM84V8", "dateTime": 1520026375612}, {"current_trial": 82, "trialdata": {"rt": -1, "trial_type": "single-stim", "stimulus": "<p id=\"stim\">6</p>", "internal_node_id": "0.0-60.0-4.0", "time_elapsed": 579284, "key_press": -1, "trial_index": 82}, "uniqueid": "MTK3121:34HJIJKLP6318T4TVWAVTR08KM84V8", "dateTime": 1520026376613}, {"current_trial": 83, "trialdata": {"rt": -1, "trial_type": "single-stim", "stimulus": "<p id=\"stim\">5</p>", "internal_node_id": "0.0-60.0-5.0", "time_elapsed": 580285, "key_press": -1, "trial_index": 83}, "uniqueid": "MTK3121:34HJIJKLP6318T4TVWAVTR08KM84V8", "dateTime": 1520026377614}, {"current_trial": 84, "trialdata": {"rt": -1, "trial_type": "single-stim", "stimulus": "<p id=\"stim\">4</p>", "internal_node_id": "0.0-60.0-6.0", "time_elapsed": 581286, "key_press": -1, "trial_index": 84}, "uniqueid": "MTK3121:34HJIJKLP6318T4TVWAVTR08KM84V8", "dateTime": 1520026378615}, {"current_trial": 85, "trialdata": {"rt": -1, "trial_type": "single-stim", "stimulus": "<p id=\"stim\">3</p>", "internal_node_id": "0.0-60.0-7.0", "time_elapsed": 582288, "key_press": -1, "trial_index": 85}, "uniqueid": "MTK3121:34HJIJKLP6318T4TVWAVTR08KM84V8", "dateTime": 1520026379617}, {"current_trial": 86, "trialdata": {"rt": -1, "trial_type": "single-stim", "stimulus": "<p id=\"stim\">2</p>", "internal_node_id": "0.0-60.0-8.0", "time_elapsed": 583289, "key_press": -1, "trial_index": 86}, "uniqueid": "MTK3121:34HJIJKLP6318T4TVWAVTR08KM84V8", "dateTime": 1520026380618}, {"current_trial": 87, "trialdata": {"rt": -1, "trial_type": "single-stim", "stimulus": "<p id=\"stim\">1</p>", "internal_node_id": "0.0-60.0-9.0", "time_elapsed": 584289, "key_press": -1, "trial_index": 87}, "uniqueid": "MTK3121:34HJIJKLP6318T4TVWAVTR08KM84V8", "dateTime": 1520026381618}, {"current_trial": 88, "trialdata": {"rt": -1, "trial_type": "single-stim", "stimulus": "<p id=\"stim\">+</p>", "internal_node_id": "0.0-61.0-0.0", "time_elapsed": 585790, "key_press": -1, "type": "FIXATION", "trial_index": 88}, "uniqueid": "MTK3121:34HJIJKLP6318T4TVWAVTR08KM84V8", "dateTime": 1520026383119}, {"current_trial": 89, "trialdata": {"rt": -1, "trial_type": "single-stim", "word": "sketch", "stimulus": "<p id=\"stim\">SKETCH</p>", "conditions": [12, 800, "v", 12000], "internal_node_id": "0.0-62.0", "trial": 2, "time_elapsed": 586591, "serialpos": 0, "key_press": -1, "wordID": 1314, "type": "PRES_VIS", "trial_index": 89}, "uniqueid": "MTK3121:34HJIJKLP6318T4TVWAVTR08KM84V8", "dateTime": 1520026383920}, {"current_trial": 90, "trialdata": {"rt": -1, "trial_type": "single-stim", "word": "daughter", "stimulus": "<p id=\"stim\">DAUGHTER</p>", "conditions": [12, 800, "v", 12000], "internal_node_id": "0.0-63.0", "trial": 2, "time_elapsed": 588454, "serialpos": 1, "key_press": -1, "wordID": 441, "type": "PRES_VIS", "trial_index": 90}, "uniqueid": "MTK3121:34HJIJKLP6318T4TVWAVTR08KM84V8", "dateTime": 1520026385783}, {"current_trial": 91, "trialdata": {"rt": -1, "trial_type": "single-stim", "word": "milk", "stimulus": "<p id=\"stim\">MILK</p>", "conditions": [12, 800, "v", 12000], "internal_node_id": "0.0-64.0", "trial": 2, "time_elapsed": 590330, "serialpos": 2, "key_press": -1, "wordID": 894, "type": "PRES_VIS", "trial_index": 91}, "uniqueid": "MTK3121:34HJIJKLP6318T4TVWAVTR08KM84V8", "dateTime": 1520026387660}, {"current_trial": 92, "trialdata": {"rt": -1, "trial_type": "single-stim", "word": "fleet", "stimulus": "<p id=\"stim\">FLEET</p>", "conditions": [12, 800, "v", 12000], "internal_node_id": "0.0-65.0", "trial": 2, "time_elapsed": 592092, "serialpos": 3, "key_press": -1, "wordID": 577, "type": "PRES_VIS", "trial_index": 92}, "uniqueid": "MTK3121:34HJIJKLP6318T4TVWAVTR08KM84V8", "dateTime": 1520026389421}, {"current_trial": 93, "trialdata": {"rt": -1, "trial_type": "single-stim", "word": "climber", "stimulus": "<p id=\"stim\">CLIMBER</p>", "conditions": [12, 800, "v", 12000], "internal_node_id": "0.0-66.0", "trial": 2, "time_elapsed": 594031, "serialpos": 4, "key_press": -1, "wordID": 322, "type": "PRES_VIS", "trial_index": 93}, "uniqueid": "MTK3121:34HJIJKLP6318T4TVWAVTR08KM84V8", "dateTime": 1520026391360}, {"current_trial": 94, "trialdata": {"rt": -1, "trial_type": "single-stim", "word": "witness", "stimulus": "<p id=\"stim\">WITNESS</p>", "conditions": [12, 800, "v", 12000], "internal_node_id": "0.0-67.0", "trial": 2, "time_elapsed": 595850, "serialpos": 5, "key_press": -1, "wordID": 1617, "type": "PRES_VIS", "trial_index": 94}, "uniqueid": "MTK3121:34HJIJKLP6318T4TVWAVTR08KM84V8", "dateTime": 1520026393180}, {"current_trial": 95, "trialdata": {"rt": -1, "trial_type": "single-stim", "word": "robber", "stimulus": "<p id=\"stim\">ROBBER</p>", "conditions": [12, 800, "v", 12000], "internal_node_id": "0.0-68.0", "trial": 2, "time_elapsed": 597823, "serialpos": 6, "key_press": -1, "wordID": 1196, "type": "PRES_VIS", "trial_index": 95}, "uniqueid": "MTK3121:34HJIJKLP6318T4TVWAVTR08KM84V8", "dateTime": 1520026395153}, {"current_trial": 96, "trialdata": {"rt": -1, "trial_type": "single-stim", "word": "sister", "stimulus": "<p id=\"stim\">SISTER</p>", "conditions": [12, 800, "v", 12000], "internal_node_id": "0.0-69.0", "trial": 2, "time_elapsed": 599474, "serialpos": 7, "key_press": -1, "wordID": 1311, "type": "PRES_VIS", "trial_index": 96}, "uniqueid": "MTK3121:34HJIJKLP6318T4TVWAVTR08KM84V8", "dateTime": 1520026396803}, {"current_trial": 97, "trialdata": {"rt": -1, "trial_type": "single-stim", "word": "globe", "stimulus": "<p id=\"stim\">GLOBE</p>", "conditions": [12, 800, "v", 12000], "internal_node_id": "0.0-70.0", "trial": 2, "time_elapsed": 601401, "serialpos": 8, "key_press": -1, "wordID": 640, "type": "PRES_VIS", "trial_index": 97}, "uniqueid": "MTK3121:34HJIJKLP6318T4TVWAVTR08KM84V8", "dateTime": 1520026398730}, {"current_trial": 98, "trialdata": {"rt": -1, "trial_type": "single-stim", "word": "diner", "stimulus": "<p id=\"stim\">DINER</p>", "conditions": [12, 800, "v", 12000], "internal_node_id": "0.0-71.0", "trial": 2, "time_elapsed": 603178, "serialpos": 9, "key_press": -1, "wordID": 466, "type": "PRES_VIS", "trial_index": 98}, "uniqueid": "MTK3121:34HJIJKLP6318T4TVWAVTR08KM84V8", "dateTime": 1520026400507}, {"current_trial": 99, "trialdata": {"rt": -1, "trial_type": "single-stim", "word": "burglar", "stimulus": "<p id=\"stim\">BURGLAR</p>", "conditions": [12, 800, "v", 12000], "internal_node_id": "0.0-72.0", "trial": 2, "time_elapsed": 604814, "serialpos": 10, "key_press": -1, "wordID": 199, "type": "PRES_VIS", "trial_index": 99}, "uniqueid": "MTK3121:34HJIJKLP6318T4TVWAVTR08KM84V8", "dateTime": 1520026402143}, {"current_trial": 100, "trialdata": {"rt": -1, "trial_type": "single-stim", "word": "thief", "stimulus": "<p id=\"stim\">THIEF</p>", "conditions": [12, 800, "v", 12000], "internal_node_id": "0.0-73.0", "trial": 2, "time_elapsed": 606496, "serialpos": 11, "key_press": -1, "wordID": 1455, "type": "PRES_VIS", "trial_index": 100}, "uniqueid": "MTK3121:34HJIJKLP6318T4TVWAVTR08KM84V8", "dateTime": 1520026403825}, {"current_trial": 101, "trialdata": {"rt": -1, "trial_type": "single-stim", "stimulus": "", "internal_node_id": "0.0-74.0-0.0", "time_elapsed": 608885, "key_press": -1, "type": "PRE_RECALL_DELAY", "trial_index": 101}, "uniqueid": "MTK3121:34HJIJKLP6318T4TVWAVTR08KM84V8", "dateTime": 1520026406214}, {"current_trial": 102, "trialdata": {"rt": -1000, "trial_type": "single-audio", "stimulus": "/static/audio/400Hz.wav", "internal_node_id": "0.0-75.0", "time_elapsed": 609389, "key_press": -1, "type": "PRE_RECALL_ALERT", "trial_index": 102}, "uniqueid": "MTK3121:34HJIJKLP6318T4TVWAVTR08KM84V8", "dateTime": 1520026406718}, {"current_trial": 103, "trialdata": {"rt": [4605, 7837, 10789, 15220, 19048, 27429], "recwords": ["burglar", "thief", "sister", "fleet", "dinner", "donkey"], "key_times": [1376, 1798, 2108, 2880, 3261, 3620, 3824, 4605, 5244, 5429, 6070, 6356, 6568, 7837, 8374, 8668, 8958, 9190, 9373, 9540, 10789, 12792, 13148, 13575, 13715, 13844, 15220, 16176, 16572, 17440, 17604, 18117, 18277, 19048, 25048, 25864, 26077, 26260, 26604, 26764, 27429], "trial_type": "free-recall", "conditions": [12, 800, "v", 12000], "internal_node_id": "0.0-76.0-0.0", "key_presses": [66, 85, 82, 71, 76, 65, 82, 13, 84, 72, 73, 69, 70, 13, 83, 73, 83, 84, 69, 82, 13, 70, 76, 69, 69, 84, 13, 68, 73, 78, 78, 69, 82, 13, 68, 79, 78, 75, 69, 89, 13], "trial": 2, "time_elapsed": 669390, "type": "FREE_RECALL", "trial_index": 103}, "uniqueid": "MTK3121:34HJIJKLP6318T4TVWAVTR08KM84V8", "dateTime": 1520026466723}, {"current_trial": 104, "trialdata": {"rt": 1658, "trial_type": "text", "internal_node_id": "0.0-77.0", "time_elapsed": 673053, "key_press": 13, "type": "INSTRUCTIONS", "trial_index": 104}, "uniqueid": "MTK3121:34HJIJKLP6318T4TVWAVTR08KM84V8", "dateTime": 1520026470382}, {"current_trial": 105, "trialdata": {"rt": [4037, 6278, 8422, 11997], "trial_type": "math-distractor", "key_times": [3470, 3590, 4037, 5589, 5950, 6278, 7902, 8050, 8422, 10710, 11606, 11997], "responses": ["22", "17", "13", "17"], "num2": [9, 7, 8, 9, 8], "num3": [6, 3, 1, 6, 4], "conditions": [24, 1600, "v", 12000], "internal_node_id": "0.0-78.0", "key_presses": [50, 50, 13, 49, 55, 13, 49, 51, 13, 49, 55, 13], "trial": 3, "time_elapsed": 687055, "type": "DISTRACTOR", "trial_index": 105, "num1": [7, 7, 4, 2, 3]}, "uniqueid": "MTK3121:34HJIJKLP6318T4TVWAVTR08KM84V8", "dateTime": 1520026484385}, {"current_trial": 106, "trialdata": {"rt": -1, "trial_type": "single-stim", "stimulus": "<p id=\"stim\">10</p>", "internal_node_id": "0.0-79.0-0.0", "time_elapsed": 690057, "key_press": -1, "trial_index": 106}, "uniqueid": "MTK3121:34HJIJKLP6318T4TVWAVTR08KM84V8", "dateTime": 1520026487386}, {"current_trial": 107, "trialdata": {"rt": -1, "trial_type": "single-stim", "stimulus": "<p id=\"stim\">9</p>", "internal_node_id": "0.0-79.0-1.0", "time_elapsed": 691059, "key_press": -1, "trial_index": 107}, "uniqueid": "MTK3121:34HJIJKLP6318T4TVWAVTR08KM84V8", "dateTime": 1520026488388}, {"current_trial": 108, "trialdata": {"rt": -1, "trial_type": "single-stim", "stimulus": "<p id=\"stim\">8</p>", "internal_node_id": "0.0-79.0-2.0", "time_elapsed": 692059, "key_press": -1, "trial_index": 108}, "uniqueid": "MTK3121:34HJIJKLP6318T4TVWAVTR08KM84V8", "dateTime": 1520026489388}, {"current_trial": 109, "trialdata": {"rt": -1, "trial_type": "single-stim", "stimulus": "<p id=\"stim\">7</p>", "internal_node_id": "0.0-79.0-3.0", "time_elapsed": 693060, "key_press": -1, "trial_index": 109}, "uniqueid": "MTK3121:34HJIJKLP6318T4TVWAVTR08KM84V8", "dateTime": 1520026490389}, {"current_trial": 110, "trialdata": {"rt": -1, "trial_type": "single-stim", "stimulus": "<p id=\"stim\">6</p>", "internal_node_id": "0.0-79.0-4.0", "time_elapsed": 694061, "key_press": -1, "trial_index": 110}, "uniqueid": "MTK3121:34HJIJKLP6318T4TVWAVTR08KM84V8", "dateTime": 1520026491390}, {"current_trial": 111, "trialdata": {"rt": -1, "trial_type": "single-stim", "stimulus": "<p id=\"stim\">5</p>", "internal_node_id": "0.0-79.0-5.0", "time_elapsed": 695063, "key_press": -1, "trial_index": 111}, "uniqueid": "MTK3121:34HJIJKLP6318T4TVWAVTR08KM84V8", "dateTime": 1520026492392}, {"current_trial": 112, "trialdata": {"rt": -1, "trial_type": "single-stim", "stimulus": "<p id=\"stim\">4</p>", "internal_node_id": "0.0-79.0-6.0", "time_elapsed": 696063, "key_press": -1, "trial_index": 112}, "uniqueid": "MTK3121:34HJIJKLP6318T4TVWAVTR08KM84V8", "dateTime": 1520026493393}, {"current_trial": 113, "trialdata": {"rt": -1, "trial_type": "single-stim", "stimulus": "<p id=\"stim\">3</p>", "internal_node_id": "0.0-79.0-7.0", "time_elapsed": 697064, "key_press": -1, "trial_index": 113}, "uniqueid": "MTK3121:34HJIJKLP6318T4TVWAVTR08KM84V8", "dateTime": 1520026494395}, {"current_trial": 114, "trialdata": {"rt": -1, "trial_type": "single-stim", "stimulus": "<p id=\"stim\">2</p>", "internal_node_id": "0.0-79.0-8.0", "time_elapsed": 698065, "key_press": -1, "trial_index": 114}, "uniqueid": "MTK3121:34HJIJKLP6318T4TVWAVTR08KM84V8", "dateTime": 1520026495395}, {"current_trial": 115, "trialdata": {"rt": -1, "trial_type": "single-stim", "stimulus": "<p id=\"stim\">1</p>", "internal_node_id": "0.0-79.0-9.0", "time_elapsed": 699066, "key_press": -1, "trial_index": 115}, "uniqueid": "MTK3121:34HJIJKLP6318T4TVWAVTR08KM84V8", "dateTime": 1520026496396}, {"current_trial": 116, "trialdata": {"rt": -1, "trial_type": "single-stim", "stimulus": "<p id=\"stim\">+</p>", "internal_node_id": "0.0-80.0-0.0", "time_elapsed": 700567, "key_press": -1, "type": "FIXATION", "trial_index": 116}, "uniqueid": "MTK3121:34HJIJKLP6318T4TVWAVTR08KM84V8", "dateTime": 1520026497898}, {"current_trial": 117, "trialdata": {"rt": -1, "trial_type": "single-stim", "word": "lunch", "stimulus": "<p id=\"stim\">LUNCH</p>", "conditions": [24, 1600, "v", 12000], "internal_node_id": "0.0-81.0", "trial": 3, "time_elapsed": 702169, "serialpos": 0, "key_press": -1, "wordID": 848, "type": "PRES_VIS", "trial_index": 117}, "uniqueid": "MTK3121:34HJIJKLP6318T4TVWAVTR08KM84V8", "dateTime": 1520026499498}, {"current_trial": 118, "trialdata": {"rt": -1, "trial_type": "single-stim", "word": "eyelash", "stimulus": "<p id=\"stim\">EYELASH</p>", "conditions": [24, 1600, "v", 12000], "internal_node_id": "0.0-82.0", "trial": 3, "time_elapsed": 704756, "serialpos": 1, "key_press": -1, "wordID": 545, "type": "PRES_VIS", "trial_index": 118}, "uniqueid": "MTK3121:34HJIJKLP6318T4TVWAVTR08KM84V8", "dateTime": 1520026502085}, {"current_trial": 119, "trialdata": {"rt": -1, "trial_type": "single-stim", "word": "sunrise", "stimulus": "<p id=\"stim\">SUNRISE</p>", "conditions": [24, 1600, "v", 12000], "internal_node_id": "0.0-83.0", "trial": 3, "time_elapsed": 707365, "serialpos": 2, "key_press": -1, "wordID": 1406, "type": "PRES_VIS", "trial_index": 119}, "uniqueid": "MTK3121:34HJIJKLP6318T4TVWAVTR08KM84V8", "dateTime": 1520026504695}, {"current_trial": 120, "trialdata": {"rt": -1, "trial_type": "single-stim", "word": "waitress", "stimulus": "<p id=\"stim\">WAITRESS</p>", "conditions": [24, 1600, "v", 12000], "internal_node_id": "0.0-84.0", "trial": 3, "time_elapsed": 709931, "serialpos": 3, "key_press": -1, "wordID": 1580, "type": "PRES_VIS", "trial_index": 120}, "uniqueid": "MTK3121:34HJIJKLP6318T4TVWAVTR08KM84V8", "dateTime": 1520026507260}, {"current_trial": 121, "trialdata": {"rt": -1, "trial_type": "single-stim", "word": "lumber", "stimulus": "<p id=\"stim\">LUMBER</p>", "conditions": [24, 1600, "v", 12000], "internal_node_id": "0.0-85.0", "trial": 3, "time_elapsed": 712519, "serialpos": 4, "key_press": -1, "wordID": 847, "type": "PRES_VIS", "trial_index": 121}, "uniqueid": "MTK3121:34HJIJKLP6318T4TVWAVTR08KM84V8", "dateTime": 1520026509849}, {"current_trial": 122, "trialdata": {"rt": -1, "trial_type": "single-stim", "word": "yarn", "stimulus": "<p id=\"stim\">YARN</p>", "conditions": [24, 1600, "v", 12000], "internal_node_id": "0.0-86.0", "trial": 3, "time_elapsed": 715268, "serialpos": 5, "key_press": -1, "wordID": 1630, "type": "PRES_VIS", "trial_index": 122}, "uniqueid": "MTK3121:34HJIJKLP6318T4TVWAVTR08KM84V8", "dateTime": 1520026512597}, {"current_trial": 123, "trialdata": {"rt": -1, "trial_type": "single-stim", "word": "beef", "stimulus": "<p id=\"stim\">BEEF</p>", "conditions": [24, 1600, "v", 12000], "internal_node_id": "0.0-87.0", "trial": 3, "time_elapsed": 717984, "serialpos": 6, "key_press": -1, "wordID": 112, "type": "PRES_VIS", "trial_index": 123}, "uniqueid": "MTK3121:34HJIJKLP6318T4TVWAVTR08KM84V8", "dateTime": 1520026515314}, {"current_trial": 124, "trialdata": {"rt": -1, "trial_type": "single-stim", "word": "candy", "stimulus": "<p id=\"stim\">CANDY</p>", "conditions": [24, 1600, "v", 12000], "internal_node_id": "0.0-88.0", "trial": 3, "time_elapsed": 720556, "serialpos": 7, "key_press": -1, "wordID": 229, "type": "PRES_VIS", "trial_index": 124}, "uniqueid": "MTK3121:34HJIJKLP6318T4TVWAVTR08KM84V8", "dateTime": 1520026517887}, {"current_trial": 125, "trialdata": {"rt": -1, "trial_type": "single-stim", "word": "wardrobe", "stimulus": "<p id=\"stim\">WARDROBE</p>", "conditions": [24, 1600, "v", 12000], "internal_node_id": "0.0-89.0", "trial": 3, "time_elapsed": 723089, "serialpos": 8, "key_press": -1, "wordID": 1586, "type": "PRES_VIS", "trial_index": 125}, "uniqueid": "MTK3121:34HJIJKLP6318T4TVWAVTR08KM84V8", "dateTime": 1520026520419}, {"current_trial": 126, "trialdata": {"rt": -1, "trial_type": "single-stim", "word": "pimple", "stimulus": "<p id=\"stim\">PIMPLE</p>", "conditions": [24, 1600, "v", 12000], "internal_node_id": "0.0-90.0", "trial": 3, "time_elapsed": 725795, "serialpos": 9, "key_press": -1, "wordID": 1070, "type": "PRES_VIS", "trial_index": 126}, "uniqueid": "MTK3121:34HJIJKLP6318T4TVWAVTR08KM84V8", "dateTime": 1520026523124}, {"current_trial": 127, "trialdata": {"rt": -1, "trial_type": "single-stim", "word": "freckle", "stimulus": "<p id=\"stim\">FRECKLE</p>", "conditions": [24, 1600, "v", 12000], "internal_node_id": "0.0-91.0", "trial": 3, "time_elapsed": 728566, "serialpos": 10, "key_press": -1, "wordID": 601, "type": "PRES_VIS", "trial_index": 127}, "uniqueid": "MTK3121:34HJIJKLP6318T4TVWAVTR08KM84V8", "dateTime": 1520026525895}, {"current_trial": 128, "trialdata": {"rt": -1, "trial_type": "single-stim", "word": "clothes", "stimulus": "<p id=\"stim\">CLOTHES</p>", "conditions": [24, 1600, "v", 12000], "internal_node_id": "0.0-92.0", "trial": 3, "time_elapsed": 731055, "serialpos": 11, "key_press": -1, "wordID": 326, "type": "PRES_VIS", "trial_index": 128}, "uniqueid": "MTK3121:34HJIJKLP6318T4TVWAVTR08KM84V8", "dateTime": 1520026528384}, {"current_trial": 129, "trialdata": {"rt": -1, "trial_type": "single-stim", "word": "chipmunk", "stimulus": "<p id=\"stim\">CHIPMUNK</p>", "conditions": [24, 1600, "v", 12000], "internal_node_id": "0.0-93.0", "trial": 3, "time_elapsed": 733576, "serialpos": 12, "key_press": -1, "wordID": 303, "type": "PRES_VIS", "trial_index": 129}, "uniqueid": "MTK3121:34HJIJKLP6318T4TVWAVTR08KM84V8", "dateTime": 1520026530905}, {"current_trial": 130, "trialdata": {"rt": -1, "trial_type": "single-stim", "word": "ointment", "stimulus": "<p id=\"stim\">OINTMENT</p>", "conditions": [24, 1600, "v", 12000], "internal_node_id": "0.0-94.0", "trial": 3, "time_elapsed": 736133, "serialpos": 13, "key_press": -1, "wordID": 973, "type": "PRES_VIS", "trial_index": 130}, "uniqueid": "MTK3121:34HJIJKLP6318T4TVWAVTR08KM84V8", "dateTime": 1520026533462}, {"current_trial": 131, "trialdata": {"rt": -1, "trial_type": "single-stim", "word": "worker", "stimulus": "<p id=\"stim\">WORKER</p>", "conditions": [24, 1600, "v", 12000], "internal_node_id": "0.0-95.0", "trial": 3, "time_elapsed": 738584, "serialpos": 14, "key_press": -1, "wordID": 1620, "type": "PRES_VIS", "trial_index": 131}, "uniqueid": "MTK3121:34HJIJKLP6318T4TVWAVTR08KM84V8", "dateTime": 1520026535915}, {"current_trial": 132, "trialdata": {"rt": -1, "trial_type": "single-stim", "word": "female", "stimulus": "<p id=\"stim\">FEMALE</p>", "conditions": [24, 1600, "v", 12000], "internal_node_id": "0.0-96.0", "trial": 3, "time_elapsed": 741271, "serialpos": 15, "key_press": -1, "wordID": 558, "type": "PRES_VIS", "trial_index": 132}, "uniqueid": "MTK3121:34HJIJKLP6318T4TVWAVTR08KM84V8", "dateTime": 1520026538602}, {"current_trial": 133, "trialdata": {"rt": -1, "trial_type": "single-stim", "word": "scalpel", "stimulus": "<p id=\"stim\">SCALPEL</p>", "conditions": [24, 1600, "v", 12000], "internal_node_id": "0.0-97.0", "trial": 3, "time_elapsed": 743806, "serialpos": 16, "key_press": -1, "wordID": 1242, "type": "PRES_VIS", "trial_index": 133}, "uniqueid": "MTK3121:34HJIJKLP6318T4TVWAVTR08KM84V8", "dateTime": 1520026541135}, {"current_trial": 134, "trialdata": {"rt": -1, "trial_type": "single-stim", "word": "brick", "stimulus": "<p id=\"stim\">BRICK</p>", "conditions": [24, 1600, "v", 12000], "internal_node_id": "0.0-98.0", "trial": 3, "time_elapsed": 746286, "serialpos": 17, "key_press": -1, "wordID": 171, "type": "PRES_VIS", "trial_index": 134}, "uniqueid": "MTK3121:34HJIJKLP6318T4TVWAVTR08KM84V8", "dateTime": 1520026543615}, {"current_trial": 135, "trialdata": {"rt": -1, "trial_type": "single-stim", "word": "flag", "stimulus": "<p id=\"stim\">FLAG</p>", "conditions": [24, 1600, "v", 12000], "internal_node_id": "0.0-99.0", "trial": 3, "time_elapsed": 748913, "serialpos": 18, "key_press": -1, "wordID": 572, "type": "PRES_VIS", "trial_index": 135}, "uniqueid": "MTK3121:34HJIJKLP6318T4TVWAVTR08KM84V8", "dateTime": 1520026546242}, {"current_trial": 136, "trialdata": {"rt": -1, "trial_type": "single-stim", "word": "portrait", "stimulus": "<p id=\"stim\">PORTRAIT</p>", "conditions": [24, 1600, "v", 12000], "internal_node_id": "0.0-100.0", "trial": 3, "time_elapsed": 751319, "serialpos": 19, "key_press": -1, "wordID": 1110, "type": "PRES_VIS", "trial_index": 136}, "uniqueid": "MTK3121:34HJIJKLP6318T4TVWAVTR08KM84V8", "dateTime": 1520026548648}, {"current_trial": 137, "trialdata": {"rt": -1, "trial_type": "single-stim", "word": "uncle", "stimulus": "<p id=\"stim\">UNCLE</p>", "conditions": [24, 1600, "v", 12000], "internal_node_id": "0.0-101.0", "trial": 3, "time_elapsed": 753875, "serialpos": 20, "key_press": -1, "wordID": 1535, "type": "PRES_VIS", "trial_index": 137}, "uniqueid": "MTK3121:34HJIJKLP6318T4TVWAVTR08KM84V8", "dateTime": 1520026551204}, {"current_trial": 138, "trialdata": {"rt": -1, "trial_type": "single-stim", "word": "sibling", "stimulus": "<p id=\"stim\">SIBLING</p>", "conditions": [24, 1600, "v", 12000], "internal_node_id": "0.0-102.0", "trial": 3, "time_elapsed": 756416, "serialpos": 21, "key_press": -1, "wordID": 1300, "type": "PRES_VIS", "trial_index": 138}, "uniqueid": "MTK3121:34HJIJKLP6318T4TVWAVTR08KM84V8", "dateTime": 1520026553745}, {"current_trial": 139, "trialdata": {"rt": -1, "trial_type": "single-stim", "word": "brother", "stimulus": "<p id=\"stim\">BROTHER</p>", "conditions": [24, 1600, "v", 12000], "internal_node_id": "0.0-103.0", "trial": 3, "time_elapsed": 759069, "serialpos": 22, "key_press": -1, "wordID": 178, "type": "PRES_VIS", "trial_index": 139}, "uniqueid": "MTK3121:34HJIJKLP6318T4TVWAVTR08KM84V8", "dateTime": 1520026556399}, {"current_trial": 140, "trialdata": {"rt": -1, "trial_type": "single-stim", "word": "picture", "stimulus": "<p id=\"stim\">PICTURE</p>", "conditions": [24, 1600, "v", 12000], "internal_node_id": "0.0-104.0", "trial": 3, "time_elapsed": 761609, "serialpos": 23, "key_press": -1, "wordID": 1060, "type": "PRES_VIS", "trial_index": 140}, "uniqueid": "MTK3121:34HJIJKLP6318T4TVWAVTR08KM84V8", "dateTime": 1520026558938}, {"current_trial": 141, "trialdata": {"rt": -1, "trial_type": "single-stim", "stimulus": "", "internal_node_id": "0.0-105.0-0.0", "time_elapsed": 764082, "key_press": -1, "type": "PRE_RECALL_DELAY", "trial_index": 141}, "uniqueid": "MTK3121:34HJIJKLP6318T4TVWAVTR08KM84V8", "dateTime": 1520026561411}, {"current_trial": 142, "trialdata": {"rt": -1000, "trial_type": "single-audio", "stimulus": "/static/audio/400Hz.wav", "internal_node_id": "0.0-106.0", "time_elapsed": 764588, "key_press": -1, "type": "PRE_RECALL_ALERT", "trial_index": 142}, "uniqueid": "MTK3121:34HJIJKLP6318T4TVWAVTR08KM84V8", "dateTime": 1520026561917}, {"current_trial": 143, "trialdata": {"rt": [3469, 6176, 10124, 13158, 15830, 19102, 21502, 24688, 28480, 30369, 36896, 41792, 49432], "recwords": ["brother", "picture", "portrait", "sibling", "lunch", "lumber", "flag", "pimple", "freckle", "beef", "sister", "female", "waitress"], "key_times": [1134, 1455, 1845, 2185, 2374, 2646, 2824, 3469, 4144, 4289, 4664, 4921, 5157, 5400, 5604, 6176, 6642, 6853, 7263, 7488, 7688, 7982, 8394, 8565, 9031, 9463, 10124, 10785, 11104, 11335, 11608, 11840, 12040, 12302, 13158, 14198, 14470, 14761, 15112, 15296, 15830, 16487, 16745, 17006, 17281, 17591, 17759, 19102, 19902, 20174, 20564, 20806, 21502, 22073, 22505, 22857, 23289, 23497, 23839, 24688, 25280, 25478, 25881, 26257, 26809, 26991, 27382, 28480, 29024, 29417, 29536, 29782, 30369, 35331, 35681, 35961, 36169, 36321, 36473, 36896, 39809, 40025, 40417, 40761, 41097, 41465, 41792, 47458, 47665, 48073, 48313, 48529, 48729, 48953, 49097, 49432, 59289, 59512, 59801], "trial_type": "free-recall", "conditions": [24, 1600, "v", 12000], "internal_node_id": "0.0-107.0-0.0", "key_presses": [66, 82, 79, 84, 72, 69, 82, 13, 80, 73, 67, 84, 85, 82, 69, 13, 80, 79, 82, 84, 82, 65, 73, 78, 8, 84, 13, 83, 73, 66, 76, 73, 78, 71, 13, 76, 85, 78, 67, 72, 13, 76, 85, 77, 66, 69, 82, 13, 70, 76, 65, 71, 13, 80, 73, 77, 80, 76, 69, 13, 70, 82, 69, 67, 75, 76, 69, 13, 66, 69, 69, 70, 13, 83, 73, 83, 84, 69, 82, 13, 70, 69, 77, 65, 76, 69, 13, 87, 65, 73, 84, 82, 69, 83, 83, 13, 85, 78, 67], "trial": 3, "time_elapsed": 824589, "type": "FREE_RECALL", "trial_index": 143}, "uniqueid": "MTK3121:34HJIJKLP6318T4TVWAVTR08KM84V8", "dateTime": 1520026621922}, {"current_trial": 144, "trialdata": {"rt": 1173, "trial_type": "text", "internal_node_id": "0.0-108.0", "time_elapsed": 827766, "key_press": 13, "type": "INSTRUCTIONS", "trial_index": 144}, "uniqueid": "MTK3121:34HJIJKLP6318T4TVWAVTR08KM84V8", "dateTime": 1520026625095}, {"current_trial": 145, "trialdata": {"rt": [2029, 5222, 8166, 11109], "trial_type": "math-distractor", "key_times": [1463, 1638, 2029, 4319, 4438, 5222, 7422, 7678, 8166, 10278, 10790, 11109], "responses": ["14", "22", "15", "19"], "num2": [9, 8, 8, 9, 7], "num3": [1, 5, 6, 3, 9], "conditions": [24, 800, "v", 12000], "internal_node_id": "0.0-109.0", "key_presses": [49, 52, 13, 50, 50, 13, 49, 53, 13, 49, 57, 13], "trial": 4, "time_elapsed": 841768, "type": "DISTRACTOR", "trial_index": 145, "num1": [4, 9, 1, 7, 9]}, "uniqueid": "MTK3121:34HJIJKLP6318T4TVWAVTR08KM84V8", "dateTime": 1520026639097}, {"current_trial": 146, "trialdata": {"rt": -1, "trial_type": "single-stim", "stimulus": "<p id=\"stim\">10</p>", "internal_node_id": "0.0-110.0-0.0", "time_elapsed": 844767, "key_press": -1, "trial_index": 146}, "uniqueid": "MTK3121:34HJIJKLP6318T4TVWAVTR08KM84V8", "dateTime": 1520026642096}, {"current_trial": 147, "trialdata": {"rt": -1, "trial_type": "single-stim", "stimulus": "<p id=\"stim\">9</p>", "internal_node_id": "0.0-110.0-1.0", "time_elapsed": 845769, "key_press": -1, "trial_index": 147}, "uniqueid": "MTK3121:34HJIJKLP6318T4TVWAVTR08KM84V8", "dateTime": 1520026643098}, {"current_trial": 148, "trialdata": {"rt": -1, "trial_type": "single-stim", "stimulus": "<p id=\"stim\">8</p>", "internal_node_id": "0.0-110.0-2.0", "time_elapsed": 846770, "key_press": -1, "trial_index": 148}, "uniqueid": "MTK3121:34HJIJKLP6318T4TVWAVTR08KM84V8", "dateTime": 1520026644099}, {"current_trial": 149, "trialdata": {"rt": -1, "trial_type": "single-stim", "stimulus": "<p id=\"stim\">7</p>", "internal_node_id": "0.0-110.0-3.0", "time_elapsed": 847771, "key_press": -1, "trial_index": 149}, "uniqueid": "MTK3121:34HJIJKLP6318T4TVWAVTR08KM84V8", "dateTime": 1520026645101}, {"current_trial": 150, "trialdata": {"rt": -1, "trial_type": "single-stim", "stimulus": "<p id=\"stim\">6</p>", "internal_node_id": "0.0-110.0-4.0", "time_elapsed": 848772, "key_press": -1, "trial_index": 150}, "uniqueid": "MTK3121:34HJIJKLP6318T4TVWAVTR08KM84V8", "dateTime": 1520026646102}, {"current_trial": 151, "trialdata": {"rt": -1, "trial_type": "single-stim", "stimulus": "<p id=\"stim\">5</p>", "internal_node_id": "0.0-110.0-5.0", "time_elapsed": 849774, "key_press": -1, "trial_index": 151}, "uniqueid": "MTK3121:34HJIJKLP6318T4TVWAVTR08KM84V8", "dateTime": 1520026647103}, {"current_trial": 152, "trialdata": {"rt": -1, "trial_type": "single-stim", "stimulus": "<p id=\"stim\">4</p>", "internal_node_id": "0.0-110.0-6.0", "time_elapsed": 850774, "key_press": -1, "trial_index": 152}, "uniqueid": "MTK3121:34HJIJKLP6318T4TVWAVTR08KM84V8", "dateTime": 1520026648104}, {"current_trial": 153, "trialdata": {"rt": -1, "trial_type": "single-stim", "stimulus": "<p id=\"stim\">3</p>", "internal_node_id": "0.0-110.0-7.0", "time_elapsed": 851775, "key_press": -1, "trial_index": 153}, "uniqueid": "MTK3121:34HJIJKLP6318T4TVWAVTR08KM84V8", "dateTime": 1520026649104}, {"current_trial": 154, "trialdata": {"rt": -1, "trial_type": "single-stim", "stimulus": "<p id=\"stim\">2</p>", "internal_node_id": "0.0-110.0-8.0", "time_elapsed": 852775, "key_press": -1, "trial_index": 154}, "uniqueid": "MTK3121:34HJIJKLP6318T4TVWAVTR08KM84V8", "dateTime": 1520026650106}, {"current_trial": 155, "trialdata": {"rt": -1, "trial_type": "single-stim", "stimulus": "<p id=\"stim\">1</p>", "internal_node_id": "0.0-110.0-9.0", "time_elapsed": 853776, "key_press": -1, "trial_index": 155}, "uniqueid": "MTK3121:34HJIJKLP6318T4TVWAVTR08KM84V8", "dateTime": 1520026651105}, {"current_trial": 156, "trialdata": {"rt": -1, "trial_type": "single-stim", "stimulus": "<p id=\"stim\">+</p>", "internal_node_id": "0.0-111.0-0.0", "time_elapsed": 855279, "key_press": -1, "type": "FIXATION", "trial_index": 156}, "uniqueid": "MTK3121:34HJIJKLP6318T4TVWAVTR08KM84V8", "dateTime": 1520026652608}, {"current_trial": 157, "trialdata": {"rt": -1, "trial_type": "single-stim", "word": "lodge", "stimulus": "<p id=\"stim\">LODGE</p>", "conditions": [24, 800, "v", 12000], "internal_node_id": "0.0-112.0", "trial": 4, "time_elapsed": 856080, "serialpos": 0, "key_press": -1, "wordID": 838, "type": "PRES_VIS", "trial_index": 157}, "uniqueid": "MTK3121:34HJIJKLP6318T4TVWAVTR08KM84V8", "dateTime": 1520026653410}, {"current_trial": 158, "trialdata": {"rt": -1, "trial_type": "single-stim", "word": "peach", "stimulus": "<p id=\"stim\">PEACH</p>", "conditions": [24, 800, "v", 12000], "internal_node_id": "0.0-113.0", "trial": 4, "time_elapsed": 857957, "serialpos": 1, "key_press": -1, "wordID": 1030, "type": "PRES_VIS", "trial_index": 158}, "uniqueid": "MTK3121:34HJIJKLP6318T4TVWAVTR08KM84V8", "dateTime": 1520026655286}, {"current_trial": 159, "trialdata": {"rt": -1, "trial_type": "single-stim", "word": "citrus", "stimulus": "<p id=\"stim\">CITRUS</p>", "conditions": [24, 800, "v", 12000], "internal_node_id": "0.0-114.0", "trial": 4, "time_elapsed": 859820, "serialpos": 2, "key_press": -1, "wordID": 312, "type": "PRES_VIS", "trial_index": 159}, "uniqueid": "MTK3121:34HJIJKLP6318T4TVWAVTR08KM84V8", "dateTime": 1520026657149}, {"current_trial": 160, "trialdata": {"rt": -1, "trial_type": "single-stim", "word": "hornet", "stimulus": "<p id=\"stim\">HORNET</p>", "conditions": [24, 800, "v", 12000], "internal_node_id": "0.0-115.0", "trial": 4, "time_elapsed": 861662, "serialpos": 3, "key_press": -1, "wordID": 717, "type": "PRES_VIS", "trial_index": 160}, "uniqueid": "MTK3121:34HJIJKLP6318T4TVWAVTR08KM84V8", "dateTime": 1520026658992}, {"current_trial": 161, "trialdata": {"rt": -1, "trial_type": "single-stim", "word": "lover", "stimulus": "<p id=\"stim\">LOVER</p>", "conditions": [24, 800, "v", 12000], "internal_node_id": "0.0-116.0", "trial": 4, "time_elapsed": 863331, "serialpos": 4, "key_press": -1, "wordID": 845, "type": "PRES_VIS", "trial_index": 161}, "uniqueid": "MTK3121:34HJIJKLP6318T4TVWAVTR08KM84V8", "dateTime": 1520026660660}, {"current_trial": 162, "trialdata": {"rt": -1, "trial_type": "single-stim", "word": "baby", "stimulus": "<p id=\"stim\">BABY</p>", "conditions": [24, 800, "v", 12000], "internal_node_id": "0.0-117.0", "trial": 4, "time_elapsed": 864976, "serialpos": 5, "key_press": -1, "wordID": 63, "type": "PRES_VIS", "trial_index": 162}, "uniqueid": "MTK3121:34HJIJKLP6318T4TVWAVTR08KM84V8", "dateTime": 1520026662305}, {"current_trial": 163, "trialdata": {"rt": -1, "trial_type": "single-stim", "word": "wasp", "stimulus": "<p id=\"stim\">WASP</p>", "conditions": [24, 800, "v", 12000], "internal_node_id": "0.0-118.0", "trial": 4, "time_elapsed": 866802, "serialpos": 6, "key_press": -1, "wordID": 1592, "type": "PRES_VIS", "trial_index": 163}, "uniqueid": "MTK3121:34HJIJKLP6318T4TVWAVTR08KM84V8", "dateTime": 1520026664131}, {"current_trial": 164, "trialdata": {"rt": -1, "trial_type": "single-stim", "word": "cook", "stimulus": "<p id=\"stim\">COOK</p>", "conditions": [24, 800, "v", 12000], "internal_node_id": "0.0-119.0", "trial": 4, "time_elapsed": 868582, "serialpos": 7, "key_press": -1, "wordID": 371, "type": "PRES_VIS", "trial_index": 164}, "uniqueid": "MTK3121:34HJIJKLP6318T4TVWAVTR08KM84V8", "dateTime": 1520026665911}, {"current_trial": 165, "trialdata": {"rt": -1, "trial_type": "single-stim", "word": "relish", "stimulus": "<p id=\"stim\">RELISH</p>", "conditions": [24, 800, "v", 12000], "internal_node_id": "0.0-120.0", "trial": 4, "time_elapsed": 870210, "serialpos": 8, "key_press": -1, "wordID": 1182, "type": "PRES_VIS", "trial_index": 165}, "uniqueid": "MTK3121:34HJIJKLP6318T4TVWAVTR08KM84V8", "dateTime": 1520026667540}, {"current_trial": 166, "trialdata": {"rt": -1, "trial_type": "single-stim", "word": "frame", "stimulus": "<p id=\"stim\">FRAME</p>", "conditions": [24, 800, "v", 12000], "internal_node_id": "0.0-121.0", "trial": 4, "time_elapsed": 872163, "serialpos": 9, "key_press": -1, "wordID": 599, "type": "PRES_VIS", "trial_index": 166}, "uniqueid": "MTK3121:34HJIJKLP6318T4TVWAVTR08KM84V8", "dateTime": 1520026669492}, {"current_trial": 167, "trialdata": {"rt": -1, "trial_type": "single-stim", "word": "rebel", "stimulus": "<p id=\"stim\">REBEL</p>", "conditions": [24, 800, "v", 12000], "internal_node_id": "0.0-122.0", "trial": 4, "time_elapsed": 873839, "serialpos": 10, "key_press": -1, "wordID": 1171, "type": "PRES_VIS", "trial_index": 167}, "uniqueid": "MTK3121:34HJIJKLP6318T4TVWAVTR08KM84V8", "dateTime": 1520026671168}, {"current_trial": 168, "trialdata": {"rt": -1, "trial_type": "single-stim", "word": "gift", "stimulus": "<p id=\"stim\">GIFT</p>", "conditions": [24, 800, "v", 12000], "internal_node_id": "0.0-123.0", "trial": 4, "time_elapsed": 875562, "serialpos": 11, "key_press": -1, "wordID": 634, "type": "PRES_VIS", "trial_index": 168}, "uniqueid": "MTK3121:34HJIJKLP6318T4TVWAVTR08KM84V8", "dateTime": 1520026672892}, {"current_trial": 169, "trialdata": {"rt": -1, "trial_type": "single-stim", "word": "shovel", "stimulus": "<p id=\"stim\">SHOVEL</p>", "conditions": [24, 800, "v", 12000], "internal_node_id": "0.0-124.0", "trial": 4, "time_elapsed": 877222, "serialpos": 12, "key_press": -1, "wordID": 1294, "type": "PRES_VIS", "trial_index": 169}, "uniqueid": "MTK3121:34HJIJKLP6318T4TVWAVTR08KM84V8", "dateTime": 1520026674552}, {"current_trial": 170, "trialdata": {"rt": -1, "trial_type": "single-stim", "word": "army", "stimulus": "<p id=\"stim\">ARMY</p>", "conditions": [24, 800, "v", 12000], "internal_node_id": "0.0-125.0", "trial": 4, "time_elapsed": 878901, "serialpos": 13, "key_press": -1, "wordID": 38, "type": "PRES_VIS", "trial_index": 170}, "uniqueid": "MTK3121:34HJIJKLP6318T4TVWAVTR08KM84V8", "dateTime": 1520026676231}, {"current_trial": 171, "trialdata": {"rt": -1, "trial_type": "single-stim", "word": "guitar", "stimulus": "<p id=\"stim\">GUITAR</p>", "conditions": [24, 800, "v", 12000], "internal_node_id": "0.0-126.0", "trial": 4, "time_elapsed": 880825, "serialpos": 14, "key_press": -1, "wordID": 669, "type": "PRES_VIS", "trial_index": 171}, "uniqueid": "MTK3121:34HJIJKLP6318T4TVWAVTR08KM84V8", "dateTime": 1520026678156}, {"current_trial": 172, "trialdata": {"rt": -1, "trial_type": "single-stim", "word": "pistol", "stimulus": "<p id=\"stim\">PISTOL</p>", "conditions": [24, 800, "v", 12000], "internal_node_id": "0.0-127.0", "trial": 4, "time_elapsed": 882460, "serialpos": 15, "key_press": -1, "wordID": 1074, "type": "PRES_VIS", "trial_index": 172}, "uniqueid": "MTK3121:34HJIJKLP6318T4TVWAVTR08KM84V8", "dateTime": 1520026679789}, {"current_trial": 173, "trialdata": {"rt": -1, "trial_type": "single-stim", "word": "knife", "stimulus": "<p id=\"stim\">KNIFE</p>", "conditions": [24, 800, "v", 12000], "internal_node_id": "0.0-128.0", "trial": 4, "time_elapsed": 884257, "serialpos": 16, "key_press": -1, "wordID": 784, "type": "PRES_VIS", "trial_index": 173}, "uniqueid": "MTK3121:34HJIJKLP6318T4TVWAVTR08KM84V8", "dateTime": 1520026681586}, {"current_trial": 174, "trialdata": {"rt": -1, "trial_type": "single-stim", "word": "dust", "stimulus": "<p id=\"stim\">DUST</p>", "conditions": [24, 800, "v", 12000], "internal_node_id": "0.0-129.0", "trial": 4, "time_elapsed": 886016, "serialpos": 17, "key_press": -1, "wordID": 507, "type": "PRES_VIS", "trial_index": 174}, "uniqueid": "MTK3121:34HJIJKLP6318T4TVWAVTR08KM84V8", "dateTime": 1520026683346}, {"current_trial": 175, "trialdata": {"rt": -1, "trial_type": "single-stim", "word": "novel", "stimulus": "<p id=\"stim\">NOVEL</p>", "conditions": [24, 800, "v", 12000], "internal_node_id": "0.0-130.0", "trial": 4, "time_elapsed": 887868, "serialpos": 18, "key_press": -1, "wordID": 959, "type": "PRES_VIS", "trial_index": 175}, "uniqueid": "MTK3121:34HJIJKLP6318T4TVWAVTR08KM84V8", "dateTime": 1520026685197}, {"current_trial": 176, "trialdata": {"rt": -1, "trial_type": "single-stim", "word": "lily", "stimulus": "<p id=\"stim\">LILY</p>", "conditions": [24, 800, "v", 12000], "internal_node_id": "0.0-131.0", "trial": 4, "time_elapsed": 889830, "serialpos": 19, "key_press": -1, "wordID": 820, "type": "PRES_VIS", "trial_index": 176}, "uniqueid": "MTK3121:34HJIJKLP6318T4TVWAVTR08KM84V8", "dateTime": 1520026687160}, {"current_trial": 177, "trialdata": {"rt": -1, "trial_type": "single-stim", "word": "cafe", "stimulus": "<p id=\"stim\">CAFE</p>", "conditions": [24, 800, "v", 12000], "internal_node_id": "0.0-132.0", "trial": 4, "time_elapsed": 891729, "serialpos": 20, "key_press": -1, "wordID": 215, "type": "PRES_VIS", "trial_index": 177}, "uniqueid": "MTK3121:34HJIJKLP6318T4TVWAVTR08KM84V8", "dateTime": 1520026689058}, {"current_trial": 178, "trialdata": {"rt": -1, "trial_type": "single-stim", "word": "bug", "stimulus": "<p id=\"stim\">BUG</p>", "conditions": [24, 800, "v", 12000], "internal_node_id": "0.0-133.0", "trial": 4, "time_elapsed": 893647, "serialpos": 21, "key_press": -1, "wordID": 186, "type": "PRES_VIS", "trial_index": 178}, "uniqueid": "MTK3121:34HJIJKLP6318T4TVWAVTR08KM84V8", "dateTime": 1520026690977}, {"current_trial": 179, "trialdata": {"rt": -1, "trial_type": "single-stim", "word": "smog", "stimulus": "<p id=\"stim\">SMOG</p>", "conditions": [24, 800, "v", 12000], "internal_node_id": "0.0-134.0", "trial": 4, "time_elapsed": 895395, "serialpos": 22, "key_press": -1, "wordID": 1329, "type": "PRES_VIS", "trial_index": 179}, "uniqueid": "MTK3121:34HJIJKLP6318T4TVWAVTR08KM84V8", "dateTime": 1520026692724}, {"current_trial": 180, "trialdata": {"rt": -1, "trial_type": "single-stim", "word": "piano", "stimulus": "<p id=\"stim\">PIANO</p>", "conditions": [24, 800, "v", 12000], "internal_node_id": "0.0-135.0", "trial": 4, "time_elapsed": 897121, "serialpos": 23, "key_press": -1, "wordID": 1056, "type": "PRES_VIS", "trial_index": 180}, "uniqueid": "MTK3121:34HJIJKLP6318T4TVWAVTR08KM84V8", "dateTime": 1520026694451}, {"current_trial": 181, "trialdata": {"rt": -1, "trial_type": "single-stim", "stimulus": "", "internal_node_id": "0.0-136.0-0.0", "time_elapsed": 899618, "key_press": -1, "type": "PRE_RECALL_DELAY", "trial_index": 181}, "uniqueid": "MTK3121:34HJIJKLP6318T4TVWAVTR08KM84V8", "dateTime": 1520026696947}, {"current_trial": 182, "trialdata": {"rt": -1000, "trial_type": "single-audio", "stimulus": "/static/audio/400Hz.wav", "internal_node_id": "0.0-137.0", "time_elapsed": 900123, "key_press": -1, "type": "PRE_RECALL_ALERT", "trial_index": 182}, "uniqueid": "MTK3121:34HJIJKLP6318T4TVWAVTR08KM84V8", "dateTime": 1520026697452}, {"current_trial": 183, "trialdata": {"rt": [2986, 4833, 6421, 9209, 11920, 15170, 20726, 23433, 27486, 36745, 56866], "recwords": ["piano", "smog", "bug", "shovel", "baby", "lodge", "dust", "citrus", "peach", "pistol", "love"], "key_times": [1123, 1346, 1698, 2174, 2394, 2986, 3654, 4089, 4289, 4537, 4833, 5450, 5744, 6123, 6421, 6994, 7375, 7568, 7862, 8169, 8658, 9209, 9599, 9937, 10321, 10591, 11920, 12945, 13154, 13584, 13811, 14115, 15170, 19575, 19846, 20138, 20278, 20726, 21298, 21618, 21864, 22185, 22399, 22678, 23433, 24146, 24502, 24714, 25002, 25730, 26240, 26704, 27486, 34523, 34667, 35074, 35362, 35644, 36314, 36745, 55602, 55834, 56148, 56466, 56866, 59538, 59706, 59962], "trial_type": "free-recall", "conditions": [24, 800, "v", 12000], "internal_node_id": "0.0-138.0-0.0", "key_presses": [80, 73, 65, 78, 79, 13, 83, 77, 79, 71, 13, 66, 85, 71, 13, 83, 72, 79, 86, 69, 76, 13, 66, 65, 66, 89, 13, 76, 79, 68, 71, 69, 13, 68, 85, 83, 84, 13, 67, 73, 84, 82, 85, 83, 13, 80, 69, 65, 67, 84, 8, 72, 13, 80, 73, 83, 84, 79, 76, 13, 76, 79, 86, 69, 13, 75, 78, 73], "trial": 4, "time_elapsed": 960124, "type": "FREE_RECALL", "trial_index": 183}, "uniqueid": "MTK3121:34HJIJKLP6318T4TVWAVTR08KM84V8", "dateTime": 1520026757459}, {"current_trial": 184, "trialdata": {"rt": 1339, "trial_type": "text", "internal_node_id": "0.0-139.0", "time_elapsed": 963469, "key_press": 13, "type": "INSTRUCTIONS", "trial_index": 184}, "uniqueid": "MTK3121:34HJIJKLP6318T4TVWAVTR08KM84V8", "dateTime": 1520026760799}, {"current_trial": 185, "trialdata": {"rt": [2750, 5966, 10319, 18629, 21991], "trial_type": "math-distractor", "key_times": [2192, 2319, 2750, 5368, 5504, 5966, 9911, 10319, 14335, 16590, 17990, 18350, 18629, 21240, 21648, 21991], "responses": ["22", "21", "9", "19", "17"], "num2": [4, 9, 5, 9, 8, 6], "num3": [9, 9, 3, 4, 3, 2], "conditions": [24, 1600, "v", 24000], "internal_node_id": "0.0-140.0", "key_presses": [50, 50, 13, 50, 49, 13, 57, 13, 49, 8, 49, 57, 13, 49, 55, 13], "trial": 5, "time_elapsed": 989473, "type": "DISTRACTOR", "trial_index": 185, "num1": [9, 3, 1, 6, 6, 9]}, "uniqueid": "MTK3121:34HJIJKLP6318T4TVWAVTR08KM84V8", "dateTime": 1520026786802}, {"current_trial": 186, "trialdata": {"rt": -1, "trial_type": "single-stim", "stimulus": "<p id=\"stim\">10</p>", "internal_node_id": "0.0-141.0-0.0", "time_elapsed": 992473, "key_press": -1, "trial_index": 186}, "uniqueid": "MTK3121:34HJIJKLP6318T4TVWAVTR08KM84V8", "dateTime": 1520026789803}, {"current_trial": 187, "trialdata": {"rt": -1, "trial_type": "single-stim", "stimulus": "<p id=\"stim\">9</p>", "internal_node_id": "0.0-141.0-1.0", "time_elapsed": 993475, "key_press": -1, "trial_index": 187}, "uniqueid": "MTK3121:34HJIJKLP6318T4TVWAVTR08KM84V8", "dateTime": 1520026790804}, {"current_trial": 188, "trialdata": {"rt": -1, "trial_type": "single-stim", "stimulus": "<p id=\"stim\">8</p>", "internal_node_id": "0.0-141.0-2.0", "time_elapsed": 994476, "key_press": -1, "trial_index": 188}, "uniqueid": "MTK3121:34HJIJKLP6318T4TVWAVTR08KM84V8", "dateTime": 1520026791805}, {"current_trial": 189, "trialdata": {"rt": -1, "trial_type": "single-stim", "stimulus": "<p id=\"stim\">7</p>", "internal_node_id": "0.0-141.0-3.0", "time_elapsed": 995476, "key_press": -1, "trial_index": 189}, "uniqueid": "MTK3121:34HJIJKLP6318T4TVWAVTR08KM84V8", "dateTime": 1520026792806}, {"current_trial": 190, "trialdata": {"rt": -1, "trial_type": "single-stim", "stimulus": "<p id=\"stim\">6</p>", "internal_node_id": "0.0-141.0-4.0", "time_elapsed": 996477, "key_press": -1, "trial_index": 190}, "uniqueid": "MTK3121:34HJIJKLP6318T4TVWAVTR08KM84V8", "dateTime": 1520026793807}, {"current_trial": 191, "trialdata": {"rt": -1, "trial_type": "single-stim", "stimulus": "<p id=\"stim\">5</p>", "internal_node_id": "0.0-141.0-5.0", "time_elapsed": 997479, "key_press": -1, "trial_index": 191}, "uniqueid": "MTK3121:34HJIJKLP6318T4TVWAVTR08KM84V8", "dateTime": 1520026794808}, {"current_trial": 192, "trialdata": {"rt": -1, "trial_type": "single-stim", "stimulus": "<p id=\"stim\">4</p>", "internal_node_id": "0.0-141.0-6.0", "time_elapsed": 998479, "key_press": -1, "trial_index": 192}, "uniqueid": "MTK3121:34HJIJKLP6318T4TVWAVTR08KM84V8", "dateTime": 1520026795809}, {"current_trial": 193, "trialdata": {"rt": -1, "trial_type": "single-stim", "stimulus": "<p id=\"stim\">3</p>", "internal_node_id": "0.0-141.0-7.0", "time_elapsed": 999481, "key_press": -1, "trial_index": 193}, "uniqueid": "MTK3121:34HJIJKLP6318T4TVWAVTR08KM84V8", "dateTime": 1520026796811}, {"current_trial": 194, "trialdata": {"rt": -1, "trial_type": "single-stim", "stimulus": "<p id=\"stim\">2</p>", "internal_node_id": "0.0-141.0-8.0", "time_elapsed": 1000483, "key_press": -1, "trial_index": 194}, "uniqueid": "MTK3121:34HJIJKLP6318T4TVWAVTR08KM84V8", "dateTime": 1520026797812}, {"current_trial": 195, "trialdata": {"rt": -1, "trial_type": "single-stim", "stimulus": "<p id=\"stim\">1</p>", "internal_node_id": "0.0-141.0-9.0", "time_elapsed": 1001483, "key_press": -1, "trial_index": 195}, "uniqueid": "MTK3121:34HJIJKLP6318T4TVWAVTR08KM84V8", "dateTime": 1520026798812}, {"current_trial": 196, "trialdata": {"rt": -1, "trial_type": "single-stim", "stimulus": "<p id=\"stim\">+</p>", "internal_node_id": "0.0-142.0-0.0", "time_elapsed": 1002984, "key_press": -1, "type": "FIXATION", "trial_index": 196}, "uniqueid": "MTK3121:34HJIJKLP6318T4TVWAVTR08KM84V8", "dateTime": 1520026800313}, {"current_trial": 197, "trialdata": {"rt": -1, "trial_type": "single-stim", "word": "dolphin", "stimulus": "<p id=\"stim\">DOLPHIN</p>", "conditions": [24, 1600, "v", 24000], "internal_node_id": "0.0-143.0", "trial": 5, "time_elapsed": 1004585, "serialpos": 0, "key_press": -1, "wordID": 482, "type": "PRES_VIS", "trial_index": 197}, "uniqueid": "MTK3121:34HJIJKLP6318T4TVWAVTR08KM84V8", "dateTime": 1520026801915}, {"current_trial": 198, "trialdata": {"rt": -1, "trial_type": "single-stim", "word": "sunset", "stimulus": "<p id=\"stim\">SUNSET</p>", "conditions": [24, 1600, "v", 24000], "internal_node_id": "0.0-144.0", "trial": 5, "time_elapsed": 1007219, "serialpos": 1, "key_press": -1, "wordID": 1407, "type": "PRES_VIS", "trial_index": 198}, "uniqueid": "MTK3121:34HJIJKLP6318T4TVWAVTR08KM84V8", "dateTime": 1520026804548}, {"current_trial": 199, "trialdata": {"rt": -1, "trial_type": "single-stim", "word": "laser", "stimulus": "<p id=\"stim\">LASER</p>", "conditions": [24, 1600, "v", 24000], "internal_node_id": "0.0-145.0", "trial": 5, "time_elapsed": 1009651, "serialpos": 2, "key_press": -1, "wordID": 800, "type": "PRES_VIS", "trial_index": 199}, "uniqueid": "MTK3121:34HJIJKLP6318T4TVWAVTR08KM84V8", "dateTime": 1520026806982}, {"current_trial": 200, "trialdata": {"rt": -1, "trial_type": "single-stim", "word": "salmon", "stimulus": "<p id=\"stim\">SALMON</p>", "conditions": [24, 1600, "v", 24000], "internal_node_id": "0.0-146.0", "trial": 5, "time_elapsed": 1012057, "serialpos": 3, "key_press": -1, "wordID": 1226, "type": "PRES_VIS", "trial_index": 200}, "uniqueid": "MTK3121:34HJIJKLP6318T4TVWAVTR08KM84V8", "dateTime": 1520026809387}, {"current_trial": 201, "trialdata": {"rt": -1, "trial_type": "single-stim", "word": "crab", "stimulus": "<p id=\"stim\">CRAB</p>", "conditions": [24, 1600, "v", 24000], "internal_node_id": "0.0-147.0", "trial": 5, "time_elapsed": 1014561, "serialpos": 4, "key_press": -1, "wordID": 396, "type": "PRES_VIS", "trial_index": 201}, "uniqueid": "MTK3121:34HJIJKLP6318T4TVWAVTR08KM84V8", "dateTime": 1520026811892}, {"current_trial": 202, "trialdata": {"rt": -1, "trial_type": "single-stim", "word": "saddle", "stimulus": "<p id=\"stim\">SADDLE</p>", "conditions": [24, 1600, "v", 24000], "internal_node_id": "0.0-148.0", "trial": 5, "time_elapsed": 1017021, "serialpos": 5, "key_press": -1, "wordID": 1220, "type": "PRES_VIS", "trial_index": 202}, "uniqueid": "MTK3121:34HJIJKLP6318T4TVWAVTR08KM84V8", "dateTime": 1520026814351}, {"current_trial": 203, "trialdata": {"rt": -1, "trial_type": "single-stim", "word": "wagon", "stimulus": "<p id=\"stim\">WAGON</p>", "conditions": [24, 1600, "v", 24000], "internal_node_id": "0.0-149.0", "trial": 5, "time_elapsed": 1019564, "serialpos": 6, "key_press": -1, "wordID": 1577, "type": "PRES_VIS", "trial_index": 203}, "uniqueid": "MTK3121:34HJIJKLP6318T4TVWAVTR08KM84V8", "dateTime": 1520026816893}, {"current_trial": 204, "trialdata": {"rt": -1, "trial_type": "single-stim", "word": "canal", "stimulus": "<p id=\"stim\">CANAL</p>", "conditions": [24, 1600, "v", 24000], "internal_node_id": "0.0-150.0", "trial": 5, "time_elapsed": 1022293, "serialpos": 7, "key_press": -1, "wordID": 225, "type": "PRES_VIS", "trial_index": 204}, "uniqueid": "MTK3121:34HJIJKLP6318T4TVWAVTR08KM84V8", "dateTime": 1520026819623}, {"current_trial": 205, "trialdata": {"rt": -1, "trial_type": "single-stim", "word": "venus", "stimulus": "<p id=\"stim\">VENUS</p>", "conditions": [24, 1600, "v", 24000], "internal_node_id": "0.0-151.0", "trial": 5, "time_elapsed": 1024761, "serialpos": 8, "key_press": -1, "wordID": 1556, "type": "PRES_VIS", "trial_index": 205}, "uniqueid": "MTK3121:34HJIJKLP6318T4TVWAVTR08KM84V8", "dateTime": 1520026822090}, {"current_trial": 206, "trialdata": {"rt": -1, "trial_type": "single-stim", "word": "turtle", "stimulus": "<p id=\"stim\">TURTLE</p>", "conditions": [24, 1600, "v", 24000], "internal_node_id": "0.0-152.0", "trial": 5, "time_elapsed": 1027300, "serialpos": 9, "key_press": -1, "wordID": 1521, "type": "PRES_VIS", "trial_index": 206}, "uniqueid": "MTK3121:34HJIJKLP6318T4TVWAVTR08KM84V8", "dateTime": 1520026824630}, {"current_trial": 207, "trialdata": {"rt": -1, "trial_type": "single-stim", "word": "star", "stimulus": "<p id=\"stim\">STAR</p>", "conditions": [24, 1600, "v", 24000], "internal_node_id": "0.0-153.0", "trial": 5, "time_elapsed": 1029821, "serialpos": 10, "key_press": -1, "wordID": 1372, "type": "PRES_VIS", "trial_index": 207}, "uniqueid": "MTK3121:34HJIJKLP6318T4TVWAVTR08KM84V8", "dateTime": 1520026827152}, {"current_trial": 208, "trialdata": {"rt": -1, "trial_type": "single-stim", "word": "world", "stimulus": "<p id=\"stim\">WORLD</p>", "conditions": [24, 1600, "v", 24000], "internal_node_id": "0.0-154.0", "trial": 5, "time_elapsed": 1032338, "serialpos": 11, "key_press": -1, "wordID": 1621, "type": "PRES_VIS", "trial_index": 208}, "uniqueid": "MTK3121:34HJIJKLP6318T4TVWAVTR08KM84V8", "dateTime": 1520026829667}, {"current_trial": 209, "trialdata": {"rt": -1, "trial_type": "single-stim", "word": "washer", "stimulus": "<p id=\"stim\">WASHER</p>", "conditions": [24, 1600, "v", 24000], "internal_node_id": "0.0-155.0", "trial": 5, "time_elapsed": 1035007, "serialpos": 12, "key_press": -1, "wordID": 1591, "type": "PRES_VIS", "trial_index": 209}, "uniqueid": "MTK3121:34HJIJKLP6318T4TVWAVTR08KM84V8", "dateTime": 1520026832336}, {"current_trial": 210, "trialdata": {"rt": -1, "trial_type": "single-stim", "word": "pepper", "stimulus": "<p id=\"stim\">PEPPER</p>", "conditions": [24, 1600, "v", 24000], "internal_node_id": "0.0-156.0", "trial": 5, "time_elapsed": 1037777, "serialpos": 13, "key_press": -1, "wordID": 1046, "type": "PRES_VIS", "trial_index": 210}, "uniqueid": "MTK3121:34HJIJKLP6318T4TVWAVTR08KM84V8", "dateTime": 1520026835106}, {"current_trial": 211, "trialdata": {"rt": -1, "trial_type": "single-stim", "word": "shrub", "stimulus": "<p id=\"stim\">SHRUB</p>", "conditions": [24, 1600, "v", 24000], "internal_node_id": "0.0-157.0", "trial": 5, "time_elapsed": 1040311, "serialpos": 14, "key_press": -1, "wordID": 1298, "type": "PRES_VIS", "trial_index": 211}, "uniqueid": "MTK3121:34HJIJKLP6318T4TVWAVTR08KM84V8", "dateTime": 1520026837641}, {"current_trial": 212, "trialdata": {"rt": -1, "trial_type": "single-stim", "word": "grape", "stimulus": "<p id=\"stim\">GRAPE</p>", "conditions": [24, 1600, "v", 24000], "internal_node_id": "0.0-158.0", "trial": 5, "time_elapsed": 1042948, "serialpos": 15, "key_press": -1, "wordID": 653, "type": "PRES_VIS", "trial_index": 212}, "uniqueid": "MTK3121:34HJIJKLP6318T4TVWAVTR08KM84V8", "dateTime": 1520026840277}, {"current_trial": 213, "trialdata": {"rt": -1, "trial_type": "single-stim", "word": "crayon", "stimulus": "<p id=\"stim\">CRAYON</p>", "conditions": [24, 1600, "v", 24000], "internal_node_id": "0.0-159.0", "trial": 5, "time_elapsed": 1045725, "serialpos": 16, "key_press": -1, "wordID": 400, "type": "PRES_VIS", "trial_index": 213}, "uniqueid": "MTK3121:34HJIJKLP6318T4TVWAVTR08KM84V8", "dateTime": 1520026843054}, {"current_trial": 214, "trialdata": {"rt": -1, "trial_type": "single-stim", "word": "lipstick", "stimulus": "<p id=\"stim\">LIPSTICK</p>", "conditions": [24, 1600, "v", 24000], "internal_node_id": "0.0-160.0", "trial": 5, "time_elapsed": 1048381, "serialpos": 17, "key_press": -1, "wordID": 828, "type": "PRES_VIS", "trial_index": 214}, "uniqueid": "MTK3121:34HJIJKLP6318T4TVWAVTR08KM84V8", "dateTime": 1520026845711}, {"current_trial": 215, "trialdata": {"rt": -1, "trial_type": "single-stim", "word": "custard", "stimulus": "<p id=\"stim\">CUSTARD</p>", "conditions": [24, 1600, "v", 24000], "internal_node_id": "0.0-161.0", "trial": 5, "time_elapsed": 1051084, "serialpos": 18, "key_press": -1, "wordID": 428, "type": "PRES_VIS", "trial_index": 215}, "uniqueid": "MTK3121:34HJIJKLP6318T4TVWAVTR08KM84V8", "dateTime": 1520026848413}, {"current_trial": 216, "trialdata": {"rt": -1, "trial_type": "single-stim", "word": "pliers", "stimulus": "<p id=\"stim\">PLIERS</p>", "conditions": [24, 1600, "v", 24000], "internal_node_id": "0.0-162.0", "trial": 5, "time_elapsed": 1053691, "serialpos": 19, "key_press": -1, "wordID": 1088, "type": "PRES_VIS", "trial_index": 216}, "uniqueid": "MTK3121:34HJIJKLP6318T4TVWAVTR08KM84V8", "dateTime": 1520026851021}, {"current_trial": 217, "trialdata": {"rt": -1, "trial_type": "single-stim", "word": "scissors", "stimulus": "<p id=\"stim\">SCISSORS</p>", "conditions": [24, 1600, "v", 24000], "internal_node_id": "0.0-163.0", "trial": 5, "time_elapsed": 1056271, "serialpos": 20, "key_press": -1, "wordID": 1249, "type": "PRES_VIS", "trial_index": 217}, "uniqueid": "MTK3121:34HJIJKLP6318T4TVWAVTR08KM84V8", "dateTime": 1520026853600}, {"current_trial": 218, "trialdata": {"rt": -1, "trial_type": "single-stim", "word": "shortcake", "stimulus": "<p id=\"stim\">SHORTCAKE</p>", "conditions": [24, 1600, "v", 24000], "internal_node_id": "0.0-164.0", "trial": 5, "time_elapsed": 1058753, "serialpos": 21, "key_press": -1, "wordID": 1291, "type": "PRES_VIS", "trial_index": 218}, "uniqueid": "MTK3121:34HJIJKLP6318T4TVWAVTR08KM84V8", "dateTime": 1520026856082}, {"current_trial": 219, "trialdata": {"rt": -1, "trial_type": "single-stim", "word": "europe", "stimulus": "<p id=\"stim\">EUROPE</p>", "conditions": [24, 1600, "v", 24000], "internal_node_id": "0.0-165.0", "trial": 5, "time_elapsed": 1061287, "serialpos": 22, "key_press": -1, "wordID": 540, "type": "PRES_VIS", "trial_index": 219}, "uniqueid": "MTK3121:34HJIJKLP6318T4TVWAVTR08KM84V8", "dateTime": 1520026858616}, {"current_trial": 220, "trialdata": {"rt": -1, "trial_type": "single-stim", "word": "pastry", "stimulus": "<p id=\"stim\">PASTRY</p>", "conditions": [24, 1600, "v", 24000], "internal_node_id": "0.0-166.0", "trial": 5, "time_elapsed": 1063943, "serialpos": 23, "key_press": -1, "wordID": 1021, "type": "PRES_VIS", "trial_index": 220}, "uniqueid": "MTK3121:34HJIJKLP6318T4TVWAVTR08KM84V8", "dateTime": 1520026861272}, {"current_trial": 221, "trialdata": {"rt": -1, "trial_type": "single-stim", "stimulus": "", "internal_node_id": "0.0-167.0-0.0", "time_elapsed": 1066195, "key_press": -1, "type": "PRE_RECALL_DELAY", "trial_index": 221}, "uniqueid": "MTK3121:34HJIJKLP6318T4TVWAVTR08KM84V8", "dateTime": 1520026863525}, {"current_trial": 222, "trialdata": {"rt": -1000, "trial_type": "single-audio", "stimulus": "/static/audio/400Hz.wav", "internal_node_id": "0.0-168.0", "time_elapsed": 1066697, "key_press": -1, "type": "PRE_RECALL_ALERT", "trial_index": 222}, "uniqueid": "MTK3121:34HJIJKLP6318T4TVWAVTR08KM84V8", "dateTime": 1520026864026}, {"current_trial": 223, "trialdata": {"rt": [2784, 6578, 10226, 13416, 19732, 21904, 24794, 30357, 43957], "recwords": ["pastry", "shortcake", "europe", "scissors", "dolphin", "crab", "salmon", "saddle", "pliers"], "key_times": [1124, 1514, 1730, 1954, 2115, 2249, 2784, 3468, 3850, 4027, 4379, 4550, 4961, 5218, 5810, 6132, 6578, 7325, 7840, 8162, 8520, 8680, 9588, 10226, 10753, 10986, 11275, 11636, 11763, 12042, 12321, 12533, 13416, 16876, 17284, 17462, 17716, 18108, 18350, 18643, 19732, 20413, 20629, 20910, 21580, 21904, 22652, 22836, 23219, 23474, 23722, 23915, 24794, 28243, 28445, 28725, 28853, 29115, 29492, 30357, 42247, 42462, 42677, 43085, 43252, 43477, 43957], "trial_type": "free-recall", "conditions": [24, 1600, "v", 24000], "internal_node_id": "0.0-169.0-0.0", "key_presses": [80, 65, 83, 84, 82, 89, 13, 83, 72, 79, 82, 84, 67, 65, 75, 69, 13, 69, 85, 82, 79, 80, 69, 13, 83, 67, 73, 83, 83, 79, 82, 83, 13, 68, 79, 76, 80, 72, 73, 78, 13, 67, 82, 65, 66, 13, 83, 65, 76, 77, 79, 78, 13, 83, 65, 68, 68, 76, 69, 13, 80, 76, 73, 69, 82, 83, 13], "trial": 5, "time_elapsed": 1126699, "type": "FREE_RECALL", "trial_index": 223}, "uniqueid": "MTK3121:34HJIJKLP6318T4TVWAVTR08KM84V8", "dateTime": 1520026924033}, {"current_trial": 224, "trialdata": {"rt": 2671, "trial_type": "text", "internal_node_id": "0.0-170.0", "time_elapsed": 1131375, "key_press": 13, "type": "INSTRUCTIONS", "trial_index": 224}, "uniqueid": "MTK3121:34HJIJKLP6318T4TVWAVTR08KM84V8", "dateTime": 1520026928704}, {"current_trial": 225, "trialdata": {"rt": [2951, 5246, 8358, 11134], "trial_type": "math-distractor", "key_times": [2263, 2446, 2951, 4519, 4864, 5246, 7432, 7942, 8358, 10382, 10742, 11134], "responses": ["14", "17", "15", "15"], "num2": [6, 1, 5, 6, 9], "num3": [5, 8, 4, 6, 8], "conditions": [24, 800, "v", 12000], "internal_node_id": "0.0-171.0", "key_presses": [49, 52, 13, 49, 55, 13, 49, 53, 13, 49, 53, 13], "trial": 6, "time_elapsed": 1145377, "type": "DISTRACTOR", "trial_index": 225, "num1": [3, 8, 6, 3, 1]}, "uniqueid": "MTK3121:34HJIJKLP6318T4TVWAVTR08KM84V8", "dateTime": 1520026942706}, {"current_trial": 226, "trialdata": {"rt": -1, "trial_type": "single-stim", "stimulus": "<p id=\"stim\">10</p>", "internal_node_id": "0.0-172.0-0.0", "time_elapsed": 1148377, "key_press": -1, "trial_index": 226}, "uniqueid": "MTK3121:34HJIJKLP6318T4TVWAVTR08KM84V8", "dateTime": 1520026945707}, {"current_trial": 227, "trialdata": {"rt": -1, "trial_type": "single-stim", "stimulus": "<p id=\"stim\">9</p>", "internal_node_id": "0.0-172.0-1.0", "time_elapsed": 1149378, "key_press": -1, "trial_index": 227}, "uniqueid": "MTK3121:34HJIJKLP6318T4TVWAVTR08KM84V8", "dateTime": 1520026946708}, {"current_trial": 228, "trialdata": {"rt": -1, "trial_type": "single-stim", "stimulus": "<p id=\"stim\">8</p>", "internal_node_id": "0.0-172.0-2.0", "time_elapsed": 1150379, "key_press": -1, "trial_index": 228}, "uniqueid": "MTK3121:34HJIJKLP6318T4TVWAVTR08KM84V8", "dateTime": 1520026947710}, {"current_trial": 229, "trialdata": {"rt": -1, "trial_type": "single-stim", "stimulus": "<p id=\"stim\">7</p>", "internal_node_id": "0.0-172.0-3.0", "time_elapsed": 1151382, "key_press": -1, "trial_index": 229}, "uniqueid": "MTK3121:34HJIJKLP6318T4TVWAVTR08KM84V8", "dateTime": 1520026948712}, {"current_trial": 230, "trialdata": {"rt": -1, "trial_type": "single-stim", "stimulus": "<p id=\"stim\">6</p>", "internal_node_id": "0.0-172.0-4.0", "time_elapsed": 1152383, "key_press": -1, "trial_index": 230}, "uniqueid": "MTK3121:34HJIJKLP6318T4TVWAVTR08KM84V8", "dateTime": 1520026949713}, {"current_trial": 231, "trialdata": {"rt": -1, "trial_type": "single-stim", "stimulus": "<p id=\"stim\">5</p>", "internal_node_id": "0.0-172.0-5.0", "time_elapsed": 1153384, "key_press": -1, "trial_index": 231}, "uniqueid": "MTK3121:34HJIJKLP6318T4TVWAVTR08KM84V8", "dateTime": 1520026950714}, {"current_trial": 232, "trialdata": {"rt": -1, "trial_type": "single-stim", "stimulus": "<p id=\"stim\">4</p>", "internal_node_id": "0.0-172.0-6.0", "time_elapsed": 1154385, "key_press": -1, "trial_index": 232}, "uniqueid": "MTK3121:34HJIJKLP6318T4TVWAVTR08KM84V8", "dateTime": 1520026951715}, {"current_trial": 233, "trialdata": {"rt": -1, "trial_type": "single-stim", "stimulus": "<p id=\"stim\">3</p>", "internal_node_id": "0.0-172.0-7.0", "time_elapsed": 1155386, "key_press": -1, "trial_index": 233}, "uniqueid": "MTK3121:34HJIJKLP6318T4TVWAVTR08KM84V8", "dateTime": 1520026952716}, {"current_trial": 234, "trialdata": {"rt": -1, "trial_type": "single-stim", "stimulus": "<p id=\"stim\">2</p>", "internal_node_id": "0.0-172.0-8.0", "time_elapsed": 1156387, "key_press": -1, "trial_index": 234}, "uniqueid": "MTK3121:34HJIJKLP6318T4TVWAVTR08KM84V8", "dateTime": 1520026953718}, {"current_trial": 235, "trialdata": {"rt": -1, "trial_type": "single-stim", "stimulus": "<p id=\"stim\">1</p>", "internal_node_id": "0.0-172.0-9.0", "time_elapsed": 1157388, "key_press": -1, "trial_index": 235}, "uniqueid": "MTK3121:34HJIJKLP6318T4TVWAVTR08KM84V8", "dateTime": 1520026954717}, {"current_trial": 236, "trialdata": {"rt": -1, "trial_type": "single-stim", "stimulus": "<p id=\"stim\">+</p>", "internal_node_id": "0.0-173.0-0.0", "time_elapsed": 1158889, "key_press": -1, "type": "FIXATION", "trial_index": 236}, "uniqueid": "MTK3121:34HJIJKLP6318T4TVWAVTR08KM84V8", "dateTime": 1520026956219}, {"current_trial": 237, "trialdata": {"rt": -1, "trial_type": "single-stim", "word": "peanut", "stimulus": "<p id=\"stim\">PEANUT</p>", "conditions": [24, 800, "v", 12000], "internal_node_id": "0.0-174.0", "trial": 6, "time_elapsed": 1159691, "serialpos": 0, "key_press": -1, "wordID": 1031, "type": "PRES_VIS", "trial_index": 237}, "uniqueid": "MTK3121:34HJIJKLP6318T4TVWAVTR08KM84V8", "dateTime": 1520026957020}, {"current_trial": 238, "trialdata": {"rt": -1, "trial_type": "single-stim", "word": "temple", "stimulus": "<p id=\"stim\">TEMPLE</p>", "conditions": [24, 800, "v", 12000], "internal_node_id": "0.0-175.0", "trial": 6, "time_elapsed": 1161539, "serialpos": 1, "key_press": -1, "wordID": 1447, "type": "PRES_VIS", "trial_index": 238}, "uniqueid": "MTK3121:34HJIJKLP6318T4TVWAVTR08KM84V8", "dateTime": 1520026958869}, {"current_trial": 239, "trialdata": {"rt": -1, "trial_type": "single-stim", "word": "slug", "stimulus": "<p id=\"stim\">SLUG</p>", "conditions": [24, 800, "v", 12000], "internal_node_id": "0.0-176.0", "trial": 6, "time_elapsed": 1163298, "serialpos": 2, "key_press": -1, "wordID": 1328, "type": "PRES_VIS", "trial_index": 239}, "uniqueid": "MTK3121:34HJIJKLP6318T4TVWAVTR08KM84V8", "dateTime": 1520026960628}, {"current_trial": 240, "trialdata": {"rt": -1, "trial_type": "single-stim", "word": "pigment", "stimulus": "<p id=\"stim\">PIGMENT</p>", "conditions": [24, 800, "v", 12000], "internal_node_id": "0.0-177.0", "trial": 6, "time_elapsed": 1165166, "serialpos": 3, "key_press": -1, "wordID": 1065, "type": "PRES_VIS", "trial_index": 240}, "uniqueid": "MTK3121:34HJIJKLP6318T4TVWAVTR08KM84V8", "dateTime": 1520026962495}, {"current_trial": 241, "trialdata": {"rt": -1, "trial_type": "single-stim", "word": "costume", "stimulus": "<p id=\"stim\">COSTUME</p>", "conditions": [24, 800, "v", 12000], "internal_node_id": "0.0-178.0", "trial": 6, "time_elapsed": 1167009, "serialpos": 4, "key_press": -1, "wordID": 382, "type": "PRES_VIS", "trial_index": 241}, "uniqueid": "MTK3121:34HJIJKLP6318T4TVWAVTR08KM84V8", "dateTime": 1520026964338}, {"current_trial": 242, "trialdata": {"rt": -1, "trial_type": "single-stim", "word": "quail", "stimulus": "<p id=\"stim\">QUAIL</p>", "conditions": [24, 800, "v", 12000], "internal_node_id": "0.0-179.0", "trial": 6, "time_elapsed": 1168780, "serialpos": 5, "key_press": -1, "wordID": 1146, "type": "PRES_VIS", "trial_index": 242}, "uniqueid": "MTK3121:34HJIJKLP6318T4TVWAVTR08KM84V8", "dateTime": 1520026966110}, {"current_trial": 243, "trialdata": {"rt": -1, "trial_type": "single-stim", "word": "church", "stimulus": "<p id=\"stim\">CHURCH</p>", "conditions": [24, 800, "v", 12000], "internal_node_id": "0.0-180.0", "trial": 6, "time_elapsed": 1170423, "serialpos": 6, "key_press": -1, "wordID": 306, "type": "PRES_VIS", "trial_index": 243}, "uniqueid": "MTK3121:34HJIJKLP6318T4TVWAVTR08KM84V8", "dateTime": 1520026967753}, {"current_trial": 244, "trialdata": {"rt": -1, "trial_type": "single-stim", "word": "chapel", "stimulus": "<p id=\"stim\">CHAPEL</p>", "conditions": [24, 800, "v", 12000], "internal_node_id": "0.0-181.0", "trial": 6, "time_elapsed": 1172124, "serialpos": 7, "key_press": -1, "wordID": 279, "type": "PRES_VIS", "trial_index": 244}, "uniqueid": "MTK3121:34HJIJKLP6318T4TVWAVTR08KM84V8", "dateTime": 1520026969454}, {"current_trial": 245, "trialdata": {"rt": -1, "trial_type": "single-stim", "word": "spoon", "stimulus": "<p id=\"stim\">SPOON</p>", "conditions": [24, 800, "v", 12000], "internal_node_id": "0.0-182.0", "trial": 6, "time_elapsed": 1173843, "serialpos": 8, "key_press": -1, "wordID": 1356, "type": "PRES_VIS", "trial_index": 245}, "uniqueid": "MTK3121:34HJIJKLP6318T4TVWAVTR08KM84V8", "dateTime": 1520026971173}, {"current_trial": 246, "trialdata": {"rt": -1, "trial_type": "single-stim", "word": "convict", "stimulus": "<p id=\"stim\">CONVICT</p>", "conditions": [24, 800, "v", 12000], "internal_node_id": "0.0-183.0", "trial": 6, "time_elapsed": 1175696, "serialpos": 9, "key_press": -1, "wordID": 370, "type": "PRES_VIS", "trial_index": 246}, "uniqueid": "MTK3121:34HJIJKLP6318T4TVWAVTR08KM84V8", "dateTime": 1520026973025}, {"current_trial": 247, "trialdata": {"rt": -1, "trial_type": "single-stim", "word": "chauffeur", "stimulus": "<p id=\"stim\">CHAUFFEUR</p>", "conditions": [24, 800, "v", 12000], "internal_node_id": "0.0-184.0", "trial": 6, "time_elapsed": 1177417, "serialpos": 10, "key_press": -1, "wordID": 282, "type": "PRES_VIS", "trial_index": 247}, "uniqueid": "MTK3121:34HJIJKLP6318T4TVWAVTR08KM84V8", "dateTime": 1520026974746}, {"current_trial": 248, "trialdata": {"rt": -1, "trial_type": "single-stim", "word": "tutu", "stimulus": "<p id=\"stim\">TUTU</p>", "conditions": [24, 800, "v", 12000], "internal_node_id": "0.0-185.0", "trial": 6, "time_elapsed": 1179312, "serialpos": 11, "key_press": -1, "wordID": 1523, "type": "PRES_VIS", "trial_index": 248}, "uniqueid": "MTK3121:34HJIJKLP6318T4TVWAVTR08KM84V8", "dateTime": 1520026976642}, {"current_trial": 249, "trialdata": {"rt": -1, "trial_type": "single-stim", "word": "coffee", "stimulus": "<p id=\"stim\">COFFEE</p>", "conditions": [24, 800, "v", 12000], "internal_node_id": "0.0-186.0", "trial": 6, "time_elapsed": 1181273, "serialpos": 12, "key_press": -1, "wordID": 340, "type": "PRES_VIS", "trial_index": 249}, "uniqueid": "MTK3121:34HJIJKLP6318T4TVWAVTR08KM84V8", "dateTime": 1520026978603}, {"current_trial": 250, "trialdata": {"rt": -1, "trial_type": "single-stim", "word": "soda", "stimulus": "<p id=\"stim\">SODA</p>", "conditions": [24, 800, "v", 12000], "internal_node_id": "0.0-187.0", "trial": 6, "time_elapsed": 1182904, "serialpos": 13, "key_press": -1, "wordID": 1340, "type": "PRES_VIS", "trial_index": 250}, "uniqueid": "MTK3121:34HJIJKLP6318T4TVWAVTR08KM84V8", "dateTime": 1520026980234}, {"current_trial": 251, "trialdata": {"rt": -1, "trial_type": "single-stim", "word": "island", "stimulus": "<p id=\"stim\">ISLAND</p>", "conditions": [24, 800, "v", 12000], "internal_node_id": "0.0-188.0", "trial": 6, "time_elapsed": 1184520, "serialpos": 14, "key_press": -1, "wordID": 744, "type": "PRES_VIS", "trial_index": 251}, "uniqueid": "MTK3121:34HJIJKLP6318T4TVWAVTR08KM84V8", "dateTime": 1520