{"assignmentId": "339ANSOTR69H0P9WHHYSLJZA9BCIKZ", "workerId": "MTK3163", "questiondata": {"origin": "United States", "strat-rehearsal": "82", "marital": "Married/Domestic Partnership", "education": "Master's degree", "ethnicity": "Not Hispanic", "color_depth": 24, "distracted": "No", "wrote-notes": "No", "strat-other": "", "screen_width": 1920, "avail_screen_width": 1920, "avail_screen_height": 1040, "strat-image": "80", "language": "English", "gender": "Female", "age": "27", "gender_other": "", "race": ["American Indian/Alaskan Native"], "strat-categorize": "87", "pixel_depth": 24, "strat-spatial": "66", "strat-story": "70", "race_other": "", "screen_height": 1080}, "bonus": 0, "hitId": "37ZQELHEQ052HUMW97JYGKRB0K7MN9", "counterbalance": 905, "useragent": "Mozilla/5.0 (Windows NT 10.0; Win64; x64) AppleWebKit/537.36 (KHTML, like Gecko) Chrome/64.0.3282.186 Safari/537.36", "eventdata": [{"eventtype": "initialized", "interval": 0, "value": null, "timestamp": 1520113378019}, {"eventtype": "window_resize", "interval": 2, "value": [1920, 1033], "timestamp": 1520113378021}], "data": [{"current_trial": 0, "trialdata": {"rt": 1788, "trial_type": "text", "internal_node_id": "0.0-0.0", "time_elapsed": 1806, "key_press": 72, "type": "INSTRUCTIONS", "trial_index": 0}, "uniqueid": "MTK3163:339ANSOTR69H0P9WHHYSLJZA9BCIKZ", "dateTime": 1520113380821}, {"current_trial": 1, "trialdata": {"rt": 1650, "trial_type": "text", "internal_node_id": "0.0-1.0", "time_elapsed": 3469, "key_press": 72, "type": "INSTRUCTIONS", "trial_index": 1}, "uniqueid": "MTK3163:339ANSOTR69H0P9WHHYSLJZA9BCIKZ", "dateTime": 1520113382479}, {"current_trial": 2, "trialdata": {"rt": [5924], "trial_type": "audio-test", "responses": ["ocean"], "internal_node_id": "0.0-2.0", "time_elapsed": 9442, "type": "AUDIO_TEST", "trial_index": 2}, "uniqueid": "MTK3163:339ANSOTR69H0P9WHHYSLJZA9BCIKZ", "dateTime": 1520113388452}, {"current_trial": 3, "trialdata": {"rt": [7461], "trial_type": "audio-test", "responses": ["crystal"], "internal_node_id": "0.0-3.0", "time_elapsed": 16945, "type": "AUDIO_TEST", "trial_index": 3}, "uniqueid": "MTK3163:339ANSOTR69H0P9WHHYSLJZA9BCIKZ", "dateTime": 1520113395955}, {"current_trial": 4, "trialdata": {"rt": [5009], "trial_type": "audio-test", "responses": ["spice"], "internal_node_id": "0.0-4.0", "time_elapsed": 21990, "type": "AUDIO_TEST", "trial_index": 4}, "uniqueid": "MTK3163:339ANSOTR69H0P9WHHYSLJZA9BCIKZ", "dateTime": 1520113400999}, {"current_trial": 5, "trialdata": {"rt": 17330, "trial_type": "survey-text", "responses": "{\"Q0\":\"10:00 PM\",\"Q1\":\"6:00 AM\",\"Q2\":\"5\"}", "internal_node_id": "0.0-5.0", "time_elapsed": 40086, "type": "SLEEP_SURVEY", "trial_index": 5}, "uniqueid": "MTK3163:339ANSOTR69H0P9WHHYSLJZA9BCIKZ", "dateTime": 1520113419096}, {"current_trial": 6, "trialdata": {"rt": 24554, "trial_type": "text", "internal_node_id": "0.0-6.0", "time_elapsed": 65646, "key_press": 76, "type": "INSTRUCTIONS", "trial_index": 6}, "uniqueid": "MTK3163:339ANSOTR69H0P9WHHYSLJZA9BCIKZ", "dateTime": 1520113444655}, {"current_trial": 7, "trialdata": {"rt": 11895, "trial_type": "text", "internal_node_id": "0.0-7.0", "time_elapsed": 78045, "key_press": 76, "type": "INSTRUCTIONS", "trial_index": 7}, "uniqueid": "MTK3163:339ANSOTR69H0P9WHHYSLJZA9BCIKZ", "dateTime": 1520113457054}, {"current_trial": 8, "trialdata": {"rt": 6355, "trial_type": "text", "internal_node_id": "0.0-8.0", "time_elapsed": 84904, "key_press": 76, "type": "INSTRUCTIONS", "trial_index": 8}, "uniqueid": "MTK3163:339ANSOTR69H0P9WHHYSLJZA9BCIKZ", "dateTime": 1520113463915}, {"current_trial": 9, "trialdata": {"rt": [4170, 6121, 8485, 10254, 12196, 13869, 15750], "trial_type": "math-distractor", "key_times": [2475, 2565, 2847, 3843, 4170, 5609, 5955, 6121, 8177, 8265, 8485, 10020, 10125, 10254, 11736, 12073, 12196, 13340, 13752, 13869, 15272, 15636, 15750], "responses": ["16", "1-", "13", "14", "18", "19", "19"], "num2": [7, 3, 9, 6, 7, 8, 5, 9], "num3": [3, 4, 2, 7, 9, 3, 7, 5], "conditions": [18, 1200, "v", 18000], "internal_node_id": "0.0-9.0", "key_presses": [49, 54, 220, 8, 13, 49, 189, 13, 49, 51, 13, 49, 52, 13, 49, 56, 13, 49, 57, 13, 49, 57, 13], "trial": 0, "time_elapsed": 103932, "type": "DISTRACTOR", "trial_index": 9, "num1": [6, 3, 2, 1, 2, 8, 3, 8]}, "uniqueid": "MTK3163:339ANSOTR69H0P9WHHYSLJZA9BCIKZ", "dateTime": 1520113482942}, {"current_trial": 10, "trialdata": {"rt": -1, "trial_type": "single-stim", "stimulus": "<p id=\"stim\">10</p>", "internal_node_id": "0.0-10.0-0.0", "time_elapsed": 106943, "key_press": -1, "trial_index": 10}, "uniqueid": "MTK3163:339ANSOTR69H0P9WHHYSLJZA9BCIKZ", "dateTime": 1520113485953}, {"current_trial": 11, "trialdata": {"rt": -1, "trial_type": "single-stim", "stimulus": "<p id=\"stim\">9</p>", "internal_node_id": "0.0-10.0-1.0", "time_elapsed": 107949, "key_press": -1, "trial_index": 11}, "uniqueid": "MTK3163:339ANSOTR69H0P9WHHYSLJZA9BCIKZ", "dateTime": 1520113486958}, {"current_trial": 12, "trialdata": {"rt": -1, "trial_type": "single-stim", "stimulus": "<p id=\"stim\">8</p>", "internal_node_id": "0.0-10.0-2.0", "time_elapsed": 108952, "key_press": -1, "trial_index": 12}, "uniqueid": "MTK3163:339ANSOTR69H0P9WHHYSLJZA9BCIKZ", "dateTime": 1520113487962}, {"current_trial": 13, "trialdata": {"rt": -1, "trial_type": "single-stim", "stimulus": "<p id=\"stim\">7</p>", "internal_node_id": "0.0-10.0-3.0", "time_elapsed": 109957, "key_press": -1, "trial_index": 13}, "uniqueid": "MTK3163:339ANSOTR69H0P9WHHYSLJZA9BCIKZ", "dateTime": 1520113488966}, {"current_trial": 14, "trialdata": {"rt": -1, "trial_type": "single-stim", "stimulus": "<p id=\"stim\">6</p>", "internal_node_id": "0.0-10.0-4.0", "time_elapsed": 110962, "key_press": -1, "trial_index": 14}, "uniqueid": "MTK3163:339ANSOTR69H0P9WHHYSLJZA9BCIKZ", "dateTime": 1520113489971}, {"current_trial": 15, "trialdata": {"rt": -1, "trial_type": "single-stim", "stimulus": "<p id=\"stim\">5</p>", "internal_node_id": "0.0-10.0-5.0", "time_elapsed": 111966, "key_press": -1, "trial_index": 15}, "uniqueid": "MTK3163:339ANSOTR69H0P9WHHYSLJZA9BCIKZ", "dateTime": 1520113490975}, {"current_trial": 16, "trialdata": {"rt": -1, "trial_type": "single-stim", "stimulus": "<p id=\"stim\">4</p>", "internal_node_id": "0.0-10.0-6.0", "time_elapsed": 112970, "key_press": -1, "trial_index": 16}, "uniqueid": "MTK3163:339ANSOTR69H0P9WHHYSLJZA9BCIKZ", "dateTime": 1520113491979}, {"current_trial": 17, "trialdata": {"rt": -1, "trial_type": "single-stim", "stimulus": "<p id=\"stim\">3</p>", "internal_node_id": "0.0-10.0-7.0", "time_elapsed": 113978, "key_press": -1, "trial_index": 17}, "uniqueid": "MTK3163:339ANSOTR69H0P9WHHYSLJZA9BCIKZ", "dateTime": 1520113492987}, {"current_trial": 18, "trialdata": {"rt": -1, "trial_type": "single-stim", "stimulus": "<p id=\"stim\">2</p>", "internal_node_id": "0.0-10.0-8.0", "time_elapsed": 114982, "key_press": -1, "trial_index": 18}, "uniqueid": "MTK3163:339ANSOTR69H0P9WHHYSLJZA9BCIKZ", "dateTime": 1520113493991}, {"current_trial": 19, "trialdata": {"rt": -1, "trial_type": "single-stim", "stimulus": "<p id=\"stim\">1</p>", "internal_node_id": "0.0-10.0-9.0", "time_elapsed": 115986, "key_press": -1, "trial_index": 19}, "uniqueid": "MTK3163:339ANSOTR69H0P9WHHYSLJZA9BCIKZ", "dateTime": 1520113494995}, {"current_trial": 20, "trialdata": {"rt": -1, "trial_type": "single-stim", "stimulus": "<p id=\"stim\">+</p>", "internal_node_id": "0.0-11.0-0.0", "time_elapsed": 117491, "key_press": -1, "type": "FIXATION", "trial_index": 20}, "uniqueid": "MTK3163:339ANSOTR69H0P9WHHYSLJZA9BCIKZ", "dateTime": 1520113496500}, {"current_trial": 21, "trialdata": {"rt": -1, "trial_type": "single-stim", "word": "lily", "stimulus": "<p id=\"stim\">LILY</p>", "conditions": [18, 1200, "v", 18000], "internal_node_id": "0.0-12.0", "trial": 0, "time_elapsed": 118696, "serialpos": 0, "key_press": -1, "wordID": 820, "type": "PRES_VIS", "trial_index": 21}, "uniqueid": "MTK3163:339ANSOTR69H0P9WHHYSLJZA9BCIKZ", "dateTime": 1520113497707}, {"current_trial": 22, "trialdata": {"rt": -1, "trial_type": "single-stim", "word": "leader", "stimulus": "<p id=\"stim\">LEADER</p>", "conditions": [18, 1200, "v", 18000], "internal_node_id": "0.0-13.0", "trial": 0, "time_elapsed": 121073, "serialpos": 1, "key_press": -1, "wordID": 806, "type": "PRES_VIS", "trial_index": 22}, "uniqueid": "MTK3163:339ANSOTR69H0P9WHHYSLJZA9BCIKZ", "dateTime": 1520113500084}, {"current_trial": 23, "trialdata": {"rt": -1, "trial_type": "single-stim", "word": "mop", "stimulus": "<p id=\"stim\">MOP</p>", "conditions": [18, 1200, "v", 18000], "internal_node_id": "0.0-14.0", "trial": 0, "time_elapsed": 123342, "serialpos": 2, "key_press": -1, "wordID": 915, "type": "PRES_VIS", "trial_index": 23}, "uniqueid": "MTK3163:339ANSOTR69H0P9WHHYSLJZA9BCIKZ", "dateTime": 1520113502351}, {"current_trial": 24, "trialdata": {"rt": -1, "trial_type": "single-stim", "word": "robot", "stimulus": "<p id=\"stim\">ROBOT</p>", "conditions": [18, 1200, "v", 18000], "internal_node_id": "0.0-15.0", "trial": 0, "time_elapsed": 125381, "serialpos": 3, "key_press": -1, "wordID": 1199, "type": "PRES_VIS", "trial_index": 24}, "uniqueid": "MTK3163:339ANSOTR69H0P9WHHYSLJZA9BCIKZ", "dateTime": 1520113504391}, {"current_trial": 25, "trialdata": {"rt": -1, "trial_type": "single-stim", "word": "carrot", "stimulus": "<p id=\"stim\">CARROT</p>", "conditions": [18, 1200, "v", 18000], "internal_node_id": "0.0-16.0", "trial": 0, "time_elapsed": 127625, "serialpos": 4, "key_press": -1, "wordID": 248, "type": "PRES_VIS", "trial_index": 25}, "uniqueid": "MTK3163:339ANSOTR69H0P9WHHYSLJZA9BCIKZ", "dateTime": 1520113506634}, {"current_trial": 26, "trialdata": {"rt": -1, "trial_type": "single-stim", "word": "husband", "stimulus": "<p id=\"stim\">HUSBAND</p>", "conditions": [18, 1200, "v", 18000], "internal_node_id": "0.0-17.0", "trial": 0, "time_elapsed": 129652, "serialpos": 5, "key_press": -1, "wordID": 727, "type": "PRES_VIS", "trial_index": 26}, "uniqueid": "MTK3163:339ANSOTR69H0P9WHHYSLJZA9BCIKZ", "dateTime": 1520113508661}, {"current_trial": 27, "trialdata": {"rt": -1, "trial_type": "single-stim", "word": "hatchet", "stimulus": "<p id=\"stim\">HATCHET</p>", "conditions": [18, 1200, "v", 18000], "internal_node_id": "0.0-18.0", "trial": 0, "time_elapsed": 131968, "serialpos": 6, "key_press": -1, "wordID": 690, "type": "PRES_VIS", "trial_index": 27}, "uniqueid": "MTK3163:339ANSOTR69H0P9WHHYSLJZA9BCIKZ", "dateTime": 1520113510977}, {"current_trial": 28, "trialdata": {"rt": -1, "trial_type": "single-stim", "word": "sheriff", "stimulus": "<p id=\"stim\">SHERIFF</p>", "conditions": [18, 1200, "v", 18000], "internal_node_id": "0.0-19.0", "trial": 0, "time_elapsed": 134237, "serialpos": 7, "key_press": -1, "wordID": 1283, "type": "PRES_VIS", "trial_index": 28}, "uniqueid": "MTK3163:339ANSOTR69H0P9WHHYSLJZA9BCIKZ", "dateTime": 1520113513246}, {"current_trial": 29, "trialdata": {"rt": -1, "trial_type": "single-stim", "word": "curtain", "stimulus": "<p id=\"stim\">CURTAIN</p>", "conditions": [18, 1200, "v", 18000], "internal_node_id": "0.0-20.0", "trial": 0, "time_elapsed": 136447, "serialpos": 8, "key_press": -1, "wordID": 426, "type": "PRES_VIS", "trial_index": 29}, "uniqueid": "MTK3163:339ANSOTR69H0P9WHHYSLJZA9BCIKZ", "dateTime": 1520113515456}, {"current_trial": 30, "trialdata": {"rt": -1, "trial_type": "single-stim", "word": "drug", "stimulus": "<p id=\"stim\">DRUG</p>", "conditions": [18, 1200, "v", 18000], "internal_node_id": "0.0-21.0", "trial": 0, "time_elapsed": 138757, "serialpos": 9, "key_press": -1, "wordID": 500, "type": "PRES_VIS", "trial_index": 30}, "uniqueid": "MTK3163:339ANSOTR69H0P9WHHYSLJZA9BCIKZ", "dateTime": 1520113517766}, {"current_trial": 31, "trialdata": {"rt": -1, "trial_type": "single-stim", "word": "outdoors", "stimulus": "<p id=\"stim\">OUTDOORS</p>", "conditions": [18, 1200, "v", 18000], "internal_node_id": "0.0-22.0", "trial": 0, "time_elapsed": 140834, "serialpos": 10, "key_press": -1, "wordID": 986, "type": "PRES_VIS", "trial_index": 31}, "uniqueid": "MTK3163:339ANSOTR69H0P9WHHYSLJZA9BCIKZ", "dateTime": 1520113519844}, {"current_trial": 32, "trialdata": {"rt": -1, "trial_type": "single-stim", "word": "highway", "stimulus": "<p id=\"stim\">HIGHWAY</p>", "conditions": [18, 1200, "v", 18000], "internal_node_id": "0.0-23.0", "trial": 0, "time_elapsed": 143202, "serialpos": 11, "key_press": -1, "wordID": 706, "type": "PRES_VIS", "trial_index": 32}, "uniqueid": "MTK3163:339ANSOTR69H0P9WHHYSLJZA9BCIKZ", "dateTime": 1520113522212}, {"current_trial": 33, "trialdata": {"rt": -1, "trial_type": "single-stim", "word": "dust", "stimulus": "<p id=\"stim\">DUST</p>", "conditions": [18, 1200, "v", 18000], "internal_node_id": "0.0-24.0", "trial": 0, "time_elapsed": 145256, "serialpos": 12, "key_press": -1, "wordID": 507, "type": "PRES_VIS", "trial_index": 33}, "uniqueid": "MTK3163:339ANSOTR69H0P9WHHYSLJZA9BCIKZ", "dateTime": 1520113524266}, {"current_trial": 34, "trialdata": {"rt": -1, "trial_type": "single-stim", "word": "pizza", "stimulus": "<p id=\"stim\">PIZZA</p>", "conditions": [18, 1200, "v", 18000], "internal_node_id": "0.0-25.0", "trial": 0, "time_elapsed": 147287, "serialpos": 13, "key_press": -1, "wordID": 1078, "type": "PRES_VIS", "trial_index": 34}, "uniqueid": "MTK3163:339ANSOTR69H0P9WHHYSLJZA9BCIKZ", "dateTime": 1520113526296}, {"current_trial": 35, "trialdata": {"rt": -1, "trial_type": "single-stim", "word": "snack", "stimulus": "<p id=\"stim\">SNACK</p>", "conditions": [18, 1200, "v", 18000], "internal_node_id": "0.0-26.0", "trial": 0, "time_elapsed": 149325, "serialpos": 14, "key_press": -1, "wordID": 1330, "type": "PRES_VIS", "trial_index": 35}, "uniqueid": "MTK3163:339ANSOTR69H0P9WHHYSLJZA9BCIKZ", "dateTime": 1520113528334}, {"current_trial": 36, "trialdata": {"rt": -1, "trial_type": "single-stim", "word": "cocoon", "stimulus": "<p id=\"stim\">COCOON</p>", "conditions": [18, 1200, "v", 18000], "internal_node_id": "0.0-27.0", "trial": 0, "time_elapsed": 151368, "serialpos": 15, "key_press": -1, "wordID": 338, "type": "PRES_VIS", "trial_index": 36}, "uniqueid": "MTK3163:339ANSOTR69H0P9WHHYSLJZA9BCIKZ", "dateTime": 1520113530378}, {"current_trial": 37, "trialdata": {"rt": -1, "trial_type": "single-stim", "word": "oyster", "stimulus": "<p id=\"stim\">OYSTER</p>", "conditions": [18, 1200, "v", 18000], "internal_node_id": "0.0-28.0", "trial": 0, "time_elapsed": 153570, "serialpos": 16, "key_press": -1, "wordID": 994, "type": "PRES_VIS", "trial_index": 37}, "uniqueid": "MTK3163:339ANSOTR69H0P9WHHYSLJZA9BCIKZ", "dateTime": 1520113532579}, {"current_trial": 38, "trialdata": {"rt": -1, "trial_type": "single-stim", "word": "plaza", "stimulus": "<p id=\"stim\">PLAZA</p>", "conditions": [18, 1200, "v", 18000], "internal_node_id": "0.0-29.0", "trial": 0, "time_elapsed": 155917, "serialpos": 17, "key_press": -1, "wordID": 1087, "type": "PRES_VIS", "trial_index": 38}, "uniqueid": "MTK3163:339ANSOTR69H0P9WHHYSLJZA9BCIKZ", "dateTime": 1520113534926}, {"current_trial": 39, "trialdata": {"rt": -1, "trial_type": "single-stim", "stimulus": "", "internal_node_id": "0.0-30.0-0.0", "time_elapsed": 158211, "key_press": -1, "type": "PRE_RECALL_DELAY", "trial_index": 39}, "uniqueid": "MTK3163:339ANSOTR69H0P9WHHYSLJZA9BCIKZ", "dateTime": 1520113537221}, {"current_trial": 40, "trialdata": {"rt": -1000, "trial_type": "single-audio", "stimulus": "/static/audio/400Hz.wav", "internal_node_id": "0.0-31.0", "time_elapsed": 158722, "key_press": -1, "type": "PRE_RECALL_ALERT", "trial_index": 40}, "uniqueid": "MTK3163:339ANSOTR69H0P9WHHYSLJZA9BCIKZ", "dateTime": 1520113537731}, {"current_trial": 41, "trialdata": {"rt": [3953, 5271, 6650, 7534, 9019, 11137, 15596, 19951, 26004, 44195, 46653, 55764, 56360], "recwords": ["lily", "leader", "mop", "carrot", "husband", "outdoors", "oyster", "plaza", "sheriff", "cliff", "mountain", "", ""], "key_times": [3052, 3337, 3510, 3659, 3953, 4570, 4630, 4697, 4813, 4940, 5015, 5271, 5952, 6235, 6383, 6650, 6830, 6922, 7094, 7194, 7270, 7403, 7534, 8200, 8307, 8376, 8539, 8608, 8703, 8820, 9019, 10086, 10280, 10358, 10538, 10613, 10731, 10796, 10907, 11137, 14796, 14904, 15082, 15214, 15347, 15441, 15596, 18858, 19003, 19092, 19268, 19408, 19951, 25250, 25373, 25458, 25539, 25634, 25739, 25846, 26004, 43579, 43666, 43854, 43929, 44059, 44195, 45625, 45840, 46042, 46186, 46264, 46355, 46415, 46540, 46653, 55764, 56360], "trial_type": "free-recall", "conditions": [18, 1200, "v", 18000], "internal_node_id": "0.0-32.0-0.0", "key_presses": [76, 73, 76, 89, 13, 76, 69, 65, 68, 69, 82, 13, 77, 79, 80, 13, 67, 65, 82, 82, 79, 84, 13, 72, 85, 83, 66, 65, 78, 68, 13, 79, 85, 84, 68, 79, 79, 82, 83, 13, 79, 89, 83, 84, 69, 82, 13, 80, 76, 65, 90, 65, 13, 83, 72, 69, 82, 73, 70, 70, 13, 67, 76, 73, 70, 70, 13, 77, 79, 85, 78, 84, 65, 73, 78, 13, 32, 32], "trial": 0, "time_elapsed": 218732, "type": "FREE_RECALL", "trial_index": 41}, "uniqueid": "MTK3163:339ANSOTR69H0P9WHHYSLJZA9BCIKZ", "dateTime": 1520113597757}, {"current_trial": 42, "trialdata": {"rt": 1905, "trial_type": "text", "internal_node_id": "0.0-33.0", "time_elapsed": 222658, "key_press": 13, "type": "INSTRUCTIONS", "trial_index": 42}, "uniqueid": "MTK3163:339ANSOTR69H0P9WHHYSLJZA9BCIKZ", "dateTime": 1520113601667}, {"current_trial": 43, "trialdata": {"rt": [3242, 6939, 8613, 10611, 12419, 14035, 16398], "trial_type": "math-distractor", "key_times": [3236, 3238, 3242, 6197, 6634, 6939, 8069, 8482, 8613, 10373, 10470, 10611, 11918, 12307, 12419, 13802, 13925, 14035, 15920, 16313, 16398, 17932], "responses": ["14", "18", "10", "21", "10", "14", "19"], "num2": [6, 5, 1, 4, 2, 9, 3, 7], "num3": [6, 9, 1, 9, 7, 3, 8, 8], "conditions": [18, 1200, "v", 18000], "internal_node_id": "0.0-34.0", "key_presses": [49, 52, 13, 49, 56, 13, 49, 48, 13, 50, 49, 13, 49, 48, 13, 49, 52, 13, 49, 57, 13, 49], "trial": 1, "time_elapsed": 242666, "type": "DISTRACTOR", "trial_index": 43, "num1": [2, 4, 8, 8, 1, 2, 8, 2]}, "uniqueid": "MTK3163:339ANSOTR69H0P9WHHYSLJZA9BCIKZ", "dateTime": 1520113621676}, {"current_trial": 44, "trialdata": {"rt": -1, "trial_type": "single-stim", "stimulus": "<p id=\"stim\">10</p>", "internal_node_id": "0.0-35.0-0.0", "time_elapsed": 245671, "key_press": -1, "trial_index": 44}, "uniqueid": "MTK3163:339ANSOTR69H0P9WHHYSLJZA9BCIKZ", "dateTime": 1520113624681}, {"current_trial": 45, "trialdata": {"rt": -1, "trial_type": "single-stim", "stimulus": "<p id=\"stim\">9</p>", "internal_node_id": "0.0-35.0-1.0", "time_elapsed": 246674, "key_press": -1, "trial_index": 45}, "uniqueid": "MTK3163:339ANSOTR69H0P9WHHYSLJZA9BCIKZ", "dateTime": 1520113625684}, {"current_trial": 46, "trialdata": {"rt": -1, "trial_type": "single-stim", "stimulus": "<p id=\"stim\">8</p>", "internal_node_id": "0.0-35.0-2.0", "time_elapsed": 247676, "key_press": -1, "trial_index": 46}, "uniqueid": "MTK3163:339ANSOTR69H0P9WHHYSLJZA9BCIKZ", "dateTime": 1520113626686}, {"current_trial": 47, "trialdata": {"rt": -1, "trial_type": "single-stim", "stimulus": "<p id=\"stim\">7</p>", "internal_node_id": "0.0-35.0-3.0", "time_elapsed": 248680, "key_press": -1, "trial_index": 47}, "uniqueid": "MTK3163:339ANSOTR69H0P9WHHYSLJZA9BCIKZ", "dateTime": 1520113627690}, {"current_trial": 48, "trialdata": {"rt": -1, "trial_type": "single-stim", "stimulus": "<p id=\"stim\">6</p>", "internal_node_id": "0.0-35.0-4.0", "time_elapsed": 249684, "key_press": -1, "trial_index": 48}, "uniqueid": "MTK3163:339ANSOTR69H0P9WHHYSLJZA9BCIKZ", "dateTime": 1520113628693}, {"current_trial": 49, "trialdata": {"rt": -1, "trial_type": "single-stim", "stimulus": "<p id=\"stim\">5</p>", "internal_node_id": "0.0-35.0-5.0", "time_elapsed": 250687, "key_press": -1, "trial_index": 49}, "uniqueid": "MTK3163:339ANSOTR69H0P9WHHYSLJZA9BCIKZ", "dateTime": 1520113629698}, {"current_trial": 50, "trialdata": {"rt": -1, "trial_type": "single-stim", "stimulus": "<p id=\"stim\">4</p>", "internal_node_id": "0.0-35.0-6.0", "time_elapsed": 251691, "key_press": -1, "trial_index": 50}, "uniqueid": "MTK3163:339ANSOTR69H0P9WHHYSLJZA9BCIKZ", "dateTime": 1520113630701}, {"current_trial": 51, "trialdata": {"rt": -1, "trial_type": "single-stim", "stimulus": "<p id=\"stim\">3</p>", "internal_node_id": "0.0-35.0-7.0", "time_elapsed": 252696, "key_press": -1, "trial_index": 51}, "uniqueid": "MTK3163:339ANSOTR69H0P9WHHYSLJZA9BCIKZ", "dateTime": 1520113631706}, {"current_trial": 52, "trialdata": {"rt": -1, "trial_type": "single-stim", "stimulus": "<p id=\"stim\">2</p>", "internal_node_id": "0.0-35.0-8.0", "time_elapsed": 253700, "key_press": -1, "trial_index": 52}, "uniqueid": "MTK3163:339ANSOTR69H0P9WHHYSLJZA9BCIKZ", "dateTime": 1520113632709}, {"current_trial": 53, "trialdata": {"rt": -1, "trial_type": "single-stim", "stimulus": "<p id=\"stim\">1</p>", "internal_node_id": "0.0-35.0-9.0", "time_elapsed": 254703, "key_press": -1, "trial_index": 53}, "uniqueid": "MTK3163:339ANSOTR69H0P9WHHYSLJZA9BCIKZ", "dateTime": 1520113633713}, {"current_trial": 54, "trialdata": {"rt": -1, "trial_type": "single-stim", "stimulus": "<p id=\"stim\">+</p>", "internal_node_id": "0.0-36.0-0.0", "time_elapsed": 256207, "key_press": -1, "type": "FIXATION", "trial_index": 54}, "uniqueid": "MTK3163:339ANSOTR69H0P9WHHYSLJZA9BCIKZ", "dateTime": 1520113635217}, {"current_trial": 55, "trialdata": {"rt": -1, "trial_type": "single-stim", "word": "globe", "stimulus": "<p id=\"stim\">GLOBE</p>", "conditions": [18, 1200, "v", 18000], "internal_node_id": "0.0-37.0", "trial": 1, "time_elapsed": 257411, "serialpos": 0, "key_press": -1, "wordID": 640, "type": "PRES_VIS", "trial_index": 55}, "uniqueid": "MTK3163:339ANSOTR69H0P9WHHYSLJZA9BCIKZ", "dateTime": 1520113636420}, {"current_trial": 56, "trialdata": {"rt": -1, "trial_type": "single-stim", "word": "baby", "stimulus": "<p id=\"stim\">BABY</p>", "conditions": [18, 1200, "v", 18000], "internal_node_id": "0.0-38.0", "trial": 1, "time_elapsed": 259684, "serialpos": 1, "key_press": -1, "wordID": 63, "type": "PRES_VIS", "trial_index": 56}, "uniqueid": "MTK3163:339ANSOTR69H0P9WHHYSLJZA9BCIKZ", "dateTime": 1520113638693}, {"current_trial": 57, "trialdata": {"rt": -1, "trial_type": "single-stim", "word": "dashboard", "stimulus": "<p id=\"stim\">DASHBOARD</p>", "conditions": [18, 1200, "v", 18000], "internal_node_id": "0.0-39.0", "trial": 1, "time_elapsed": 261787, "serialpos": 2, "key_press": -1, "wordID": 440, "type": "PRES_VIS", "trial_index": 57}, "uniqueid": "MTK3163:339ANSOTR69H0P9WHHYSLJZA9BCIKZ", "dateTime": 1520113640797}, {"current_trial": 58, "trialdata": {"rt": -1, "trial_type": "single-stim", "word": "yarn", "stimulus": "<p id=\"stim\">YARN</p>", "conditions": [18, 1200, "v", 18000], "internal_node_id": "0.0-40.0", "trial": 1, "time_elapsed": 264103, "serialpos": 3, "key_press": -1, "wordID": 1630, "type": "PRES_VIS", "trial_index": 58}, "uniqueid": "MTK3163:339ANSOTR69H0P9WHHYSLJZA9BCIKZ", "dateTime": 1520113643114}, {"current_trial": 59, "trialdata": {"rt": -1, "trial_type": "single-stim", "word": "custard", "stimulus": "<p id=\"stim\">CUSTARD</p>", "conditions": [18, 1200, "v", 18000], "internal_node_id": "0.0-41.0", "trial": 1, "time_elapsed": 266226, "serialpos": 4, "key_press": -1, "wordID": 428, "type": "PRES_VIS", "trial_index": 59}, "uniqueid": "MTK3163:339ANSOTR69H0P9WHHYSLJZA9BCIKZ", "dateTime": 1520113645235}, {"current_trial": 60, "trialdata": {"rt": -1, "trial_type": "single-stim", "word": "quarter", "stimulus": "<p id=\"stim\">QUARTER</p>", "conditions": [18, 1200, "v", 18000], "internal_node_id": "0.0-42.0", "trial": 1, "time_elapsed": 268350, "serialpos": 5, "key_press": -1, "wordID": 1147, "type": "PRES_VIS", "trial_index": 60}, "uniqueid": "MTK3163:339ANSOTR69H0P9WHHYSLJZA9BCIKZ", "dateTime": 1520113647359}, {"current_trial": 61, "trialdata": {"rt": -1, "trial_type": "single-stim", "word": "perch", "stimulus": "<p id=\"stim\">PERCH</p>", "conditions": [18, 1200, "v", 18000], "internal_node_id": "0.0-43.0", "trial": 1, "time_elapsed": 270440, "serialpos": 6, "key_press": -1, "wordID": 1047, "type": "PRES_VIS", "trial_index": 61}, "uniqueid": "MTK3163:339ANSOTR69H0P9WHHYSLJZA9BCIKZ", "dateTime": 1520113649450}, {"current_trial": 62, "trialdata": {"rt": -1, "trial_type": "single-stim", "word": "expert", "stimulus": "<p id=\"stim\">EXPERT</p>", "conditions": [18, 1200, "v", 18000], "internal_node_id": "0.0-44.0", "trial": 1, "time_elapsed": 272625, "serialpos": 7, "key_press": -1, "wordID": 542, "type": "PRES_VIS", "trial_index": 62}, "uniqueid": "MTK3163:339ANSOTR69H0P9WHHYSLJZA9BCIKZ", "dateTime": 1520113651634}, {"current_trial": 63, "trialdata": {"rt": -1, "trial_type": "single-stim", "word": "waitress", "stimulus": "<p id=\"stim\">WAITRESS</p>", "conditions": [18, 1200, "v", 18000], "internal_node_id": "0.0-45.0", "trial": 1, "time_elapsed": 274668, "serialpos": 8, "key_press": -1, "wordID": 1580, "type": "PRES_VIS", "trial_index": 63}, "uniqueid": "MTK3163:339ANSOTR69H0P9WHHYSLJZA9BCIKZ", "dateTime": 1520113653678}, {"current_trial": 64, "trialdata": {"rt": -1, "trial_type": "single-stim", "word": "ozone", "stimulus": "<p id=\"stim\">OZONE</p>", "conditions": [18, 1200, "v", 18000], "internal_node_id": "0.0-46.0", "trial": 1, "time_elapsed": 276874, "serialpos": 9, "key_press": -1, "wordID": 995, "type": "PRES_VIS", "trial_index": 64}, "uniqueid": "MTK3163:339ANSOTR69H0P9WHHYSLJZA9BCIKZ", "dateTime": 1520113655884}, {"current_trial": 65, "trialdata": {"rt": -1, "trial_type": "single-stim", "word": "finger", "stimulus": "<p id=\"stim\">FINGER</p>", "conditions": [18, 1200, "v", 18000], "internal_node_id": "0.0-47.0", "trial": 1, "time_elapsed": 279184, "serialpos": 10, "key_press": -1, "wordID": 566, "type": "PRES_VIS", "trial_index": 65}, "uniqueid": "MTK3163:339ANSOTR69H0P9WHHYSLJZA9BCIKZ", "dateTime": 1520113658194}, {"current_trial": 66, "trialdata": {"rt": -1, "trial_type": "single-stim", "word": "hostess", "stimulus": "<p id=\"stim\">HOSTESS</p>", "conditions": [18, 1200, "v", 18000], "internal_node_id": "0.0-48.0", "trial": 1, "time_elapsed": 281553, "serialpos": 11, "key_press": -1, "wordID": 722, "type": "PRES_VIS", "trial_index": 66}, "uniqueid": "MTK3163:339ANSOTR69H0P9WHHYSLJZA9BCIKZ", "dateTime": 1520113660562}, {"current_trial": 67, "trialdata": {"rt": -1, "trial_type": "single-stim", "word": "lava", "stimulus": "<p id=\"stim\">LAVA</p>", "conditions": [18, 1200, "v", 18000], "internal_node_id": "0.0-49.0", "trial": 1, "time_elapsed": 283720, "serialpos": 12, "key_press": -1, "wordID": 803, "type": "PRES_VIS", "trial_index": 67}, "uniqueid": "MTK3163:339ANSOTR69H0P9WHHYSLJZA9BCIKZ", "dateTime": 1520113662730}, {"current_trial": 68, "trialdata": {"rt": -1, "trial_type": "single-stim", "word": "dolphin", "stimulus": "<p id=\"stim\">DOLPHIN</p>", "conditions": [18, 1200, "v", 18000], "internal_node_id": "0.0-50.0", "trial": 1, "time_elapsed": 286034, "serialpos": 13, "key_press": -1, "wordID": 482, "type": "PRES_VIS", "trial_index": 68}, "uniqueid": "MTK3163:339ANSOTR69H0P9WHHYSLJZA9BCIKZ", "dateTime": 1520113665057}, {"current_trial": 69, "trialdata": {"rt": -1, "trial_type": "single-stim", "word": "viking", "stimulus": "<p id=\"stim\">VIKING</p>", "conditions": [18, 1200, "v", 18000], "internal_node_id": "0.0-51.0", "trial": 1, "time_elapsed": 288217, "serialpos": 14, "key_press": -1, "wordID": 1564, "type": "PRES_VIS", "trial_index": 69}, "uniqueid": "MTK3163:339ANSOTR69H0P9WHHYSLJZA9BCIKZ", "dateTime": 1520113667227}, {"current_trial": 70, "trialdata": {"rt": -1, "trial_type": "single-stim", "word": "bathtub", "stimulus": "<p id=\"stim\">BATHTUB</p>", "conditions": [18, 1200, "v", 18000], "internal_node_id": "0.0-52.0", "trial": 1, "time_elapsed": 290266, "serialpos": 15, "key_press": -1, "wordID": 99, "type": "PRES_VIS", "trial_index": 70}, "uniqueid": "MTK3163:339ANSOTR69H0P9WHHYSLJZA9BCIKZ", "dateTime": 1520113669275}, {"current_trial": 71, "trialdata": {"rt": -1, "trial_type": "single-stim", "word": "gravel", "stimulus": "<p id=\"stim\">GRAVEL</p>", "conditions": [18, 1200, "v", 18000], "internal_node_id": "0.0-53.0", "trial": 1, "time_elapsed": 292297, "serialpos": 16, "key_press": -1, "wordID": 658, "type": "PRES_VIS", "trial_index": 71}, "uniqueid": "MTK3163:339ANSOTR69H0P9WHHYSLJZA9BCIKZ", "dateTime": 1520113671306}, {"current_trial": 72, "trialdata": {"rt": -1, "trial_type": "single-stim", "word": "flag", "stimulus": "<p id=\"stim\">FLAG</p>", "conditions": [18, 1200, "v", 18000], "internal_node_id": "0.0-54.0", "trial": 1, "time_elapsed": 294528, "serialpos": 17, "key_press": -1, "wordID": 572, "type": "PRES_VIS", "trial_index": 72}, "uniqueid": "MTK3163:339ANSOTR69H0P9WHHYSLJZA9BCIKZ", "dateTime": 1520113673537}, {"current_trial": 73, "trialdata": {"rt": -1, "trial_type": "single-stim", "stimulus": "", "internal_node_id": "0.0-55.0-0.0", "time_elapsed": 296738, "key_press": -1, "type": "PRE_RECALL_DELAY", "trial_index": 73}, "uniqueid": "MTK3163:339ANSOTR69H0P9WHHYSLJZA9BCIKZ", "dateTime": 1520113675747}, {"current_trial": 74, "trialdata": {"rt": -1000, "trial_type": "single-audio", "stimulus": "/static/audio/400Hz.wav", "internal_node_id": "0.0-56.0", "time_elapsed": 297248, "key_press": -1, "type": "PRE_RECALL_ALERT", "trial_index": 74}, "uniqueid": "MTK3163:339ANSOTR69H0P9WHHYSLJZA9BCIKZ", "dateTime": 1520113676258}, {"current_trial": 75, "trialdata": {"rt": [3953, 5387, 7825, 9319, 10501, 19215, 20347, 21452, 24209, 31176, 37095, 43509, 44748, 48718, 51041, 52725, 55318, 57703], "recwords": ["perch", "custard", "waitress", "finger", "flag", "dashboard", "globe", "baby", "child", "yarn", "quarter", "ozone", "expert", "hostess", "lava", "restaurant", "viking", "tub"], "key_times": [3195, 3287, 3352, 3525, 3614, 3953, 4412, 4573, 4646, 4812, 4910, 5063, 5222, 5387, 5645, 5752, 5924, 6023, 6166, 6602, 6849, 6954, 7537, 7680, 7825, 8695, 8822, 8958, 9017, 9124, 9242, 9319, 9843, 9979, 10075, 10177, 10501, 18306, 18429, 18480, 18557, 18690, 18766, 18843, 18943, 19079, 19215, 19819, 19904, 20084, 20140, 20226, 20347, 20537, 20609, 20696, 21358, 21452, 21810, 22207, 22375, 22468, 22866, 22999, 23117, 23675, 23779, 23950, 24097, 24209, 30661, 30877, 30968, 31037, 31176, 34628, 34789, 35272, 35430, 35546, 36524, 36613, 36667, 36788, 36896, 36993, 37095, 42922, 42971, 43082, 43255, 43344, 43509, 43646, 43906, 44049, 44156, 44237, 44434, 44748, 47926, 48033, 48100, 48223, 48320, 48518, 48637, 48718, 49965, 50007, 50149, 50232, 50802, 50903, 51041, 51497, 51573, 51707, 51798, 51910, 52027, 52100, 52294, 52429, 52525, 52725, 54600, 54680, 54840, 54999, 55151, 55255, 55318, 57329, 57447, 57572, 57703, 59486, 59591, 59708, 59755, 59832], "trial_type": "free-recall", "conditions": [18, 1200, "v", 18000], "internal_node_id": "0.0-57.0-0.0", "key_presses": [80, 69, 82, 67, 72, 13, 67, 85, 83, 84, 65, 82, 68, 13, 87, 65, 73, 84, 69, 8, 82, 69, 83, 83, 13, 70, 73, 78, 71, 69, 82, 13, 70, 76, 65, 71, 13, 68, 65, 83, 72, 66, 79, 65, 82, 68, 13, 71, 76, 79, 66, 69, 13, 66, 65, 66, 89, 13, 67, 73, 76, 68, 8, 8, 8, 72, 73, 76, 68, 13, 89, 65, 82, 78, 13, 87, 89, 8, 8, 81, 85, 65, 82, 84, 69, 82, 13, 79, 90, 79, 78, 69, 13, 69, 88, 80, 69, 82, 84, 13, 72, 79, 83, 84, 69, 83, 83, 13, 76, 65, 86, 69, 8, 65, 13, 82, 69, 83, 84, 65, 85, 82, 65, 78, 84, 13, 86, 73, 75, 73, 78, 71, 13, 84, 85, 66, 13, 82, 79, 67, 75, 67], "trial": 1, "time_elapsed": 357259, "type": "FREE_RECALL", "trial_index": 75}, "uniqueid": "MTK3163:339ANSOTR69H0P9WHHYSLJZA9BCIKZ", "dateTime": 1520113736281}, {"current_trial": 76, "trialdata": {"rt": 5649, "trial_type": "text", "internal_node_id": "0.0-58.0", "time_elapsed": 364925, "key_press": 13, "type": "INSTRUCTIONS", "trial_index": 76}, "uniqueid": "MTK3163:339ANSOTR69H0P9WHHYSLJZA9BCIKZ", "dateTime": 1520113743934}, {"current_trial": 77, "trialdata": {"rt": [5213, 6693, 8184, 9781, 11119], "trial_type": "math-distractor", "key_times": [4967, 5106, 5213, 6412, 6631, 6693, 7801, 8055, 8184, 9431, 9717, 9781, 10889, 11045, 11119], "responses": ["11", "15", "14", "17", "15"], "num2": [6, 9, 3, 4, 4, 8], "num3": [2, 4, 2, 6, 5, 2], "conditions": [12, 800, "v", 12000], "internal_node_id": "0.0-59.0", "key_presses": [49, 49, 13, 49, 53, 13, 49, 52, 13, 49, 55, 13, 49, 53, 13], "trial": 2, "time_elapsed": 377935, "type": "DISTRACTOR", "trial_index": 77, "num1": [3, 2, 9, 7, 6, 7]}, "uniqueid": "MTK3163:339ANSOTR69H0P9WHHYSLJZA9BCIKZ", "dateTime": 1520113756944}, {"current_trial": 78, "trialdata": {"rt": -1, "trial_type": "single-stim", "stimulus": "<p id=\"stim\">10</p>", "internal_node_id": "0.0-60.0-0.0", "time_elapsed": 380940, "key_press": -1, "trial_index": 78}, "uniqueid": "MTK3163:339ANSOTR69H0P9WHHYSLJZA9BCIKZ", "dateTime": 1520113759949}, {"current_trial": 79, "trialdata": {"rt": -1, "trial_type": "single-stim", "stimulus": "<p id=\"stim\">9</p>", "internal_node_id": "0.0-60.0-1.0", "time_elapsed": 381944, "key_press": -1, "trial_index": 79}, "uniqueid": "MTK3163:339ANSOTR69H0P9WHHYSLJZA9BCIKZ", "dateTime": 1520113760953}, {"current_trial": 80, "trialdata": {"rt": -1, "trial_type": "single-stim", "stimulus": "<p id=\"stim\">8</p>", "internal_node_id": "0.0-60.0-2.0", "time_elapsed": 382947, "key_press": -1, "trial_index": 80}, "uniqueid": "MTK3163:339ANSOTR69H0P9WHHYSLJZA9BCIKZ", "dateTime": 1520113761956}, {"current_trial": 81, "trialdata": {"rt": -1, "trial_type": "single-stim", "stimulus": "<p id=\"stim\">7</p>", "internal_node_id": "0.0-60.0-3.0", "time_elapsed": 383951, "key_press": -1, "trial_index": 81}, "uniqueid": "MTK3163:339ANSOTR69H0P9WHHYSLJZA9BCIKZ", "dateTime": 1520113762960}, {"current_trial": 82, "trialdata": {"rt": -1, "trial_type": "single-stim", "stimulus": "<p id=\"stim\">6</p>", "internal_node_id": "0.0-60.0-4.0", "time_elapsed": 384954, "key_press": -1, "trial_index": 82}, "uniqueid": "MTK3163:339ANSOTR69H0P9WHHYSLJZA9BCIKZ", "dateTime": 1520113763964}, {"current_trial": 83, "trialdata": {"rt": -1, "trial_type": "single-stim", "stimulus": "<p id=\"stim\">5</p>", "internal_node_id": "0.0-60.0-5.0", "time_elapsed": 385957, "key_press": -1, "trial_index": 83}, "uniqueid": "MTK3163:339ANSOTR69H0P9WHHYSLJZA9BCIKZ", "dateTime": 1520113764967}, {"current_trial": 84, "trialdata": {"rt": -1, "trial_type": "single-stim", "stimulus": "<p id=\"stim\">4</p>", "internal_node_id": "0.0-60.0-6.0", "time_elapsed": 386961, "key_press": -1, "trial_index": 84}, "uniqueid": "MTK3163:339ANSOTR69H0P9WHHYSLJZA9BCIKZ", "dateTime": 1520113765971}, {"current_trial": 85, "trialdata": {"rt": -1, "trial_type": "single-stim", "stimulus": "<p id=\"stim\">3</p>", "internal_node_id": "0.0-60.0-7.0", "time_elapsed": 387966, "key_press": -1, "trial_index": 85}, "uniqueid": "MTK3163:339ANSOTR69H0P9WHHYSLJZA9BCIKZ", "dateTime": 1520113766975}, {"current_trial": 86, "trialdata": {"rt": -1, "trial_type": "single-stim", "stimulus": "<p id=\"stim\">2</p>", "internal_node_id": "0.0-60.0-8.0", "time_elapsed": 388968, "key_press": -1, "trial_index": 86}, "uniqueid": "MTK3163:339ANSOTR69H0P9WHHYSLJZA9BCIKZ", "dateTime": 1520113767978}, {"current_trial": 87, "trialdata": {"rt": -1, "trial_type": "single-stim", "stimulus": "<p id=\"stim\">1</p>", "internal_node_id": "0.0-60.0-9.0", "time_elapsed": 389972, "key_press": -1, "trial_index": 87}, "uniqueid": "MTK3163:339ANSOTR69H0P9WHHYSLJZA9BCIKZ", "dateTime": 1520113768982}, {"current_trial": 88, "trialdata": {"rt": -1, "trial_type": "single-stim", "stimulus": "<p id=\"stim\">+</p>", "internal_node_id": "0.0-61.0-0.0", "time_elapsed": 391476, "key_press": -1, "type": "FIXATION", "trial_index": 88}, "uniqueid": "MTK3163:339ANSOTR69H0P9WHHYSLJZA9BCIKZ", "dateTime": 1520113770485}, {"current_trial": 89, "trialdata": {"rt": -1, "trial_type": "single-stim", "word": "rooster", "stimulus": "<p id=\"stim\">ROOSTER</p>", "conditions": [12, 800, "v", 12000], "internal_node_id": "0.0-62.0", "trial": 2, "time_elapsed": 392279, "serialpos": 0, "key_press": -1, "wordID": 1208, "type": "PRES_VIS", "trial_index": 89}, "uniqueid": "MTK3163:339ANSOTR69H0P9WHHYSLJZA9BCIKZ", "dateTime": 1520113771289}, {"current_trial": 90, "trialdata": {"rt": -1, "trial_type": "single-stim", "word": "flower", "stimulus": "<p id=\"stim\">FLOWER</p>", "conditions": [12, 800, "v", 12000], "internal_node_id": "0.0-63.0", "trial": 2, "time_elapsed": 394098, "serialpos": 1, "key_press": -1, "wordID": 583, "type": "PRES_VIS", "trial_index": 90}, "uniqueid": "MTK3163:339ANSOTR69H0P9WHHYSLJZA9BCIKZ", "dateTime": 1520113773107}, {"current_trial": 91, "trialdata": {"rt": -1, "trial_type": "single-stim", "word": "preacher", "stimulus": "<p id=\"stim\">PREACHER</p>", "conditions": [12, 800, "v", 12000], "internal_node_id": "0.0-64.0", "trial": 2, "time_elapsed": 395927, "serialpos": 2, "key_press": -1, "wordID": 1118, "type": "PRES_VIS", "trial_index": 91}, "uniqueid": "MTK3163:339ANSOTR69H0P9WHHYSLJZA9BCIKZ", "dateTime": 1520113774936}, {"current_trial": 92, "trialdata": {"rt": -1, "trial_type": "single-stim", "word": "seagull", "stimulus": "<p id=\"stim\">SEAGULL</p>", "conditions": [12, 800, "v", 12000], "internal_node_id": "0.0-65.0", "trial": 2, "time_elapsed": 397864, "serialpos": 3, "key_press": -1, "wordID": 1260, "type": "PRES_VIS", "trial_index": 92}, "uniqueid": "MTK3163:339ANSOTR69H0P9WHHYSLJZA9BCIKZ", "dateTime": 1520113776873}, {"current_trial": 93, "trialdata": {"rt": -1, "trial_type": "single-stim", "word": "donkey", "stimulus": "<p id=\"stim\">DONKEY</p>", "conditions": [12, 800, "v", 12000], "internal_node_id": "0.0-66.0", "trial": 2, "time_elapsed": 399526, "serialpos": 4, "key_press": -1, "wordID": 483, "type": "PRES_VIS", "trial_index": 93}, "uniqueid": "MTK3163:339ANSOTR69H0P9WHHYSLJZA9BCIKZ", "dateTime": 1520113778535}, {"current_trial": 94, "trialdata": {"rt": -1, "trial_type": "single-stim", "word": "snake", "stimulus": "<p id=\"stim\">SNAKE</p>", "conditions": [12, 800, "v", 12000], "internal_node_id": "0.0-67.0", "trial": 2, "time_elapsed": 401405, "serialpos": 5, "key_press": -1, "wordID": 1332, "type": "PRES_VIS", "trial_index": 94}, "uniqueid": "MTK3163:339ANSOTR69H0P9WHHYSLJZA9BCIKZ", "dateTime": 1520113780415}, {"current_trial": 95, "trialdata": {"rt": -1, "trial_type": "single-stim", "word": "branch", "stimulus": "<p id=\"stim\">BRANCH</p>", "conditions": [12, 800, "v", 12000], "internal_node_id": "0.0-68.0", "trial": 2, "time_elapsed": 403239, "serialpos": 6, "key_press": -1, "wordID": 167, "type": "PRES_VIS", "trial_index": 95}, "uniqueid": "MTK3163:339ANSOTR69H0P9WHHYSLJZA9BCIKZ", "dateTime": 1520113782248}, {"current_trial": 96, "trialdata": {"rt": -1, "trial_type": "single-stim", "word": "glove", "stimulus": "<p id=\"stim\">GLOVE</p>", "conditions": [12, 800, "v", 12000], "internal_node_id": "0.0-69.0", "trial": 2, "time_elapsed": 405168, "serialpos": 7, "key_press": -1, "wordID": 641, "type": "PRES_VIS", "trial_index": 96}, "uniqueid": "MTK3163:339ANSOTR69H0P9WHHYSLJZA9BCIKZ", "dateTime": 1520113784177}, {"current_trial": 97, "trialdata": {"rt": -1, "trial_type": "single-stim", "word": "fungus", "stimulus": "<p id=\"stim\">FUNGUS</p>", "conditions": [12, 800, "v", 12000], "internal_node_id": "0.0-70.0", "trial": 2, "time_elapsed": 407061, "serialpos": 8, "key_press": -1, "wordID": 613, "type": "PRES_VIS", "trial_index": 97}, "uniqueid": "MTK3163:339ANSOTR69H0P9WHHYSLJZA9BCIKZ", "dateTime": 1520113786070}, {"current_trial": 98, "trialdata": {"rt": -1, "trial_type": "single-stim", "word": "shrub", "stimulus": "<p id=\"stim\">SHRUB</p>", "conditions": [12, 800, "v", 12000], "internal_node_id": "0.0-71.0", "trial": 2, "time_elapsed": 408967, "serialpos": 9, "key_press": -1, "wordID": 1298, "type": "PRES_VIS", "trial_index": 98}, "uniqueid": "MTK3163:339ANSOTR69H0P9WHHYSLJZA9BCIKZ", "dateTime": 1520113787976}, {"current_trial": 99, "trialdata": {"rt": -1, "trial_type": "single-stim", "word": "brook", "stimulus": "<p id=\"stim\">BROOK</p>", "conditions": [12, 800, "v", 12000], "internal_node_id": "0.0-72.0", "trial": 2, "time_elapsed": 410669, "serialpos": 10, "key_press": -1, "wordID": 176, "type": "PRES_VIS", "trial_index": 99}, "uniqueid": "MTK3163:339ANSOTR69H0P9WHHYSLJZA9BCIKZ", "dateTime": 1520113789679}, {"current_trial": 100, "trialdata": {"rt": -1, "trial_type": "single-stim", "word": "river", "stimulus": "<p id=\"stim\">RIVER</p>", "conditions": [12, 800, "v", 12000], "internal_node_id": "0.0-73.0", "trial": 2, "time_elapsed": 412298, "serialpos": 11, "key_press": -1, "wordID": 1193, "type": "PRES_VIS", "trial_index": 100}, "uniqueid": "MTK3163:339ANSOTR69H0P9WHHYSLJZA9BCIKZ", "dateTime": 1520113791307}, {"current_trial": 101, "trialdata": {"rt": -1, "trial_type": "single-stim", "stimulus": "", "internal_node_id": "0.0-74.0-0.0", "time_elapsed": 414483, "key_press": -1, "type": "PRE_RECALL_DELAY", "trial_index": 101}, "uniqueid": "MTK3163:339ANSOTR69H0P9WHHYSLJZA9BCIKZ", "dateTime": 1520113793493}, {"current_trial": 102, "trialdata": {"rt": -1000, "trial_type": "single-audio", "stimulus": "/static/audio/400Hz.wav", "internal_node_id": "0.0-75.0", "time_elapsed": 414988, "key_press": -1, "type": "PRE_RECALL_ALERT", "trial_index": 102}, "uniqueid": "MTK3163:339ANSOTR69H0P9WHHYSLJZA9BCIKZ", "dateTime": 1520113793997}, {"current_trial": 103, "trialdata": {"rt": [5465, 6722, 10086, 13612, 17719, 22440, 23922, 26327, 29281, 30571, 33106, 34296, 37062, 39821], "recwords": ["river", "chruch", "flower", "fungus", "rooster", "flower", "preacher", "seagull", "snake", "donkey", "glove", "hat", "shrub", "river"], "key_times": [4819, 4937, 5054, 5230, 5331, 5465, 5937, 6119, 6229, 6308, 6431, 6488, 6722, 8542, 8606, 8766, 8852, 8915, 9058, 10086, 12834, 12929, 13112, 13222, 13324, 13471, 13612, 16932, 17095, 17215, 17295, 17412, 17525, 17613, 17719, 21510, 21584, 21742, 21781, 21842, 21980, 22440, 23357, 23411, 23469, 23530, 23620, 23686, 23772, 23863, 23922, 25087, 25227, 25323, 25408, 25856, 26024, 26139, 26327, 28792, 28934, 28972, 29104, 29183, 29281, 29776, 29906, 30096, 30263, 30343, 30464, 30571, 32616, 32691, 32861, 32922, 33016, 33106, 34041, 34142, 34226, 34296, 36497, 36607, 36702, 36841, 36954, 37062, 39340, 39469, 39536, 39654, 39756, 39821], "trial_type": "free-recall", "conditions": [12, 800, "v", 12000], "internal_node_id": "0.0-76.0-0.0", "key_presses": [82, 73, 86, 69, 82, 13, 67, 72, 82, 85, 67, 72, 13, 70, 76, 79, 87, 69, 82, 13, 70, 85, 78, 71, 85, 83, 13, 82, 79, 79, 83, 84, 69, 82, 13, 70, 76, 79, 87, 69, 82, 13, 80, 82, 69, 65, 67, 72, 69, 82, 13, 83, 69, 65, 71, 85, 76, 76, 13, 83, 78, 65, 75, 69, 13, 68, 79, 78, 75, 69, 89, 13, 71, 76, 79, 86, 69, 13, 72, 65, 84, 13, 83, 72, 82, 85, 66, 13, 82, 73, 86, 69, 82, 13], "trial": 2, "time_elapsed": 474997, "type": "FREE_RECALL", "trial_index": 103}, "uniqueid": "MTK3163:339ANSOTR69H0P9WHHYSLJZA9BCIKZ", "dateTime": 1520113854019}, {"current_trial": 104, "trialdata": {"rt": 2511, "trial_type": "text", "internal_node_id": "0.0-77.0", "time_elapsed": 479525, "key_press": 13, "type": "INSTRUCTIONS", "trial_index": 104}, "uniqueid": "MTK3163:339ANSOTR69H0P9WHHYSLJZA9BCIKZ", "dateTime": 1520113858534}, {"current_trial": 105, "trialdata": {"rt": [2842, 4395, 5618, 7339, 8794, 10566], "trial_type": "math-distractor", "key_times": [2146, 2379, 2478, 2842, 4232, 4295, 4395, 5358, 5568, 5618, 6957, 7261, 7339, 8471, 8794, 10207, 10480, 10566, 11916], "responses": ["18", "21", "15", "15", "3", "10"], "num2": [5, 6, 7, 5, 1, 4, 5], "num3": [5, 9, 7, 8, 2, 1, 8], "conditions": [12, 800, "v", 12000], "internal_node_id": "0.0-78.0", "key_presses": [49, 56, 16, 13, 50, 49, 13, 49, 53, 13, 49, 53, 13, 51, 13, 49, 48, 13, 49], "trial": 3, "time_elapsed": 493535, "type": "DISTRACTOR", "trial_index": 105, "num1": [8, 6, 1, 2, 1, 5, 5]}, "uniqueid": "MTK3163:339ANSOTR69H0P9WHHYSLJZA9BCIKZ", "dateTime": 1520113872545}, {"current_trial": 106, "trialdata": {"rt": -1, "trial_type": "single-stim", "stimulus": "<p id=\"stim\">10</p>", "internal_node_id": "0.0-79.0-0.0", "time_elapsed": 496539, "key_press": -1, "trial_index": 106}, "uniqueid": "MTK3163:339ANSOTR69H0P9WHHYSLJZA9BCIKZ", "dateTime": 1520113875549}, {"current_trial": 107, "trialdata": {"rt": -1, "trial_type": "single-stim", "stimulus": "<p id=\"stim\">9</p>", "internal_node_id": "0.0-79.0-1.0", "time_elapsed": 497543, "key_press": -1, "trial_index": 107}, "uniqueid": "MTK3163:339ANSOTR69H0P9WHHYSLJZA9BCIKZ", "dateTime": 1520113876553}, {"current_trial": 108, "trialdata": {"rt": -1, "trial_type": "single-stim", "stimulus": "<p id=\"stim\">8</p>", "internal_node_id": "0.0-79.0-2.0", "time_elapsed": 498547, "key_press": -1, "trial_index": 108}, "uniqueid": "MTK3163:339ANSOTR69H0P9WHHYSLJZA9BCIKZ", "dateTime": 1520113877556}, {"current_trial": 109, "trialdata": {"rt": -1, "trial_type": "single-stim", "stimulus": "<p id=\"stim\">7</p>", "internal_node_id": "0.0-79.0-3.0", "time_elapsed": 499550, "key_press": -1, "trial_index": 109}, "uniqueid": "MTK3163:339ANSOTR69H0P9WHHYSLJZA9BCIKZ", "dateTime": 1520113878560}, {"current_trial": 110, "trialdata": {"rt": -1, "trial_type": "single-stim", "stimulus": "<p id=\"stim\">6</p>", "internal_node_id": "0.0-79.0-4.0", "time_elapsed": 500554, "key_press": -1, "trial_index": 110}, "uniqueid": "MTK3163:339ANSOTR69H0P9WHHYSLJZA9BCIKZ", "dateTime": 1520113879563}, {"current_trial": 111, "trialdata": {"rt": -1, "trial_type": "single-stim", "stimulus": "<p id=\"stim\">5</p>", "internal_node_id": "0.0-79.0-5.0", "time_elapsed": 501557, "key_press": -1, "trial_index": 111}, "uniqueid": "MTK3163:339ANSOTR69H0P9WHHYSLJZA9BCIKZ", "dateTime": 1520113880567}, {"current_trial": 112, "trialdata": {"rt": -1, "trial_type": "single-stim", "stimulus": "<p id=\"stim\">4</p>", "internal_node_id": "0.0-79.0-6.0", "time_elapsed": 502562, "key_press": -1, "trial_index": 112}, "uniqueid": "MTK3163:339ANSOTR69H0P9WHHYSLJZA9BCIKZ", "dateTime": 1520113881571}, {"current_trial": 113, "trialdata": {"rt": -1, "trial_type": "single-stim", "stimulus": "<p id=\"stim\">3</p>", "internal_node_id": "0.0-79.0-7.0", "time_elapsed": 503565, "key_press": -1, "trial_index": 113}, "uniqueid": "MTK3163:339ANSOTR69H0P9WHHYSLJZA9BCIKZ", "dateTime": 1520113882575}, {"current_trial": 114, "trialdata": {"rt": -1, "trial_type": "single-stim", "stimulus": "<p id=\"stim\">2</p>", "internal_node_id": "0.0-79.0-8.0", "time_elapsed": 504568, "key_press": -1, "trial_index": 114}, "uniqueid": "MTK3163:339ANSOTR69H0P9WHHYSLJZA9BCIKZ", "dateTime": 1520113883577}, {"current_trial": 115, "trialdata": {"rt": -1, "trial_type": "single-stim", "stimulus": "<p id=\"stim\">1</p>", "internal_node_id": "0.0-79.0-9.0", "time_elapsed": 505571, "key_press": -1, "trial_index": 115}, "uniqueid": "MTK3163:339ANSOTR69H0P9WHHYSLJZA9BCIKZ", "dateTime": 1520113884580}, {"current_trial": 116, "trialdata": {"rt": -1, "trial_type": "single-stim", "stimulus": "<p id=\"stim\">+</p>", "internal_node_id": "0.0-80.0-0.0", "time_elapsed": 507076, "key_press": -1, "type": "FIXATION", "trial_index": 116}, "uniqueid": "MTK3163:339ANSOTR69H0P9WHHYSLJZA9BCIKZ", "dateTime": 1520113886085}, {"current_trial": 117, "trialdata": {"rt": -1, "trial_type": "single-stim", "word": "picture", "stimulus": "<p id=\"stim\">PICTURE</p>", "conditions": [12, 800, "v", 12000], "internal_node_id": "0.0-81.0", "trial": 3, "time_elapsed": 507879, "serialpos": 0, "key_press": -1, "wordID": 1060, "type": "PRES_VIS", "trial_index": 117}, "uniqueid": "MTK3163:339ANSOTR69H0P9WHHYSLJZA9BCIKZ", "dateTime": 1520113886888}, {"current_trial": 118, "trialdata": {"rt": -1, "trial_type": "single-stim", "word": "tweezers", "stimulus": "<p id=\"stim\">TWEEZERS</p>", "conditions": [12, 800, "v", 12000], "internal_node_id": "0.0-82.0", "trial": 3, "time_elapsed": 509844, "serialpos": 1, "key_press": -1, "wordID": 1525, "type": "PRES_VIS", "trial_index": 118}, "uniqueid": "MTK3163:339ANSOTR69H0P9WHHYSLJZA9BCIKZ", "dateTime": 1520113888853}, {"current_trial": 119, "trialdata": {"rt": -1, "trial_type": "single-stim", "word": "chemist", "stimulus": "<p id=\"stim\">CHEMIST</p>", "conditions": [12, 800, "v", 12000], "internal_node_id": "0.0-83.0", "trial": 3, "time_elapsed": 511809, "serialpos": 2, "key_press": -1, "wordID": 291, "type": "PRES_VIS", "trial_index": 119}, "uniqueid": "MTK3163:339ANSOTR69H0P9WHHYSLJZA9BCIKZ", "dateTime": 1520113890819}, {"current_trial": 120, "trialdata": {"rt": -1, "trial_type": "single-stim", "word": "pluto", "stimulus": "<p id=\"stim\">PLUTO</p>", "conditions": [12, 800, "v", 12000], "internal_node_id": "0.0-84.0", "trial": 3, "time_elapsed": 513754, "serialpos": 3, "key_press": -1, "wordID": 1091, "type": "PRES_VIS", "trial_index": 120}, "uniqueid": "MTK3163:339ANSOTR69H0P9WHHYSLJZA9BCIKZ", "dateTime": 1520113892764}, {"current_trial": 121, "trialdata": {"rt": -1, "trial_type": "single-stim", "word": "candy", "stimulus": "<p id=\"stim\">CANDY</p>", "conditions": [12, 800, "v", 12000], "internal_node_id": "0.0-85.0", "trial": 3, "time_elapsed": 515505, "serialpos": 4, "key_press": -1, "wordID": 229, "type": "PRES_VIS", "trial_index": 121}, "uniqueid": "MTK3163:339ANSOTR69H0P9WHHYSLJZA9BCIKZ", "dateTime": 1520113894515}, {"current_trial": 122, "trialdata": {"rt": -1, "trial_type": "single-stim", "word": "fruit", "stimulus": "<p id=\"stim\">FRUIT</p>", "conditions": [12, 800, "v", 12000], "internal_node_id": "0.0-86.0", "trial": 3, "time_elapsed": 517301, "serialpos": 5, "key_press": -1, "wordID": 609, "type": "PRES_VIS", "trial_index": 122}, "uniqueid": "MTK3163:339ANSOTR69H0P9WHHYSLJZA9BCIKZ", "dateTime": 1520113896311}, {"current_trial": 123, "trialdata": {"rt": -1, "trial_type": "single-stim", "word": "peach", "stimulus": "<p id=\"stim\">PEACH</p>", "conditions": [12, 800, "v", 12000], "internal_node_id": "0.0-87.0", "trial": 3, "time_elapsed": 519168, "serialpos": 6, "key_press": -1, "wordID": 1030, "type": "PRES_VIS", "trial_index": 123}, "uniqueid": "MTK3163:339ANSOTR69H0P9WHHYSLJZA9BCIKZ", "dateTime": 1520113898177}, {"current_trial": 124, "trialdata": {"rt": -1, "trial_type": "single-stim", "word": "clothes", "stimulus": "<p id=\"stim\">CLOTHES</p>", "conditions": [12, 800, "v", 12000], "internal_node_id": "0.0-88.0", "trial": 3, "time_elapsed": 520933, "serialpos": 7, "key_press": -1, "wordID": 326, "type": "PRES_VIS", "trial_index": 124}, "uniqueid": "MTK3163:339ANSOTR69H0P9WHHYSLJZA9BCIKZ", "dateTime": 1520113899942}, {"current_trial": 125, "trialdata": {"rt": -1, "trial_type": "single-stim", "word": "razor", "stimulus": "<p id=\"stim\">RAZOR</p>", "conditions": [12, 800, "v", 12000], "internal_node_id": "0.0-89.0", "trial": 3, "time_elapsed": 522788, "serialpos": 8, "key_press": -1, "wordID": 1170, "type": "PRES_VIS", "trial_index": 125}, "uniqueid": "MTK3163:339ANSOTR69H0P9WHHYSLJZA9BCIKZ", "dateTime": 1520113901798}, {"current_trial": 126, "trialdata": {"rt": -1, "trial_type": "single-stim", "word": "portrait", "stimulus": "<p id=\"stim\">PORTRAIT</p>", "conditions": [12, 800, "v", 12000], "internal_node_id": "0.0-90.0", "trial": 3, "time_elapsed": 524768, "serialpos": 9, "key_press": -1, "wordID": 1110, "type": "PRES_VIS", "trial_index": 126}, "uniqueid": "MTK3163:339ANSOTR69H0P9WHHYSLJZA9BCIKZ", "dateTime": 1520113903777}, {"current_trial": 127, "trialdata": {"rt": -1, "trial_type": "single-stim", "word": "palace", "stimulus": "<p id=\"stim\">PALACE</p>", "conditions": [12, 800, "v", 12000], "internal_node_id": "0.0-91.0", "trial": 3, "time_elapsed": 526394, "serialpos": 10, "key_press": -1, "wordID": 1005, "type": "PRES_VIS", "trial_index": 127}, "uniqueid": "MTK3163:339ANSOTR69H0P9WHHYSLJZA9BCIKZ", "dateTime": 1520113905404}, {"current_trial": 128, "trialdata": {"rt": -1, "trial_type": "single-stim", "word": "cashier", "stimulus": "<p id=\"stim\">CASHIER</p>", "conditions": [12, 800, "v", 12000], "internal_node_id": "0.0-92.0", "trial": 3, "time_elapsed": 528002, "serialpos": 11, "key_press": -1, "wordID": 253, "type": "PRES_VIS", "trial_index": 128}, "uniqueid": "MTK3163:339ANSOTR69H0P9WHHYSLJZA9BCIKZ", "dateTime": 1520113907012}, {"current_trial": 129, "trialdata": {"rt": -1, "trial_type": "single-stim", "stimulus": "", "internal_node_id": "0.0-93.0-0.0", "time_elapsed": 530155, "key_press": -1, "type": "PRE_RECALL_DELAY", "trial_index": 129}, "uniqueid": "MTK3163:339ANSOTR69H0P9WHHYSLJZA9BCIKZ", "dateTime": 1520113909164}, {"current_trial": 130, "trialdata": {"rt": -1000, "trial_type": "single-audio", "stimulus": "/static/audio/400Hz.wav", "internal_node_id": "0.0-94.0", "time_elapsed": 530659, "key_press": -1, "type": "PRE_RECALL_ALERT", "trial_index": 130}, "uniqueid": "MTK3163:339ANSOTR69H0P9WHHYSLJZA9BCIKZ", "dateTime": 1520113909668}, {"current_trial": 131, "trialdata": {"rt": [4198, 6042, 9137, 14416, 15360, 16593, 22779, 24579, 26502, 27551, 29252, 30692, 31489, 36748, 38064, 39982], "recwords": ["palace", "hat", "plates", "razor", "candy", "clothes", "tweezers", "chemist", "pluto", "planet", "fruit", "food", "peach", "portrait", "picture", "cashier"], "key_times": [3268, 3366, 3487, 3600, 3827, 3917, 4198, 4968, 5812, 5904, 6042, 8082, 8225, 8300, 8732, 8820, 9016, 9137, 9734, 9886, 10234, 10628, 10735, 11196, 11353, 11489, 11626, 11748, 11932, 12567, 12656, 14416, 14794, 14868, 14993, 15079, 15285, 15360, 15767, 15864, 16025, 16090, 16217, 16332, 16480, 16593, 21087, 21251, 21464, 21576, 21777, 21939, 22023, 22139, 22779, 23133, 23322, 23367, 23504, 23712, 23779, 23841, 24579, 25127, 25291, 25553, 25679, 25763, 26502, 26950, 27098, 27175, 27295, 27399, 27478, 27551, 28648, 28799, 28921, 29057, 29153, 29252, 30323, 30407, 30524, 30614, 30692, 30916, 30981, 31022, 31090, 31226, 31489, 35766, 35928, 35984, 36137, 36233, 36426, 36514, 36593, 36748, 37331, 37510, 37577, 37766, 37803, 37882, 37975, 38064, 38997, 39058, 39341, 39548, 39750, 39818, 39872, 39982], "trial_type": "free-recall", "conditions": [12, 800, "v", 12000], "internal_node_id": "0.0-95.0-0.0", "key_presses": [80, 65, 76, 65, 67, 69, 13, 72, 65, 84, 13, 80, 76, 65, 84, 69, 83, 13, 82, 90, 65, 79, 82, 8, 8, 8, 8, 65, 90, 79, 82, 13, 67, 65, 78, 68, 89, 13, 67, 76, 79, 84, 72, 69, 83, 13, 84, 87, 69, 69, 90, 69, 82, 83, 13, 67, 72, 69, 77, 73, 83, 84, 13, 80, 76, 85, 84, 79, 13, 80, 76, 65, 78, 69, 84, 13, 70, 82, 85, 73, 84, 13, 70, 79, 79, 68, 13, 80, 69, 65, 67, 72, 13, 80, 79, 82, 84, 82, 65, 73, 84, 13, 80, 73, 67, 84, 85, 82, 69, 13, 67, 65, 83, 72, 73, 69, 82, 13], "trial": 3, "time_elapsed": 590669, "type": "FREE_RECALL", "trial_index": 131}, "uniqueid": "MTK3163:339ANSOTR69H0P9WHHYSLJZA9BCIKZ", "dateTime": 1520113969697}, {"current_trial": 132, "trialdata": {"rt": 1789, "trial_type": "text", "internal_node_id": "0.0-96.0", "time_elapsed": 594478, "key_press": 13, "type": "INSTRUCTIONS", "trial_index": 132}, "uniqueid": "MTK3163:339ANSOTR69H0P9WHHYSLJZA9BCIKZ", "dateTime": 1520113973488}, {"current_trial": 133, "trialdata": {"rt": [2010, 3418, 5413, 6748, 7925, 9069, 10559, 11844], "trial_type": "math-distractor", "key_times": [1912, 2010, 3354, 3418, 4941, 5342, 5413, 6552, 6637, 6748, 7860, 7925, 8866, 8963, 9069, 10493, 10559, 11644, 11769, 11844], "responses": ["6", "6", "16", "21", "8", "12", "9", "11"], "num2": [1, 3, 3, 7, 1, 4, 2, 1, 9], "num3": [1, 2, 8, 9, 1, 6, 5, 3, 4], "conditions": [12, 1600, "v", 12000], "internal_node_id": "0.0-97.0", "key_presses": [54, 13, 54, 13, 49, 54, 13, 50, 49, 13, 56, 13, 49, 50, 13, 57, 13, 49, 49, 13], "trial": 4, "time_elapsed": 608488, "type": "DISTRACTOR", "trial_index": 133, "num1": [4, 1, 5, 7, 6, 2, 2, 5, 2]}, "uniqueid": "MTK3163:339ANSOTR69H0P9WHHYSLJZA9BCIKZ", "dateTime": 1520113987497}, {"current_trial": 134, "trialdata": {"rt": -1, "trial_type": "single-stim", "stimulus": "<p id=\"stim\">10</p>", "internal_node_id": "0.0-98.0-0.0", "time_elapsed": 611493, "key_press": -1, "trial_index": 134}, "uniqueid": "MTK3163:339ANSOTR69H0P9WHHYSLJZA9BCIKZ", "dateTime": 1520113990502}, {"current_trial": 135, "trialdata": {"rt": -1, "trial_type": "single-stim", "stimulus": "<p id=\"stim\">9</p>", "internal_node_id": "0.0-98.0-1.0", "time_elapsed": 612496, "key_press": -1, "trial_index": 135}, "uniqueid": "MTK3163:339ANSOTR69H0P9WHHYSLJZA9BCIKZ", "dateTime": 1520113991506}, {"current_trial": 136, "trialdata": {"rt": -1, "trial_type": "single-stim", "stimulus": "<p id=\"stim\">8</p>", "internal_node_id": "0.0-98.0-2.0", "time_elapsed": 613501, "key_press": -1, "trial_index": 136}, "uniqueid": "MTK3163:339ANSOTR69H0P9WHHYSLJZA9BCIKZ", "dateTime": 1520113992510}, {"current_trial": 137, "trialdata": {"rt": -1, "trial_type": "single-stim", "stimulus": "<p id=\"stim\">7</p>", "internal_node_id": "0.0-98.0-3.0", "time_elapsed": 614505, "key_press": -1, "trial_index": 137}, "uniqueid": "MTK3163:339ANSOTR69H0P9WHHYSLJZA9BCIKZ", "dateTime": 1520113993514}, {"current_trial": 138, "trialdata": {"rt": -1, "trial_type": "single-stim", "stimulus": "<p id=\"stim\">6</p>", "internal_node_id": "0.0-98.0-4.0", "time_elapsed": 615508, "key_press": -1, "trial_index": 138}, "uniqueid": "MTK3163:339ANSOTR69H0P9WHHYSLJZA9BCIKZ", "dateTime": 1520113994518}, {"current_trial": 139, "trialdata": {"rt": -1, "trial_type": "single-stim", "stimulus": "<p id=\"stim\">5</p>", "internal_node_id": "0.0-98.0-5.0", "time_elapsed": 616511, "key_press": -1, "trial_index": 139}, "uniqueid": "MTK3163:339ANSOTR69H0P9WHHYSLJZA9BCIKZ", "dateTime": 1520113995520}, {"current_trial": 140, "trialdata": {"rt": -1, "trial_type": "single-stim", "stimulus": "<p id=\"stim\">4</p>", "internal_node_id": "0.0-98.0-6.0", "time_elapsed": 617515, "key_press": -1, "trial_index": 140}, "uniqueid": "MTK3163:339ANSOTR69H0P9WHHYSLJZA9BCIKZ", "dateTime": 1520113996525}, {"current_trial": 141, "trialdata": {"rt": -1, "trial_type": "single-stim", "stimulus": "<p id=\"stim\">3</p>", "internal_node_id": "0.0-98.0-7.0", "time_elapsed": 618519, "key_press": -1, "trial_index": 141}, "uniqueid": "MTK3163:339ANSOTR69H0P9WHHYSLJZA9BCIKZ", "dateTime": 1520113997528}, {"current_trial": 142, "trialdata": {"rt": -1, "trial_type": "single-stim", "stimulus": "<p id=\"stim\">2</p>", "internal_node_id": "0.0-98.0-8.0", "time_elapsed": 619523, "key_press": -1, "trial_index": 142}, "uniqueid": "MTK3163:339ANSOTR69H0P9WHHYSLJZA9BCIKZ", "dateTime": 1520113998532}, {"current_trial": 143, "trialdata": {"rt": -1, "trial_type": "single-stim", "stimulus": "<p id=\"stim\">1</p>", "internal_node_id": "0.0-98.0-9.0", "time_elapsed": 620526, "key_press": -1, "trial_index": 143}, "uniqueid": "MTK3163:339ANSOTR69H0P9WHHYSLJZA9BCIKZ", "dateTime": 1520113999536}, {"current_trial": 144, "trialdata": {"rt": -1, "trial_type": "single-stim", "stimulus": "<p id=\"stim\">+</p>", "internal_node_id": "0.0-99.0-0.0", "time_elapsed": 622030, "key_press": -1, "type": "FIXATION", "trial_index": 144}, "uniqueid": "MTK3163:339ANSOTR69H0P9WHHYSLJZA9BCIKZ", "dateTime": 1520114001040}, {"current_trial": 145, "trialdata": {"rt": -1, "trial_type": "single-stim", "word": "servant", "stimulus": "<p id=\"stim\">SERVANT</p>", "conditions": [12, 1600, "v", 12000], "internal_node_id": "0.0-100.0", "trial": 4, "time_elapsed": 623634, "serialpos": 0, "key_press": -1, "wordID": 1270, "type": "PRES_VIS", "trial_index": 145}, "uniqueid": "MTK3163:339ANSOTR69H0P9WHHYSLJZA9BCIKZ", "dateTime": 1520114002643}, {"current_trial": 146, "trialdata": {"rt": -1, "trial_type": "single-stim", "word": "widow", "stimulus": "<p id=\"stim\">WIDOW</p>", "conditions": [12, 1600, "v", 12000], "internal_node_id": "0.0-101.0", "trial": 4, "time_elapsed": 626390, "serialpos": 1, "key_press": -1, "wordID": 1607, "type": "PRES_VIS", "trial_index": 146}, "uniqueid": "MTK3163:339ANSOTR69H0P9WHHYSLJZA9BCIKZ", "dateTime": 1520114005399}, {"current_trial": 147, "trialdata": {"rt": -1, "trial_type": "single-stim", "word": "princess", "stimulus": "<p id=\"stim\">PRINCESS</p>", "conditions": [12, 1600, "v", 12000], "internal_node_id": "0.0-102.0", "trial": 4, "time_elapsed": 629112, "serialpos": 2, "key_press": -1, "wordID": 1124, "type": "PRES_VIS", "trial_index": 147}, "uniqueid": "MTK3163:339ANSOTR69H0P9WHHYSLJZA9BCIKZ", "dateTime": 1520114008122}, {"current_trial": 148, "trialdata": {"rt": -1, "trial_type": "single-stim", "word": "maple", "stimulus": "<p id=\"stim\">MAPLE</p>", "conditions": [12, 1600, "v", 12000], "internal_node_id": "0.0-103.0", "trial": 4, "time_elapsed": 631719, "serialpos": 3, "key_press": -1, "wordID": 865, "type": "PRES_VIS", "trial_index": 148}, "uniqueid": "MTK3163:339ANSOTR69H0P9WHHYSLJZA9BCIKZ", "dateTime": 1520114010729}, {"current_trial": 149, "trialdata": {"rt": -1, "trial_type": "single-stim", "word": "survey", "stimulus": "<p id=\"stim\">SURVEY</p>", "conditions": [12, 1600, "v", 12000], "internal_node_id": "0.0-104.0", "trial": 4, "time_elapsed": 634337, "serialpos": 4, "key_press": -1, "wordID": 1413, "type": "PRES_VIS", "trial_index": 149}, "uniqueid": "MTK3163:339ANSOTR69H0P9WHHYSLJZA9BCIKZ", "dateTime": 1520114013346}, {"current_trial": 150, "trialdata": {"rt": -1, "trial_type": "single-stim", "word": "lagoon", "stimulus": "<p id=\"stim\">LAGOON</p>", "conditions": [12, 1600, "v", 12000], "internal_node_id": "0.0-105.0", "trial": 4, "time_elapsed": 637008, "serialpos": 5, "key_press": -1, "wordID": 794, "type": "PRES_VIS", "trial_index": 150}, "uniqueid": "MTK3163:339ANSOTR69H0P9WHHYSLJZA9BCIKZ", "dateTime": 1520114016018}, {"current_trial": 151, "trialdata": {"rt": -1, "trial_type": "single-stim", "word": "lake", "stimulus": "<p id=\"stim\">LAKE</p>", "conditions": [12, 1600, "v", 12000], "internal_node_id": "0.0-106.0", "trial": 4, "time_elapsed": 639517, "serialpos": 6, "key_press": -1, "wordID": 795, "type": "PRES_VIS", "trial_index": 151}, "uniqueid": "MTK3163:339ANSOTR69H0P9WHHYSLJZA9BCIKZ", "dateTime": 1520114018526}, {"current_trial": 152, "trialdata": {"rt": -1, "trial_type": "single-stim", "word": "critic", "stimulus": "<p id=\"stim\">CRITIC</p>", "conditions": [12, 1600, "v", 12000], "internal_node_id": "0.0-107.0", "trial": 4, "time_elapsed": 641931, "serialpos": 7, "key_press": -1, "wordID": 409, "type": "PRES_VIS", "trial_index": 152}, "uniqueid": "MTK3163:339ANSOTR69H0P9WHHYSLJZA9BCIKZ", "dateTime": 1520114020941}, {"current_trial": 153, "trialdata": {"rt": -1, "trial_type": "single-stim", "word": "county", "stimulus": "<p id=\"stim\">COUNTY</p>", "conditions": [12, 1600, "v", 12000], "internal_node_id": "0.0-108.0", "trial": 4, "time_elapsed": 644352, "serialpos": 8, "key_press": -1, "wordID": 388, "type": "PRES_VIS", "trial_index": 153}, "uniqueid": "MTK3163:339ANSOTR69H0P9WHHYSLJZA9BCIKZ", "dateTime": 1520114023361}, {"current_trial": 154, "trialdata": {"rt": -1, "trial_type": "single-stim", "word": "marsh", "stimulus": "<p id=\"stim\">MARSH</p>", "conditions": [12, 1600, "v", 12000], "internal_node_id": "0.0-109.0", "trial": 4, "time_elapsed": 646838, "serialpos": 9, "key_press": -1, "wordID": 873, "type": "PRES_VIS", "trial_index": 154}, "uniqueid": "MTK3163:339ANSOTR69H0P9WHHYSLJZA9BCIKZ", "dateTime": 1520114025848}, {"current_trial": 155, "trialdata": {"rt": -1, "trial_type": "single-stim", "word": "report", "stimulus": "<p id=\"stim\">REPORT</p>", "conditions": [12, 1600, "v", 12000], "internal_node_id": "0.0-110.0", "trial": 4, "time_elapsed": 649532, "serialpos": 10, "key_press": -1, "wordID": 1183, "type": "PRES_VIS", "trial_index": 155}, "uniqueid": "MTK3163:339ANSOTR69H0P9WHHYSLJZA9BCIKZ", "dateTime": 1520114028541}, {"current_trial": 156, "trialdata": {"rt": -1, "trial_type": "single-stim", "word": "market", "stimulus": "<p id=\"stim\">MARKET</p>", "conditions": [12, 1600, "v", 12000], "internal_node_id": "0.0-111.0", "trial": 4, "time_elapsed": 652171, "serialpos": 11, "key_press": -1, "wordID": 870, "type": "PRES_VIS", "trial_index": 156}, "uniqueid": "MTK3163:339ANSOTR69H0P9WHHYSLJZA9BCIKZ", "dateTime": 1520114031180}, {"current_trial": 157, "trialdata": {"rt": -1, "trial_type": "single-stim", "stimulus": "", "internal_node_id": "0.0-112.0-0.0", "time_elapsed": 654478, "key_press": -1, "type": "PRE_RECALL_DELAY", "trial_index": 157}, "uniqueid": "MTK3163:339ANSOTR69H0P9WHHYSLJZA9BCIKZ", "dateTime": 1520114033487}, {"current_trial": 158, "trialdata": {"rt": -1000, "trial_type": "single-audio", "stimulus": "/static/audio/400Hz.wav", "internal_node_id": "0.0-113.0", "time_elapsed": 654982, "key_press": -1, "type": "PRE_RECALL_ALERT", "trial_index": 158}, "uniqueid": "MTK3163:339ANSOTR69H0P9WHHYSLJZA9BCIKZ", "dateTime": 1520114033991}, {"current_trial": 159, "trialdata": {"rt": [3197, 6131, 8359, 9445, 12549, 13312, 16283, 18138, 20387, 23700, 25875, 45294, 50734], "recwords": ["servant", "widow", "prince", "maple", "survey", "lake", "crtics", "candy", "swamp", "marsh", "report", "princess", "lagoon"], "key_times": [2387, 2597, 2670, 2858, 2897, 3008, 3110, 3197, 3454, 3579, 3683, 3763, 3858, 6131, 6672, 6755, 6890, 7028, 7091, 7171, 8359, 8866, 8950, 9061, 9188, 9282, 9445, 10716, 10841, 10921, 11121, 11190, 11362, 12549, 12980, 13051, 13141, 13214, 13312, 14795, 15004, 15171, 15273, 15397, 15461, 16283, 17660, 17743, 17816, 17898, 18084, 18138, 19528, 19751, 19861, 20039, 20119, 20387, 21001, 21078, 21145, 21263, 21299, 21418, 22133, 22262, 22390, 22491, 23066, 23468, 23567, 23700, 25202, 25266, 25340, 25479, 25520, 25678, 25875, 44414, 44531, 44663, 44804, 44852, 44881, 45070, 45201, 45294, 50060, 50118, 50300, 50361, 50466, 50626, 50734], "trial_type": "free-recall", "conditions": [12, 1600, "v", 12000], "internal_node_id": "0.0-114.0-0.0", "key_presses": [83, 69, 82, 86, 65, 78, 84, 13, 87, 73, 68, 79, 87, 13, 80, 82, 73, 78, 67, 69, 13, 77, 65, 80, 76, 69, 13, 83, 85, 82, 86, 69, 89, 13, 76, 65, 75, 69, 13, 67, 82, 84, 73, 67, 83, 13, 67, 65, 78, 68, 89, 13, 83, 87, 65, 77, 80, 13, 77, 65, 82, 65, 83, 72, 8, 8, 8, 83, 74, 8, 72, 13, 82, 69, 80, 79, 82, 84, 13, 80, 82, 73, 78, 67, 69, 83, 83, 13, 76, 65, 71, 79, 79, 78, 13], "trial": 4, "time_elapsed": 714992, "type": "FREE_RECALL", "trial_index": 159}, "uniqueid": "MTK3163:339ANSOTR69H0P9WHHYSLJZA9BCIKZ", "dateTime": 1520114094018}, {"current_trial": 160, "trialdata": {"rt": 1979, "trial_type": "text", "internal_node_id": "0.0-115.0", "time_elapsed": 718990, "key_press": 13, "type": "INSTRUCTIONS", "trial_index": 160}, "uniqueid": "MTK3163:339ANSOTR69H0P9WHHYSLJZA9BCIKZ", "dateTime": 1520114098000}, {"current_trial": 161, "trialdata": {"rt": [1856, 3960, 5257, 6601, 7874, 9460, 10552, 12481, 13761, 15000, 16444, 18257, 19792, 20973, 22764], "trial_type": "math-distractor", "key_times": [1508, 1771, 1856, 3531, 3865, 3960, 4982, 5159, 5257, 6539, 6601, 7608, 7802, 7874, 8658, 9201, 9229, 9283, 9338, 9460, 10355, 10473, 10552, 12266, 12418, 12481, 13716, 13761, 14692, 14935, 15000, 16216, 16372, 16444, 17903, 18195, 18257, 19432, 19746, 19792, 20913, 20973, 21886, 21967, 22559, 22668, 22764, 23970], "responses": ["18", "20", "12", "7", "16", "21", "11", "14", "7", "17", "12", "10", "18", "9", "13"], "num2": [8, 7, 6, 5, 3, 7, 2, 4, 5, 3, 9, 3, 7, 3, 5, 6], "num3": [8, 7, 4, 1, 4, 7, 7, 5, 1, 7, 6, 5, 1, 3, 1, 5], "conditions": [12, 1600, "v", 24000], "internal_node_id": "0.0-116.0", "key_presses": [49, 56, 13, 50, 48, 13, 49, 50, 13, 55, 13, 49, 54, 13, 49, 8, 46, 50, 49, 13, 49, 49, 13, 49, 52, 13, 55, 13, 49, 55, 13, 49, 50, 13, 49, 48, 13, 49, 56, 13, 57, 13, 49, 50, 8, 51, 13, 49], "trial": 5, "time_elapsed": 745005, "type": "DISTRACTOR", "trial_index": 161, "num1": [2, 6, 3, 1, 9, 7, 9, 5, 1, 3, 2, 2, 9, 3, 7, 5]}, "uniqueid": "MTK3163:339ANSOTR69H0P9WHHYSLJZA9BCIKZ", "dateTime": 1520114124015}, {"current_trial": 162, "trialdata": {"rt": -1, "trial_type": "single-stim", "stimulus": "<p id=\"stim\">10</p>", "internal_node_id": "0.0-117.0-0.0", "time_elapsed": 748010, "key_press": -1, "trial_index": 162}, "uniqueid": "MTK3163:339ANSOTR69H0P9WHHYSLJZA9BCIKZ", "dateTime": 1520114127019}, {"current_trial": 163, "trialdata": {"rt": -1, "trial_type": "single-stim", "stimulus": "<p id=\"stim\">9</p>", "internal_node_id": "0.0-117.0-1.0", "time_elapsed": 749014, "key_press": -1, "trial_index": 163}, "uniqueid": "MTK3163:339ANSOTR69H0P9WHHYSLJZA9BCIKZ", "dateTime": 1520114128023}, {"current_trial": 164, "trialdata": {"rt": -1, "trial_type": "single-stim", "stimulus": "<p id=\"stim\">8</p>", "internal_node_id": "0.0-117.0-2.0", "time_elapsed": 750018, "key_press": -1, "trial_index": 164}, "uniqueid": "MTK3163:339ANSOTR69H0P9WHHYSLJZA9BCIKZ", "dateTime": 1520114129027}, {"current_trial": 165, "trialdata": {"rt": -1, "trial_type": "single-stim", "stimulus": "<p id=\"stim\">7</p>", "internal_node_id": "0.0-117.0-3.0", "time_elapsed": 751020, "key_press": -1, "trial_index": 165}, "uniqueid": "MTK3163:339ANSOTR69H0P9WHHYSLJZA9BCIKZ", "dateTime": 1520114130030}, {"current_trial": 166, "trialdata": {"rt": -1, "trial_type": "single-stim", "stimulus": "<p id=\"stim\">6</p>", "internal_node_id": "0.0-117.0-4.0", "time_elapsed": 752025, "key_press": -1, "trial_index": 166}, "uniqueid": "MTK3163:339ANSOTR69H0P9WHHYSLJZA9BCIKZ", "dateTime": 1520114131034}, {"current_trial": 167, "trialdata": {"rt": -1, "trial_type": "single-stim", "stimulus": "<p id=\"stim\">5</p>", "internal_node_id": "0.0-117.0-5.0", "time_elapsed": 753028, "key_press": -1, "trial_index": 167}, "uniqueid": "MTK3163:339ANSOTR69H0P9WHHYSLJZA9BCIKZ", "dateTime": 1520114132037}, {"current_trial": 168, "trialdata": {"rt": -1, "trial_type": "single-stim", "stimulus": "<p id=\"stim\">4</p>", "internal_node_id": "0.0-117.0-6.0", "time_elapsed": 754031, "key_press": -1, "trial_index": 168}, "uniqueid": "MTK3163:339ANSOTR69H0P9WHHYSLJZA9BCIKZ", "dateTime": 1520114133042}, {"current_trial": 169, "trialdata": {"rt": -1, "trial_type": "single-stim", "stimulus": "<p id=\"stim\">3</p>", "internal_node_id": "0.0-117.0-7.0", "time_elapsed": 755035, "key_press": -1, "trial_index": 169}, "uniqueid": "MTK3163:339ANSOTR69H0P9WHHYSLJZA9BCIKZ", "dateTime": 1520114134044}, {"current_trial": 170, "trialdata": {"rt": -1, "trial_type": "single-stim", "stimulus": "<p id=\"stim\">2</p>", "internal_node_id": "0.0-117.0-8.0", "time_elapsed": 756038, "key_press": -1, "trial_index": 170}, "uniqueid": "MTK3163:339ANSOTR69H0P9WHHYSLJZA9BCIKZ", "dateTime": 1520114135047}, {"current_trial": 171, "trialdata": {"rt": -1, "trial_type": "single-stim", "stimulus": "<p id=\"stim\">1</p>", "internal_node_id": "0.0-117.0-9.0", "time_elapsed": 757042, "key_press": -1, "trial_index": 171}, "uniqueid": "MTK3163:339ANSOTR69H0P9WHHYSLJZA9BCIKZ", "dateTime": 1520114136051}, {"current_trial": 172, "trialdata": {"rt": -1, "trial_type": "single-stim", "stimulus": "<p id=\"stim\">+</p>", "internal_node_id": "0.0-118.0-0.0", "time_elapsed": 758546, "key_press": -1, "type": "FIXATION", "trial_index": 172}, "uniqueid": "MTK3163:339ANSOTR69H0P9WHHYSLJZA9BCIKZ", "dateTime": 1520114137555}, {"current_trial": 173, "trialdata": {"rt": -1, "trial_type": "single-stim", "word": "helmet", "stimulus": "<p id=\"stim\">HELMET</p>", "conditions": [12, 1600, "v", 24000], "internal_node_id": "0.0-119.0", "trial": 5, "time_elapsed": 760150, "serialpos": 0, "key_press": -1, "wordID": 701, "type": "PRES_VIS", "trial_index": 173}, "uniqueid": "MTK3163:339ANSOTR69H0P9WHHYSLJZA9BCIKZ", "dateTime": 1520114139159}, {"current_trial": 174, "trialdata": {"rt": -1, "trial_type": "single-stim", "word": "smog", "stimulus": "<p id=\"stim\">SMOG</p>", "conditions": [12, 1600, "v", 24000], "internal_node_id": "0.0-120.0", "trial": 5, "time_elapsed": 762588, "serialpos": 1, "key_press": -1, "wordID": 1329, "type": "PRES_VIS", "trial_index": 174}, "uniqueid": "MTK3163:339ANSOTR69H0P9WHHYSLJZA9BCIKZ", "dateTime": 1520114141597}, {"current_trial": 175, "trialdata": {"rt": -1, "trial_type": "single-stim", "word": "receipt", "stimulus": "<p id=\"stim\">RECEIPT</p>", "conditions": [12, 1600, "v", 24000], "internal_node_id": "0.0-121.0", "trial": 5, "time_elapsed": 765385, "serialpos": 2, "key_press": -1, "wordID": 1172, "type": "PRES_VIS", "trial_index": 175}, "uniqueid": "MTK3163:339ANSOTR69H0P9WHHYSLJZA9BCIKZ", "dateTime": 1520114144396}, {"current_trial": 176, "trialdata": {"rt": -1, "trial_type": "single-stim", "word": "pocket", "stimulus": "<p id=\"stim\">POCKET</p>", "conditions": [12, 1600, "v", 24000], "internal_node_id": "0.0-122.0", "trial": 5, "time_elapsed": 767829, "serialpos": 3, "key_press": -1, "wordID": 1092, "type": "PRES_VIS", "trial_index": 176}, "uniqueid": "MTK3163:339ANSOTR69H0P9WHHYSLJZA9BCIKZ", "dateTime": 1520114146839}, {"current_trial": 177, "trialdata": {"rt": -1, "trial_type": "single-stim", "word": "lizard", "stimulus": "<p id=\"stim\">LIZARD</p>", "conditions": [12, 1600, "v", 24000], "internal_node_id": "0.0-123.0", "trial": 5, "time_elapsed": 770353, "serialpos": 4, "key_press": -1, "wordID": 833, "type": "PRES_VIS", "trial_index": 177}, "uniqueid": "MTK3163:339ANSOTR69H0P9WHHYSLJZA9BCIKZ", "dateTime": 1520114149362}, {"current_trial": 178, "trialdata": {"rt": -1, "trial_type": "single-stim", "word": "country", "stimulus": "<p id=\"stim\">COUNTRY</p>", "conditions": [12, 1600, "v", 24000], "internal_node_id": "0.0-124.0", "trial": 5, "time_elapsed": 773108, "serialpos": 5, "key_press": -1, "wordID": 387, "type": "PRES_VIS", "trial_index": 178}, "uniqueid": "MTK3163:339ANSOTR69H0P9WHHYSLJZA9BCIKZ", "dateTime": 1520114152118}, {"current_trial": 179, "trialdata": {"rt": -1, "trial_type": "single-stim", "word": "patrol", "stimulus": "<p id=\"stim\">PATROL</p>", "conditions": [12, 1600, "v", 24000], "internal_node_id": "0.0-125.0", "trial": 5, "time_elapsed": 775779, "serialpos": 6, "key_press": -1, "wordID": 1026, "type": "PRES_VIS", "trial_index": 179}, "uniqueid": "MTK3163:339ANSOTR69H0P9WHHYSLJZA9BCIKZ", "dateTime": 1520114154789}, {"current_trial": 180, "trialdata": {"rt": -1, "trial_type": "single-stim", "word": "waiter", "stimulus": "<p id=\"stim\">WAITER</p>", "conditions": [12, 1600, "v", 24000], "internal_node_id": "0.0-126.0", "trial": 5, "time_elapsed": 778430, "serialpos": 7, "key_press": -1, "wordID": 1579, "type": "PRES_VIS", "trial_index": 180}, "uniqueid": "MTK3163:339ANSOTR69H0P9WHHYSLJZA9BCIKZ", "dateTime": 1520114157439}, {"current_trial": 181, "trialdata": {"rt": -1, "trial_type": "single-stim", "word": "sandwich", "stimulus": "<p id=\"stim\">SANDWICH</p>", "conditions": [12, 1600, "v", 24000], "internal_node_id": "0.0-127.0", "trial": 5, "time_elapsed": 780914, "serialpos": 8, "key_press": -1, "wordID": 1231, "type": "PRES_VIS", "trial_index": 181}, "uniqueid": "MTK3163:339ANSOTR69H0P9WHHYSLJZA9BCIKZ", "dateTime": 1520114159923}, {"current_trial": 182, "trialdata": {"rt": -1, "trial_type": "single-stim", "word": "sausage", "stimulus": "<p id=\"stim\">SAUSAGE</p>", "conditions": [12, 1600, "v", 24000], "internal_node_id": "0.0-128.0", "trial": 5, "time_elapsed": 783636, "serialpos": 9, "key_press": -1, "wordID": 1237, "type": "PRES_VIS", "trial_index": 182}, "uniqueid": "MTK3163:339ANSOTR69H0P9WHHYSLJZA9BCIKZ", "dateTime": 1520114162646}, {"current_trial": 183, "trialdata": {"rt": -1, "trial_type": "single-stim", "word": "world", "stimulus": "<p id=\"stim\">WORLD</p>", "conditions": [12, 1600, "v", 24000], "internal_node_id": "0.0-129.0", "trial": 5, "time_elapsed": 786086, "serialpos": 10, "key_press": -1, "wordID": 1621, "type": "PRES_VIS", "trial_index": 183}, "uniqueid": "MTK3163:339ANSOTR69H0P9WHHYSLJZA9BCIKZ", "dateTime": 1520114165099}, {"current_trial": 184, "trialdata": {"rt": -1, "trial_type": "single-stim", "word": "driver", "stimulus": "<p id=\"stim\">DRIVER</p>", "conditions": [12, 1600, "v", 24000], "internal_node_id": "0.0-130.0", "trial": 5, "time_elapsed": 788554, "serialpos": 11, "key_press": -1, "wordID": 498, "type": "PRES_VIS", "trial_index": 184}, "uniqueid": "MTK3163:339ANSOTR69H0P9WHHYSLJZA9BCIKZ", "dateTime": 1520114167564}, {"current_trial": 185, "trialdata": {"rt": -1, "trial_type": "single-stim", "stimulus": "", "internal_node_id": "0.0-131.0-0.0", "time_elapsed": 790904, "key_press": -1, "type": "PRE_RECALL_DELAY", "trial_index": 185}, "uniqueid": "MTK3163:339ANSOTR69H0P9WHHYSLJZA9BCIKZ", "dateTime": 1520114169914}, {"current_trial": 186, "trialdata": {"rt": -1000, "trial_type": "single-audio", "stimulus": "/static/audio/400Hz.wav", "internal_node_id": "0.0-132.0", "time_elapsed": 791408, "key_press": -1, "type": "PRE_RECALL_ALERT", "trial_index": 186}, "uniqueid": "MTK3163:339ANSOTR69H0P9WHHYSLJZA9BCIKZ", "dateTime": 1520114170418}, {"current_trial": 187, "trialdata": {"rt": [3135, 4050, 5542, 6756, 9942, 11809, 14108, 15453, 17984, 24458, 25522, 27072], "recwords": ["helmet", "smog", "receipt", "pcket", "lizard", "county", "patrol", "sandwich", "waitress", "world", "sauces", "driver"], "key_times": [2060, 2168, 2452, 2640, 2741, 2786, 3135, 3549, 3670, 3858, 3951, 4050, 4195, 4270, 4412, 4493, 5128, 5296, 5388, 5542, 6134, 6245, 6337, 6482, 6553, 6756, 8710, 8917, 8974, 9210, 9346, 9519, 9942, 11148, 11175, 11386, 11524, 11589, 11739, 11809, 13510, 13587, 13717, 13814, 13831, 13957, 14108, 14429, 14509, 14635, 14721, 15002, 15131, 15238, 15314, 15453, 17107, 17199, 17293, 17384, 17519, 17588, 17768, 17874, 17984, 23897, 23998, 24035, 24166, 24241, 24458, 24731, 24811, 25010, 25088, 25163, 25371, 25522, 26480, 26638, 26739, 26836, 26924, 27042, 27072], "trial_type": "free-recall", "conditions": [12, 1600, "v", 24000], "internal_node_id": "0.0-133.0-0.0", "key_presses": [72, 69, 76, 77, 69, 84, 13, 83, 77, 79, 71, 13, 82, 69, 67, 69, 73, 80, 84, 13, 80, 67, 75, 69, 84, 13, 76, 73, 90, 65, 82, 68, 13, 67, 79, 85, 78, 84, 89, 13, 80, 65, 84, 82, 79, 76, 13, 83, 65, 78, 68, 87, 73, 67, 72, 13, 87, 65, 73, 84, 82, 69, 83, 83, 13, 87, 79, 82, 76, 68, 13, 83, 65, 85, 67, 69, 83, 13, 68, 82, 73, 86, 69, 82, 13], "trial": 5, "time_elapsed": 851417, "type": "FREE_RECALL", "trial_index": 187}, "uniqueid": "MTK3163:339ANSOTR69H0P9WHHYSLJZA9BCIKZ", "dateTime": 1520114230445}, {"current_trial": 188, "trialdata": {"rt": 1089, "trial_type": "text", "internal_node_id": "0.0-134.0", "time_elapsed": 854528, "key_press": 13, "type": "INSTRUCTIONS", "trial_index": 188}, "uniqueid": "MTK3163:339ANSOTR69H0P9WHHYSLJZA9BCIKZ", "dateTime": 1520114233538}, {"current_trial": 189, "trialdata": {"rt": [1867, 3394, 6315, 7639, 9207, 10694, 12215, 13687, 14970, 16401, 17996, 19997, 21735, 23309], "trial_type": "math-distractor", "key_times": [1692, 1777, 1867, 3186, 3313, 3394, 4737, 5194, 5293, 5415, 5601, 6119, 6315, 7475, 7544, 7639, 8925, 9141, 9207, 10325, 10618, 10694, 12012, 12125, 12215, 13347, 13614, 13687, 14886, 14970, 16149, 16268, 16401, 17787, 17907, 17996, 19087, 19509, 19997, 21468, 21633, 21735, 23009, 23214, 23309], "responses": ["21", "14", "20", "12", "15", "10", "22", "13", "8", "13", "15", "15", "17", "14"], "num2": [9, 3, 9, 5, 5, 1, 6, 1, 6, 8, 3, 9, 8, 2, 3], "num3": [9, 3, 7, 5, 1, 7, 7, 8, 1, 1, 4, 3, 6, 8, 4], "conditions": [12, 1600, "v", 24000], "internal_node_id": "0.0-135.0", "key_presses": [50, 49, 13, 49, 52, 13, 49, 8, 50, 48, 220, 8, 13, 49, 50, 13, 49, 53, 13, 49, 48, 13, 50, 50, 13, 49, 51, 13, 56, 13, 49, 51, 13, 49, 53, 13, 49, 53, 13, 49, 55, 13, 49, 52, 13], "trial": 6, "time_elapsed": 880538, "type": "DISTRACTOR", "trial_index": 189, "num1": [8, 8, 4, 2, 9, 2, 9, 4, 1, 4, 8, 3, 3, 4, 4]}, "uniqueid": "MTK3163:339ANSOTR69H0P9WHHYSLJZA9BCIKZ", "dateTime": 1520114259548}, {"current_trial": 190, "trialdata": {"rt": -1, "trial_type": "single-stim", "stimulus": "<p id=\"stim\">10</p>", "internal_node_id": "0.0-136.0-0.0", "time_elapsed": 883542, "key_press": -1, "trial_index": 190}, "uniqueid": "MTK3163:339ANSOTR69H0P9WHHYSLJZA9BCIKZ", "dateTime": 1520114262552}, {"current_trial": 191, "trialdata": {"rt": -1, "trial_type": "single-stim", "stimulus": "<p id=\"stim\">9</p>", "internal_node_id": "0.0-136.0-1.0", "time_elapsed": 884547, "key_press": -1, "trial_index": 191}, "uniqueid": "MTK3163:339ANSOTR69H0P9WHHYSLJZA9BCIKZ", "dateTime": 1520114263557}, {"current_trial": 192, "trialdata": {"rt": -1, "trial_type": "single-stim", "stimulus": "<p id=\"stim\">8</p>", "internal_node_id": "0.0-136.0-2.0", "time_elapsed": 885551, "key_press": -1, "trial_index": 192}, "uniqueid": "MTK3163:339ANSOTR69H0P9WHHYSLJZA9BCIKZ", "dateTime": 1520114264560}, {"current_trial": 193, "trialdata": {"rt": -1, "trial_type": "single-stim", "stimulus": "<p id=\"stim\">7</p>", "internal_node_id": "0.0-136.0-3.0", "time_elapsed": 886555, "key_press": -1, "trial_index": 193}, "uniqueid": "MTK3163:339ANSOTR69H0P9WHHYSLJZA9BCIKZ", "dateTime": 1520114265565}, {"current_trial": 194, "trialdata": {"rt": -1, "trial_type": "single-stim", "stimulus": "<p id=\"stim\">6</p>", "internal_node_id": "0.0-136.0-4.0", "time_elapsed": 887558, "key_press": -1, "trial_index": 194}, "uniqueid": "MTK3163:339ANSOTR69H0P9WHHYSLJZA9BCIKZ", "dateTime": 1520114266568}, {"current_trial": 195, "trialdata": {"rt": -1, "trial_type": "single-stim", "stimulus": "<p id=\"stim\">5</p>", "internal_node_id": "0.0-136.0-5.0", "time_elapsed": 888562, "key_press": -1, "trial_index": 195}, "uniqueid": "MTK3163:339ANSOTR69H0P9WHHYSLJZA9BCIKZ", "dateTime": 1520114267572}, {"current_trial": 196, "trialdata": {"rt": -1, "trial_type": "single-stim", "stimulus": "<p id=\"stim\">4</p>", "internal_node_id": "0.0-136.0-6.0", "time_elapsed": 889565, "key_press": -1, "trial_index": 196}, "uniqueid": "MTK3163:339ANSOTR69H0P9WHHYSLJZA9BCIKZ", "dateTime": 1520114268575}, {"current_trial": 197, "trialdata": {"rt": -1, "trial_type": "single-stim", "stimulus": "<p id=\"stim\">3</p>", "internal_node_id": "0.0-136.0-7.0", "time_elapsed": 890569, "key_press": -1, "trial_index": 197}, "uniqueid": "MTK3163:339ANSOTR69H0P9WHHYSLJZA9BCIKZ", "dateTime": 1520114269578}, {"current_trial": 198, "trialdata": {"rt": -1, "trial_type": "single-stim", "stimulus": "<p id=\"stim\">2</p>", "internal_node_id": "0.0-136.0-8.0", "time_elapsed": 891573, "key_press": -1, "trial_index": 198}, "uniqueid": "MTK3163:339ANSOTR69H0P9WHHYSLJZA9BCIKZ", "dateTime": 1520114270582}, {"current_trial": 199, "trialdata": {"rt": -1, "trial_type": "single-stim", "stimulus": "<p id=\"stim\">1</p>", "internal_node_id": "0.0-136.0-9.0", "time_elapsed": 892576, "key_press": -1, "trial_index": 199}, "uniqueid": "MTK3163:339ANSOTR69H0P9WHHYSLJZA9BCIKZ", "dateTime": 1520114271586}, {"current_trial": 200, "trialdata": {"rt": -1, "trial_type": "single-stim", "stimulus": "<p id=\"stim\">+</p>", "internal_node_id": "0.0-137.0-0.0", "time_elapsed": 894081, "key_press": -1, "type": "FIXATION", "trial_index": 200}, "uniqueid": "MTK3163:339ANSOTR69H0P9WHHYSLJZA9BCIKZ", "dateTime": 1520114273091}, {"current_trial": 201, "trialdata": {"rt": -1, "trial_type": "single-stim", "word": "proton", "stimulus": "<p id=\"stim\">PROTON</p>", "conditions": [12, 1600, "v", 24000], "internal_node_id": "0.0-138.0", "trial": 6, "time_elapsed": 895684, "serialpos": 0, "key_press": -1, "wordID": 1131, "type": "PRES_VIS", "trial_index": 201}, "uniqueid": "MTK3163:339ANSOTR69H0P9WHHYSLJZA9BCIKZ", "dateTime": 1520114274693}, {"current_trial": 202, "trialdata": {"rt": -1, "trial_type": "single-stim", "word": "parrot", "stimulus": "<p id=\"stim\">PARROT</p>", "conditions": [12, 1600, "v", 24000], "internal_node_id": "0.0-139.0", "trial": 6, "time_elapsed": 898487, "serialpos": 1, "key_press": -1, "wordID": 1014, "type": "PRES_VIS", "trial_index": 202}, "uniqueid": "MTK3163:339ANSOTR69H0P9WHHYSLJZA9BCIKZ", "dateTime": 1520114277496}, {"current_trial": 203, "trialdata": {"rt": -1, "trial_type": "single-stim", "word": "seal", "stimulus": "<p id=\"stim\">SEAL</p>", "conditions": [12, 1600, "v", 24000], "internal_node_id": "0.0-140.0", "trial": 6, "time_elapsed": 901219, "serialpos": 2, "key_press": -1, "wordID": 1261, "type": "PRES_VIS", "trial_index": 203}, "uniqueid": "MTK3163:339ANSOTR69H0P9WHHYSLJZA9BCIKZ", "dateTime": 1520114280228}, {"current_trial": 204, "trialdata": {"rt": -1, "trial_type": "single-stim", "word": "supper", "stimulus": "<p id=\"stim\">SUPPER</p>", "conditions": [12, 1600, "v", 24000], "internal_node_id": "0.0-141.0", "trial": 6, "time_elapsed": 903902, "serialpos": 3, "key_press": -1, "wordID": 1410, "type": "PRES_VIS", "trial_index": 204}, "uniqueid": "MTK3163:339ANSOTR69H0P9WHHYSLJZA9BCIKZ", "dateTime": 1520114282911}, {"current_trial": 205, "trialdata": {"rt": -1, "trial_type": "single-stim", "word": "laser", "stimulus": "<p id=\"stim\">LASER</p>", "conditions": [12, 1600, "v", 24000], "internal_node_id": "0.0-142.0", "trial": 6, "time_elapsed": 906357, "serialpos": 4, "key_press": -1, "wordID": 800, "type": "PRES_VIS", "trial_index": 205}, "uniqueid": "MTK3163:339ANSOTR69H0P9WHHYSLJZA9BCIKZ", "dateTime": 1520114285366}, {"current_trial": 206, "trialdata": {"rt": -1, "trial_type": "single-stim", "word": "guard", "stimulus": "<p id=\"stim\">GUARD</p>", "conditions": [12, 1600, "v", 24000], "internal_node_id": "0.0-143.0", "trial": 6, "time_elapsed": 908885, "serialpos": 5, "key_press": -1, "wordID": 666, "type": "PRES_VIS", "trial_index": 206}, "uniqueid": "MTK3163:339ANSOTR69H0P9WHHYSLJZA9BCIKZ", "dateTime": 1520114287894}, {"current_trial": 207, "trialdata": {"rt": -1, "trial_type": "single-stim", "word": "tourist", "stimulus": "<p id=\"stim\">TOURIST</p>", "conditions": [12, 1600, "v", 24000], "internal_node_id": "0.0-144.0", "trial": 6, "time_elapsed": 911670, "serialpos": 6, "key_press": -1, "wordID": 1487, "type": "PRES_VIS", "trial_index": 207}, "uniqueid": "MTK3163:339ANSOTR69H0P9WHHYSLJZA9BCIKZ", "dateTime": 1520114290679}, {"current_trial": 208, "trialdata": {"rt": -1, "trial_type": "single-stim", "word": "cross", "stimulus": "<p id=\"stim\">CROSS</p>", "conditions": [12, 1600, "v", 24000], "internal_node_id": "0.0-145.0", "trial": 6, "time_elapsed": 914203, "serialpos": 7, "key_press": -1, "wordID": 412, "type": "PRES_VIS", "trial_index": 208}, "uniqueid": "MTK3163:339ANSOTR69H0P9WHHYSLJZA9BCIKZ", "dateTime": 1520114293212}, {"current_trial": 209, "trialdata": {"rt": -1, "trial_type": "single-stim", "word": "possum", "stimulus": "<p id=\"stim\">POSSUM</p>", "conditions": [12, 1600, "v", 24000], "internal_node_id": "0.0-146.0", "trial": 6, "time_elapsed": 916732, "serialpos": 8, "key_press": -1, "wordID": 1111, "type": "PRES_VIS", "trial_index": 209}, "uniqueid": "MTK3163:339ANSOTR69H0P9WHHYSLJZA9BCIKZ", "dateTime": 1520114295742}, {"current_trial": 210, "trialdata": {"rt": -1, "trial_type": "single-stim", "word": "banquet", "stimulus": "<p id=\"stim\">BANQUET</p>", "conditions": [12, 1600, "v", 24000], "internal_node_id": "0.0-147.0", "trial": 6, "time_elapsed": 919324, "serialpos": 9, "key_press": -1, "wordID": 85, "type": "PRES_VIS", "trial_index": 210}, "uniqueid": "MTK3163:339ANSOTR69H0P9WHHYSLJZA9BCIKZ", "dateTime": 1520114298334}, {"current_trial": 211, "trialdata": {"rt": -1, "trial_type": "single-stim", "word": "nightgown", "stimulus": "<p id=\"stim\">NIGHTGOWN</p>", "conditions": [12, 1600, "v", 24000], "internal_node_id": "0.0-148.0", "trial": 6, "time_elapsed": 921894, "serialpos": 10, "key_press": -1, "wordID": 952, "type": "PRES_VIS", "trial_index": 211}, "uniqueid": "MTK3163:339ANSOTR69H0P9WHHYSLJZA9BCIKZ", "dateTime": 1520114300903}, {"current_trial": 212, "trialdata": {"rt": -1, "trial_type": "single-stim", "word": "tutu", "stimulus": "<p id=\"stim\">TUTU</p>", "conditions": [12, 1600, "v", 24000], "internal_node_id": "0.0-149.0", "trial": 6, "time_elapsed": 924349, "serialpos": 11, "key_press": -1, "wordID": 1523, "type": "PRES_VIS", "trial_index": 212}, "uniqueid": "MTK3163:339ANSOTR69H0P9WHHYSLJZA9BCIKZ", "dateTime": 1520114303359}, {"current_trial": 213, "trialdata": {"rt": -1, "trial_type": "single-stim", "stimulus": "", "internal_node_id": "0.0-150.0-0.0", "time_elapsed": 926570, "key_press": -1, "type": "PRE_RECALL_DELAY", "trial_index": 213}, "uniqueid": "MTK3163:339ANSOTR69H0P9WHHYSLJZA9BCIKZ", "dateTime": 1520114305580}, {"current_trial": 214, "trialdata": {"rt": -1000, "trial_type": "single-audio", "stimulus": "/static/audio/400Hz.wav", "internal_node_id": "0.0-151.0", "time_elapsed": 927075, "key_press": -1, "type": "PRE_RECALL_ALERT", "trial_index": 214}, "uniqueid": "MTK3163:339ANSOTR69H0P9WHHYSLJZA9BCIKZ", "dateTime": 1520114306084}, {"current_trial": 215, "trialdata": {"rt": [3030, 4858, 6158, 7310, 8393, 9768, 15106, 28437, 36030, 41391, 42659, 44737, 46722, 48099], "recwords": ["tutu", "seal", "proton", "supper", "laser", "gown", "nightgown", "seal", "guard", "cross", "tourist", "possums", "banquet", "hall"], "key_times": [1655, 1747, 1828, 1917, 2299, 2940, 3030, 3401, 3543, 3624, 3730, 4188, 4327, 4458, 4511, 4571, 4657, 4858, 5471, 5577, 5660, 5768, 5830, 6009, 6158, 6587, 6712, 6900, 7029, 7116, 7195, 7310, 7830, 7911, 7995, 8199, 8262, 8393, 9384, 9462, 9535, 9639, 9768, 13502, 13672, 13780, 13868, 13979, 14672, 14734, 14839, 14928, 15106, 27715, 28057, 28128, 28255, 28437, 35527, 35646, 35727, 35786, 35939, 36030, 40773, 40976, 41058, 41195, 41301, 41391, 41953, 42029, 42191, 42261, 42346, 42463, 42545, 42659, 43915, 44076, 44119, 44242, 44352, 44514, 44625, 44737, 45981, 46049, 46142, 46284, 46436, 46512, 46598, 46722, 47711, 47790, 47866, 47984, 48099], "trial_type": "free-recall", "conditions": [12, 1600, "v", 24000], "internal_node_id": "0.0-152.0-0.0", "key_presses": [84, 85, 84, 69, 8, 85, 13, 83, 65, 69, 76, 8, 8, 8, 69, 65, 76, 13, 80, 82, 79, 84, 79, 78, 13, 83, 85, 80, 80, 69, 82, 13, 76, 65, 83, 69, 82, 13, 71, 79, 87, 78, 13, 78, 73, 71, 72, 84, 71, 79, 87, 78, 13, 83, 69, 65, 76, 13, 71, 85, 65, 82, 68, 13, 67, 82, 79, 83, 83, 13, 84, 79, 85, 82, 73, 83, 84, 13, 80, 79, 83, 83, 85, 77, 83, 13, 66, 65, 78, 81, 85, 69, 84, 13, 72, 65, 76, 76, 13], "trial": 6, "time_elapsed": 987086, "type": "FREE_RECALL", "trial_index": 215}, "uniqueid": "MTK3163:339ANSOTR69H0P9WHHYSLJZA9BCIKZ", "dateTime": 1520114366116}, {"current_trial": 216, "trialdata": {"rt": 793, "trial_type": "text", "internal_node_id": "0.0-153.0", "time_elapsed": 989904, "key_press": 13, "type": "INSTRUCTIONS", "trial_index": 216}, "uniqueid": "MTK3163:339ANSOTR69H0P9WHHYSLJZA9BCIKZ", "dateTime": 1520114368913}, {"current_trial": 217, "trialdata": {"rt": [1744, 2846, 4256, 6200, 8098, 9490, 11130, 12847, 15280, 17141, 18862, 20173, 22242, 23984], "trial_type": "math-distractor", "key_times": [1242, 1611, 1744, 2633, 2715, 2846, 4055, 4125, 4256, 5721, 6096, 6200, 7999, 8098, 9088, 9400, 9490, 10933, 11051, 11130, 12628, 12757, 12847, 14644, 15155, 15280, 16572, 17064, 17141, 18428, 18782, 18862, 19990, 20056, 20173, 21902, 22167, 22242, 23634, 23903, 23984], "responses": ["19", "21", "21", "19", "8", "18", "22", "22", "13", "14", "20", "21", "17", "16"], "num2": [5, 7, 7, 2, 2, 7, 9, 8, 1, 3, 4, 6, 5, 4, 2], "num3": [7, 7, 9, 9, 2, 8, 4, 8, 7, 6, 7, 7, 5, 3, 4], "conditions": [24, 800, "v", 24000], "internal_node_id": "0.0-154.0", "key_presses": [49, 57, 13, 50, 49, 13, 50, 49, 13, 49, 57, 13, 56, 13, 49, 56, 13, 50, 50, 13, 50, 50, 13, 49, 51, 13, 49, 52, 13, 50, 48, 13, 50, 49, 13, 49, 55, 13, 49, 54, 13], "trial": 7, "time_elapsed": 1015915, "type": "DISTRACTOR", "trial_index": 217, "num1": [4, 7, 5, 8, 4, 3, 9, 4, 5, 5, 9, 8, 7, 9, 1]}, "uniqueid": "MTK3163:339ANSOTR69H0P9WHHYSLJZA9BCIKZ", "dateTime": 1520114394925}, {"current_trial": 218, "trialdata": {"rt": -1, "trial_type": "single-stim", "stimulus": "<p id=\"stim\">10</p>", "internal_node_id": "0.0-155.0-0.0", "time_elapsed": 1018919, "key_press": -1, "trial_index": 218}, "uniqueid": "MTK3163:339ANSOTR69H0P9WHHYSLJZA9BCIKZ", "dateTime": 1520114397930}, {"current_trial": 219, "trialdata": {"rt": -1, "trial_type": "single-stim", "stimulus": "<p id=\"stim\">9</p>", "internal_node_id": "0.0-155.0-1.0", "time_elapsed": 1019924, "key_press": -1, "trial_index": 219}, "uniqueid": "MTK3163:339ANSOTR69H0P9WHHYSLJZA9BCIKZ", "dateTime": 1520114398933}, {"current_trial": 220, "trialdata": {"rt": -1, "trial_type": "single-stim", "stimulus": "<p id=\"stim\">8</p>", "internal_node_id": "0.0-155.0-2.0", "time_elapsed": 1020927, "key_press": -1, "trial_index": 220}, "uniqueid": "MTK3163:339ANSOTR69H0P9WHHYSLJZA9BCIKZ", "dateTime": 1520114399937}, {"current_trial": 221, "trialdata": {"rt": -1, "trial_type": "single-stim", "stimulus": "<p id=\"stim\">7</p>", "internal_node_id": "0.0-155.0-3.0", "time_elapsed": 1021931, "key_press": -1, "trial_index": 221}, "uniqueid": "MTK3163:339ANSOTR69H0P9WHHYSLJZA9BCIKZ", "dateTime": 1520114400942}, {"current_trial": 222, "trialdata": {"rt": -1, "trial_type": "single-stim", "stimulus": "<p id=\"stim\">6</p>", "internal_node_id": "0.0-155.0-4.0", "time_elapsed": 1022936, "key_press": -1, "trial_index": 222}, "uniqueid": "MTK3163:339ANSOTR69H0P9WHHYSLJZA9BCIKZ", "dateTime": 1520114401945}, {"current_trial": 223, "trialdata": {"rt": -1, "trial_type": "single-stim", "stimulus": "<p id=\"stim\">5</p>", "internal_node_id": "0.0-155.0-5.0", "time_elapsed": 1023940, "key_press": -1, "trial_index": 223}, "uniqueid": "MTK3163:339ANSOTR69H0P9WHHYSLJZA9BCIKZ", "dateTime": 1520114402949}, {"current_trial": 224, "trialdata": {"rt": -1, "trial_type": "single-stim", "stimulus": "<p id=\"stim\">4</p>", "internal_node_id": "0.0-155.0-6.0", "time_elapsed": 1024943, "key_press": -1, "trial_index": 224}, "uniqueid": "MTK3163:339ANSOTR69H0P9WHHYSLJZA9BCIKZ", "dateTime": 1520114403953}, {"current_trial": 225, "trialdata": {"rt": -1, "trial_type": "single-stim", "stimulus": "<p id=\"stim\">3</p>", "internal_node_id": "0.0-155.0-7.0", "time_elapsed": 1025948, "key_press": -1, "trial_index": 225}, "uniqueid": "MTK3163:339ANSOTR69H0P9WHHYSLJZA9BCIKZ", "dateTime": 1520114404957}, {"current_trial": 226, "trialdata": {"rt": -1, "trial_type": "single-stim", "stimulus": "<p id=\"stim\">2</p>", "internal_node_id": "0.0-155.0-8.0", "time_elapsed": 1026950, "key_press": -1, "trial_index": 226}, "uniqueid": "MTK3163:339ANSOTR69H0P9WHHYSLJZA9BCIKZ", "dateTime": 1520114405960}, {"current_trial": 227, "trialdata": {"rt": -1, "trial_type": "single-stim", "stimulus": "<p id=\"stim\">1</p>", "internal_node_id": "0.0-155.0-9.0", "time_elapsed": 1027955, "key_press": -1, "trial_index": 227}, "uniqueid": "MTK3163:339ANSOTR69H0P9WHHYSLJZA9BCIKZ", "dateTime": 1520114406965}, {"current_trial": 228, "trialdata": {"rt": -1, "trial_type": "single-stim", "stimulus": "<p id=\"stim\">+</p>", "internal_node_id": "0.0-156.0-0.0", "time_elapsed": 1029459, "key_press": -1, "type": "FIXATION", "trial_index": 228}, "uniqueid": "MTK3163:339ANSOTR69H0P9WHHYSLJZA9BCIKZ", "dateTime": 1520114408468}, {"current_trial": 229, "trialdata": {"rt": -1, "trial_type": "single-stim", "word": "citrus", "stimulus": "<p id=\"stim\">CITRUS</p>", "conditions": [24, 800, "v", 24000], "internal_node_id": "0.0-157.0", "trial": 7, "time_elapsed": 1030262, "serialpos": 0, "key_press": -1, "wordID": 312, "type": "PRES_VIS", "trial_index": 229}, "uniqueid": "MTK3163:339ANSOTR69H0P9WHHYSLJZA9BCIKZ", "dateTime": 1520114409273}, {"current_trial": 230, "trialdata": {"rt": -1, "trial_type": "single-stim", "word": "grill", "stimulus": "<p id=\"stim\">GRILL</p>", "conditions": [24, 800, "v", 24000], "internal_node_id": "0.0-158.0", "trial": 7, "time_elapsed": 1032192, "serialpos": 1, "key_press": -1, "wordID": 660, "type": "PRES_VIS", "trial_index": 230}, "uniqueid": "MTK3163:339ANSOTR69H0P9WHHYSLJZA9BCIKZ", "dateTime": 1520114411202}, {"current_trial": 231, "trialdata": {"rt": -1, "trial_type": "single-stim", "word": "picnic", "stimulus": "<p id=\"stim\">PICNIC</p>", "conditions": [24, 800, "v", 24000], "internal_node_id": "0.0-159.0", "trial": 7, "time_elapsed": 1033979, "serialpos": 2, "key_press": -1, "wordID": 1059, "type": "PRES_VIS", "trial_index": 231}, "uniqueid": "MTK3163:339ANSOTR69H0P9WHHYSLJZA9BCIKZ", "dateTime": 1520114412988}, {"current_trial": 232, "trialdata": {"rt": -1, "trial_type": "single-stim", "word": "loft", "stimulus": "<p id=\"stim\">LOFT</p>", "conditions": [24, 800, "v", 24000], "internal_node_id": "0.0-160.0", "trial": 7, "time_elapsed": 1035925, "serialpos": 3, "key_press": -1, "wordID": 839, "type": "PRES_VIS", "trial_index": 232}, "uniqueid": "MTK3163:339ANSOTR69H0P9WHHYSLJZA9BCIKZ", "dateTime": 1520114414935}, {"current_trial": 233, "trialdata": {"rt": -1, "trial_type": "single-stim", "word": "poet", "stimulus": "<p id=\"stim\">POET</p>", "conditions": [24, 800, "v", 24000], "internal_node_id": "0.0-161.0", "trial": 7, "time_elapsed": 1037912, "serialpos": 4, "key_press": -1, "wordID": 1094, "type": "PRES_VIS", "trial_index": 233}, "uniqueid": "MTK3163:339ANSOTR69H0P9WHHYSLJZA9BCIKZ", "dateTime": 1520114416921}, {"current_trial": 234, "trialdata": {"rt": -1, "trial_type": "single-stim", "word": "patient", "stimulus": "<p id=\"stim\">PATIENT</p>", "conditions": [24, 800, "v", 24000], "internal_node_id": "0.0-162.0", "trial": 7, "time_elapsed": 1039669, "serialpos": 5, "key_press": -1, "wordID": 1023, "type": "PRES_VIS", "trial_index": 234}, "uniqueid": "MTK3163:339ANSOTR69H0P9WHHYSLJZA9BCIKZ", "dateTime": 1520114418678}, {"current_trial": 235, "trialdata": {"rt": -1, "trial_type": "single-stim", "word": "cellar", "stimulus": "<p id=\"stim\">CELLAR</p>", "conditions": [24, 800, "v", 24000], "internal_node_id": "0.0-163.0", "trial": 7, "time_elapsed": 1041362, "serialpos": 6, "key_press": -1, "wordID": 266, "type": "PRES_VIS", "trial_index": 235}, "uniqueid": "MTK3163:339ANSOTR69H0P9WHHYSLJZA9BCIKZ", "dateTime": 1520114420371}, {"current_trial": 236, "trialdata": {"rt": -1, "trial_type": "single-stim", "word": "grape", "stimulus": "<p id=\"stim\">GRAPE</p>", "conditions": [24, 800, "v", 24000], "internal_node_id": "0.0-164.0", "trial": 7, "time_elapsed": 1042998, "serialpos": 7, "key_press": -1, "wordID": 653, "type": "PRES_VIS", "trial_index": 236}, "uniqueid": "MTK3163:339ANSOTR69H0P9WHHYSLJZA9BCIKZ", "dateTime": 1520114422008}, {"current_trial": 237, "trialdata": {"rt": -1, "trial_type": "single-stim", "word": "actor", "stimulus": "<p id=\"stim\">ACTOR</p>", "conditions": [24, 800, "v", 24000], "internal_node_id": "0.0-165.0", "trial": 7, "time_elapsed": 1044964, "serialpos": 8, "key_press": -1, "wordID": 4, "type": "PRES_VIS", "trial_index": 237}, "uniqueid": "MTK3163:339ANSOTR69H0P9WHHYSLJZA9BCIKZ", "dateTime": 1520114423974}, {"current_trial": 238, "trialdata": {"rt": -1, "trial_type": "single-stim", "word": "actress", "stimulus": "<p id=\"stim\">ACTRESS</p>", "conditions": [24, 800, "v", 24000], "internal_node_id": "0.0-166.0", "trial": 7, "time_elapsed": 1046660, "serialpos": 9, "key_press": -1, "wordID": 5, "type": "PRES_VIS", "trial_index": 238}, "uniqueid": "MTK3163:339ANSOTR69H0P9WHHYSLJZA9BCIKZ", "dateTime": 1520114425673}, {"current_trial": 239, "trialdata": {"rt": -1, "trial_type": "single-stim", "word": "record", "stimulus": "<p id=\"stim\">RECORD</p>", "conditions": [24, 800, "v", 24000], "internal_node_id": "0.0-167.0", "trial": 7, "time_elapsed": 1048283, "serialpos": 10, "key_press": -1, "wordID": 1175, "type": "PRES_VIS", "trial_index": 239}, "uniqueid": "MTK3163:339ANSOTR69H0P9WHHYSLJZA9BCIKZ", "dateTime": 1520114427293}, {"current_trial": 240, "trialdata": {"rt": -1, "trial_type": "single-stim", "word": "washer", "stimulus": "<p id=\"stim\">WASHER</p>", "conditions": [24, 800, "v", 24000], "internal_node_id": "0.0-168.0", "trial": 7, "time_elapsed": 1050127, "serialpos": 11, "key_press": -1, "wordID": 1591, "type": "PRES_VIS", "trial_index": 240}, "uniqueid": "MTK3163:339ANSOTR69H0P9WHHYSLJZA9BCIKZ", "dateTime": 1520114429137}, {"current_trial": 241, "trialdata": {"rt": -1, "trial_type": "single-stim", "word": "briefcase", "stimulus": "<p id=\"stim\">BRIEFCASE</p>", "conditions": [24, 800, "v", 24000], "internal_node_id": "0.0-169.0", "trial": 7, "time_elapsed": 1052075, "serialpos": 12, "key_press": -1, "wordID": 174, "type": "PRES_VIS", "trial_index": 241}, "uniqueid": "MTK3163:339ANSOTR69H0P9WHHYSLJZA9BCIKZ", "dateTime": 1520114431084}, {"current_trial": 242, "trialdata": {"rt": -1, "trial_type": "single-stim", "word": "fragrance", "stimulus": "<p id=\"stim\">FRAGRANCE</p>", "conditions": [24, 800, "v", 24000], "internal_node_id": "0.0-170.0", "trial": 7, "time_elapsed": 1053954, "serialpos": 13, "key_press": -1, "wordID": 598, "type": "PRES_VIS", "trial_index": 242}, "uniqueid": "MTK3163:339ANSOTR69H0P9WHHYSLJZA9BCIKZ", "dateTime": 1520114432963}, {"current_trial": 243, "trialdata": {"rt": -1, "trial_type": "single