{"assignmentId": "3OS4RQUCRAMWXV3CAWFEJJ3S6IMBFE", "workerId": "MTK3114", "questiondata": {"origin": "United States", "strat-rehearsal": "5", "marital": "Single", "education": "Some college", "ethnicity": "Not Hispanic", "color_depth": 24, "distracted": "No", "wrote-notes": "No", "strat-other": "", "screen_width": 1920, "avail_screen_width": 1920, "avail_screen_height": 1050, "strat-image": "5", "language": "English", "gender": "Male", "age": "30", "gender_other": "", "race": ["White"], "strat-categorize": "90", "pixel_depth": 24, "strat-spatial": "0", "strat-story": "0", "race_other": "", "screen_height": 1080}, "bonus": 0, "hitId": "3DW3BNF1GHP04AT1HXV6LJKT2HJV88", "counterbalance": 2473, "useragent": "Mozilla/5.0 (Windows NT 10.0; Win64; x64) AppleWebKit/537.36 (KHTML, like Gecko) Chrome/64.0.3282.186 Safari/537.36", "eventdata": [{"eventtype": "initialized", "interval": 0, "value": null, "timestamp": 1520022774047}, {"eventtype": "window_resize", "interval": 0, "value": [1920, 1033], "timestamp": 1520022774047}, {"eventtype": "window_resize", "interval": 1867, "value": [1506, 806], "timestamp": 1520022775914}, {"eventtype": "focus", "interval": 4308, "value": "off", "timestamp": 1520022780222}, {"eventtype": "focus", "interval": 3947, "value": "on", "timestamp": 1520022784169}, {"eventtype": "focus", "interval": 54985, "value": "off", "timestamp": 1520022839154}, {"eventtype": "focus", "interval": 4302, "value": "on", "timestamp": 1520022843456}], "data": [{"current_trial": 0, "trialdata": {"rt": 5780, "trial_type": "text", "internal_node_id": "0.0-0.0", "time_elapsed": 5782, "key_press": 18, "type": "INSTRUCTIONS", "trial_index": 0}, "uniqueid": "MTK3114:3OS4RQUCRAMWXV3CAWFEJJ3S6IMBFE", "dateTime": 1520022780141}, {"current_trial": 1, "trialdata": {"rt": 5919, "trial_type": "text", "internal_node_id": "0.0-1.0", "time_elapsed": 11702, "key_press": 39, "type": "INSTRUCTIONS", "trial_index": 1}, "uniqueid": "MTK3114:3OS4RQUCRAMWXV3CAWFEJJ3S6IMBFE", "dateTime": 1520022786061}, {"current_trial": 2, "trialdata": {"rt": [4183], "trial_type": "audio-test", "responses": ["ocean"], "internal_node_id": "0.0-2.0", "time_elapsed": 15894, "type": "AUDIO_TEST", "trial_index": 2}, "uniqueid": "MTK3114:3OS4RQUCRAMWXV3CAWFEJJ3S6IMBFE", "dateTime": 1520022790253}, {"current_trial": 3, "trialdata": {"rt": [5077], "trial_type": "audio-test", "responses": ["crystal"], "internal_node_id": "0.0-3.0", "time_elapsed": 20974, "type": "AUDIO_TEST", "trial_index": 3}, "uniqueid": "MTK3114:3OS4RQUCRAMWXV3CAWFEJJ3S6IMBFE", "dateTime": 1520022795333}, {"current_trial": 4, "trialdata": {"rt": [4758], "trial_type": "audio-test", "responses": ["spice"], "internal_node_id": "0.0-4.0", "time_elapsed": 25733, "type": "AUDIO_TEST", "trial_index": 4}, "uniqueid": "MTK3114:3OS4RQUCRAMWXV3CAWFEJJ3S6IMBFE", "dateTime": 1520022800093}, {"current_trial": 5, "trialdata": {"rt": 21422, "trial_type": "survey-text", "responses": "{\"Q0\":\"6:00AM\",\"Q1\":\"12:30PM\",\"Q2\":\"4\"}", "internal_node_id": "0.0-5.0", "time_elapsed": 47907, "type": "SLEEP_SURVEY", "trial_index": 5}, "uniqueid": "MTK3114:3OS4RQUCRAMWXV3CAWFEJJ3S6IMBFE", "dateTime": 1520022822266}, {"current_trial": 6, "trialdata": {"rt": 97695, "trial_type": "text", "internal_node_id": "0.0-6.0", "time_elapsed": 146605, "key_press": 39, "type": "INSTRUCTIONS", "trial_index": 6}, "uniqueid": "MTK3114:3OS4RQUCRAMWXV3CAWFEJJ3S6IMBFE", "dateTime": 1520022920964}, {"current_trial": 7, "trialdata": {"rt": 14010, "trial_type": "text", "internal_node_id": "0.0-7.0", "time_elapsed": 161116, "key_press": 39, "type": "INSTRUCTIONS", "trial_index": 7}, "uniqueid": "MTK3114:3OS4RQUCRAMWXV3CAWFEJJ3S6IMBFE", "dateTime": 1520022935475}, {"current_trial": 8, "trialdata": {"rt": 16507, "trial_type": "text", "internal_node_id": "0.0-8.0", "time_elapsed": 178124, "key_press": 39, "type": "INSTRUCTIONS", "trial_index": 8}, "uniqueid": "MTK3114:3OS4RQUCRAMWXV3CAWFEJJ3S6IMBFE", "dateTime": 1520022952483}, {"current_trial": 9, "trialdata": {"rt": [3269, 5173, 7461, 10901, 14085, 15861], "trial_type": "math-distractor", "key_times": [2773, 2828, 3269, 5037, 5069, 5173, 7149, 7380, 7461, 10174, 10781, 10901, 13813, 13996, 14085, 15701, 15764, 15861], "responses": ["14", "13", "17", "15", "15", "24"], "num2": [2, 3, 2, 6, 5, 8, 3], "num3": [6, 4, 8, 8, 3, 8, 8], "conditions": [18, 1200, "v", 18000], "internal_node_id": "0.0-9.0", "key_presses": [49, 52, 13, 49, 51, 13, 49, 55, 13, 49, 53, 13, 49, 53, 13, 50, 52, 13], "trial": 0, "time_elapsed": 197129, "type": "DISTRACTOR", "trial_index": 9, "num1": [6, 6, 7, 1, 7, 8, 6]}, "uniqueid": "MTK3114:3OS4RQUCRAMWXV3CAWFEJJ3S6IMBFE", "dateTime": 1520022971488}, {"current_trial": 10, "trialdata": {"rt": -1, "trial_type": "single-stim", "stimulus": "<p id=\"stim\">10</p>", "internal_node_id": "0.0-10.0-0.0", "time_elapsed": 200132, "key_press": -1, "trial_index": 10}, "uniqueid": "MTK3114:3OS4RQUCRAMWXV3CAWFEJJ3S6IMBFE", "dateTime": 1520022974491}, {"current_trial": 11, "trialdata": {"rt": -1, "trial_type": "single-stim", "stimulus": "<p id=\"stim\">9</p>", "internal_node_id": "0.0-10.0-1.0", "time_elapsed": 201132, "key_press": -1, "trial_index": 11}, "uniqueid": "MTK3114:3OS4RQUCRAMWXV3CAWFEJJ3S6IMBFE", "dateTime": 1520022975491}, {"current_trial": 12, "trialdata": {"rt": -1, "trial_type": "single-stim", "stimulus": "<p id=\"stim\">8</p>", "internal_node_id": "0.0-10.0-2.0", "time_elapsed": 202134, "key_press": -1, "trial_index": 12}, "uniqueid": "MTK3114:3OS4RQUCRAMWXV3CAWFEJJ3S6IMBFE", "dateTime": 1520022976493}, {"current_trial": 13, "trialdata": {"rt": -1, "trial_type": "single-stim", "stimulus": "<p id=\"stim\">7</p>", "internal_node_id": "0.0-10.0-3.0", "time_elapsed": 203134, "key_press": -1, "trial_index": 13}, "uniqueid": "MTK3114:3OS4RQUCRAMWXV3CAWFEJJ3S6IMBFE", "dateTime": 1520022977493}, {"current_trial": 14, "trialdata": {"rt": -1, "trial_type": "single-stim", "stimulus": "<p id=\"stim\">6</p>", "internal_node_id": "0.0-10.0-4.0", "time_elapsed": 204136, "key_press": -1, "trial_index": 14}, "uniqueid": "MTK3114:3OS4RQUCRAMWXV3CAWFEJJ3S6IMBFE", "dateTime": 1520022978495}, {"current_trial": 15, "trialdata": {"rt": -1, "trial_type": "single-stim", "stimulus": "<p id=\"stim\">5</p>", "internal_node_id": "0.0-10.0-5.0", "time_elapsed": 205137, "key_press": -1, "trial_index": 15}, "uniqueid": "MTK3114:3OS4RQUCRAMWXV3CAWFEJJ3S6IMBFE", "dateTime": 1520022979496}, {"current_trial": 16, "trialdata": {"rt": -1, "trial_type": "single-stim", "stimulus": "<p id=\"stim\">4</p>", "internal_node_id": "0.0-10.0-6.0", "time_elapsed": 206138, "key_press": -1, "trial_index": 16}, "uniqueid": "MTK3114:3OS4RQUCRAMWXV3CAWFEJJ3S6IMBFE", "dateTime": 1520022980497}, {"current_trial": 17, "trialdata": {"rt": -1, "trial_type": "single-stim", "stimulus": "<p id=\"stim\">3</p>", "internal_node_id": "0.0-10.0-7.0", "time_elapsed": 207139, "key_press": -1, "trial_index": 17}, "uniqueid": "MTK3114:3OS4RQUCRAMWXV3CAWFEJJ3S6IMBFE", "dateTime": 1520022981498}, {"current_trial": 18, "trialdata": {"rt": -1, "trial_type": "single-stim", "stimulus": "<p id=\"stim\">2</p>", "internal_node_id": "0.0-10.0-8.0", "time_elapsed": 208140, "key_press": -1, "trial_index": 18}, "uniqueid": "MTK3114:3OS4RQUCRAMWXV3CAWFEJJ3S6IMBFE", "dateTime": 1520022982499}, {"current_trial": 19, "trialdata": {"rt": -1, "trial_type": "single-stim", "stimulus": "<p id=\"stim\">1</p>", "internal_node_id": "0.0-10.0-9.0", "time_elapsed": 209141, "key_press": -1, "trial_index": 19}, "uniqueid": "MTK3114:3OS4RQUCRAMWXV3CAWFEJJ3S6IMBFE", "dateTime": 1520022983500}, {"current_trial": 20, "trialdata": {"rt": -1, "trial_type": "single-stim", "stimulus": "<p id=\"stim\">+</p>", "internal_node_id": "0.0-11.0-0.0", "time_elapsed": 210642, "key_press": -1, "type": "FIXATION", "trial_index": 20}, "uniqueid": "MTK3114:3OS4RQUCRAMWXV3CAWFEJJ3S6IMBFE", "dateTime": 1520022985001}, {"current_trial": 21, "trialdata": {"rt": -1, "trial_type": "single-stim", "word": "scissors", "stimulus": "<p id=\"stim\">SCISSORS</p>", "conditions": [18, 1200, "v", 18000], "internal_node_id": "0.0-12.0", "trial": 0, "time_elapsed": 211843, "serialpos": 0, "key_press": -1, "wordID": 1249, "type": "PRES_VIS", "trial_index": 21}, "uniqueid": "MTK3114:3OS4RQUCRAMWXV3CAWFEJJ3S6IMBFE", "dateTime": 1520022986202}, {"current_trial": 22, "trialdata": {"rt": -1, "trial_type": "single-stim", "word": "suspect", "stimulus": "<p id=\"stim\">SUSPECT</p>", "conditions": [18, 1200, "v", 18000], "internal_node_id": "0.0-13.0", "trial": 0, "time_elapsed": 214163, "serialpos": 1, "key_press": -1, "wordID": 1414, "type": "PRES_VIS", "trial_index": 22}, "uniqueid": "MTK3114:3OS4RQUCRAMWXV3CAWFEJJ3S6IMBFE", "dateTime": 1520022988522}, {"current_trial": 23, "trialdata": {"rt": -1, "trial_type": "single-stim", "word": "hedge", "stimulus": "<p id=\"stim\">HEDGE</p>", "conditions": [18, 1200, "v", 18000], "internal_node_id": "0.0-14.0", "trial": 0, "time_elapsed": 216270, "serialpos": 2, "key_press": -1, "wordID": 698, "type": "PRES_VIS", "trial_index": 23}, "uniqueid": "MTK3114:3OS4RQUCRAMWXV3CAWFEJJ3S6IMBFE", "dateTime": 1520022990629}, {"current_trial": 24, "trialdata": {"rt": -1, "trial_type": "single-stim", "word": "marsh", "stimulus": "<p id=\"stim\">MARSH</p>", "conditions": [18, 1200, "v", 18000], "internal_node_id": "0.0-15.0", "trial": 0, "time_elapsed": 218352, "serialpos": 3, "key_press": -1, "wordID": 873, "type": "PRES_VIS", "trial_index": 24}, "uniqueid": "MTK3114:3OS4RQUCRAMWXV3CAWFEJJ3S6IMBFE", "dateTime": 1520022992711}, {"current_trial": 25, "trialdata": {"rt": -1, "trial_type": "single-stim", "word": "hood", "stimulus": "<p id=\"stim\">HOOD</p>", "conditions": [18, 1200, "v", 18000], "internal_node_id": "0.0-16.0", "trial": 0, "time_elapsed": 220487, "serialpos": 4, "key_press": -1, "wordID": 713, "type": "PRES_VIS", "trial_index": 25}, "uniqueid": "MTK3114:3OS4RQUCRAMWXV3CAWFEJJ3S6IMBFE", "dateTime": 1520022994846}, {"current_trial": 26, "trialdata": {"rt": -1, "trial_type": "single-stim", "word": "onion", "stimulus": "<p id=\"stim\">ONION</p>", "conditions": [18, 1200, "v", 18000], "internal_node_id": "0.0-17.0", "trial": 0, "time_elapsed": 222494, "serialpos": 5, "key_press": -1, "wordID": 976, "type": "PRES_VIS", "trial_index": 26}, "uniqueid": "MTK3114:3OS4RQUCRAMWXV3CAWFEJJ3S6IMBFE", "dateTime": 1520022996853}, {"current_trial": 27, "trialdata": {"rt": -1, "trial_type": "single-stim", "word": "beaver", "stimulus": "<p id=\"stim\">BEAVER</p>", "conditions": [18, 1200, "v", 18000], "internal_node_id": "0.0-18.0", "trial": 0, "time_elapsed": 224818, "serialpos": 6, "key_press": -1, "wordID": 108, "type": "PRES_VIS", "trial_index": 27}, "uniqueid": "MTK3114:3OS4RQUCRAMWXV3CAWFEJJ3S6IMBFE", "dateTime": 1520022999177}, {"current_trial": 28, "trialdata": {"rt": -1, "trial_type": "single-stim", "word": "daughter", "stimulus": "<p id=\"stim\">DAUGHTER</p>", "conditions": [18, 1200, "v", 18000], "internal_node_id": "0.0-19.0", "trial": 0, "time_elapsed": 227171, "serialpos": 7, "key_press": -1, "wordID": 441, "type": "PRES_VIS", "trial_index": 28}, "uniqueid": "MTK3114:3OS4RQUCRAMWXV3CAWFEJJ3S6IMBFE", "dateTime": 1520023001530}, {"current_trial": 29, "trialdata": {"rt": -1, "trial_type": "single-stim", "word": "blade", "stimulus": "<p id=\"stim\">BLADE</p>", "conditions": [18, 1200, "v", 18000], "internal_node_id": "0.0-20.0", "trial": 0, "time_elapsed": 229392, "serialpos": 8, "key_press": -1, "wordID": 133, "type": "PRES_VIS", "trial_index": 29}, "uniqueid": "MTK3114:3OS4RQUCRAMWXV3CAWFEJJ3S6IMBFE", "dateTime": 1520023003751}, {"current_trial": 30, "trialdata": {"rt": -1, "trial_type": "single-stim", "word": "cafe", "stimulus": "<p id=\"stim\">CAFE</p>", "conditions": [18, 1200, "v", 18000], "internal_node_id": "0.0-21.0", "trial": 0, "time_elapsed": 231513, "serialpos": 9, "key_press": -1, "wordID": 215, "type": "PRES_VIS", "trial_index": 30}, "uniqueid": "MTK3114:3OS4RQUCRAMWXV3CAWFEJJ3S6IMBFE", "dateTime": 1520023005873}, {"current_trial": 31, "trialdata": {"rt": -1, "trial_type": "single-stim", "word": "antler", "stimulus": "<p id=\"stim\">ANTLER</p>", "conditions": [18, 1200, "v", 18000], "internal_node_id": "0.0-22.0", "trial": 0, "time_elapsed": 233652, "serialpos": 10, "key_press": -1, "wordID": 28, "type": "PRES_VIS", "trial_index": 31}, "uniqueid": "MTK3114:3OS4RQUCRAMWXV3CAWFEJJ3S6IMBFE", "dateTime": 1520023008011}, {"current_trial": 32, "trialdata": {"rt": -1, "trial_type": "single-stim", "word": "sponge", "stimulus": "<p id=\"stim\">SPONGE</p>", "conditions": [18, 1200, "v", 18000], "internal_node_id": "0.0-23.0", "trial": 0, "time_elapsed": 236043, "serialpos": 11, "key_press": -1, "wordID": 1354, "type": "PRES_VIS", "trial_index": 32}, "uniqueid": "MTK3114:3OS4RQUCRAMWXV3CAWFEJJ3S6IMBFE", "dateTime": 1520023010402}, {"current_trial": 33, "trialdata": {"rt": -1, "trial_type": "single-stim", "word": "space", "stimulus": "<p id=\"stim\">SPACE</p>", "conditions": [18, 1200, "v", 18000], "internal_node_id": "0.0-24.0", "trial": 0, "time_elapsed": 238324, "serialpos": 12, "key_press": -1, "wordID": 1344, "type": "PRES_VIS", "trial_index": 33}, "uniqueid": "MTK3114:3OS4RQUCRAMWXV3CAWFEJJ3S6IMBFE", "dateTime": 1520023012683}, {"current_trial": 34, "trialdata": {"rt": -1, "trial_type": "single-stim", "word": "carriage", "stimulus": "<p id=\"stim\">CARRIAGE</p>", "conditions": [18, 1200, "v", 18000], "internal_node_id": "0.0-25.0", "trial": 0, "time_elapsed": 240705, "serialpos": 13, "key_press": -1, "wordID": 247, "type": "PRES_VIS", "trial_index": 34}, "uniqueid": "MTK3114:3OS4RQUCRAMWXV3CAWFEJJ3S6IMBFE", "dateTime": 1520023015064}, {"current_trial": 35, "trialdata": {"rt": -1, "trial_type": "single-stim", "word": "teacher", "stimulus": "<p id=\"stim\">TEACHER</p>", "conditions": [18, 1200, "v", 18000], "internal_node_id": "0.0-26.0", "trial": 0, "time_elapsed": 242732, "serialpos": 14, "key_press": -1, "wordID": 1439, "type": "PRES_VIS", "trial_index": 35}, "uniqueid": "MTK3114:3OS4RQUCRAMWXV3CAWFEJJ3S6IMBFE", "dateTime": 1520023017091}, {"current_trial": 36, "trialdata": {"rt": -1, "trial_type": "single-stim", "word": "dresser", "stimulus": "<p id=\"stim\">DRESSER</p>", "conditions": [18, 1200, "v", 18000], "internal_node_id": "0.0-27.0", "trial": 0, "time_elapsed": 244906, "serialpos": 15, "key_press": -1, "wordID": 495, "type": "PRES_VIS", "trial_index": 36}, "uniqueid": "MTK3114:3OS4RQUCRAMWXV3CAWFEJJ3S6IMBFE", "dateTime": 1520023019265}, {"current_trial": 37, "trialdata": {"rt": -1, "trial_type": "single-stim", "word": "record", "stimulus": "<p id=\"stim\">RECORD</p>", "conditions": [18, 1200, "v", 18000], "internal_node_id": "0.0-28.0", "trial": 0, "time_elapsed": 247301, "serialpos": 16, "key_press": -1, "wordID": 1175, "type": "PRES_VIS", "trial_index": 37}, "uniqueid": "MTK3114:3OS4RQUCRAMWXV3CAWFEJJ3S6IMBFE", "dateTime": 1520023021660}, {"current_trial": 38, "trialdata": {"rt": -1, "trial_type": "single-stim", "word": "barley", "stimulus": "<p id=\"stim\">BARLEY</p>", "conditions": [18, 1200, "v", 18000], "internal_node_id": "0.0-29.0", "trial": 0, "time_elapsed": 249471, "serialpos": 17, "key_press": -1, "wordID": 87, "type": "PRES_VIS", "trial_index": 38}, "uniqueid": "MTK3114:3OS4RQUCRAMWXV3CAWFEJJ3S6IMBFE", "dateTime": 1520023023830}, {"current_trial": 39, "trialdata": {"rt": -1, "trial_type": "single-stim", "stimulus": "", "internal_node_id": "0.0-30.0-0.0", "time_elapsed": 252064, "key_press": -1, "type": "PRE_RECALL_DELAY", "trial_index": 39}, "uniqueid": "MTK3114:3OS4RQUCRAMWXV3CAWFEJJ3S6IMBFE", "dateTime": 1520023026423}, {"current_trial": 40, "trialdata": {"rt": -1000, "trial_type": "single-audio", "stimulus": "/static/audio/400Hz.wav", "internal_node_id": "0.0-31.0", "time_elapsed": 252566, "key_press": -1, "type": "PRE_RECALL_ALERT", "trial_index": 40}, "uniqueid": "MTK3114:3OS4RQUCRAMWXV3CAWFEJJ3S6IMBFE", "dateTime": 1520023026925}, {"current_trial": 41, "trialdata": {"rt": [2868, 4268, 5556, 6461, 9405, 14573, 17893, 33892, 49180], "recwords": ["barley", "record", "hood", "blade", "beaver", "daughter", "onion", "antler", "scissor"], "key_times": [1589, 1844, 1916, 2029, 2132, 2189, 2868, 3444, 3524, 3684, 3781, 3900, 4037, 4268, 4613, 4701, 4844, 4933, 5556, 5885, 5989, 6117, 6181, 6301, 6461, 6900, 7204, 7333, 7445, 7717, 7788, 9405, 13269, 13380, 13548, 13668, 13781, 13861, 13997, 14061, 14573, 17164, 17388, 17460, 17612, 17692, 17893, 32276, 33132, 33333, 33437, 33532, 33644, 33724, 33772, 33892, 48285, 48476, 48589, 48693, 48860, 48908, 49044, 49180], "trial_type": "free-recall", "conditions": [18, 1200, "v", 18000], "internal_node_id": "0.0-32.0-0.0", "key_presses": [66, 65, 82, 76, 69, 89, 13, 82, 69, 67, 79, 82, 68, 13, 72, 79, 79, 68, 13, 66, 76, 65, 68, 69, 13, 66, 69, 65, 86, 69, 82, 13, 68, 65, 85, 71, 72, 84, 69, 82, 13, 79, 78, 73, 79, 78, 13, 84, 8, 65, 78, 84, 76, 69, 82, 13, 83, 67, 73, 83, 83, 79, 82, 13], "trial": 0, "time_elapsed": 312569, "type": "FREE_RECALL", "trial_index": 41}, "uniqueid": "MTK3114:3OS4RQUCRAMWXV3CAWFEJJ3S6IMBFE", "dateTime": 1520023086929}, {"current_trial": 42, "trialdata": {"rt": 1352, "trial_type": "text", "internal_node_id": "0.0-33.0", "time_elapsed": 315924, "key_press": 39, "type": "INSTRUCTIONS", "trial_index": 42}, "uniqueid": "MTK3114:3OS4RQUCRAMWXV3CAWFEJJ3S6IMBFE", "dateTime": 1520023090283}, {"current_trial": 43, "trialdata": {"rt": [2710, 5758, 7166, 9662, 13406, 15062, 17742], "trial_type": "math-distractor", "key_times": [2198, 2510, 2710, 5470, 5494, 5758, 7014, 7062, 7166, 9255, 9526, 9662, 13111, 13167, 13406, 14766, 14926, 15062, 17438, 17494, 17742], "responses": ["15", "13", "14", "17", "20", "11", "20"], "num2": [2, 4, 1, 3, 3, 7, 7, 7], "num3": [5, 4, 4, 9, 9, 3, 6, 1], "conditions": [18, 1200, "v", 18000], "internal_node_id": "0.0-34.0", "key_presses": [49, 53, 13, 49, 51, 13, 49, 52, 13, 49, 55, 13, 50, 48, 13, 49, 49, 13, 50, 48, 13], "trial": 1, "time_elapsed": 335926, "type": "DISTRACTOR", "trial_index": 43, "num1": [8, 5, 9, 5, 8, 1, 7, 2]}, "uniqueid": "MTK3114:3OS4RQUCRAMWXV3CAWFEJJ3S6IMBFE", "dateTime": 1520023110285}, {"current_trial": 44, "trialdata": {"rt": -1, "trial_type": "single-stim", "stimulus": "<p id=\"stim\">10</p>", "internal_node_id": "0.0-35.0-0.0", "time_elapsed": 338927, "key_press": -1, "trial_index": 44}, "uniqueid": "MTK3114:3OS4RQUCRAMWXV3CAWFEJJ3S6IMBFE", "dateTime": 1520023113287}, {"current_trial": 45, "trialdata": {"rt": -1, "trial_type": "single-stim", "stimulus": "<p id=\"stim\">9</p>", "internal_node_id": "0.0-35.0-1.0", "time_elapsed": 339929, "key_press": -1, "trial_index": 45}, "uniqueid": "MTK3114:3OS4RQUCRAMWXV3CAWFEJJ3S6IMBFE", "dateTime": 1520023114288}, {"current_trial": 46, "trialdata": {"rt": -1, "trial_type": "single-stim", "stimulus": "<p id=\"stim\">8</p>", "internal_node_id": "0.0-35.0-2.0", "time_elapsed": 340930, "key_press": -1, "trial_index": 46}, "uniqueid": "MTK3114:3OS4RQUCRAMWXV3CAWFEJJ3S6IMBFE", "dateTime": 1520023115289}, {"current_trial": 47, "trialdata": {"rt": -1, "trial_type": "single-stim", "stimulus": "<p id=\"stim\">7</p>", "internal_node_id": "0.0-35.0-3.0", "time_elapsed": 341932, "key_press": -1, "trial_index": 47}, "uniqueid": "MTK3114:3OS4RQUCRAMWXV3CAWFEJJ3S6IMBFE", "dateTime": 1520023116291}, {"current_trial": 48, "trialdata": {"rt": -1, "trial_type": "single-stim", "stimulus": "<p id=\"stim\">6</p>", "internal_node_id": "0.0-35.0-4.0", "time_elapsed": 342933, "key_press": -1, "trial_index": 48}, "uniqueid": "MTK3114:3OS4RQUCRAMWXV3CAWFEJJ3S6IMBFE", "dateTime": 1520023117292}, {"current_trial": 49, "trialdata": {"rt": -1, "trial_type": "single-stim", "stimulus": "<p id=\"stim\">5</p>", "internal_node_id": "0.0-35.0-5.0", "time_elapsed": 343933, "key_press": -1, "trial_index": 49}, "uniqueid": "MTK3114:3OS4RQUCRAMWXV3CAWFEJJ3S6IMBFE", "dateTime": 1520023118292}, {"current_trial": 50, "trialdata": {"rt": -1, "trial_type": "single-stim", "stimulus": "<p id=\"stim\">4</p>", "internal_node_id": "0.0-35.0-6.0", "time_elapsed": 344935, "key_press": -1, "trial_index": 50}, "uniqueid": "MTK3114:3OS4RQUCRAMWXV3CAWFEJJ3S6IMBFE", "dateTime": 1520023119294}, {"current_trial": 51, "trialdata": {"rt": -1, "trial_type": "single-stim", "stimulus": "<p id=\"stim\">3</p>", "internal_node_id": "0.0-35.0-7.0", "time_elapsed": 345936, "key_press": -1, "trial_index": 51}, "uniqueid": "MTK3114:3OS4RQUCRAMWXV3CAWFEJJ3S6IMBFE", "dateTime": 1520023120295}, {"current_trial": 52, "trialdata": {"rt": -1, "trial_type": "single-stim", "stimulus": "<p id=\"stim\">2</p>", "internal_node_id": "0.0-35.0-8.0", "time_elapsed": 346937, "key_press": -1, "trial_index": 52}, "uniqueid": "MTK3114:3OS4RQUCRAMWXV3CAWFEJJ3S6IMBFE", "dateTime": 1520023121296}, {"current_trial": 53, "trialdata": {"rt": -1, "trial_type": "single-stim", "stimulus": "<p id=\"stim\">1</p>", "internal_node_id": "0.0-35.0-9.0", "time_elapsed": 347937, "key_press": -1, "trial_index": 53}, "uniqueid": "MTK3114:3OS4RQUCRAMWXV3CAWFEJJ3S6IMBFE", "dateTime": 1520023122297}, {"current_trial": 54, "trialdata": {"rt": -1, "trial_type": "single-stim", "stimulus": "<p id=\"stim\">+</p>", "internal_node_id": "0.0-36.0-0.0", "time_elapsed": 349439, "key_press": -1, "type": "FIXATION", "trial_index": 54}, "uniqueid": "MTK3114:3OS4RQUCRAMWXV3CAWFEJJ3S6IMBFE", "dateTime": 1520023123798}, {"current_trial": 55, "trialdata": {"rt": -1, "trial_type": "single-stim", "word": "handbag", "stimulus": "<p id=\"stim\">HANDBAG</p>", "conditions": [18, 1200, "v", 18000], "internal_node_id": "0.0-37.0", "trial": 1, "time_elapsed": 350641, "serialpos": 0, "key_press": -1, "wordID": 683, "type": "PRES_VIS", "trial_index": 55}, "uniqueid": "MTK3114:3OS4RQUCRAMWXV3CAWFEJJ3S6IMBFE", "dateTime": 1520023125000}, {"current_trial": 56, "trialdata": {"rt": -1, "trial_type": "single-stim", "word": "grape", "stimulus": "<p id=\"stim\">GRAPE</p>", "conditions": [18, 1200, "v", 18000], "internal_node_id": "0.0-38.0", "trial": 1, "time_elapsed": 352791, "serialpos": 1, "key_press": -1, "wordID": 653, "type": "PRES_VIS", "trial_index": 56}, "uniqueid": "MTK3114:3OS4RQUCRAMWXV3CAWFEJJ3S6IMBFE", "dateTime": 1520023127150}, {"current_trial": 57, "trialdata": {"rt": -1, "trial_type": "single-stim", "word": "puddle", "stimulus": "<p id=\"stim\">PUDDLE</p>", "conditions": [18, 1200, "v", 18000], "internal_node_id": "0.0-39.0", "trial": 1, "time_elapsed": 354898, "serialpos": 2, "key_press": -1, "wordID": 1139, "type": "PRES_VIS", "trial_index": 57}, "uniqueid": "MTK3114:3OS4RQUCRAMWXV3CAWFEJJ3S6IMBFE", "dateTime": 1520023129257}, {"current_trial": 58, "trialdata": {"rt": -1, "trial_type": "single-stim", "word": "jelly", "stimulus": "<p id=\"stim\">JELLY</p>", "conditions": [18, 1200, "v", 18000], "internal_node_id": "0.0-40.0", "trial": 1, "time_elapsed": 357192, "serialpos": 3, "key_press": -1, "wordID": 754, "type": "PRES_VIS", "trial_index": 58}, "uniqueid": "MTK3114:3OS4RQUCRAMWXV3CAWFEJJ3S6IMBFE", "dateTime": 1520023131551}, {"current_trial": 59, "trialdata": {"rt": -1, "trial_type": "single-stim", "word": "tribe", "stimulus": "<p id=\"stim\">TRIBE</p>", "conditions": [18, 1200, "v", 18000], "internal_node_id": "0.0-41.0", "trial": 1, "time_elapsed": 359555, "serialpos": 4, "key_press": -1, "wordID": 1504, "type": "PRES_VIS", "trial_index": 59}, "uniqueid": "MTK3114:3OS4RQUCRAMWXV3CAWFEJJ3S6IMBFE", "dateTime": 1520023133914}, {"current_trial": 60, "trialdata": {"rt": -1, "trial_type": "single-stim", "word": "loft", "stimulus": "<p id=\"stim\">LOFT</p>", "conditions": [18, 1200, "v", 18000], "internal_node_id": "0.0-42.0", "trial": 1, "time_elapsed": 361689, "serialpos": 5, "key_press": -1, "wordID": 839, "type": "PRES_VIS", "trial_index": 60}, "uniqueid": "MTK3114:3OS4RQUCRAMWXV3CAWFEJJ3S6IMBFE", "dateTime": 1520023136048}, {"current_trial": 61, "trialdata": {"rt": -1, "trial_type": "single-stim", "word": "dustpan", "stimulus": "<p id=\"stim\">DUSTPAN</p>", "conditions": [18, 1200, "v", 18000], "internal_node_id": "0.0-43.0", "trial": 1, "time_elapsed": 363699, "serialpos": 6, "key_press": -1, "wordID": 508, "type": "PRES_VIS", "trial_index": 61}, "uniqueid": "MTK3114:3OS4RQUCRAMWXV3CAWFEJJ3S6IMBFE", "dateTime": 1520023138058}, {"current_trial": 62, "trialdata": {"rt": -1, "trial_type": "single-stim", "word": "bunny", "stimulus": "<p id=\"stim\">BUNNY</p>", "conditions": [18, 1200, "v", 18000], "internal_node_id": "0.0-44.0", "trial": 1, "time_elapsed": 365812, "serialpos": 7, "key_press": -1, "wordID": 197, "type": "PRES_VIS", "trial_index": 62}, "uniqueid": "MTK3114:3OS4RQUCRAMWXV3CAWFEJJ3S6IMBFE", "dateTime": 1520023140171}, {"current_trial": 63, "trialdata": {"rt": -1, "trial_type": "single-stim", "word": "picture", "stimulus": "<p id=\"stim\">PICTURE</p>", "conditions": [18, 1200, "v", 18000], "internal_node_id": "0.0-45.0", "trial": 1, "time_elapsed": 368182, "serialpos": 8, "key_press": -1, "wordID": 1060, "type": "PRES_VIS", "trial_index": 63}, "uniqueid": "MTK3114:3OS4RQUCRAMWXV3CAWFEJJ3S6IMBFE", "dateTime": 1520023142541}, {"current_trial": 64, "trialdata": {"rt": -1, "trial_type": "single-stim", "word": "lake", "stimulus": "<p id=\"stim\">LAKE</p>", "conditions": [18, 1200, "v", 18000], "internal_node_id": "0.0-46.0", "trial": 1, "time_elapsed": 370272, "serialpos": 9, "key_press": -1, "wordID": 795, "type": "PRES_VIS", "trial_index": 64}, "uniqueid": "MTK3114:3OS4RQUCRAMWXV3CAWFEJJ3S6IMBFE", "dateTime": 1520023144631}, {"current_trial": 65, "trialdata": {"rt": -1, "trial_type": "single-stim", "word": "mammal", "stimulus": "<p id=\"stim\">MAMMAL</p>", "conditions": [18, 1200, "v", 18000], "internal_node_id": "0.0-47.0", "trial": 1, "time_elapsed": 372663, "serialpos": 10, "key_press": -1, "wordID": 860, "type": "PRES_VIS", "trial_index": 65}, "uniqueid": "MTK3114:3OS4RQUCRAMWXV3CAWFEJJ3S6IMBFE", "dateTime": 1520023147022}, {"current_trial": 66, "trialdata": {"rt": -1, "trial_type": "single-stim", "word": "wardrobe", "stimulus": "<p id=\"stim\">WARDROBE</p>", "conditions": [18, 1200, "v", 18000], "internal_node_id": "0.0-48.0", "trial": 1, "time_elapsed": 374858, "serialpos": 11, "key_press": -1, "wordID": 1586, "type": "PRES_VIS", "trial_index": 66}, "uniqueid": "MTK3114:3OS4RQUCRAMWXV3CAWFEJJ3S6IMBFE", "dateTime": 1520023149217}, {"current_trial": 67, "trialdata": {"rt": -1, "trial_type": "single-stim", "word": "hostess", "stimulus": "<p id=\"stim\">HOSTESS</p>", "conditions": [18, 1200, "v", 18000], "internal_node_id": "0.0-49.0", "trial": 1, "time_elapsed": 376871, "serialpos": 12, "key_press": -1, "wordID": 722, "type": "PRES_VIS", "trial_index": 67}, "uniqueid": "MTK3114:3OS4RQUCRAMWXV3CAWFEJJ3S6IMBFE", "dateTime": 1520023151230}, {"current_trial": 68, "trialdata": {"rt": -1, "trial_type": "single-stim", "word": "cocktail", "stimulus": "<p id=\"stim\">COCKTAIL</p>", "conditions": [18, 1200, "v", 18000], "internal_node_id": "0.0-50.0", "trial": 1, "time_elapsed": 378903, "serialpos": 13, "key_press": -1, "wordID": 337, "type": "PRES_VIS", "trial_index": 68}, "uniqueid": "MTK3114:3OS4RQUCRAMWXV3CAWFEJJ3S6IMBFE", "dateTime": 1520023153263}, {"current_trial": 69, "trialdata": {"rt": -1, "trial_type": "single-stim", "word": "spoon", "stimulus": "<p id=\"stim\">SPOON</p>", "conditions": [18, 1200, "v", 18000], "internal_node_id": "0.0-51.0", "trial": 1, "time_elapsed": 381237, "serialpos": 14, "key_press": -1, "wordID": 1356, "type": "PRES_VIS", "trial_index": 69}, "uniqueid": "MTK3114:3OS4RQUCRAMWXV3CAWFEJJ3S6IMBFE", "dateTime": 1520023155596}, {"current_trial": 70, "trialdata": {"rt": -1, "trial_type": "single-stim", "word": "jury", "stimulus": "<p id=\"stim\">JURY</p>", "conditions": [18, 1200, "v", 18000], "internal_node_id": "0.0-52.0", "trial": 1, "time_elapsed": 383635, "serialpos": 15, "key_press": -1, "wordID": 765, "type": "PRES_VIS", "trial_index": 70}, "uniqueid": "MTK3114:3OS4RQUCRAMWXV3CAWFEJJ3S6IMBFE", "dateTime": 1520023157994}, {"current_trial": 71, "trialdata": {"rt": -1, "trial_type": "single-stim", "word": "helmet", "stimulus": "<p id=\"stim\">HELMET</p>", "conditions": [18, 1200, "v", 18000], "internal_node_id": "0.0-53.0", "trial": 1, "time_elapsed": 385955, "serialpos": 16, "key_press": -1, "wordID": 701, "type": "PRES_VIS", "trial_index": 71}, "uniqueid": "MTK3114:3OS4RQUCRAMWXV3CAWFEJJ3S6IMBFE", "dateTime": 1520023160314}, {"current_trial": 72, "trialdata": {"rt": -1, "trial_type": "single-stim", "word": "ox", "stimulus": "<p id=\"stim\">OX</p>", "conditions": [18, 1200, "v", 18000], "internal_node_id": "0.0-54.0", "trial": 1, "time_elapsed": 388225, "serialpos": 17, "key_press": -1, "wordID": 993, "type": "PRES_VIS", "trial_index": 72}, "uniqueid": "MTK3114:3OS4RQUCRAMWXV3CAWFEJJ3S6IMBFE", "dateTime": 1520023162584}, {"current_trial": 73, "trialdata": {"rt": -1, "trial_type": "single-stim", "stimulus": "", "internal_node_id": "0.0-55.0-0.0", "time_elapsed": 390599, "key_press": -1, "type": "PRE_RECALL_DELAY", "trial_index": 73}, "uniqueid": "MTK3114:3OS4RQUCRAMWXV3CAWFEJJ3S6IMBFE", "dateTime": 1520023164958}, {"current_trial": 74, "trialdata": {"rt": -1000, "trial_type": "single-audio", "stimulus": "/static/audio/400Hz.wav", "internal_node_id": "0.0-56.0", "time_elapsed": 391100, "key_press": -1, "type": "PRE_RECALL_ALERT", "trial_index": 74}, "uniqueid": "MTK3114:3OS4RQUCRAMWXV3CAWFEJJ3S6IMBFE", "dateTime": 1520023165459}, {"current_trial": 75, "trialdata": {"rt": [1997, 4366, 5909, 7254, 8573, 9830, 17373, 22366, 25614, 28245, 34429], "recwords": ["ox", "handbag", "jury", "puddle", "grape", "jelly", "hostess", "wardrobe", "bunny", "cocktail", "puddle"], "key_times": [1254, 1565, 1997, 2894, 2998, 3126, 3229, 3662, 3813, 3877, 4366, 5118, 5278, 5422, 5518, 5909, 6277, 6502, 6614, 6758, 6910, 7086, 7254, 7502, 7694, 7773, 7845, 7958, 8573, 9013, 9150, 9261, 9405, 9533, 9830, 16238, 16341, 16430, 16558, 16718, 16822, 17157, 17373, 21109, 21214, 21309, 21645, 21830, 21934, 22029, 22158, 22366, 24766, 24997, 25197, 25357, 25437, 25614, 26549, 26662, 26813, 26933, 27293, 27430, 27541, 27789, 28245, 33333, 33429, 33661, 33821, 33926, 34030, 34429], "trial_type": "free-recall", "conditions": [18, 1200, "v", 18000], "internal_node_id": "0.0-57.0-0.0", "key_presses": [79, 88, 13, 72, 65, 78, 68, 66, 65, 71, 13, 74, 85, 82, 89, 13, 80, 85, 68, 68, 76, 69, 13, 71, 82, 65, 80, 69, 13, 74, 69, 76, 76, 89, 13, 72, 79, 83, 84, 69, 83, 83, 13, 87, 65, 82, 68, 82, 79, 66, 69, 13, 66, 85, 78, 78, 89, 13, 67, 79, 67, 75, 84, 65, 73, 76, 13, 80, 85, 68, 68, 76, 69, 13], "trial": 1, "time_elapsed": 451102, "type": "FREE_RECALL", "trial_index": 75}, "uniqueid": "MTK3114:3OS4RQUCRAMWXV3CAWFEJJ3S6IMBFE", "dateTime": 1520023225462}, {"current_trial": 76, "trialdata": {"rt": 1730, "trial_type": "text", "internal_node_id": "0.0-58.0", "time_elapsed": 454835, "key_press": 39, "type": "INSTRUCTIONS", "trial_index": 76}, "uniqueid": "MTK3114:3OS4RQUCRAMWXV3CAWFEJJ3S6IMBFE", "dateTime": 1520023229194}, {"current_trial": 77, "trialdata": {"rt": [1926, 5174, 8046, 10334, 13614, 16542, 18830, 20461, 22157, 23406], "trial_type": "math-distractor", "key_times": [1286, 1686, 1926, 4710, 5014, 5174, 7687, 7742, 8046, 9878, 10222, 10334, 13246, 13502, 13614, 16110, 16430, 16542, 18518, 18734, 18830, 19982, 20333, 20461, 22037, 22157, 23309, 23406], "responses": ["17", "16", "13", "18", "17", "18", "14", "10", "8", "9"], "num2": [8, 7, 7, 4, 8, 5, 5, 7, 4, 3, 4], "num3": [8, 1, 1, 7, 5, 6, 8, 2, 3, 3, 6], "conditions": [24, 800, "v", 24000], "internal_node_id": "0.0-59.0", "key_presses": [49, 55, 13, 49, 54, 13, 49, 51, 13, 49, 56, 13, 49, 55, 13, 49, 56, 13, 49, 52, 13, 49, 48, 13, 56, 13, 57, 13], "trial": 2, "time_elapsed": 479836, "type": "DISTRACTOR", "trial_index": 77, "num1": [1, 8, 5, 7, 4, 7, 1, 1, 1, 3, 2]}, "uniqueid": "MTK3114:3OS4RQUCRAMWXV3CAWFEJJ3S6IMBFE", "dateTime": 1520023254196}, {"current_trial": 78, "trialdata": {"rt": -1, "trial_type": "single-stim", "stimulus": "<p id=\"stim\">10</p>", "internal_node_id": "0.0-60.0-0.0", "time_elapsed": 482838, "key_press": -1, "trial_index": 78}, "uniqueid": "MTK3114:3OS4RQUCRAMWXV3CAWFEJJ3S6IMBFE", "dateTime": 1520023257197}, {"current_trial": 79, "trialdata": {"rt": -1, "trial_type": "single-stim", "stimulus": "<p id=\"stim\">9</p>", "internal_node_id": "0.0-60.0-1.0", "time_elapsed": 483840, "key_press": -1, "trial_index": 79}, "uniqueid": "MTK3114:3OS4RQUCRAMWXV3CAWFEJJ3S6IMBFE", "dateTime": 1520023258199}, {"current_trial": 80, "trialdata": {"rt": -1, "trial_type": "single-stim", "stimulus": "<p id=\"stim\">8</p>", "internal_node_id": "0.0-60.0-2.0", "time_elapsed": 484841, "key_press": -1, "trial_index": 80}, "uniqueid": "MTK3114:3OS4RQUCRAMWXV3CAWFEJJ3S6IMBFE", "dateTime": 1520023259200}, {"current_trial": 81, "trialdata": {"rt": -1, "trial_type": "single-stim", "stimulus": "<p id=\"stim\">7</p>", "internal_node_id": "0.0-60.0-3.0", "time_elapsed": 485842, "key_press": -1, "trial_index": 81}, "uniqueid": "MTK3114:3OS4RQUCRAMWXV3CAWFEJJ3S6IMBFE", "dateTime": 1520023260201}, {"current_trial": 82, "trialdata": {"rt": -1, "trial_type": "single-stim", "stimulus": "<p id=\"stim\">6</p>", "internal_node_id": "0.0-60.0-4.0", "time_elapsed": 486842, "key_press": -1, "trial_index": 82}, "uniqueid": "MTK3114:3OS4RQUCRAMWXV3CAWFEJJ3S6IMBFE", "dateTime": 1520023261201}, {"current_trial": 83, "trialdata": {"rt": -1, "trial_type": "single-stim", "stimulus": "<p id=\"stim\">5</p>", "internal_node_id": "0.0-60.0-5.0", "time_elapsed": 487843, "key_press": -1, "trial_index": 83}, "uniqueid": "MTK3114:3OS4RQUCRAMWXV3CAWFEJJ3S6IMBFE", "dateTime": 1520023262202}, {"current_trial": 84, "trialdata": {"rt": -1, "trial_type": "single-stim", "stimulus": "<p id=\"stim\">4</p>", "internal_node_id": "0.0-60.0-6.0", "time_elapsed": 488845, "key_press": -1, "trial_index": 84}, "uniqueid": "MTK3114:3OS4RQUCRAMWXV3CAWFEJJ3S6IMBFE", "dateTime": 1520023263204}, {"current_trial": 85, "trialdata": {"rt": -1, "trial_type": "single-stim", "stimulus": "<p id=\"stim\">3</p>", "internal_node_id": "0.0-60.0-7.0", "time_elapsed": 489846, "key_press": -1, "trial_index": 85}, "uniqueid": "MTK3114:3OS4RQUCRAMWXV3CAWFEJJ3S6IMBFE", "dateTime": 1520023264205}, {"current_trial": 86, "trialdata": {"rt": -1, "trial_type": "single-stim", "stimulus": "<p id=\"stim\">2</p>", "internal_node_id": "0.0-60.0-8.0", "time_elapsed": 490847, "key_press": -1, "trial_index": 86}, "uniqueid": "MTK3114:3OS4RQUCRAMWXV3CAWFEJJ3S6IMBFE", "dateTime": 1520023265206}, {"current_trial": 87, "trialdata": {"rt": -1, "trial_type": "single-stim", "stimulus": "<p id=\"stim\">1</p>", "internal_node_id": "0.0-60.0-9.0", "time_elapsed": 491848, "key_press": -1, "trial_index": 87}, "uniqueid": "MTK3114:3OS4RQUCRAMWXV3CAWFEJJ3S6IMBFE", "dateTime": 1520023266207}, {"current_trial": 88, "trialdata": {"rt": -1, "trial_type": "single-stim", "stimulus": "<p id=\"stim\">+</p>", "internal_node_id": "0.0-61.0-0.0", "time_elapsed": 493348, "key_press": -1, "type": "FIXATION", "trial_index": 88}, "uniqueid": "MTK3114:3OS4RQUCRAMWXV3CAWFEJJ3S6IMBFE", "dateTime": 1520023267707}, {"current_trial": 89, "trialdata": {"rt": -1, "trial_type": "single-stim", "word": "banjo", "stimulus": "<p id=\"stim\">BANJO</p>", "conditions": [24, 800, "v", 24000], "internal_node_id": "0.0-62.0", "trial": 2, "time_elapsed": 494150, "serialpos": 0, "key_press": -1, "wordID": 81, "type": "PRES_VIS", "trial_index": 89}, "uniqueid": "MTK3114:3OS4RQUCRAMWXV3CAWFEJJ3S6IMBFE", "dateTime": 1520023268509}, {"current_trial": 90, "trialdata": {"rt": -1, "trial_type": "single-stim", "word": "carrot", "stimulus": "<p id=\"stim\">CARROT</p>", "conditions": [24, 800, "v", 24000], "internal_node_id": "0.0-63.0", "trial": 2, "time_elapsed": 496046, "serialpos": 1, "key_press": -1, "wordID": 248, "type": "PRES_VIS", "trial_index": 90}, "uniqueid": "MTK3114:3OS4RQUCRAMWXV3CAWFEJJ3S6IMBFE", "dateTime": 1520023270406}, {"current_trial": 91, "trialdata": {"rt": -1, "trial_type": "single-stim", "word": "poet", "stimulus": "<p id=\"stim\">POET</p>", "conditions": [24, 800, "v", 24000], "internal_node_id": "0.0-64.0", "trial": 2, "time_elapsed": 497730, "serialpos": 2, "key_press": -1, "wordID": 1094, "type": "PRES_VIS", "trial_index": 91}, "uniqueid": "MTK3114:3OS4RQUCRAMWXV3CAWFEJJ3S6IMBFE", "dateTime": 1520023272089}, {"current_trial": 92, "trialdata": {"rt": -1, "trial_type": "single-stim", "word": "dorm", "stimulus": "<p id=\"stim\">DORM</p>", "conditions": [24, 800, "v", 24000], "internal_node_id": "0.0-65.0", "trial": 2, "time_elapsed": 499642, "serialpos": 3, "key_press": -1, "wordID": 487, "type": "PRES_VIS", "trial_index": 92}, "uniqueid": "MTK3114:3OS4RQUCRAMWXV3CAWFEJJ3S6IMBFE", "dateTime": 1520023274001}, {"current_trial": 93, "trialdata": {"rt": -1, "trial_type": "single-stim", "word": "cottage", "stimulus": "<p id=\"stim\">COTTAGE</p>", "conditions": [24, 800, "v", 24000], "internal_node_id": "0.0-66.0", "trial": 2, "time_elapsed": 501280, "serialpos": 4, "key_press": -1, "wordID": 383, "type": "PRES_VIS", "trial_index": 93}, "uniqueid": "MTK3114:3OS4RQUCRAMWXV3CAWFEJJ3S6IMBFE", "dateTime": 1520023275639}, {"current_trial": 94, "trialdata": {"rt": -1, "trial_type": "single-stim", "word": "mister", "stimulus": "<p id=\"stim\">MISTER</p>", "conditions": [24, 800, "v", 24000], "internal_node_id": "0.0-67.0", "trial": 2, "time_elapsed": 502973, "serialpos": 5, "key_press": -1, "wordID": 900, "type": "PRES_VIS", "trial_index": 94}, "uniqueid": "MTK3114:3OS4RQUCRAMWXV3CAWFEJJ3S6IMBFE", "dateTime": 1520023277332}, {"current_trial": 95, "trialdata": {"rt": -1, "trial_type": "single-stim", "word": "costume", "stimulus": "<p id=\"stim\">COSTUME</p>", "conditions": [24, 800, "v", 24000], "internal_node_id": "0.0-68.0", "trial": 2, "time_elapsed": 504696, "serialpos": 6, "key_press": -1, "wordID": 382, "type": "PRES_VIS", "trial_index": 95}, "uniqueid": "MTK3114:3OS4RQUCRAMWXV3CAWFEJJ3S6IMBFE", "dateTime": 1520023279056}, {"current_trial": 96, "trialdata": {"rt": -1, "trial_type": "single-stim", "word": "harp", "stimulus": "<p id=\"stim\">HARP</p>", "conditions": [24, 800, "v", 24000], "internal_node_id": "0.0-69.0", "trial": 2, "time_elapsed": 506698, "serialpos": 7, "key_press": -1, "wordID": 688, "type": "PRES_VIS", "trial_index": 96}, "uniqueid": "MTK3114:3OS4RQUCRAMWXV3CAWFEJJ3S6IMBFE", "dateTime": 1520023281057}, {"current_trial": 97, "trialdata": {"rt": -1, "trial_type": "single-stim", "word": "backbone", "stimulus": "<p id=\"stim\">BACKBONE</p>", "conditions": [24, 800, "v", 24000], "internal_node_id": "0.0-70.0", "trial": 2, "time_elapsed": 508308, "serialpos": 8, "key_press": -1, "wordID": 65, "type": "PRES_VIS", "trial_index": 97}, "uniqueid": "MTK3114:3OS4RQUCRAMWXV3CAWFEJJ3S6IMBFE", "dateTime": 1520023282667}, {"current_trial": 98, "trialdata": {"rt": -1, "trial_type": "single-stim", "word": "dancer", "stimulus": "<p id=\"stim\">DANCER</p>", "conditions": [24, 800, "v", 24000], "internal_node_id": "0.0-71.0", "trial": 2, "time_elapsed": 509910, "serialpos": 9, "key_press": -1, "wordID": 436, "type": "PRES_VIS", "trial_index": 98}, "uniqueid": "MTK3114:3OS4RQUCRAMWXV3CAWFEJJ3S6IMBFE", "dateTime": 1520023284269}, {"current_trial": 99, "trialdata": {"rt": -1, "trial_type": "single-stim", "word": "knife", "stimulus": "<p id=\"stim\">KNIFE</p>", "conditions": [24, 800, "v", 24000], "internal_node_id": "0.0-72.0", "trial": 2, "time_elapsed": 511821, "serialpos": 10, "key_press": -1, "wordID": 784, "type": "PRES_VIS", "trial_index": 99}, "uniqueid": "MTK3114:3OS4RQUCRAMWXV3CAWFEJJ3S6IMBFE", "dateTime": 1520023286180}, {"current_trial": 100, "trialdata": {"rt": -1, "trial_type": "single-stim", "word": "sword", "stimulus": "<p id=\"stim\">SWORD</p>", "conditions": [24, 800, "v", 24000], "internal_node_id": "0.0-73.0", "trial": 2, "time_elapsed": 513808, "serialpos": 11, "key_press": -1, "wordID": 1422, "type": "PRES_VIS", "trial_index": 100}, "uniqueid": "MTK3114:3OS4RQUCRAMWXV3CAWFEJJ3S6IMBFE", "dateTime": 1520023288168}, {"current_trial": 101, "trialdata": {"rt": -1, "trial_type": "single-stim", "word": "jello", "stimulus": "<p id=\"stim\">JELLO</p>", "conditions": [24, 800, "v", 24000], "internal_node_id": "0.0-74.0", "trial": 2, "time_elapsed": 515439, "serialpos": 12, "key_press": -1, "wordID": 753, "type": "PRES_VIS", "trial_index": 101}, "uniqueid": "MTK3114:3OS4RQUCRAMWXV3CAWFEJJ3S6IMBFE", "dateTime": 1520023289798}, {"current_trial": 102, "trialdata": {"rt": -1, "trial_type": "single-stim", "word": "sibling", "stimulus": "<p id=\"stim\">SIBLING</p>", "conditions": [24, 800, "v", 24000], "internal_node_id": "0.0-75.0", "trial": 2, "time_elapsed": 517081, "serialpos": 13, "key_press": -1, "wordID": 1300, "type": "PRES_VIS", "trial_index": 102}, "uniqueid": "MTK3114:3OS4RQUCRAMWXV3CAWFEJJ3S6IMBFE", "dateTime": 1520023291440}, {"current_trial": 103, "trialdata": {"rt": -1, "trial_type": "single-stim", "word": "twig", "stimulus": "<p id=\"stim\">TWIG</p>", "conditions": [24, 800, "v", 24000], "internal_node_id": "0.0-76.0", "trial": 2, "time_elapsed": 519011, "serialpos": 14, "key_press": -1, "wordID": 1526, "type": "PRES_VIS", "trial_index": 103}, "uniqueid": "MTK3114:3OS4RQUCRAMWXV3CAWFEJJ3S6IMBFE", "dateTime": 1520023293370}, {"current_trial": 104, "trialdata": {"rt": -1, "trial_type": "single-stim", "word": "lapel", "stimulus": "<p id=\"stim\">LAPEL</p>", "conditions": [24, 800, "v", 24000], "internal_node_id": "0.0-77.0", "trial": 2, "time_elapsed": 520851, "serialpos": 15, "key_press": -1, "wordID": 799, "type": "PRES_VIS", "trial_index": 104}, "uniqueid": "MTK3114:3OS4RQUCRAMWXV3CAWFEJJ3S6IMBFE", "dateTime": 1520023295210}, {"current_trial": 105, "trialdata": {"rt": -1, "trial_type": "single-stim", "word": "chemist", "stimulus": "<p id=\"stim\">CHEMIST</p>", "conditions": [24, 800, "v", 24000], "internal_node_id": "0.0-78.0", "trial": 2, "time_elapsed": 522655, "serialpos": 16, "key_press": -1, "wordID": 291, "type": "PRES_VIS", "trial_index": 105}, "uniqueid": "MTK3114:3OS4RQUCRAMWXV3CAWFEJJ3S6IMBFE", "dateTime": 1520023297014}, {"current_trial": 106, "trialdata": {"rt": -1, "trial_type": "single-stim", "word": "wasp", "stimulus": "<p id=\"stim\">WASP</p>", "conditions": [24, 800, "v", 24000], "internal_node_id": "0.0-79.0", "trial": 2, "time_elapsed": 524364, "serialpos": 17, "key_press": -1, "wordID": 1592, "type": "PRES_VIS", "trial_index": 106}, "uniqueid": "MTK3114:3OS4RQUCRAMWXV3CAWFEJJ3S6IMBFE", "dateTime": 1520023298723}, {"current_trial": 107, "trialdata": {"rt": -1, "trial_type": "single-stim", "word": "treat", "stimulus": "<p id=\"stim\">TREAT</p>", "conditions": [24, 800, "v", 24000], "internal_node_id": "0.0-80.0", "trial": 2, "time_elapsed": 526324, "serialpos": 18, "key_press": -1, "wordID": 1500, "type": "PRES_VIS", "trial_index": 107}, "uniqueid": "MTK3114:3OS4RQUCRAMWXV3CAWFEJJ3S6IMBFE", "dateTime": 1520023300683}, {"current_trial": 108, "trialdata": {"rt": -1, "trial_type": "single-stim", "word": "postage", "stimulus": "<p id=\"stim\">POSTAGE</p>", "conditions": [24, 800, "v", 24000], "internal_node_id": "0.0-81.0", "trial": 2, "time_elapsed": 528001, "serialpos": 19, "key_press": -1, "wordID": 1112, "type": "PRES_VIS", "trial_index": 108}, "uniqueid": "MTK3114:3OS4RQUCRAMWXV3CAWFEJJ3S6IMBFE", "dateTime": 1520023302360}, {"current_trial": 109, "trialdata": {"rt": -1, "trial_type": "single-stim", "word": "turnip", "stimulus": "<p id=\"stim\">TURNIP</p>", "conditions": [24, 800, "v", 24000], "internal_node_id": "0.0-82.0", "trial": 2, "time_elapsed": 529771, "serialpos": 20, "key_press": -1, "wordID": 1520, "type": "PRES_VIS", "trial_index": 109}, "uniqueid": "MTK3114:3OS4RQUCRAMWXV3CAWFEJJ3S6IMBFE", "dateTime": 1520023304130}, {"current_trial": 110, "trialdata": {"rt": -1, "trial_type": "single-stim", "word": "radish", "stimulus": "<p id=\"stim\">RADISH</p>", "conditions": [24, 800, "v", 24000], "internal_node_id": "0.0-83.0", "trial": 2, "time_elapsed": 531584, "serialpos": 21, "key_press": -1, "wordID": 1157, "type": "PRES_VIS", "trial_index": 110}, "uniqueid": "MTK3114:3OS4RQUCRAMWXV3CAWFEJJ3S6IMBFE", "dateTime": 1520023305943}, {"current_trial": 111, "trialdata": {"rt": -1, "trial_type": "single-stim", "word": "hornet", "stimulus": "<p id=\"stim\">HORNET</p>", "conditions": [24, 800, "v", 24000], "internal_node_id": "0.0-84.0", "trial": 2, "time_elapsed": 533484, "serialpos": 22, "key_press": -1, "wordID": 717, "type": "PRES_VIS", "trial_index": 111}, "uniqueid": "MTK3114:3OS4RQUCRAMWXV3CAWFEJJ3S6IMBFE", "dateTime": 1520023307843}, {"current_trial": 112, "trialdata": {"rt": -1, "trial_type": "single-stim", "word": "garlic", "stimulus": "<p id=\"stim\">GARLIC</p>", "conditions": [24, 800, "v", 24000], "internal_node_id": "0.0-85.0", "trial": 2, "time_elapsed": 535155, "serialpos": 23, "key_press": -1, "wordID": 623, "type": "PRES_VIS", "trial_index": 112}, "uniqueid": "MTK3114:3OS4RQUCRAMWXV3CAWFEJJ3S6IMBFE", "dateTime": 1520023309514}, {"current_trial": 113, "trialdata": {"rt": -1, "trial_type": "single-stim", "stimulus": "", "internal_node_id": "0.0-86.0-0.0", "time_elapsed": 537705, "key_press": -1, "type": "PRE_RECALL_DELAY", "trial_index": 113}, "uniqueid": "MTK3114:3OS4RQUCRAMWXV3CAWFEJJ3S6IMBFE", "dateTime": 1520023312064}, {"current_trial": 114, "trialdata": {"rt": -1000, "trial_type": "single-audio", "stimulus": "/static/audio/400Hz.wav", "internal_node_id": "0.0-87.0", "time_elapsed": 538210, "key_press": -1, "type": "PRE_RECALL_ALERT", "trial_index": 114}, "uniqueid": "MTK3114:3OS4RQUCRAMWXV3CAWFEJJ3S6IMBFE", "dateTime": 1520023312569}, {"current_trial": 115, "trialdata": {"rt": [2742, 5551, 7735, 9566, 12255, 14358, 28279, 38927, 59111], "recwords": ["mister", "sword", "turnip", "radish", "dorm", "carrot", "jello", "banjo", "blade"], "key_times": [1415, 1463, 1615, 1727, 1863, 1943, 2742, 4111, 4295, 4511, 4679, 4847, 5551, 6591, 6719, 6790, 6943, 7079, 7295, 7735, 8454, 8598, 8678, 8998, 9103, 9159, 9566, 10639, 10759, 11022, 11103, 12255, 13303, 13415, 13527, 13678, 13766, 13887, 14358, 27503, 27679, 27759, 27903, 28038, 28279, 38119, 38238, 38367, 38566, 38662, 38927, 58454, 58726, 58822, 58886, 59022, 59111], "trial_type": "free-recall", "conditions": [24, 800, "v", 24000], "internal_node_id": "0.0-88.0-0.0", "key_presses": [77, 73, 83, 84, 69, 82, 13, 83, 87, 79, 82, 68, 13, 84, 85, 82, 78, 73, 80, 13, 82, 65, 68, 73, 83, 72, 13, 68, 79, 82, 77, 13, 67, 65, 82, 82, 79, 84, 13, 74, 69, 76, 76, 79, 13, 66, 65, 78, 74, 79, 13, 66, 76, 65, 68, 69, 13], "trial": 2, "time_elapsed": 598212, "type": "FREE_RECALL", "trial_index": 115}, "uniqueid": "MTK3114:3OS4RQUCRAMWXV3CAWFEJJ3S6IMBFE", "dateTime": 1520023372572}, {"current_trial": 116, "trialdata": {"rt": 1443, "trial_type": "text", "internal_node_id": "0.0-89.0", "time_elapsed": 601658, "key_press": 39, "type": "INSTRUCTIONS", "trial_index": 116}, "uniqueid": "MTK3114:3OS4RQUCRAMWXV3CAWFEJJ3S6IMBFE", "dateTime": 1520023376017}, {"current_trial": 117, "trialdata": {"rt": [1510, 4310, 6454, 8622, 10398], "trial_type": "math-distractor", "key_times": [1310, 1375, 1510, 4166, 4222, 4310, 6374, 6454, 8255, 8510, 8622, 10214, 10287, 10398, 11854], "responses": ["13", "13", "7", "17", "14"], "num2": [3, 2, 1, 6, 4, 2], "num3": [1, 5, 2, 2, 1, 9], "conditions": [12, 1600, "v", 12000], "internal_node_id": "0.0-90.0", "key_presses": [49, 51, 13, 49, 51, 13, 55, 13, 49, 55, 13, 49, 52, 13, 50], "trial": 3, "time_elapsed": 615660, "type": "DISTRACTOR", "trial_index": 117, "num1": [9, 6, 4, 9, 9, 9]}, "uniqueid": "MTK3114:3OS4RQUCRAMWXV3CAWFEJJ3S6IMBFE", "dateTime": 1520023390019}, {"current_trial": 118, "trialdata": {"rt": -1, "trial_type": "single-stim", "stimulus": "<p id=\"stim\">10</p>", "internal_node_id": "0.0-91.0-0.0", "time_elapsed": 618662, "key_press": -1, "trial_index": 118}, "uniqueid": "MTK3114:3OS4RQUCRAMWXV3CAWFEJJ3S6IMBFE", "dateTime": 1520023393021}, {"current_trial": 119, "trialdata": {"rt": -1, "trial_type": "single-stim", "stimulus": "<p id=\"stim\">9</p>", "internal_node_id": "0.0-91.0-1.0", "time_elapsed": 619662, "key_press": -1, "trial_index": 119}, "uniqueid": "MTK3114:3OS4RQUCRAMWXV3CAWFEJJ3S6IMBFE", "dateTime": 1520023394021}, {"current_trial": 120, "trialdata": {"rt": -1, "trial_type": "single-stim", "stimulus": "<p id=\"stim\">8</p>", "internal_node_id": "0.0-91.0-2.0", "time_elapsed": 620664, "key_press": -1, "trial_index": 120}, "uniqueid": "MTK3114:3OS4RQUCRAMWXV3CAWFEJJ3S6IMBFE", "dateTime": 1520023395023}, {"current_trial": 121, "trialdata": {"rt": -1, "trial_type": "single-stim", "stimulus": "<p id=\"stim\">7</p>", "internal_node_id": "0.0-91.0-3.0", "time_elapsed": 621665, "key_press": -1, "trial_index": 121}, "uniqueid": "MTK3114:3OS4RQUCRAMWXV3CAWFEJJ3S6IMBFE", "dateTime": 1520023396024}, {"current_trial": 122, "trialdata": {"rt": -1, "trial_type": "single-stim", "stimulus": "<p id=\"stim\">6</p>", "internal_node_id": "0.0-91.0-4.0", "time_elapsed": 622666, "key_press": -1, "trial_index": 122}, "uniqueid": "MTK3114:3OS4RQUCRAMWXV3CAWFEJJ3S6IMBFE", "dateTime": 1520023397025}, {"current_trial": 123, "trialdata": {"rt": -1, "trial_type": "single-stim", "stimulus": "<p id=\"stim\">5</p>", "internal_node_id": "0.0-91.0-5.0", "time_elapsed": 623669, "key_press": -1, "trial_index": 123}, "uniqueid": "MTK3114:3OS4RQUCRAMWXV3CAWFEJJ3S6IMBFE", "dateTime": 1520023398028}, {"current_trial": 124, "trialdata": {"rt": -1, "trial_type": "single-stim", "stimulus": "<p id=\"stim\">4</p>", "internal_node_id": "0.0-91.0-6.0", "time_elapsed": 624670, "key_press": -1, "trial_index": 124}, "uniqueid": "MTK3114:3OS4RQUCRAMWXV3CAWFEJJ3S6IMBFE", "dateTime": 1520023399029}, {"current_trial": 125, "trialdata": {"rt": -1, "trial_type": "single-stim", "stimulus": "<p id=\"stim\">3</p>", "internal_node_id": "0.0-91.0-7.0", "time_elapsed": 625671, "key_press": -1, "trial_index": 125}, "uniqueid": "MTK3114:3OS4RQUCRAMWXV3CAWFEJJ3S6IMBFE", "dateTime": 1520023400030}, {"current_trial": 126, "trialdata": {"rt": -1, "trial_type": "single-stim", "stimulus": "<p id=\"stim\">2</p>", "internal_node_id": "0.0-91.0-8.0", "time_elapsed": 626672, "key_press": -1, "trial_index": 126}, "uniqueid": "MTK3114:3OS4RQUCRAMWXV3CAWFEJJ3S6IMBFE", "dateTime": 1520023401031}, {"current_trial": 127, "trialdata": {"rt": -1, "trial_type": "single-stim", "stimulus": "<p id=\"stim\">1</p>", "internal_node_id": "0.0-91.0-9.0", "time_elapsed": 627674, "key_press": -1, "trial_index": 127}, "uniqueid": "MTK3114:3OS4RQUCRAMWXV3CAWFEJJ3S6IMBFE", "dateTime": 1520023402033}, {"current_trial": 128, "trialdata": {"rt": -1, "trial_type": "single-stim", "stimulus": "<p id=\"stim\">+</p>", "internal_node_id": "0.0-92.0-0.0", "time_elapsed": 629176, "key_press": -1, "type": "FIXATION", "trial_index": 128}, "uniqueid": "MTK3114:3OS4RQUCRAMWXV3CAWFEJJ3S6IMBFE", "dateTime": 1520023403535}, {"current_trial": 129, "trialdata": {"rt": -1, "trial_type": "single-stim", "word": "brick", "stimulus": "<p id=\"stim\">BRICK</p>", "conditions": [12, 1600, "v", 12000], "internal_node_id": "0.0-93.0", "trial": 3, "time_elapsed": 630777, "serialpos": 0, "key_press": -1, "wordID": 171, "type": "PRES_VIS", "trial_index": 129}, "uniqueid": "MTK3114:3OS4RQUCRAMWXV3CAWFEJJ3S6IMBFE", "dateTime": 1520023405136}, {"current_trial": 130, "trialdata": {"rt": -1, "trial_type": "single-stim", "word": "stone", "stimulus": "<p id=\"stim\">STONE</p>", "conditions": [12, 1600, "v", 12000], "internal_node_id": "0.0-94.0", "trial": 3, "time_elapsed": 633484, "serialpos": 1, "key_press": -1, "wordID": 1384, "type": "PRES_VIS", "trial_index": 130}, "uniqueid": "MTK3114:3OS4RQUCRAMWXV3CAWFEJJ3S6IMBFE", "dateTime": 1520023407844}, {"current_trial": 131, "trialdata": {"rt": -1, "trial_type": "single-stim", "word": "pepper", "stimulus": "<p id=\"stim\">PEPPER</p>", "conditions": [12, 1600, "v", 12000], "internal_node_id": "0.0-95.0", "trial": 3, "time_elapsed": 636152, "serialpos": 2, "key_press": -1, "wordID": 1046, "type": "PRES_VIS", "trial_index": 131}, "uniqueid": "MTK3114:3OS4RQUCRAMWXV3CAWFEJJ3S6IMBFE", "dateTime": 1520023410511}, {"current_trial": 132, "trialdata": {"rt": -1, "trial_type": "single-stim", "word": "belly", "stimulus": "<p id=\"stim\">BELLY</p>", "conditions": [12, 1600, "v", 12000], "internal_node_id": "0.0-96.0", "trial": 3, "time_elapsed": 638900, "serialpos": 3, "key_press": -1, "wordID": 118, "type": "PRES_VIS", "trial_index": 132}, "uniqueid": "MTK3114:3OS4RQUCRAMWXV3CAWFEJJ3S6IMBFE", "dateTime": 1520023413259}, {"current_trial": 133, "trialdata": {"rt": -1, "trial_type": "single-stim", "word": "eagle", "stimulus": "<p id=\"stim\">EAGLE</p>", "conditions": [12, 1600, "v", 12000], "internal_node_id": "0.0-97.0", "trial": 3, "time_elapsed": 641622, "serialpos": 4, "key_press": -1, "wordID": 511, "type": "PRES_VIS", "trial_index": 133}, "uniqueid": "MTK3114:3OS4RQUCRAMWXV3CAWFEJJ3S6IMBFE", "dateTime": 1520023415981}, {"current_trial": 134, "trialdata": {"rt": -1, "trial_type": "single-stim", "word": "quail", "stimulus": "<p id=\"stim\">QUAIL</p>", "conditions": [12, 1600, "v", 12000], "internal_node_id": "0.0-98.0", "trial": 3, "time_elapsed": 644110, "serialpos": 5, "key_press": -1, "wordID": 1146, "type": "PRES_VIS", "trial_index": 134}, "uniqueid": "MTK3114:3OS4RQUCRAMWXV3CAWFEJJ3S6IMBFE", "dateTime": 1520023418469}, {"current_trial": 135, "trialdata": {"rt": -1, "trial_type": "single-stim", "word": "pastry", "stimulus": "<p id=\"stim\">PASTRY</p>", "conditions": [12, 1600, "v", 12000], "internal_node_id": "0.0-99.0", "trial": 3, "time_elapsed": 646521, "serialpos": 6, "key_press": -1, "wordID": 1021, "type": "PRES_VIS", "trial_index": 135}, "uniqueid": "MTK3114:3OS4RQUCRAMWXV3CAWFEJJ3S6IMBFE", "dateTime": 1520023420880}, {"current_trial": 136, "trialdata": {"rt": -1, "trial_type": "single-stim", "word": "lodge", "stimulus": "<p id=\"stim\">LODGE</p>", "conditions": [12, 1600, "v", 12000], "internal_node_id": "0.0-100.0", "trial": 3, "time_elapsed": 648987, "serialpos": 7, "key_press": -1, "wordID": 838, "type": "PRES_VIS", "trial_index": 136}, "uniqueid": "MTK3114:3OS4RQUCRAMWXV3CAWFEJJ3S6IMBFE", "dateTime": 1520023423346}, {"current_trial": 137, "trialdata": {"rt": -1, "trial_type": "single-stim", "word": "leopard", "stimulus": "<p id=\"stim\">LEOPARD</p>", "conditions": [12, 1600, "v", 12000], "internal_node_id": "0.0-101.0", "trial": 3, "time_elapsed": 651754, "serialpos": 8, "key_press": -1, "wordID": 811, "type": "PRES_VIS", "trial_index": 137}, "uniqueid": "MTK3114:3OS4RQUCRAMWXV3CAWFEJJ3S6IMBFE", "dateTime": 1520023426113}, {"current_trial": 138, "trialdata": {"rt": -1, "trial_type": "single-stim", "word": "cod", "stimulus": "<p id=\"stim\">COD</p>", "conditions": [12, 1600, "v", 12000], "internal_node_id": "0.0-102.0", "trial": 3, "time_elapsed": 654382, "serialpos": 9, "key_press": -1, "wordID": 339, "type": "PRES_VIS", "trial_index": 138}, "uniqueid": "MTK3114:3OS4RQUCRAMWXV3CAWFEJJ3S6IMBFE", "dateTime": 1520023428741}, {"current_trial": 139, "trialdata": {"rt": -1, "trial_type": "single-stim", "word": "doughnut", "stimulus": "<p id=\"stim\">DOUGHNUT</p>", "conditions": [12, 1600, "v", 12000], "internal_node_id": "0.0-103.0", "trial": 3, "time_elapsed": 656962, "serialpos": 10, "key_press": -1, "wordID": 489, "type": "PRES_VIS", "trial_index": 139}, "uniqueid": "MTK3114:3OS4RQUCRAMWXV3CAWFEJJ3S6IMBFE", "dateTime": 1520023431321}, {"current_trial": 140, "trialdata": {"rt": -1, "trial_type": "single-stim", "word": "climber", "stimulus": "<p id=\"stim\">CLIMBER</p>", "conditions": [12, 1600, "v", 12000], "internal_node_id": "0.0-104.0", "trial": 3, "time_elapsed": 659607, "serialpos": 11, "key_press": -1, "wordID": 322, "type": "PRES_VIS", "trial_index": 140}, "uniqueid": "MTK3114:3OS4RQUCRAMWXV3CAWFEJJ3S6IMBFE", "dateTime": 1520023433967}, {"current_trial": 141, "trialdata": {"rt": -1, "trial_type": "single-stim", "stimulus": "", "internal_node_id": "0.0-105.0-0.0", "time_elapsed": 661893, "key_press": -1, "type": "PRE_RECALL_DELAY", "trial_index": 141}, "uniqueid": "MTK3114:3OS4RQUCRAMWXV3CAWFEJJ3S6IMBFE", "dateTime": 1520023436252}, {"current_trial": 142, "trialdata": {"rt": -1000, "trial_type": "single-audio", "stimulus": "/static/audio/400Hz.wav", "internal_node_id": "0.0-106.0", "time_elapsed": 662394, "key_press": -1, "type": "PRE_RECALL_ALERT", "trial_index": 142}, "uniqueid": "MTK3114:3OS4RQUCRAMWXV3CAWFEJJ3S6IMBFE", "dateTime": 1520023436753}, {"current_trial": 143, "trialdata": {"rt": [1918, 3237, 4414, 6142, 8717, 11094, 15862, 17374], "recwords": ["climber", "donut", "belly", "lodge", "quail", "cod", "stone", "brick"], "key_times": [982, 1118, 1310, 1461, 1533, 1718, 1814, 1918, 2222, 2326, 2477, 2550, 2958, 3237, 3573, 3806, 3926, 4054, 4174, 4414, 5414, 5558, 5638, 5750, 5870, 6142, 7174, 7493, 7806, 7966, 8070, 8150, 8326, 8717, 9197, 9317, 9549, 11094, 15101, 15206, 15286, 15422, 15566, 15862, 16246, 16366, 16446, 16669, 16789, 17374], "trial_type": "free-recall", "conditions": [12, 1600, "v", 12000], "internal_node_id": "0.0-107.0-0.0", "key_presses": [67, 76, 73, 77, 66, 69, 82, 13, 68, 79, 78, 85, 84, 13, 66, 69, 76, 76, 89, 13, 76, 79, 68, 71, 69, 13, 81, 65, 8, 85, 65, 73, 76, 13, 67, 79, 68, 13, 83, 84, 79, 78, 69, 13, 66, 82, 73, 67, 75, 13], "trial": 3, "time_elapsed": 722396, "type": "FREE_RECALL", "trial_index": 143}, "uniqueid": "MTK3114:3OS4RQUCRAMWXV3CAWFEJJ3S6IMBFE", "dateTime": 1520023496756}, {"current_trial": 144, "trialdata": {"rt": 1139, "trial_type": "text", "internal_node_id": "0.0-108.0", "time_elapsed": 725536, "key_press": 39, "type": "INSTRUCTIONS", "trial_index": 144}, "uniqueid": "MTK3114:3OS4RQUCRAMWXV3CAWFEJJ3S6IMBFE", "dateTime": 1520023499895}, {"current_trial": 145, "trialdata": {"rt": [1774, 3383, 6663, 8382, 10535], "trial_type": "math-distractor", "key_times": [1319, 1407, 1774, 3038, 3286, 3383, 6246, 6535, 6663, 8006, 8126, 8382, 10294, 10438, 10535, 11966], "responses": ["10", "18", "16", "19", "22"], "num2": [2, 7, 6, 5, 9, 1], "num3": [5, 9, 3, 5, 4, 6], "conditions": [12, 800, "v", 12000], "internal_node_id": "0.0-109.0", "key_presses": [49, 48, 13, 49, 56, 13, 49, 54, 13, 49, 57, 13, 50, 50, 13, 49], "trial": 4, "time_elapsed": 739539, "type": "DISTRACTOR", "trial_index": 145, "num1": [3, 2, 7, 9, 8, 3]}, "uniqueid": "MTK3114:3OS4RQUCRAMWXV3CAWFEJJ3S6IMBFE", "dateTime": 1520023513898}, {"current_trial": 146, "trialdata": {"rt": -1, "trial_type": "single-stim", "stimulus": "<p id=\"stim\">10</p>", "internal_node_id": "0.0-110.0-0.0", "time_elapsed": 742541, "key_press": -1, "trial_index": 146}, "uniqueid": "MTK3114:3OS4RQUCRAMWXV3CAWFEJJ3S6IMBFE", "dateTime": 1520023516901}, {"current_trial": 147, "trialdata": {"rt": -1, "trial_type": "single-stim", "stimulus": "<p id=\"stim\">9</p>", "internal_node_id": "0.0-110.0-1.0", "time_elapsed": 743542, "key_press": -1, "trial_index": 147}, "uniqueid": "MTK3114:3OS4RQUCRAMWXV3CAWFEJJ3S6IMBFE", "dateTime": 1520023517901}, {"current_trial": 148, "trialdata": {"rt": -1, "trial_type": "single-stim", "stimulus": "<p id=\"stim\">8</p>", "internal_node_id": "0.0-110.0-2.0", "time_elapsed": 744543, "key_press": -1, "trial_index": 148}, "uniqueid": "MTK3114:3OS4RQUCRAMWXV3CAWFEJJ3S6IMBFE", "dateTime": 1520023518902}, {"current_trial": 149, "trialdata": {"rt": -1, "trial_type": "single-stim", "stimulus": "<p id=\"stim\">7</p>", "internal_node_id": "0.0-110.0-3.0", "time_elapsed": 745545, "key_press": -1, "trial_index": 149}, "uniqueid": "MTK3114:3OS4RQUCRAMWXV3CAWFEJJ3S6IMBFE", "dateTime": 1520023519904}, {"current_trial": 150, "trialdata": {"rt": -1, "trial_type": "single-stim", "stimulus": "<p id=\"stim\">6</p>", "internal_node_id": "0.0-110.0-4.0", "time_elapsed": 746546, "key_press": -1, "trial_index": 150}, "uniqueid": "MTK3114:3OS4RQUCRAMWXV3CAWFEJJ3S6IMBFE", "dateTime": 1520023520905}, {"current_trial": 151, "trialdata": {"rt": -1, "trial_type": "single-stim", "stimulus": "<p id=\"stim\">5</p>", "internal_node_id": "0.0-110.0-5.0", "time_elapsed": 747547, "key_press": -1, "trial_index": 151}, "uniqueid": "MTK3114:3OS4RQUCRAMWXV3CAWFEJJ3S6IMBFE", "dateTime": 1520023521906}, {"current_trial": 152, "trialdata": {"rt": -1, "trial_type": "single-stim", "stimulus": "<p id=\"stim\">4</p>", "internal_node_id": "0.0-110.0-6.0", "time_elapsed": 748548, "key_press": -1, "trial_index": 152}, "uniqueid": "MTK3114:3OS4RQUCRAMWXV3CAWFEJJ3S6IMBFE", "dateTime": 1520023522908}, {"current_trial": 153, "trialdata": {"rt": -1, "trial_type": "single-stim", "stimulus": "<p id=\"stim\">3</p>", "internal_node_id": "0.0-110.0-7.0", "time_elapsed": 749549, "key_press": -1, "trial_index": 153}, "uniqueid": "MTK3114:3OS4RQUCRAMWXV3CAWFEJJ3S6IMBFE", "dateTime": 1520023523908}, {"current_trial": 154, "trialdata": {"rt": -1, "trial_type": "single-stim", "stimulus": "<p id=\"stim\">2</p>", "internal_node_id": "0.0-110.0-8.0", "time_elapsed": 750550, "key_press": -1, "trial_index": 154}, "uniqueid": "MTK3114:3OS4RQUCRAMWXV3CAWFEJJ3S6IMBFE", "dateTime": 1520023524909}, {"current_trial": 155, "trialdata": {"rt": -1, "trial_type": "single-stim", "stimulus": "<p id=\"stim\">1</p>", "internal_node_id": "0.0-110.0-9.0", "time_elapsed": 751552, "key_press": -1, "trial_index": 155}, "uniqueid": "MTK3114:3OS4RQUCRAMWXV3CAWFEJJ3S6IMBFE", "dateTime": 1520023525911}, {"current_trial": 156, "trialdata": {"rt": -1, "trial_type": "single-stim", "stimulus": "<p id=\"stim\">+</p>", "internal_node_id": "0.0-111.0-0.0", "time_elapsed": 753053, "key_press": -1, "type": "FIXATION", "trial_index": 156}, "uniqueid": "MTK3114:3OS4RQUCRAMWXV3CAWFEJJ3S6IMBFE", "dateTime": 1520023527412}, {"current_trial": 157, "trialdata": {"rt": -1, "trial_type": "single-stim", "word": "scarf", "stimulus": "<p id=\"stim\">SCARF</p>", "conditions": [12, 800, "v", 12000], "internal_node_id": "0.0-112.0", "trial": 4, "time_elapsed": 753854, "serialpos": 0, "key_press": -1, "wordID": 1245, "type": "PRES_VIS", "trial_index": 157}, "uniqueid": "MTK3114:3OS4RQUCRAMWXV3CAWFEJJ3S6IMBFE", "dateTime": 1520023528213}, {"current_trial": 158, "trialdata": {"rt": -1, "trial_type": "single-stim", "word": "rocket", "stimulus": "<p id=\"stim\">ROCKET</p>", "conditions": [12, 800, "v", 12000], "internal_node_id": "0.0-113.0", "trial": 4, "time_elapsed": 755848, "serialpos": 1, "key_press": -1, "wordID": 1201, "type": "PRES_VIS", "trial_index": 158}, "uniqueid": "MTK3114:3OS4RQUCRAMWXV3CAWFEJJ3S6IMBFE", "dateTime": 1520023530207}, {"current_trial": 159, "trialdata": {"rt": -1, "trial_type": "single-stim", "word": "omelet", "stimulus": "<p id=\"stim\">OMELET</p>", "conditions": [12, 800, "v", 12000], "internal_node_id": "0.0-114.0", "trial": 4, "time_elapsed": 757761, "serialpos": 2, "key_press": -1, "wordID": 975, "type": "PRES_VIS", "trial_index": 159}, "uniqueid": "MTK3114:3OS4RQUCRAMWXV3CAWFEJJ3S6IMBFE", "dateTime": 1520023532120}, {"current_trial": 160, "trialdata": {"rt": -1, "trial_type": "single-stim", "word": "servant", "stimulus": "<p id=\"stim\">SERVANT</p>", "conditions": [12, 800, "v", 12000], "internal_node_id": "0.0-115.0", "trial": 4, "time_elapsed": 759391, "serialpos": 3, "key_press": -1, "wordID": 1270, "type": "PRES_VIS", "trial_index": 160}, "uniqueid": "MTK3114:3OS4RQUCRAMWXV3CAWFEJJ3S6IMBFE", "dateTime": 1520023533751}, {"current_trial": 161, "trialdata": {"rt": -1, "trial_type": "single-stim", "word": "preacher", "stimulus": "<p id=\"stim\">PREACHER</p>", "conditions": [12, 800, "v", 12000], "internal_node_id": "0.0-116.0", "trial": 4, "time_elapsed": 761145, "serialpos": 4, "key_press": -1, "wordID": 1118, "type": "PRES_VIS", "trial_index": 161}, "uniqueid": "MTK3114:3OS4RQUCRAMWXV3CAWFEJJ3S6IMBFE", "dateTime": 1520023535504}, {"current_trial": 162, "trialdata": {"rt": -1, "trial_type": "single-stim", "word": "chauffeur", "stimulus": "<p id=\"stim\">CHAUFFEUR</p>", "conditions": [12, 800, "v", 12000], "internal_node_id": "0.0-117.0", "trial": 4, "time_elapsed": 762864, "serialpos": 5, "key_press": -1, "wordID": 282, "type": "PRES_VIS", "trial_index": 162}, "uniqueid": "MTK3114:3OS4RQUCRAMWXV3CAWFEJJ3S6IMBFE", "dateTime": 1520023537223}, {"current_trial": 163, "trialdata": {"rt": -1, "trial_type": "single-stim", "word": "worker", "stimulus": "<p id=\"stim\">WORKER</p>", "conditions": [12, 800, "v", 12000], "internal_node_id": "0.0-118.0", "trial": 4, "time_elapsed": 764777, "serialpos": 6, "key_press": -1, "wordID": 1620, "type": "PRES_VIS", "trial_index": 163}, "uniqueid": "MTK3114:3OS4RQUCRAMWXV3CAWFEJJ3S6IMBFE", "dateTime": 1520023539136}, {"current_trial": 164, "trialdata": {"rt": -1, "trial_type": "single-stim", "word": "rabbit", "stimulus": "<p id=\"stim\">RABBIT</p>", "conditions": [12, 800, "v", 12000], "internal_node_id": "0.0-119.0", "trial": 4, "time_elapsed": 766509, "serialpos": 7, "key_press": -1, "wordID": 1151, "type": "PRES_VIS", "trial_index": 164}, "uniqueid": "MTK3114:3OS4RQUCRAMWXV3CAWFEJJ3S6IMBFE", "dateTime": 1520023540868}, {"current_trial": 165, "trialdata": {"rt": -1, "trial_type": "single-stim", "word": "panther", "stimulus": "<p id=\"stim\">PANTHER</p>", "conditions": [12, 800, "v", 12000], "internal_node_id": "0.0-120.0", "trial": 4, "time_elapsed": 768214, "serialpos": 8, "key_press": -1, "wordID": 1008, "type": "PRES_VIS", "trial_index": 165}, "uniqueid": "MTK3114:3OS4RQUCRAMWXV3CAWFEJJ3S6IMBFE", "dateTime": 1520023542573}, {"current_trial": 166, "trialdata": {"rt": -1, "trial_type": "single-stim", "word": "zebra", "stimulus": "<p id=\"stim\">ZEBRA</p>", "conditions": [12, 800, "v", 12000], "internal_node_id": "0.0-121.0", "trial": 4, "time_elapsed": 770196, "serialpos": 9, "key_press": -1, "wordID": 1634, "type": "PRES_VIS", "trial_index": 166}, "uniqueid": "MTK3114:3OS4RQUCRAMWXV3CAWFEJJ3S6IMBFE", "dateTime": 1520023544555}, {"current_trial": 167, "trialdata": {"rt": -1, "trial_type": "single-stim", "word": "missile", "stimulus": "<p id=\"stim\">MISSILE</p>", "conditions": [12, 800, "v", 12000], "internal_node_id": "0.0-122.0", "trial": 4, "time_elapsed": 772115, "serialpos": 10, "key_press": -1, "wordID": 899, "type": "PRES_VIS", "trial_index": 167}, "uniqueid": "MTK3114:3OS4RQUCRAMWXV3CAWFEJJ3S6IMBFE", "dateTime": 1520023546474}, {"current_trial": 168, "trialdata": {"rt": -1, "trial_type": "single-stim", "word": "crown", "stimulus": "<p id=\"stim\">CROWN</p>", "conditions": [12, 800, "v", 12000], "internal_node_id": "0.0-123.0", "trial": 4, "time_elapsed": 773813, "serialpos": 11, "key_press": -1, "wordID": 414, "type": "PRES_VIS", "trial_index": 168}, "uniqueid": "MTK3114:3OS4RQUCRAMWXV3CAWFEJJ3S6IMBFE", "dateTime": 1520023548172}, {"current_trial": 169, "trialdata": {"rt": -1, "trial_type": "single-stim", "stimulus": "", "internal_node_id": "0.0-124.0-0.0", "time_elapsed": 776061, "key_press": -1, "type": "PRE_RECALL_DELAY", "trial_index": 169}, "uniqueid": "MTK3114:3OS4RQUCRAMWXV3CAWFEJJ3S6IMBFE", "dateTime": 1520023550420}, {"current_trial": 170, "trialdata": {"rt": -1000, "trial_type": "single-audio", "stimulus": "/static/audio/400Hz.wav", "internal_node_id": "0.0-125.0", "time_elapsed": 776562, "key_press": -1, "type": "PRE_RECALL_ALERT", "trial_index": 170}, "uniqueid": "MTK3114:3OS4RQUCRAMWXV3CAWFEJJ3S6IMBFE", "dateTime": 1520023550921}, {"current_trial": 171, "trialdata": {"rt": [1709, 3069, 4389, 6054, 8589, 11597, 48933], "recwords": ["crown", "missile", "rocket", "rabbit", "panther", "scarf", "zebra"], "key_times": [853, 1069, 1141, 1269, 1366, 1709, 2029, 2126, 2229, 2406, 2485, 2693, 2782, 3069, 3349, 3469, 3614, 3702, 3829, 3909, 4389, 4869, 4998, 5189, 5365, 5421, 5558, 6054, 6669, 6877, 7021, 7166, 7277, 7365, 7446, 8589, 9501, 9685, 9829, 9958, 10126, 11597, 48214, 48333, 48557, 48773, 48829, 48933], "trial_type": "free-recall", "conditions": [12, 800, "v", 12000], "internal_node_id": "0.0-126.0-0.0", "key_presses": [67, 82, 79, 87, 78, 13, 77, 73, 83, 83, 73, 76, 69, 13, 82, 79, 67, 75, 69, 84, 13, 82, 65, 66, 66, 73, 84, 13, 80, 65, 78, 84, 72, 69, 82, 13, 83, 67, 65, 82, 70, 13, 90, 69, 66, 82, 65, 13], "trial": 4, "time_elapsed": 836565, "type": "FREE_RECALL", "trial_index": 171}, "uniqueid": "MTK3114:3OS4RQUCRAMWXV3CAWFEJJ3S6IMBFE", "dateTime": 1520023610924}, {"current_trial": 172, "trialdata": {"rt": 6033, "trial_type": "text", "internal_node_id": "0.0-127.0", "time_elapsed": 844600, "key_press": 39, "type": "INSTRUCTIONS", "trial_index": 172}, "uniqueid": "MTK3114:3OS4RQUCRAMWXV3CAWFEJJ3S6IMBFE", "dateTime": 1520023618959}, {"current_trial": 173, "trialdata": {"rt": [2670, 4279, 6263, 8783, 10686, 12302, 13743, 15255, 17087, 18607, 20591, 23774], "trial_type": "math-distractor", "key_times": [2198, 2430, 2670, 4207, 4279, 6150, 6190, 6263, 8439, 8695, 8783, 10287, 10543, 10686, 11983, 12207, 12302, 13583, 13655, 13743, 15047, 15151, 15255, 16679, 16982, 17087, 18511, 18607, 20295, 20502, 20591, 23638, 23774, 23831], "responses": ["17", "6", "14", "18", "19", "16", "13", "13", "10", "8", "16", "2"], "num2": [4, 3, 7, 6, 9, 9, 5, 2, 2, 1, 7, 6, 7], "num3": [5, 1, 6, 7, 9, 5, 1, 2, 2, 3, 3, 8, 5], "conditions": [24, 1600, "v", 24000], "internal_node_id": "0.0-128.0", "key_presses": [49, 55, 13, 54, 13, 49, 52, 13, 49, 56, 13, 49, 57, 13, 49, 54, 13, 49, 51, 13, 49, 51, 13, 49, 48, 13, 56, 13, 49, 54, 13, 50, 13, 49], "trial": 5, "time_elapsed": 870602, "type": "DISTRACTOR", "trial_index": 173, "num1": [8, 2, 1, 5, 1, 2, 7, 9, 6, 4, 6, 7, 7]}, "uniqueid": "MTK3114:3OS4RQUCRAMWXV3CAWFEJJ3S6IMBFE", "dateTime": 1520023644962}, {"current_trial": 174, "trialdata": {"rt": -1, "trial_type": "single-stim", "stimulus": "<p id=\"stim\">10</p>", "internal_node_id": "0.0-129.0-0.0", "time_elapsed": 873604, "key_press": -1, "trial_index": 174}, "uniqueid": "MTK3114:3OS4RQUCRAMWXV3CAWFEJJ3S6IMBFE", "dateTime": 1520023647964}, {"current_trial": 175, "trialdata": {"rt": -1, "trial_type": "single-stim", "stimulus": "<p id=\"stim\">9</p>", "internal_node_id": "0.0-129.0-1.0", "time_elapsed": 874605, "key_press": -1, "trial_index": 175}, "uniqueid": "MTK3114:3OS4RQUCRAMWXV3CAWFEJJ3S6IMBFE", "dateTime": 1520023648964}, {"current_trial": 176, "trialdata": {"rt": -1, "trial_type": "single-stim", "stimulus": "<p id=\"stim\">8</p>", "internal_node_id": "0.0-129.0-2.0", "time_elapsed": 875607, "key_press": -1, "trial_index": 176}, "uniqueid": "MTK3114:3OS4RQUCRAMWXV3CAWFEJJ3S6IMBFE", "dateTime": 1520023649966}, {"current_trial": 177, "trialdata": {"rt": -1, "trial_type": "single-stim", "stimulus": "<p id=\"stim\">7</p>", "internal_node_id": "0.0-129.0-3.0", "time_elapsed": 876607, "key_press": -1, "trial_index": 177}, "uniqueid": "MTK3114:3OS4RQUCRAMWXV3CAWFEJJ3S6IMBFE", "dateTime": 1520023650966}, {"current_trial": 178, "trialdata": {"rt": -1, "trial_type": "single-stim", "stimulus": "<p id=\"stim\">6</p>", "internal_node_id": "0.0-129.0-4.0", "time_elapsed": 877608, "key_press": -1, "trial_index": 178}, "uniqueid": "MTK3114:3OS4RQUCRAMWXV3CAWFEJJ3S6IMBFE", "dateTime": 1520023651967}, {"current_trial": 179, "trialdata": {"rt": -1, "trial_type": "single-stim", "stimulus": "<p id=\"stim\">5</p>", "internal_node_id": "0.0-129.0-5.0", "time_elapsed": 878610, "key_press": -1, "trial_index": 179}, "uniqueid": "MTK3114:3OS4RQUCRAMWXV3CAWFEJJ3S6IMBFE", "dateTime": 1520023652969}, {"current_trial": 180, "trialdata": {"rt": -1, "trial_type": "single-stim", "stimulus": "<p id=\"stim\">4</p>", "internal_node_id": "0.0-129.0-6.0", "time_elapsed": 879611, "key_press": -1, "trial_index": 180}, "uniqueid": "MTK3114:3OS4RQUCRAMWXV3CAWFEJJ3S6IMBFE", "dateTime": 1520023653970}, {"current_trial": 181, "trialdata": {"rt": -1, "trial_type": "single-stim", "stimulus": "<p id=\"stim\">3</p>", "internal_node_id": "0.0-129.0-7.0", "time_elapsed": 880612, "key_press": -1, "trial_index": 181}, "uniqueid": "MTK3114:3OS4RQUCRAMWXV3CAWFEJJ3S6IMBFE", "dateTime": 1520023654971}, {"current_trial": 182, "trialdata": {"rt": -1, "trial_type": "single-stim", "stimulus": "<p id=\"stim\">2</p>", "internal_node_id": "0.0-129.0-8.0", "time_elapsed": 881612, "key_press": -1, "trial_index": 182}, "uniqueid": "MTK3114:3OS4RQUCRAMWXV3CAWFEJJ3S6IMBFE", "dateTime": 1520023655972}, {"current_trial": 183, "trialdata": {"rt": -1, "trial_type": "single-stim", "stimulus": "<p id=\"stim\">1</p>", "internal_node_id": "0.0-129.0-9.0", "time_elapsed": 882614, "key_press": -1, "trial_index": 183}, "uniqueid": "MTK3114:3OS4RQUCRAMWXV3CAWFEJJ3S6IMBFE", "dateTime": 1520023656973}, {"current_trial": 184, "trialdata": {"rt": -1, "trial_type": "single-stim", "stimulus": "<p id=\"stim\">+</p>", "internal_node_id": "0.0-130.0-0.0", "time_elapsed": 884115, "key_press": -1, "type": "FIXATION", "trial_index": 184}, "uniqueid": "MTK3114:3OS4RQUCRAMWXV3CAWFEJJ3S6IMBFE", "dateTime": 1520023658474}, {"current_trial": 185, "trialdata": {"rt": -1, "trial_type": "single-stim", "word": "yacht", "stimulus": "<p id=\"stim\">YACHT</p>", "conditions": [24, 1600, "v", 24000], "internal_node_id": "0.0-131.0", "trial": 5, "time_elapsed": 885716, "serialpos": 0, "key_press": -1, "wordID": 1628, "type": "PRES_VIS", "trial_index": 185}, "uniqueid": "MTK3114:3OS4RQUCRAMWXV3CAWFEJJ3S6IMBFE", "dateTime": 1520023660075}, {"current_trial": 186, "trialdata": {"rt": -1, "trial_type": "single-stim", "word": "lunch", "stimulus": "<p id=\"stim\">LUNCH</p>", "conditions": [24, 1600, "v", 24000], "internal_node_id": "0.0-132.0", "trial": 5, "time_elapsed": 888256, "serialpos": 1, "key_press": -1, "wordID": 848, "type": "PRES_VIS", "trial_index": 186}, "uniqueid": "MTK3114:3OS4RQUCRAMWXV3CAWFEJJ3S6IMBFE", "dateTime": 1520023662615}, {"current_trial": 187, "trialdata": {"rt": -1, "trial_type": "single-stim", "word": "river", "stimulus": "<p id=\"stim\">RIVER</p>", "conditions": [24, 1600, "v", 24000], "internal_node_id": "0.0-133.0", "trial": 5, "time_elapsed": 890978, "serialpos": 2, "key_press": -1, "wordID": 1193, "type": "PRES_VIS", "trial_index": 187}, "uniqueid": "MTK3114:3OS4RQUCRAMWXV3CAWFEJJ3S6IMBFE", "dateTime": 1520023665337}, {"current_trial": 188, "trialdata": {"rt": -1, "trial_type": "single-stim", "word": "fragrance", "stimulus": "<p id=\"stim\">FRAGRANCE</p>", "conditions": [24, 1600, "v", 24000], "internal_node_id": "0.0-134.0", "trial": 5, "time_elapsed": 893418, "serialpos": 3, "key_press": -1, "wordID": 598, "type": "PRES_VIS", "trial_index": 188}, "uniqueid": "MTK3114:3OS4RQUCRAMWXV3CAWFEJJ3S6IMBFE", "dateTime": 1520023667777}, {"current_trial": 189, "trialdata": {"rt": -1, "trial_type": "single-stim", "word": "sunset", "stimulus": "<p id=\"stim\">SUNSET</p>", "conditions": [24, 1600, "v", 24000], "internal_node_id": "0.0-135.0", "trial": 5, "time_elapsed": 896192, "serialpos": 4, "key_press": -1, "wordID": 1407, "type": "PRES_VIS", "trial_index": 189}, "uniqueid": "MTK3114:3OS4RQUCRAMWXV3CAWFEJJ3S6IMBFE", "dateTime": 1520023670551}, {"current_trial": 190, "trialdata": {"rt": -1, "trial_type": "single-stim", "word": "lagoon", "stimulus": "<p id=\"stim\">LAGOON</p>", "conditions": [24, 1600, "v", 24000], "internal_node_id": "0.0-136.0", "trial": 5, "time_elapsed": 898862, "serialpos": 5, "key_press": -1, "wordID": 794, "type": "PRES_VIS", "trial_index": 190}, "uniqueid": "MTK3114:3OS4RQUCRAMWXV3CAWFEJJ3S6IMBFE", "dateTime": 1520023673221}, {"current_trial": 191, "trialdata": {"rt": -1, "trial_type": "single-stim", "word": "partner", "stimulus": "<p id=\"stim\">PARTNER</p>", "conditions": [24, 1600, "v", 24000], "internal_node_id": "0.0-137.0", "trial": 5, "time_elapsed": 901366, "serialpos": 6, "key_press": -1, "wordID": 1016, "type": "PRES_VIS", "trial_index": 191}, "uniqueid": "MTK3114:3OS4RQUCRAMWXV3CAWFEJJ3S6IMBFE", "dateTime": 1520023675725}, {"current_trial": 192, "trialdata": {"rt": -1, "trial_type": "single-stim", "word": "waiter", "stimulus": "<p id=\"stim\">WAITER</p>", "conditions": [24, 1600, "v", 24000], "internal_node_id": "0.0-138.0", "trial": 5, "time_elapsed": 904024, "serialpos": 7, "key_press": -1, "wordID": 1579, "type": "PRES_VIS", "trial_index": 192}, "uniqueid": "MTK3114:3OS4RQUCRAMWXV3CAWFEJJ3S6IMBFE", "dateTime": 1520023678383}, {"current_trial": 193, "trialdata": {"rt": -1, "trial_type": "single-stim", "word": "canal", "stimulus": "<p id=\"stim\">CANAL</p>", "conditions": [24, 1600, "v", 24000], "internal_node_id": "0.0-139.0", "trial": 5, "time_elapsed": 906434, "serialpos": 8, "key_press": -1, "wordID": 225, "type": "PRES_VIS", "trial_index": 193}, "uniqueid": "MTK3114:3OS4RQUCRAMWXV3CAWFEJJ3S6IMBFE", "dateTime": 1520023680793}, {"current_trial": 194, "trialdata": {"rt": -1, "trial_type": "single-stim", "word": "kidney", "stimulus": "<p id=\"stim\">KIDNEY</p>", "conditions": [24, 1600, "v", 24000], "internal_node_id": "0.0-140.0", "trial": 5, "time_elapsed": 909168, "serialpos": 9, "key_press": -1, "wordID": 775, "type": "PRES_VIS", "trial_index": 194}, "uniqueid": "MTK3114:3OS4RQUCRAMWXV3CAWFEJJ3S6IMBFE", "dateTime": 1520023683527}, {"current_trial": 195, "trialdata": {"rt": -1, "trial_type": "single-stim", "word": "liver", "stimulus": "<p id=\"stim\">LIVER</p>", "conditions": [24, 1600, "v", 24000], "internal_node_id": "0.0-141.0", "trial": 5, "time_elapsed": 911732, "serialpos": 10, "key_press": -1, "wordID": 832, "type": "PRES_VIS", "trial_index": 195}, "uniqueid": "MTK3114:3OS4RQUCRAMWXV3CAWFEJJ3S6IMBFE", "dateTime": 1520023686091}, {"current_trial": 196, "trialdata": {"rt": -1, "trial_type": "single-stim", "word": "agent", "stimulus": "<p id=\"stim\">AGENT</p>", "conditions": [24, 1600, "v", 24000], "internal_node_id": "0.0-142.0", "trial": 5, "time_elapsed": 914522, "serialpos": 11, "key_press": -1, "wordID": 9, "type": "PRES_VIS", "trial_index": 196}, "uniqueid": "MTK3114:3OS4RQUCRAMWXV3CAWFEJJ3S6IMBFE", "dateTime": 1520023688881}, {"current_trial": 197, "trialdata": {"rt": -1, "trial_type": "single-stim", "word": "lipstick", "stimulus": "<p id=\"stim\">LIPSTICK</p>", "conditions": [24, 1600, "v", 24000], "internal_node_id": "0.0-143.0", "trial": 5, "time_elapsed": 917154, "serialpos": 12, "key_press": -1, "wordID": 828, "type": "PRES_VIS", "trial_index": 197}, "uniqueid": "MTK3114:3OS4RQUCRAMWXV3CAWFEJJ3S6IMBFE", "dateTime": 1520023691513}, {"current_trial": 198, "trialdata": {"rt": -1, "trial_type": "single-stim", "word": "drug", "stimulus": "<p id=\"stim\">DRUG</p>", "conditions": [24, 1600, "v", 24000], "internal_node_id": "0.0-144.0", "trial": 5, "time_elapsed": 919756, "serialpos": 13, "key_press": -1, "wordID": 500, "type": "PRES_VIS", "trial_index": 198}, "uniqueid": "MTK3114:3OS4RQUCRAMWXV3CAWFEJJ3S6IMBFE", "dateTime": 1520023694116}, {"current_trial": 199, "trialdata": {"rt": -1, "trial_type": "single-stim", "word": "proton", "stimulus": "<p id=\"stim\">PROTON</p>", "conditions": [24, 1600, "v", 24000], "internal_node_id": "0.0-145.0", "trial": 5, "time_elapsed": 922546, "serialpos": 14, "key_press": -1, "wordID": 1131, "type": "PRES_VIS", "trial_index": 199}, "uniqueid": "MTK3114:3OS4RQUCRAMWXV3CAWFEJJ3S6IMBFE", "dateTime": 1520023696905}, {"current_trial": 200, "trialdata": {"rt": -1, "trial_type": "single-stim", "word": "camel", "stimulus": "<p id=\"stim\">CAMEL</p>", "conditions": [24, 1600, "v", 24000], "internal_node_id": "0.0-146.0", "trial": 5, "time_elapsed": 925189, "serialpos": 15, "key_press": -1, "wordID": 222, "type": "PRES_VIS", "trial_index": 200}, "uniqueid": "MTK3114:3OS4RQUCRAMWXV3CAWFEJJ3S6IMBFE", "dateTime": 1520023699548}, {"current_trial": 201, "trialdata": {"rt": -1, "trial_type": "single-stim", "word": "donkey", "stimulus": "<p id=\"stim\">DONKEY</p>", "conditions": [24, 1600, "v", 24000], "internal_node_id": "0.0-147.0", "trial": 5, "time_elapsed": 927685, "serialpos": 16, "key_press": -1, "wordID": 483, "type": "PRES_VIS", "trial_index": 201}, "uniqueid": "MTK3114:3OS4RQUCRAMWXV3CAWFEJJ3S6IMBFE", "dateTime": 1520023702044}, {"current_trial": 202, "trialdata": {"rt": -1, "trial_type": "single-stim", "word": "tortoise", "stimulus": "<p id=\"stim\">TORTOISE</p>", "conditions": [24, 1600, "v", 24000], "internal_node_id": "0.0-148.0", "trial": 5, "time_elapsed": 930174, "serialpos": 17, "key_press": -1, "wordID": 1485, "type": "PRES_VIS", "trial_index": 202}, "uniqueid": "MTK3114:3OS4RQUCRAMWXV3CAWFEJJ3S6IMBFE", "dateTime": 1520023704533}, {"current_trial": 203, "trialdata": {"rt": -1, "trial_type": "single-stim", "word": "ozone", "stimulus": "<p id=\"stim\">OZONE</p>", "conditions": [24, 1600, "v", 24000], "internal_node_id": "0.0-149.0", "trial": 5, "time_elapsed": 932783, "serialpos": 18, "key_press": -1, "wordID": 995, "type": "PRES_VIS", "trial_index": 203}, "uniqueid": "MTK3114:3OS4RQUCRAMWXV3CAWFEJJ3S6IMBFE", "dateTime": 1520023707142}, {"current_trial": 204, "trialdata": {"rt": -1, "trial_type": "single-stim", "word": "crater", "stimulus": "<p id=\"stim\">CRATER</p>", "conditions": [24, 1600, "v", 24000], "internal_node_id": "0.0-150.0", "trial": 5, "time_elapsed": 935508, "serialpos": 19, "key_press": -1, "wordID": 399, "type": "PRES_VIS", "trial_index": 204}, "uniqueid": "MTK3114:3OS4RQUCRAMWXV3CAWFEJJ3S6IMBFE", "dateTime": 1520023709867}, {"current_trial": 205, "trialdata": {"rt": -1, "trial_type": "single-stim", "word": "goblin", "stimulus": "<p id=\"stim\">GOBLIN</p>", "conditions": [24, 1600, "v", 24000], "internal_node_id": "0.0-151.0", "trial": 5, "time_elapsed": 938200, "serialpos": 20, "key_press": -1, "wordID": 644, "type": "PRES_VIS", "trial_index": 205}, "uniqueid": "MTK3114:3OS4RQUCRAMWXV3CAWFEJJ3S6IMBFE", "dateTime": 1520023712559}, {"current_trial": 206, "trialdata": {"rt": -1, "trial_type": "single-stim", "word": "london", "stimulus": "<p id=\"stim\">LONDON</p>", "conditions": [24, 1600, "v", 24000], "internal_node_id": "0.0-152.0", "trial": 5, "time_elapsed": 940861, "serialpos": 21, "key_press": -1, "wordID": 842, "type": "PRES_VIS", "trial_index": 206}, "uniqueid": "MTK3114:3OS4RQUCRAMWXV3CAWFEJJ3S6IMBFE", "dateTime": 1520023715220}, {"current_trial": 207, "trialdata": {"rt": -1, "trial_type": "single-stim", "word": "lava", "stimulus": "<p id=\"stim\">LAVA</p>", "conditions": [24, 1600, "v", 24000], "internal_node_id": "0.0-153.0", "trial": 5, "time_elapsed": 943584, "serialpos": 22, "key_press": -1, "wordID": 803, "type": "PRES_VIS", "trial_index": 207}, "uniqueid": "MTK3114:3OS4RQUCRAMWXV3CAWFEJJ3S6IMBFE", "dateTime": 1520023717943}, {"current_trial": 208, "trialdata": {"rt": -1, "trial_type": "single-stim", "word": "mattress", "stimulus": "<p id=\"stim\">MATTRESS</p>", "conditions": [24, 1600, "v", 24000], "internal_node_id": "0.0-154.0", "trial": 5, "time_elapsed": 946094, "serialpos": 23, "key_press": -1, "wordID": 878, "type": "PRES_VIS", "trial_index": 208}, "uniqueid": "MTK3114:3OS4RQUCRAMWXV3CAWFEJJ3S6IMBFE", "dateTime": 1520023720454}, {"current_trial": 209, "trialdata": {"rt": -1, "trial_type": "single-stim", "stimulus": "", "internal_node_id": "0.0-155.0-0.0", "time_elapsed": 948226, "key_press": -1, "type": "PRE_RECALL_DELAY", "trial_index": 209}, "uniqueid": "MTK3114:3OS4RQUCRAMWXV3CAWFEJJ3S6IMBFE", "dateTime": 1520023722585}, {"current_trial": 210, "trialdata": {"rt": -1000, "trial_type": "single-audio", "stimulus": "/static/audio/400Hz.wav", "internal_node_id": "0.0-156.0", "time_elapsed": 948727, "key_press": -1, "type": "PRE_RECALL_ALERT", "trial_index": 210}, "uniqueid": "MTK3114:3OS4RQUCRAMWXV3CAWFEJJ3S6IMBFE", "dateTime": 1520023723086}, {"current_trial": 211, "trialdata": {"rt": [3903, 5367, 7423, 9631, 12950, 14895, 16087, 17823, 19071, 20815, 22111, 23806, 27207, 28454, 33535], "recwords": ["london", "lava", "mattress", "crater", "lagoon", "yacht", "river", "sunset", "partner", "agent", "ozone", "proton", "liver", "kidney", "lagoon"], "key_times": [1127, 2543, 2999, 3150, 3318, 3407, 3527, 3711, 3903, 4807, 4975, 5088, 5183, 5367, 5695, 5775, 5950, 6119, 6327, 6391, 6559, 6759, 7423, 7903, 8279, 8399, 8519, 8631, 8711, 9631, 12023, 12103, 12247, 12351, 12503, 12575, 12950, 13727, 13927, 14039, 14295, 14391, 14895, 15127, 15239, 15367, 15615, 15703, 16087, 16999, 17142, 17319, 17399, 17503, 17582, 17823, 18167, 18207, 18287, 18447, 18551, 18647, 18703, 19071, 19423, 19575, 19671, 19768, 19887, 20815, 21415, 21527, 21623, 21790, 21982, 22111, 22471, 22607, 22767, 22943, 23071, 23238, 23806, 26567, 26734, 26807, 26983, 27054, 27207, 27551, 27775, 27871, 28031, 28159, 28215, 28454, 32247, 32342, 32518, 32879, 33007, 33095, 33231, 33295, 33535], "trial_type": "free-recall", "conditions": [24, 1600, "v", 24000], "internal_node_id": "0.0-157.0-0.0", "key_presses": [76, 8, 76, 79, 78, 68, 79, 78, 13, 76, 65, 86, 65, 13, 77, 65, 84, 84, 82, 69, 83, 83, 13, 67, 82, 65, 84, 69, 82, 13, 76, 65, 71, 79, 79, 78, 13, 89, 65, 67, 72, 84, 13, 82, 73, 86, 69, 82, 13, 83, 85, 78, 83, 69, 84, 13, 80, 65, 82, 84, 78, 69, 82, 13, 65, 71, 69, 78, 84, 13, 79, 90, 79, 78, 69, 13, 80, 82, 79, 84, 79, 78, 13, 76, 73, 86, 69, 82, 13, 75, 73, 68, 78, 69, 89, 13, 76, 65, 79, 8, 71, 79, 79, 78, 13], "trial": 5, "time_elapsed": 1008728, "type": "FREE_RECALL", "trial_index": 211}, "uniqueid": "MTK3114:3OS4RQUCRAMWXV3CAWFEJJ3S6IMBFE", "dateTime": 1520023783089}, {"current_trial": 212, "trialdata": {"rt": 916, "trial_type": "text", "internal_node_id": "0.0-158.0", "time_elapsed": 1011647, "key_press": 39, "type": "INSTRUCTIONS", "trial_index": 212}, "uniqueid": "MTK3114:3OS4RQUCRAMWXV3CAWFEJJ3S6IMBFE", "dateTime": 1520023786006}, {"current_trial": 213, "trialdata": {"rt": [1782, 5486, 7247, 9718, 11031, 12982, 14175, 16030, 17582, 19942, 22871], "trial_type": "math-distractor", "key_times": [1686, 1782, 4287, 4582, 5486, 6846, 7150, 7247, 9342, 9582, 9718, 10751, 10950, 11031, 12806, 12902, 12982, 14094, 14175, 15918, 16030, 17279, 17462, 17582, 19535, 19830, 19942, 22559, 22790, 22871], "responses": ["7", "17", "18", "16", "12", "14", "6", "9", "11", "19", "15"], "num2": [2, 6, 4, 2, 4, 4, 2, 2, 1, 4, 4, 1], "num3": [2, 9, 9, 9, 4, 1, 2, 2, 6, 6, 2, 5], "conditions": [12, 1600, "v", 24000], "internal_node_id": "0.0-159.0", "key_presses": [55, 13, 49, 55, 13, 49, 56, 13, 49, 54, 13, 49, 50, 13, 49, 52, 13, 54, 13, 57, 13, 49, 49, 13, 49, 57, 13, 49, 53, 13], "trial": 6, "time_elapsed": 1037650, "type": "DISTRACTOR", "trial_index": 213, "num1": [3, 2, 5, 5, 4, 9, 2, 5, 4, 9, 9, 1]}, "uniqueid": "MTK3114:3OS4RQUCRAMWXV3CAWFEJJ3S6IMBFE", "dateTime": 1520023812009}, {"current_trial": 214, "trialdata": {"rt": -1, "trial_type": "single-stim", "stimulus": "<p id=\"stim\">10</p>", "internal_node_id": "0.0-160.0-0.0", "time_elapsed": 1040653, "key_press": -1, "trial_index": 214}, "uniqueid": "MTK3114:3OS4RQUCRAMWXV3CAWFEJJ3S6IMBFE", "dateTime": 1520023815012}, {"current_trial": 215, "trialdata": {"rt": -1, "trial_type": "single-stim", "stimulus": "<p id=\"stim\">9</p>", "internal_node_id": "0.0-160.0-1.0", "time_elapsed": 1041653, "key_press": -1, "trial_index": 215}, "uniqueid": "MTK3114:3OS4RQUCRAMWXV3CAWFEJJ3S6IMBFE", "dateTime": 1520023816013}, {"current_trial": 216, "trialdata": {"rt": -1, "trial_type": "single-stim", "stimulus": "<p id=\"stim\">8</p>", "internal_node_id": "0.0-160.0-2.0", "time_elapsed": 1042655, "key_press": -1, "trial_index": 216}, "uniqueid": "MTK3114:3OS4RQUCRAMWXV3CAWFEJJ3S6IMBFE", "dateTime": 1520023817014}, {"current_trial": 217, "trialdata": {"rt": -1, "trial_type": "single-stim", "stimulus": "<p id=\"stim\">7</p>", "internal_node_id": "0.0-160.0-3.0", "time_elapsed": 1043656, "key_press": -1, "trial_index": 217}, "uniqueid": "MTK3114:3OS4RQUCRAMWXV3CAWFEJJ3S6IMBFE", "dateTime": 1520023818015}, {"current_trial": 218, "trialdata": {"rt": -1, "trial_type": "single-stim", "stimulus": "<p id=\"stim\">6</p>", "internal_node_id": "0.0-160.0-4.0", "time_elapsed": 1044657, "key_press": -1, "trial_index": 218}, "uniqueid": "MTK3114:3OS4RQUCRAMWXV3CAWFEJJ3S6IMBFE", "dateTime": 1520023819016}, {"current_trial": 219, "trialdata": {"rt": -1, "trial_type": "single-stim", "stimulus": "<p id=\"stim\">5</p>", "internal_node_id": "0.0-160.0-5.0", "time_elapsed": 1045658, "key_press": -1, "trial_index": 219}, "uniqueid": "MTK3114:3OS4RQUCRAMWXV3CAWFEJJ3S6IMBFE", "dateTime": 1520023820017}, {"current_trial": 220, "trialdata": {"rt": -1, "trial_type": "single-stim", "stimulus": "<p id=\"stim\">4</p>", "internal_node_id": "0.0-160.0-6.0", "time_elapsed": 1046659, "key_press": -1, "trial_index": 220}, "uniqueid": "MTK3114:3OS4RQUCRAMWXV3CAWFEJJ3S6IMBFE", "dateTime": 1520023821018}, {"current_trial": 221, "trialdata": {"rt": -1, "trial_type": "single-stim", "stimulus": "<p id=\"stim\">3</p>", "internal_node_id": "0.0-160.0-7.0", "time_elapsed": 1047660, "key_press": -1, "trial_index": 221}, "uniqueid": "MTK3114:3OS4RQUCRAMWXV3CAWFEJJ3S6IMBFE", "dateTime": 1520023822019}, {"current_trial": 222, "trialdata": {"rt": -1, "trial_type": "single-stim", "stimulus": "<p id=\"stim\">2</p>", "internal_node_id": "0.0-160.0-8.0", "time_elapsed": 1048661, "key_press": -1, "trial_index": 222}, "uniqueid": "MTK3114:3OS4RQUCRAMWXV3CAWFEJJ3S6IMBFE", "dateTime": 1520023823020}, {"current_trial": 223, "trialdata": {"rt": -1, "trial_type": "single-stim", "stimulus": "<p id=\"stim\">1</p>", "internal_node_id": "0.0-160.0-9.0", "time_elapsed": 1049662, "key_press": -1, "trial_index": 223}, "uniqueid": "MTK3114:3OS4RQUCRAMWXV3CAWFEJJ3S6IMBFE", "dateTime": 1520023824022}, {"current_trial": 224, "trialdata": {"rt": -1, "trial_type": "single-stim", "stimulus": "<p id=\"stim\">+</p>", "internal_node_id": "0.0-161.0-0.0", "time_elapsed": 1051164, "key_press": -1, "type": "FIXATION", "trial_index": 224}, "uniqueid": "MTK3114:3OS4RQUCRAMWXV3CAWFEJJ3S6IMBFE", "dateTime": 1520023825523}, {"current_trial": 225, "trialdata": {"rt": -1, "trial_type": "single-stim", "word": "trombone", "stimulus": "<p id=\"stim\">TROMBONE</p>", "conditions": [12, 1600, "v", 24000], "internal_node_id": "0.0-162.0", "trial": 6, "time_elapsed": 1052765, "serialpos": 0, "key_press": -1, "wordID": 1507, "type": "PRES_VIS", "trial_index": 225}, "uniqueid": "MTK3114:3OS4RQUCRAMWXV3CAWFEJJ3S6IMBFE", "dateTime": 1520023827124}, {"current_trial": 226, "trialdata": {"rt": -1, "trial_type": "single-stim", "word": "coin", "stimulus": "<p id=\"stim\">COIN</p>", "conditions": [12, 1600, "v", 24000], "internal_node_id": "0.0-163.0", "trial": 6, "time_elapsed": 1055352, "serialpos": 1, "key_press": -1, "wordID": 342, "type": "PRES_VIS", "trial_index": 226}, "uniqueid": "MTK3114:3OS4RQUCRAMWXV3CAWFEJJ3S6IMBFE", "dateTime": 1520023829711}, {"current_trial": 227, "trialdata": {"rt": -1, "trial_type": "single-stim", "word": "pimple", "stimulus": "<p id=\"stim\">PIMPLE</p>", "conditions": [12, 1600, "v", 24000], "internal_node_id": "0.0-164.0", "trial": 6, "time_elapsed": 1057859, "serialpos": 2, "key_press": -1, "wordID": 1070, "type": "PRES_VIS", "trial_index": 227}, "uniqueid": "MTK3114:3OS4RQUCRAMWXV3CAWFEJJ3S6IMBFE", "dateTime": 1520023832218}, {"current_trial": 228, "trialdata": {"rt": -1, "trial_type": "single-stim", "word": "breast", "stimulus": "<p id=\"stim\">BREAST</p>", "conditions": [12, 1600, "v", 24000], "internal_node_id": "0.0-165.0", "trial": 6, "time_elapsed": 1060500, "serialpos": 3, "key_press": -1, "wordID": 170, "type": "PRES_VIS", "trial_index": 228}, "uniqueid": "MTK3114:3OS4RQUCRAMWXV3CAWFEJJ3S6IMBFE", "dateTime": 1520023834859}, {"current_trial": 229, "trialdata": {"rt": -1, "trial_type": "single-stim", "word": "rod", "stimulus": "<p id=\"stim\">ROD</p>", "conditions": [12, 1600, "v", 24000], "internal_node_id": "0.0-166.0", "trial": 6, "time_elapsed": 1063297, "serialpos": 4, "key_press": -1, "wordID": 1202, "type": "PRES_VIS", "trial_index": 229}, "uniqueid": "MTK3114:3OS4RQUCRAMWXV3CAWFEJJ3S6IMBFE", "dateTime": 1520023837656}, {"current_trial": 230, "trialdata": {"rt": -1, "trial_type": "single-stim", "word": "spool", "stimulus": "<p id=\"stim\">SPOOL</p>", "conditions": [12, 1600, "v", 24000], "internal_node_id": "0.0-167.0", "trial": 6, "time_elapsed": 1066025, "serialpos": 5, "key_press": -1, "wordID": 1355, "type": "PRES_VIS", "trial_index": 230}, "uniqueid": "MTK3114:3OS4RQUCRAMWXV3CAWFEJJ3S6IMBFE", "dateTime": 1520023840384}, {"current_trial": 231, "trialdata": {"rt": -1, "trial_type": "single-stim", "word": "basement", "stimulus": "<p id=\"stim\">BASEMENT</p>", "conditions": [12, 1600, "v", 24000], "internal_node_id": "0.0-168.0", "trial": 6, "time_elapsed": 1068800, "serialpos": 6, "key_press": -1, "wordID": 93, "type": "PRES_VIS", "trial_index": 231}, "uniqueid": "MTK3114:3OS4RQUCRAMWXV3CAWFEJJ3S6IMBFE", "dateTime": 1520023843160}, {"current_trial": 232, "trialdata": {"rt": -1, "trial_type": "single-stim", "word": "pizza", "stimulus": "<p id=\"stim\">PIZZA</p>", "conditions": [12, 1600, "v", 24000], "internal_node_id": "0.0-169.0", "trial": 6, "time_elapsed": 1071255, "serialpos": 7, "key_press": -1, "wordID": 1078, "type": "PRES_VIS", "trial_index": 232}, "uniqueid": "MTK3114:3OS4RQUCRAMWXV3CAWFEJJ3S6IMBFE", "dateTime": 1520023845614}, {"current_trial": 233, "trialdata": {"rt": -1, "trial_type": "single-stim", "word": "leader", "stimulus": "<p id=\"stim\">LEADER</p>", "conditions": [12, 1600, "v", 24000], "internal_node_id": "0.0-170.0", "trial": 6, "time_elapsed": 1074026, "serialpos": 8, "key_press": -1, "wordID": 806, "type": "PRES_VIS", "trial_index": 233}, "uniqueid": "MTK3114:3OS4RQUCRAMWXV3CAWFEJJ3S6IMBFE", "dateTime": 1520023848385}, {"current_trial": 234, "trialdata": {"rt": -1, "trial_type": "single-stim", "word": "sunrise", "stimulus": "<p id=\"stim\">SUNRISE</p>", "conditions": [12, 1600, "v", 24000], "internal_node_id": "0.0-171.0", "trial": 6, "time_elapsed": 1076715, "serialpos": 9, "key_press": -1, "wordID": 1406, "type": "PRES_VIS", "trial_index": 234}, "uniqueid": "MTK3114:3OS4RQUCRAMWXV3CAWFEJJ3S6IMBFE", "dateTime": 1520023851075}, {"current_trial": 235, "trialdata": {"rt": -1, "trial_type": "single-stim", "word": "washer", "stimulus": "<p id=\"stim\">WASHER</p>", "conditions": [12, 1600, "v", 24000], "internal_node_id": "0.0-172.0", "trial": 6, "time_elapsed": 1079225, "serialpos": 10, "key_press": -1, "wordID": 1591, "type": "PRES_VIS", "trial_index": 235}, "uniqueid": "MTK3114:3OS4RQUCRAMWXV3CAWFEJJ3S6IMBFE", "dateTime": 1520023853584}, {"current_trial": 236, "trialdata": {"rt": -1, "trial_type": "single-stim", "word": "cellar", "stimulus": "<p id=\"stim\">CELLAR</p>", "conditions": [12, 1600, "v", 24000], "internal_node_id": "0.0-173.0", "trial": 6, "time_elapsed": 1081909, "serialpos": 11, "key_press": -1, "wordID": 266, "type": "PRES_VIS", "trial_index": 236}, "uniqueid": "MTK3114:3OS4RQUCRAMWXV3CAWFEJJ3S6IMBFE", "dateTime": 1520023856268}, {"current_trial": 237, "trialdata": {"rt": -1, "trial_type": "single-stim", "stimulus": "", "internal_node_id": "0.0-174.0-0.0", "time_elapsed": 1084392, "key_press": -1, "type": "PRE_RECALL_DELAY", "trial_index": 237}, "uniqueid": "MTK3114:3OS4RQUCRAMWXV3CAWFEJJ3S6IMBFE", "dateTime": 1520023858751}, {"current_trial": 238, "trialdata": {"rt": -1000, "trial_type": "single-audio", "stimulus": "/static/audio/400Hz.wav", "internal_node_id": "0.0-175.0", "time_elapsed": 1084893, "key_press": -1, "type": "PRE_RECALL_ALERT", "trial_index": 238}, "uniqueid": "MTK3114:3OS4RQUCRAMWXV3CAWFEJJ3S6IMBFE", "dateTime": 1520023859252}, {"current_trial": 239, "trialdata": {"rt": [1872, 3239, 4575, 6495, 10176, 12096, 14288, 16951, 18928], "recwords": ["cellar", "basement", "pizza", "breast", "sunrise", "trombone", "coin", "rod", "spool"], "key_times": [872, 1040, 1168, 1311, 1376, 1456, 1872, 2095, 2272, 2480, 2552, 2656, 2768, 2840, 2968, 3239, 3591, 3767, 3880, 4072, 4328, 4575, 5184, 5495, 5576, 5664, 5888, 5975, 6495, 7344, 7487, 7663, 7800, 7903, 8008, 8064, 10176, 11080, 11184, 11256, 11416, 11497, 11624, 11696, 11896, 12096, 12727, 12848, 13008, 13424, 14288, 16583, 16664, 16816, 16951, 17832, 17984, 18184, 18336, 18503, 18928], "trial_type": "free-recall", "conditions": [12, 1600, "v", 24000], "internal_node_id": "0.0-176.0-0.0", "key_presses": [67, 69, 76, 76, 65, 82, 13, 66, 65, 83, 69, 77, 69, 78, 84, 13, 80, 73, 90, 90, 65, 13, 66, 82, 69, 65, 83, 84, 13, 83, 85, 78, 82, 73, 83, 69, 13, 84, 82, 79, 77, 66, 79, 78, 69, 13, 67, 79, 73, 78, 13, 82, 79, 68, 13, 83, 80, 79, 79, 76, 13], "trial": 6, "time_elapsed": 1144896, "type": "FREE_RECALL", "trial_index": 239}, "uniqueid": "MTK3114:3OS4RQUCRAMWXV3CAWFEJJ3S6IMBFE", "dateTime": 1520023919256}, {"current_trial": 240, "trialdata": {"rt": 1412, "trial_type": "text", "internal_node_id": "0.0-177.0", "time_elapsed": 1148311, "key_press": 39, "type": "INSTRUCTIONS", "trial_index": 240}, "uniqueid": "MTK3114:3OS4RQUCRAMWXV3CAWFEJJ3S6IMBFE", "dateTime": 1520023922670}, {"current_trial": 241, "trialdata": {"rt": [1766, 4030, 5638, 7366, 9918], "trial_type": "math-distractor", "key_times": [1526, 1685, 1766, 3589, 3918, 4030, 5534, 5638, 6878, 7198, 7366, 9638, 9830, 9918], "responses": ["11", "19", "6", "19", "12"], "num2": [1, 4, 3, 5, 8, 6], "num3": [4, 7, 1, 5, 1, 5], "conditions": [24, 800, "v", 12000], "internal_node_id": "0.0-178.0", "key_presses": [49, 49, 13, 49, 57, 13, 54, 13, 49, 57, 13, 49, 50, 13], "trial": 7, "time_elapsed": 1162313, "type": "DISTRACTOR", "trial_index": 241, "num1": [6, 8, 2, 9, 3, 8]}, "uniqueid": "MTK3114:3OS4RQUCRAMWXV3CAWFEJJ3S6IMBFE", "dateTime": 1520023936672}, {"current_trial": 242, "trialdata": {"rt": -1, "trial_type": "single-stim", "stimulus": "<p id=\"stim\">10</p>", "internal_node_id": "0.0-179.0-0.0", "time_elapsed": 1165315, "key_press": -1, "trial_index": 242}, "uniqueid": "MTK3114:3OS4RQUCRAMWXV3CAWFEJJ3S6IMBFE", "dateTime": 1520023939674}, {"current_trial": 243, "trialdata": {"rt": -1, "trial_type": "single-stim", "stimulus": "<p id=\"stim\">9</p>", "internal_node_id": "0.0-179.0-1.0", "time_elapsed": 1166316, "key_press": -1, "trial_index": 243}, "uniqueid": "MTK3114:3OS4RQUCRAMWXV3CAWFEJJ3S6IMBFE", "dateTime": 1520023940675}, {"current_trial": 244, "trialdata": {"rt": -1, "trial_type": "single-stim", "stimulus": "<p id=\"stim\">8</p>", "internal_node_id": "0.0-179.0-2.0", "time_elapsed": 1167317, "key_press": -1, "trial_index": 244}, "uniqueid": "MTK3114:3OS4RQUCRAMWXV3CAWFEJJ3S6IMBFE", "dateTime": 1520023941676}, {"current_trial": 245, "trialdata": {"rt": -1, "trial_type": "single-stim", "stimulus": "<p id=\"stim\">7</p>", "internal_node_id": "0.0-179.0-3.0", "time_elapsed": 1168319, "key_press": -1, "trial_index": 245}, "uniqueid": "MTK3114:3OS4RQUCRAMWXV3CAWFEJJ3S6IMBFE", "dateTime": 1520023942678}, {"current_trial": 246, "trialdata": {"rt": -1, "trial_type": "single-stim", "stimulus": "<p id=\"stim\">6</p>", "internal_node_id": "0.0-179.0-4.0", "time_elapsed": 1169320, "key_press": -1, "trial_index": 246}, "uniqueid": "MTK3114:3OS4RQUCRAMWXV3CAWFEJJ3S6IMBFE", "dateTime": 1520023943679}, {"current_trial": 247, "trialdata": {"rt": -1, "trial_type": "single-stim", "stimulus": "<p id=\"stim\">5</p>", "internal_node_id": "0.0-179.0-5.0", "time_elapsed": 1170321, "key_press": -1, "trial_index": 247}, "uniqueid": "MTK3114:3OS4RQUCRAMWXV3CAWFEJJ3S6IMBFE", "dateTime": 1520023944680}, {"current_trial": 248, "trialdata": {"rt": -1, "trial_type": "single-stim", "stimulus": "<p id=\"stim\">4</p>", "internal_node_id": "0.0-179.0-6.0", "time_elapsed": 1171322, "key_press": -1, "trial_index": 248}, "uniqueid": "MTK3114:3OS4RQUCRAMWXV3CAWFEJJ3S6IMBFE", "dateTime": 1520023945682}, {"current_trial": 249, "trialdata": {"rt": -1, "trial_type": "single-stim", "stimulus": "<p id=\"stim\">3</p>", "internal_node_id": "0.0-179.0-7.0", "time_elapsed": 1172324, "key_press": -1, "trial_index": 249}, "uniqueid": "MTK3114:3OS4RQUCRAMWXV3CAWFEJJ3S6IMBFE", "dateTime": 1520023946683}, {"current_trial": 250, "trialdata": {"rt": -1, "trial_type": "single-stim", "stimulus": "<p id=\"stim\">2</p>", "internal_node_id": "0.0-179.0-8.0", "time_elapsed": 1173325, "key_press": -1, "trial_index": 250}, "uniqueid": "MTK3114:3OS4RQUCRAMWXV3CAWFEJJ3S6IMBFE", "dateTime": 1520023947684}, {"current_trial": 251, "trialdata": {"rt": -1, "trial_type": "single-stim", "stimulus": "<p id=\"stim\">1</p>", "internal_node_id": "0.0-179.0-9.0", "time_elapsed": 1174326, "key_press": -1, "trial_index": 251}, "uniqueid": "MTK3114:3OS4RQUCRAMWXV3CAWFEJJ3S6IMBFE", "dateTime": 1520023948685}, {"current_trial": 252, "trialdata": {"rt": -1, "trial_type": "single-stim", "stimulus": "<p id