{"assignmentId": "3SLE99ER0OK22CUCB89LMBJAI7MZB0", "workerId": "MTK3006", "questiondata": {"origin": "United States", "strat-rehearsal": "68", "marital": "Single", "education": "Some college", "ethnicity": "Not Hispanic", "color_depth": 24, "distracted": "No", "wrote-notes": "No", "strat-other": "I didn't really try to use any strategy.  I really only said most words aloud once.", "screen_width": 1440, "avail_screen_width": 1440, "avail_screen_height": 900, "strat-image": "26", "language": "English", "gender": "Female", "age": "43", "gender_other": "", "race": ["Black"], "strat-categorize": "25", "pixel_depth": 24, "strat-spatial": "1", "strat-story": "6", "race_other": "", "screen_height": 900}, "bonus": 0, "hitId": "3KI0JD2ZU1PBP69H6KVSVR8Z90B67L", "counterbalance": 2736, "useragent": "Mozilla/5.0 (X11; Linux x86_64) AppleWebKit/537.36 (KHTML, like Gecko) Chrome/63.0.3239.108 Safari/537.36", "eventdata": [{"eventtype": "initialized", "interval": 0, "value": null, "timestamp": 1519664651721}, {"eventtype": "window_resize", "interval": 0, "value": [1309, 769], "timestamp": 1519664651721}, {"eventtype": "focus", "interval": 678460, "value": "off", "timestamp": 1519665330181}, {"eventtype": "focus", "interval": 7131, "value": "on", "timestamp": 1519665337312}, {"eventtype": "window_resize", "interval": 2043268, "value": [1309, 818], "timestamp": 1519667380580}, {"eventtype": "window_resize", "interval": 58165, "value": [1309, 769], "timestamp": 1519667438745}, {"eventtype": "focus", "interval": 967747, "value": "off", "timestamp": 1519668406492}, {"eventtype": "focus", "interval": 713, "value": "on", "timestamp": 1519668407205}, {"eventtype": "focus", "interval": 34, "value": "off", "timestamp": 1519668407239}, {"eventtype": "focus", "interval": 987, "value": "on", "timestamp": 1519668408226}, {"eventtype": "focus", "interval": 53212, "value": "off", "timestamp": 1519668461438}, {"eventtype": "window_resize", "interval": 981, "value": [1309, 769], "timestamp": 1519668462419}, {"eventtype": "focus", "interval": 4036, "value": "on", "timestamp": 1519668466455}], "data": [{"current_trial": 0, "trialdata": {"rt": 3935, "trial_type": "text", "internal_node_id": "0.0-0.0", "time_elapsed": 3938, "key_press": 75, "type": "INSTRUCTIONS", "trial_index": 0}, "uniqueid": "MTK3006:3SLE99ER0OK22CUCB89LMBJAI7MZB0", "dateTime": 1519664656168}, {"current_trial": 1, "trialdata": {"rt": 107097, "trial_type": "text", "internal_node_id": "0.0-1.0", "time_elapsed": 111037, "key_press": 75, "type": "INSTRUCTIONS", "trial_index": 1}, "uniqueid": "MTK3006:3SLE99ER0OK22CUCB89LMBJAI7MZB0", "dateTime": 1519664763266}, {"current_trial": 2, "trialdata": {"rt": [30502], "trial_type": "audio-test", "responses": ["ocean"], "internal_node_id": "0.0-2.0", "time_elapsed": 141564, "type": "AUDIO_TEST", "trial_index": 2}, "uniqueid": "MTK3006:3SLE99ER0OK22CUCB89LMBJAI7MZB0", "dateTime": 1519664793794}, {"current_trial": 3, "trialdata": {"rt": [17096], "trial_type": "audio-test", "responses": ["crystal"], "internal_node_id": "0.0-3.0", "time_elapsed": 158668, "type": "AUDIO_TEST", "trial_index": 3}, "uniqueid": "MTK3006:3SLE99ER0OK22CUCB89LMBJAI7MZB0", "dateTime": 1519664810898}, {"current_trial": 4, "trialdata": {"rt": [10105], "trial_type": "audio-test", "responses": ["spice"], "internal_node_id": "0.0-4.0", "time_elapsed": 168779, "type": "AUDIO_TEST", "trial_index": 4}, "uniqueid": "MTK3006:3SLE99ER0OK22CUCB89LMBJAI7MZB0", "dateTime": 1519664821008}, {"current_trial": 5, "trialdata": {"rt": 51662, "trial_type": "survey-text", "responses": "{\"Q0\":\"11pm\",\"Q1\":\"6am\",\"Q2\":\"4\"}", "internal_node_id": "0.0-5.0", "time_elapsed": 221194, "type": "SLEEP_SURVEY", "trial_index": 5}, "uniqueid": "MTK3006:3SLE99ER0OK22CUCB89LMBJAI7MZB0", "dateTime": 1519664873423}, {"current_trial": 6, "trialdata": {"rt": 106401, "trial_type": "text", "internal_node_id": "0.0-6.0", "time_elapsed": 328597, "key_press": 75, "type": "INSTRUCTIONS", "trial_index": 6}, "uniqueid": "MTK3006:3SLE99ER0OK22CUCB89LMBJAI7MZB0", "dateTime": 1519664980826}, {"current_trial": 7, "trialdata": {"rt": 42609, "trial_type": "text", "internal_node_id": "0.0-7.0", "time_elapsed": 371708, "key_press": 75, "type": "INSTRUCTIONS", "trial_index": 7}, "uniqueid": "MTK3006:3SLE99ER0OK22CUCB89LMBJAI7MZB0", "dateTime": 1519665023937}, {"current_trial": 8, "trialdata": {"rt": 21411, "trial_type": "text", "internal_node_id": "0.0-8.0", "time_elapsed": 393619, "key_press": 75, "type": "INSTRUCTIONS", "trial_index": 8}, "uniqueid": "MTK3006:3SLE99ER0OK22CUCB89LMBJAI7MZB0", "dateTime": 1519665045848}, {"current_trial": 9, "trialdata": {"rt": [6833, 11009, 15089], "trial_type": "math-distractor", "key_times": [3890, 4594, 6833, 9114, 9634, 11009, 13521, 13913, 15089, 17377], "responses": ["16", "21", "10"], "num2": [5, 5, 2, 4], "num3": [8, 9, 3, 2], "conditions": [18, 1200, "v", 18000], "internal_node_id": "0.0-9.0", "key_presses": [97, 102, 13, 98, 97, 13, 97, 96, 13, 105], "trial": 0, "time_elapsed": 412633, "type": "DISTRACTOR", "trial_index": 9, "num1": [3, 7, 5, 3]}, "uniqueid": "MTK3006:3SLE99ER0OK22CUCB89LMBJAI7MZB0", "dateTime": 1519665064862}, {"current_trial": 10, "trialdata": {"rt": -1, "trial_type": "single-stim", "stimulus": "<p id=\"stim\">10</p>", "internal_node_id": "0.0-10.0-0.0", "time_elapsed": 415636, "key_press": -1, "trial_index": 10}, "uniqueid": "MTK3006:3SLE99ER0OK22CUCB89LMBJAI7MZB0", "dateTime": 1519665067865}, {"current_trial": 11, "trialdata": {"rt": -1, "trial_type": "single-stim", "stimulus": "<p id=\"stim\">9</p>", "internal_node_id": "0.0-10.0-1.0", "time_elapsed": 416637, "key_press": -1, "trial_index": 11}, "uniqueid": "MTK3006:3SLE99ER0OK22CUCB89LMBJAI7MZB0", "dateTime": 1519665068866}, {"current_trial": 12, "trialdata": {"rt": -1, "trial_type": "single-stim", "stimulus": "<p id=\"stim\">8</p>", "internal_node_id": "0.0-10.0-2.0", "time_elapsed": 417638, "key_press": -1, "trial_index": 12}, "uniqueid": "MTK3006:3SLE99ER0OK22CUCB89LMBJAI7MZB0", "dateTime": 1519665069867}, {"current_trial": 13, "trialdata": {"rt": -1, "trial_type": "single-stim", "stimulus": "<p id=\"stim\">7</p>", "internal_node_id": "0.0-10.0-3.0", "time_elapsed": 418639, "key_press": -1, "trial_index": 13}, "uniqueid": "MTK3006:3SLE99ER0OK22CUCB89LMBJAI7MZB0", "dateTime": 1519665070868}, {"current_trial": 14, "trialdata": {"rt": -1, "trial_type": "single-stim", "stimulus": "<p id=\"stim\">6</p>", "internal_node_id": "0.0-10.0-4.0", "time_elapsed": 419641, "key_press": -1, "trial_index": 14}, "uniqueid": "MTK3006:3SLE99ER0OK22CUCB89LMBJAI7MZB0", "dateTime": 1519665071870}, {"current_trial": 15, "trialdata": {"rt": -1, "trial_type": "single-stim", "stimulus": "<p id=\"stim\">5</p>", "internal_node_id": "0.0-10.0-5.0", "time_elapsed": 420642, "key_press": -1, "trial_index": 15}, "uniqueid": "MTK3006:3SLE99ER0OK22CUCB89LMBJAI7MZB0", "dateTime": 1519665072871}, {"current_trial": 16, "trialdata": {"rt": -1, "trial_type": "single-stim", "stimulus": "<p id=\"stim\">4</p>", "internal_node_id": "0.0-10.0-6.0", "time_elapsed": 421643, "key_press": -1, "trial_index": 16}, "uniqueid": "MTK3006:3SLE99ER0OK22CUCB89LMBJAI7MZB0", "dateTime": 1519665073872}, {"current_trial": 17, "trialdata": {"rt": -1, "trial_type": "single-stim", "stimulus": "<p id=\"stim\">3</p>", "internal_node_id": "0.0-10.0-7.0", "time_elapsed": 422645, "key_press": -1, "trial_index": 17}, "uniqueid": "MTK3006:3SLE99ER0OK22CUCB89LMBJAI7MZB0", "dateTime": 1519665074874}, {"current_trial": 18, "trialdata": {"rt": -1, "trial_type": "single-stim", "stimulus": "<p id=\"stim\">2</p>", "internal_node_id": "0.0-10.0-8.0", "time_elapsed": 423646, "key_press": -1, "trial_index": 18}, "uniqueid": "MTK3006:3SLE99ER0OK22CUCB89LMBJAI7MZB0", "dateTime": 1519665075875}, {"current_trial": 19, "trialdata": {"rt": -1, "trial_type": "single-stim", "stimulus": "<p id=\"stim\">1</p>", "internal_node_id": "0.0-10.0-9.0", "time_elapsed": 424647, "key_press": -1, "trial_index": 19}, "uniqueid": "MTK3006:3SLE99ER0OK22CUCB89LMBJAI7MZB0", "dateTime": 1519665076876}, {"current_trial": 20, "trialdata": {"rt": -1, "trial_type": "single-stim", "stimulus": "<p id=\"stim\">+</p>", "internal_node_id": "0.0-11.0-0.0", "time_elapsed": 426148, "key_press": -1, "type": "FIXATION", "trial_index": 20}, "uniqueid": "MTK3006:3SLE99ER0OK22CUCB89LMBJAI7MZB0", "dateTime": 1519665078377}, {"current_trial": 21, "trialdata": {"rt": -1, "trial_type": "single-stim", "word": "bug", "stimulus": "<p id=\"stim\">BUG</p>", "conditions": [18, 1200, "v", 18000], "internal_node_id": "0.0-12.0", "trial": 0, "time_elapsed": 427349, "serialpos": 0, "key_press": -1, "wordID": 186, "type": "PRES_VIS", "trial_index": 21}, "uniqueid": "MTK3006:3SLE99ER0OK22CUCB89LMBJAI7MZB0", "dateTime": 1519665079578}, {"current_trial": 22, "trialdata": {"rt": -1, "trial_type": "single-stim", "word": "taxi", "stimulus": "<p id=\"stim\">TAXI</p>", "conditions": [18, 1200, "v", 18000], "internal_node_id": "0.0-13.0", "trial": 0, "time_elapsed": 429435, "serialpos": 1, "key_press": -1, "wordID": 1437, "type": "PRES_VIS", "trial_index": 22}, "uniqueid": "MTK3006:3SLE99ER0OK22CUCB89LMBJAI7MZB0", "dateTime": 1519665081664}, {"current_trial": 23, "trialdata": {"rt": -1, "trial_type": "single-stim", "word": "brick", "stimulus": "<p id=\"stim\">BRICK</p>", "conditions": [18, 1200, "v", 18000], "internal_node_id": "0.0-14.0", "trial": 0, "time_elapsed": 431441, "serialpos": 2, "key_press": -1, "wordID": 171, "type": "PRES_VIS", "trial_index": 23}, "uniqueid": "MTK3006:3SLE99ER0OK22CUCB89LMBJAI7MZB0", "dateTime": 1519665083670}, {"current_trial": 24, "trialdata": {"rt": -1, "trial_type": "single-stim", "word": "hound", "stimulus": "<p id=\"stim\">HOUND</p>", "conditions": [18, 1200, "v", 18000], "internal_node_id": "0.0-15.0", "trial": 0, "time_elapsed": 433769, "serialpos": 3, "key_press": -1, "wordID": 723, "type": "PRES_VIS", "trial_index": 24}, "uniqueid": "MTK3006:3SLE99ER0OK22CUCB89LMBJAI7MZB0", "dateTime": 1519665085999}, {"current_trial": 25, "trialdata": {"rt": -1, "trial_type": "single-stim", "word": "climber", "stimulus": "<p id=\"stim\">CLIMBER</p>", "conditions": [18, 1200, "v", 18000], "internal_node_id": "0.0-16.0", "trial": 0, "time_elapsed": 436033, "serialpos": 4, "key_press": -1, "wordID": 322, "type": "PRES_VIS", "trial_index": 25}, "uniqueid": "MTK3006:3SLE99ER0OK22CUCB89LMBJAI7MZB0", "dateTime": 1519665088262}, {"current_trial": 26, "trialdata": {"rt": -1, "trial_type": "single-stim", "word": "crayon", "stimulus": "<p id=\"stim\">CRAYON</p>", "conditions": [18, 1200, "v", 18000], "internal_node_id": "0.0-17.0", "trial": 0, "time_elapsed": 438358, "serialpos": 5, "key_press": -1, "wordID": 400, "type": "PRES_VIS", "trial_index": 26}, "uniqueid": "MTK3006:3SLE99ER0OK22CUCB89LMBJAI7MZB0", "dateTime": 1519665090587}, {"current_trial": 27, "trialdata": {"rt": -1, "trial_type": "single-stim", "word": "proton", "stimulus": "<p id=\"stim\">PROTON</p>", "conditions": [18, 1200, "v", 18000], "internal_node_id": "0.0-18.0", "trial": 0, "time_elapsed": 440579, "serialpos": 6, "key_press": -1, "wordID": 1131, "type": "PRES_VIS", "trial_index": 27}, "uniqueid": "MTK3006:3SLE99ER0OK22CUCB89LMBJAI7MZB0", "dateTime": 1519665092808}, {"current_trial": 28, "trialdata": {"rt": -1, "trial_type": "single-stim", "word": "virus", "stimulus": "<p id=\"stim\">VIRUS</p>", "conditions": [18, 1200, "v", 18000], "internal_node_id": "0.0-19.0", "trial": 0, "time_elapsed": 442752, "serialpos": 7, "key_press": -1, "wordID": 1571, "type": "PRES_VIS", "trial_index": 28}, "uniqueid": "MTK3006:3SLE99ER0OK22CUCB89LMBJAI7MZB0", "dateTime": 1519665094981}, {"current_trial": 29, "trialdata": {"rt": -1, "trial_type": "single-stim", "word": "mars", "stimulus": "<p id=\"stim\">MARS</p>", "conditions": [18, 1200, "v", 18000], "internal_node_id": "0.0-20.0", "trial": 0, "time_elapsed": 444959, "serialpos": 8, "key_press": -1, "wordID": 872, "type": "PRES_VIS", "trial_index": 29}, "uniqueid": "MTK3006:3SLE99ER0OK22CUCB89LMBJAI7MZB0", "dateTime": 1519665097188}, {"current_trial": 30, "trialdata": {"rt": -1, "trial_type": "single-stim", "word": "crater", "stimulus": "<p id=\"stim\">CRATER</p>", "conditions": [18, 1200, "v", 18000], "internal_node_id": "0.0-21.0", "trial": 0, "time_elapsed": 447297, "serialpos": 9, "key_press": -1, "wordID": 399, "type": "PRES_VIS", "trial_index": 30}, "uniqueid": "MTK3006:3SLE99ER0OK22CUCB89LMBJAI7MZB0", "dateTime": 1519665099526}, {"current_trial": 31, "trialdata": {"rt": -1, "trial_type": "single-stim", "word": "lake", "stimulus": "<p id=\"stim\">LAKE</p>", "conditions": [18, 1200, "v", 18000], "internal_node_id": "0.0-22.0", "trial": 0, "time_elapsed": 449348, "serialpos": 10, "key_press": -1, "wordID": 795, "type": "PRES_VIS", "trial_index": 31}, "uniqueid": "MTK3006:3SLE99ER0OK22CUCB89LMBJAI7MZB0", "dateTime": 1519665101577}, {"current_trial": 32, "trialdata": {"rt": -1, "trial_type": "single-stim", "word": "spoon", "stimulus": "<p id=\"stim\">SPOON</p>", "conditions": [18, 1200, "v", 18000], "internal_node_id": "0.0-23.0", "trial": 0, "time_elapsed": 451384, "serialpos": 11, "key_press": -1, "wordID": 1356, "type": "PRES_VIS", "trial_index": 32}, "uniqueid": "MTK3006:3SLE99ER0OK22CUCB89LMBJAI7MZB0", "dateTime": 1519665103613}, {"current_trial": 33, "trialdata": {"rt": -1, "trial_type": "single-stim", "word": "country", "stimulus": "<p id=\"stim\">COUNTRY</p>", "conditions": [18, 1200, "v", 18000], "internal_node_id": "0.0-24.0", "trial": 0, "time_elapsed": 453517, "serialpos": 12, "key_press": -1, "wordID": 387, "type": "PRES_VIS", "trial_index": 33}, "uniqueid": "MTK3006:3SLE99ER0OK22CUCB89LMBJAI7MZB0", "dateTime": 1519665105746}, {"current_trial": 34, "trialdata": {"rt": -1, "trial_type": "single-stim", "word": "flask", "stimulus": "<p id=\"stim\">FLASK</p>", "conditions": [18, 1200, "v", 18000], "internal_node_id": "0.0-25.0", "trial": 0, "time_elapsed": 455910, "serialpos": 13, "key_press": -1, "wordID": 575, "type": "PRES_VIS", "trial_index": 34}, "uniqueid": "MTK3006:3SLE99ER0OK22CUCB89LMBJAI7MZB0", "dateTime": 1519665108139}, {"current_trial": 35, "trialdata": {"rt": -1, "trial_type": "single-stim", "word": "turnip", "stimulus": "<p id=\"stim\">TURNIP</p>", "conditions": [18, 1200, "v", 18000], "internal_node_id": "0.0-26.0", "trial": 0, "time_elapsed": 458101, "serialpos": 14, "key_press": -1, "wordID": 1520, "type": "PRES_VIS", "trial_index": 35}, "uniqueid": "MTK3006:3SLE99ER0OK22CUCB89LMBJAI7MZB0", "dateTime": 1519665110330}, {"current_trial": 36, "trialdata": {"rt": -1, "trial_type": "single-stim", "word": "binder", "stimulus": "<p id=\"stim\">BINDER</p>", "conditions": [18, 1200, "v", 18000], "internal_node_id": "0.0-27.0", "trial": 0, "time_elapsed": 460198, "serialpos": 15, "key_press": -1, "wordID": 126, "type": "PRES_VIS", "trial_index": 36}, "uniqueid": "MTK3006:3SLE99ER0OK22CUCB89LMBJAI7MZB0", "dateTime": 1519665112427}, {"current_trial": 37, "trialdata": {"rt": -1, "trial_type": "single-stim", "word": "zebra", "stimulus": "<p id=\"stim\">ZEBRA</p>", "conditions": [18, 1200, "v", 18000], "internal_node_id": "0.0-28.0", "trial": 0, "time_elapsed": 462242, "serialpos": 16, "key_press": -1, "wordID": 1634, "type": "PRES_VIS", "trial_index": 37}, "uniqueid": "MTK3006:3SLE99ER0OK22CUCB89LMBJAI7MZB0", "dateTime": 1519665114471}, {"current_trial": 38, "trialdata": {"rt": -1, "trial_type": "single-stim", "word": "sketch", "stimulus": "<p id=\"stim\">SKETCH</p>", "conditions": [18, 1200, "v", 18000], "internal_node_id": "0.0-29.0", "trial": 0, "time_elapsed": 464394, "serialpos": 17, "key_press": -1, "wordID": 1314, "type": "PRES_VIS", "trial_index": 38}, "uniqueid": "MTK3006:3SLE99ER0OK22CUCB89LMBJAI7MZB0", "dateTime": 1519665116623}, {"current_trial": 39, "trialdata": {"rt": -1, "trial_type": "single-stim", "stimulus": "", "internal_node_id": "0.0-30.0-0.0", "time_elapsed": 466512, "key_press": -1, "type": "PRE_RECALL_DELAY", "trial_index": 39}, "uniqueid": "MTK3006:3SLE99ER0OK22CUCB89LMBJAI7MZB0", "dateTime": 1519665118741}, {"current_trial": 40, "trialdata": {"rt": -1000, "trial_type": "single-audio", "stimulus": "/static/audio/400Hz.wav", "internal_node_id": "0.0-31.0", "time_elapsed": 467014, "key_press": -1, "type": "PRE_RECALL_ALERT", "trial_index": 40}, "uniqueid": "MTK3006:3SLE99ER0OK22CUCB89LMBJAI7MZB0", "dateTime": 1519665119243}, {"current_trial": 41, "trialdata": {"rt": [7607, 9519, 11727, 15079, 17406, 20038, 24598, 54557], "recwords": ["sketch", "bug", "taxi", "crater", "lake", "proton", "spoon", "taxi"], "key_times": [4938, 5583, 5871, 6239, 6695, 6871, 7607, 8551, 8871, 9287, 9519, 10351, 10623, 11087, 11351, 11727, 12567, 12999, 13351, 14039, 14367, 14503, 15079, 16175, 16382, 17007, 17190, 17406, 18175, 18646, 18815, 19151, 19439, 19662, 20038, 22598, 22990, 23654, 23871, 24158, 24598, 52902, 53125, 53685, 54213, 54557], "trial_type": "free-recall", "conditions": [18, 1200, "v", 18000], "internal_node_id": "0.0-32.0-0.0", "key_presses": [83, 75, 69, 84, 67, 72, 13, 66, 85, 71, 13, 84, 65, 88, 73, 13, 67, 82, 65, 84, 69, 82, 13, 76, 65, 75, 69, 13, 80, 82, 79, 84, 79, 78, 13, 83, 80, 79, 79, 78, 13, 84, 65, 88, 73, 13], "trial": 0, "time_elapsed": 527018, "type": "FREE_RECALL", "trial_index": 41}, "uniqueid": "MTK3006:3SLE99ER0OK22CUCB89LMBJAI7MZB0", "dateTime": 1519665179249}, {"current_trial": 42, "trialdata": {"rt": 2528, "trial_type": "text", "internal_node_id": "0.0-33.0", "time_elapsed": 531549, "key_press": 75, "type": "INSTRUCTIONS", "trial_index": 42}, "uniqueid": "MTK3006:3SLE99ER0OK22CUCB89LMBJAI7MZB0", "dateTime": 1519665183778}, {"current_trial": 43, "trialdata": {"rt": [3734, 6646, 9390, 12909, 16973], "trial_type": "math-distractor", "key_times": [2423, 2614, 3734, 5486, 5726, 6646, 8310, 8534, 9390, 12021, 12421, 12909, 15902, 16101, 16973], "responses": ["11", "12", "15", "27", "11"], "num2": [4, 7, 5, 9, 4, 1], "num3": [4, 4, 9, 8, 4, 2], "conditions": [18, 1200, "v", 18000], "internal_node_id": "0.0-34.0", "key_presses": [97, 97, 13, 97, 98, 13, 97, 101, 13, 98, 103, 13, 97, 97, 13], "trial": 1, "time_elapsed": 551552, "type": "DISTRACTOR", "trial_index": 43, "num1": [3, 1, 1, 9, 3, 5]}, "uniqueid": "MTK3006:3SLE99ER0OK22CUCB89LMBJAI7MZB0", "dateTime": 1519665203781}, {"current_trial": 44, "trialdata": {"rt": -1, "trial_type": "single-stim", "stimulus": "<p id=\"stim\">10</p>", "internal_node_id": "0.0-35.0-0.0", "time_elapsed": 554554, "key_press": -1, "trial_index": 44}, "uniqueid": "MTK3006:3SLE99ER0OK22CUCB89LMBJAI7MZB0", "dateTime": 1519665206783}, {"current_trial": 45, "trialdata": {"rt": -1, "trial_type": "single-stim", "stimulus": "<p id=\"stim\">9</p>", "internal_node_id": "0.0-35.0-1.0", "time_elapsed": 555555, "key_press": -1, "trial_index": 45}, "uniqueid": "MTK3006:3SLE99ER0OK22CUCB89LMBJAI7MZB0", "dateTime": 1519665207784}, {"current_trial": 46, "trialdata": {"rt": -1, "trial_type": "single-stim", "stimulus": "<p id=\"stim\">8</p>", "internal_node_id": "0.0-35.0-2.0", "time_elapsed": 556556, "key_press": -1, "trial_index": 46}, "uniqueid": "MTK3006:3SLE99ER0OK22CUCB89LMBJAI7MZB0", "dateTime": 1519665208785}, {"current_trial": 47, "trialdata": {"rt": -1, "trial_type": "single-stim", "stimulus": "<p id=\"stim\">7</p>", "internal_node_id": "0.0-35.0-3.0", "time_elapsed": 557557, "key_press": -1, "trial_index": 47}, "uniqueid": "MTK3006:3SLE99ER0OK22CUCB89LMBJAI7MZB0", "dateTime": 1519665209786}, {"current_trial": 48, "trialdata": {"rt": -1, "trial_type": "single-stim", "stimulus": "<p id=\"stim\">6</p>", "internal_node_id": "0.0-35.0-4.0", "time_elapsed": 558558, "key_press": -1, "trial_index": 48}, "uniqueid": "MTK3006:3SLE99ER0OK22CUCB89LMBJAI7MZB0", "dateTime": 1519665210787}, {"current_trial": 49, "trialdata": {"rt": -1, "trial_type": "single-stim", "stimulus": "<p id=\"stim\">5</p>", "internal_node_id": "0.0-35.0-5.0", "time_elapsed": 559559, "key_press": -1, "trial_index": 49}, "uniqueid": "MTK3006:3SLE99ER0OK22CUCB89LMBJAI7MZB0", "dateTime": 1519665211788}, {"current_trial": 50, "trialdata": {"rt": -1, "trial_type": "single-stim", "stimulus": "<p id=\"stim\">4</p>", "internal_node_id": "0.0-35.0-6.0", "time_elapsed": 560560, "key_press": -1, "trial_index": 50}, "uniqueid": "MTK3006:3SLE99ER0OK22CUCB89LMBJAI7MZB0", "dateTime": 1519665212789}, {"current_trial": 51, "trialdata": {"rt": -1, "trial_type": "single-stim", "stimulus": "<p id=\"stim\">3</p>", "internal_node_id": "0.0-35.0-7.0", "time_elapsed": 561561, "key_press": -1, "trial_index": 51}, "uniqueid": "MTK3006:3SLE99ER0OK22CUCB89LMBJAI7MZB0", "dateTime": 1519665213790}, {"current_trial": 52, "trialdata": {"rt": -1, "trial_type": "single-stim", "stimulus": "<p id=\"stim\">2</p>", "internal_node_id": "0.0-35.0-8.0", "time_elapsed": 562562, "key_press": -1, "trial_index": 52}, "uniqueid": "MTK3006:3SLE99ER0OK22CUCB89LMBJAI7MZB0", "dateTime": 1519665214791}, {"current_trial": 53, "trialdata": {"rt": -1, "trial_type": "single-stim", "stimulus": "<p id=\"stim\">1</p>", "internal_node_id": "0.0-35.0-9.0", "time_elapsed": 563563, "key_press": -1, "trial_index": 53}, "uniqueid": "MTK3006:3SLE99ER0OK22CUCB89LMBJAI7MZB0", "dateTime": 1519665215792}, {"current_trial": 54, "trialdata": {"rt": -1, "trial_type": "single-stim", "stimulus": "<p id=\"stim\">+</p>", "internal_node_id": "0.0-36.0-0.0", "time_elapsed": 565064, "key_press": -1, "type": "FIXATION", "trial_index": 54}, "uniqueid": "MTK3006:3SLE99ER0OK22CUCB89LMBJAI7MZB0", "dateTime": 1519665217293}, {"current_trial": 55, "trialdata": {"rt": -1, "trial_type": "single-stim", "word": "lapel", "stimulus": "<p id=\"stim\">LAPEL</p>", "conditions": [18, 1200, "v", 18000], "internal_node_id": "0.0-37.0", "trial": 1, "time_elapsed": 566265, "serialpos": 0, "key_press": -1, "wordID": 799, "type": "PRES_VIS", "trial_index": 55}, "uniqueid": "MTK3006:3SLE99ER0OK22CUCB89LMBJAI7MZB0", "dateTime": 1519665218495}, {"current_trial": 56, "trialdata": {"rt": -1, "trial_type": "single-stim", "word": "blueprint", "stimulus": "<p id=\"stim\">BLUEPRINT</p>", "conditions": [18, 1200, "v", 18000], "internal_node_id": "0.0-38.0", "trial": 1, "time_elapsed": 568621, "serialpos": 1, "key_press": -1, "wordID": 141, "type": "PRES_VIS", "trial_index": 56}, "uniqueid": "MTK3006:3SLE99ER0OK22CUCB89LMBJAI7MZB0", "dateTime": 1519665220850}, {"current_trial": 57, "trialdata": {"rt": -1, "trial_type": "single-stim", "word": "gravel", "stimulus": "<p id=\"stim\">GRAVEL</p>", "conditions": [18, 1200, "v", 18000], "internal_node_id": "0.0-39.0", "trial": 1, "time_elapsed": 570964, "serialpos": 2, "key_press": -1, "wordID": 658, "type": "PRES_VIS", "trial_index": 57}, "uniqueid": "MTK3006:3SLE99ER0OK22CUCB89LMBJAI7MZB0", "dateTime": 1519665223193}, {"current_trial": 58, "trialdata": {"rt": -1, "trial_type": "single-stim", "word": "airport", "stimulus": "<p id=\"stim\">AIRPORT</p>", "conditions": [18, 1200, "v", 18000], "internal_node_id": "0.0-40.0", "trial": 1, "time_elapsed": 573364, "serialpos": 3, "key_press": -1, "wordID": 12, "type": "PRES_VIS", "trial_index": 58}, "uniqueid": "MTK3006:3SLE99ER0OK22CUCB89LMBJAI7MZB0", "dateTime": 1519665225594}, {"current_trial": 59, "trialdata": {"rt": -1, "trial_type": "single-stim", "word": "motor", "stimulus": "<p id=\"stim\">MOTOR</p>", "conditions": [18, 1200, "v", 18000], "internal_node_id": "0.0-41.0", "trial": 1, "time_elapsed": 575730, "serialpos": 4, "key_press": -1, "wordID": 921, "type": "PRES_VIS", "trial_index": 59}, "uniqueid": "MTK3006:3SLE99ER0OK22CUCB89LMBJAI7MZB0", "dateTime": 1519665227959}, {"current_trial": 60, "trialdata": {"rt": -1, "trial_type": "single-stim", "word": "pluto", "stimulus": "<p id=\"stim\">PLUTO</p>", "conditions": [18, 1200, "v", 18000], "internal_node_id": "0.0-42.0", "trial": 1, "time_elapsed": 577785, "serialpos": 5, "key_press": -1, "wordID": 1091, "type": "PRES_VIS", "trial_index": 60}, "uniqueid": "MTK3006:3SLE99ER0OK22CUCB89LMBJAI7MZB0", "dateTime": 1519665230014}, {"current_trial": 61, "trialdata": {"rt": -1, "trial_type": "single-stim", "word": "crab", "stimulus": "<p id=\"stim\">CRAB</p>", "conditions": [18, 1200, "v", 18000], "internal_node_id": "0.0-43.0", "trial": 1, "time_elapsed": 580160, "serialpos": 6, "key_press": -1, "wordID": 396, "type": "PRES_VIS", "trial_index": 61}, "uniqueid": "MTK3006:3SLE99ER0OK22CUCB89LMBJAI7MZB0", "dateTime": 1519665232390}, {"current_trial": 62, "trialdata": {"rt": -1, "trial_type": "single-stim", "word": "flower", "stimulus": "<p id=\"stim\">FLOWER</p>", "conditions": [18, 1200, "v", 18000], "internal_node_id": "0.0-44.0", "trial": 1, "time_elapsed": 582186, "serialpos": 7, "key_press": -1, "wordID": 583, "type": "PRES_VIS", "trial_index": 62}, "uniqueid": "MTK3006:3SLE99ER0OK22CUCB89LMBJAI7MZB0", "dateTime": 1519665234415}, {"current_trial": 63, "trialdata": {"rt": -1, "trial_type": "single-stim", "word": "author", "stimulus": "<p id=\"stim\">AUTHOR</p>", "conditions": [18, 1200, "v", 18000], "internal_node_id": "0.0-45.0", "trial": 1, "time_elapsed": 584506, "serialpos": 8, "key_press": -1, "wordID": 60, "type": "PRES_VIS", "trial_index": 63}, "uniqueid": "MTK3006:3SLE99ER0OK22CUCB89LMBJAI7MZB0", "dateTime": 1519665236735}, {"current_trial": 64, "trialdata": {"rt": -1, "trial_type": "single-stim", "word": "poison", "stimulus": "<p id=\"stim\">POISON</p>", "conditions": [18, 1200, "v", 18000], "internal_node_id": "0.0-46.0", "trial": 1, "time_elapsed": 586546, "serialpos": 9, "key_press": -1, "wordID": 1095, "type": "PRES_VIS", "trial_index": 64}, "uniqueid": "MTK3006:3SLE99ER0OK22CUCB89LMBJAI7MZB0", "dateTime": 1519665238776}, {"current_trial": 65, "trialdata": {"rt": -1, "trial_type": "single-stim", "word": "truck", "stimulus": "<p id=\"stim\">TRUCK</p>", "conditions": [18, 1200, "v", 18000], "internal_node_id": "0.0-47.0", "trial": 1, "time_elapsed": 588695, "serialpos": 10, "key_press": -1, "wordID": 1511, "type": "PRES_VIS", "trial_index": 65}, "uniqueid": "MTK3006:3SLE99ER0OK22CUCB89LMBJAI7MZB0", "dateTime": 1519665240924}, {"current_trial": 66, "trialdata": {"rt": -1, "trial_type": "single-stim", "word": "ground", "stimulus": "<p id=\"stim\">GROUND</p>", "conditions": [18, 1200, "v", 18000], "internal_node_id": "0.0-48.0", "trial": 1, "time_elapsed": 590987, "serialpos": 11, "key_press": -1, "wordID": 665, "type": "PRES_VIS", "trial_index": 66}, "uniqueid": "MTK3006:3SLE99ER0OK22CUCB89LMBJAI7MZB0", "dateTime": 1519665243216}, {"current_trial": 67, "trialdata": {"rt": -1, "trial_type": "single-stim", "word": "widow", "stimulus": "<p id=\"stim\">WIDOW</p>", "conditions": [18, 1200, "v", 18000], "internal_node_id": "0.0-49.0", "trial": 1, "time_elapsed": 593072, "serialpos": 12, "key_press": -1, "wordID": 1607, "type": "PRES_VIS", "trial_index": 67}, "uniqueid": "MTK3006:3SLE99ER0OK22CUCB89LMBJAI7MZB0", "dateTime": 1519665245302}, {"current_trial": 68, "trialdata": {"rt": -1, "trial_type": "single-stim", "word": "primate", "stimulus": "<p id=\"stim\">PRIMATE</p>", "conditions": [18, 1200, "v", 18000], "internal_node_id": "0.0-50.0", "trial": 1, "time_elapsed": 595182, "serialpos": 13, "key_press": -1, "wordID": 1122, "type": "PRES_VIS", "trial_index": 68}, "uniqueid": "MTK3006:3SLE99ER0OK22CUCB89LMBJAI7MZB0", "dateTime": 1519665247413}, {"current_trial": 69, "trialdata": {"rt": -1, "trial_type": "single-stim", "word": "clock", "stimulus": "<p id=\"stim\">CLOCK</p>", "conditions": [18, 1200, "v", 18000], "internal_node_id": "0.0-51.0", "trial": 1, "time_elapsed": 597330, "serialpos": 14, "key_press": -1, "wordID": 324, "type": "PRES_VIS", "trial_index": 69}, "uniqueid": "MTK3006:3SLE99ER0OK22CUCB89LMBJAI7MZB0", "dateTime": 1519665249560}, {"current_trial": 70, "trialdata": {"rt": -1, "trial_type": "single-stim", "word": "pizza", "stimulus": "<p id=\"stim\">PIZZA</p>", "conditions": [18, 1200, "v", 18000], "internal_node_id": "0.0-52.0", "trial": 1, "time_elapsed": 599406, "serialpos": 15, "key_press": -1, "wordID": 1078, "type": "PRES_VIS", "trial_index": 70}, "uniqueid": "MTK3006:3SLE99ER0OK22CUCB89LMBJAI7MZB0", "dateTime": 1519665251635}, {"current_trial": 71, "trialdata": {"rt": -1, "trial_type": "single-stim", "word": "candy", "stimulus": "<p id=\"stim\">CANDY</p>", "conditions": [18, 1200, "v", 18000], "internal_node_id": "0.0-53.0", "trial": 1, "time_elapsed": 601565, "serialpos": 16, "key_press": -1, "wordID": 229, "type": "PRES_VIS", "trial_index": 71}, "uniqueid": "MTK3006:3SLE99ER0OK22CUCB89LMBJAI7MZB0", "dateTime": 1519665253794}, {"current_trial": 72, "trialdata": {"rt": -1, "trial_type": "single-stim", "word": "spouse", "stimulus": "<p id=\"stim\">SPOUSE</p>", "conditions": [18, 1200, "v", 18000], "internal_node_id": "0.0-54.0", "trial": 1, "time_elapsed": 603831, "serialpos": 17, "key_press": -1, "wordID": 1357, "type": "PRES_VIS", "trial_index": 72}, "uniqueid": "MTK3006:3SLE99ER0OK22CUCB89LMBJAI7MZB0", "dateTime": 1519665256060}, {"current_trial": 73, "trialdata": {"rt": -1, "trial_type": "single-stim", "stimulus": "", "internal_node_id": "0.0-55.0-0.0", "time_elapsed": 606014, "key_press": -1, "type": "PRE_RECALL_DELAY", "trial_index": 73}, "uniqueid": "MTK3006:3SLE99ER0OK22CUCB89LMBJAI7MZB0", "dateTime": 1519665258244}, {"current_trial": 74, "trialdata": {"rt": -1000, "trial_type": "single-audio", "stimulus": "/static/audio/400Hz.wav", "internal_node_id": "0.0-56.0", "time_elapsed": 606516, "key_press": -1, "type": "PRE_RECALL_ALERT", "trial_index": 74}, "uniqueid": "MTK3006:3SLE99ER0OK22CUCB89LMBJAI7MZB0", "dateTime": 1519665258745}, {"current_trial": 75, "trialdata": {"rt": [4148, 6476, 8860, 10796, 12884, 16085, 18236, 20380, 23619, 57714], "recwords": ["spouse", "pizza", "candy", "truck", "ground", "blueprint", "pluto", "lapel", "airport", "truck"], "key_times": [1941, 2364, 2940, 3116, 3468, 3764, 4148, 4788, 5196, 5492, 5756, 6108, 6476, 7212, 7420, 7620, 7908, 8476, 8860, 9436, 9732, 9900, 10156, 10380, 10796, 11532, 11820, 12012, 12124, 12444, 12620, 12884, 13508, 13684, 13964, 14148, 14972, 15268, 15436, 15700, 15908, 16085, 16692, 16988, 17300, 17676, 17892, 18236, 18980, 19116, 19364, 19796, 19948, 20380, 21052, 21260, 21940, 22540, 22804, 22979, 23323, 23619, 56347, 56626, 56938, 57194, 57402, 57714], "trial_type": "free-recall", "conditions": [18, 1200, "v", 18000], "internal_node_id": "0.0-57.0-0.0", "key_presses": [83, 80, 79, 85, 83, 69, 13, 80, 73, 90, 90, 65, 13, 67, 65, 78, 68, 89, 13, 84, 82, 85, 67, 75, 13, 71, 82, 79, 85, 78, 68, 13, 66, 76, 85, 69, 80, 82, 73, 78, 84, 13, 80, 76, 85, 84, 79, 13, 76, 65, 80, 69, 76, 13, 65, 73, 82, 80, 79, 82, 84, 13, 84, 82, 85, 67, 75, 13], "trial": 1, "time_elapsed": 666519, "type": "FREE_RECALL", "trial_index": 75}, "uniqueid": "MTK3006:3SLE99ER0OK22CUCB89LMBJAI7MZB0", "dateTime": 1519665318750}, {"current_trial": 76, "trialdata": {"rt": 46061, "trial_type": "text", "internal_node_id": "0.0-58.0", "time_elapsed": 714583, "key_press": 75, "type": "INSTRUCTIONS", "trial_index": 76}, "uniqueid": "MTK3006:3SLE99ER0OK22CUCB89LMBJAI7MZB0", "dateTime": 1519665366813}, {"current_trial": 77, "trialdata": {"rt": [4189, 6725, 9222, 11677], "trial_type": "math-distractor", "key_times": [2325, 2590, 4189, 5805, 5965, 6725, 8405, 8741, 9222, 11149, 11677], "responses": ["21", "12", "19", "6"], "num2": [7, 9, 6, 3, 4], "num3": [9, 2, 4, 2, 6], "conditions": [12, 800, "v", 12000], "internal_node_id": "0.0-59.0", "key_presses": [98, 97, 13, 97, 98, 13, 97, 105, 13, 102, 13], "trial": 2, "time_elapsed": 727586, "type": "DISTRACTOR", "trial_index": 77, "num1": [5, 1, 9, 1, 9]}, "uniqueid": "MTK3006:3SLE99ER0OK22CUCB89LMBJAI7MZB0", "dateTime": 1519665379815}, {"current_trial": 78, "trialdata": {"rt": -1, "trial_type": "single-stim", "stimulus": "<p id=\"stim\">10</p>", "internal_node_id": "0.0-60.0-0.0", "time_elapsed": 730588, "key_press": -1, "trial_index": 78}, "uniqueid": "MTK3006:3SLE99ER0OK22CUCB89LMBJAI7MZB0", "dateTime": 1519665382817}, {"current_trial": 79, "trialdata": {"rt": -1, "trial_type": "single-stim", "stimulus": "<p id=\"stim\">9</p>", "internal_node_id": "0.0-60.0-1.0", "time_elapsed": 731589, "key_press": -1, "trial_index": 79}, "uniqueid": "MTK3006:3SLE99ER0OK22CUCB89LMBJAI7MZB0", "dateTime": 1519665383818}, {"current_trial": 80, "trialdata": {"rt": -1, "trial_type": "single-stim", "stimulus": "<p id=\"stim\">8</p>", "internal_node_id": "0.0-60.0-2.0", "time_elapsed": 732590, "key_press": -1, "trial_index": 80}, "uniqueid": "MTK3006:3SLE99ER0OK22CUCB89LMBJAI7MZB0", "dateTime": 1519665384819}, {"current_trial": 81, "trialdata": {"rt": -1, "trial_type": "single-stim", "stimulus": "<p id=\"stim\">7</p>", "internal_node_id": "0.0-60.0-3.0", "time_elapsed": 733591, "key_press": -1, "trial_index": 81}, "uniqueid": "MTK3006:3SLE99ER0OK22CUCB89LMBJAI7MZB0", "dateTime": 1519665385820}, {"current_trial": 82, "trialdata": {"rt": -1, "trial_type": "single-stim", "stimulus": "<p id=\"stim\">6</p>", "internal_node_id": "0.0-60.0-4.0", "time_elapsed": 734592, "key_press": -1, "trial_index": 82}, "uniqueid": "MTK3006:3SLE99ER0OK22CUCB89LMBJAI7MZB0", "dateTime": 1519665386821}, {"current_trial": 83, "trialdata": {"rt": -1, "trial_type": "single-stim", "stimulus": "<p id=\"stim\">5</p>", "internal_node_id": "0.0-60.0-5.0", "time_elapsed": 735593, "key_press": -1, "trial_index": 83}, "uniqueid": "MTK3006:3SLE99ER0OK22CUCB89LMBJAI7MZB0", "dateTime": 1519665387822}, {"current_trial": 84, "trialdata": {"rt": -1, "trial_type": "single-stim", "stimulus": "<p id=\"stim\">4</p>", "internal_node_id": "0.0-60.0-6.0", "time_elapsed": 736594, "key_press": -1, "trial_index": 84}, "uniqueid": "MTK3006:3SLE99ER0OK22CUCB89LMBJAI7MZB0", "dateTime": 1519665388823}, {"current_trial": 85, "trialdata": {"rt": -1, "trial_type": "single-stim", "stimulus": "<p id=\"stim\">3</p>", "internal_node_id": "0.0-60.0-7.0", "time_elapsed": 737595, "key_press": -1, "trial_index": 85}, "uniqueid": "MTK3006:3SLE99ER0OK22CUCB89LMBJAI7MZB0", "dateTime": 1519665389824}, {"current_trial": 86, "trialdata": {"rt": -1, "trial_type": "single-stim", "stimulus": "<p id=\"stim\">2</p>", "internal_node_id": "0.0-60.0-8.0", "time_elapsed": 738596, "key_press": -1, "trial_index": 86}, "uniqueid": "MTK3006:3SLE99ER0OK22CUCB89LMBJAI7MZB0", "dateTime": 1519665390825}, {"current_trial": 87, "trialdata": {"rt": -1, "trial_type": "single-stim", "stimulus": "<p id=\"stim\">1</p>", "internal_node_id": "0.0-60.0-9.0", "time_elapsed": 739597, "key_press": -1, "trial_index": 87}, "uniqueid": "MTK3006:3SLE99ER0OK22CUCB89LMBJAI7MZB0", "dateTime": 1519665391826}, {"current_trial": 88, "trialdata": {"rt": -1, "trial_type": "single-stim", "stimulus": "<p id=\"stim\">+</p>", "internal_node_id": "0.0-61.0-0.0", "time_elapsed": 741098, "key_press": -1, "type": "FIXATION", "trial_index": 88}, "uniqueid": "MTK3006:3SLE99ER0OK22CUCB89LMBJAI7MZB0", "dateTime": 1519665393327}, {"current_trial": 89, "trialdata": {"rt": -1, "trial_type": "single-stim", "word": "dragon", "stimulus": "<p id=\"stim\">DRAGON</p>", "conditions": [12, 800, "v", 12000], "internal_node_id": "0.0-62.0", "trial": 2, "time_elapsed": 741899, "serialpos": 0, "key_press": -1, "wordID": 491, "type": "PRES_VIS", "trial_index": 89}, "uniqueid": "MTK3006:3SLE99ER0OK22CUCB89LMBJAI7MZB0", "dateTime": 1519665394128}, {"current_trial": 90, "trialdata": {"rt": -1, "trial_type": "single-stim", "word": "europe", "stimulus": "<p id=\"stim\">EUROPE</p>", "conditions": [12, 800, "v", 12000], "internal_node_id": "0.0-63.0", "trial": 2, "time_elapsed": 743634, "serialpos": 1, "key_press": -1, "wordID": 540, "type": "PRES_VIS", "trial_index": 90}, "uniqueid": "MTK3006:3SLE99ER0OK22CUCB89LMBJAI7MZB0", "dateTime": 1519665395863}, {"current_trial": 91, "trialdata": {"rt": -1, "trial_type": "single-stim", "word": "fox", "stimulus": "<p id=\"stim\">FOX</p>", "conditions": [12, 800, "v", 12000], "internal_node_id": "0.0-64.0", "trial": 2, "time_elapsed": 745310, "serialpos": 2, "key_press": -1, "wordID": 597, "type": "PRES_VIS", "trial_index": 91}, "uniqueid": "MTK3006:3SLE99ER0OK22CUCB89LMBJAI7MZB0", "dateTime": 1519665397539}, {"current_trial": 92, "trialdata": {"rt": -1, "trial_type": "single-stim", "word": "soda", "stimulus": "<p id=\"stim\">SODA</p>", "conditions": [12, 800, "v", 12000], "internal_node_id": "0.0-65.0", "trial": 2, "time_elapsed": 747129, "serialpos": 3, "key_press": -1, "wordID": 1340, "type": "PRES_VIS", "trial_index": 92}, "uniqueid": "MTK3006:3SLE99ER0OK22CUCB89LMBJAI7MZB0", "dateTime": 1519665399359}, {"current_trial": 93, "trialdata": {"rt": -1, "trial_type": "single-stim", "word": "coffee", "stimulus": "<p id=\"stim\">COFFEE</p>", "conditions": [12, 800, "v", 12000], "internal_node_id": "0.0-66.0", "trial": 2, "time_elapsed": 749003, "serialpos": 4, "key_press": -1, "wordID": 340, "type": "PRES_VIS", "trial_index": 93}, "uniqueid": "MTK3006:3SLE99ER0OK22CUCB89LMBJAI7MZB0", "dateTime": 1519665401232}, {"current_trial": 94, "trialdata": {"rt": -1, "trial_type": "single-stim", "word": "passage", "stimulus": "<p id=\"stim\">PASSAGE</p>", "conditions": [12, 800, "v", 12000], "internal_node_id": "0.0-67.0", "trial": 2, "time_elapsed": 750913, "serialpos": 5, "key_press": -1, "wordID": 1018, "type": "PRES_VIS", "trial_index": 94}, "uniqueid": "MTK3006:3SLE99ER0OK22CUCB89LMBJAI7MZB0", "dateTime": 1519665403142}, {"current_trial": 95, "trialdata": {"rt": -1, "trial_type": "single-stim", "word": "message", "stimulus": "<p id=\"stim\">MESSAGE</p>", "conditions": [12, 800, "v", 12000], "internal_node_id": "0.0-68.0", "trial": 2, "time_elapsed": 752816, "serialpos": 6, "key_press": -1, "wordID": 887, "type": "PRES_VIS", "trial_index": 95}, "uniqueid": "MTK3006:3SLE99ER0OK22CUCB89LMBJAI7MZB0", "dateTime": 1519665405045}, {"current_trial": 96, "trialdata": {"rt": -1, "trial_type": "single-stim", "word": "padding", "stimulus": "<p id=\"stim\">PADDING</p>", "conditions": [12, 800, "v", 12000], "internal_node_id": "0.0-69.0", "trial": 2, "time_elapsed": 754616, "serialpos": 7, "key_press": -1, "wordID": 998, "type": "PRES_VIS", "trial_index": 96}, "uniqueid": "MTK3006:3SLE99ER0OK22CUCB89LMBJAI7MZB0", "dateTime": 1519665406846}, {"current_trial": 97, "trialdata": {"rt": -1, "trial_type": "single-stim", "word": "flashlight", "stimulus": "<p id=\"stim\">FLASHLIGHT</p>", "conditions": [12, 800, "v", 12000], "internal_node_id": "0.0-70.0", "trial": 2, "time_elapsed": 756494, "serialpos": 8, "key_press": -1, "wordID": 574, "type": "PRES_VIS", "trial_index": 97}, "uniqueid": "MTK3006:3SLE99ER0OK22CUCB89LMBJAI7MZB0", "dateTime": 1519665408723}, {"current_trial": 98, "trialdata": {"rt": -1, "trial_type": "single-stim", "word": "pigeon", "stimulus": "<p id=\"stim\">PIGEON</p>", "conditions": [12, 800, "v", 12000], "internal_node_id": "0.0-71.0", "trial": 2, "time_elapsed": 758240, "serialpos": 9, "key_press": -1, "wordID": 1064, "type": "PRES_VIS", "trial_index": 98}, "uniqueid": "MTK3006:3SLE99ER0OK22CUCB89LMBJAI7MZB0", "dateTime": 1519665410469}, {"current_trial": 99, "trialdata": {"rt": -1, "trial_type": "single-stim", "word": "slug", "stimulus": "<p id=\"stim\">SLUG</p>", "conditions": [12, 800, "v", 12000], "internal_node_id": "0.0-72.0", "trial": 2, "time_elapsed": 759884, "serialpos": 10, "key_press": -1, "wordID": 1328, "type": "PRES_VIS", "trial_index": 99}, "uniqueid": "MTK3006:3SLE99ER0OK22CUCB89LMBJAI7MZB0", "dateTime": 1519665412113}, {"current_trial": 100, "trialdata": {"rt": -1, "trial_type": "single-stim", "word": "japan", "stimulus": "<p id=\"stim\">JAPAN</p>", "conditions": [12, 800, "v", 12000], "internal_node_id": "0.0-73.0", "trial": 2, "time_elapsed": 761674, "serialpos": 11, "key_press": -1, "wordID": 748, "type": "PRES_VIS", "trial_index": 100}, "uniqueid": "MTK3006:3SLE99ER0OK22CUCB89LMBJAI7MZB0", "dateTime": 1519665413904}, {"current_trial": 101, "trialdata": {"rt": -1, "trial_type": "single-stim", "stimulus": "", "internal_node_id": "0.0-74.0-0.0", "time_elapsed": 764024, "key_press": -1, "type": "PRE_RECALL_DELAY", "trial_index": 101}, "uniqueid": "MTK3006:3SLE99ER0OK22CUCB89LMBJAI7MZB0", "dateTime": 1519665416253}, {"current_trial": 102, "trialdata": {"rt": -1000, "trial_type": "single-audio", "stimulus": "/static/audio/400Hz.wav", "internal_node_id": "0.0-75.0", "time_elapsed": 764525, "key_press": -1, "type": "PRE_RECALL_ALERT", "trial_index": 102}, "uniqueid": "MTK3006:3SLE99ER0OK22CUCB89LMBJAI7MZB0", "dateTime": 1519665416754}, {"current_trial": 103, "trialdata": {"rt": [3366, 5278, 6686, 9526, 11949, 31141], "recwords": ["japan", "slug", "fox", "dragon", "europe", "fox"], "key_times": [1454, 1806, 2542, 2902, 3038, 3366, 4038, 4190, 4838, 5054, 5278, 5862, 6046, 6502, 6686, 7189, 7558, 7670, 8398, 8566, 8853, 9062, 9278, 9526, 9941, 10565, 10710, 10854, 11430, 11686, 11949, 30389, 30701, 30965, 31141], "trial_type": "free-recall", "conditions": [12, 800, "v", 12000], "internal_node_id": "0.0-76.0-0.0", "key_presses": [74, 65, 80, 65, 78, 13, 83, 76, 85, 71, 13, 70, 79, 88, 13, 68, 82, 79, 8, 65, 71, 79, 78, 13, 69, 85, 82, 79, 80, 69, 13, 70, 79, 88, 13], "trial": 2, "time_elapsed": 824527, "type": "FREE_RECALL", "trial_index": 103}, "uniqueid": "MTK3006:3SLE99ER0OK22CUCB89LMBJAI7MZB0", "dateTime": 1519665476759}, {"current_trial": 104, "trialdata": {"rt": 2824, "trial_type": "text", "internal_node_id": "0.0-77.0", "time_elapsed": 829355, "key_press": 75, "type": "INSTRUCTIONS", "trial_index": 104}, "uniqueid": "MTK3006:3SLE99ER0OK22CUCB89LMBJAI7MZB0", "dateTime": 1519665481585}, {"current_trial": 105, "trialdata": {"rt": [2741, 5117, 7741, 10093, 11981], "trial_type": "math-distractor", "key_times": [1693, 1965, 2741, 4261, 4509, 5117, 7069, 7301, 7741, 9173, 9416, 10093, 11389, 11597, 11981], "responses": ["14", "20", "14", "14", "15"], "num2": [7, 3, 3, 1, 1, 2], "num3": [1, 8, 6, 4, 7, 9], "conditions": [24, 1600, "v", 12000], "internal_node_id": "0.0-78.0", "key_presses": [97, 100, 13, 98, 96, 13, 97, 100, 13, 97, 100, 13, 97, 101, 13], "trial": 3, "time_elapsed": 843358, "type": "DISTRACTOR", "trial_index": 105, "num1": [6, 9, 5, 9, 7, 2]}, "uniqueid": "MTK3006:3SLE99ER0OK22CUCB89LMBJAI7MZB0", "dateTime": 1519665495588}, {"current_trial": 106, "trialdata": {"rt": -1, "trial_type": "single-stim", "stimulus": "<p id=\"stim\">10</p>", "internal_node_id": "0.0-79.0-0.0", "time_elapsed": 846360, "key_press": -1, "trial_index": 106}, "uniqueid": "MTK3006:3SLE99ER0OK22CUCB89LMBJAI7MZB0", "dateTime": 1519665498589}, {"current_trial": 107, "trialdata": {"rt": -1, "trial_type": "single-stim", "stimulus": "<p id=\"stim\">9</p>", "internal_node_id": "0.0-79.0-1.0", "time_elapsed": 847361, "key_press": -1, "trial_index": 107}, "uniqueid": "MTK3006:3SLE99ER0OK22CUCB89LMBJAI7MZB0", "dateTime": 1519665499590}, {"current_trial": 108, "trialdata": {"rt": -1, "trial_type": "single-stim", "stimulus": "<p id=\"stim\">8</p>", "internal_node_id": "0.0-79.0-2.0", "time_elapsed": 848362, "key_press": -1, "trial_index": 108}, "uniqueid": "MTK3006:3SLE99ER0OK22CUCB89LMBJAI7MZB0", "dateTime": 1519665500591}, {"current_trial": 109, "trialdata": {"rt": -1, "trial_type": "single-stim", "stimulus": "<p id=\"stim\">7</p>", "internal_node_id": "0.0-79.0-3.0", "time_elapsed": 849363, "key_press": -1, "trial_index": 109}, "uniqueid": "MTK3006:3SLE99ER0OK22CUCB89LMBJAI7MZB0", "dateTime": 1519665501592}, {"current_trial": 110, "trialdata": {"rt": -1, "trial_type": "single-stim", "stimulus": "<p id=\"stim\">6</p>", "internal_node_id": "0.0-79.0-4.0", "time_elapsed": 850364, "key_press": -1, "trial_index": 110}, "uniqueid": "MTK3006:3SLE99ER0OK22CUCB89LMBJAI7MZB0", "dateTime": 1519665502593}, {"current_trial": 111, "trialdata": {"rt": -1, "trial_type": "single-stim", "stimulus": "<p id=\"stim\">5</p>", "internal_node_id": "0.0-79.0-5.0", "time_elapsed": 851365, "key_press": -1, "trial_index": 111}, "uniqueid": "MTK3006:3SLE99ER0OK22CUCB89LMBJAI7MZB0", "dateTime": 1519665503594}, {"current_trial": 112, "trialdata": {"rt": -1, "trial_type": "single-stim", "stimulus": "<p id=\"stim\">4</p>", "internal_node_id": "0.0-79.0-6.0", "time_elapsed": 852366, "key_press": -1, "trial_index": 112}, "uniqueid": "MTK3006:3SLE99ER0OK22CUCB89LMBJAI7MZB0", "dateTime": 1519665504595}, {"current_trial": 113, "trialdata": {"rt": -1, "trial_type": "single-stim", "stimulus": "<p id=\"stim\">3</p>", "internal_node_id": "0.0-79.0-7.0", "time_elapsed": 853367, "key_press": -1, "trial_index": 113}, "uniqueid": "MTK3006:3SLE99ER0OK22CUCB89LMBJAI7MZB0", "dateTime": 1519665505596}, {"current_trial": 114, "trialdata": {"rt": -1, "trial_type": "single-stim", "stimulus": "<p id=\"stim\">2</p>", "internal_node_id": "0.0-79.0-8.0", "time_elapsed": 854368, "key_press": -1, "trial_index": 114}, "uniqueid": "MTK3006:3SLE99ER0OK22CUCB89LMBJAI7MZB0", "dateTime": 1519665506597}, {"current_trial": 115, "trialdata": {"rt": -1, "trial_type": "single-stim", "stimulus": "<p id=\"stim\">1</p>", "internal_node_id": "0.0-79.0-9.0", "time_elapsed": 855369, "key_press": -1, "trial_index": 115}, "uniqueid": "MTK3006:3SLE99ER0OK22CUCB89LMBJAI7MZB0", "dateTime": 1519665507598}, {"current_trial": 116, "trialdata": {"rt": -1, "trial_type": "single-stim", "stimulus": "<p id=\"stim\">+</p>", "internal_node_id": "0.0-80.0-0.0", "time_elapsed": 856870, "key_press": -1, "type": "FIXATION", "trial_index": 116}, "uniqueid": "MTK3006:3SLE99ER0OK22CUCB89LMBJAI7MZB0", "dateTime": 1519665509099}, {"current_trial": 117, "trialdata": {"rt": -1, "trial_type": "single-stim", "word": "trombone", "stimulus": "<p id=\"stim\">TROMBONE</p>", "conditions": [24, 1600, "v", 12000], "internal_node_id": "0.0-81.0", "trial": 3, "time_elapsed": 858471, "serialpos": 0, "key_press": -1, "wordID": 1507, "type": "PRES_VIS", "trial_index": 117}, "uniqueid": "MTK3006:3SLE99ER0OK22CUCB89LMBJAI7MZB0", "dateTime": 1519665510700}, {"current_trial": 118, "trialdata": {"rt": -1, "trial_type": "single-stim", "word": "leader", "stimulus": "<p id=\"stim\">LEADER</p>", "conditions": [24, 1600, "v", 12000], "internal_node_id": "0.0-82.0", "trial": 3, "time_elapsed": 861256, "serialpos": 1, "key_press": -1, "wordID": 806, "type": "PRES_VIS", "trial_index": 118}, "uniqueid": "MTK3006:3SLE99ER0OK22CUCB89LMBJAI7MZB0", "dateTime": 1519665513485}, {"current_trial": 119, "trialdata": {"rt": -1, "trial_type": "single-stim", "word": "hero", "stimulus": "<p id=\"stim\">HERO</p>", "conditions": [24, 1600, "v", 12000], "internal_node_id": "0.0-83.0", "trial": 3, "time_elapsed": 864018, "serialpos": 2, "key_press": -1, "wordID": 705, "type": "PRES_VIS", "trial_index": 119}, "uniqueid": "MTK3006:3SLE99ER0OK22CUCB89LMBJAI7MZB0", "dateTime": 1519665516248}, {"current_trial": 120, "trialdata": {"rt": -1, "trial_type": "single-stim", "word": "plate", "stimulus": "<p id=\"stim\">PLATE</p>", "conditions": [24, 1600, "v", 12000], "internal_node_id": "0.0-84.0", "trial": 3, "time_elapsed": 866591, "serialpos": 3, "key_press": -1, "wordID": 1085, "type": "PRES_VIS", "trial_index": 120}, "uniqueid": "MTK3006:3SLE99ER0OK22CUCB89LMBJAI7MZB0", "dateTime": 1519665518820}, {"current_trial": 121, "trialdata": {"rt": -1, "trial_type": "single-stim", "word": "neutron", "stimulus": "<p id=\"stim\">NEUTRON</p>", "conditions": [24, 1600, "v", 12000], "internal_node_id": "0.0-85.0", "trial": 3, "time_elapsed": 869038, "serialpos": 4, "key_press": -1, "wordID": 946, "type": "PRES_VIS", "trial_index": 121}, "uniqueid": "MTK3006:3SLE99ER0OK22CUCB89LMBJAI7MZB0", "dateTime": 1519665521267}, {"current_trial": 122, "trialdata": {"rt": -1, "trial_type": "single-stim", "word": "lady", "stimulus": "<p id=\"stim\">LADY</p>", "conditions": [24, 1600, "v", 12000], "internal_node_id": "0.0-86.0", "trial": 3, "time_elapsed": 871576, "serialpos": 5, "key_press": -1, "wordID": 793, "type": "PRES_VIS", "trial_index": 122}, "uniqueid": "MTK3006:3SLE99ER0OK22CUCB89LMBJAI7MZB0", "dateTime": 1519665523805}, {"current_trial": 123, "trialdata": {"rt": -1, "trial_type": "single-stim", "word": "woman", "stimulus": "<p id=\"stim\">WOMAN</p>", "conditions": [24, 1600, "v", 12000], "internal_node_id": "0.0-87.0", "trial": 3, "time_elapsed": 873989, "serialpos": 6, "key_press": -1, "wordID": 1619, "type": "PRES_VIS", "trial_index": 123}, "uniqueid": "MTK3006:3SLE99ER0OK22CUCB89LMBJAI7MZB0", "dateTime": 1519665526219}, {"current_trial": 124, "trialdata": {"rt": -1, "trial_type": "single-stim", "word": "piano", "stimulus": "<p id=\"stim\">PIANO</p>", "conditions": [24, 1600, "v", 12000], "internal_node_id": "0.0-88.0", "trial": 3, "time_elapsed": 876602, "serialpos": 7, "key_press": -1, "wordID": 1056, "type": "PRES_VIS", "trial_index": 124}, "uniqueid": "MTK3006:3SLE99ER0OK22CUCB89LMBJAI7MZB0", "dateTime": 1519665528831}, {"current_trial": 125, "trialdata": {"rt": -1, "trial_type": "single-stim", "word": "blender", "stimulus": "<p id=\"stim\">BLENDER</p>", "conditions": [24, 1600, "v", 12000], "internal_node_id": "0.0-89.0", "trial": 3, "time_elapsed": 879032, "serialpos": 8, "key_press": -1, "wordID": 135, "type": "PRES_VIS", "trial_index": 125}, "uniqueid": "MTK3006:3SLE99ER0OK22CUCB89LMBJAI7MZB0", "dateTime": 1519665531261}, {"current_trial": 126, "trialdata": {"rt": -1, "trial_type": "single-stim", "word": "mammal", "stimulus": "<p id=\"stim\">MAMMAL</p>", "conditions": [24, 1600, "v", 12000], "internal_node_id": "0.0-90.0", "trial": 3, "time_elapsed": 881468, "serialpos": 9, "key_press": -1, "wordID": 860, "type": "PRES_VIS", "trial_index": 126}, "uniqueid": "MTK3006:3SLE99ER0OK22CUCB89LMBJAI7MZB0", "dateTime": 1519665533697}, {"current_trial": 127, "trialdata": {"rt": -1, "trial_type": "single-stim", "word": "sidewalk", "stimulus": "<p id=\"stim\">SIDEWALK</p>", "conditions": [24, 1600, "v", 12000], "internal_node_id": "0.0-91.0", "trial": 3, "time_elapsed": 883938, "serialpos": 10, "key_press": -1, "wordID": 1302, "type": "PRES_VIS", "trial_index": 127}, "uniqueid": "MTK3006:3SLE99ER0OK22CUCB89LMBJAI7MZB0", "dateTime": 1519665536167}, {"current_trial": 128, "trialdata": {"rt": -1, "trial_type": "single-stim", "word": "lover", "stimulus": "<p id=\"stim\">LOVER</p>", "conditions": [24, 1600, "v", 12000], "internal_node_id": "0.0-92.0", "trial": 3, "time_elapsed": 886560, "serialpos": 11, "key_press": -1, "wordID": 845, "type": "PRES_VIS", "trial_index": 128}, "uniqueid": "MTK3006:3SLE99ER0OK22CUCB89LMBJAI7MZB0", "dateTime": 1519665538789}, {"current_trial": 129, "trialdata": {"rt": -1, "trial_type": "single-stim", "word": "razor", "stimulus": "<p id=\"stim\">RAZOR</p>", "conditions": [24, 1600, "v", 12000], "internal_node_id": "0.0-93.0", "trial": 3, "time_elapsed": 889204, "serialpos": 12, "key_press": -1, "wordID": 1170, "type": "PRES_VIS", "trial_index": 129}, "uniqueid": "MTK3006:3SLE99ER0OK22CUCB89LMBJAI7MZB0", "dateTime": 1519665541433}, {"current_trial": 130, "trialdata": {"rt": -1, "trial_type": "single-stim", "word": "sticker", "stimulus": "<p id=\"stim\">STICKER</p>", "conditions": [24, 1600, "v", 12000], "internal_node_id": "0.0-94.0", "trial": 3, "time_elapsed": 891864, "serialpos": 13, "key_press": -1, "wordID": 1381, "type": "PRES_VIS", "trial_index": 130}, "uniqueid": "MTK3006:3SLE99ER0OK22CUCB89LMBJAI7MZB0", "dateTime": 1519665544094}, {"current_trial": 131, "trialdata": {"rt": -1, "trial_type": "single-stim", "word": "breast", "stimulus": "<p id=\"stim\">BREAST</p>", "conditions": [24, 1600, "v", 12000], "internal_node_id": "0.0-95.0", "trial": 3, "time_elapsed": 894342, "serialpos": 14, "key_press": -1, "wordID": 170, "type": "PRES_VIS", "trial_index": 131}, "uniqueid": "MTK3006:3SLE99ER0OK22CUCB89LMBJAI7MZB0", "dateTime": 1519665546571}, {"current_trial": 132, "trialdata": {"rt": -1, "trial_type": "single-stim", "word": "basement", "stimulus": "<p id=\"stim\">BASEMENT</p>", "conditions": [24, 1600, "v", 12000], "internal_node_id": "0.0-96.0", "trial": 3, "time_elapsed": 897111, "serialpos": 15, "key_press": -1, "wordID": 93, "type": "PRES_VIS", "trial_index": 132}, "uniqueid": "MTK3006:3SLE99ER0OK22CUCB89LMBJAI7MZB0", "dateTime": 1519665549340}, {"current_trial": 133, "trialdata": {"rt": -1, "trial_type": "single-stim", "word": "cellar", "stimulus": "<p id=\"stim\">CELLAR</p>", "conditions": [24, 1600, "v", 12000], "internal_node_id": "0.0-97.0", "trial": 3, "time_elapsed": 899811, "serialpos": 16, "key_press": -1, "wordID": 266, "type": "PRES_VIS", "trial_index": 133}, "uniqueid": "MTK3006:3SLE99ER0OK22CUCB89LMBJAI7MZB0", "dateTime": 1519665552040}, {"current_trial": 134, "trialdata": {"rt": -1, "trial_type": "single-stim", "word": "elbow", "stimulus": "<p id=\"stim\">ELBOW</p>", "conditions": [24, 1600, "v", 12000], "internal_node_id": "0.0-98.0", "trial": 3, "time_elapsed": 902265, "serialpos": 17, "key_press": -1, "wordID": 519, "type": "PRES_VIS", "trial_index": 134}, "uniqueid": "MTK3006:3SLE99ER0OK22CUCB89LMBJAI7MZB0", "dateTime": 1519665554494}, {"current_trial": 135, "trialdata": {"rt": -1, "trial_type": "single-stim", "word": "briefcase", "stimulus": "<p id=\"stim\">BRIEFCASE</p>", "conditions": [24, 1600, "v", 12000], "internal_node_id": "0.0-99.0", "trial": 3, "time_elapsed": 904917, "serialpos": 18, "key_press": -1, "wordID": 174, "type": "PRES_VIS", "trial_index": 135}, "uniqueid": "MTK3006:3SLE99ER0OK22CUCB89LMBJAI7MZB0", "dateTime": 1519665557146}, {"current_trial": 136, "trialdata": {"rt": -1, "trial_type": "single-stim", "word": "sculpture", "stimulus": "<p id=\"stim\">SCULPTURE</p>", "conditions": [24, 1600, "v", 12000], "internal_node_id": "0.0-100.0", "trial": 3, "time_elapsed": 907406, "serialpos": 19, "key_press": -1, "wordID": 1257, "type": "PRES_VIS", "trial_index": 136}, "uniqueid": "MTK3006:3SLE99ER0OK22CUCB89LMBJAI7MZB0", "dateTime": 1519665559636}, {"current_trial": 137, "trialdata": {"rt": -1, "trial_type": "single-stim", "word": "wrist", "stimulus": "<p id=\"stim\">WRIST</p>", "conditions": [24, 1600, "v", 12000], "internal_node_id": "0.0-101.0", "trial": 3, "time_elapsed": 909932, "serialpos": 20, "key_press": -1, "wordID": 1625, "type": "PRES_VIS", "trial_index": 137}, "uniqueid": "MTK3006:3SLE99ER0OK22CUCB89LMBJAI7MZB0", "dateTime": 1519665562161}, {"current_trial": 138, "trialdata": {"rt": -1, "trial_type": "single-stim", "word": "statue", "stimulus": "<p id=\"stim\">STATUE</p>", "conditions": [24, 1600, "v", 12000], "internal_node_id": "0.0-102.0", "trial": 3, "time_elapsed": 912654, "serialpos": 21, "key_press": -1, "wordID": 1373, "type": "PRES_VIS", "trial_index": 138}, "uniqueid": "MTK3006:3SLE99ER0OK22CUCB89LMBJAI7MZB0", "dateTime": 1519665564883}, {"current_trial": 139, "trialdata": {"rt": -1, "trial_type": "single-stim", "word": "curtain", "stimulus": "<p id=\"stim\">CURTAIN</p>", "conditions": [24, 1600, "v", 12000], "internal_node_id": "0.0-103.0", "trial": 3, "time_elapsed": 915097, "serialpos": 22, "key_press": -1, "wordID": 426, "type": "PRES_VIS", "trial_index": 139}, "uniqueid": "MTK3006:3SLE99ER0OK22CUCB89LMBJAI7MZB0", "dateTime": 1519665567326}, {"current_trial": 140, "trialdata": {"rt": -1, "trial_type": "single-stim", "word": "valley", "stimulus": "<p id=\"stim\">VALLEY</p>", "conditions": [24, 1600, "v", 12000], "internal_node_id": "0.0-104.0", "trial": 3, "time_elapsed": 917538, "serialpos": 23, "key_press": -1, "wordID": 1544, "type": "PRES_VIS", "trial_index": 140}, "uniqueid": "MTK3006:3SLE99ER0OK22CUCB89LMBJAI7MZB0", "dateTime": 1519665569767}, {"current_trial": 141, "trialdata": {"rt": -1, "trial_type": "single-stim", "stimulus": "", "internal_node_id": "0.0-105.0-0.0", "time_elapsed": 920076, "key_press": -1, "type": "PRE_RECALL_DELAY", "trial_index": 141}, "uniqueid": "MTK3006:3SLE99ER0OK22CUCB89LMBJAI7MZB0", "dateTime": 1519665572305}, {"current_trial": 142, "trialdata": {"rt": -1000, "trial_type": "single-audio", "stimulus": "/static/audio/400Hz.wav", "internal_node_id": "0.0-106.0", "time_elapsed": 920577, "key_press": -1, "type": "PRE_RECALL_ALERT", "trial_index": 142}, "uniqueid": "MTK3006:3SLE99ER0OK22CUCB89LMBJAI7MZB0", "dateTime": 1519665572806}, {"current_trial": 143, "trialdata": {"rt": [4108, 6428, 9060, 12972, 18772, 23443, 29107, 30699, 33755, 37907, 41627, 44515, 55202], "recwords": ["valley", "statue", "curtain", "hero", "leader", "trombone", "sticker", "lady", "woman", "wrist", "breast", "valley", "neutron"], "key_times": [1694, 2372, 2524, 3061, 3260, 3524, 4108, 4492, 4892, 5124, 5380, 6020, 6116, 6428, 7252, 7492, 7732, 8060, 8276, 8484, 8732, 9060, 11805, 11972, 12420, 12612, 12972, 17236, 17356, 17580, 17900, 18340, 18508, 18772, 21140, 21396, 21564, 21820, 22060, 22307, 22484, 22692, 23443, 27387, 27716, 27867, 28187, 28363, 28643, 28843, 29107, 29587, 29771, 30059, 30315, 30699, 31515, 31627, 32172, 33059, 33451, 33755, 36443, 36667, 37355, 37451, 37707, 37907, 38963, 39339, 39652, 40691, 41067, 41347, 41627, 42971, 43147, 43347, 43539, 43811, 44099, 44515, 50643, 51002, 51875, 52442, 52674, 52802, 53587, 55202], "trial_type": "free-recall", "conditions": [24, 1600, "v", 12000], "internal_node_id": "0.0-107.0-0.0", "key_presses": [86, 65, 76, 76, 69, 89, 13, 83, 84, 65, 84, 85, 69, 13, 67, 85, 82, 84, 65, 73, 78, 13, 72, 69, 82, 79, 13, 76, 69, 65, 68, 69, 82, 13, 84, 82, 79, 77, 66, 79, 78, 69, 13, 83, 84, 73, 67, 75, 69, 82, 13, 76, 65, 68, 89, 13, 87, 79, 77, 65, 78, 13, 87, 82, 73, 83, 84, 13, 66, 82, 69, 65, 83, 84, 13, 86, 65, 76, 76, 69, 89, 13, 78, 69, 85, 84, 82, 79, 78, 13], "trial": 3, "time_elapsed": 980580, "type": "FREE_RECALL", "trial_index": 143}, "uniqueid": "MTK3006:3SLE99ER0OK22CUCB89LMBJAI7MZB0", "dateTime": 1519665632812}, {"current_trial": 144, "trialdata": {"rt": 3990, "trial_type": "text", "internal_node_id": "0.0-108.0", "time_elapsed": 986574, "key_press": 75, "type": "INSTRUCTIONS", "trial_index": 144}, "uniqueid": "MTK3006:3SLE99ER0OK22CUCB89LMBJAI7MZB0", "dateTime": 1519665638803}, {"current_trial": 145, "trialdata": {"rt": [2413, 5237, 7797, 9957, 12069, 14444, 16549, 19988, 22148], "trial_type": "math-distractor", "key_times": [1597, 1829, 2413, 4493, 4773, 5237, 7117, 7421, 7797, 9181, 9517, 9957, 11365, 11653, 12069, 13581, 14013, 14444, 15724, 15964, 16549, 19133, 19325, 19988, 21476, 22148, 23484, 23988], "responses": ["13", "18", "18", "13", "16", "18", "21", "16", "8"], "num2": [4, 7, 8, 5, 9, 7, 7, 5, 5, 3], "num3": [3, 6, 8, 5, 5, 6, 7, 8, 2, 4], "conditions": [12, 1600, "v", 24000], "internal_node_id": "0.0-109.0", "key_presses": [97, 99, 13, 97, 104, 13, 97, 104, 13, 97, 99, 13, 97, 102, 13, 97, 104, 13, 98, 97, 13, 97, 102, 13, 104, 13, 97, 102], "trial": 4, "time_elapsed": 1012577, "type": "DISTRACTOR", "trial_index": 145, "num1": [6, 5, 2, 3, 2, 5, 7, 3, 1, 9]}, "uniqueid": "MTK3006:3SLE99ER0OK22CUCB89LMBJAI7MZB0", "dateTime": 1519665664806}, {"current_trial": 146, "trialdata": {"rt": -1, "trial_type": "single-stim", "stimulus": "<p id=\"stim\">10</p>", "internal_node_id": "0.0-110.0-0.0", "time_elapsed": 1015578, "key_press": -1, "trial_index": 146}, "uniqueid": "MTK3006:3SLE99ER0OK22CUCB89LMBJAI7MZB0", "dateTime": 1519665667807}, {"current_trial": 147, "trialdata": {"rt": -1, "trial_type": "single-stim", "stimulus": "<p id=\"stim\">9</p>", "internal_node_id": "0.0-110.0-1.0", "time_elapsed": 1016579, "key_press": -1, "trial_index": 147}, "uniqueid": "MTK3006:3SLE99ER0OK22CUCB89LMBJAI7MZB0", "dateTime": 1519665668808}, {"current_trial": 148, "trialdata": {"rt": -1, "trial_type": "single-stim", "stimulus": "<p id=\"stim\">8</p>", "internal_node_id": "0.0-110.0-2.0", "time_elapsed": 1017580, "key_press": -1, "trial_index": 148}, "uniqueid": "MTK3006:3SLE99ER0OK22CUCB89LMBJAI7MZB0", "dateTime": 1519665669809}, {"current_trial": 149, "trialdata": {"rt": -1, "trial_type": "single-stim", "stimulus": "<p id=\"stim\">7</p>", "internal_node_id": "0.0-110.0-3.0", "time_elapsed": 1018581, "key_press": -1, "trial_index": 149}, "uniqueid": "MTK3006:3SLE99ER0OK22CUCB89LMBJAI7MZB0", "dateTime": 1519665670810}, {"current_trial": 150, "trialdata": {"rt": -1, "trial_type": "single-stim", "stimulus": "<p id=\"stim\">6</p>", "internal_node_id": "0.0-110.0-4.0", "time_elapsed": 1019582, "key_press": -1, "trial_index": 150}, "uniqueid": "MTK3006:3SLE99ER0OK22CUCB89LMBJAI7MZB0", "dateTime": 1519665671811}, {"current_trial": 151, "trialdata": {"rt": -1, "trial_type": "single-stim", "stimulus": "<p id=\"stim\">5</p>", "internal_node_id": "0.0-110.0-5.0", "time_elapsed": 1020583, "key_press": -1, "trial_index": 151}, "uniqueid": "MTK3006:3SLE99ER0OK22CUCB89LMBJAI7MZB0", "dateTime": 1519665672812}, {"current_trial": 152, "trialdata": {"rt": -1, "trial_type": "single-stim", "stimulus": "<p id=\"stim\">4</p>", "internal_node_id": "0.0-110.0-6.0", "time_elapsed": 1021584, "key_press": -1, "trial_index": 152}, "uniqueid": "MTK3006:3SLE99ER0OK22CUCB89LMBJAI7MZB0", "dateTime": 1519665673813}, {"current_trial": 153, "trialdata": {"rt": -1, "trial_type": "single-stim", "stimulus": "<p id=\"stim\">3</p>", "internal_node_id": "0.0-110.0-7.0", "time_elapsed": 1022586, "key_press": -1, "trial_index": 153}, "uniqueid": "MTK3006:3SLE99ER0OK22CUCB89LMBJAI7MZB0", "dateTime": 1519665674815}, {"current_trial": 154, "trialdata": {"rt": -1, "trial_type": "single-stim", "stimulus": "<p id=\"stim\">2</p>", "internal_node_id": "0.0-110.0-8.0", "time_elapsed": 1023587, "key_press": -1, "trial_index": 154}, "uniqueid": "MTK3006:3SLE99ER0OK22CUCB89LMBJAI7MZB0", "dateTime": 1519665675816}, {"current_trial": 155, "trialdata": {"rt": -1, "trial_type": "single-stim", "stimulus": "<p id=\"stim\">1</p>", "internal_node_id": "0.0-110.0-9.0", "time_elapsed": 1024588, "key_press": -1, "trial_index": 155}, "uniqueid": "MTK3006:3SLE99ER0OK22CUCB89LMBJAI7MZB0", "dateTime": 1519665676817}, {"current_trial": 156, "trialdata": {"rt": -1, "trial_type": "single-stim", "stimulus": "<p id=\"stim\">+</p>", "internal_node_id": "0.0-111.0-0.0", "time_elapsed": 1026089, "key_press": -1, "type": "FIXATION", "trial_index": 156}, "uniqueid": "MTK3006:3SLE99ER0OK22CUCB89LMBJAI7MZB0", "dateTime": 1519665678318}, {"current_trial": 157, "trialdata": {"rt": -1, "trial_type": "single-stim", "word": "cod", "stimulus": "<p id=\"stim\">COD</p>", "conditions": [12, 1600, "v", 24000], "internal_node_id": "0.0-112.0", "trial": 4, "time_elapsed": 1027690, "serialpos": 0, "key_press": -1, "wordID": 339, "type": "PRES_VIS", "trial_index": 157}, "uniqueid": "MTK3006:3SLE99ER0OK22CUCB89LMBJAI7MZB0", "dateTime": 1519665679919}, {"current_trial": 158, "trialdata": {"rt": -1, "trial_type": "single-stim", "word": "turkey", "stimulus": "<p id=\"stim\">TURKEY</p>", "conditions": [12, 1600, "v", 24000], "internal_node_id": "0.0-113.0", "trial": 4, "time_elapsed": 1030292, "serialpos": 1, "key_press": -1, "wordID": 1519, "type": "PRES_VIS", "trial_index": 158}, "uniqueid": "MTK3006:3SLE99ER0OK22CUCB89LMBJAI7MZB0", "dateTime": 1519665682521}, {"current_trial": 159, "trialdata": {"rt": -1, "trial_type": "single-stim", "word": "quail", "stimulus": "<p id=\"stim\">QUAIL</p>", "conditions": [12, 1600, "v", 24000], "internal_node_id": "0.0-114.0", "trial": 4, "time_elapsed": 1032853, "serialpos": 2, "key_press": -1, "wordID": 1146, "type": "PRES_VIS", "trial_index": 159}, "uniqueid": "MTK3006:3SLE99ER0OK22CUCB89LMBJAI7MZB0", "dateTime": 1519665685083}, {"current_trial": 160, "trialdata": {"rt": -1, "trial_type": "single-stim", "word": "eyelash", "stimulus": "<p id=\"stim\">EYELASH</p>", "conditions": [12, 1600, "v", 24000], "internal_node_id": "0.0-115.0", "trial": 4, "time_elapsed": 1035277, "serialpos": 3, "key_press": -1, "wordID": 545, "type": "PRES_VIS", "trial_index": 160}, "uniqueid": "MTK3006:3SLE99ER0OK22CUCB89LMBJAI7MZB0", "dateTime": 1519665687506}, {"current_trial": 161, "trialdata": {"rt": -1, "trial_type": "single-stim", "word": "ulcer", "stimulus": "<p id=\"stim\">ULCER</p>", "conditions": [12, 1600, "v", 24000], "internal_node_id": "0.0-116.0", "trial": 4, "time_elapsed": 1037925, "serialpos": 4, "key_press": -1, "wordID": 1532, "type": "PRES_VIS", "trial_index": 161}, "uniqueid": "MTK3006:3SLE99ER0OK22CUCB89LMBJAI7MZB0", "dateTime": 1519665690154}, {"current_trial": 162, "trialdata": {"rt": -1, "trial_type": "single-stim", "word": "office", "stimulus": "<p id=\"stim\">OFFICE</p>", "conditions": [12, 1600, "v", 24000], "internal_node_id": "0.0-117.0", "trial": 4, "time_elapsed": 1040686, "serialpos": 5, "key_press": -1, "wordID": 971, "type": "PRES_VIS", "trial_index": 162}, "uniqueid": "MTK3006:3SLE99ER0OK22CUCB89LMBJAI7MZB0", "dateTime": 1519665692915}, {"current_trial": 163, "trialdata": {"rt": -1, "trial_type": "single-stim", "word": "chipmunk", "stimulus": "<p id=\"stim\">CHIPMUNK</p>", "conditions": [12, 1600, "v", 24000], "internal_node_id": "0.0-118.0", "trial": 4, "time_elapsed": 1043317, "serialpos": 6, "key_press": -1, "wordID": 303, "type": "PRES_VIS", "trial_index": 163}, "uniqueid": "MTK3006:3SLE99ER0OK22CUCB89LMBJAI7MZB0", "dateTime": 1519665695546}, {"current_trial": 164, "trialdata": {"rt": -1, "trial_type": "single-stim", "word": "seafood", "stimulus": "<p id=\"stim\">SEAFOOD</p>", "conditions": [12, 1600, "v", 24000], "internal_node_id": "0.0-119.0", "trial": 4, "time_elapsed": 1045910, "serialpos": 7, "key_press": -1, "wordID": 1259, "type": "PRES_VIS", "trial_index": 164}, "uniqueid": "MTK3006:3SLE99ER0OK22CUCB89LMBJAI7MZB0", "dateTime": 1519665698139}, {"current_trial": 165, "trialdata": {"rt": -1, "trial_type": "single-stim", "word": "sparrow", "stimulus": "<p id=\"stim\">SPARROW</p>", "conditions": [12, 1600, "v", 24000], "internal_node_id": "0.0-120.0", "trial": 4, "time_elapsed": 1048366, "serialpos": 8, "key_press": -1, "wordID": 1346, "type": "PRES_VIS", "trial_index": 165}, "uniqueid": "MTK3006:3SLE99ER0OK22CUCB89LMBJAI7MZB0", "dateTime": 1519665700595}, {"current_trial": 166, "trialdata": {"rt": -1, "trial_type": "single-stim", "word": "comet", "stimulus": "<p id=\"stim\">COMET</p>", "conditions": [12, 1600, "v", 24000], "internal_node_id": "0.0-121.0", "trial": 4, "time_elapsed": 1050814, "serialpos": 9, "key_press": -1, "wordID": 352, "type": "PRES_VIS", "trial_index": 166}, "uniqueid": "MTK3006:3SLE99ER0OK22CUCB89LMBJAI7MZB0", "dateTime": 1519665703044}, {"current_trial": 167, "trialdata": {"rt": -1, "trial_type": "single-stim", "word": "fiddle", "stimulus": "<p id=\"stim\">FIDDLE</p>", "conditions": [12, 1600, "v", 24000], "internal_node_id": "0.0-122.0", "trial": 4, "time_elapsed": 1053599, "serialpos": 10, "key_press": -1, "wordID": 560, "type": "PRES_VIS", "trial_index": 167}, "uniqueid": "MTK3006:3SLE99ER0OK22CUCB89LMBJAI7MZB0", "dateTime": 1519665705828}, {"current_trial": 168, "trialdata": {"rt": -1, "trial_type": "single-stim", "word": "hawk", "stimulus": "<p id=\"stim\">HAWK</p>", "conditions": [12, 1600, "v", 24000], "internal_node_id": "0.0-123.0", "trial": 4, "time_elapsed": 1056295, "serialpos": 11, "key_press": -1, "wordID": 691, "type": "PRES_VIS", "trial_index": 168}, "uniqueid": "MTK3006:3SLE99ER0OK22CUCB89LMBJAI7MZB0", "dateTime": 1519665708524}, {"current_trial": 169, "trialdata": {"rt": -1, "trial_type": "single-stim", "stimulus": "", "internal_node_id": "0.0-124.0-0.0", "time_elapsed": 1058428, "key_press": -1, "type": "PRE_RECALL_DELAY", "trial_index": 169}, "uniqueid": "MTK3006:3SLE99ER0OK22CUCB89LMBJAI7MZB0", "dateTime": 1519665710657}, {"current_trial": 170, "trialdata": {"rt": -1000, "trial_type": "single-audio", "stimulus": "/static/audio/400Hz.wav", "internal_node_id": "0.0-125.0", "time_elapsed": 1058929, "key_press": -1, "type": "PRE_RECALL_ALERT", "trial_index": 170}, "uniqueid": "MTK3006:3SLE99ER0OK22CUCB89LMBJAI7MZB0", "dateTime": 1519665711158}, {"current_trial": 171, "trialdata": {"rt": [4967, 8087, 10943, 12767, 15679, 18055, 24959, 27495, 35494, 37623, 39854, 55790], "recwords": ["hawk", "turkey", "quail", "cod", "seafood", "turkey", "fiddle", "seafood", "eyelash", "ulcer", "comet", "razor"], "key_times": [2032, 2808, 3503, 3647, 3984, 4591, 4967, 5439, 6375, 6560, 6719, 7592, 7791, 8087, 8639, 9119, 9639, 10223, 10439, 10943, 11711, 11831, 12096, 12767, 13231, 13647, 13951, 14335, 15095, 15255, 15415, 15679, 16311, 16479, 16639, 16887, 17383, 17623, 18055, 23271, 23503, 24063, 24287, 24567, 24783, 24959, 25335, 25807, 26063, 26487, 26799, 27007, 27215, 27495, 33751, 33974, 34110, 34374, 34750, 34974, 35174, 35494, 36070, 36294, 36582, 37190, 37382, 37623, 38174, 38311, 38726, 39134, 39646, 39854, 51286, 51478, 51902, 52350, 52542, 53270, 53486, 53686, 53871, 54070, 54302, 54758, 55142, 55278, 55574, 55790], "trial_type": "free-recall", "conditions": [12, 1600, "v", 24000], "internal_node_id": "0.0-126.0-0.0", "key_presses": [87, 8, 72, 65, 87, 75, 13, 84, 85, 82, 75, 69, 89, 13, 81, 85, 65, 73, 76, 13, 67, 79, 68, 13, 83, 69, 65, 70, 79, 79, 68, 13, 84, 85, 82, 75, 69, 89, 13, 70, 73, 68, 68, 76, 69, 13, 83, 69, 65, 70, 79, 79, 68, 13, 69, 89, 69, 76, 65, 83, 72, 13, 85, 76, 67, 69, 82, 13, 67, 79, 77, 69, 84, 13, 76, 65, 90, 69, 82, 8, 8, 8, 8, 8, 82, 65, 90, 79, 82, 13], "trial": 4, "time_elapsed": 1118932, "type": "FREE_RECALL", "trial_index": 171}, "uniqueid": "MTK3006:3SLE99ER0OK22CUCB89LMBJAI7MZB0", "dateTime": 1519665771165}, {"current_trial": 172, "trialdata": {"rt": 3712, "trial_type": "text", "internal_node_id": "0.0-127.0", "time_elapsed": 1124649, "key_press": 75, "type": "INSTRUCTIONS", "trial_index": 172}, "uniqueid": "MTK3006:3SLE99ER0OK22CUCB89LMBJAI7MZB0", "dateTime": 1519665776878}, {"current_trial": 173, "trialdata": {"rt": [3149, 5165, 7293, 10245], "trial_type": "math-distractor", "key_times": [2141, 2421, 3149, 4549, 4765, 5165, 6653, 6885, 7293, 9637, 9901, 10245, 11661, 11837], "responses": ["19", "10", "14", "17"], "num2": [4, 3, 1, 8, 8], "num3": [6, 6, 8, 4, 2], "conditions": [24, 800, "v", 12000], "internal_node_id": "0.0-128.0", "key_presses": [97, 105, 13, 97, 96, 13, 97, 100, 13, 97, 103, 13, 97, 97], "trial": 5, "time_elapsed": 1138652, "type": "DISTRACTOR", "trial_index": 173, "num1": [9, 1, 5, 5, 1]}, "uniqueid": "MTK3006:3SLE99ER0OK22CUCB89LMBJAI7MZB0", "dateTime": 1519665790881}, {"current_trial": 174, "trialdata": {"rt": -1, "trial_type": "single-stim", "stimulus": "<p id=\"stim\">10</p>", "internal_node_id": "0.0-129.0-0.0", "time_elapsed": 1141653, "key_press": -1, "trial_index": 174}, "uniqueid": "MTK3006:3SLE99ER0OK22CUCB89LMBJAI7MZB0", "dateTime": 1519665793882}, {"current_trial": 175, "trialdata": {"rt": -1, "trial_type": "single-stim", "stimulus": "<p id=\"stim\">9</p>", "internal_node_id": "0.0-129.0-1.0", "time_elapsed": 1142654, "key_press": -1, "trial_index": 175}, "uniqueid": "MTK3006:3SLE99ER0OK22CUCB89LMBJAI7MZB0", "dateTime": 1519665794883}, {"current_trial": 176, "trialdata": {"rt": -1, "trial_type": "single-stim", "stimulus": "<p id=\"stim\">8</p>", "internal_node_id": "0.0-129.0-2.0", "time_elapsed": 1143655, "key_press": -1, "trial_index": 176}, "uniqueid": "MTK3006:3SLE99ER0OK22CUCB89LMBJAI7MZB0", "dateTime": 1519665795884}, {"current_trial": 177, "trialdata": {"rt": -1, "trial_type": "single-stim", "stimulus": "<p id=\"stim\">7</p>", "internal_node_id": "0.0-129.0-3.0", "time_elapsed": 1144656, "key_press": -1, "trial_index": 177}, "uniqueid": "MTK3006:3SLE99ER0OK22CUCB89LMBJAI7MZB0", "dateTime": 1519665796885}, {"current_trial": 178, "trialdata": {"rt": -1, "trial_type": "single-stim", "stimulus": "<p id=\"stim\">6</p>", "internal_node_id": "0.0-129.0-4.0", "time_elapsed": 1145657, "key_press": -1, "trial_index": 178}, "uniqueid": "MTK3006:3SLE99ER0OK22CUCB89LMBJAI7MZB0", "dateTime": 1519665797886}, {"current_trial": 179, "trialdata": {"rt": -1, "trial_type": "single-stim", "stimulus": "<p id=\"stim\">5</p>", "internal_node_id": "0.0-129.0-5.0", "time_elapsed": 1146658, "key_press": -1, "trial_index": 179}, "uniqueid": "MTK3006:3SLE99ER0OK22CUCB89LMBJAI7MZB0", "dateTime": 1519665798887}, {"current_trial": 180, "trialdata": {"rt": -1, "trial_type": "single-stim", "stimulus": "<p id=\"stim\">4</p>", "internal_node_id": "0.0-129.0-6.0", "time_elapsed": 1147659, "key_press": -1, "trial_index": 180}, "uniqueid": "MTK3006:3SLE99ER0OK22CUCB89LMBJAI7MZB0", "dateTime": 1519665799890}, {"current_trial": 181, "trialdata": {"rt": -1, "trial_type": "single-stim", "stimulus": "<p id=\"stim\">3</p>", "internal_node_id": "0.0-129.0-7.0", "time_elapsed": 1148662, "key_press": -1, "trial_index": 181}, "uniqueid": "MTK3006:3SLE99ER0OK22CUCB89LMBJAI7MZB0", "dateTime": 1519665800891}, {"current_trial": 182, "trialdata": {"rt": -1, "trial_type": "single-stim", "stimulus": "<p id=\"stim\">2</p>", "internal_node_id": "0.0-129.0-8.0", "time_elapsed": 1149663, "key_press": -1, "trial_index": 182}, "uniqueid": "MTK3006:3SLE99ER0OK22CUCB89LMBJAI7MZB0", "dateTime": 1519665801892}, {"current_trial": 183, "trialdata": {"rt": -1, "trial_type": "single-stim", "stimulus": "<p id=\"stim\">1</p>", "internal_node_id": "0.0-129.0-9.0", "time_elapsed": 1150664, "key_press": -1, "trial_index": 183}, "uniqueid": "MTK3006:3SLE99ER0OK22CUCB89LMBJAI7MZB0", "dateTime": 1519665802893}, {"current_trial": 184, "trialdata": {"rt": -1, "trial_type": "single-stim", "stimulus": "<p id=\"stim\">+</p>", "internal_node_id": "0.0-130.0-0.0", "time_elapsed": 1152165, "key_press": -1, "type": "FIXATION", "trial_index": 184}, "uniqueid": "MTK3006:3SLE99ER0OK22CUCB89LMBJAI7MZB0", "dateTime": 1519665804394}, {"current_trial": 185, "trialdata": {"rt": -1, "trial_type": "single-stim", "word": "patient", "stimulus": "<p id=\"stim\">PATIENT</p>", "conditions": [24, 800, "v", 12000], "internal_node_id": "0.0-131.0", "trial": 5, "time_elapsed": 1152966, "serialpos": 0, "key_press": -1, "wordID": 1023, "type": "PRES_VIS", "trial_index": 185}, "uniqueid": "MTK3006:3SLE99ER0OK22CUCB89LMBJAI7MZB0", "dateTime": 1519665805195}, {"current_trial": 186, "trialdata": {"rt": -1, "trial_type": "single-stim", "word": "custard", "stimulus": "<p id=\"stim\">CUSTARD</p>", "conditions": [24, 800, "v", 12000], "internal_node_id": "0.0-132.0", "trial": 5, "time_elapsed": 1154775, "serialpos": 1, "key_press": -1, "wordID": 428, "type": "PRES_VIS", "trial_index": 186}, "uniqueid": "MTK3006:3SLE99ER0OK22CUCB89LMBJAI7MZB0", "dateTime": 1519665807004}, {"current_trial": 187, "trialdata": {"rt": -1, "trial_type": "single-stim", "word": "maple", "stimulus": "<p id=\"stim\">MAPLE</p>", "conditions": [24, 800, "v", 12000], "internal_node_id": "0.0-133.0", "trial": 5, "time_elapsed": 1156385, "serialpos": 2, "key_press": -1, "wordID": 865, "type": "PRES_VIS", "trial_index": 187}, "uniqueid": "MTK3006:3SLE99ER0OK22CUCB89LMBJAI7MZB0", "dateTime": 1519665808614}, {"current_trial": 188, "trialdata": {"rt": -1, "trial_type": "single-stim", "word": "chauffeur", "stimulus": "<p id=\"stim\">CHAUFFEUR</p>", "conditions": [24, 800, "v", 12000], "internal_node_id": "0.0-134.0", "trial": 5, "time_elapsed": 1158276, "serialpos": 3, "key_press": -1, "wordID": 282, "type": "PRES_VIS", "trial_index": 188}, "uniqueid": "MTK3006:3SLE99ER0OK22CUCB89LMBJAI7MZB0", "dateTime": 1519665810505}, {"current_trial": 189, "trialdata": {"rt": -1, "trial_type": "single-stim", "word": "atom", "stimulus": "<p id=\"stim\">ATOM</p>", "conditions": [24, 800, "v", 12000], "internal_node_id": "0.0-135.0", "trial": 5, "time_elapsed": 1160109, "serialpos": 4, "key_press": -1, "wordID": 54, "type": "PRES_VIS", "trial_index": 189}, "uniqueid": "MTK3006:3SLE99ER0OK22CUCB89LMBJAI7MZB0", "dateTime": 1519665812338}, {"current_trial": 190, "trialdata": {"rt": -1, "trial_type": "single-stim", "word": "nurse", "stimulus": "<p id=\"stim\">NURSE</p>", "conditions": [24, 800, "v", 12000], "internal_node_id": "0.0-136.0", "trial": 5, "time_elapsed": 1161912, "serialpos": 5, "key_press": -1, "wordID": 962, "type": "PRES_VIS", "trial_index": 190}, "uniqueid": "MTK3006:3SLE99ER0OK22CUCB89LMBJAI7MZB0", "dateTime": 1519665814141}, {"current_trial": 191, "trialdata": {"rt": -1, "trial_type": "single-stim", "word": "driver", "stimulus": "<p id=\"stim\">DRIVER</p>", "conditions": [24, 800, "v", 12000], "internal_node_id": "0.0-137.0", "trial": 5, "time_elapsed": 1163702, "serialpos": 6, "key_press": -1, "wordID": 498, "type": "PRES_VIS", "trial_index": 191}, "uniqueid": "MTK3006:3SLE99ER0OK22CUCB89LMBJAI7MZB0", "dateTime": 1519665815931}, {"current_trial": 192, "trialdata": {"rt": -1, "trial_type": "single-stim", "word": "powder", "stimulus": "<p id=\"stim\">POWDER</p>", "conditions": [24, 800, "v", 12000], "internal_node_id": "0.0-138.0", "trial": 5, "time_elapsed": 1165449, "serialpos": 7, "key_press": -1, "wordID": 1116, "type": "PRES_VIS", "trial_index": 192}, "uniqueid": "MTK3006:3SLE99ER0OK22CUCB89LMBJAI7MZB0", "dateTime": 1519665817678}, {"current_trial": 193, "trialdata": {"rt": -1, "trial_type": "single-stim", "word": "teacher", "stimulus": "<p id=\"stim\">TEACHER</p>", "conditions": [24, 800, "v", 12000], "internal_node_id": "0.0-139.0", "trial": 5, "time_elapsed": 1167109, "serialpos": 8, "key_press": -1, "wordID": 1439, "type": "PRES_VIS", "trial_index": 193}, "uniqueid": "MTK3006:3SLE99ER0OK22CUCB89LMBJAI7MZB0", "dateTime": 1519665819338}, {"current_trial": 194, "trialdata": {"rt": -1, "trial_type": "single-stim", "word": "snake", "stimulus": "<p id=\"stim\">SNAKE</p>", "conditions": [24, 800, "v", 12000], "internal_node_id": "0.0-140.0", "trial": 5, "time_elapsed": 1168821, "serialpos": 9, "key_press": -1, "wordID": 1332, "type": "PRES_VIS", "trial_index": 194}, "uniqueid": "MTK3006:3SLE99ER0OK22CUCB89LMBJAI7MZB0", "dateTime": 1519665821050}, {"current_trial": 195, "trialdata": {"rt": -1, "trial_type": "single-stim", "word": "spider", "stimulus": "<p id=\"stim\">SPIDER</p>", "conditions": [24, 800, "v", 12000], "internal_node_id": "0.0-141.0", "trial": 5, "time_elapsed": 1170651, "serialpos": 10, "key_press": -1, "wordID": 1350, "type": "PRES_VIS", "trial_index": 195}, "uniqueid": "MTK3006:3SLE99ER0OK22CUCB89LMBJAI7MZB0", "dateTime": 1519665822880}, {"current_trial": 196, "trialdata": {"rt": -1, "trial_type": "single-stim", "word": "cocktail", "stimulus": "<p id=\"stim\">COCKTAIL</p>", "conditions": [24, 800, "v", 12000], "internal_node_id": "0.0-142.0", "trial": 5, "time_elapsed": 1172327, "serialpos": 11, "key_press": -1, "wordID": 337, "type": "PRES_VIS", "trial_index": 196}, "uniqueid": "MTK3006:3SLE99ER0OK22CUCB89LMBJAI7MZB0", "dateTime": 1519665824556}, {"current_trial": 197, "trialdata": {"rt": -1, "trial_type": "single-stim", "word": "lizard", "stimulus": "<p id=\"stim\">LIZARD</p>", "conditions": [24, 800, "v", 12000], "internal_node_id": "0.0-143.0", "trial": 5, "time_elapsed": 1174070, "serialpos": 12, "key_press": -1, "wordID": 833, "type": "PRES_VIS", "trial_index": 197}, "uniqueid": "MTK3006:3SLE99ER0OK22CUCB89LMBJAI7MZB0", "dateTime": 1519665826300}, {"current_trial": 198, "trialdata": {"rt": -1, "trial_type": "single-stim", "word": "beast", "stimulus": "<p id=\"stim\">BEAST</p>", "conditions": [24, 800, "v", 12000], "internal_node_id": "0.0-144.0", "trial": 5, "time_elapsed": 1176040, "serialpos": 13, "key_press": -1, "wordID": 107, "type": "PRES_VIS", "trial_index": 198}, "uniqueid": "MTK3006:3SLE99ER0OK22CUCB89LMBJAI7MZB0", "dateTime": 1519665828270}, {"current_trial": 199, "trialdata": {"rt": -1, "trial_type": "single-stim", "word": "buggy", "stimulus": "<p id=\"stim\">BUGGY</p>", "conditions": [24, 800, "v", 12000], "internal_node_id": "0.0-145.0", "trial": 5, "time_elapsed": 1177667, "serialpos": 14, "key_press": -1, "wordID": 187, "type": "PRES_VIS", "trial_index": 199}, "uniqueid": "MTK3006:3SLE99ER0OK22CUCB89LMBJAI7MZB0", "dateTime": 1519665829897}, {"current_trial": 200, "trialdata": {"rt": -1, "trial_type": "single-stim", "word": "princess", "stimulus": "<p id=\"stim\">PRINCESS</p>", "conditions": [24, 800, "v", 12000], "internal_node_id": "0.0-146.0", "trial": 5, "time_elapsed": 1179561, "serialpos": 15, "key_press": -1, "wordID": 1124, "type": "PRES_VIS", "trial_index": 200}, "uniqueid": "MTK3006:3SLE99ER0OK22CUCB89LMBJAI7MZB0", "dateTime": 1519665831790}, {"current_trial": 201, "trialdata": {"rt": -1, "trial_type": "single-stim", "word": "cook", "stimulus": "<p id=\"stim\">COOK</p>", "conditions": [24, 800, "v", 12000], "internal_node_id": "0.0-147.0", "trial": 5, "time_elapsed": 1181549, "serialpos": 16, "key_press": -1, "wordID": 371, "type": "PRES_VIS", "trial_index": 201}, "uniqueid": "MTK3006:3SLE99ER0OK22CUCB89LMBJAI7MZB0", "dateTime": 1519665833778}, {"current_trial": 202, "trialdata": {"rt": -1, "trial_type": "single-stim", "word": "vagrant", "stimulus": "<p id=\"stim\">VAGRANT</p>", "conditions": [24, 800, "v", 12000], "internal_node_id": "0.0-148.0", "trial": 5, "time_elapsed": 1183259, "serialpos": 17, "key_press": -1, "wordID": 1543, "type": "PRES_VIS", "trial_index": 202}, "uniqueid": "MTK3006:3SLE99ER0OK22CUCB89LMBJAI7MZB0", "dateTime": 1519665835489}, {"current_trial": 203, "trialdata": {"rt": -1, "trial_type": "single-stim", "word": "mildew", "stimulus": "<p id=\"stim\">MILDEW</p>", "conditions": [24, 800, "v", 12000], "internal_node_id": "0.0-149.0", "trial": 5, "time_elapsed": 1184875, "serialpos": 18, "key_press": -1, "wordID": 892, "type": "PRES_VIS", "trial_index": 203}, "uniqueid": "MTK3006:3SLE99ER0OK22CUCB89LMBJAI7MZB0", "dateTime": 1519665837104}, {"current_trial": 204, "trialdata": {"rt": -1, "trial_type": "single-stim", "word": "onion", "stimulus": "<p id=\"stim\">ONION</p>", "conditions": [24, 800, "v", 12000], "internal_node_id": "0.0-150.0", "trial": 5, "time_elapsed": 1186618, "serialpos": 19, "key_press": -1, "wordID": 976, "type": "PRES_VIS", "trial_index": 204}, "uniqueid": "MTK3006:3SLE99ER0OK22CUCB89LMBJAI7MZB0", "dateTime": 1519665838847}, {"current_trial": 205, "trialdata": {"rt": -1, "trial_type": "single-stim", "word": "pepper", "stimulus": "<p id=\"stim\">PEPPER</p>", "conditions": [24, 800, "v", 12000], "internal_node_id": "0.0-151.0", "trial": 5, "time_elapsed": 1188344, "serialpos": 20, "key_press": -1, "wordID": 1046, "type": "PRES_VIS", "trial_index": 205}, "uniqueid": "MTK3006:3SLE99ER0OK22CUCB89LMBJAI7MZB0", "dateTime": 1519665840573}, {"current_trial": 206, "trialdata": {"rt": -1, "trial_type": "single-stim", "word": "stomach", "stimulus": "<p id=\"stim\">STOMACH</p>", "conditions": [24, 800, "v", 12000], "internal_node_id": "0.0-152.0", "trial": 5, "time_elapsed": 1190080, "serialpos": 21, "key_press": -1, "wordID": 1383, "type": "PRES_VIS", "trial_index": 206}, "uniqueid": "MTK3006:3SLE99ER0OK22CUCB89LMBJAI7MZB0", "dateTime": 1519665842309}, {"current_trial": 207, "trialdata": {"rt": -1, "trial_type": "single-stim", "word": "shelf", "stimulus": "<p id=\"stim\">SHELF</p>", "conditions": [24, 800, "v", 12000], "internal_node_id": "0.0-153.0", "trial": 5, "time_elapsed": 1191793, "serialpos": 22, "key_press": -1, "wordID": 1279, "type": "PRES_VIS", "trial_index": 207}, "uniqueid": "MTK3006:3SLE99ER0OK22CUCB89LMBJAI7MZB0", "dateTime": 1519665844022}, {"current_trial": 208, "trialdata": {"rt": -1, "trial_type": "single-stim", "word": "kitchen", "stimulus": "<p id=\"stim\">KITCHEN</p>", "conditions": [24, 800, "v", 12000], "internal_node_id": "0.0-154.0", "trial": 5, "time_elapsed": 1193716, "serialpos": 23, "key_press": -1, "wordID": 777, "type": "PRES_VIS", "trial_index": 208}, "uniqueid": "MTK3006:3SLE99ER0OK22CUCB89LMBJAI7MZB0", "dateTime": 1519665845945}, {"current_trial": 209, "trialdata": {"rt": -1, "trial_type": "single-stim", "stimulus": "", "internal_node_id": "0.0-155.0-0.0", "time_elapsed": 1196038, "key_press": -1, "type": "PRE_RECALL_DELAY", "trial_index": 209}, "uniqueid": "MTK3006:3SLE99ER0OK22CUCB89LMBJAI7MZB0", "dateTime": 1519665848268}, {"current_trial": 210, "trialdata": {"rt": -1000, "trial_type": "single-audio", "stimulus": "/static/audio/400Hz.wav", "internal_node_id": "0.0-156.0", "time_elapsed": 1196540, "key_press": -1, "type": "PRE_RECALL_ALERT", "trial_index": 210}, "uniqueid": "MTK3006:3SLE99ER0OK22CUCB89LMBJAI7MZB0", "dateTime": 1519665848769}, {"current_trial": 211, "trialdata": {"rt": [3993, 7873, 9480, 12144, 16248, 19136, 21664, 23672, 25776, 32336, 35344, 52079], "recwords": ["teacher", "stomach", "shelf", "mildew", "vagrant", "cocktail", "spider", "beast", "atom", "patient", "cook", "onion"], "key_times": [1273, 2041, 2233, 2705, 2889, 3136, 3329, 3993, 6041, 6352, 6488, 6768, 6944, 7401, 7592, 7873, 8120, 8609, 8761, 8912, 9209, 9480, 10104, 10328, 10496, 10744, 11233, 11745, 12144, 14000, 14240, 14480, 14776, 14952, 15632, 16112, 16248, 16944, 17040, 17536, 17664, 18192, 18368, 18560, 18720, 19136, 19576, 19808, 20408, 20568, 21264, 21496, 21664, 22065, 22248, 22585, 23072, 23488, 23672, 24896, 25136, 25296, 25512, 25776, 30728, 30912, 31104, 31624, 31840, 31882, 32064, 32336, 34064, 34520, 34712, 34959, 35344, 50399, 50663, 51127, 51519, 51743, 52079, 59799], "trial_type": "free-recall", "conditions": [24, 800, "v", 12000], "internal_node_id": "0.0-157.0-0.0", "key_presses": [84, 69, 65, 67, 72, 69, 82, 13, 83, 84, 79, 77, 65, 67, 72, 13, 83, 72, 69, 76, 70, 13, 77, 73, 76, 68, 69, 87, 13, 86, 65, 71, 82, 65, 78, 84, 13, 67, 79, 67, 75, 84, 65, 73, 76, 13, 83, 80, 73, 68, 69, 82, 13, 66, 69, 65, 83, 84, 13, 65, 84, 79, 77, 13, 80, 65, 84, 73, 69, 78, 84, 13, 67, 79, 79, 75, 13, 79, 78, 73, 79, 78, 13, 67], "trial": 5, "time_elapsed": 1256543, "type": "FREE_RECALL", "trial_index": 211}, "uniqueid": "MTK3006:3SLE99ER0OK22CUCB89LMBJAI7MZB0", "dateTime": 1519665908776}, {"current_trial": 212, "trialdata": {"rt": 210353, "trial_type": "text", "internal_node_id": "0.0-158.0", "time_elapsed": 1468901, "key_press": 75, "type": "INSTRUCTIONS", "trial_index": 212}, "uniqueid": "MTK3006:3SLE99ER0OK22CUCB89LMBJAI7MZB0", "dateTime": 1519666121130}, {"current_trial": 213, "trialdata": {"rt": [2973, 6037, 8412, 10421], "trial_type": "math-distractor", "key_times": [1981, 2253, 2973, 5405, 5805, 6037, 7861, 8173, 8412, 9861, 10165, 10421, 11989], "responses": ["14", "13", "18", "18"], "num2": [2, 2, 9, 1, 4], "num3": [6, 5, 6, 8, 4], "conditions": [12, 1600, "v", 12000], "internal_node_id": "0.0-159.0", "key_presses": [97, 100, 13, 97, 99, 13, 97, 104, 13, 97, 104, 13, 97], "trial": 6, "time_elapsed": 1482904, "type": "DISTRACTOR", "trial_index": 213, "num1": [6, 6, 3, 9, 9]}, "uniqueid": "MTK3006:3SLE99ER0OK22CUCB89LMBJAI7MZB0", "dateTime": 1519666135133}, {"current_trial": 214, "trialdata": {"rt": -1, "trial_type": "single-stim", "stimulus": "<p id=\"stim\">10</p>", "internal_node_id": "0.0-160.0-0.0", "time_elapsed": 1485905, "key_press": -1, "trial_index": 214}, "uniqueid": "MTK3006:3SLE99ER0OK22CUCB89LMBJAI7MZB0", "dateTime": 1519666138134}, {"current_trial": 215, "trialdata": {"rt": -1, "trial_type": "single-stim", "stimulus": "<p id=\"stim\">9</p>", "internal_node_id": "0.0-160.0-1.0", "time_elapsed": 1486906, "key_press": -1, "trial_index": 215}, "uniqueid": "MTK3006:3SLE99ER0OK22CUCB89LMBJAI7MZB0", "dateTime": 1519666139135}, {"current_trial": 216, "trialdata": {"rt": -1, "trial_type": "single-stim", "stimulus": "<p id=\"stim\">8</p>", "internal_node_id": "0.0-160.0-2.0", "time_elapsed": 1487907, "key_press": -1, "trial_index": 216}, "uniqueid": "MTK3006:3SLE99ER0OK22CUCB89LMBJAI7MZB0", "dateTime": 1519666140136}, {"current_trial": 217, "trialdata": {"rt": -1, "trial_type": "single-stim", "stimulus": "<p id=\"stim\">7</p>", "internal_node_id": "0.0-160.0-3.0", "time_elapsed": 1488908, "key_press": -1, "trial_index": 217}, "uniqueid": "MTK3006:3SLE99ER0OK22CUCB89LMBJAI7MZB0", "dateTime": 1519666141137}, {"current_trial": 218, "trialdata": {"rt": -1, "trial_type": "single-stim", "stimulus": "<p id=\"stim\">6</p>", "internal_node_id": "0.0-160.0-4.0", "time_elapsed": 1489909, "key_press": -1, "trial_index": 218}, "uniqueid": "MTK3006:3SLE99ER0OK22CUCB89LMBJAI7MZB0", "dateTime": 1519666142138}, {"current_trial": 219, "trialdata": {"rt": -1, "trial_type": "single-stim", "stimulus": "<p id=\"stim\">5</p>", "internal_node_id": "0.0-160.0-5.0", "time_elapsed": 1490910, "key_press": -1, "trial_index": 219}, "uniqueid": "MTK3006:3SLE99ER0OK22CUCB89LMBJAI7MZB0", "dateTime": 1519666143139}, {"current_trial": 220, "trialdata": {"rt": -1, "trial_type": "single-stim", "stimulus": "<p id=\"stim\">4</p>", "internal_node_id": "0.0-160.0-6.0", "time_elapsed": 1491911, "key_press": -1, "trial_index": 220}, "uniqueid": "MTK3006:3SLE99ER0OK22CUCB89LMBJAI7MZB0", "dateTime": 1519666144140}, {"current_trial": 221, "trialdata": {"rt": -1, "trial_type": "single-stim", "stimulus": "<p id=\"stim\">3</p>", "internal_node_id": "0.0-160.0-7.0", "time_elapsed": 1492912, "key_press": -1, "trial_index": 221}, "uniqueid": "MTK3006:3SLE99ER0OK22CUCB89LMBJAI7MZB0", "dateTime": 1519666145142}, {"current_trial": 222, "trialdata": {"rt": -1, "trial_type": "single-stim", "stimulus": "<p id=\"stim\">2</p>", "internal_node_id": "0.0-160.0-8.0", "time_elapsed": 1493913, "key_press": -1, "trial_index": 222}, "uniqueid": "MTK3006:3SLE99ER0OK22CUCB89LMBJAI7MZB0", "dateTime": 1519666146143}, {"current_trial": 223, "trialdata": {"rt": -1, "trial_type": "single-stim", "stimulus": "<p id=\"stim\">1</p>", "internal_node_id": "0.0-160.0-9.0", "time_elapsed": 1494914, "key_press": -1, "trial_index": 223}, "uniqueid": "MTK3006:3SLE99ER0OK22CUCB89LMBJAI7MZB0", "dateTime": 1519666147144}, {"current_trial": 224, "trialdata": {"rt": -1, "trial_type": "single-stim", "stimulus": "<p id=\"stim\">+</p>", "internal_node_id": "0.0-161.0-0.0", "time_elapsed": 1496416, "key_press": -1, "type": "FIXATION", "trial_index": 224}, "uniqueid": "MTK3006:3SLE99ER0OK22CUCB89LMBJAI7MZB0", "dateTime": 1519666148645}, {"current_trial": 225, "trialdata": {"rt": -1, "trial_type": "single-stim", "word": "knife", "stimulus": "<p id=\"stim\">KNIFE</p>", "conditions": [12, 1600, "v", 12000], "internal_node_id": "0.0-162.0", "trial": 6, "time_elapsed": 1498017, "serialpos": 0, "key_press": -1, "wordID": 784, "type": "PRES_VIS", "trial_index": 225}, "uniqueid": "MTK3006:3SLE99ER0OK22CUCB89LMBJAI7MZB0", "dateTime": 1519666150246}, {"current_trial": 226, "trialdata": {"rt": -1, "trial_type": "single-stim", "word": "globe", "stimulus": "<p id=\"stim\">GLOBE</p>", "conditions": [12, 1600, "v", 12000], "internal_node_id": "0.0-163.0", "trial": 6, "time_elapsed": 1500506, "serialpos": 1, "key_press": -1, "wordID": 640, "type": "PRES_VIS", "trial_index": 226}, "uniqueid": "MTK3006:3SLE99ER0OK22CUCB89LMBJAI7MZB0", "dateTime": 1519666152735}, {"current_trial": 227, "trialdata": {"rt": -1, "trial_type": "single-stim", "word": "subway", "stimulus": "<p id=\"stim\">SUBWAY</p>", "conditions": [12, 1600, "v", 12000], "internal_node_id": "0.0-164.0", "trial": 6, "time_elapsed": 1503025, "serialpos": 2, "key_press": -1, "wordID": 1399, "type": "PRES_VIS", "trial_index": 227}, "uniqueid": "MTK3006:3SLE99ER0OK22CUCB89LMBJAI7MZB0", "dateTime": 1519666155255}, {"current_trial": 228, "trialdata": {"rt": -1, "trial_type": "single-stim", "word": "fireman", "stimulus": "<p id=\"stim\">FIREMAN</p>", "conditions": [12, 1600, "v", 12000], "internal_node_id": "0.0-165.0", "trial": 6, "time_elapsed": 1505691, "serialpos": 3, "key_press": -1, "wordID": 568, "type": "PRES_VIS", "trial_index": 228}, "uniqueid": "MTK3006:3SLE99ER0OK22CUCB89LMBJAI7MZB0", "dateTime": 1519666157920}, {"current_trial": 229, "trialdata": {"rt": -1, "trial_type": "single-stim", "word": "child", "stimulus": "<p id=\"stim\">CHILD</p>", "conditions": [12, 1600, "v", 12000], "internal_node_id": "0.0-166.0", "trial": 6, "time_elapsed": 1508309, "serialpos": 4, "key_press": -1, "wordID": 298, "type": "PRES_VIS", "trial_index": 229}, "uniqueid": "MTK3006:3SLE99ER0OK22CUCB89LMBJAI7MZB0", "dateTime": 1519666160538}, {"current_trial": 230, "trialdata": {"rt": -1, "trial_type": "single-stim", "word": "postage", "stimulus": "<p id=\"stim\">POSTAGE</p>", "conditions": [12, 1600, "v", 12000], "internal_node_id": "0.0-167.0", "trial": 6, "time_elapsed": 1511044, "serialpos": 5, "key_press": -1, "wordID": 1112, "type": "PRES_VIS", "trial_index": 230}, "uniqueid": "MTK3006:3SLE99ER0OK22CUCB89LMBJAI7MZB0", "dateTime": 1519666163274}, {"current_trial": 231, "trialdata": {"rt": -1, "trial_type": "single-stim", "word": "world", "stimulus": "<p id=\"stim\">WORLD</p>", "conditions": [12, 1600, "v", 12000], "internal_node_id": "0.0-168.0", "trial": 6, "time_elapsed": 1513661, "serialpos": 6, "key_press": -1, "wordID": 1621, "type": "PRES_VIS", "trial_index": 231}, "uniqueid": "MTK3006:3SLE99ER0OK22CUCB89LMBJAI7MZB0", "dateTime": 1519666165890}, {"current_trial": 232, "trialdata": {"rt": -1, "trial_type": "single-stim", "word": "bike", "stimulus": "<p id=\"stim\">BIKE</p>", "conditions": [12, 1600, "v", 12000], "internal_node_id": "0.0-169.0", "trial": 6, "time_elapsed": 1516365, "serialpos": 7, "key_press": -1, "wordID": 124, "type": "PRES_VIS", "trial_index": 232}, "uniqueid": "MTK3006:3SLE99ER0OK22CUCB89LMBJAI7MZB0", "dateTime": 1519666168594}, {"current_trial": 233, "trialdata": {"rt": -1, "trial_type": "single-stim", "word": "female", "stimulus": "<p id=\"stim\">FEMALE</p>", "conditions": [12, 1600, "v", 12000], "internal_node_id": "0.0-170.0", "trial": 6, "time_elapsed": 1519122, "serialpos": 8, "key_press": -1, "wordID": 558, "type": "PRES_VIS", "trial_index": 233}, "uniqueid": "MTK3006:3SLE99ER0OK22CUCB89LMBJAI7MZB0", "dateTime": 1519666171351}, {"current_trial": 234, "trialdata": {"rt": -1, "trial_type": "single-stim", "word": "citrus", "stimulus": "<p id=\"stim\">CITRUS</p>", "conditions": [12, 1600, "v", 12000], "internal_node_id": "0.0-171.0", "trial": 6, "time_elapsed": 1521694, "serialpos": 9, "key_press": -1, "wordID": 312, "type": "PRES_VIS", "trial_index": 234}, "uniqueid": "MTK3006:3SLE99ER0OK22CUCB89LMBJAI7MZB0", "dateTime": 1519666173923}, {"current_trial": 235, "trialdata": {"rt": -1, "trial_type": "single-stim", "word": "stove", "stimulus": "<p id=\"stim\">STOVE</p>", "conditions": [12, 1600, "v", 12000], "internal_node_id": "0.0-172.0", "trial": 6, "time_elapsed": 1524158, "serialpos": 10, "key_press": -1, "wordID": 1387, "type": "PRES_VIS", "trial_index": 235}, "uniqueid": "MTK3006:3SLE99ER0OK22CUCB89LMBJAI7MZB0", "dateTime": 1519666176387}, {"current_trial": 236, "trialdata": {"rt": -1, "trial_type": "single-stim", "word": "toaster", "stimulus": "<p id=\"stim\">TOASTER</p>", "conditions": [12, 1600, "v", 12000], "internal_node_id": "0.0-173.0", "trial": 6, "time_elapsed": 1526866, "serialpos": 11, "key_press": -1, "wordID": 1471, "type": "PRES_VIS", "trial_index": 236}, "uniqueid": "MTK3006:3SLE99ER0OK22CUCB89LMBJAI7MZB0", "dateTime": 1519666179095}, {"current_trial": 237, "trialdata": {"rt": -1, "trial_type": "single-stim", "stimulus": "", "internal_node_id": "0.0-174.0-0.0", "time_elapsed": 1529091, "key_press": -1, "type": "PRE_RECALL_DELAY", "trial_index": 237}, "uniqueid": "MTK3006:3SLE99ER0OK22CUCB89LMBJAI7MZB0", "dateTime": 1519666181321}, {"current_trial": 238, "trialdata": {"rt": -1000, "trial_type": "single-audio", "stimulus": "/static/audio/400Hz.wav", "internal_node_id": "0.0-175.0", "time_elapsed": 1529593, "key_press": -1, "type": "PRE_RECALL_ALERT", "trial_index": 238}, "uniqueid": "MTK3006:3SLE99ER0OK22CUCB89LMBJAI7MZB0", "dateTime": 1519666181822}, {"current_trial": 239, "trialdata": {"rt": [3247, 5007, 9750, 13990, 16639, 18446, 21070, 24278, 35782], "recwords": ["toaster", "stove", "citrus", "female", "globe", "child", "postage", "knife", "bike"], "key_times": [1311, 1839, 2095, 2383, 2615, 2863, 2999, 3247, 3615, 3807, 4023, 4343, 4735, 5007, 6167, 6774, 6879, 7071, 7310, 7911, 8095, 8279, 8502, 9111, 9294, 9494, 9750, 12143, 12382, 13129, 13302, 13550, 13782, 13990, 14478, 14734, 14998, 15542, 15998, 16134, 16446, 16639, 17182, 17374, 17542, 17726, 17878, 18446, 19031, 19326, 19494, 19726, 20270, 20558, 20814, 21070, 22190, 23142, 23398, 23798, 24015, 24278, 34974, 35142, 35414, 35589, 35782], "trial_type": "free-recall", "conditions": [12, 1600, "v", 12000], "internal_node_id": "0.0-176.0-0.0", "key_presses": [84, 79, 65, 83, 84, 69, 82, 13, 83, 84, 79, 86, 69, 13, 67, 73, 83, 84, 82, 8, 8, 8, 84, 82, 85, 83, 13, 70, 69, 77, 65, 76, 69, 13, 71, 76, 79, 68, 8, 66, 69, 13, 67, 72, 73, 76, 68, 13, 80, 79, 83, 84, 65, 71, 69, 13, 75, 78, 73, 70, 69, 13, 66, 73, 75, 69, 13], "trial": 6, "time_elapsed": 1589596, "type": "FREE_RECALL", "trial_index": 239}, "uniqueid": "MTK3006:3SLE99ER0OK22CUCB89LMBJAI7MZB0", "dateTime": 1519666241829}, {"current_trial": 240, "trialdata": {"rt": 3399, "trial_type": "text", "internal_node_id": "0.0-177.0", "time_elapsed": 1595000, "key_press": 75, "type": "INSTRUCTIONS", "trial_index": 240}, "uniqueid": "MTK3006:3SLE99ER0OK22CUCB89LMBJAI7MZB0", "dateTime": 1519666247229}, {"current_trial": 241, "trialdata": {"rt": [2341, 5237, 8629, 10645], "trial_type": "math-distractor", "key_times": [1822, 1989, 2341, 4389, 4637, 5237, 8038, 8405, 8629, 10133, 10397, 10645], "responses": ["11", "20", "16", "10"], "num2": [4, 7, 6, 3, 6], "num3": [5, 6, 3, 1, 2], "conditions": [12, 1600, "v", 12000], "internal_node_id": "0.0-178.0", "key_presses": [97, 97, 13, 98, 96, 13, 97, 102, 13, 97, 96, 13], "trial": 7, "time_elapsed": 1609003, "type": "DISTRACTOR", "trial_index": 241, "num1": [2, 7, 7, 6, 7]}, "uniqueid": "MTK3006:3SLE99ER0OK22CUCB89LMBJAI7MZB0", "dateTime": 1519666261232}, {"current_trial": 242, "trialdata": {"rt": -1, "trial_type": "single-stim", "stimulus": "<p id=\"stim\">10</p>", "internal_node_id": "0.0-179.0-0.0", "time_elapsed": 1612005, "key_press": -1, "trial_index": 242}, "uniqueid": "MTK3006:3SLE99ER0OK22CUCB89LMBJAI7MZB0", "dateTime": 1519666264234}, {"current_trial": 243, "trialdata": {"rt": -1, "trial_type": "single-stim", "stimulus": "<p id=\"stim\">9</p>", "internal_node_id": "0.0-179.0-1.0", "time_elapsed": 1613006, "key_press": -1, "trial_index": 243}, "uniqueid": "MTK3006:3SLE99ER0OK22CUCB89LMBJAI7MZB0", "dateTime": 1519666265235}, {"current_trial": 244, "trialdata": {"rt": -1, "trial_type": "single-stim", "stimulus": "<p id=\"stim\">8</p>", "internal_node_id": "0.0-179.0-2.0", "time_elapsed": 1614007, "key_press": -1, "trial_index": 244}, "uniqueid": "MTK3006:3SLE99ER0OK22CUCB89LMBJAI7MZB0", "dateTime": 1519666266236}, {"current_trial": 245, "trialdata": {"rt": -1, "trial_type": "single-stim", "stimulus": "<p id=\"stim\">7</p>", "internal_node_id": "0.0-179.0-3.0", "time_elapsed": 1615008, "key_press": -1, "trial_index": 245}, "uniqueid": "MTK3006:3SLE99ER0OK22CUCB89LMBJAI7MZB0", "dateTime": 1519666267237}, {"current_trial": 246, "trialdata": {"rt": -1, "trial_type": "single-stim", "stimulus": "<p id=\"stim\">6</p>", "internal_node_id": "0.0-179.0-4.0", "time_elapsed": 1616009, "key_press": -1, "trial_index": 246}, "uniqueid": "MTK3006:3SLE99ER0OK22CUCB89LMBJAI7MZB0", "dateTime": 1519666268238}, {"current_trial": 247, "trialdata": {"rt": -1, "trial_type": "single-stim", "stimulus": "<p id=\"stim\">5</p>", "internal_node_id": "0.0-179.0-5.0", "time_elapsed": 1617010, "key_press": -1, "trial_index": 247}, "uniqueid": "MTK3006:3SLE99ER0OK22CUCB89LMBJAI7MZB0", "dateTime": 1519666269240}, {"current_trial": 248, "trialdata": {"rt": -1, "trial_type": "single-stim", "stimulus": "<p id=\"stim\">4</p>", "internal_node_id": "0.0-179.0-6.0", "time_elapsed": 1618012, "key_press": -1, "trial_index": 248}, "uniqueid": "MTK3006:3SLE99ER0OK22CUCB89LMBJAI7MZB0", "dateTime": 1519666270241}, {"current_trial": 249, "trialdata": {"rt": -1, "trial_type": "single-stim", "stimulus": "<p id=\"stim\">3</p>", "internal_node_id": "0.0-179.0-7.0", "time_elapsed": 1619013, "key_press": -1, "trial_index": 249}, "uniqueid": "MTK3006:3SLE99ER0OK22CUCB89LMBJAI7MZB0", "dateTime": 1519666271242}, {"current_trial": 250, "trialdata": {"rt": -1, "trial_type": "single-stim", "stimulus": "<p id=\"stim\">2</p>", "internal_node_id": "0.0-179.0-8.0", "time_elapsed": 1620014, "key_press": -1, "trial_index": 250}, "uniqueid": "MTK3006:3SLE99ER0OK22CUCB89LMBJAI7MZB0", "dateTime": 1519666272243}, {"current_trial": 251, "trialdata": {"rt": -1, "trial_type": "single-stim", "stimulus": "<p id=\"stim\">1</p>", "internal_node_id": "0.0-179.0-9.0", "time_elapsed": 1621015, "key_press": -1, "trial_index": 251}, "uniqueid": "MTK3006:3SLE99ER0OK22CUCB89LMBJAI7MZB0", "dateTime": 1519666273244}, {"current_trial": 252, "trialdata": {"rt": -1, "trial_type": "single-stim", "stimulus": "<p id=\"stim\">+</p>", "internal_no