{"assignmentId": "39N5ACM9HFUP0FD9QFXN47M6LZ49PQ", "workerId": "MTK3257", "questiondata": {"origin": "United States", "strat-rehearsal": "20", "marital": "Single", "education": "Some college", "ethnicity": "Not Hispanic", "color_depth": 24, "distracted": "No", "wrote-notes": "No", "strat-other": "", "screen_width": 1536, "avail_screen_width": 1536, "avail_screen_height": 824, "strat-image": "10", "language": "English, Chinese", "gender": "Male", "age": "24", "gender_other": "", "race": ["Asian"], "strat-categorize": "80", "pixel_depth": 24, "strat-spatial": "0", "strat-story": "30", "race_other": "", "screen_height": 864}, "bonus": 0, "hitId": "3QHITW7OYOGMIQQZSWLABNRGBGHAQG", "counterbalance": 472, "useragent": "Mozilla/5.0 (Windows NT 10.0; Win64; x64) AppleWebKit/537.36 (KHTML, like Gecko) Chrome/64.0.3282.186 Safari/537.36", "eventdata": [{"eventtype": "initialized", "interval": 0, "value": null, "timestamp": 1520279943309}, {"eventtype": "window_resize", "interval": 0, "value": [1396, 703], "timestamp": 1520279943309}, {"eventtype": "focus", "interval": 3048337, "value": "off", "timestamp": 1520282991646}, {"eventtype": "focus", "interval": 9, "value": "on", "timestamp": 1520282991655}], "data": [{"current_trial": 0, "trialdata": {"rt": 20613, "trial_type": "text", "internal_node_id": "0.0-0.0", "time_elapsed": 20616, "key_press": 32, "type": "INSTRUCTIONS", "trial_index": 0}, "uniqueid": "MTK3257:39N5ACM9HFUP0FD9QFXN47M6LZ49PQ", "dateTime": 1520279964689}, {"current_trial": 1, "trialdata": {"rt": 9474, "trial_type": "text", "internal_node_id": "0.0-1.0", "time_elapsed": 30092, "key_press": 32, "type": "INSTRUCTIONS", "trial_index": 1}, "uniqueid": "MTK3257:39N5ACM9HFUP0FD9QFXN47M6LZ49PQ", "dateTime": 1520279974164}, {"current_trial": 2, "trialdata": {"rt": [5147], "trial_type": "audio-test", "responses": ["ocean"], "internal_node_id": "0.0-2.0", "time_elapsed": 35253, "type": "AUDIO_TEST", "trial_index": 2}, "uniqueid": "MTK3257:39N5ACM9HFUP0FD9QFXN47M6LZ49PQ", "dateTime": 1520279979325}, {"current_trial": 3, "trialdata": {"rt": [7153], "trial_type": "audio-test", "responses": ["crystal"], "internal_node_id": "0.0-3.0", "time_elapsed": 42410, "type": "AUDIO_TEST", "trial_index": 3}, "uniqueid": "MTK3257:39N5ACM9HFUP0FD9QFXN47M6LZ49PQ", "dateTime": 1520279986482}, {"current_trial": 4, "trialdata": {"rt": [3931], "trial_type": "audio-test", "responses": ["spice"], "internal_node_id": "0.0-4.0", "time_elapsed": 46345, "type": "AUDIO_TEST", "trial_index": 4}, "uniqueid": "MTK3257:39N5ACM9HFUP0FD9QFXN47M6LZ49PQ", "dateTime": 1520279990417}, {"current_trial": 5, "trialdata": {"rt": 37099, "trial_type": "survey-text", "responses": "{\"Q0\":\"2:00 am\",\"Q1\":\"10:00 am\",\"Q2\":\"4\"}", "internal_node_id": "0.0-5.0", "time_elapsed": 84196, "type": "SLEEP_SURVEY", "trial_index": 5}, "uniqueid": "MTK3257:39N5ACM9HFUP0FD9QFXN47M6LZ49PQ", "dateTime": 1520280028268}, {"current_trial": 6, "trialdata": {"rt": 31180, "trial_type": "text", "internal_node_id": "0.0-6.0", "time_elapsed": 116378, "key_press": 32, "type": "INSTRUCTIONS", "trial_index": 6}, "uniqueid": "MTK3257:39N5ACM9HFUP0FD9QFXN47M6LZ49PQ", "dateTime": 1520280060450}, {"current_trial": 7, "trialdata": {"rt": 13909, "trial_type": "text", "internal_node_id": "0.0-7.0", "time_elapsed": 130789, "key_press": 32, "type": "INSTRUCTIONS", "trial_index": 7}, "uniqueid": "MTK3257:39N5ACM9HFUP0FD9QFXN47M6LZ49PQ", "dateTime": 1520280074861}, {"current_trial": 8, "trialdata": {"rt": 5737, "trial_type": "text", "internal_node_id": "0.0-8.0", "time_elapsed": 137027, "key_press": 32, "type": "INSTRUCTIONS", "trial_index": 8}, "uniqueid": "MTK3257:39N5ACM9HFUP0FD9QFXN47M6LZ49PQ", "dateTime": 1520280081099}, {"current_trial": 9, "trialdata": {"rt": [3562, 5539, 7200, 8821, 10260, 13572, 15867, 17699], "trial_type": "math-distractor", "key_times": [2941, 3004, 3562, 5224, 5304, 5539, 6947, 7099, 7200, 8448, 8581, 8821, 10046, 10260, 13230, 13417, 13572, 15002, 15135, 15867, 17345, 17495, 17699], "responses": ["15", "12", "11", "13", "4", "17", "18", "14"], "num2": [9, 1, 3, 3, 1, 6, 7, 2, 1], "num3": [5, 6, 4, 8, 1, 8, 8, 4, 7], "conditions": [18, 1200, "v", 18000], "internal_node_id": "0.0-9.0", "key_presses": [49, 53, 13, 49, 50, 13, 49, 49, 13, 49, 51, 13, 52, 13, 49, 55, 13, 49, 56, 13, 49, 52, 13], "trial": 0, "time_elapsed": 156032, "type": "DISTRACTOR", "trial_index": 9, "num1": [1, 5, 4, 2, 4, 3, 3, 8, 5]}, "uniqueid": "MTK3257:39N5ACM9HFUP0FD9QFXN47M6LZ49PQ", "dateTime": 1520280100104}, {"current_trial": 10, "trialdata": {"rt": -1, "trial_type": "single-stim", "stimulus": "<p id=\"stim\">10</p>", "internal_node_id": "0.0-10.0-0.0", "time_elapsed": 159035, "key_press": -1, "trial_index": 10}, "uniqueid": "MTK3257:39N5ACM9HFUP0FD9QFXN47M6LZ49PQ", "dateTime": 1520280103107}, {"current_trial": 11, "trialdata": {"rt": -1, "trial_type": "single-stim", "stimulus": "<p id=\"stim\">9</p>", "internal_node_id": "0.0-10.0-1.0", "time_elapsed": 160037, "key_press": -1, "trial_index": 11}, "uniqueid": "MTK3257:39N5ACM9HFUP0FD9QFXN47M6LZ49PQ", "dateTime": 1520280104109}, {"current_trial": 12, "trialdata": {"rt": -1, "trial_type": "single-stim", "stimulus": "<p id=\"stim\">8</p>", "internal_node_id": "0.0-10.0-2.0", "time_elapsed": 161039, "key_press": -1, "trial_index": 12}, "uniqueid": "MTK3257:39N5ACM9HFUP0FD9QFXN47M6LZ49PQ", "dateTime": 1520280105111}, {"current_trial": 13, "trialdata": {"rt": -1, "trial_type": "single-stim", "stimulus": "<p id=\"stim\">7</p>", "internal_node_id": "0.0-10.0-3.0", "time_elapsed": 162039, "key_press": -1, "trial_index": 13}, "uniqueid": "MTK3257:39N5ACM9HFUP0FD9QFXN47M6LZ49PQ", "dateTime": 1520280106111}, {"current_trial": 14, "trialdata": {"rt": -1, "trial_type": "single-stim", "stimulus": "<p id=\"stim\">6</p>", "internal_node_id": "0.0-10.0-4.0", "time_elapsed": 163041, "key_press": -1, "trial_index": 14}, "uniqueid": "MTK3257:39N5ACM9HFUP0FD9QFXN47M6LZ49PQ", "dateTime": 1520280107113}, {"current_trial": 15, "trialdata": {"rt": -1, "trial_type": "single-stim", "stimulus": "<p id=\"stim\">5</p>", "internal_node_id": "0.0-10.0-5.0", "time_elapsed": 164043, "key_press": -1, "trial_index": 15}, "uniqueid": "MTK3257:39N5ACM9HFUP0FD9QFXN47M6LZ49PQ", "dateTime": 1520280108115}, {"current_trial": 16, "trialdata": {"rt": -1, "trial_type": "single-stim", "stimulus": "<p id=\"stim\">4</p>", "internal_node_id": "0.0-10.0-6.0", "time_elapsed": 165044, "key_press": -1, "trial_index": 16}, "uniqueid": "MTK3257:39N5ACM9HFUP0FD9QFXN47M6LZ49PQ", "dateTime": 1520280109116}, {"current_trial": 17, "trialdata": {"rt": -1, "trial_type": "single-stim", "stimulus": "<p id=\"stim\">3</p>", "internal_node_id": "0.0-10.0-7.0", "time_elapsed": 166046, "key_press": -1, "trial_index": 17}, "uniqueid": "MTK3257:39N5ACM9HFUP0FD9QFXN47M6LZ49PQ", "dateTime": 1520280110118}, {"current_trial": 18, "trialdata": {"rt": -1, "trial_type": "single-stim", "stimulus": "<p id=\"stim\">2</p>", "internal_node_id": "0.0-10.0-8.0", "time_elapsed": 167048, "key_press": -1, "trial_index": 18}, "uniqueid": "MTK3257:39N5ACM9HFUP0FD9QFXN47M6LZ49PQ", "dateTime": 1520280111120}, {"current_trial": 19, "trialdata": {"rt": -1, "trial_type": "single-stim", "stimulus": "<p id=\"stim\">1</p>", "internal_node_id": "0.0-10.0-9.0", "time_elapsed": 168049, "key_press": -1, "trial_index": 19}, "uniqueid": "MTK3257:39N5ACM9HFUP0FD9QFXN47M6LZ49PQ", "dateTime": 1520280112121}, {"current_trial": 20, "trialdata": {"rt": -1, "trial_type": "single-stim", "stimulus": "<p id=\"stim\">+</p>", "internal_node_id": "0.0-11.0-0.0", "time_elapsed": 169552, "key_press": -1, "type": "FIXATION", "trial_index": 20}, "uniqueid": "MTK3257:39N5ACM9HFUP0FD9QFXN47M6LZ49PQ", "dateTime": 1520280113624}, {"current_trial": 21, "trialdata": {"rt": -1, "trial_type": "single-stim", "word": "stone", "stimulus": "<p id=\"stim\">STONE</p>", "conditions": [18, 1200, "v", 18000], "internal_node_id": "0.0-12.0", "trial": 0, "time_elapsed": 170754, "serialpos": 0, "key_press": -1, "wordID": 1384, "type": "PRES_VIS", "trial_index": 21}, "uniqueid": "MTK3257:39N5ACM9HFUP0FD9QFXN47M6LZ49PQ", "dateTime": 1520280114826}, {"current_trial": 22, "trialdata": {"rt": -1, "trial_type": "single-stim", "word": "wife", "stimulus": "<p id=\"stim\">WIFE</p>", "conditions": [18, 1200, "v", 18000], "internal_node_id": "0.0-13.0", "trial": 0, "time_elapsed": 173107, "serialpos": 1, "key_press": -1, "wordID": 1608, "type": "PRES_VIS", "trial_index": 22}, "uniqueid": "MTK3257:39N5ACM9HFUP0FD9QFXN47M6LZ49PQ", "dateTime": 1520280117179}, {"current_trial": 23, "trialdata": {"rt": -1, "trial_type": "single-stim", "word": "mustard", "stimulus": "<p id=\"stim\">MUSTARD</p>", "conditions": [18, 1200, "v", 18000], "internal_node_id": "0.0-14.0", "trial": 0, "time_elapsed": 175281, "serialpos": 2, "key_press": -1, "wordID": 934, "type": "PRES_VIS", "trial_index": 23}, "uniqueid": "MTK3257:39N5ACM9HFUP0FD9QFXN47M6LZ49PQ", "dateTime": 1520280119353}, {"current_trial": 24, "trialdata": {"rt": -1, "trial_type": "single-stim", "word": "leader", "stimulus": "<p id=\"stim\">LEADER</p>", "conditions": [18, 1200, "v", 18000], "internal_node_id": "0.0-15.0", "trial": 0, "time_elapsed": 177621, "serialpos": 3, "key_press": -1, "wordID": 806, "type": "PRES_VIS", "trial_index": 24}, "uniqueid": "MTK3257:39N5ACM9HFUP0FD9QFXN47M6LZ49PQ", "dateTime": 1520280121693}, {"current_trial": 25, "trialdata": {"rt": -1, "trial_type": "single-stim", "word": "jello", "stimulus": "<p id=\"stim\">JELLO</p>", "conditions": [18, 1200, "v", 18000], "internal_node_id": "0.0-16.0", "trial": 0, "time_elapsed": 179863, "serialpos": 4, "key_press": -1, "wordID": 753, "type": "PRES_VIS", "trial_index": 25}, "uniqueid": "MTK3257:39N5ACM9HFUP0FD9QFXN47M6LZ49PQ", "dateTime": 1520280123935}, {"current_trial": 26, "trialdata": {"rt": -1, "trial_type": "single-stim", "word": "flower", "stimulus": "<p id=\"stim\">FLOWER</p>", "conditions": [18, 1200, "v", 18000], "internal_node_id": "0.0-17.0", "trial": 0, "time_elapsed": 181926, "serialpos": 5, "key_press": -1, "wordID": 583, "type": "PRES_VIS", "trial_index": 26}, "uniqueid": "MTK3257:39N5ACM9HFUP0FD9QFXN47M6LZ49PQ", "dateTime": 1520280125999}, {"current_trial": 27, "trialdata": {"rt": -1, "trial_type": "single-stim", "word": "thief", "stimulus": "<p id=\"stim\">THIEF</p>", "conditions": [18, 1200, "v", 18000], "internal_node_id": "0.0-18.0", "trial": 0, "time_elapsed": 184230, "serialpos": 6, "key_press": -1, "wordID": 1455, "type": "PRES_VIS", "trial_index": 27}, "uniqueid": "MTK3257:39N5ACM9HFUP0FD9QFXN47M6LZ49PQ", "dateTime": 1520280128302}, {"current_trial": 28, "trialdata": {"rt": -1, "trial_type": "single-stim", "word": "mars", "stimulus": "<p id=\"stim\">MARS</p>", "conditions": [18, 1200, "v", 18000], "internal_node_id": "0.0-19.0", "trial": 0, "time_elapsed": 186462, "serialpos": 7, "key_press": -1, "wordID": 872, "type": "PRES_VIS", "trial_index": 28}, "uniqueid": "MTK3257:39N5ACM9HFUP0FD9QFXN47M6LZ49PQ", "dateTime": 1520280130534}, {"current_trial": 29, "trialdata": {"rt": -1, "trial_type": "single-stim", "word": "supper", "stimulus": "<p id=\"stim\">SUPPER</p>", "conditions": [18, 1200, "v", 18000], "internal_node_id": "0.0-20.0", "trial": 0, "time_elapsed": 188509, "serialpos": 8, "key_press": -1, "wordID": 1410, "type": "PRES_VIS", "trial_index": 29}, "uniqueid": "MTK3257:39N5ACM9HFUP0FD9QFXN47M6LZ49PQ", "dateTime": 1520280132581}, {"current_trial": 30, "trialdata": {"rt": -1, "trial_type": "single-stim", "word": "film", "stimulus": "<p id=\"stim\">FILM</p>", "conditions": [18, 1200, "v", 18000], "internal_node_id": "0.0-21.0", "trial": 0, "time_elapsed": 190726, "serialpos": 9, "key_press": -1, "wordID": 564, "type": "PRES_VIS", "trial_index": 30}, "uniqueid": "MTK3257:39N5ACM9HFUP0FD9QFXN47M6LZ49PQ", "dateTime": 1520280134798}, {"current_trial": 31, "trialdata": {"rt": -1, "trial_type": "single-stim", "word": "sculpture", "stimulus": "<p id=\"stim\">SCULPTURE</p>", "conditions": [18, 1200, "v", 18000], "internal_node_id": "0.0-22.0", "trial": 0, "time_elapsed": 192928, "serialpos": 10, "key_press": -1, "wordID": 1257, "type": "PRES_VIS", "trial_index": 31}, "uniqueid": "MTK3257:39N5ACM9HFUP0FD9QFXN47M6LZ49PQ", "dateTime": 1520280137000}, {"current_trial": 32, "trialdata": {"rt": -1, "trial_type": "single-stim", "word": "chapel", "stimulus": "<p id=\"stim\">CHAPEL</p>", "conditions": [18, 1200, "v", 18000], "internal_node_id": "0.0-23.0", "trial": 0, "time_elapsed": 195118, "serialpos": 11, "key_press": -1, "wordID": 279, "type": "PRES_VIS", "trial_index": 32}, "uniqueid": "MTK3257:39N5ACM9HFUP0FD9QFXN47M6LZ49PQ", "dateTime": 1520280139191}, {"current_trial": 33, "trialdata": {"rt": -1, "trial_type": "single-stim", "word": "stove", "stimulus": "<p id=\"stim\">STOVE</p>", "conditions": [18, 1200, "v", 18000], "internal_node_id": "0.0-24.0", "trial": 0, "time_elapsed": 197129, "serialpos": 12, "key_press": -1, "wordID": 1387, "type": "PRES_VIS", "trial_index": 33}, "uniqueid": "MTK3257:39N5ACM9HFUP0FD9QFXN47M6LZ49PQ", "dateTime": 1520280141201}, {"current_trial": 34, "trialdata": {"rt": -1, "trial_type": "single-stim", "word": "pilot", "stimulus": "<p id=\"stim\">PILOT</p>", "conditions": [18, 1200, "v", 18000], "internal_node_id": "0.0-25.0", "trial": 0, "time_elapsed": 199446, "serialpos": 13, "key_press": -1, "wordID": 1069, "type": "PRES_VIS", "trial_index": 34}, "uniqueid": "MTK3257:39N5ACM9HFUP0FD9QFXN47M6LZ49PQ", "dateTime": 1520280143518}, {"current_trial": 35, "trialdata": {"rt": -1, "trial_type": "single-stim", "word": "icing", "stimulus": "<p id=\"stim\">ICING</p>", "conditions": [18, 1200, "v", 18000], "internal_node_id": "0.0-26.0", "trial": 0, "time_elapsed": 201676, "serialpos": 14, "key_press": -1, "wordID": 731, "type": "PRES_VIS", "trial_index": 35}, "uniqueid": "MTK3257:39N5ACM9HFUP0FD9QFXN47M6LZ49PQ", "dateTime": 1520280145748}, {"current_trial": 36, "trialdata": {"rt": -1, "trial_type": "single-stim", "word": "poet", "stimulus": "<p id=\"stim\">POET</p>", "conditions": [18, 1200, "v", 18000], "internal_node_id": "0.0-27.0", "trial": 0, "time_elapsed": 203685, "serialpos": 15, "key_press": -1, "wordID": 1094, "type": "PRES_VIS", "trial_index": 36}, "uniqueid": "MTK3257:39N5ACM9HFUP0FD9QFXN47M6LZ49PQ", "dateTime": 1520280147757}, {"current_trial": 37, "trialdata": {"rt": -1, "trial_type": "single-stim", "word": "onion", "stimulus": "<p id=\"stim\">ONION</p>", "conditions": [18, 1200, "v", 18000], "internal_node_id": "0.0-28.0", "trial": 0, "time_elapsed": 205845, "serialpos": 16, "key_press": -1, "wordID": 976, "type": "PRES_VIS", "trial_index": 37}, "uniqueid": "MTK3257:39N5ACM9HFUP0FD9QFXN47M6LZ49PQ", "dateTime": 1520280149917}, {"current_trial": 38, "trialdata": {"rt": -1, "trial_type": "single-stim", "word": "omelet", "stimulus": "<p id=\"stim\">OMELET</p>", "conditions": [18, 1200, "v", 18000], "internal_node_id": "0.0-29.0", "trial": 0, "time_elapsed": 207854, "serialpos": 17, "key_press": -1, "wordID": 975, "type": "PRES_VIS", "trial_index": 38}, "uniqueid": "MTK3257:39N5ACM9HFUP0FD9QFXN47M6LZ49PQ", "dateTime": 1520280151927}, {"current_trial": 39, "trialdata": {"rt": -1, "trial_type": "single-stim", "stimulus": "", "internal_node_id": "0.0-30.0-0.0", "time_elapsed": 210074, "key_press": -1, "type": "PRE_RECALL_DELAY", "trial_index": 39}, "uniqueid": "MTK3257:39N5ACM9HFUP0FD9QFXN47M6LZ49PQ", "dateTime": 1520280154147}, {"current_trial": 40, "trialdata": {"rt": -1000, "trial_type": "single-audio", "stimulus": "/static/audio/400Hz.wav", "internal_node_id": "0.0-31.0", "time_elapsed": 210577, "key_press": -1, "type": "PRE_RECALL_ALERT", "trial_index": 40}, "uniqueid": "MTK3257:39N5ACM9HFUP0FD9QFXN47M6LZ49PQ", "dateTime": 1520280154649}, {"current_trial": 41, "trialdata": {"rt": [1459, 2401, 4552, 5773, 7200, 11546, 12948, 15129, 40335, 45649], "recwords": ["stone", "wife", "mustard", "leader", "jello", "onion", "omelet", "sculpture", "thief", "poem"], "key_times": [922, 1055, 1130, 1236, 1375, 1459, 1931, 2082, 2172, 2257, 2401, 3704, 3972, 4047, 4164, 4271, 4366, 4452, 4552, 4855, 4956, 5025, 5153, 5362, 5448, 5773, 6501, 6549, 6683, 6796, 6963, 7200, 8836, 8906, 9011, 9097, 10069, 10225, 10345, 10450, 10563, 10805, 10988, 11121, 11211, 11344, 11546, 11957, 12149, 12259, 12356, 12436, 12612, 12948, 13934, 14089, 14147, 14248, 14470, 14779, 14901, 14991, 15055, 15129, 36145, 37274, 37754, 37894, 38074, 38175, 38779, 38896, 39378, 39478, 39678, 39758, 39822, 40335, 45004, 45189, 45350, 45468, 45649], "trial_type": "free-recall", "conditions": [18, 1200, "v", 18000], "internal_node_id": "0.0-32.0-0.0", "key_presses": [83, 84, 79, 78, 69, 13, 87, 73, 70, 69, 13, 77, 85, 83, 84, 65, 82, 68, 13, 76, 69, 65, 68, 69, 82, 13, 74, 69, 76, 76, 79, 13, 87, 73, 70, 69, 8, 8, 8, 8, 8, 79, 78, 73, 79, 78, 13, 79, 77, 69, 76, 69, 84, 13, 83, 67, 85, 76, 80, 84, 85, 82, 69, 13, 80, 79, 8, 8, 84, 72, 69, 73, 8, 8, 73, 69, 70, 13, 80, 79, 69, 77, 13], "trial": 0, "time_elapsed": 270580, "type": "FREE_RECALL", "trial_index": 41}, "uniqueid": "MTK3257:39N5ACM9HFUP0FD9QFXN47M6LZ49PQ", "dateTime": 1520280214653}, {"current_trial": 42, "trialdata": {"rt": 1613, "trial_type": "text", "internal_node_id": "0.0-33.0", "time_elapsed": 274195, "key_press": 32, "type": "INSTRUCTIONS", "trial_index": 42}, "uniqueid": "MTK3257:39N5ACM9HFUP0FD9QFXN47M6LZ49PQ", "dateTime": 1520280218267}, {"current_trial": 43, "trialdata": {"rt": [2281, 6776, 8799, 10113, 11777, 13804, 16050], "trial_type": "math-distractor", "key_times": [1854, 2023, 2281, 6281, 6350, 6776, 8380, 8612, 8799, 9720, 9779, 10113, 11244, 11529, 11777, 13420, 13804, 15520, 15804, 16050, 17591], "responses": ["11", "21", "14", "12", "10", "7", "20"], "num2": [2, 6, 5, 5, 3, 4, 9, 3], "num3": [7, 6, 1, 2, 3, 1, 4, 4], "conditions": [18, 1200, "v", 18000], "internal_node_id": "0.0-34.0", "key_presses": [97, 97, 13, 98, 97, 13, 97, 100, 13, 97, 98, 13, 97, 96, 13, 103, 13, 98, 96, 13, 103], "trial": 1, "time_elapsed": 294199, "type": "DISTRACTOR", "trial_index": 43, "num1": [2, 9, 8, 5, 4, 2, 7, 1]}, "uniqueid": "MTK3257:39N5ACM9HFUP0FD9QFXN47M6LZ49PQ", "dateTime": 1520280238271}, {"current_trial": 44, "trialdata": {"rt": -1, "trial_type": "single-stim", "stimulus": "<p id=\"stim\">10</p>", "internal_node_id": "0.0-35.0-0.0", "time_elapsed": 297201, "key_press": -1, "trial_index": 44}, "uniqueid": "MTK3257:39N5ACM9HFUP0FD9QFXN47M6LZ49PQ", "dateTime": 1520280241273}, {"current_trial": 45, "trialdata": {"rt": -1, "trial_type": "single-stim", "stimulus": "<p id=\"stim\">9</p>", "internal_node_id": "0.0-35.0-1.0", "time_elapsed": 298203, "key_press": -1, "trial_index": 45}, "uniqueid": "MTK3257:39N5ACM9HFUP0FD9QFXN47M6LZ49PQ", "dateTime": 1520280242275}, {"current_trial": 46, "trialdata": {"rt": -1, "trial_type": "single-stim", "stimulus": "<p id=\"stim\">8</p>", "internal_node_id": "0.0-35.0-2.0", "time_elapsed": 299205, "key_press": -1, "trial_index": 46}, "uniqueid": "MTK3257:39N5ACM9HFUP0FD9QFXN47M6LZ49PQ", "dateTime": 1520280243277}, {"current_trial": 47, "trialdata": {"rt": -1, "trial_type": "single-stim", "stimulus": "<p id=\"stim\">7</p>", "internal_node_id": "0.0-35.0-3.0", "time_elapsed": 300207, "key_press": -1, "trial_index": 47}, "uniqueid": "MTK3257:39N5ACM9HFUP0FD9QFXN47M6LZ49PQ", "dateTime": 1520280244279}, {"current_trial": 48, "trialdata": {"rt": -1, "trial_type": "single-stim", "stimulus": "<p id=\"stim\">6</p>", "internal_node_id": "0.0-35.0-4.0", "time_elapsed": 301208, "key_press": -1, "trial_index": 48}, "uniqueid": "MTK3257:39N5ACM9HFUP0FD9QFXN47M6LZ49PQ", "dateTime": 1520280245280}, {"current_trial": 49, "trialdata": {"rt": -1, "trial_type": "single-stim", "stimulus": "<p id=\"stim\">5</p>", "internal_node_id": "0.0-35.0-5.0", "time_elapsed": 302209, "key_press": -1, "trial_index": 49}, "uniqueid": "MTK3257:39N5ACM9HFUP0FD9QFXN47M6LZ49PQ", "dateTime": 1520280246282}, {"current_trial": 50, "trialdata": {"rt": -1, "trial_type": "single-stim", "stimulus": "<p id=\"stim\">4</p>", "internal_node_id": "0.0-35.0-6.0", "time_elapsed": 303210, "key_press": -1, "trial_index": 50}, "uniqueid": "MTK3257:39N5ACM9HFUP0FD9QFXN47M6LZ49PQ", "dateTime": 1520280247282}, {"current_trial": 51, "trialdata": {"rt": -1, "trial_type": "single-stim", "stimulus": "<p id=\"stim\">3</p>", "internal_node_id": "0.0-35.0-7.0", "time_elapsed": 304211, "key_press": -1, "trial_index": 51}, "uniqueid": "MTK3257:39N5ACM9HFUP0FD9QFXN47M6LZ49PQ", "dateTime": 1520280248283}, {"current_trial": 52, "trialdata": {"rt": -1, "trial_type": "single-stim", "stimulus": "<p id=\"stim\">2</p>", "internal_node_id": "0.0-35.0-8.0", "time_elapsed": 305213, "key_press": -1, "trial_index": 52}, "uniqueid": "MTK3257:39N5ACM9HFUP0FD9QFXN47M6LZ49PQ", "dateTime": 1520280249285}, {"current_trial": 53, "trialdata": {"rt": -1, "trial_type": "single-stim", "stimulus": "<p id=\"stim\">1</p>", "internal_node_id": "0.0-35.0-9.0", "time_elapsed": 306214, "key_press": -1, "trial_index": 53}, "uniqueid": "MTK3257:39N5ACM9HFUP0FD9QFXN47M6LZ49PQ", "dateTime": 1520280250286}, {"current_trial": 54, "trialdata": {"rt": -1, "trial_type": "single-stim", "stimulus": "<p id=\"stim\">+</p>", "internal_node_id": "0.0-36.0-0.0", "time_elapsed": 307717, "key_press": -1, "type": "FIXATION", "trial_index": 54}, "uniqueid": "MTK3257:39N5ACM9HFUP0FD9QFXN47M6LZ49PQ", "dateTime": 1520280251789}, {"current_trial": 55, "trialdata": {"rt": -1, "trial_type": "single-stim", "word": "sparrow", "stimulus": "<p id=\"stim\">SPARROW</p>", "conditions": [18, 1200, "v", 18000], "internal_node_id": "0.0-37.0", "trial": 1, "time_elapsed": 308918, "serialpos": 0, "key_press": -1, "wordID": 1346, "type": "PRES_VIS", "trial_index": 55}, "uniqueid": "MTK3257:39N5ACM9HFUP0FD9QFXN47M6LZ49PQ", "dateTime": 1520280252990}, {"current_trial": 56, "trialdata": {"rt": -1, "trial_type": "single-stim", "word": "vagrant", "stimulus": "<p id=\"stim\">VAGRANT</p>", "conditions": [18, 1200, "v", 18000], "internal_node_id": "0.0-38.0", "trial": 1, "time_elapsed": 311308, "serialpos": 1, "key_press": -1, "wordID": 1543, "type": "PRES_VIS", "trial_index": 56}, "uniqueid": "MTK3257:39N5ACM9HFUP0FD9QFXN47M6LZ49PQ", "dateTime": 1520280255381}, {"current_trial": 57, "trialdata": {"rt": -1, "trial_type": "single-stim", "word": "pistol", "stimulus": "<p id=\"stim\">PISTOL</p>", "conditions": [18, 1200, "v", 18000], "internal_node_id": "0.0-39.0", "trial": 1, "time_elapsed": 313544, "serialpos": 2, "key_press": -1, "wordID": 1074, "type": "PRES_VIS", "trial_index": 57}, "uniqueid": "MTK3257:39N5ACM9HFUP0FD9QFXN47M6LZ49PQ", "dateTime": 1520280257616}, {"current_trial": 58, "trialdata": {"rt": -1, "trial_type": "single-stim", "word": "football", "stimulus": "<p id=\"stim\">FOOTBALL</p>", "conditions": [18, 1200, "v", 18000], "internal_node_id": "0.0-40.0", "trial": 1, "time_elapsed": 315712, "serialpos": 3, "key_press": -1, "wordID": 590, "type": "PRES_VIS", "trial_index": 58}, "uniqueid": "MTK3257:39N5ACM9HFUP0FD9QFXN47M6LZ49PQ", "dateTime": 1520280259784}, {"current_trial": 59, "trialdata": {"rt": -1, "trial_type": "single-stim", "word": "lipstick", "stimulus": "<p id=\"stim\">LIPSTICK</p>", "conditions": [18, 1200, "v", 18000], "internal_node_id": "0.0-41.0", "trial": 1, "time_elapsed": 318113, "serialpos": 4, "key_press": -1, "wordID": 828, "type": "PRES_VIS", "trial_index": 59}, "uniqueid": "MTK3257:39N5ACM9HFUP0FD9QFXN47M6LZ49PQ", "dateTime": 1520280262185}, {"current_trial": 60, "trialdata": {"rt": -1, "trial_type": "single-stim", "word": "marsh", "stimulus": "<p id=\"stim\">MARSH</p>", "conditions": [18, 1200, "v", 18000], "internal_node_id": "0.0-42.0", "trial": 1, "time_elapsed": 320357, "serialpos": 5, "key_press": -1, "wordID": 873, "type": "PRES_VIS", "trial_index": 60}, "uniqueid": "MTK3257:39N5ACM9HFUP0FD9QFXN47M6LZ49PQ", "dateTime": 1520280264429}, {"current_trial": 61, "trialdata": {"rt": -1, "trial_type": "single-stim", "word": "princess", "stimulus": "<p id=\"stim\">PRINCESS</p>", "conditions": [18, 1200, "v", 18000], "internal_node_id": "0.0-43.0", "trial": 1, "time_elapsed": 322412, "serialpos": 6, "key_press": -1, "wordID": 1124, "type": "PRES_VIS", "trial_index": 61}, "uniqueid": "MTK3257:39N5ACM9HFUP0FD9QFXN47M6LZ49PQ", "dateTime": 1520280266484}, {"current_trial": 62, "trialdata": {"rt": -1, "trial_type": "single-stim", "word": "cafe", "stimulus": "<p id=\"stim\">CAFE</p>", "conditions": [18, 1200, "v", 18000], "internal_node_id": "0.0-44.0", "trial": 1, "time_elapsed": 324609, "serialpos": 7, "key_press": -1, "wordID": 215, "type": "PRES_VIS", "trial_index": 62}, "uniqueid": "MTK3257:39N5ACM9HFUP0FD9QFXN47M6LZ49PQ", "dateTime": 1520280268681}, {"current_trial": 63, "trialdata": {"rt": -1, "trial_type": "single-stim", "word": "label", "stimulus": "<p id=\"stim\">LABEL</p>", "conditions": [18, 1200, "v", 18000], "internal_node_id": "0.0-45.0", "trial": 1, "time_elapsed": 326684, "serialpos": 8, "key_press": -1, "wordID": 789, "type": "PRES_VIS", "trial_index": 63}, "uniqueid": "MTK3257:39N5ACM9HFUP0FD9QFXN47M6LZ49PQ", "dateTime": 1520280270756}, {"current_trial": 64, "trialdata": {"rt": -1, "trial_type": "single-stim", "word": "grill", "stimulus": "<p id=\"stim\">GRILL</p>", "conditions": [18, 1200, "v", 18000], "internal_node_id": "0.0-46.0", "trial": 1, "time_elapsed": 328980, "serialpos": 9, "key_press": -1, "wordID": 660, "type": "PRES_VIS", "trial_index": 64}, "uniqueid": "MTK3257:39N5ACM9HFUP0FD9QFXN47M6LZ49PQ", "dateTime": 1520280273052}, {"current_trial": 65, "trialdata": {"rt": -1, "trial_type": "single-stim", "word": "quarter", "stimulus": "<p id=\"stim\">QUARTER</p>", "conditions": [18, 1200, "v", 18000], "internal_node_id": "0.0-47.0", "trial": 1, "time_elapsed": 331260, "serialpos": 10, "key_press": -1, "wordID": 1147, "type": "PRES_VIS", "trial_index": 65}, "uniqueid": "MTK3257:39N5ACM9HFUP0FD9QFXN47M6LZ49PQ", "dateTime": 1520280275332}, {"current_trial": 66, "trialdata": {"rt": -1, "trial_type": "single-stim", "word": "jungle", "stimulus": "<p id=\"stim\">JUNGLE</p>", "conditions": [18, 1200, "v", 18000], "internal_node_id": "0.0-48.0", "trial": 1, "time_elapsed": 333295, "serialpos": 11, "key_press": -1, "wordID": 763, "type": "PRES_VIS", "trial_index": 66}, "uniqueid": "MTK3257:39N5ACM9HFUP0FD9QFXN47M6LZ49PQ", "dateTime": 1520280277368}, {"current_trial": 67, "trialdata": {"rt": -1, "trial_type": "single-stim", "word": "pecan", "stimulus": "<p id=\"stim\">PECAN</p>", "conditions": [18, 1200, "v", 18000], "internal_node_id": "0.0-49.0", "trial": 1, "time_elapsed": 335379, "serialpos": 12, "key_press": -1, "wordID": 1035, "type": "PRES_VIS", "trial_index": 67}, "uniqueid": "MTK3257:39N5ACM9HFUP0FD9QFXN47M6LZ49PQ", "dateTime": 1520280279451}, {"current_trial": 68, "trialdata": {"rt": -1, "trial_type": "single-stim", "word": "scarf", "stimulus": "<p id=\"stim\">SCARF</p>", "conditions": [18, 1200, "v", 18000], "internal_node_id": "0.0-50.0", "trial": 1, "time_elapsed": 337603, "serialpos": 13, "key_press": -1, "wordID": 1245, "type": "PRES_VIS", "trial_index": 68}, "uniqueid": "MTK3257:39N5ACM9HFUP0FD9QFXN47M6LZ49PQ", "dateTime": 1520280281677}, {"current_trial": 69, "trialdata": {"rt": -1, "trial_type": "single-stim", "word": "jury", "stimulus": "<p id=\"stim\">JURY</p>", "conditions": [18, 1200, "v", 18000], "internal_node_id": "0.0-51.0", "trial": 1, "time_elapsed": 339687, "serialpos": 14, "key_press": -1, "wordID": 765, "type": "PRES_VIS", "trial_index": 69}, "uniqueid": "MTK3257:39N5ACM9HFUP0FD9QFXN47M6LZ49PQ", "dateTime": 1520280283759}, {"current_trial": 70, "trialdata": {"rt": -1, "trial_type": "single-stim", "word": "rooster", "stimulus": "<p id=\"stim\">ROOSTER</p>", "conditions": [18, 1200, "v", 18000], "internal_node_id": "0.0-52.0", "trial": 1, "time_elapsed": 341829, "serialpos": 15, "key_press": -1, "wordID": 1208, "type": "PRES_VIS", "trial_index": 70}, "uniqueid": "MTK3257:39N5ACM9HFUP0FD9QFXN47M6LZ49PQ", "dateTime": 1520280285901}, {"current_trial": 71, "trialdata": {"rt": -1, "trial_type": "single-stim", "word": "cocoon", "stimulus": "<p id=\"stim\">COCOON</p>", "conditions": [18, 1200, "v", 18000], "internal_node_id": "0.0-53.0", "trial": 1, "time_elapsed": 343890, "serialpos": 16, "key_press": -1, "wordID": 338, "type": "PRES_VIS", "trial_index": 71}, "uniqueid": "MTK3257:39N5ACM9HFUP0FD9QFXN47M6LZ49PQ", "dateTime": 1520280287962}, {"current_trial": 72, "trialdata": {"rt": -1, "trial_type": "single-stim", "word": "proton", "stimulus": "<p id=\"stim\">PROTON</p>", "conditions": [18, 1200, "v", 18000], "internal_node_id": "0.0-54.0", "trial": 1, "time_elapsed": 346177, "serialpos": 17, "key_press": -1, "wordID": 1131, "type": "PRES_VIS", "trial_index": 72}, "uniqueid": "MTK3257:39N5ACM9HFUP0FD9QFXN47M6LZ49PQ", "dateTime": 1520280290249}, {"current_trial": 73, "trialdata": {"rt": -1, "trial_type": "single-stim", "stimulus": "", "internal_node_id": "0.0-55.0-0.0", "time_elapsed": 348381, "key_press": -1, "type": "PRE_RECALL_DELAY", "trial_index": 73}, "uniqueid": "MTK3257:39N5ACM9HFUP0FD9QFXN47M6LZ49PQ", "dateTime": 1520280292453}, {"current_trial": 74, "trialdata": {"rt": -1000, "trial_type": "single-audio", "stimulus": "/static/audio/400Hz.wav", "internal_node_id": "0.0-56.0", "time_elapsed": 348884, "key_press": -1, "type": "PRE_RECALL_ALERT", "trial_index": 74}, "uniqueid": "MTK3257:39N5ACM9HFUP0FD9QFXN47M6LZ49PQ", "dateTime": 1520280292956}, {"current_trial": 75, "trialdata": {"rt": [1660, 3387, 4399, 5436, 8219, 18150, 24196, 31577, 37945], "recwords": ["proton", "sparrow", "rooster", "pecan", "grill", "proton", "rooster", "jury", "marsh"], "key_times": [795, 992, 1123, 1219, 1315, 1438, 1660, 2185, 2281, 2388, 2494, 2673, 3079, 3233, 3387, 3674, 3753, 3897, 3949, 4066, 4156, 4220, 4399, 4727, 4780, 5017, 5123, 5171, 5436, 7129, 7296, 7370, 7455, 7860, 8219, 17119, 17279, 17407, 17592, 17823, 17967, 18150, 23353, 23542, 23676, 23760, 23928, 24062, 24132, 24196, 29758, 29939, 29966, 30536, 30647, 31177, 31284, 31353, 31577, 37303, 37373, 37452, 37570, 37702, 37945], "trial_type": "free-recall", "conditions": [18, 1200, "v", 18000], "internal_node_id": "0.0-57.0-0.0", "key_presses": [80, 82, 79, 84, 79, 78, 13, 83, 80, 65, 82, 82, 79, 87, 13, 82, 79, 79, 83, 84, 69, 82, 13, 80, 69, 67, 65, 78, 13, 71, 82, 73, 76, 76, 13, 80, 82, 79, 84, 79, 78, 13, 82, 79, 79, 83, 84, 69, 82, 13, 74, 82, 85, 8, 8, 85, 82, 89, 13, 77, 65, 82, 83, 72, 13], "trial": 1, "time_elapsed": 408887, "type": "FREE_RECALL", "trial_index": 75}, "uniqueid": "MTK3257:39N5ACM9HFUP0FD9QFXN47M6LZ49PQ", "dateTime": 1520280352960}, {"current_trial": 76, "trialdata": {"rt": 6375, "trial_type": "text", "internal_node_id": "0.0-58.0", "time_elapsed": 417265, "key_press": 32, "type": "INSTRUCTIONS", "trial_index": 76}, "uniqueid": "MTK3257:39N5ACM9HFUP0FD9QFXN47M6LZ49PQ", "dateTime": 1520280361337}, {"current_trial": 77, "trialdata": {"rt": [2140, 4372, 5658, 7864, 9329, 10996], "trial_type": "math-distractor", "key_times": [1403, 1740, 2140, 3911, 4023, 4372, 5327, 5449, 5658, 7688, 7746, 7864, 8929, 9167, 9329, 10852, 10996, 11898], "responses": ["17", "21", "12", "21", "18", "7"], "num2": [7, 7, 5, 8, 4, 2, 7], "num3": [5, 6, 1, 7, 8, 3, 1], "conditions": [24, 800, "v", 12000], "internal_node_id": "0.0-59.0", "key_presses": [97, 103, 13, 98, 97, 13, 97, 98, 13, 98, 97, 13, 97, 104, 13, 103, 13, 97], "trial": 2, "time_elapsed": 430268, "type": "DISTRACTOR", "trial_index": 77, "num1": [5, 8, 6, 6, 6, 2, 3]}, "uniqueid": "MTK3257:39N5ACM9HFUP0FD9QFXN47M6LZ49PQ", "dateTime": 1520280374340}, {"current_trial": 78, "trialdata": {"rt": -1, "trial_type": "single-stim", "stimulus": "<p id=\"stim\">10</p>", "internal_node_id": "0.0-60.0-0.0", "time_elapsed": 433270, "key_press": -1, "trial_index": 78}, "uniqueid": "MTK3257:39N5ACM9HFUP0FD9QFXN47M6LZ49PQ", "dateTime": 1520280377342}, {"current_trial": 79, "trialdata": {"rt": -1, "trial_type": "single-stim", "stimulus": "<p id=\"stim\">9</p>", "internal_node_id": "0.0-60.0-1.0", "time_elapsed": 434272, "key_press": -1, "trial_index": 79}, "uniqueid": "MTK3257:39N5ACM9HFUP0FD9QFXN47M6LZ49PQ", "dateTime": 1520280378344}, {"current_trial": 80, "trialdata": {"rt": -1, "trial_type": "single-stim", "stimulus": "<p id=\"stim\">8</p>", "internal_node_id": "0.0-60.0-2.0", "time_elapsed": 435274, "key_press": -1, "trial_index": 80}, "uniqueid": "MTK3257:39N5ACM9HFUP0FD9QFXN47M6LZ49PQ", "dateTime": 1520280379346}, {"current_trial": 81, "trialdata": {"rt": -1, "trial_type": "single-stim", "stimulus": "<p id=\"stim\">7</p>", "internal_node_id": "0.0-60.0-3.0", "time_elapsed": 436275, "key_press": -1, "trial_index": 81}, "uniqueid": "MTK3257:39N5ACM9HFUP0FD9QFXN47M6LZ49PQ", "dateTime": 1520280380348}, {"current_trial": 82, "trialdata": {"rt": -1, "trial_type": "single-stim", "stimulus": "<p id=\"stim\">6</p>", "internal_node_id": "0.0-60.0-4.0", "time_elapsed": 437278, "key_press": -1, "trial_index": 82}, "uniqueid": "MTK3257:39N5ACM9HFUP0FD9QFXN47M6LZ49PQ", "dateTime": 1520280381350}, {"current_trial": 83, "trialdata": {"rt": -1, "trial_type": "single-stim", "stimulus": "<p id=\"stim\">5</p>", "internal_node_id": "0.0-60.0-5.0", "time_elapsed": 438279, "key_press": -1, "trial_index": 83}, "uniqueid": "MTK3257:39N5ACM9HFUP0FD9QFXN47M6LZ49PQ", "dateTime": 1520280382352}, {"current_trial": 84, "trialdata": {"rt": -1, "trial_type": "single-stim", "stimulus": "<p id=\"stim\">4</p>", "internal_node_id": "0.0-60.0-6.0", "time_elapsed": 439280, "key_press": -1, "trial_index": 84}, "uniqueid": "MTK3257:39N5ACM9HFUP0FD9QFXN47M6LZ49PQ", "dateTime": 1520280383352}, {"current_trial": 85, "trialdata": {"rt": -1, "trial_type": "single-stim", "stimulus": "<p id=\"stim\">3</p>", "internal_node_id": "0.0-60.0-7.0", "time_elapsed": 440282, "key_press": -1, "trial_index": 85}, "uniqueid": "MTK3257:39N5ACM9HFUP0FD9QFXN47M6LZ49PQ", "dateTime": 1520280384355}, {"current_trial": 86, "trialdata": {"rt": -1, "trial_type": "single-stim", "stimulus": "<p id=\"stim\">2</p>", "internal_node_id": "0.0-60.0-8.0", "time_elapsed": 441284, "key_press": -1, "trial_index": 86}, "uniqueid": "MTK3257:39N5ACM9HFUP0FD9QFXN47M6LZ49PQ", "dateTime": 1520280385356}, {"current_trial": 87, "trialdata": {"rt": -1, "trial_type": "single-stim", "stimulus": "<p id=\"stim\">1</p>", "internal_node_id": "0.0-60.0-9.0", "time_elapsed": 442285, "key_press": -1, "trial_index": 87}, "uniqueid": "MTK3257:39N5ACM9HFUP0FD9QFXN47M6LZ49PQ", "dateTime": 1520280386357}, {"current_trial": 88, "trialdata": {"rt": -1, "trial_type": "single-stim", "stimulus": "<p id=\"stim\">+</p>", "internal_node_id": "0.0-61.0-0.0", "time_elapsed": 443787, "key_press": -1, "type": "FIXATION", "trial_index": 88}, "uniqueid": "MTK3257:39N5ACM9HFUP0FD9QFXN47M6LZ49PQ", "dateTime": 1520280387859}, {"current_trial": 89, "trialdata": {"rt": -1, "trial_type": "single-stim", "word": "leg", "stimulus": "<p id=\"stim\">LEG</p>", "conditions": [24, 800, "v", 12000], "internal_node_id": "0.0-62.0", "trial": 2, "time_elapsed": 444590, "serialpos": 0, "key_press": -1, "wordID": 808, "type": "PRES_VIS", "trial_index": 89}, "uniqueid": "MTK3257:39N5ACM9HFUP0FD9QFXN47M6LZ49PQ", "dateTime": 1520280388662}, {"current_trial": 90, "trialdata": {"rt": -1, "trial_type": "single-stim", "word": "butcher", "stimulus": "<p id=\"stim\">BUTCHER</p>", "conditions": [24, 800, "v", 12000], "internal_node_id": "0.0-63.0", "trial": 2, "time_elapsed": 446485, "serialpos": 1, "key_press": -1, "wordID": 202, "type": "PRES_VIS", "trial_index": 90}, "uniqueid": "MTK3257:39N5ACM9HFUP0FD9QFXN47M6LZ49PQ", "dateTime": 1520280390557}, {"current_trial": 91, "trialdata": {"rt": -1, "trial_type": "single-stim", "word": "crayon", "stimulus": "<p id=\"stim\">CRAYON</p>", "conditions": [24, 800, "v", 12000], "internal_node_id": "0.0-64.0", "trial": 2, "time_elapsed": 448224, "serialpos": 2, "key_press": -1, "wordID": 400, "type": "PRES_VIS", "trial_index": 91}, "uniqueid": "MTK3257:39N5ACM9HFUP0FD9QFXN47M6LZ49PQ", "dateTime": 1520280392296}, {"current_trial": 92, "trialdata": {"rt": -1, "trial_type": "single-stim", "word": "hedge", "stimulus": "<p id=\"stim\">HEDGE</p>", "conditions": [24, 800, "v", 12000], "internal_node_id": "0.0-65.0", "trial": 2, "time_elapsed": 450136, "serialpos": 3, "key_press": -1, "wordID": 698, "type": "PRES_VIS", "trial_index": 92}, "uniqueid": "MTK3257:39N5ACM9HFUP0FD9QFXN47M6LZ49PQ", "dateTime": 1520280394208}, {"current_trial": 93, "trialdata": {"rt": -1, "trial_type": "single-stim", "word": "panther", "stimulus": "<p id=\"stim\">PANTHER</p>", "conditions": [24, 800, "v", 12000], "internal_node_id": "0.0-66.0", "trial": 2, "time_elapsed": 451742, "serialpos": 4, "key_press": -1, "wordID": 1008, "type": "PRES_VIS", "trial_index": 93}, "uniqueid": "MTK3257:39N5ACM9HFUP0FD9QFXN47M6LZ49PQ", "dateTime": 1520280395814}, {"current_trial": 94, "trialdata": {"rt": -1, "trial_type": "single-stim", "word": "hood", "stimulus": "<p id=\"stim\">HOOD</p>", "conditions": [24, 800, "v", 12000], "internal_node_id": "0.0-67.0", "trial": 2, "time_elapsed": 453474, "serialpos": 5, "key_press": -1, "wordID": 713, "type": "PRES_VIS", "trial_index": 94}, "uniqueid": "MTK3257:39N5ACM9HFUP0FD9QFXN47M6LZ49PQ", "dateTime": 1520280397547}, {"current_trial": 95, "trialdata": {"rt": -1, "trial_type": "single-stim", "word": "cigar", "stimulus": "<p id=\"stim\">CIGAR</p>", "conditions": [24, 800, "v", 12000], "internal_node_id": "0.0-68.0", "trial": 2, "time_elapsed": 455199, "serialpos": 6, "key_press": -1, "wordID": 307, "type": "PRES_VIS", "trial_index": 95}, "uniqueid": "MTK3257:39N5ACM9HFUP0FD9QFXN47M6LZ49PQ", "dateTime": 1520280399271}, {"current_trial": 96, "trialdata": {"rt": -1, "trial_type": "single-stim", "word": "scotch", "stimulus": "<p id=\"stim\">SCOTCH</p>", "conditions": [24, 800, "v", 12000], "internal_node_id": "0.0-69.0", "trial": 2, "time_elapsed": 457059, "serialpos": 7, "key_press": -1, "wordID": 1250, "type": "PRES_VIS", "trial_index": 96}, "uniqueid": "MTK3257:39N5ACM9HFUP0FD9QFXN47M6LZ49PQ", "dateTime": 1520280401131}, {"current_trial": 97, "trialdata": {"rt": -1, "trial_type": "single-stim", "word": "custard", "stimulus": "<p id=\"stim\">CUSTARD</p>", "conditions": [24, 800, "v", 12000], "internal_node_id": "0.0-70.0", "trial": 2, "time_elapsed": 458701, "serialpos": 8, "key_press": -1, "wordID": 428, "type": "PRES_VIS", "trial_index": 97}, "uniqueid": "MTK3257:39N5ACM9HFUP0FD9QFXN47M6LZ49PQ", "dateTime": 1520280402773}, {"current_trial": 98, "trialdata": {"rt": -1, "trial_type": "single-stim", "word": "pudding", "stimulus": "<p id=\"stim\">PUDDING</p>", "conditions": [24, 800, "v", 12000], "internal_node_id": "0.0-71.0", "trial": 2, "time_elapsed": 460589, "serialpos": 9, "key_press": -1, "wordID": 1138, "type": "PRES_VIS", "trial_index": 98}, "uniqueid": "MTK3257:39N5ACM9HFUP0FD9QFXN47M6LZ49PQ", "dateTime": 1520280404661}, {"current_trial": 99, "trialdata": {"rt": -1, "trial_type": "single-stim", "word": "cloud", "stimulus": "<p id=\"stim\">CLOUD</p>", "conditions": [24, 800, "v", 12000], "internal_node_id": "0.0-72.0", "trial": 2, "time_elapsed": 462411, "serialpos": 10, "key_press": -1, "wordID": 327, "type": "PRES_VIS", "trial_index": 99}, "uniqueid": "MTK3257:39N5ACM9HFUP0FD9QFXN47M6LZ49PQ", "dateTime": 1520280406483}, {"current_trial": 100, "trialdata": {"rt": -1, "trial_type": "single-stim", "word": "fox", "stimulus": "<p id=\"stim\">FOX</p>", "conditions": [24, 800, "v", 12000], "internal_node_id": "0.0-73.0", "trial": 2, "time_elapsed": 464222, "serialpos": 11, "key_press": -1, "wordID": 597, "type": "PRES_VIS", "trial_index": 100}, "uniqueid": "MTK3257:39N5ACM9HFUP0FD9QFXN47M6LZ49PQ", "dateTime": 1520280408294}, {"current_trial": 101, "trialdata": {"rt": -1, "trial_type": "single-stim", "word": "receipt", "stimulus": "<p id=\"stim\">RECEIPT</p>", "conditions": [24, 800, "v", 12000], "internal_node_id": "0.0-74.0", "trial": 2, "time_elapsed": 465887, "serialpos": 12, "key_press": -1, "wordID": 1172, "type": "PRES_VIS", "trial_index": 101}, "uniqueid": "MTK3257:39N5ACM9HFUP0FD9QFXN47M6LZ49PQ", "dateTime": 1520280409960}, {"current_trial": 102, "trialdata": {"rt": -1, "trial_type": "single-stim", "word": "brother", "stimulus": "<p id=\"stim\">BROTHER</p>", "conditions": [24, 800, "v", 12000], "internal_node_id": "0.0-75.0", "trial": 2, "time_elapsed": 467538, "serialpos": 13, "key_press": -1, "wordID": 178, "type": "PRES_VIS", "trial_index": 102}, "uniqueid": "MTK3257:39N5ACM9HFUP0FD9QFXN47M6LZ49PQ", "dateTime": 1520280411610}, {"current_trial": 103, "trialdata": {"rt": -1, "trial_type": "single-stim", "word": "razor", "stimulus": "<p id=\"stim\">RAZOR</p>", "conditions": [24, 800, "v", 12000], "internal_node_id": "0.0-76.0", "trial": 2, "time_elapsed": 469183, "serialpos": 14, "key_press": -1, "wordID": 1170, "type": "PRES_VIS", "trial_index": 103}, "uniqueid": "MTK3257:39N5ACM9HFUP0FD9QFXN47M6LZ49PQ", "dateTime": 1520280413255}, {"current_trial": 104, "trialdata": {"rt": -1, "trial_type": "single-stim", "word": "picture", "stimulus": "<p id=\"stim\">PICTURE</p>", "conditions": [24, 800, "v", 12000], "internal_node_id": "0.0-77.0", "trial": 2, "time_elapsed": 470987, "serialpos": 15, "key_press": -1, "wordID": 1060, "type": "PRES_VIS", "trial_index": 104}, "uniqueid": "MTK3257:39N5ACM9HFUP0FD9QFXN47M6LZ49PQ", "dateTime": 1520280415060}, {"current_trial": 105, "trialdata": {"rt": -1, "trial_type": "single-stim", "word": "cod", "stimulus": "<p id=\"stim\">COD</p>", "conditions": [24, 800, "v", 12000], "internal_node_id": "0.0-78.0", "trial": 2, "time_elapsed": 472626, "serialpos": 16, "key_press": -1, "wordID": 339, "type": "PRES_VIS", "trial_index": 105}, "uniqueid": "MTK3257:39N5ACM9HFUP0FD9QFXN47M6LZ49PQ", "dateTime": 1520280416698}, {"current_trial": 106, "trialdata": {"rt": -1, "trial_type": "single-stim", "word": "dust", "stimulus": "<p id=\"stim\">DUST</p>", "conditions": [24, 800, "v", 12000], "internal_node_id": "0.0-79.0", "trial": 2, "time_elapsed": 474437, "serialpos": 17, "key_press": -1, "wordID": 507, "type": "PRES_VIS", "trial_index": 106}, "uniqueid": "MTK3257:39N5ACM9HFUP0FD9QFXN47M6LZ49PQ", "dateTime": 1520280418509}, {"current_trial": 107, "trialdata": {"rt": -1, "trial_type": "single-stim", "word": "flashlight", "stimulus": "<p id=\"stim\">FLASHLIGHT</p>", "conditions": [24, 800, "v", 12000], "internal_node_id": "0.0-80.0", "trial": 2, "time_elapsed": 476042, "serialpos": 18, "key_press": -1, "wordID": 574, "type": "PRES_VIS", "trial_index": 107}, "uniqueid": "MTK3257:39N5ACM9HFUP0FD9QFXN47M6LZ49PQ", "dateTime": 1520280420114}, {"current_trial": 108, "trialdata": {"rt": -1, "trial_type": "single-stim", "word": "shovel", "stimulus": "<p id=\"stim\">SHOVEL</p>", "conditions": [24, 800, "v", 12000], "internal_node_id": "0.0-81.0", "trial": 2, "time_elapsed": 478023, "serialpos": 19, "key_press": -1, "wordID": 1294, "type": "PRES_VIS", "trial_index": 108}, "uniqueid": "MTK3257:39N5ACM9HFUP0FD9QFXN47M6LZ49PQ", "dateTime": 1520280422095}, {"current_trial": 109, "trialdata": {"rt": -1, "trial_type": "single-stim", "word": "scallop", "stimulus": "<p id=\"stim\">SCALLOP</p>", "conditions": [24, 800, "v", 12000], "internal_node_id": "0.0-82.0", "trial": 2, "time_elapsed": 479626, "serialpos": 20, "key_press": -1, "wordID": 1241, "type": "PRES_VIS", "trial_index": 109}, "uniqueid": "MTK3257:39N5ACM9HFUP0FD9QFXN47M6LZ49PQ", "dateTime": 1520280423698}, {"current_trial": 110, "trialdata": {"rt": -1, "trial_type": "single-stim", "word": "chest", "stimulus": "<p id=\"stim\">CHEST</p>", "conditions": [24, 800, "v", 12000], "internal_node_id": "0.0-83.0", "trial": 2, "time_elapsed": 481466, "serialpos": 21, "key_press": -1, "wordID": 294, "type": "PRES_VIS", "trial_index": 110}, "uniqueid": "MTK3257:39N5ACM9HFUP0FD9QFXN47M6LZ49PQ", "dateTime": 1520280425538}, {"current_trial": 111, "trialdata": {"rt": -1, "trial_type": "single-stim", "word": "stomach", "stimulus": "<p id=\"stim\">STOMACH</p>", "conditions": [24, 800, "v", 12000], "internal_node_id": "0.0-84.0", "trial": 2, "time_elapsed": 483243, "serialpos": 22, "key_press": -1, "wordID": 1383, "type": "PRES_VIS", "trial_index": 111}, "uniqueid": "MTK3257:39N5ACM9HFUP0FD9QFXN47M6LZ49PQ", "dateTime": 1520280427315}, {"current_trial": 112, "trialdata": {"rt": -1, "trial_type": "single-stim", "word": "seagull", "stimulus": "<p id=\"stim\">SEAGULL</p>", "conditions": [24, 800, "v", 12000], "internal_node_id": "0.0-85.0", "trial": 2, "time_elapsed": 485073, "serialpos": 23, "key_press": -1, "wordID": 1260, "type": "PRES_VIS", "trial_index": 112}, "uniqueid": "MTK3257:39N5ACM9HFUP0FD9QFXN47M6LZ49PQ", "dateTime": 1520280429145}, {"current_trial": 113, "trialdata": {"rt": -1, "trial_type": "single-stim", "stimulus": "", "internal_node_id": "0.0-86.0-0.0", "time_elapsed": 487353, "key_press": -1, "type": "PRE_RECALL_DELAY", "trial_index": 113}, "uniqueid": "MTK3257:39N5ACM9HFUP0FD9QFXN47M6LZ49PQ", "dateTime": 1520280431426}, {"current_trial": 114, "trialdata": {"rt": -1000, "trial_type": "single-audio", "stimulus": "/static/audio/400Hz.wav", "internal_node_id": "0.0-87.0", "time_elapsed": 487862, "key_press": -1, "type": "PRE_RECALL_ALERT", "trial_index": 114}, "uniqueid": "MTK3257:39N5ACM9HFUP0FD9QFXN47M6LZ49PQ", "dateTime": 1520280431934}, {"current_trial": 115, "trialdata": {"rt": [2203, 2796, 4117, 5849, 6648, 8099, 9714, 34341, 45861], "recwords": ["seagull", "fox", "crayon", "butcher", "leg", "chest", "stomach", "duck", "flashlight"], "key_times": [1172, 1283, 1443, 1592, 1699, 1836, 1973, 2203, 2450, 2529, 2685, 2796, 3269, 3502, 3566, 3608, 3714, 3911, 4117, 4975, 5082, 5177, 5444, 5540, 5630, 5737, 5849, 6333, 6392, 6536, 6648, 6915, 7157, 7808, 7897, 8004, 8099, 8741, 8953, 9022, 9101, 9192, 9470, 9572, 9714, 33643, 33889, 33969, 34110, 34341, 44408, 44707, 44792, 44883, 44984, 45212, 45318, 45367, 45489, 45617, 45861], "trial_type": "free-recall", "conditions": [24, 800, "v", 12000], "internal_node_id": "0.0-88.0-0.0", "key_presses": [83, 69, 65, 71, 85, 76, 76, 13, 70, 79, 88, 13, 67, 82, 65, 89, 79, 78, 13, 66, 85, 84, 67, 72, 69, 82, 13, 76, 69, 71, 13, 67, 72, 69, 83, 84, 13, 83, 84, 79, 77, 65, 67, 72, 13, 68, 85, 67, 75, 13, 70, 76, 65, 83, 72, 76, 73, 71, 72, 84, 13], "trial": 2, "time_elapsed": 547865, "type": "FREE_RECALL", "trial_index": 115}, "uniqueid": "MTK3257:39N5ACM9HFUP0FD9QFXN47M6LZ49PQ", "dateTime": 1520280491938}, {"current_trial": 116, "trialdata": {"rt": 1839, "trial_type": "text", "internal_node_id": "0.0-89.0", "time_elapsed": 551706, "key_press": 32, "type": "INSTRUCTIONS", "trial_index": 116}, "uniqueid": "MTK3257:39N5ACM9HFUP0FD9QFXN47M6LZ49PQ", "dateTime": 1520280495778}, {"current_trial": 117, "trialdata": {"rt": [2033, 3857, 5432, 7018, 8850, 11527, 13677, 15398, 16668, 18420, 20444, 22698], "trial_type": "math-distractor", "key_times": [1703, 1909, 2033, 3467, 3563, 3857, 5064, 5272, 5432, 6621, 6868, 7018, 8256, 8516, 8850, 11296, 11354, 11527, 13265, 13560, 13677, 14893, 15189, 15398, 16459, 16544, 16668, 17984, 18204, 18420, 19518, 20309, 20444, 22172, 22517, 22698, 23798, 23937], "responses": ["14", "15", "18", "17", "16", "15", "17", "19", "13", "10", "17", "15"], "num2": [2, 1, 8, 4, 5, 3, 9, 7, 7, 2, 9, 5, 3], "num3": [6, 9, 6, 4, 5, 9, 4, 8, 3, 7, 7, 4, 9], "conditions": [24, 1600, "v", 24000], "internal_node_id": "0.0-90.0", "key_presses": [97, 100, 13, 97, 101, 13, 97, 104, 13, 97, 103, 13, 97, 102, 13, 97, 101, 13, 97, 103, 13, 97, 105, 13, 97, 99, 13, 97, 96, 13, 97, 103, 13, 97, 101, 13, 97, 101], "trial": 3, "time_elapsed": 577709, "type": "DISTRACTOR", "trial_index": 117, "num1": [6, 5, 4, 9, 6, 3, 4, 4, 3, 1, 1, 6, 3]}, "uniqueid": "MTK3257:39N5ACM9HFUP0FD9QFXN47M6LZ49PQ", "dateTime": 1520280521781}, {"current_trial": 118, "trialdata": {"rt": -1, "trial_type": "single-stim", "stimulus": "<p id=\"stim\">10</p>", "internal_node_id": "0.0-91.0-0.0", "time_elapsed": 580712, "key_press": -1, "trial_index": 118}, "uniqueid": "MTK3257:39N5ACM9HFUP0FD9QFXN47M6LZ49PQ", "dateTime": 1520280524784}, {"current_trial": 119, "trialdata": {"rt": -1, "trial_type": "single-stim", "stimulus": "<p id=\"stim\">9</p>", "internal_node_id": "0.0-91.0-1.0", "time_elapsed": 581714, "key_press": -1, "trial_index": 119}, "uniqueid": "MTK3257:39N5ACM9HFUP0FD9QFXN47M6LZ49PQ", "dateTime": 1520280525786}, {"current_trial": 120, "trialdata": {"rt": -1, "trial_type": "single-stim", "stimulus": "<p id=\"stim\">8</p>", "internal_node_id": "0.0-91.0-2.0", "time_elapsed": 582715, "key_press": -1, "trial_index": 120}, "uniqueid": "MTK3257:39N5ACM9HFUP0FD9QFXN47M6LZ49PQ", "dateTime": 1520280526787}, {"current_trial": 121, "trialdata": {"rt": -1, "trial_type": "single-stim", "stimulus": "<p id=\"stim\">7</p>", "internal_node_id": "0.0-91.0-3.0", "time_elapsed": 583717, "key_press": -1, "trial_index": 121}, "uniqueid": "MTK3257:39N5ACM9HFUP0FD9QFXN47M6LZ49PQ", "dateTime": 1520280527789}, {"current_trial": 122, "trialdata": {"rt": -1, "trial_type": "single-stim", "stimulus": "<p id=\"stim\">6</p>", "internal_node_id": "0.0-91.0-4.0", "time_elapsed": 584718, "key_press": -1, "trial_index": 122}, "uniqueid": "MTK3257:39N5ACM9HFUP0FD9QFXN47M6LZ49PQ", "dateTime": 1520280528790}, {"current_trial": 123, "trialdata": {"rt": -1, "trial_type": "single-stim", "stimulus": "<p id=\"stim\">5</p>", "internal_node_id": "0.0-91.0-5.0", "time_elapsed": 585719, "key_press": -1, "trial_index": 123}, "uniqueid": "MTK3257:39N5ACM9HFUP0FD9QFXN47M6LZ49PQ", "dateTime": 1520280529791}, {"current_trial": 124, "trialdata": {"rt": -1, "trial_type": "single-stim", "stimulus": "<p id=\"stim\">4</p>", "internal_node_id": "0.0-91.0-6.0", "time_elapsed": 586720, "key_press": -1, "trial_index": 124}, "uniqueid": "MTK3257:39N5ACM9HFUP0FD9QFXN47M6LZ49PQ", "dateTime": 1520280530792}, {"current_trial": 125, "trialdata": {"rt": -1, "trial_type": "single-stim", "stimulus": "<p id=\"stim\">3</p>", "internal_node_id": "0.0-91.0-7.0", "time_elapsed": 587721, "key_press": -1, "trial_index": 125}, "uniqueid": "MTK3257:39N5ACM9HFUP0FD9QFXN47M6LZ49PQ", "dateTime": 1520280531793}, {"current_trial": 126, "trialdata": {"rt": -1, "trial_type": "single-stim", "stimulus": "<p id=\"stim\">2</p>", "internal_node_id": "0.0-91.0-8.0", "time_elapsed": 588723, "key_press": -1, "trial_index": 126}, "uniqueid": "MTK3257:39N5ACM9HFUP0FD9QFXN47M6LZ49PQ", "dateTime": 1520280532796}, {"current_trial": 127, "trialdata": {"rt": -1, "trial_type": "single-stim", "stimulus": "<p id=\"stim\">1</p>", "internal_node_id": "0.0-91.0-9.0", "time_elapsed": 589725, "key_press": -1, "trial_index": 127}, "uniqueid": "MTK3257:39N5ACM9HFUP0FD9QFXN47M6LZ49PQ", "dateTime": 1520280533797}, {"current_trial": 128, "trialdata": {"rt": -1, "trial_type": "single-stim", "stimulus": "<p id=\"stim\">+</p>", "internal_node_id": "0.0-92.0-0.0", "time_elapsed": 591227, "key_press": -1, "type": "FIXATION", "trial_index": 128}, "uniqueid": "MTK3257:39N5ACM9HFUP0FD9QFXN47M6LZ49PQ", "dateTime": 1520280535299}, {"current_trial": 129, "trialdata": {"rt": -1, "trial_type": "single-stim", "word": "apron", "stimulus": "<p id=\"stim\">APRON</p>", "conditions": [24, 1600, "v", 24000], "internal_node_id": "0.0-93.0", "trial": 3, "time_elapsed": 592828, "serialpos": 0, "key_press": -1, "wordID": 34, "type": "PRES_VIS", "trial_index": 129}, "uniqueid": "MTK3257:39N5ACM9HFUP0FD9QFXN47M6LZ49PQ", "dateTime": 1520280536900}, {"current_trial": 130, "trialdata": {"rt": -1, "trial_type": "single-stim", "word": "ground", "stimulus": "<p id=\"stim\">GROUND</p>", "conditions": [24, 1600, "v", 24000], "internal_node_id": "0.0-94.0", "trial": 3, "time_elapsed": 595429, "serialpos": 1, "key_press": -1, "wordID": 665, "type": "PRES_VIS", "trial_index": 130}, "uniqueid": "MTK3257:39N5ACM9HFUP0FD9QFXN47M6LZ49PQ", "dateTime": 1520280539501}, {"current_trial": 131, "trialdata": {"rt": -1, "trial_type": "single-stim", "word": "muffin", "stimulus": "<p id=\"stim\">MUFFIN</p>", "conditions": [24, 1600, "v", 24000], "internal_node_id": "0.0-95.0", "trial": 3, "time_elapsed": 597902, "serialpos": 2, "key_press": -1, "wordID": 928, "type": "PRES_VIS", "trial_index": 131}, "uniqueid": "MTK3257:39N5ACM9HFUP0FD9QFXN47M6LZ49PQ", "dateTime": 1520280541974}, {"current_trial": 132, "trialdata": {"rt": -1, "trial_type": "single-stim", "word": "statue", "stimulus": "<p id=\"stim\">STATUE</p>", "conditions": [24, 1600, "v", 24000], "internal_node_id": "0.0-96.0", "trial": 3, "time_elapsed": 600688, "serialpos": 3, "key_press": -1, "wordID": 1373, "type": "PRES_VIS", "trial_index": 132}, "uniqueid": "MTK3257:39N5ACM9HFUP0FD9QFXN47M6LZ49PQ", "dateTime": 1520280544760}, {"current_trial": 133, "trialdata": {"rt": -1, "trial_type": "single-stim", "word": "relish", "stimulus": "<p id=\"stim\">RELISH</p>", "conditions": [24, 1600, "v", 24000], "internal_node_id": "0.0-97.0", "trial": 3, "time_elapsed": 603217, "serialpos": 4, "key_press": -1, "wordID": 1182, "type": "PRES_VIS", "trial_index": 133}, "uniqueid": "MTK3257:39N5ACM9HFUP0FD9QFXN47M6LZ49PQ", "dateTime": 1520280547289}, {"current_trial": 134, "trialdata": {"rt": -1, "trial_type": "single-stim", "word": "girl", "stimulus": "<p id=\"stim\">GIRL</p>", "conditions": [24, 1600, "v", 24000], "internal_node_id": "0.0-98.0", "trial": 3, "time_elapsed": 605647, "serialpos": 5, "key_press": -1, "wordID": 636, "type": "PRES_VIS", "trial_index": 134}, "uniqueid": "MTK3257:39N5ACM9HFUP0FD9QFXN47M6LZ49PQ", "dateTime": 1520280549719}, {"current_trial": 135, "trialdata": {"rt": -1, "trial_type": "single-stim", "word": "daughter", "stimulus": "<p id=\"stim\">DAUGHTER</p>", "conditions": [24, 1600, "v", 24000], "internal_node_id": "0.0-99.0", "trial": 3, "time_elapsed": 608396, "serialpos": 6, "key_press": -1, "wordID": 441, "type": "PRES_VIS", "trial_index": 135}, "uniqueid": "MTK3257:39N5ACM9HFUP0FD9QFXN47M6LZ49PQ", "dateTime": 1520280552468}, {"current_trial": 136, "trialdata": {"rt": -1, "trial_type": "single-stim", "word": "honey", "stimulus": "<p id=\"stim\">HONEY</p>", "conditions": [24, 1600, "v", 24000], "internal_node_id": "0.0-100.0", "trial": 3, "time_elapsed": 610932, "serialpos": 7, "key_press": -1, "wordID": 712, "type": "PRES_VIS", "trial_index": 136}, "uniqueid": "MTK3257:39N5ACM9HFUP0FD9QFXN47M6LZ49PQ", "dateTime": 1520280555004}, {"current_trial": 137, "trialdata": {"rt": -1, "trial_type": "single-stim", "word": "tutu", "stimulus": "<p id=\"stim\">TUTU</p>", "conditions": [24, 1600, "v", 24000], "internal_node_id": "0.0-101.0", "trial": 3, "time_elapsed": 613389, "serialpos": 8, "key_press": -1, "wordID": 1523, "type": "PRES_VIS", "trial_index": 137}, "uniqueid": "MTK3257:39N5ACM9HFUP0FD9QFXN47M6LZ49PQ", "dateTime": 1520280557461}, {"current_trial": 138, "trialdata": {"rt": -1, "trial_type": "single-stim", "word": "bureau", "stimulus": "<p id=\"stim\">BUREAU</p>", "conditions": [24, 1600, "v", 24000], "internal_node_id": "0.0-102.0", "trial": 3, "time_elapsed": 616169, "serialpos": 9, "key_press": -1, "wordID": 198, "type": "PRES_VIS", "trial_index": 138}, "uniqueid": "MTK3257:39N5ACM9HFUP0FD9QFXN47M6LZ49PQ", "dateTime": 1520280560241}, {"current_trial": 139, "trialdata": {"rt": -1, "trial_type": "single-stim", "word": "pastry", "stimulus": "<p id=\"stim\">PASTRY</p>", "conditions": [24, 1600, "v", 24000], "internal_node_id": "0.0-103.0", "trial": 3, "time_elapsed": 618853, "serialpos": 10, "key_press": -1, "wordID": 1021, "type": "PRES_VIS", "trial_index": 139}, "uniqueid": "MTK3257:39N5ACM9HFUP0FD9QFXN47M6LZ49PQ", "dateTime": 1520280562925}, {"current_trial": 140, "trialdata": {"rt": -1, "trial_type": "single-stim", "word": "sandwich", "stimulus": "<p id=\"stim\">SANDWICH</p>", "conditions": [24, 1600, "v", 24000], "internal_node_id": "0.0-104.0", "trial": 3, "time_elapsed": 621370, "serialpos": 11, "key_press": -1, "wordID": 1231, "type": "PRES_VIS", "trial_index": 140}, "uniqueid": "MTK3257:39N5ACM9HFUP0FD9QFXN47M6LZ49PQ", "dateTime": 1520280565442}, {"current_trial": 141, "trialdata": {"rt": -1, "trial_type": "single-stim", "word": "slope", "stimulus": "<p id=\"stim\">SLOPE</p>", "conditions": [24, 1600, "v", 24000], "internal_node_id": "0.0-105.0", "trial": 3, "time_elapsed": 623933, "serialpos": 12, "key_press": -1, "wordID": 1327, "type": "PRES_VIS", "trial_index": 141}, "uniqueid": "MTK3257:39N5ACM9HFUP0FD9QFXN47M6LZ49PQ", "dateTime": 1520280568005}, {"current_trial": 142, "trialdata": {"rt": -1, "trial_type": "single-stim", "word": "beast", "stimulus": "<p id=\"stim\">BEAST</p>", "conditions": [24, 1600, "v", 24000], "internal_node_id": "0.0-106.0", "trial": 3, "time_elapsed": 626501, "serialpos": 13, "key_press": -1, "wordID": 107, "type": "PRES_VIS", "trial_index": 142}, "uniqueid": "MTK3257:39N5ACM9HFUP0FD9QFXN47M6LZ49PQ", "dateTime": 1520280570573}, {"current_trial": 143, "trialdata": {"rt": -1, "trial_type": "single-stim", "word": "shortcake", "stimulus": "<p id=\"stim\">SHORTCAKE</p>", "conditions": [24, 1600, "v", 24000], "internal_node_id": "0.0-107.0", "trial": 3, "time_elapsed": 629137, "serialpos": 14, "key_press": -1, "wordID": 1291, "type": "PRES_VIS", "trial_index": 143}, "uniqueid": "MTK3257:39N5ACM9HFUP0FD9QFXN47M6LZ49PQ", "dateTime": 1520280573210}, {"current_trial": 144, "trialdata": {"rt": -1, "trial_type": "single-stim", "word": "actress", "stimulus": "<p id=\"stim\">ACTRESS</p>", "conditions": [24, 1600, "v", 24000], "internal_node_id": "0.0-108.0", "trial": 3, "time_elapsed": 631771, "serialpos": 15, "key_press": -1, "wordID": 5, "type": "PRES_VIS", "trial_index": 144}, "uniqueid": "MTK3257:39N5ACM9HFUP0FD9QFXN47M6LZ49PQ", "dateTime": 1520280575843}, {"current_trial": 145, "trialdata": {"rt": -1, "trial_type": "single-stim", "word": "handbag", "stimulus": "<p id=\"stim\">HANDBAG</p>", "conditions": [24, 1600, "v", 24000], "internal_node_id": "0.0-109.0", "trial": 3, "time_elapsed": 634493, "serialpos": 16, "key_press": -1, "wordID": 683, "type": "PRES_VIS", "trial_index": 145}, "uniqueid": "MTK3257:39N5ACM9HFUP0FD9QFXN47M6LZ49PQ", "dateTime": 1520280578565}, {"current_trial": 146, "trialdata": {"rt": -1, "trial_type": "single-stim", "word": "woman", "stimulus": "<p id=\"stim\">WOMAN</p>", "conditions": [24, 1600, "v", 24000], "internal_node_id": "0.0-110.0", "trial": 3, "time_elapsed": 637058, "serialpos": 17, "key_press": -1, "wordID": 1619, "type": "PRES_VIS", "trial_index": 146}, "uniqueid": "MTK3257:39N5ACM9HFUP0FD9QFXN47M6LZ49PQ", "dateTime": 1520280581130}, {"current_trial": 147, "trialdata": {"rt": -1, "trial_type": "single-stim", "word": "lady", "stimulus": "<p id=\"stim\">LADY</p>", "conditions": [24, 1600, "v", 24000], "internal_node_id": "0.0-111.0", "trial": 3, "time_elapsed": 639525, "serialpos": 18, "key_press": -1, "wordID": 793, "type": "PRES_VIS", "trial_index": 147}, "uniqueid": "MTK3257:39N5ACM9HFUP0FD9QFXN47M6LZ49PQ", "dateTime": 1520280583597}, {"current_trial": 148, "trialdata": {"rt": -1, "trial_type": "single-stim", "word": "clothes", "stimulus": "<p id=\"stim\">CLOTHES</p>", "conditions": [24, 1600, "v", 24000], "internal_node_id": "0.0-112.0", "trial": 3, "time_elapsed": 642262, "serialpos": 19, "key_press": -1, "wordID": 326, "type": "PRES_VIS", "trial_index": 148}, "uniqueid": "MTK3257:39N5ACM9HFUP0FD9QFXN47M6LZ49PQ", "dateTime": 1520280586334}, {"current_trial": 149, "trialdata": {"rt": -1, "trial_type": "single-stim", "word": "teacher", "stimulus": "<p id=\"stim\">TEACHER</p>", "conditions": [24, 1600, "v", 24000], "internal_node_id": "0.0-113.0", "trial": 3, "time_elapsed": 644846, "serialpos": 20, "key_press": -1, "wordID": 1439, "type": "PRES_VIS", "trial_index": 149}, "uniqueid": "MTK3257:39N5ACM9HFUP0FD9QFXN47M6LZ49PQ", "dateTime": 1520280588918}, {"current_trial": 150, "trialdata": {"rt": -1, "trial_type": "single-stim", "word": "canal", "stimulus": "<p id=\"stim\">CANAL</p>", "conditions": [24, 1600, "v", 24000], "internal_node_id": "0.0-114.0", "trial": 3, "time_elapsed": 647420, "serialpos": 21, "key_press": -1, "wordID": 225, "type": "PRES_VIS", "trial_index": 150}, "uniqueid": "MTK3257:39N5ACM9HFUP0FD9QFXN47M6LZ49PQ", "dateTime": 1520280591493}, {"current_trial": 151, "trialdata": {"rt": -1, "trial_type": "single-stim", "word": "pasta", "stimulus": "<p id=\"stim\">PASTA</p>", "conditions": [24, 1600, "v", 24000], "internal_node_id": "0.0-115.0", "trial": 3, "time_elapsed": 649876, "serialpos": 22, "key_press": -1, "wordID": 1020, "type": "PRES_VIS", "trial_index": 151}, "uniqueid": "MTK3257:39N5ACM9HFUP0FD9QFXN47M6LZ49PQ", "dateTime": 1520280593948}, {"current_trial": 152, "trialdata": {"rt": -1, "trial_type": "single-stim", "word": "drill", "stimulus": "<p id=\"stim\">DRILL</p>", "conditions": [24, 1600, "v", 24000], "internal_node_id": "0.0-116.0", "trial": 3, "time_elapsed": 652326, "serialpos": 23, "key_press": -1, "wordID": 496, "type": "PRES_VIS", "trial_index": 152}, "uniqueid": "MTK3257:39N5ACM9HFUP0FD9QFXN47M6LZ49PQ", "dateTime": 1520280596398}, {"current_trial": 153, "trialdata": {"rt": -1, "trial_type": "single-stim", "stimulus": "", "internal_node_id": "0.0-117.0-0.0", "time_elapsed": 654769, "key_press": -1, "type": "PRE_RECALL_DELAY", "trial_index": 153}, "uniqueid": "MTK3257:39N5ACM9HFUP0FD9QFXN47M6LZ49PQ", "dateTime": 1520280598841}, {"current_trial": 154, "trialdata": {"rt": -1000, "trial_type": "single-audio", "stimulus": "/static/audio/400Hz.wav", "internal_node_id": "0.0-118.0", "time_elapsed": 655272, "key_press": -1, "type": "PRE_RECALL_ALERT", "trial_index": 154}, "uniqueid": "MTK3257:39N5ACM9HFUP0FD9QFXN47M6LZ49PQ", "dateTime": 1520280599344}, {"current_trial": 155, "trialdata": {"rt": [1713, 2844, 3668, 4730, 5711, 6796, 7660, 8844, 10229, 12719, 26304, 27714], "recwords": ["drill", "canal", "pasta", "apron", "lady", "woman", "girl", "daughter", "honey", "relish", "clothes", "handbag"], "key_times": [1019, 1029, 1114, 1271, 1409, 1713, 2123, 2208, 2303, 2400, 2648, 2844, 3131, 3248, 3334, 3466, 3567, 3668, 4105, 4222, 4345, 4440, 4525, 4730, 5031, 5132, 5217, 5534, 5711, 6016, 6150, 6209, 6521, 6595, 6796, 7109, 7281, 7372, 7467, 7660, 7916, 8097, 8167, 8262, 8395, 8530, 8599, 8727, 8844, 9263, 9352, 9502, 9698, 9871, 10229, 11484, 11818, 11919, 11977, 12224, 12389, 12516, 12579, 12719, 24341, 24409, 24705, 25204, 25444, 25545, 25631, 25694, 25970, 26304, 26717, 26813, 26957, 27042, 27339, 27486, 27619, 27714], "trial_type": "free-recall", "conditions": [24, 1600, "v", 24000], "internal_node_id": "0.0-119.0-0.0", "key_presses": [68, 82, 73, 76, 76, 13, 67, 65, 78, 65, 76, 13, 80, 65, 83, 84, 65, 13, 65, 80, 82, 79, 78, 13, 76, 65, 68, 89, 13, 87, 79, 77, 65, 78, 13, 71, 73, 82, 76, 13, 68, 65, 85, 71, 72, 84, 69, 82, 13, 72, 79, 78, 69, 89, 13, 72, 8, 82, 69, 76, 73, 83, 72, 13, 67, 76, 84, 8, 79, 84, 72, 69, 83, 13, 72, 65, 78, 68, 66, 65, 71, 13], "trial": 3, "time_elapsed": 715274, "type": "FREE_RECALL", "trial_index": 155}, "uniqueid": "MTK3257:39N5ACM9HFUP0FD9QFXN47M6LZ49PQ", "dateTime": 1520280659347}, {"current_trial": 156, "trialdata": {"rt": 2327, "trial_type": "text", "internal_node_id": "0.0-120.0", "time_elapsed": 719605, "key_press": 32, "type": "INSTRUCTIONS", "trial_index": 156}, "uniqueid": "MTK3257:39N5ACM9HFUP0FD9QFXN47M6LZ49PQ", "dateTime": 1520280663677}, {"current_trial": 157, "trialdata": {"rt": [2164, 3579, 4650, 6450, 9118, 10682], "trial_type": "math-distractor", "key_times": [1708, 1853, 2164, 3096, 3385, 3579, 4422, 4650, 5710, 5785, 6450, 8852, 8953, 9118, 10237, 10524, 10682, 11920], "responses": ["16", "17", "5", "15", "12", "17"], "num2": [9, 5, 1, 2, 4, 4, 1], "num3": [2, 5, 2, 9, 6, 4, 4], "conditions": [12, 1600, "v", 12000], "internal_node_id": "0.0-121.0", "key_presses": [97, 102, 13, 97, 103, 13, 101, 13, 97, 101, 13, 97, 98, 13, 97, 103, 13, 103], "trial": 4, "time_elapsed": 733607, "type": "DISTRACTOR", "trial_index": 157, "num1": [5, 7, 2, 4, 2, 9, 2]}, "uniqueid": "MTK3257:39N5ACM9HFUP0FD9QFXN47M6LZ49PQ", "dateTime": 1520280677679}, {"current_trial": 158, "trialdata": {"rt": -1, "trial_type": "single-stim", "stimulus": "<p id=\"stim\">10</p>", "internal_node_id": "0.0-122.0-0.0", "time_elapsed": 736610, "key_press": -1, "trial_index": 158}, "uniqueid": "MTK3257:39N5ACM9HFUP0FD9QFXN47M6LZ49PQ", "dateTime": 1520280680682}, {"current_trial": 159, "trialdata": {"rt": -1, "trial_type": "single-stim", "stimulus": "<p id=\"stim\">9</p>", "internal_node_id": "0.0-122.0-1.0", "time_elapsed": 737612, "key_press": -1, "trial_index": 159}, "uniqueid": "MTK3257:39N5ACM9HFUP0FD9QFXN47M6LZ49PQ", "dateTime": 1520280681684}, {"current_trial": 160, "trialdata": {"rt": -1, "trial_type": "single-stim", "stimulus": "<p id=\"stim\">8</p>", "internal_node_id": "0.0-122.0-2.0", "time_elapsed": 738615, "key_press": -1, "trial_index": 160}, "uniqueid": "MTK3257:39N5ACM9HFUP0FD9QFXN47M6LZ49PQ", "dateTime": 1520280682687}, {"current_trial": 161, "trialdata": {"rt": -1, "trial_type": "single-stim", "stimulus": "<p id=\"stim\">7</p>", "internal_node_id": "0.0-122.0-3.0", "time_elapsed": 739616, "key_press": -1, "trial_index": 161}, "uniqueid": "MTK3257:39N5ACM9HFUP0FD9QFXN47M6LZ49PQ", "dateTime": 1520280683688}, {"current_trial": 162, "trialdata": {"rt": -1, "trial_type": "single-stim", "stimulus": "<p id=\"stim\">6</p>", "internal_node_id": "0.0-122.0-4.0", "time_elapsed": 740619, "key_press": -1, "trial_index": 162}, "uniqueid": "MTK3257:39N5ACM9HFUP0FD9QFXN47M6LZ49PQ", "dateTime": 1520280684691}, {"current_trial": 163, "trialdata": {"rt": -1, "trial_type": "single-stim", "stimulus": "<p id=\"stim\">5</p>", "internal_node_id": "0.0-122.0-5.0", "time_elapsed": 741621, "key_press": -1, "trial_index": 163}, "uniqueid": "MTK3257:39N5ACM9HFUP0FD9QFXN47M6LZ49PQ", "dateTime": 1520280685693}, {"current_trial": 164, "trialdata": {"rt": -1, "trial_type": "single-stim", "stimulus": "<p id=\"stim\">4</p>", "internal_node_id": "0.0-122.0-6.0", "time_elapsed": 742622, "key_press": -1, "trial_index": 164}, "uniqueid": "MTK3257:39N5ACM9HFUP0FD9QFXN47M6LZ49PQ", "dateTime": 1520280686694}, {"current_trial": 165, "trialdata": {"rt": -1, "trial_type": "single-stim", "stimulus": "<p id=\"stim\">3</p>", "internal_node_id": "0.0-122.0-7.0", "time_elapsed": 743625, "key_press": -1, "trial_index": 165}, "uniqueid": "MTK3257:39N5ACM9HFUP0FD9QFXN47M6LZ49PQ", "dateTime": 1520280687697}, {"current_trial": 166, "trialdata": {"rt": -1, "trial_type": "single-stim", "stimulus": "<p id=\"stim\">2</p>", "internal_node_id": "0.0-122.0-8.0", "time_elapsed": 744625, "key_press": -1, "trial_index": 166}, "uniqueid": "MTK3257:39N5ACM9HFUP0FD9QFXN47M6LZ49PQ", "dateTime": 1520280688698}, {"current_trial": 167, "trialdata": {"rt": -1, "trial_type": "single-stim", "stimulus": "<p id=\"stim\">1</p>", "internal_node_id": "0.0-122.0-9.0", "time_elapsed": 745626, "key_press": -1, "trial_index": 167}, "uniqueid": "MTK3257:39N5ACM9HFUP0FD9QFXN47M6LZ49PQ", "dateTime": 1520280689698}, {"current_trial": 168, "trialdata": {"rt": -1, "trial_type": "single-stim", "stimulus": "<p id=\"stim\">+</p>", "internal_node_id": "0.0-123.0-0.0", "time_elapsed": 747129, "key_press": -1, "type": "FIXATION", "trial_index": 168}, "uniqueid": "MTK3257:39N5ACM9HFUP0FD9QFXN47M6LZ49PQ", "dateTime": 1520280691201}, {"current_trial": 169, "trialdata": {"rt": -1, "trial_type": "single-stim", "word": "parsley", "stimulus": "<p id=\"stim\">PARSLEY</p>", "conditions": [12, 1600, "v", 12000], "internal_node_id": "0.0-124.0", "trial": 4, "time_elapsed": 748730, "serialpos": 0, "key_press": -1, "wordID": 1015, "type": "PRES_VIS", "trial_index": 169}, "uniqueid": "MTK3257:39N5ACM9HFUP0FD9QFXN47M6LZ49PQ", "dateTime": 1520280692802}, {"current_trial": 170, "trialdata": {"rt": -1, "trial_type": "single-stim", "word": "cabbage", "stimulus": "<p id=\"stim\">CABBAGE</p>", "conditions": [12, 1600, "v", 12000], "internal_node_id": "0.0-125.0", "trial": 4, "time_elapsed": 751170, "serialpos": 1, "key_press": -1, "wordID": 209, "type": "PRES_VIS", "trial_index": 170}, "uniqueid": "MTK3257:39N5ACM9HFUP0FD9QFXN47M6LZ49PQ", "dateTime": 1520280695242}, {"current_trial": 171, "trialdata": {"rt": -1, "trial_type": "single-stim", "word": "expert", "stimulus": "<p id=\"stim\">EXPERT</p>", "conditions": [12, 1600, "v", 12000], "internal_node_id": "0.0-126.0", "trial": 4, "time_elapsed": 753792, "serialpos": 2, "key_press": -1, "wordID": 542, "type": "PRES_VIS", "trial_index": 171}, "uniqueid": "MTK3257:39N5ACM9HFUP0FD9QFXN47M6LZ49PQ", "dateTime": 1520280697864}, {"current_trial": 172, "trialdata": {"rt": -1, "trial_type": "single-stim", "word": "shoulder", "stimulus": "<p id=\"stim\">SHOULDER</p>", "conditions": [12, 1600, "v", 12000], "internal_node_id": "0.0-127.0", "trial": 4, "time_elapsed": 756213, "serialpos": 3, "key_press": -1, "wordID": 1293, "type": "PRES_VIS", "trial_index": 172}, "uniqueid": "MTK3257:39N5ACM9HFUP0FD9QFXN47M6LZ49PQ", "dateTime": 1520280700285}, {"current_trial": 173, "trialdata": {"rt": -1, "trial_type": "single-stim", "word": "world", "stimulus": "<p id=\"stim\">WORLD</p>", "conditions": [12, 1600, "v", 12000], "internal_node_id": "0.0-128.0", "trial": 4, "time_elapsed": 758993, "serialpos": 4, "key_press": -1, "wordID": 1621, "type": "PRES_VIS", "trial_index": 173}, "uniqueid": "MTK3257:39N5ACM9HFUP0FD9QFXN47M6LZ49PQ", "dateTime": 1520280703065}, {"current_trial": 174, "trialdata": {"rt": -1, "trial_type": "single-stim", "word": "cashew", "stimulus": "<p id=\"stim\">CASHEW</p>", "conditions": [12, 1600, "v", 12000], "internal_node_id": "0.0-129.0", "trial": 4, "time_elapsed": 761706, "serialpos": 5, "key_press": -1, "wordID": 252, "type": "PRES_VIS", "trial_index": 174}, "uniqueid": "MTK3257:39N5ACM9HFUP0FD9QFXN47M6LZ49PQ", "dateTime": 1520280705778}, {"current_trial": 175, "trialdata": {"rt": -1, "trial_type": "single-stim", "word": "garden", "stimulus": "<p id=\"stim\">GARDEN</p>", "conditions": [12, 1600, "v", 12000], "internal_node_id": "0.0-130.0", "trial": 4, "time_elapsed": 764115, "serialpos": 6, "key_press": -1, "wordID": 622, "type": "PRES_VIS", "trial_index": 175}, "uniqueid": "MTK3257:39N5ACM9HFUP0FD9QFXN47M6LZ49PQ", "dateTime": 1520280708187}, {"current_trial": 176, "trialdata": {"rt": -1, "trial_type": "single-stim", "word": "freckle", "stimulus": "<p id=\"stim\">FRECKLE</p>", "conditions": [12, 1600, "v", 12000], "internal_node_id": "0.0-131.0", "trial": 4, "time_elapsed": 766533, "serialpos": 7, "key_press": -1, "wordID": 601, "type": "PRES_VIS", "trial_index": 176}, "uniqueid": "MTK3257:39N5ACM9HFUP0FD9QFXN47M6LZ49PQ", "dateTime": 1520280710605}, {"current_trial": 177, "trialdata": {"rt": -1, "trial_type": "single-stim", "word": "arm", "stimulus": "<p id=\"stim\">ARM</p>", "conditions": [12, 1600, "v", 12000], "internal_node_id": "0.0-132.0", "trial": 4, "time_elapsed": 769057, "serialpos": 8, "key_press": -1, "wordID": 37, "type": "PRES_VIS", "trial_index": 177}, "uniqueid": "MTK3257:39N5ACM9HFUP0FD9QFXN47M6LZ49PQ", "dateTime": 1520280713129}, {"current_trial": 178, "trialdata": {"rt": -1, "trial_type": "single-stim", "word": "temple", "stimulus": "<p id=\"stim\">TEMPLE</p>", "conditions": [12, 1600, "v", 12000], "internal_node_id": "0.0-133.0", "trial": 4, "time_elapsed": 771599, "serialpos": 9, "key_press": -1, "wordID": 1447, "type": "PRES_VIS", "trial_index": 178}, "uniqueid": "MTK3257:39N5ACM9HFUP0FD9QFXN47M6LZ49PQ", "dateTime": 1520280715671}, {"current_trial": 179, "trialdata": {"rt": -1, "trial_type": "single-stim", "word": "racket", "stimulus": "<p id=\"stim\">RACKET</p>", "conditions": [12, 1600, "v", 12000], "internal_node_id": "0.0-134.0", "trial": 4, "time_elapsed": 774366, "serialpos": 10, "key_press": -1, "wordID": 1154, "type": "PRES_VIS", "trial_index": 179}, "uniqueid": "MTK3257:39N5ACM9HFUP0FD9QFXN47M6LZ49PQ", "dateTime": 1520280718438}, {"current_trial": 180, "trialdata": {"rt": -1, "trial_type": "single-stim", "word": "egypt", "stimulus": "<p id=\"stim\">EGYPT</p>", "conditions": [12, 1600, "v", 12000], "internal_node_id": "0.0-135.0", "trial": 4, "time_elapsed": 777031, "serialpos": 11, "key_press": -1, "wordID": 518, "type": "PRES_VIS", "trial_index": 180}, "uniqueid": "MTK3257:39N5ACM9HFUP0FD9QFXN47M6LZ49PQ", "dateTime": 1520280721103}, {"current_trial": 181, "trialdata": {"rt": -1, "trial_type": "single-stim", "stimulus": "", "internal_node_id": "0.0-136.0-0.0", "time_elapsed": 779181, "key_press": -1, "type": "PRE_RECALL_DELAY", "trial_index": 181}, "uniqueid": "MTK3257:39N5ACM9HFUP0FD9QFXN47M6LZ49PQ", "dateTime": 1520280723253}, {"current_trial": 182, "trialdata": {"rt": -1000, "trial_type": "single-audio", "stimulus": "/static/audio/400Hz.wav", "internal_node_id": "0.0-137.0", "time_elapsed": 779688, "key_press": -1, "type": "PRE_RECALL_ALERT", "trial_index": 182}, "uniqueid": "MTK3257:39N5ACM9HFUP0FD9QFXN47M6LZ49PQ", "dateTime": 1520280723761}, {"current_trial": 183, "trialdata": {"rt": [3033, 4408, 6091, 6896, 9402, 10800, 19796, 37333], "recwords": ["egypt", "world", "shoulder", "arm", "parsley", "cabbage", "temple", "chest"], "key_times": [1387, 1555, 1779, 2265, 2507, 2707, 2879, 3033, 3928, 3997, 4126, 4189, 4297, 4408, 5111, 5170, 5287, 5373, 5540, 5610, 5915, 6000, 6091, 6305, 6385, 6587, 6896, 7925, 8043, 8159, 8323, 8959, 9049, 9150, 9402, 9858, 10030, 10216, 10390, 10497, 10629, 10715, 10800, 18923, 19046, 19257, 19390, 19588, 19706, 19796, 36675, 36896, 37009, 37105, 37238, 37333], "trial_type": "free-recall", "conditions": [12, 1600, "v", 12000], "internal_node_id": "0.0-138.0-0.0", "key_presses": [69, 71, 82, 8, 89, 80, 84, 13, 87, 79, 82, 76, 68, 13, 83, 72, 79, 85, 76, 68, 69, 82, 13, 65, 82, 77, 13, 80, 65, 82, 83, 76, 69, 89, 13, 67, 65, 66, 66, 65, 71, 69, 13, 84, 69, 77, 80, 76, 69, 13, 67, 72, 69, 83, 84, 13], "trial": 4, "time_elapsed": 839693, "type": "FREE_RECALL", "trial_index": 183}, "uniqueid": "MTK3257:39N5ACM9HFUP0FD9QFXN47M6LZ49PQ", "dateTime": 1520280783767}, {"current_trial": 184, "trialdata": {"rt": 3179, "trial_type": "text", "internal_node_id": "0.0-139.0", "time_elapsed": 844874, "key_press": 32, "type": "INSTRUCTIONS", "trial_index": 184}, "uniqueid": "MTK3257:39N5ACM9HFUP0FD9QFXN47M6LZ49PQ", "dateTime": 1520280788947}, {"current_trial": 185, "trialdata": {"rt": [1654, 4837, 6760, 8027, 9362, 10881], "trial_type": "math-distractor", "key_times": [1260, 1351, 1654, 4492, 4641, 4837, 6363, 6584, 6760, 7823, 8027, 9135, 9278, 9362, 10701, 10881], "responses": ["16", "26", "14", "8", "11", "9"], "num2": [6, 9, 4, 1, 8, 3, 1], "num3": [9, 9, 8, 3, 1, 3, 9], "conditions": [24, 1600, "v", 12000], "internal_node_id": "0.0-140.0", "key_presses": [97, 102, 13, 98, 102, 13, 97, 100, 13, 104, 13, 97, 97, 13, 105, 13], "trial": 5, "time_elapsed": 858878, "type": "DISTRACTOR", "trial_index": 185, "num1": [1, 8, 2, 4, 2, 3, 2]}, "uniqueid": "MTK3257:39N5ACM9HFUP0FD9QFXN47M6LZ49PQ", "dateTime": 1520280802950}, {"current_trial": 186, "trialdata": {"rt": -1, "trial_type": "single-stim", "stimulus": "<p id=\"stim\">10</p>", "internal_node_id": "0.0-141.0-0.0", "time_elapsed": 861880, "key_press": -1, "trial_index": 186}, "uniqueid": "MTK3257:39N5ACM9HFUP0FD9QFXN47M6LZ49PQ", "dateTime": 1520280805952}, {"current_trial": 187, "trialdata": {"rt": -1, "trial_type": "single-stim", "stimulus": "<p id=\"stim\">9</p>", "internal_node_id": "0.0-141.0-1.0", "time_elapsed": 862882, "key_press": -1, "trial_index": 187}, "uniqueid": "MTK3257:39N5ACM9HFUP0FD9QFXN47M6LZ49PQ", "dateTime": 1520280806954}, {"current_trial": 188, "trialdata": {"rt": -1, "trial_type": "single-stim", "stimulus": "<p id=\"stim\">8</p>", "internal_node_id": "0.0-141.0-2.0", "time_elapsed": 863883, "key_press": -1, "trial_index": 188}, "uniqueid": "MTK3257:39N5ACM9HFUP0FD9QFXN47M6LZ49PQ", "dateTime": 1520280807955}, {"current_trial": 189, "trialdata": {"rt": -1, "trial_type": "single-stim", "stimulus": "<p id=\"stim\">7</p>", "internal_node_id": "0.0-141.0-3.0", "time_elapsed": 864885, "key_press": -1, "trial_index": 189}, "uniqueid": "MTK3257:39N5ACM9HFUP0FD9QFXN47M6LZ49PQ", "dateTime": 1520280808957}, {"current_trial": 190, "trialdata": {"rt": -1, "trial_type": "single-stim", "stimulus": "<p id=\"stim\">6</p>", "internal_node_id": "0.0-141.0-4.0", "time_elapsed": 865885, "key_press": -1, "trial_index": 190}, "uniqueid": "MTK3257:39N5ACM9HFUP0FD9QFXN47M6LZ49PQ", "dateTime": 1520280809958}, {"current_trial": 191, "trialdata": {"rt": -1, "trial_type": "single-stim", "stimulus": "<p id=\"stim\">5</p>", "internal_node_id": "0.0-141.0-5.0", "time_elapsed": 866887, "key_press": -1, "trial_index": 191}, "uniqueid": "MTK3257:39N5ACM9HFUP0FD9QFXN47M6LZ49PQ", "dateTime": 1520280810959}, {"current_trial": 192, "trialdata": {"rt": -1, "trial_type": "single-stim", "stimulus": "<p id=\"stim\">4</p>", "internal_node_id": "0.0-141.0-6.0", "time_elapsed": 867888, "key_press": -1, "trial_index": 192}, "uniqueid": "MTK3257:39N5ACM9HFUP0FD9QFXN47M6LZ49PQ", "dateTime": 1520280811960}, {"current_trial": 193, "trialdata": {"rt": -1, "trial_type": "single-stim", "stimulus": "<p id=\"stim\">3</p>", "internal_node_id": "0.0-141.0-7.0", "time_elapsed": 868890, "key_press": -1, "trial_index": 193}, "uniqueid": "MTK3257:39N5ACM9HFUP0FD9QFXN47M6LZ49PQ", "dateTime": 1520280812962}, {"current_trial": 194, "trialdata": {"rt": -1, "trial_type": "single-stim", "stimulus": "<p id=\"stim\">2</p>", "internal_node_id": "0.0-141.0-8.0", "time_elapsed": 869891, "key_press": -1, "trial_index": 194}, "uniqueid": "MTK3257:39N5ACM9HFUP0FD9QFXN47M6LZ49PQ", "dateTime": 1520280813964}, {"current_trial": 195, "trialdata": {"rt": -1, "trial_type": "single-stim", "stimulus": "<p id=\"stim\">1</p>", "internal_node_id": "0.0-141.0-9.0", "time_elapsed": 870893, "key_press": -1, "trial_index": 195}, "uniqueid": "MTK3257:39N5ACM9HFUP0FD9QFXN47M6LZ49PQ", "dateTime": 1520280814965}, {"current_trial": 196, "trialdata": {"rt": -1, "trial_type": "single-stim", "stimulus": "<p id=\"stim\">+</p>", "internal_node_id": "0.0-142.0-0.0", "time_elapsed": 872394, "key_press": -1, "type": "FIXATION", "trial_index": 196}, "uniqueid": "MTK3257:39N5ACM9HFUP0FD9QFXN47M6LZ49PQ", "dateTime": 1520280816466}, {"current_trial": 197, "trialdata": {"rt": -1, "trial_type": "single-stim", "word": "snack", "stimulus": "<p id=\"stim\">SNACK</p>", "conditions": [24, 1600, "v", 12000], "internal_node_id": "0.0-143.0", "trial": 5, "time_elapsed": 873995, "serialpos": 0, "key_press": -1, "wordID": 1330, "type": "PRES_VIS", "trial_index": 197}, "uniqueid": "MTK3257:39N5ACM9HFUP0FD9QFXN47M6LZ49PQ", "dateTime": 1520280818067}, {"current_trial": 198, "trialdata": {"rt": -1, "trial_type": "single-stim", "word": "worker", "stimulus": "<p id=\"stim\">WORKER</p>", "conditions": [24, 1600, "v", 12000], "internal_node_id": "0.0-144.0", "trial": 5, "time_elapsed": 876672, "serialpos": 1, "key_press": -1, "wordID": 1620, "type": "PRES_VIS", "trial_index": 198}, "uniqueid": "MTK3257:39N5ACM9HFUP0FD9QFXN47M6LZ49PQ", "dateTime": 1520280820745}, {"current_trial": 199, "trialdata": {"rt": -1, "trial_type": "single-stim", "word": "scissors", "stimulus": "<p id=\"stim\">SCISSORS</p>", "conditions": [24, 1600, "v", 12000], "internal_node_id": "0.0-145.0", "trial": 5, "time_elapsed": 879474, "serialpos": 2, "key_press": -1, "wordID": 1249, "type": "PRES_VIS", "trial_index": 199}, "uniqueid": "MTK3257:39N5ACM9HFUP0FD9QFXN47M6LZ49PQ", "dateTime": 1520280823546}, {"current_trial": 200, "trialdata": {"rt": -1, "trial_type": "single-stim", "word": "braces", "stimulus": "<p id=\"stim\">BRACES</p>", "conditions": [24, 1600, "v", 12000], "internal_node_id": "0.0-146.0", "trial": 5, "time_elapsed": 882262, "serialpos": 3, "key_press": -1, "wordID": 163, "type": "PRES_VIS", "trial_index": 200}, "uniqueid": "MTK3257:39N5ACM9HFUP0FD9QFXN47M6LZ49PQ", "dateTime": 1520280826334}, {"current_trial": 201, "trialdata": {"rt": -1, "trial_type": "single-stim", "word": "hamper", "stimulus": "<p id=\"stim\">HAMPER</p>", "conditions": [24, 1600, "v", 12000], "internal_node_id": "0.0-147.0", "trial": 5, "time_elapsed": 884910, "serialpos": 4, "key_press": -1, "wordID": 681, "type": "PRES_VIS", "trial_index": 201}, "uniqueid": "MTK3257:39N5ACM9HFUP0FD9QFXN47M6LZ49PQ", "dateTime": 1520280828983}, {"current_trial": 202, "trialdata": {"rt": -1, "trial_type": "single-stim", "word": "rabbit", "stimulus": "<p id=\"stim\">RABBIT</p>", "conditions": [24, 1600, "v", 12000], "internal_node_id": "0.0-148.0", "trial": 5, "time_elapsed": 887600, "serialpos": 5, "key_press": -1, "wordID": 1151, "type": "PRES_VIS", "trial_index": 202}, "uniqueid": "MTK3257:39N5ACM9HFUP0FD9QFXN47M6LZ49PQ", "dateTime": 1520280831672}, {"current_trial": 203, "trialdata": {"rt": -1, "trial_type": "single-stim", "word": "pigeon", "stimulus": "<p id=\"stim\">PIGEON</p>", "conditions": [24, 1600, "v", 12000], "internal_node_id": "0.0-149.0", "trial": 5, "time_elapsed": 890009, "serialpos": 6, "key_press": -1, "wordID": 1064, "type": "PRES_VIS", "trial_index": 203}, "uniqueid": "MTK3257:39N5ACM9HFUP0FD9QFXN47M6LZ49PQ", "dateTime": 1520280834081}, {"current_trial": 204, "trialdata": {"rt": -1, "trial_type": "single-stim", "word": "atlas", "stimulus": "<p id=\"stim\">ATLAS</p>", "conditions": [24, 1600, "v", 12000], "internal_node_id": "0.0-150.0", "trial": 5, "time_elapsed": 892444, "serialpos": 7, "key_press": -1, "wordID": 52, "type": "PRES_VIS", "trial_index": 204}, "uniqueid": "MTK3257:39N5ACM9HFUP0FD9QFXN47M6LZ49PQ", "dateTime": 1520280836516}, {"current_trial": 205, "trialdata": {"rt": -1, "trial_type": "single-stim", "word": "scalpel", "stimulus": "<p id=\"stim\">SCALPEL</p>", "conditions": [24, 1600, "v", 12000], "internal_node_id": "0.0-151.0", "trial": 5, "time_elapsed": 894873, "serialpos": 8, "key_press": -1, "wordID": 1242, "type": "PRES_VIS", "trial_index": 205}, "uniqueid": "MTK3257:39N5ACM9HFUP0FD9QFXN47M6LZ49PQ", "dateTime": 1520280838946}, {"current_trial": 206, "trialdata": {"rt": -1, "trial_type": "single-stim", "word": "peanut", "stimulus": "<p id=\"stim\">PEANUT</p>", "conditions": [24, 1600, "v", 12000], "internal_node_id": "0.0-152.0", "trial": 5, "time_elapsed": 897579, "serialpos": 9, "key_press": -1, "wordID": 1031, "type": "PRES_VIS", "trial_index": 206}, "uniqueid": "MTK3257:39N5ACM9HFUP0FD9QFXN47M6LZ49PQ", "dateTime": 1520280841651}, {"current_trial": 207, "trialdata": {"rt": -1, "trial_type": "single-stim", "word": "jelly", "stimulus": "<p id=\"stim\">JELLY</p>", "conditions": [24, 1600, "v", 12000], "internal_node_id": "0.0-153.0", "trial": 5, "time_elapsed": 900110, "serialpos": 10, "key_press": -1, "wordID": 754, "type": "PRES_VIS", "trial_index": 207}, "uniqueid": "MTK3257:39N5ACM9HFUP0FD9QFXN47M6LZ49PQ", "dateTime": 1520280844182}, {"current_trial": 208, "trialdata": {"rt": -1, "trial_type": "single-stim", "word": "pocket", "stimulus": "<p id=\"stim\">POCKET</p>", "conditions": [24, 1600, "v", 12000], "internal_node_id": "0.0-154.0", "trial": 5, "time_elapsed": 902611, "serialpos": 11, "key_press": -1, "wordID": 1092, "type": "PRES_VIS", "trial_index": 208}, "uniqueid": "MTK3257:39N5ACM9HFUP0FD9QFXN47M6LZ49PQ", "dateTime": 1520280846683}, {"current_trial": 209, "trialdata": {"rt": -1, "trial_type": "single-stim", "word": "compass", "stimulus": "<p id=\"stim\">COMPASS</p>", "conditions": [24, 1600, "v", 12000], "internal_node_id": "0.0-155.0", "trial": 5, "time_elapsed": 905084, "serialpos": 12, "key_press": -1, "wordID": 357, "type": "PRES_VIS", "trial_index": 209}, "uniqueid": "MTK3257:39N5ACM9HFUP0FD9QFXN47M6LZ49PQ", "dateTime": 1520280849156}, {"current_trial": 210, "trialdata": {"rt": -1, "trial_type": "single-stim", "word": "creature", "stimulus": "<p id=\"stim\">CREATURE</p>", "conditions": [24, 1600, "v", 12000], "internal_node_id": "0.0-156.0", "trial": 5, "time_elapsed": 907847, "serialpos": 13, "key_press": -1, "wordID": 402, "type": "PRES_VIS", "trial_index": 210}, "uniqueid": "MTK3257:39N5ACM9HFUP0FD9QFXN47M6LZ49PQ", "dateTime": 1520280851919}, {"current_trial": 211, "trialdata": {"rt": -1, "trial_type": "single-stim", "word": "dolphin", "stimulus": "<p id=\"stim\">DOLPHIN</p>", "conditions": [24, 1600, "v", 12000], "internal_node_id": "0.0-157.0", "trial": 5, "time_elapsed": 910251, "serialpos": 14, "key_press": -1, "wordID": 482, "type": "PRES_VIS", "trial_index": 211}, "uniqueid": "MTK3257:39N5ACM9HFUP0FD9QFXN47M6LZ49PQ", "dateTime": 1520280854324}, {"current_trial": 212, "trialdata": {"rt": -1, "trial_type": "single-stim", "word": "wardrobe", "stimulus": "<p id=\"stim\">WARDROBE</p>", "conditions": [24, 1600, "v", 12000], "internal_node_id": "0.0-158.0", "trial": 5, "time_elapsed": 912899, "serialpos": 15, "key_press": -1, "wordID": 1586, "type": "PRES_VIS", "trial_index": 212}, "uniqueid": "MTK3257:39N5ACM9HFUP0FD9QFXN47M6LZ49PQ", "dateTime": 1520280856971}, {"current_trial": 213, "trialdata": {"rt": -1, "trial_type": "single-stim", "word": "dresser", "stimulus": "<p id=\"stim\">DRESSER</p>", "conditions": [24, 1600, "v", 12000], "internal_node_id": "0.0-159.0", "trial": 5, "time_elapsed": 915568, "serialpos": 16, "key_press": -1, "wordID": 495, "type": "PRES_VIS", "trial_index": 213}, "uniqueid": "MTK3257:39N5ACM9HFUP0FD9QFXN47M6LZ49PQ", "dateTime": 1520280859640}, {"current_trial": 214, "trialdata": {"rt": -1, "trial_type": "single-stim", "word": "tile", "stimulus": "<p id=\"stim\">TILE</p>", "conditions": [24, 1600, "v", 12000], "internal_node_id": "0.0-160.0", "trial": 5, "time_elapsed": 918294, "serialpos": 17, "key_press": -1, "wordID": 1467, "type": "PRES_VIS", "trial_index": 214}, "uniqueid": "MTK3257:39N5ACM9HFUP0FD9QFXN47M6LZ49PQ", "dateTime": 1520280862366}, {"current_trial": 215, "trialdata": {"rt": -1, "trial_type": "single-stim", "word": "brick", "stimulus": "<p id=\"stim\">BRICK</p>", "conditions": [24, 1600, "v", 12000], "internal_node_id": "0.0-161.0", "trial": 5, "time_elapsed": 920969, "serialpos": 18, "key_press": -1, "wordID": 171, "type": "PRES_VIS", "trial_index": 215}, "uniqueid": "MTK3257:39N5ACM9HFUP0FD9QFXN47M6LZ49PQ", "dateTime": 1520280865041}, {"current_trial": 216, "trialdata": {"rt": -1, "trial_type": "single-stim", "word": "wrench", "stimulus": "<p id=\"stim\">WRENCH</p>", "conditions": [24, 1600, "v", 12000], "internal_node_id": "0.0-162.0", "trial": 5, "time_elapsed": 923763, "serialpos": 19, "key_press": -1, "wordID": 1624, "type": "PRES_VIS", "trial_index": 216}, "uniqueid": "MTK3257:39N5ACM9HFUP0FD9QFXN47M6LZ49PQ", "dateTime": 1520280867835}, {"current_trial": 217, "trialdata": {"rt": -1, "trial_type": "single-stim", "word": "turtle", "stimulus": "<p id=\"stim\">TURTLE</p>", "conditions": [24, 1600, "v", 12000], "internal_node_id": "0.0-163.0", "trial": 5, "time_elapsed": 926461, "serialpos": 20, "key_press": -1, "wordID": 1521, "type": "PRES_VIS", "trial_index": 217}, "uniqueid": "MTK3257:39N5ACM9HFUP0FD9QFXN47M6LZ49PQ", "dateTime": 1520280870533}, {"current_trial": 218, "trialdata": {"rt": -1, "trial_type": "single-stim", "word": "ankle", "stimulus": "<p id=\"stim\">ANKLE</p>", "conditions": [24, 1600, "v", 12000], "internal_node_id": "0.0-164.0", "trial": 5, "time_elapsed": 929234, "serialpos": 21, "key_press": -1, "wordID": 23, "type": "PRES_VIS", "trial_index": 218}, "uniqueid": "MTK3257:39N5ACM9HFUP0FD9QFXN47M6LZ49PQ", "dateTime": 1520280873306}, {"current_trial": 219, "trialdata": {"rt": -1, "trial_type": "single-stim", "word": "chipmunk", "stimulus": "<p id=\"stim\">CHIPMUNK</p>", "conditions": [24, 1600, "v", 12000], "internal_node_id": "0.0-165.0", "trial": 5, "time_elapsed": 931840, "serialpos": 22, "key_press": -1, "wordID": 303, "type": "PRES_VIS", "trial_index": 219}, "uniqueid": "MTK3257:39N5ACM9HFUP0FD9QFXN47M6LZ49PQ", "dateTime": 1520280875912}, {"current_trial": 220, "trialdata": {"rt": -1, "trial_type": "single-stim", "word": "tweezers", "stimulus": "<p id=\"stim\">TWEEZERS</p>", "conditions": [24, 1600, "v", 12000], "internal_node_id": "0.0-166.0", "trial": 5, "time_elapsed": 934282, "serialpos": 23, "key_press": -1, "wordID": 1525, "type": "PRES_VIS", "trial_index": 220}, "uniqueid": "MTK3257:39N5ACM9HFUP0FD9QFXN47M6LZ49PQ", "dateTime": 1520280878354}, {"current_trial": 221, "trialdata": {"rt": -1, "trial_type": "single-stim", "stimulus": "", "internal_node_id": "0.0-167.0-0.0", "time_elapsed": 936563, "key_press": -1, "type": "PRE_RECALL_DELAY", "trial_index": 221}, "uniqueid": "MTK3257:39N5ACM9HFUP0FD9QFXN47M6LZ49PQ", "dateTime": 1520280880635}, {"current_trial": 222, "trialdata": {"rt": -1000, "trial_type": "single-audio", "stimulus": "/static/audio/400Hz.wav", "internal_node_id": "0.0-168.0", "time_elapsed": 937066, "key_press": -1, "type": "PRE_RECALL_ALERT", "trial_index": 222}, "uniqueid": "MTK3257:39N5ACM9HFUP0FD9QFXN47M6LZ49PQ", "dateTime": 1520280881138}, {"current_trial": 223, "trialdata": {"rt": [2679, 4590, 7460, 9233, 10561, 12471, 16621, 21018, 24057, 26245, 38663, 40605], "recwords": ["turtle", "chipmunk", "tweezers", "pidgeon", "snack", "worker", "tile", "brick", "wardrobe", "dresser", "peanut", "jelly"], "key_times": [1711, 1921, 2016, 2401, 2471, 2605, 2679, 2978, 3042, 3185, 3255, 3633, 3867, 4095, 4175, 4590, 4965, 5210, 5438, 5782, 5934, 6144, 6208, 6710, 7460, 8183, 8373, 8560, 8753, 8860, 8907, 9030, 9233, 9557, 9876, 9982, 10239, 10331, 10561, 11666, 11762, 11908, 11967, 12063, 12164, 12471, 16133, 16311, 16369, 16508, 16621, 20008, 20277, 20434, 20625, 20720, 21018, 21749, 21915, 22058, 22132, 22455, 22562, 22747, 23362, 23778, 23907, 24057, 25153, 25395, 25480, 25613, 25797, 25925, 26020, 26245, 37866, 37966, 38036, 38127, 38420, 38517, 38663, 39109, 39210, 39322, 39452, 39672, 40605], "trial_type": "free-recall", "conditions": [24, 1600, "v", 12000], "internal_node_id": "0.0-169.0-0.0", "key_presses": [84, 85, 82, 84, 76, 69, 13, 67, 72, 73, 80, 77, 85, 78, 75, 13, 84, 87, 69, 69, 90, 69, 82, 83, 13, 80, 73, 68, 71, 69, 79, 78, 13, 83, 78, 65, 67, 75, 32, 87, 79, 82, 75, 69, 82, 13, 84, 73, 76, 69, 13, 66, 82, 73, 67, 75, 13, 87, 65, 82, 68, 82, 79, 83, 8, 66, 69, 13, 68, 82, 69, 83, 83, 69, 82, 13, 80, 69, 65, 78, 85, 84, 13, 74, 69, 76, 76, 89, 13], "trial": 5, "time_elapsed": 997067, "type": "FREE_RECALL", "trial_index": 223}, "uniqueid": "MTK3257:39N5ACM9HFUP0FD9QFXN47M6LZ49PQ", "dateTime": 1520280941141}, {"current_trial": 224, "trialdata": {"rt": 5843, "trial_type": "text", "internal_node_id": "0.0-170.0", "time_elapsed": 1004914, "key_press": 32, "type": "INSTRUCTIONS", "trial_index": 224}, "uniqueid": "MTK3257:39N5ACM9HFUP0FD9QFXN47M6LZ49PQ", "dateTime": 1520280948987}, {"current_trial": 225, "trialdata": {"rt": [1460, 3001, 3948, 5784, 9379, 10931], "trial_type": "math-distractor", "key_times": [886, 1132, 1460, 2735, 2815, 3001, 3793, 3948, 5483, 5626, 5784, 7931, 8659, 9122, 9224, 9379, 10637, 10813, 10931], "responses": ["10", "15", "5", "21", "23", "14"], "num2": [4, 9, 3, 8, 8, 4, 8], "num3": [1, 5, 1, 7, 6, 8, 6], "conditions": [12, 1600, "v", 12000], "internal_node_id": "0.0-171.0", "key_presses": [97, 96, 13, 97, 101, 13, 101, 13, 98, 97, 13, 97, 8, 98, 99, 13, 97, 100, 13], "trial": 6, "time_elapsed": 1018919, "type": "DISTRACTOR", "trial_index": 225, "num1": [5, 1, 1, 6, 9, 2, 6]}, "uniqueid": "MTK3257:39N5ACM9HFUP0FD9QFXN47M6LZ49PQ", "dateTime": 1520280962992}, {"current_trial": 226, "trialdata": {"rt": -1, "trial_type": "single-stim", "stimulus": "<p id=\"stim\">10</p>", "internal_node_id": "0.0-172.0-0.0", "time_elapsed": 1021922, "key_press": -1, "trial_index": 226}, "uniqueid": "MTK3257:39N5ACM9HFUP0FD9QFXN47M6LZ49PQ", "dateTime": 1520280965994}, {"current_trial": 227, "trialdata": {"rt": -1, "trial_type": "single-stim", "stimulus": "<p id=\"stim\">9</p>", "internal_node_id": "0.0-172.0-1.0", "time_elapsed": 1022923, "key_press": -1, "trial_index": 227}, "uniqueid": "MTK3257:39N5ACM9HFUP0FD9QFXN47M6LZ49PQ", "dateTime": 1520280966995}, {"current_trial": 228, "trialdata": {"rt": -1, "trial_type": "single-stim", "stimulus": "<p id=\"stim\">8</p>", "internal_node_id": "0.0-172.0-2.0", "time_elapsed": 1023925, "key_press": -1, "trial_index": 228}, "uniqueid": "MTK3257:39N5ACM9HFUP0FD9QFXN47M6LZ49PQ", "dateTime": 1520280967997}, {"current_trial": 229, "trialdata": {"rt": -1, "trial_type": "single-stim", "stimulus": "<p id=\"stim\">7</p>", "internal_node_id": "0.0-172.0-3.0", "time_elapsed": 1024927, "key_press": -1, "trial_index": 229}, "uniqueid": "MTK3257:39N5ACM9HFUP0FD9QFXN47M6LZ49PQ", "dateTime": 1520280968999}, {"current_trial": 230, "trialdata": {"rt": -1, "trial_type": "single-stim", "stimulus": "<p id=\"stim\">6</p>", "internal_node_id": "0.0-172.0-4.0", "time_elapsed": 1025930, "key_press": -1, "trial_index": 230}, "uniqueid": "MTK3257:39N5ACM9HFUP0FD9QFXN47M6LZ49PQ", "dateTime": 1520280970002}, {"current_trial": 231, "trialdata": {"rt": -1, "trial_type": "single-stim", "stimulus": "<p id=\"stim\">5</p>", "internal_node_id": "0.0-172.0-5.0", "time_elapsed": 1026933, "key_press": -1, "trial_index": 231}, "uniqueid": "MTK3257:39N5ACM9HFUP0FD9QFXN47M6LZ49PQ", "dateTime": 1520280971005}, {"current_trial": 232, "trialdata": {"rt": -1, "trial_type": "single-stim", "stimulus": "<p id=\"stim\">4</p>", "internal_node_id": "0.0-172.0-6.0", "time_elapsed": 1027934, "key_press": -1, "trial_index": 232}, "uniqueid": "MTK3257:39N5ACM9HFUP0FD9QFXN47M6LZ49PQ", "dateTime": 1520280972006}, {"current_trial": 233, "trialdata": {"rt": -1, "trial_type": "single-stim", "stimulus": "<p id=\"stim\">3</p>", "internal_node_id": "0.0-172.0-7.0", "time_elapsed": 1028936, "key_press": -1, "trial_index": 233}, "uniqueid": "MTK3257:39N5ACM9HFUP0FD9QFXN47M6LZ49PQ", "dateTime": 1520280973008}, {"current_trial": 234, "trialdata": {"rt": -1, "trial_type": "single-stim", "stimulus": "<p id=\"stim\">2</p>", "internal_node_id": "0.0-172.0-8.0", "time_elapsed": 1029938, "key_press": -1, "trial_index": 234}, "uniqueid": "MTK3257:39N5ACM9HFUP0FD9QFXN47M6LZ49PQ", "dateTime": 1520280974010}, {"current_trial": 235, "trialdata": {"rt": -1, "trial_type": "single-stim", "stimulus": "<p id=\"stim\">1</p>", "internal_node_id": "0.0-172.0-9.0", "time_elapsed": 1030940, "key_press": -1, "trial_index": 235}, "uniqueid": "MTK3257:39N5ACM9HFUP0FD9QFXN47M6LZ49PQ", "dateTime": 1520280975012}, {"current_trial": 236, "trialdata": {"rt": -1, "trial_type": "single-stim", "stimulus": "<p id=\"stim\">+</p>", "internal_node_id": "0.0-173.0-0.0", "time_elapsed": 1032441, "key_press": -1, "type": "FIXATION", "trial_index": 236}, "uniqueid": "MTK3257:39N5ACM9HFUP0FD9QFXN47M6LZ49PQ", "dateTime": 1520280976513}, {"current_trial": 237, "trialdata": {"rt": -1, "trial_type": "single-stim", "word": "window", "stimulus": "<p id=\"stim\">WINDOW</p>", "conditions": [12, 1600, "v", 12000], "internal_node_id": "0.0-174.0", "trial": 6, "time_elapsed": 1034043, "serialpos": 0, "key_press": -1, "wordID": 1610, "type": "PRES_VIS", "trial_index": 237}, "uniqueid": "MTK3257:39N5ACM9HFUP0FD9QFXN47M6LZ49PQ", "dateTime": 1520280978115}, {"current_trial": 238, "trialdata": {"rt": -1, "trial_type": "single-stim", "word": "pork", "stimulus": "<p id=\"stim\">PORK</p>", "conditions": [12, 1600, "v", 12000], "internal_node_id": "0.0-175.0", "trial": 6, "time_elapsed": 1036802, "serialpos": 1, "key_press": -1, "wordID": 1107, "type": "PRES_VIS", "trial_index": 238}, "uniqueid": "MTK3257:39N5ACM9HFUP0FD9QFXN47M6LZ49PQ", "dateTime": 1520280980874}, {"current_trial": 239, "trialdata": {"rt": -1, "trial_type": "single-stim", "word": "machine", "stimulus": "<p id=\"stim\">MACHINE</p>", "conditions": [12, 1600, "v", 12000], "internal_node_id": "0.0-176.0", "trial": 6, "time_elapsed": 1039225, "serialpos": 2, "key_press": -1, "wordID": 851, "type": "PRES_VIS", "trial_index": 239}, "uniqueid": "MTK3257:39N5ACM9HFUP0FD9QFXN47M6LZ49PQ", "dateTime": 1520280983297}, {"current_trial": 240, "trialdata": {"rt": -1, "trial_type": "single-stim", "word": "coffee", "stimulus": "<p id=\"stim\">COFFEE</p>", "conditions": [12, 1600, "v", 12000], "internal_node_id": "0.0-177.0", "trial": 6, "time_elapsed": 1041698, "serialpos": 3, "key_press": -1, "wordID": 340, "type": "PRES_VIS", "trial_index": 240}, "uniqueid": "MTK3257:39N5ACM9HFUP0FD9QFXN47M6LZ49PQ", "dateTime": 1520280985770}, {"current_trial": 241, "trialdata": {"rt": -1, "trial_type": "single-stim", "word": "japan", "stimulus": "<p id=\"stim\">JAPAN</p>", "conditions": [12, 1600, "v", 12000], "internal_node_id": "0.0-178.0", "trial": 6, "time_elapsed": 1044306, "serialpos": 4, "key_press": -1, "wordID": 748, "type": "PRES_VIS", "trial_index": 241}, "uniqueid": "MTK3257:39N5ACM9HFUP0FD9QFXN47M6LZ49PQ", "dateTime": 1520280988378}, {"current_trial": 242, "trialdata": {"rt": -1, "trial_type": "single-stim", "word": "cook", "stimulus": "<p id=\"stim\">COOK</p>", "conditions": [12, 1600, "v", 12000], "internal_node_id": "0.0-179.0", "trial": 6, "time_elapsed": 1047036, "serialpos": 5, "key_press": -1, "wordID": 371, "type": "PRES_VIS", "trial_index": 242}, "uniqueid": "MTK3257:39N5ACM9HFUP0FD9QFXN47M6LZ49PQ", "dateTime": 1520280991108}, {"current_trial": 243, "trialdata": {"rt": -1, "trial_type": "single-stim", "word": "fungus", "stimulus": "<p id=\"stim\">FUNGUS</p>", "conditions": [12, 1600, "v", 12000], "internal_node_id": "0.0-180.0", "trial": 6, "time_elapsed": 1049777, "serialpos": 6, "key_press": -1, "wordID": 613, "type": "PRES_VIS", "trial_index": 243}, "uniqueid": "MTK3257:39N5ACM9HFUP0FD9QFXN47M6LZ49PQ", "dateTime": 1520280993849}, {"current_trial": 244, "trialdata": {"rt": -1, "trial_type": "single-stim", "word": "wasp", "stimulus": "<p id=\"stim\">WASP</p>", "conditions": [12, 1600, "v", 12000], "internal_node_id": "0.0-181.0", "trial": 6, "time_elapsed": 1052396, "serialpos": 7, "key_press": -1, "wordID": 1592, "type": "PRES_VIS", "trial_index": 244}, "uniqueid": "MTK3257:39N5ACM9HFUP0FD9QFXN47M6LZ49PQ", "dateTime": 1520280996468}, {"current_trial": 245, "trialdata": {"rt": -1, "trial_type": "single-stim", "word": "asia", "stimulus": "<p id=\"stim\">ASIA</p>", "conditions": [12, 1600, "v", 12000], "internal_node_id": "0.0-182.0", "trial": 6, "time_elapsed": 1054873, "serialpos": 8, "key_press": -1, "wordID": 45, "type": "PRES_VIS", "trial_index": 245}, "uniqueid": "MTK3257:39N5ACM9HFUP0FD9QFXN47M6LZ49PQ", "dateTime": 1520280998945}, {"current_trial": 246, "trialdata": {"rt": -1, "trial_type": "single-stim", "word": "cousin", "stimulus": "<p id=\"stim\">COUSIN</p>", "conditions": [12, 1600, "v", 12000], "internal_node_id": "0.0-183.0", "trial": 6, "time_elapsed": 1057519, "serialpos": 9, "key_press": -1, "wordID": 391, "type": "PRES_VIS", "trial_index": 246}, "uniqueid": "MTK3257:39N5ACM9HFUP0FD9QFXN47M6LZ49PQ", "dateTime": 1520281001591}, {"current_trial": 247, "trialdata": {"rt": -1, "trial_type": "single-stim", "word": "skirt", "stimulus": "<p id=\"stim\">SKIRT</p>", "conditions": [12, 1600, "v", 12000], "internal_node_id": "0.0-184.0", "trial": 6, "time_elapsed": 1060082, "serialpos": 10, "key_press": -1, "wordID": 1318, "type": "PRES_VIS", "trial_index": 247}, "uniqueid": "MTK3257:39N5ACM9HFUP0FD9QFXN47M6LZ49PQ", "dateTime": 1520281004154}, {"current_trial": 248, "trialdata": {"rt": -1, "trial_type": "single-stim", "word": "tourist", "stimulus": "<p id=\"stim\">TOURIST</p>", "conditions": [12, 1600, "v", 12000], "internal_node_id": "0.0-185.0", "trial": 6, "time_elapsed": 1062514, "serialpos": 11, "key_press": -1, "wordID": 1487, "type": "PRES_VIS", "trial_index": 248}, "uniqueid": "MTK3257:39N5ACM9HFUP0FD9QFXN47M6LZ49PQ", "dateTime": 1520281006586}, {"current_trial": 249, "trialdata": {"rt": -1, "trial_type": "single-stim", "stimulus": "", "internal_node_id": "0.0-186.0-0.0", "time_elapsed": 1064680, "key_press": -1, "type": "PRE_RECALL_DELAY", "trial_index": 249}, "uniqueid": "MTK3257:39N5ACM9HFUP0FD9QFXN47M6LZ49PQ", "dateTime": 1520281008752}, {"current_trial": 250, "trialdata": {"rt": -1000, "trial_type": "single-audio", "stimulus": "/static/audio/400Hz.wav", "internal_node_id": "0.0-187.0", "time_elapsed": 1065185, "key_press": -1, "type": "PRE_RECALL_ALERT", "trial_index": 250}, "uniqueid": "MTK3257:39N5ACM9HFUP0FD9QFXN47M6LZ49PQ", "dateTime": 1520281009257}, {"current_trial": 251, "trialdata": {"rt": [2001, 3482, 4629, 5735, 6849, 8469, 9850, 10886, 14500], "recwords": ["tourist", "cousin", "asia", "japan", "window", "mac