{"assignmentId": "3LJ7UR74RIKO0OVKT5O4JA6VZHP4N7", "workerId": "MTK3697", "questiondata": {"origin": "United States", "strat-rehearsal": "35", "marital": "Single", "education": "High school diploma", "ethnicity": "Not Hispanic", "color_depth": 24, "distracted": "No", "wrote-notes": "No", "strat-other": "", "screen_width": 1536, "avail_screen_width": 1536, "avail_screen_height": 824, "strat-image": "94", "language": "english", "gender": "Female", "age": "49", "gender_other": "", "race": ["Black"], "strat-categorize": "100", "pixel_depth": 24, "strat-spatial": "27", "strat-story": "83", "race_other": "", "screen_height": 864}, "bonus": 0, "hitId": "3FI30CQHVKQYRIC7J1780TUVT396B5", "counterbalance": 609, "useragent": "Mozilla/5.0 (Windows NT 10.0; Win64; x64) AppleWebKit/537.36 (KHTML, like Gecko) Chrome/64.0.3282.186 Safari/537.36", "eventdata": [{"eventtype": "initialized", "interval": 0, "value": null, "timestamp": 1520961476545}, {"eventtype": "window_resize", "interval": 0, "value": [1540, 816], "timestamp": 1520961476545}, {"eventtype": "focus", "interval": 34758, "value": "off", "timestamp": 1520961511303}, {"eventtype": "focus", "interval": 9386, "value": "on", "timestamp": 1520961520689}, {"eventtype": "focus", "interval": 285871, "value": "off", "timestamp": 1520961806560}, {"eventtype": "focus", "interval": 3601, "value": "on", "timestamp": 1520961810161}, {"eventtype": "focus", "interval": 1670183, "value": "off", "timestamp": 1520963480344}, {"eventtype": "focus", "interval": 3192, "value": "on", "timestamp": 1520963483536}], "data": [{"current_trial": 0, "trialdata": {"rt": 1801, "trial_type": "text", "internal_node_id": "0.0-0.0", "time_elapsed": 1807, "key_press": 32, "type": "INSTRUCTIONS", "trial_index": 0}, "uniqueid": "MTK3697:3LJ7UR74RIKO0OVKT5O4JA6VZHP4N7", "dateTime": 1520961489881}, {"current_trial": 1, "trialdata": {"rt": 47208, "trial_type": "text", "internal_node_id": "0.0-1.0", "time_elapsed": 49022, "key_press": 32, "type": "INSTRUCTIONS", "trial_index": 1}, "uniqueid": "MTK3697:3LJ7UR74RIKO0OVKT5O4JA6VZHP4N7", "dateTime": 1520961537094}, {"current_trial": 2, "trialdata": {"rt": [10344], "trial_type": "audio-test", "responses": ["ocean"], "internal_node_id": "0.0-2.0", "time_elapsed": 59389, "type": "AUDIO_TEST", "trial_index": 2}, "uniqueid": "MTK3697:3LJ7UR74RIKO0OVKT5O4JA6VZHP4N7", "dateTime": 1520961547461}, {"current_trial": 3, "trialdata": {"rt": [9055], "trial_type": "audio-test", "responses": ["crystal"], "internal_node_id": "0.0-3.0", "time_elapsed": 68457, "type": "AUDIO_TEST", "trial_index": 3}, "uniqueid": "MTK3697:3LJ7UR74RIKO0OVKT5O4JA6VZHP4N7", "dateTime": 1520961556529}, {"current_trial": 4, "trialdata": {"rt": [5206], "trial_type": "audio-test", "responses": ["spice"], "internal_node_id": "0.0-4.0", "time_elapsed": 73676, "type": "AUDIO_TEST", "trial_index": 4}, "uniqueid": "MTK3697:3LJ7UR74RIKO0OVKT5O4JA6VZHP4N7", "dateTime": 1520961561749}, {"current_trial": 5, "trialdata": {"rt": 86229, "trial_type": "survey-text", "responses": "{\"Q0\":\"2:00 am\",\"Q1\":\"8:00 am\",\"Q2\":\"4\"}", "internal_node_id": "0.0-5.0", "time_elapsed": 160662, "type": "SLEEP_SURVEY", "trial_index": 5}, "uniqueid": "MTK3697:3LJ7UR74RIKO0OVKT5O4JA6VZHP4N7", "dateTime": 1520961648734}, {"current_trial": 6, "trialdata": {"rt": 105731, "trial_type": "text", "internal_node_id": "0.0-6.0", "time_elapsed": 267395, "key_press": 32, "type": "INSTRUCTIONS", "trial_index": 6}, "uniqueid": "MTK3697:3LJ7UR74RIKO0OVKT5O4JA6VZHP4N7", "dateTime": 1520961755467}, {"current_trial": 7, "trialdata": {"rt": 14758, "trial_type": "text", "internal_node_id": "0.0-7.0", "time_elapsed": 282655, "key_press": 32, "type": "INSTRUCTIONS", "trial_index": 7}, "uniqueid": "MTK3697:3LJ7UR74RIKO0OVKT5O4JA6VZHP4N7", "dateTime": 1520961770727}, {"current_trial": 8, "trialdata": {"rt": 9020, "trial_type": "text", "internal_node_id": "0.0-8.0", "time_elapsed": 292179, "key_press": 32, "type": "INSTRUCTIONS", "trial_index": 8}, "uniqueid": "MTK3697:3LJ7UR74RIKO0OVKT5O4JA6VZHP4N7", "dateTime": 1520961780251}, {"current_trial": 9, "trialdata": {"rt": [13513, 17137], "trial_type": "math-distractor", "key_times": [3969, 4880, 13513, 15727, 16338, 17137], "responses": ["25", "10"], "num2": [9, 1, 3], "num3": [8, 4, 5], "conditions": [18, 1200, "a", 18000], "internal_node_id": "0.0-9.0", "key_presses": [50, 53, 13, 49, 48, 13], "trial": 0, "time_elapsed": 311189, "type": "DISTRACTOR", "trial_index": 9, "num1": [8, 5, 8]}, "uniqueid": "MTK3697:3LJ7UR74RIKO0OVKT5O4JA6VZHP4N7", "dateTime": 1520961799261}, {"current_trial": 10, "trialdata": {"rt": -1, "trial_type": "single-stim", "stimulus": "<p id=\"stim\">10</p>", "internal_node_id": "0.0-10.0-0.0", "time_elapsed": 314195, "key_press": -1, "trial_index": 10}, "uniqueid": "MTK3697:3LJ7UR74RIKO0OVKT5O4JA6VZHP4N7", "dateTime": 1520961802267}, {"current_trial": 11, "trialdata": {"rt": -1, "trial_type": "single-stim", "stimulus": "<p id=\"stim\">9</p>", "internal_node_id": "0.0-10.0-1.0", "time_elapsed": 315196, "key_press": -1, "trial_index": 11}, "uniqueid": "MTK3697:3LJ7UR74RIKO0OVKT5O4JA6VZHP4N7", "dateTime": 1520961803268}, {"current_trial": 12, "trialdata": {"rt": -1, "trial_type": "single-stim", "stimulus": "<p id=\"stim\">8</p>", "internal_node_id": "0.0-10.0-2.0", "time_elapsed": 316198, "key_press": -1, "trial_index": 12}, "uniqueid": "MTK3697:3LJ7UR74RIKO0OVKT5O4JA6VZHP4N7", "dateTime": 1520961804270}, {"current_trial": 13, "trialdata": {"rt": -1, "trial_type": "single-stim", "stimulus": "<p id=\"stim\">7</p>", "internal_node_id": "0.0-10.0-3.0", "time_elapsed": 317202, "key_press": -1, "trial_index": 13}, "uniqueid": "MTK3697:3LJ7UR74RIKO0OVKT5O4JA6VZHP4N7", "dateTime": 1520961805274}, {"current_trial": 14, "trialdata": {"rt": -1, "trial_type": "single-stim", "stimulus": "<p id=\"stim\">6</p>", "internal_node_id": "0.0-10.0-4.0", "time_elapsed": 318203, "key_press": -1, "trial_index": 14}, "uniqueid": "MTK3697:3LJ7UR74RIKO0OVKT5O4JA6VZHP4N7", "dateTime": 1520961806275}, {"current_trial": 15, "trialdata": {"rt": -1, "trial_type": "single-stim", "stimulus": "<p id=\"stim\">5</p>", "internal_node_id": "0.0-10.0-5.0", "time_elapsed": 319206, "key_press": -1, "trial_index": 15}, "uniqueid": "MTK3697:3LJ7UR74RIKO0OVKT5O4JA6VZHP4N7", "dateTime": 1520961807278}, {"current_trial": 16, "trialdata": {"rt": -1, "trial_type": "single-stim", "stimulus": "<p id=\"stim\">4</p>", "internal_node_id": "0.0-10.0-6.0", "time_elapsed": 320208, "key_press": -1, "trial_index": 16}, "uniqueid": "MTK3697:3LJ7UR74RIKO0OVKT5O4JA6VZHP4N7", "dateTime": 1520961808280}, {"current_trial": 17, "trialdata": {"rt": -1, "trial_type": "single-stim", "stimulus": "<p id=\"stim\">3</p>", "internal_node_id": "0.0-10.0-7.0", "time_elapsed": 321209, "key_press": -1, "trial_index": 17}, "uniqueid": "MTK3697:3LJ7UR74RIKO0OVKT5O4JA6VZHP4N7", "dateTime": 1520961809281}, {"current_trial": 18, "trialdata": {"rt": -1, "trial_type": "single-stim", "stimulus": "<p id=\"stim\">2</p>", "internal_node_id": "0.0-10.0-8.0", "time_elapsed": 322211, "key_press": -1, "trial_index": 18}, "uniqueid": "MTK3697:3LJ7UR74RIKO0OVKT5O4JA6VZHP4N7", "dateTime": 1520961810283}, {"current_trial": 19, "trialdata": {"rt": -1, "trial_type": "single-stim", "stimulus": "<p id=\"stim\">1</p>", "internal_node_id": "0.0-10.0-9.0", "time_elapsed": 323212, "key_press": -1, "trial_index": 19}, "uniqueid": "MTK3697:3LJ7UR74RIKO0OVKT5O4JA6VZHP4N7", "dateTime": 1520961811285}, {"current_trial": 20, "trialdata": {"rt": -1, "trial_type": "single-stim", "stimulus": "<p id=\"stim\">+</p>", "internal_node_id": "0.0-11.0-0.0", "time_elapsed": 324714, "key_press": -1, "type": "FIXATION", "trial_index": 20}, "uniqueid": "MTK3697:3LJ7UR74RIKO0OVKT5O4JA6VZHP4N7", "dateTime": 1520961812786}, {"current_trial": 21, "trialdata": {"rt": -1000, "trial_type": "single-audio", "word": "sparrow", "stimulus": "/static/audio/wordpool/SPARROW.wav", "conditions": [18, 1200, "a", 18000], "internal_node_id": "0.0-12.0", "trial": 0, "time_elapsed": 327079, "serialpos": 0, "key_press": -1, "wordID": 1346, "type": "PRES_AUD", "trial_index": 21}, "uniqueid": "MTK3697:3LJ7UR74RIKO0OVKT5O4JA6VZHP4N7", "dateTime": 1520961815151}, {"current_trial": 22, "trialdata": {"rt": -1000, "trial_type": "single-audio", "word": "shoulder", "stimulus": "/static/audio/wordpool/SHOULDER.wav", "conditions": [18, 1200, "a", 18000], "internal_node_id": "0.0-13.0", "trial": 0, "time_elapsed": 329343, "serialpos": 1, "key_press": -1, "wordID": 1293, "type": "PRES_AUD", "trial_index": 22}, "uniqueid": "MTK3697:3LJ7UR74RIKO0OVKT5O4JA6VZHP4N7", "dateTime": 1520961817415}, {"current_trial": 23, "trialdata": {"rt": -1000, "trial_type": "single-audio", "word": "cattle", "stimulus": "/static/audio/wordpool/CATTLE.wav", "conditions": [18, 1200, "a", 18000], "internal_node_id": "0.0-14.0", "trial": 0, "time_elapsed": 331720, "serialpos": 2, "key_press": -1, "wordID": 260, "type": "PRES_AUD", "trial_index": 23}, "uniqueid": "MTK3697:3LJ7UR74RIKO0OVKT5O4JA6VZHP4N7", "dateTime": 1520961819792}, {"current_trial": 24, "trialdata": {"rt": -1000, "trial_type": "single-audio", "word": "hawk", "stimulus": "/static/audio/wordpool/HAWK.wav", "conditions": [18, 1200, "a", 18000], "internal_node_id": "0.0-15.0", "trial": 0, "time_elapsed": 333952, "serialpos": 3, "key_press": -1, "wordID": 691, "type": "PRES_AUD", "trial_index": 24}, "uniqueid": "MTK3697:3LJ7UR74RIKO0OVKT5O4JA6VZHP4N7", "dateTime": 1520961822024}, {"current_trial": 25, "trialdata": {"rt": -1000, "trial_type": "single-audio", "word": "panther", "stimulus": "/static/audio/wordpool/PANTHER.wav", "conditions": [18, 1200, "a", 18000], "internal_node_id": "0.0-16.0", "trial": 0, "time_elapsed": 336349, "serialpos": 4, "key_press": -1, "wordID": 1008, "type": "PRES_AUD", "trial_index": 25}, "uniqueid": "MTK3697:3LJ7UR74RIKO0OVKT5O4JA6VZHP4N7", "dateTime": 1520961824421}, {"current_trial": 26, "trialdata": {"rt": -1000, "trial_type": "single-audio", "word": "champagne", "stimulus": "/static/audio/wordpool/CHAMPAGNE.wav", "conditions": [18, 1200, "a", 18000], "internal_node_id": "0.0-17.0", "trial": 0, "time_elapsed": 338379, "serialpos": 5, "key_press": -1, "wordID": 277, "type": "PRES_AUD", "trial_index": 26}, "uniqueid": "MTK3697:3LJ7UR74RIKO0OVKT5O4JA6VZHP4N7", "dateTime": 1520961826451}, {"current_trial": 27, "trialdata": {"rt": -1000, "trial_type": "single-audio", "word": "barrel", "stimulus": "/static/audio/wordpool/BARREL.wav", "conditions": [18, 1200, "a", 18000], "internal_node_id": "0.0-18.0", "trial": 0, "time_elapsed": 340562, "serialpos": 6, "key_press": -1, "wordID": 90, "type": "PRES_AUD", "trial_index": 27}, "uniqueid": "MTK3697:3LJ7UR74RIKO0OVKT5O4JA6VZHP4N7", "dateTime": 1520961828634}, {"current_trial": 28, "trialdata": {"rt": -1000, "trial_type": "single-audio", "word": "window", "stimulus": "/static/audio/wordpool/WINDOW.wav", "conditions": [18, 1200, "a", 18000], "internal_node_id": "0.0-19.0", "trial": 0, "time_elapsed": 342658, "serialpos": 7, "key_press": -1, "wordID": 1610, "type": "PRES_AUD", "trial_index": 28}, "uniqueid": "MTK3697:3LJ7UR74RIKO0OVKT5O4JA6VZHP4N7", "dateTime": 1520961830730}, {"current_trial": 29, "trialdata": {"rt": -1000, "trial_type": "single-audio", "word": "candy", "stimulus": "/static/audio/wordpool/CANDY.wav", "conditions": [18, 1200, "a", 18000], "internal_node_id": "0.0-20.0", "trial": 0, "time_elapsed": 344735, "serialpos": 8, "key_press": -1, "wordID": 229, "type": "PRES_AUD", "trial_index": 29}, "uniqueid": "MTK3697:3LJ7UR74RIKO0OVKT5O4JA6VZHP4N7", "dateTime": 1520961832807}, {"current_trial": 30, "trialdata": {"rt": -1000, "trial_type": "single-audio", "word": "washer", "stimulus": "/static/audio/wordpool/WASHER.wav", "conditions": [18, 1200, "a", 18000], "internal_node_id": "0.0-21.0", "trial": 0, "time_elapsed": 346898, "serialpos": 9, "key_press": -1, "wordID": 1591, "type": "PRES_AUD", "trial_index": 30}, "uniqueid": "MTK3697:3LJ7UR74RIKO0OVKT5O4JA6VZHP4N7", "dateTime": 1520961834970}, {"current_trial": 31, "trialdata": {"rt": -1000, "trial_type": "single-audio", "word": "binder", "stimulus": "/static/audio/wordpool/BINDER.wav", "conditions": [18, 1200, "a", 18000], "internal_node_id": "0.0-22.0", "trial": 0, "time_elapsed": 349178, "serialpos": 10, "key_press": -1, "wordID": 126, "type": "PRES_AUD", "trial_index": 31}, "uniqueid": "MTK3697:3LJ7UR74RIKO0OVKT5O4JA6VZHP4N7", "dateTime": 1520961837250}, {"current_trial": 32, "trialdata": {"rt": -1000, "trial_type": "single-audio", "word": "drawing", "stimulus": "/static/audio/wordpool/DRAWING.wav", "conditions": [18, 1200, "a", 18000], "internal_node_id": "0.0-23.0", "trial": 0, "time_elapsed": 351549, "serialpos": 11, "key_press": -1, "wordID": 493, "type": "PRES_AUD", "trial_index": 32}, "uniqueid": "MTK3697:3LJ7UR74RIKO0OVKT5O4JA6VZHP4N7", "dateTime": 1520961839621}, {"current_trial": 33, "trialdata": {"rt": -1000, "trial_type": "single-audio", "word": "robber", "stimulus": "/static/audio/wordpool/ROBBER.wav", "conditions": [18, 1200, "a", 18000], "internal_node_id": "0.0-24.0", "trial": 0, "time_elapsed": 353815, "serialpos": 12, "key_press": -1, "wordID": 1196, "type": "PRES_AUD", "trial_index": 33}, "uniqueid": "MTK3697:3LJ7UR74RIKO0OVKT5O4JA6VZHP4N7", "dateTime": 1520961841887}, {"current_trial": 34, "trialdata": {"rt": -1000, "trial_type": "single-audio", "word": "hood", "stimulus": "/static/audio/wordpool/HOOD.wav", "conditions": [18, 1200, "a", 18000], "internal_node_id": "0.0-25.0", "trial": 0, "time_elapsed": 355829, "serialpos": 13, "key_press": -1, "wordID": 713, "type": "PRES_AUD", "trial_index": 34}, "uniqueid": "MTK3697:3LJ7UR74RIKO0OVKT5O4JA6VZHP4N7", "dateTime": 1520961843901}, {"current_trial": 35, "trialdata": {"rt": -1000, "trial_type": "single-audio", "word": "preacher", "stimulus": "/static/audio/wordpool/PREACHER.wav", "conditions": [18, 1200, "a", 18000], "internal_node_id": "0.0-26.0", "trial": 0, "time_elapsed": 358014, "serialpos": 14, "key_press": -1, "wordID": 1118, "type": "PRES_AUD", "trial_index": 35}, "uniqueid": "MTK3697:3LJ7UR74RIKO0OVKT5O4JA6VZHP4N7", "dateTime": 1520961846086}, {"current_trial": 36, "trialdata": {"rt": -1000, "trial_type": "single-audio", "word": "hamper", "stimulus": "/static/audio/wordpool/HAMPER.wav", "conditions": [18, 1200, "a", 18000], "internal_node_id": "0.0-27.0", "trial": 0, "time_elapsed": 360214, "serialpos": 15, "key_press": -1, "wordID": 681, "type": "PRES_AUD", "trial_index": 36}, "uniqueid": "MTK3697:3LJ7UR74RIKO0OVKT5O4JA6VZHP4N7", "dateTime": 1520961848286}, {"current_trial": 37, "trialdata": {"rt": -1000, "trial_type": "single-audio", "word": "virus", "stimulus": "/static/audio/wordpool/VIRUS.wav", "conditions": [18, 1200, "a", 18000], "internal_node_id": "0.0-28.0", "trial": 0, "time_elapsed": 362595, "serialpos": 16, "key_press": -1, "wordID": 1571, "type": "PRES_AUD", "trial_index": 37}, "uniqueid": "MTK3697:3LJ7UR74RIKO0OVKT5O4JA6VZHP4N7", "dateTime": 1520961850667}, {"current_trial": 38, "trialdata": {"rt": -1000, "trial_type": "single-audio", "word": "pilot", "stimulus": "/static/audio/wordpool/PILOT.wav", "conditions": [18, 1200, "a", 18000], "internal_node_id": "0.0-29.0", "trial": 0, "time_elapsed": 364954, "serialpos": 17, "key_press": -1, "wordID": 1069, "type": "PRES_AUD", "trial_index": 38}, "uniqueid": "MTK3697:3LJ7UR74RIKO0OVKT5O4JA6VZHP4N7", "dateTime": 1520961853026}, {"current_trial": 39, "trialdata": {"rt": -1, "trial_type": "single-stim", "stimulus": "", "internal_node_id": "0.0-30.0-0.0", "time_elapsed": 366186, "key_press": -1, "type": "PRE_RECALL_DELAY", "trial_index": 39}, "uniqueid": "MTK3697:3LJ7UR74RIKO0OVKT5O4JA6VZHP4N7", "dateTime": 1520961854258}, {"current_trial": 40, "trialdata": {"rt": -1000, "trial_type": "single-audio", "stimulus": "/static/audio/400Hz.wav", "internal_node_id": "0.0-31.0", "time_elapsed": 366691, "key_press": -1, "type": "PRE_RECALL_ALERT", "trial_index": 40}, "uniqueid": "MTK3697:3LJ7UR74RIKO0OVKT5O4JA6VZHP4N7", "dateTime": 1520961854763}, {"current_trial": 41, "trialdata": {"rt": [6446, 9217, 11340, 13422, 15654, 17289, 19779, 23096, 26337, 29626, 32641, 37188, 41138, 44393, 54029], "recwords": ["virus", "hood", "panther", "shoulder", "sparrow", "hawk", "hamper", "washer", "window", "preacher", "drawing", "virus", "barrel", "window", "candy"], "key_times": [4810, 5513, 5829, 6034, 6182, 6446, 7362, 7526, 7683, 7823, 8200, 8821, 9217, 10238, 10386, 10542, 10718, 10857, 10973, 11032, 11340, 12022, 12188, 12447, 12637, 12878, 12968, 13099, 13206, 13422, 14142, 14352, 14514, 14950, 15122, 15276, 15370, 15654, 16440, 16569, 16806, 17009, 17289, 18589, 18837, 19005, 19258, 19401, 19501, 19779, 21323, 21500, 21663, 21827, 22021, 22032, 22452, 22727, 23096, 23516, 23645, 23889, 23948, 24192, 24301, 24794, 24941, 25220, 25867, 25986, 26337, 28088, 28258, 28458, 28717, 28971, 29143, 29271, 29333, 29626, 30230, 30460, 30691, 30856, 31001, 31237, 31273, 31746, 32438, 32641, 34477, 34702, 34980, 35281, 35426, 35777, 35950, 36086, 36366, 36645, 36786, 37188, 39173, 39310, 39606, 39774, 39914, 40140, 41138, 42996, 43182, 43396, 43489, 43812, 44040, 44393, 52802, 53018, 53197, 53352, 53597, 54029], "trial_type": "free-recall", "conditions": [18, 1200, "a", 18000], "internal_node_id": "0.0-32.0-0.0", "key_presses": [86, 73, 82, 85, 83, 13, 72, 79, 79, 68, 222, 8, 13, 80, 65, 78, 84, 72, 69, 82, 13, 83, 72, 79, 85, 76, 68, 69, 82, 13, 83, 80, 65, 82, 82, 79, 87, 13, 72, 65, 87, 75, 13, 72, 65, 77, 80, 69, 82, 13, 87, 65, 83, 72, 69, 87, 8, 82, 13, 87, 73, 78, 68, 87, 79, 8, 8, 144, 79, 87, 13, 80, 82, 69, 65, 67, 72, 69, 82, 13, 68, 82, 65, 87, 73, 78, 70, 8, 71, 13, 86, 73, 69, 85, 83, 8, 8, 8, 82, 85, 83, 13, 66, 65, 82, 82, 69, 76, 13, 87, 73, 78, 68, 79, 87, 13, 67, 65, 78, 68, 89, 13], "trial": 0, "time_elapsed": 426698, "type": "FREE_RECALL", "trial_index": 41}, "uniqueid": "MTK3697:3LJ7UR74RIKO0OVKT5O4JA6VZHP4N7", "dateTime": 1520961914775}, {"current_trial": 42, "trialdata": {"rt": 13524, "trial_type": "text", "internal_node_id": "0.0-33.0", "time_elapsed": 442230, "key_press": 32, "type": "INSTRUCTIONS", "trial_index": 42}, "uniqueid": "MTK3697:3LJ7UR74RIKO0OVKT5O4JA6VZHP4N7", "dateTime": 1520961930302}, {"current_trial": 43, "trialdata": {"rt": [4015, 16173], "trial_type": "math-distractor", "key_times": [3393, 3623, 4015, 6182, 7238, 16173], "responses": ["20", "15"], "num2": [9, 2, 6], "num3": [2, 4, 5], "conditions": [18, 1200, "a", 18000], "internal_node_id": "0.0-34.0", "key_presses": [50, 48, 13, 49, 53, 13], "trial": 1, "time_elapsed": 462233, "type": "DISTRACTOR", "trial_index": 43, "num1": [9, 9, 7]}, "uniqueid": "MTK3697:3LJ7UR74RIKO0OVKT5O4JA6VZHP4N7", "dateTime": 1520961950306}, {"current_trial": 44, "trialdata": {"rt": -1, "trial_type": "single-stim", "stimulus": "<p id=\"stim\">10</p>", "internal_node_id": "0.0-35.0-0.0", "time_elapsed": 465235, "key_press": -1, "trial_index": 44}, "uniqueid": "MTK3697:3LJ7UR74RIKO0OVKT5O4JA6VZHP4N7", "dateTime": 1520961953307}, {"current_trial": 45, "trialdata": {"rt": -1, "trial_type": "single-stim", "stimulus": "<p id=\"stim\">9</p>", "internal_node_id": "0.0-35.0-1.0", "time_elapsed": 466237, "key_press": -1, "trial_index": 45}, "uniqueid": "MTK3697:3LJ7UR74RIKO0OVKT5O4JA6VZHP4N7", "dateTime": 1520961954309}, {"current_trial": 46, "trialdata": {"rt": -1, "trial_type": "single-stim", "stimulus": "<p id=\"stim\">8</p>", "internal_node_id": "0.0-35.0-2.0", "time_elapsed": 467238, "key_press": -1, "trial_index": 46}, "uniqueid": "MTK3697:3LJ7UR74RIKO0OVKT5O4JA6VZHP4N7", "dateTime": 1520961955310}, {"current_trial": 47, "trialdata": {"rt": -1, "trial_type": "single-stim", "stimulus": "<p id=\"stim\">7</p>", "internal_node_id": "0.0-35.0-3.0", "time_elapsed": 468240, "key_press": -1, "trial_index": 47}, "uniqueid": "MTK3697:3LJ7UR74RIKO0OVKT5O4JA6VZHP4N7", "dateTime": 1520961956312}, {"current_trial": 48, "trialdata": {"rt": -1, "trial_type": "single-stim", "stimulus": "<p id=\"stim\">6</p>", "internal_node_id": "0.0-35.0-4.0", "time_elapsed": 469244, "key_press": -1, "trial_index": 48}, "uniqueid": "MTK3697:3LJ7UR74RIKO0OVKT5O4JA6VZHP4N7", "dateTime": 1520961957316}, {"current_trial": 49, "trialdata": {"rt": -1, "trial_type": "single-stim", "stimulus": "<p id=\"stim\">5</p>", "internal_node_id": "0.0-35.0-5.0", "time_elapsed": 470246, "key_press": -1, "trial_index": 49}, "uniqueid": "MTK3697:3LJ7UR74RIKO0OVKT5O4JA6VZHP4N7", "dateTime": 1520961958318}, {"current_trial": 50, "trialdata": {"rt": -1, "trial_type": "single-stim", "stimulus": "<p id=\"stim\">4</p>", "internal_node_id": "0.0-35.0-6.0", "time_elapsed": 471249, "key_press": -1, "trial_index": 50}, "uniqueid": "MTK3697:3LJ7UR74RIKO0OVKT5O4JA6VZHP4N7", "dateTime": 1520961959321}, {"current_trial": 51, "trialdata": {"rt": -1, "trial_type": "single-stim", "stimulus": "<p id=\"stim\">3</p>", "internal_node_id": "0.0-35.0-7.0", "time_elapsed": 472250, "key_press": -1, "trial_index": 51}, "uniqueid": "MTK3697:3LJ7UR74RIKO0OVKT5O4JA6VZHP4N7", "dateTime": 1520961960322}, {"current_trial": 52, "trialdata": {"rt": -1, "trial_type": "single-stim", "stimulus": "<p id=\"stim\">2</p>", "internal_node_id": "0.0-35.0-8.0", "time_elapsed": 473253, "key_press": -1, "trial_index": 52}, "uniqueid": "MTK3697:3LJ7UR74RIKO0OVKT5O4JA6VZHP4N7", "dateTime": 1520961961325}, {"current_trial": 53, "trialdata": {"rt": -1, "trial_type": "single-stim", "stimulus": "<p id=\"stim\">1</p>", "internal_node_id": "0.0-35.0-9.0", "time_elapsed": 474254, "key_press": -1, "trial_index": 53}, "uniqueid": "MTK3697:3LJ7UR74RIKO0OVKT5O4JA6VZHP4N7", "dateTime": 1520961962326}, {"current_trial": 54, "trialdata": {"rt": -1, "trial_type": "single-stim", "stimulus": "<p id=\"stim\">+</p>", "internal_node_id": "0.0-36.0-0.0", "time_elapsed": 475756, "key_press": -1, "type": "FIXATION", "trial_index": 54}, "uniqueid": "MTK3697:3LJ7UR74RIKO0OVKT5O4JA6VZHP4N7", "dateTime": 1520961963828}, {"current_trial": 55, "trialdata": {"rt": -1000, "trial_type": "single-audio", "word": "shirt", "stimulus": "/static/audio/wordpool/SHIRT.wav", "conditions": [18, 1200, "a", 18000], "internal_node_id": "0.0-37.0", "trial": 1, "time_elapsed": 477948, "serialpos": 0, "key_press": -1, "wordID": 1286, "type": "PRES_AUD", "trial_index": 55}, "uniqueid": "MTK3697:3LJ7UR74RIKO0OVKT5O4JA6VZHP4N7", "dateTime": 1520961966021}, {"current_trial": 56, "trialdata": {"rt": -1000, "trial_type": "single-audio", "word": "wagon", "stimulus": "/static/audio/wordpool/WAGON.wav", "conditions": [18, 1200, "a", 18000], "internal_node_id": "0.0-38.0", "trial": 1, "time_elapsed": 480072, "serialpos": 1, "key_press": -1, "wordID": 1577, "type": "PRES_AUD", "trial_index": 56}, "uniqueid": "MTK3697:3LJ7UR74RIKO0OVKT5O4JA6VZHP4N7", "dateTime": 1520961968144}, {"current_trial": 57, "trialdata": {"rt": -1000, "trial_type": "single-audio", "word": "parsley", "stimulus": "/static/audio/wordpool/PARSLEY.wav", "conditions": [18, 1200, "a", 18000], "internal_node_id": "0.0-39.0", "trial": 1, "time_elapsed": 482467, "serialpos": 2, "key_press": -1, "wordID": 1015, "type": "PRES_AUD", "trial_index": 57}, "uniqueid": "MTK3697:3LJ7UR74RIKO0OVKT5O4JA6VZHP4N7", "dateTime": 1520961970539}, {"current_trial": 58, "trialdata": {"rt": -1000, "trial_type": "single-audio", "word": "mailman", "stimulus": "/static/audio/wordpool/MAILMAN.wav", "conditions": [18, 1200, "a", 18000], "internal_node_id": "0.0-40.0", "trial": 1, "time_elapsed": 484715, "serialpos": 3, "key_press": -1, "wordID": 857, "type": "PRES_AUD", "trial_index": 58}, "uniqueid": "MTK3697:3LJ7UR74RIKO0OVKT5O4JA6VZHP4N7", "dateTime": 1520961972787}, {"current_trial": 59, "trialdata": {"rt": -1000, "trial_type": "single-audio", "word": "puddle", "stimulus": "/static/audio/wordpool/PUDDLE.wav", "conditions": [18, 1200, "a", 18000], "internal_node_id": "0.0-41.0", "trial": 1, "time_elapsed": 486886, "serialpos": 4, "key_press": -1, "wordID": 1139, "type": "PRES_AUD", "trial_index": 59}, "uniqueid": "MTK3697:3LJ7UR74RIKO0OVKT5O4JA6VZHP4N7", "dateTime": 1520961974958}, {"current_trial": 60, "trialdata": {"rt": -1000, "trial_type": "single-audio", "word": "table", "stimulus": "/static/audio/wordpool/TABLE.wav", "conditions": [18, 1200, "a", 18000], "internal_node_id": "0.0-42.0", "trial": 1, "time_elapsed": 488952, "serialpos": 5, "key_press": -1, "wordID": 1425, "type": "PRES_AUD", "trial_index": 60}, "uniqueid": "MTK3697:3LJ7UR74RIKO0OVKT5O4JA6VZHP4N7", "dateTime": 1520961977024}, {"current_trial": 61, "trialdata": {"rt": -1000, "trial_type": "single-audio", "word": "cabbage", "stimulus": "/static/audio/wordpool/CABBAGE.wav", "conditions": [18, 1200, "a", 18000], "internal_node_id": "0.0-43.0", "trial": 1, "time_elapsed": 491133, "serialpos": 6, "key_press": -1, "wordID": 209, "type": "PRES_AUD", "trial_index": 61}, "uniqueid": "MTK3697:3LJ7UR74RIKO0OVKT5O4JA6VZHP4N7", "dateTime": 1520961979205}, {"current_trial": 62, "trialdata": {"rt": -1000, "trial_type": "single-audio", "word": "highway", "stimulus": "/static/audio/wordpool/HIGHWAY.wav", "conditions": [18, 1200, "a", 18000], "internal_node_id": "0.0-44.0", "trial": 1, "time_elapsed": 493526, "serialpos": 7, "key_press": -1, "wordID": 706, "type": "PRES_AUD", "trial_index": 62}, "uniqueid": "MTK3697:3LJ7UR74RIKO0OVKT5O4JA6VZHP4N7", "dateTime": 1520961981598}, {"current_trial": 63, "trialdata": {"rt": -1000, "trial_type": "single-audio", "word": "stream", "stimulus": "/static/audio/wordpool/STREAM.wav", "conditions": [18, 1200, "a", 18000], "internal_node_id": "0.0-45.0", "trial": 1, "time_elapsed": 495698, "serialpos": 8, "key_press": -1, "wordID": 1391, "type": "PRES_AUD", "trial_index": 63}, "uniqueid": "MTK3697:3LJ7UR74RIKO0OVKT5O4JA6VZHP4N7", "dateTime": 1520961983770}, {"current_trial": 64, "trialdata": {"rt": -1000, "trial_type": "single-audio", "word": "shelter", "stimulus": "/static/audio/wordpool/SHELTER.wav", "conditions": [18, 1200, "a", 18000], "internal_node_id": "0.0-46.0", "trial": 1, "time_elapsed": 497806, "serialpos": 9, "key_press": -1, "wordID": 1281, "type": "PRES_AUD", "trial_index": 64}, "uniqueid": "MTK3697:3LJ7UR74RIKO0OVKT5O4JA6VZHP4N7", "dateTime": 1520961985878}, {"current_trial": 65, "trialdata": {"rt": -1000, "trial_type": "single-audio", "word": "author", "stimulus": "/static/audio/wordpool/AUTHOR.wav", "conditions": [18, 1200, "a", 18000], "internal_node_id": "0.0-47.0", "trial": 1, "time_elapsed": 499978, "serialpos": 10, "key_press": -1, "wordID": 60, "type": "PRES_AUD", "trial_index": 65}, "uniqueid": "MTK3697:3LJ7UR74RIKO0OVKT5O4JA6VZHP4N7", "dateTime": 1520961988050}, {"current_trial": 66, "trialdata": {"rt": -1000, "trial_type": "single-audio", "word": "summit", "stimulus": "/static/audio/wordpool/SUMMIT.wav", "conditions": [18, 1200, "a", 18000], "internal_node_id": "0.0-48.0", "trial": 1, "time_elapsed": 502318, "serialpos": 11, "key_press": -1, "wordID": 1404, "type": "PRES_AUD", "trial_index": 66}, "uniqueid": "MTK3697:3LJ7UR74RIKO0OVKT5O4JA6VZHP4N7", "dateTime": 1520961990390}, {"current_trial": 67, "trialdata": {"rt": -1000, "trial_type": "single-audio", "word": "iceberg", "stimulus": "/static/audio/wordpool/ICEBERG.wav", "conditions": [18, 1200, "a", 18000], "internal_node_id": "0.0-49.0", "trial": 1, "time_elapsed": 504344, "serialpos": 12, "key_press": -1, "wordID": 730, "type": "PRES_AUD", "trial_index": 67}, "uniqueid": "MTK3697:3LJ7UR74RIKO0OVKT5O4JA6VZHP4N7", "dateTime": 1520961992418}, {"current_trial": 68, "trialdata": {"rt": -1000, "trial_type": "single-audio", "word": "husband", "stimulus": "/static/audio/wordpool/HUSBAND.wav", "conditions": [18, 1200, "a", 18000], "internal_node_id": "0.0-50.0", "trial": 1, "time_elapsed": 506621, "serialpos": 13, "key_press": -1, "wordID": 727, "type": "PRES_AUD", "trial_index": 68}, "uniqueid": "MTK3697:3LJ7UR74RIKO0OVKT5O4JA6VZHP4N7", "dateTime": 1520961994697}, {"current_trial": 69, "trialdata": {"rt": -1000, "trial_type": "single-audio", "word": "taxi", "stimulus": "/static/audio/wordpool/TAXI.wav", "conditions": [18, 1200, "a", 18000], "internal_node_id": "0.0-51.0", "trial": 1, "time_elapsed": 508744, "serialpos": 14, "key_press": -1, "wordID": 1437, "type": "PRES_AUD", "trial_index": 69}, "uniqueid": "MTK3697:3LJ7UR74RIKO0OVKT5O4JA6VZHP4N7", "dateTime": 1520961996816}, {"current_trial": 70, "trialdata": {"rt": -1000, "trial_type": "single-audio", "word": "cafe", "stimulus": "/static/audio/wordpool/CAFE.wav", "conditions": [18, 1200, "a", 18000], "internal_node_id": "0.0-52.0", "trial": 1, "time_elapsed": 510791, "serialpos": 15, "key_press": -1, "wordID": 215, "type": "PRES_AUD", "trial_index": 70}, "uniqueid": "MTK3697:3LJ7UR74RIKO0OVKT5O4JA6VZHP4N7", "dateTime": 1520961998863}, {"current_trial": 71, "trialdata": {"rt": -1000, "trial_type": "single-audio", "word": "market", "stimulus": "/static/audio/wordpool/MARKET.wav", "conditions": [18, 1200, "a", 18000], "internal_node_id": "0.0-53.0", "trial": 1, "time_elapsed": 512853, "serialpos": 16, "key_press": -1, "wordID": 870, "type": "PRES_AUD", "trial_index": 71}, "uniqueid": "MTK3697:3LJ7UR74RIKO0OVKT5O4JA6VZHP4N7", "dateTime": 1520962000925}, {"current_trial": 72, "trialdata": {"rt": -1000, "trial_type": "single-audio", "word": "couch", "stimulus": "/static/audio/wordpool/COUCH.wav", "conditions": [18, 1200, "a", 18000], "internal_node_id": "0.0-54.0", "trial": 1, "time_elapsed": 515116, "serialpos": 17, "key_press": -1, "wordID": 385, "type": "PRES_AUD", "trial_index": 72}, "uniqueid": "MTK3697:3LJ7UR74RIKO0OVKT5O4JA6VZHP4N7", "dateTime": 1520962003188}, {"current_trial": 73, "trialdata": {"rt": -1, "trial_type": "single-stim", "stimulus": "", "internal_node_id": "0.0-55.0-0.0", "time_elapsed": 516405, "key_press": -1, "type": "PRE_RECALL_DELAY", "trial_index": 73}, "uniqueid": "MTK3697:3LJ7UR74RIKO0OVKT5O4JA6VZHP4N7", "dateTime": 1520962004477}, {"current_trial": 74, "trialdata": {"rt": -1000, "trial_type": "single-audio", "stimulus": "/static/audio/400Hz.wav", "internal_node_id": "0.0-56.0", "time_elapsed": 516912, "key_press": -1, "type": "PRE_RECALL_ALERT", "trial_index": 74}, "uniqueid": "MTK3697:3LJ7UR74RIKO0OVKT5O4JA6VZHP4N7", "dateTime": 1520962004986}, {"current_trial": 75, "trialdata": {"rt": [4018, 5768, 7689, 11900, 13865, 17813, 19707, 23606, 27795, 31212, 34386, 37779, 40162, 45227, 51685, 58510], "recwords": ["cafe", "couch", "taxi", "highway", "stream", "summit", "author", "husband", "cabbage", "mailman", "puddle", "shirt", "wagon", "parsley", "table", "shelter"], "key_times": [2272, 2559, 2821, 3081, 3563, 3714, 4018, 4524, 4726, 4971, 5092, 5322, 5473, 5645, 5768, 6777, 6986, 7309, 7528, 7689, 10272, 10398, 10524, 10652, 11158, 11339, 11499, 11900, 12257, 12586, 12825, 12976, 13217, 13399, 13865, 15264, 15440, 15999, 16308, 16446, 16602, 16812, 16928, 17045, 17493, 17813, 18396, 18721, 18914, 19024, 19292, 19401, 19707, 21550, 21739, 21918, 22095, 22418, 22807, 22910, 23101, 23251, 23606, 26431, 26640, 26960, 27097, 27217, 27391, 27525, 27795, 29187, 29304, 29816, 30118, 30479, 30778, 30904, 31212, 32382, 32718, 32963, 33338, 33456, 33655, 33815, 33983, 34386, 36848, 36969, 37177, 37317, 37475, 37779, 38554, 38785, 39100, 39267, 39500, 40162, 42303, 42489, 43076, 43348, 43877, 44035, 44313, 44735, 44878, 45227, 48842, 49135, 49412, 49650, 49942, 50094, 50232, 50374, 50577, 50875, 51163, 51331, 51462, 51685, 56024, 56365, 56634, 56952, 57353, 57590, 57682, 58510], "trial_type": "free-recall", "conditions": [18, 1200, "a", 18000], "internal_node_id": "0.0-57.0-0.0", "key_presses": [20, 67, 20, 65, 70, 69, 13, 20, 67, 20, 79, 85, 67, 72, 32, 84, 65, 88, 73, 32, 72, 73, 71, 72, 87, 65, 89, 13, 83, 84, 82, 69, 65, 77, 13, 83, 89, 8, 85, 77, 77, 73, 84, 89, 8, 13, 65, 85, 84, 72, 79, 82, 13, 72, 85, 83, 65, 8, 66, 65, 78, 68, 13, 67, 65, 66, 66, 65, 71, 69, 13, 77, 65, 73, 76, 77, 65, 78, 13, 80, 85, 70, 8, 68, 68, 76, 69, 13, 83, 72, 73, 82, 84, 32, 87, 65, 71, 79, 78, 13, 80, 65, 82, 83, 76, 69, 84, 8, 89, 13, 89, 65, 66, 76, 8, 8, 8, 8, 84, 65, 66, 76, 69, 13, 83, 72, 69, 76, 84, 69, 82, 13], "trial": 1, "time_elapsed": 576919, "type": "FREE_RECALL", "trial_index": 75}, "uniqueid": "MTK3697:3LJ7UR74RIKO0OVKT5O4JA6VZHP4N7", "dateTime": 1520962064996}, {"current_trial": 76, "trialdata": {"rt": 6289, "trial_type": "text", "internal_node_id": "0.0-58.0", "time_elapsed": 585215, "key_press": 32, "type": "INSTRUCTIONS", "trial_index": 76}, "uniqueid": "MTK3697:3LJ7UR74RIKO0OVKT5O4JA6VZHP4N7", "dateTime": 1520962073287}, {"current_trial": 77, "trialdata": {"rt": [5356, 8230, 11270], "trial_type": "math-distractor", "key_times": [2296, 3578, 4028, 5075, 5356, 7781, 8230, 10445, 10617, 11270], "responses": ["17", "8", "11"], "num2": [6, 2, 1, 9], "num3": [7, 2, 3, 3], "conditions": [12, 1600, "a", 12000], "internal_node_id": "0.0-59.0", "key_presses": [49, 55, 222, 8, 13, 56, 13, 49, 49, 13], "trial": 2, "time_elapsed": 598219, "type": "DISTRACTOR", "trial_index": 77, "num1": [4, 4, 7, 6]}, "uniqueid": "MTK3697:3LJ7UR74RIKO0OVKT5O4JA6VZHP4N7", "dateTime": 1520962086291}, {"current_trial": 78, "trialdata": {"rt": -1, "trial_type": "single-stim", "stimulus": "<p id=\"stim\">10</p>", "internal_node_id": "0.0-60.0-0.0", "time_elapsed": 601221, "key_press": -1, "trial_index": 78}, "uniqueid": "MTK3697:3LJ7UR74RIKO0OVKT5O4JA6VZHP4N7", "dateTime": 1520962089293}, {"current_trial": 79, "trialdata": {"rt": -1, "trial_type": "single-stim", "stimulus": "<p id=\"stim\">9</p>", "internal_node_id": "0.0-60.0-1.0", "time_elapsed": 602222, "key_press": -1, "trial_index": 79}, "uniqueid": "MTK3697:3LJ7UR74RIKO0OVKT5O4JA6VZHP4N7", "dateTime": 1520962090294}, {"current_trial": 80, "trialdata": {"rt": -1, "trial_type": "single-stim", "stimulus": "<p id=\"stim\">8</p>", "internal_node_id": "0.0-60.0-2.0", "time_elapsed": 603225, "key_press": -1, "trial_index": 80}, "uniqueid": "MTK3697:3LJ7UR74RIKO0OVKT5O4JA6VZHP4N7", "dateTime": 1520962091297}, {"current_trial": 81, "trialdata": {"rt": -1, "trial_type": "single-stim", "stimulus": "<p id=\"stim\">7</p>", "internal_node_id": "0.0-60.0-3.0", "time_elapsed": 604226, "key_press": -1, "trial_index": 81}, "uniqueid": "MTK3697:3LJ7UR74RIKO0OVKT5O4JA6VZHP4N7", "dateTime": 1520962092298}, {"current_trial": 82, "trialdata": {"rt": -1, "trial_type": "single-stim", "stimulus": "<p id=\"stim\">6</p>", "internal_node_id": "0.0-60.0-4.0", "time_elapsed": 605229, "key_press": -1, "trial_index": 82}, "uniqueid": "MTK3697:3LJ7UR74RIKO0OVKT5O4JA6VZHP4N7", "dateTime": 1520962093301}, {"current_trial": 83, "trialdata": {"rt": -1, "trial_type": "single-stim", "stimulus": "<p id=\"stim\">5</p>", "internal_node_id": "0.0-60.0-5.0", "time_elapsed": 606230, "key_press": -1, "trial_index": 83}, "uniqueid": "MTK3697:3LJ7UR74RIKO0OVKT5O4JA6VZHP4N7", "dateTime": 1520962094302}, {"current_trial": 84, "trialdata": {"rt": -1, "trial_type": "single-stim", "stimulus": "<p id=\"stim\">4</p>", "internal_node_id": "0.0-60.0-6.0", "time_elapsed": 607232, "key_press": -1, "trial_index": 84}, "uniqueid": "MTK3697:3LJ7UR74RIKO0OVKT5O4JA6VZHP4N7", "dateTime": 1520962095304}, {"current_trial": 85, "trialdata": {"rt": -1, "trial_type": "single-stim", "stimulus": "<p id=\"stim\">3</p>", "internal_node_id": "0.0-60.0-7.0", "time_elapsed": 608234, "key_press": -1, "trial_index": 85}, "uniqueid": "MTK3697:3LJ7UR74RIKO0OVKT5O4JA6VZHP4N7", "dateTime": 1520962096306}, {"current_trial": 86, "trialdata": {"rt": -1, "trial_type": "single-stim", "stimulus": "<p id=\"stim\">2</p>", "internal_node_id": "0.0-60.0-8.0", "time_elapsed": 609236, "key_press": -1, "trial_index": 86}, "uniqueid": "MTK3697:3LJ7UR74RIKO0OVKT5O4JA6VZHP4N7", "dateTime": 1520962097308}, {"current_trial": 87, "trialdata": {"rt": -1, "trial_type": "single-stim", "stimulus": "<p id=\"stim\">1</p>", "internal_node_id": "0.0-60.0-9.0", "time_elapsed": 610238, "key_press": -1, "trial_index": 87}, "uniqueid": "MTK3697:3LJ7UR74RIKO0OVKT5O4JA6VZHP4N7", "dateTime": 1520962098310}, {"current_trial": 88, "trialdata": {"rt": -1, "trial_type": "single-stim", "stimulus": "<p id=\"stim\">+</p>", "internal_node_id": "0.0-61.0-0.0", "time_elapsed": 611740, "key_press": -1, "type": "FIXATION", "trial_index": 88}, "uniqueid": "MTK3697:3LJ7UR74RIKO0OVKT5O4JA6VZHP4N7", "dateTime": 1520962099812}, {"current_trial": 89, "trialdata": {"rt": -1000, "trial_type": "single-audio", "word": "nurse", "stimulus": "/static/audio/wordpool/NURSE.wav", "conditions": [12, 1600, "a", 12000], "internal_node_id": "0.0-62.0", "trial": 2, "time_elapsed": 614526, "serialpos": 0, "key_press": -1, "wordID": 962, "type": "PRES_AUD", "trial_index": 89}, "uniqueid": "MTK3697:3LJ7UR74RIKO0OVKT5O4JA6VZHP4N7", "dateTime": 1520962102598}, {"current_trial": 90, "trialdata": {"rt": -1000, "trial_type": "single-audio", "word": "pistol", "stimulus": "/static/audio/wordpool/PISTOL.wav", "conditions": [12, 1600, "a", 12000], "internal_node_id": "0.0-63.0", "trial": 2, "time_elapsed": 617128, "serialpos": 1, "key_press": -1, "wordID": 1074, "type": "PRES_AUD", "trial_index": 90}, "uniqueid": "MTK3697:3LJ7UR74RIKO0OVKT5O4JA6VZHP4N7", "dateTime": 1520962105200}, {"current_trial": 91, "trialdata": {"rt": -1000, "trial_type": "single-audio", "word": "bubble", "stimulus": "/static/audio/wordpool/BUBBLE.wav", "conditions": [12, 1600, "a", 12000], "internal_node_id": "0.0-64.0", "trial": 2, "time_elapsed": 619755, "serialpos": 2, "key_press": -1, "wordID": 182, "type": "PRES_AUD", "trial_index": 91}, "uniqueid": "MTK3697:3LJ7UR74RIKO0OVKT5O4JA6VZHP4N7", "dateTime": 1520962107827}, {"current_trial": 92, "trialdata": {"rt": -1000, "trial_type": "single-audio", "word": "sword", "stimulus": "/static/audio/wordpool/SWORD.wav", "conditions": [12, 1600, "a", 12000], "internal_node_id": "0.0-65.0", "trial": 2, "time_elapsed": 622399, "serialpos": 3, "key_press": -1, "wordID": 1422, "type": "PRES_AUD", "trial_index": 92}, "uniqueid": "MTK3697:3LJ7UR74RIKO0OVKT5O4JA6VZHP4N7", "dateTime": 1520962110472}, {"current_trial": 93, "trialdata": {"rt": -1000, "trial_type": "single-audio", "word": "eagle", "stimulus": "/static/audio/wordpool/EAGLE.wav", "conditions": [12, 1600, "a", 12000], "internal_node_id": "0.0-66.0", "trial": 2, "time_elapsed": 625066, "serialpos": 4, "key_press": -1, "wordID": 511, "type": "PRES_AUD", "trial_index": 93}, "uniqueid": "MTK3697:3LJ7UR74RIKO0OVKT5O4JA6VZHP4N7", "dateTime": 1520962113138}, {"current_trial": 94, "trialdata": {"rt": -1000, "trial_type": "single-audio", "word": "knife", "stimulus": "/static/audio/wordpool/KNIFE.wav", "conditions": [12, 1600, "a", 12000], "internal_node_id": "0.0-67.0", "trial": 2, "time_elapsed": 627493, "serialpos": 5, "key_press": -1, "wordID": 784, "type": "PRES_AUD", "trial_index": 94}, "uniqueid": "MTK3697:3LJ7UR74RIKO0OVKT5O4JA6VZHP4N7", "dateTime": 1520962115565}, {"current_trial": 95, "trialdata": {"rt": -1000, "trial_type": "single-audio", "word": "custard", "stimulus": "/static/audio/wordpool/CUSTARD.wav", "conditions": [12, 1600, "a", 12000], "internal_node_id": "0.0-68.0", "trial": 2, "time_elapsed": 629957, "serialpos": 6, "key_press": -1, "wordID": 428, "type": "PRES_AUD", "trial_index": 95}, "uniqueid": "MTK3697:3LJ7UR74RIKO0OVKT5O4JA6VZHP4N7", "dateTime": 1520962118030}, {"current_trial": 96, "trialdata": {"rt": -1000, "trial_type": "single-audio", "word": "shortcake", "stimulus": "/static/audio/wordpool/SHORTCAKE.wav", "conditions": [12, 1600, "a", 12000], "internal_node_id": "0.0-69.0", "trial": 2, "time_elapsed": 632517, "serialpos": 7, "key_press": -1, "wordID": 1291, "type": "PRES_AUD", "trial_index": 96}, "uniqueid": "MTK3697:3LJ7UR74RIKO0OVKT5O4JA6VZHP4N7", "dateTime": 1520962120589}, {"current_trial": 97, "trialdata": {"rt": -1000, "trial_type": "single-audio", "word": "omelet", "stimulus": "/static/audio/wordpool/OMELET.wav", "conditions": [12, 1600, "a", 12000], "internal_node_id": "0.0-70.0", "trial": 2, "time_elapsed": 635221, "serialpos": 8, "key_press": -1, "wordID": 975, "type": "PRES_AUD", "trial_index": 97}, "uniqueid": "MTK3697:3LJ7UR74RIKO0OVKT5O4JA6VZHP4N7", "dateTime": 1520962123293}, {"current_trial": 98, "trialdata": {"rt": -1000, "trial_type": "single-audio", "word": "perfume", "stimulus": "/static/audio/wordpool/PERFUME.wav", "conditions": [12, 1600, "a", 12000], "internal_node_id": "0.0-71.0", "trial": 2, "time_elapsed": 637658, "serialpos": 9, "key_press": -1, "wordID": 1048, "type": "PRES_AUD", "trial_index": 98}, "uniqueid": "MTK3697:3LJ7UR74RIKO0OVKT5O4JA6VZHP4N7", "dateTime": 1520962125730}, {"current_trial": 99, "trialdata": {"rt": -1000, "trial_type": "single-audio", "word": "canyon", "stimulus": "/static/audio/wordpool/CANYON.wav", "conditions": [12, 1600, "a", 12000], "internal_node_id": "0.0-72.0", "trial": 2, "time_elapsed": 640066, "serialpos": 10, "key_press": -1, "wordID": 234, "type": "PRES_AUD", "trial_index": 99}, "uniqueid": "MTK3697:3LJ7UR74RIKO0OVKT5O4JA6VZHP4N7", "dateTime": 1520962128138}, {"current_trial": 100, "trialdata": {"rt": -1000, "trial_type": "single-audio", "word": "icing", "stimulus": "/static/audio/wordpool/ICING.wav", "conditions": [12, 1600, "a", 12000], "internal_node_id": "0.0-73.0", "trial": 2, "time_elapsed": 642644, "serialpos": 11, "key_press": -1, "wordID": 731, "type": "PRES_AUD", "trial_index": 100}, "uniqueid": "MTK3697:3LJ7UR74RIKO0OVKT5O4JA6VZHP4N7", "dateTime": 1520962130716}, {"current_trial": 101, "trialdata": {"rt": -1, "trial_type": "single-stim", "stimulus": "", "internal_node_id": "0.0-74.0-0.0", "time_elapsed": 643909, "key_press": -1, "type": "PRE_RECALL_DELAY", "trial_index": 101}, "uniqueid": "MTK3697:3LJ7UR74RIKO0OVKT5O4JA6VZHP4N7", "dateTime": 1520962131983}, {"current_trial": 102, "trialdata": {"rt": -1000, "trial_type": "single-audio", "stimulus": "/static/audio/400Hz.wav", "internal_node_id": "0.0-75.0", "time_elapsed": 644415, "key_press": -1, "type": "PRE_RECALL_ALERT", "trial_index": 102}, "uniqueid": "MTK3697:3LJ7UR74RIKO0OVKT5O4JA6VZHP4N7", "dateTime": 1520962132487}, {"current_trial": 103, "trialdata": {"rt": [4114, 7200, 10254, 14438, 16468, 20210, 24235, 27607, 29617, 31984, 35544, 39630, 58507], "recwords": ["canyon", "perfume", "shortcake", "omelet", "icing", "eaglew", "sword", "nurse", "bubble", "pistol", "knife", "custard", "sword"], "key_times": [1918, 2111, 2269, 2829, 3237, 3481, 3602, 3830, 4114, 5233, 5887, 6040, 6332, 6511, 6749, 6918, 7200, 7834, 7954, 8154, 8302, 8405, 9055, 9707, 9870, 10021, 10254, 12192, 12414, 12592, 12803, 13189, 13492, 13706, 13856, 14036, 14293, 14438, 15248, 15422, 15825, 16050, 16205, 16468, 18916, 19408, 19721, 19869, 19991, 20005, 20210, 22944, 23177, 23487, 23802, 24048, 24235, 26002, 26262, 26573, 26807, 27383, 27607, 28474, 28621, 28821, 28983, 29123, 29233, 29617, 30610, 30826, 30953, 31181, 31334, 31642, 31984, 33977, 34571, 34711, 34907, 35133, 35544, 37691, 37851, 37986, 38233, 38471, 38924, 39161, 39630, 57582, 57805, 58048, 58135, 58348, 58507], "trial_type": "free-recall", "conditions": [12, 1600, "a", 12000], "internal_node_id": "0.0-76.0-0.0", "key_presses": [67, 65, 78, 85, 8, 89, 79, 78, 13, 80, 69, 82, 70, 85, 77, 69, 13, 83, 72, 79, 82, 84, 67, 65, 75, 69, 13, 79, 77, 69, 76, 89, 69, 8, 8, 69, 84, 13, 73, 67, 73, 78, 71, 13, 69, 65, 71, 76, 69, 87, 13, 83, 87, 79, 82, 68, 13, 78, 85, 82, 83, 69, 32, 66, 85, 66, 66, 76, 69, 13, 80, 73, 83, 84, 79, 76, 13, 75, 78, 73, 70, 69, 13, 67, 85, 83, 84, 65, 82, 68, 13, 83, 87, 79, 82, 68, 13], "trial": 2, "time_elapsed": 704419, "type": "FREE_RECALL", "trial_index": 103}, "uniqueid": "MTK3697:3LJ7UR74RIKO0OVKT5O4JA6VZHP4N7", "dateTime": 1520962192495}, {"current_trial": 104, "trialdata": {"rt": 2222, "trial_type": "text", "internal_node_id": "0.0-77.0", "time_elapsed": 708646, "key_press": 32, "type": "INSTRUCTIONS", "trial_index": 104}, "uniqueid": "MTK3697:3LJ7UR74RIKO0OVKT5O4JA6VZHP4N7", "dateTime": 1520962196718}, {"current_trial": 105, "trialdata": {"rt": [5083], "trial_type": "math-distractor", "key_times": [2479, 2906, 3800, 4531, 5083, 7290, 7671, 9963, 10146, 10812, 11354, 16653, 17000, 17791, 18902], "responses": ["10"], "num2": [1, 6], "num3": [8, 6], "conditions": [24, 1600, "a", 24000], "internal_node_id": "0.0-78.0", "key_presses": [49, 57, 8, 48, 13, 49, 56, 8, 8, 50, 56, 8, 8, 49, 56], "trial": 3, "time_elapsed": 734650, "type": "DISTRACTOR", "trial_index": 105, "num1": [1, 7]}, "uniqueid": "MTK3697:3LJ7UR74RIKO0OVKT5O4JA6VZHP4N7", "dateTime": 1520962222722}, {"current_trial": 106, "trialdata": {"rt": -1, "trial_type": "single-stim", "stimulus": "<p id=\"stim\">10</p>", "internal_node_id": "0.0-79.0-0.0", "time_elapsed": 737651, "key_press": -1, "trial_index": 106}, "uniqueid": "MTK3697:3LJ7UR74RIKO0OVKT5O4JA6VZHP4N7", "dateTime": 1520962225723}, {"current_trial": 107, "trialdata": {"rt": -1, "trial_type": "single-stim", "stimulus": "<p id=\"stim\">9</p>", "internal_node_id": "0.0-79.0-1.0", "time_elapsed": 738653, "key_press": -1, "trial_index": 107}, "uniqueid": "MTK3697:3LJ7UR74RIKO0OVKT5O4JA6VZHP4N7", "dateTime": 1520962226725}, {"current_trial": 108, "trialdata": {"rt": -1, "trial_type": "single-stim", "stimulus": "<p id=\"stim\">8</p>", "internal_node_id": "0.0-79.0-2.0", "time_elapsed": 739655, "key_press": -1, "trial_index": 108}, "uniqueid": "MTK3697:3LJ7UR74RIKO0OVKT5O4JA6VZHP4N7", "dateTime": 1520962227727}, {"current_trial": 109, "trialdata": {"rt": -1, "trial_type": "single-stim", "stimulus": "<p id=\"stim\">7</p>", "internal_node_id": "0.0-79.0-3.0", "time_elapsed": 740657, "key_press": -1, "trial_index": 109}, "uniqueid": "MTK3697:3LJ7UR74RIKO0OVKT5O4JA6VZHP4N7", "dateTime": 1520962228729}, {"current_trial": 110, "trialdata": {"rt": -1, "trial_type": "single-stim", "stimulus": "<p id=\"stim\">6</p>", "internal_node_id": "0.0-79.0-4.0", "time_elapsed": 741659, "key_press": -1, "trial_index": 110}, "uniqueid": "MTK3697:3LJ7UR74RIKO0OVKT5O4JA6VZHP4N7", "dateTime": 1520962229731}, {"current_trial": 111, "trialdata": {"rt": -1, "trial_type": "single-stim", "stimulus": "<p id=\"stim\">5</p>", "internal_node_id": "0.0-79.0-5.0", "time_elapsed": 742661, "key_press": -1, "trial_index": 111}, "uniqueid": "MTK3697:3LJ7UR74RIKO0OVKT5O4JA6VZHP4N7", "dateTime": 1520962230733}, {"current_trial": 112, "trialdata": {"rt": -1, "trial_type": "single-stim", "stimulus": "<p id=\"stim\">4</p>", "internal_node_id": "0.0-79.0-6.0", "time_elapsed": 743663, "key_press": -1, "trial_index": 112}, "uniqueid": "MTK3697:3LJ7UR74RIKO0OVKT5O4JA6VZHP4N7", "dateTime": 1520962231735}, {"current_trial": 113, "trialdata": {"rt": -1, "trial_type": "single-stim", "stimulus": "<p id=\"stim\">3</p>", "internal_node_id": "0.0-79.0-7.0", "time_elapsed": 744665, "key_press": -1, "trial_index": 113}, "uniqueid": "MTK3697:3LJ7UR74RIKO0OVKT5O4JA6VZHP4N7", "dateTime": 1520962232737}, {"current_trial": 114, "trialdata": {"rt": -1, "trial_type": "single-stim", "stimulus": "<p id=\"stim\">2</p>", "internal_node_id": "0.0-79.0-8.0", "time_elapsed": 745667, "key_press": -1, "trial_index": 114}, "uniqueid": "MTK3697:3LJ7UR74RIKO0OVKT5O4JA6VZHP4N7", "dateTime": 1520962233739}, {"current_trial": 115, "trialdata": {"rt": -1, "trial_type": "single-stim", "stimulus": "<p id=\"stim\">1</p>", "internal_node_id": "0.0-79.0-9.0", "time_elapsed": 746670, "key_press": -1, "trial_index": 115}, "uniqueid": "MTK3697:3LJ7UR74RIKO0OVKT5O4JA6VZHP4N7", "dateTime": 1520962234742}, {"current_trial": 116, "trialdata": {"rt": -1, "trial_type": "single-stim", "stimulus": "<p id=\"stim\">+</p>", "internal_node_id": "0.0-80.0-0.0", "time_elapsed": 748172, "key_press": -1, "type": "FIXATION", "trial_index": 116}, "uniqueid": "MTK3697:3LJ7UR74RIKO0OVKT5O4JA6VZHP4N7", "dateTime": 1520962236244}, {"current_trial": 117, "trialdata": {"rt": -1000, "trial_type": "single-audio", "word": "label", "stimulus": "/static/audio/wordpool/LABEL.wav", "conditions": [24, 1600, "a", 24000], "internal_node_id": "0.0-81.0", "trial": 3, "time_elapsed": 750780, "serialpos": 0, "key_press": -1, "wordID": 789, "type": "PRES_AUD", "trial_index": 117}, "uniqueid": "MTK3697:3LJ7UR74RIKO0OVKT5O4JA6VZHP4N7", "dateTime": 1520962238852}, {"current_trial": 118, "trialdata": {"rt": -1000, "trial_type": "single-audio", "word": "daisy", "stimulus": "/static/audio/wordpool/DAISY.wav", "conditions": [24, 1600, "a", 24000], "internal_node_id": "0.0-82.0", "trial": 3, "time_elapsed": 753314, "serialpos": 1, "key_press": -1, "wordID": 434, "type": "PRES_AUD", "trial_index": 118}, "uniqueid": "MTK3697:3LJ7UR74RIKO0OVKT5O4JA6VZHP4N7", "dateTime": 1520962241386}, {"current_trial": 119, "trialdata": {"rt": -1000, "trial_type": "single-audio", "word": "onion", "stimulus": "/static/audio/wordpool/ONION.wav", "conditions": [24, 1600, "a", 24000], "internal_node_id": "0.0-83.0", "trial": 3, "time_elapsed": 756034, "serialpos": 2, "key_press": -1, "wordID": 976, "type": "PRES_AUD", "trial_index": 119}, "uniqueid": "MTK3697:3LJ7UR74RIKO0OVKT5O4JA6VZHP4N7", "dateTime": 1520962244106}, {"current_trial": 120, "trialdata": {"rt": -1000, "trial_type": "single-audio", "word": "garlic", "stimulus": "/static/audio/wordpool/GARLIC.wav", "conditions": [24, 1600, "a", 24000], "internal_node_id": "0.0-84.0", "trial": 3, "time_elapsed": 758628, "serialpos": 3, "key_press": -1, "wordID": 623, "type": "PRES_AUD", "trial_index": 120}, "uniqueid": "MTK3697:3LJ7UR74RIKO0OVKT5O4JA6VZHP4N7", "dateTime": 1520962246700}, {"current_trial": 121, "trialdata": {"rt": -1000, "trial_type": "single-audio", "word": "chest", "stimulus": "/static/audio/wordpool/CHEST.wav", "conditions": [24, 1600, "a", 24000], "internal_node_id": "0.0-85.0", "trial": 3, "time_elapsed": 761250, "serialpos": 4, "key_press": -1, "wordID": 294, "type": "PRES_AUD", "trial_index": 121}, "uniqueid": "MTK3697:3LJ7UR74RIKO0OVKT5O4JA6VZHP4N7", "dateTime": 1520962249322}, {"current_trial": 122, "trialdata": {"rt": -1000, "trial_type": "single-audio", "word": "japan", "stimulus": "/static/audio/wordpool/JAPAN.wav", "conditions": [24, 1600, "a", 24000], "internal_node_id": "0.0-86.0", "trial": 3, "time_elapsed": 763968, "serialpos": 5, "key_press": -1, "wordID": 748, "type": "PRES_AUD", "trial_index": 122}, "uniqueid": "MTK3697:3LJ7UR74RIKO0OVKT5O4JA6VZHP4N7", "dateTime": 1520962252040}, {"current_trial": 123, "trialdata": {"rt": -1000, "trial_type": "single-audio", "word": "marsh", "stimulus": "/static/audio/wordpool/MARSH.wav", "conditions": [24, 1600, "a", 24000], "internal_node_id": "0.0-87.0", "trial": 3, "time_elapsed": 766735, "serialpos": 6, "key_press": -1, "wordID": 873, "type": "PRES_AUD", "trial_index": 123}, "uniqueid": "MTK3697:3LJ7UR74RIKO0OVKT5O4JA6VZHP4N7", "dateTime": 1520962254807}, {"current_trial": 124, "trialdata": {"rt": -1000, "trial_type": "single-audio", "word": "flower", "stimulus": "/static/audio/wordpool/FLOWER.wav", "conditions": [24, 1600, "a", 24000], "internal_node_id": "0.0-88.0", "trial": 3, "time_elapsed": 769360, "serialpos": 7, "key_press": -1, "wordID": 583, "type": "PRES_AUD", "trial_index": 124}, "uniqueid": "MTK3697:3LJ7UR74RIKO0OVKT5O4JA6VZHP4N7", "dateTime": 1520962257432}, {"current_trial": 125, "trialdata": {"rt": -1000, "trial_type": "single-audio", "word": "sponge", "stimulus": "/static/audio/wordpool/SPONGE.wav", "conditions": [24, 1600, "a", 24000], "internal_node_id": "0.0-89.0", "trial": 3, "time_elapsed": 772140, "serialpos": 8, "key_press": -1, "wordID": 1354, "type": "PRES_AUD", "trial_index": 125}, "uniqueid": "MTK3697:3LJ7UR74RIKO0OVKT5O4JA6VZHP4N7", "dateTime": 1520962260212}, {"current_trial": 126, "trialdata": {"rt": -1000, "trial_type": "single-audio", "word": "dandruff", "stimulus": "/static/audio/wordpool/DANDRUFF.wav", "conditions": [24, 1600, "a", 24000], "internal_node_id": "0.0-90.0", "trial": 3, "time_elapsed": 774564, "serialpos": 9, "key_press": -1, "wordID": 438, "type": "PRES_AUD", "trial_index": 126}, "uniqueid": "MTK3697:3LJ7UR74RIKO0OVKT5O4JA6VZHP4N7", "dateTime": 1520962262636}, {"current_trial": 127, "trialdata": {"rt": -1000, "trial_type": "single-audio", "word": "drill", "stimulus": "/static/audio/wordpool/DRILL.wav", "conditions": [24, 1600, "a", 24000], "internal_node_id": "0.0-91.0", "trial": 3, "time_elapsed": 777185, "serialpos": 10, "key_press": -1, "wordID": 496, "type": "PRES_AUD", "trial_index": 127}, "uniqueid": "MTK3697:3LJ7UR74RIKO0OVKT5O4JA6VZHP4N7", "dateTime": 1520962265258}, {"current_trial": 128, "trialdata": {"rt": -1000, "trial_type": "single-audio", "word": "bathtub", "stimulus": "/static/audio/wordpool/BATHTUB.wav", "conditions": [24, 1600, "a", 24000], "internal_node_id": "0.0-92.0", "trial": 3, "time_elapsed": 779922, "serialpos": 11, "key_press": -1, "wordID": 99, "type": "PRES_AUD", "trial_index": 128}, "uniqueid": "MTK3697:3LJ7UR74RIKO0OVKT5O4JA6VZHP4N7", "dateTime": 1520962267994}, {"current_trial": 129, "trialdata": {"rt": -1000, "trial_type": "single-audio", "word": "asia", "stimulus": "/static/audio/wordpool/ASIA.wav", "conditions": [24, 1600, "a", 24000], "internal_node_id": "0.0-93.0", "trial": 3, "time_elapsed": 782564, "serialpos": 12, "key_press": -1, "wordID": 45, "type": "PRES_AUD", "trial_index": 129}, "uniqueid": "MTK3697:3LJ7UR74RIKO0OVKT5O4JA6VZHP4N7", "dateTime": 1520962270636}, {"current_trial": 130, "trialdata": {"rt": -1000, "trial_type": "single-audio", "word": "seagull", "stimulus": "/static/audio/wordpool/SEAGULL.wav", "conditions": [24, 1600, "a", 24000], "internal_node_id": "0.0-94.0", "trial": 3, "time_elapsed": 785293, "serialpos": 13, "key_press": -1, "wordID": 1260, "type": "PRES_AUD", "trial_index": 130}, "uniqueid": "MTK3697:3LJ7UR74RIKO0OVKT5O4JA6VZHP4N7", "dateTime": 1520962273365}, {"current_trial": 131, "trialdata": {"rt": -1000, "trial_type": "single-audio", "word": "blockade", "stimulus": "/static/audio/wordpool/BLOCKADE.wav", "conditions": [24, 1600, "a", 24000], "internal_node_id": "0.0-95.0", "trial": 3, "time_elapsed": 787874, "serialpos": 14, "key_press": -1, "wordID": 136, "type": "PRES_AUD", "trial_index": 131}, "uniqueid": "MTK3697:3LJ7UR74RIKO0OVKT5O4JA6VZHP4N7", "dateTime": 1520962275946}, {"current_trial": 132, "trialdata": {"rt": -1000, "trial_type": "single-audio", "word": "europe", "stimulus": "/static/audio/wordpool/EUROPE.wav", "conditions": [24, 1600, "a", 24000], "internal_node_id": "0.0-96.0", "trial": 3, "time_elapsed": 790533, "serialpos": 15, "key_press": -1, "wordID": 540, "type": "PRES_AUD", "trial_index": 132}, "uniqueid": "MTK3697:3LJ7UR74RIKO0OVKT5O4JA6VZHP4N7", "dateTime": 1520962278605}, {"current_trial": 133, "trialdata": {"rt": -1000, "trial_type": "single-audio", "word": "typist", "stimulus": "/static/audio/wordpool/TYPIST.wav", "conditions": [24, 1600, "a", 24000], "internal_node_id": "0.0-97.0", "trial": 3, "time_elapsed": 793266, "serialpos": 16, "key_press": -1, "wordID": 1531, "type": "PRES_AUD", "trial_index": 133}, "uniqueid": "MTK3697:3LJ7UR74RIKO0OVKT5O4JA6VZHP4N7", "dateTime": 1520962281338}, {"current_trial": 134, "trialdata": {"rt": -1000, "trial_type": "single-audio", "word": "dancer", "stimulus": "/static/audio/wordpool/DANCER.wav", "conditions": [24, 1600, "a", 24000], "internal_node_id": "0.0-98.0", "trial": 3, "time_elapsed": 795973, "serialpos": 17, "key_press": -1, "wordID": 436, "type": "PRES_AUD", "trial_index": 134}, "uniqueid": "MTK3697:3LJ7UR74RIKO0OVKT5O4JA6VZHP4N7", "dateTime": 1520962284045}, {"current_trial": 135, "trialdata": {"rt": -1000, "trial_type": "single-audio", "word": "crutch", "stimulus": "/static/audio/wordpool/CRUTCH.wav", "conditions": [24, 1600, "a", 24000], "internal_node_id": "0.0-99.0", "trial": 3, "time_elapsed": 798394, "serialpos": 18, "key_press": -1, "wordID": 416, "type": "PRES_AUD", "trial_index": 135}, "uniqueid": "MTK3697:3LJ7UR74RIKO0OVKT5O4JA6VZHP4N7", "dateTime": 1520962286466}, {"current_trial": 136, "trialdata": {"rt": -1000, "trial_type": "single-audio", "word": "powder", "stimulus": "/static/audio/wordpool/POWDER.wav", "conditions": [24, 1600, "a", 24000], "internal_node_id": "0.0-100.0", "trial": 3, "time_elapsed": 801074, "serialpos": 19, "key_press": -1, "wordID": 1116, "type": "PRES_AUD", "trial_index": 136}, "uniqueid": "MTK3697:3LJ7UR74RIKO0OVKT5O4JA6VZHP4N7", "dateTime": 1520962289146}, {"current_trial": 137, "trialdata": {"rt": -1000, "trial_type": "single-audio", "word": "sunset", "stimulus": "/static/audio/wordpool/SUNSET.wav", "conditions": [24, 1600, "a", 24000], "internal_node_id": "0.0-101.0", "trial": 3, "time_elapsed": 803624, "serialpos": 20, "key_press": -1, "wordID": 1407, "type": "PRES_AUD", "trial_index": 137}, "uniqueid": "MTK3697:3LJ7UR74RIKO0OVKT5O4JA6VZHP4N7", "dateTime": 1520962291696}, {"current_trial": 138, "trialdata": {"rt": -1000, "trial_type": "single-audio", "word": "sunrise", "stimulus": "/static/audio/wordpool/SUNRISE.wav", "conditions": [24, 1600, "a", 24000], "internal_node_id": "0.0-102.0", "trial": 3, "time_elapsed": 806105, "serialpos": 21, "key_press": -1, "wordID": 1406, "type": "PRES_AUD", "trial_index": 138}, "uniqueid": "MTK3697:3LJ7UR74RIKO0OVKT5O4JA6VZHP4N7", "dateTime": 1520962294177}, {"current_trial": 139, "trialdata": {"rt": -1000, "trial_type": "single-audio", "word": "briefcase", "stimulus": "/static/audio/wordpool/BRIEFCASE.wav", "conditions": [24, 1600, "a", 24000], "internal_node_id": "0.0-103.0", "trial": 3, "time_elapsed": 808615, "serialpos": 22, "key_press": -1, "wordID": 174, "type": "PRES_AUD", "trial_index": 139}, "uniqueid": "MTK3697:3LJ7UR74RIKO0OVKT5O4JA6VZHP4N7", "dateTime": 1520962296687}, {"current_trial": 140, "trialdata": {"rt": -1000, "trial_type": "single-audio", "word": "cupboard", "stimulus": "/static/audio/wordpool/CUPBOARD.wav", "conditions": [24, 1600, "a", 24000], "internal_node_id": "0.0-104.0", "trial": 3, "time_elapsed": 811200, "serialpos": 23, "key_press": -1, "wordID": 424, "type": "PRES_AUD", "trial_index": 140}, "uniqueid": "MTK3697:3LJ7UR74RIKO0OVKT5O4JA6VZHP4N7", "dateTime": 1520962299272}, {"current_trial": 141, "trialdata": {"rt": -1, "trial_type": "single-stim", "stimulus": "", "internal_node_id": "0.0-105.0-0.0", "time_elapsed": 812486, "key_press": -1, "type": "PRE_RECALL_DELAY", "trial_index": 141}, "uniqueid": "MTK3697:3LJ7UR74RIKO0OVKT5O4JA6VZHP4N7", "dateTime": 1520962300558}, {"current_trial": 142, "trialdata": {"rt": -1000, "trial_type": "single-audio", "stimulus": "/static/audio/400Hz.wav", "internal_node_id": "0.0-106.0", "time_elapsed": 812991, "key_press": -1, "type": "PRE_RECALL_ALERT", "trial_index": 142}, "uniqueid": "MTK3697:3LJ7UR74RIKO0OVKT5O4JA6VZHP4N7", "dateTime": 1520962301063}, {"current_trial": 143, "trialdata": {"rt": [3857, 5793, 10320, 13180, 15434, 18325, 22057, 25389, 28221, 37748, 43371, 46732, 50317, 53917, 56334], "recwords": ["sunset", "sunrise", "seagull", "asia", "europe", "garlic", "onion", "dancer", "typist", "blockade", "dandruff", "sponge", "flower", "japan", "marsh"], "key_times": [1559, 1722, 2031, 2494, 3038, 3408, 3857, 4340, 4524, 4728, 5096, 5295, 5436, 5556, 5793, 7554, 7754, 7941, 8182, 8343, 8568, 9887, 10320, 11324, 11547, 11682, 11847, 11942, 12325, 12479, 12618, 12856, 12972, 13180, 13744, 14052, 14191, 14525, 14809, 15202, 15434, 16363, 16585, 16813, 16948, 17296, 17449, 17565, 17717, 17944, 18052, 18325, 19664, 19984, 20198, 20352, 20651, 20813, 21214, 21488, 21641, 22057, 23760, 23858, 24350, 24559, 24711, 24873, 25054, 25198, 25389, 25897, 26158, 26406, 26729, 26848, 27205, 27446, 27910, 28221, 32885, 33060, 33445, 33733, 34066, 34226, 34398, 34580, 35010, 35196, 35637, 35823, 35965, 36169, 36479, 36630, 37404, 37562, 37748, 40751, 40921, 41054, 41215, 41855, 42651, 42873, 43081, 43371, 44533, 44663, 44928, 45158, 45291, 45547, 45819, 45967, 46072, 46305, 46732, 48901, 49356, 49555, 49687, 49997, 50131, 50317, 50987, 51264, 51613, 51776, 52330, 52750, 53015, 53222, 53375, 53917, 54497, 54650, 54868, 55090, 55244, 55718, 55947, 56334, 57271, 57809, 58078, 58266, 58384, 58596, 58751, 58892, 59032, 59534, 59730, 59847, 59987], "trial_type": "free-recall", "conditions": [24, 1600, "a", 24000], "internal_node_id": "0.0-107.0-0.0", "key_presses": [83, 85, 78, 83, 69, 84, 13, 83, 85, 78, 82, 73, 83, 69, 13, 83, 69, 65, 71, 85, 76, 76, 13, 65, 83, 65, 73, 65, 8, 8, 8, 73, 65, 13, 69, 85, 82, 79, 80, 69, 13, 71, 65, 84, 76, 8, 8, 82, 76, 73, 67, 32, 80, 78, 8, 8, 79, 78, 73, 79, 78, 13, 68, 68, 8, 65, 78, 67, 69, 82, 13, 84, 89, 80, 73, 83, 84, 222, 8, 13, 66, 76, 79, 65, 8, 67, 75, 65, 70, 69, 8, 8, 83, 87, 8, 8, 68, 69, 13, 68, 65, 78, 68, 82, 85, 70, 70, 13, 83, 80, 79, 78, 70, 69, 8, 8, 71, 69, 13, 70, 76, 79, 87, 69, 82, 13, 72, 65, 8, 8, 74, 65, 80, 65, 78, 13, 77, 65, 82, 83, 74, 8, 72, 13, 70, 8, 83, 73, 65, 8, 8, 8, 8, 68, 65, 73, 83], "trial": 3, "time_elapsed": 872996, "type": "FREE_RECALL", "trial_index": 143}, "uniqueid": "MTK3697:3LJ7UR74RIKO0OVKT5O4JA6VZHP4N7", "dateTime": 1520962361075}, {"current_trial": 144, "trialdata": {"rt": 902, "trial_type": "text", "internal_node_id": "0.0-108.0", "time_elapsed": 875906, "key_press": 32, "type": "INSTRUCTIONS", "trial_index": 144}, "uniqueid": "MTK3697:3LJ7UR74RIKO0OVKT5O4JA6VZHP4N7", "dateTime": 1520962363978}, {"current_trial": 145, "trialdata": {"rt": [21809], "trial_type": "math-distractor", "key_times": [7228, 9019, 18696, 18894, 19755, 20301, 21809], "responses": ["17"], "num2": [5, 9], "num3": [9, 1], "conditions": [12, 1600, "a", 24000], "internal_node_id": "0.0-109.0", "key_presses": [50, 51, 8, 8, 49, 55, 13], "trial": 4, "time_elapsed": 901910, "type": "DISTRACTOR", "trial_index": 145, "num1": [9, 3]}, "uniqueid": "MTK3697:3LJ7UR74RIKO0OVKT5O4JA6VZHP4N7", "dateTime": 1520962389983}, {"current_trial": 146, "trialdata": {"rt": -1, "trial_type": "single-stim", "stimulus": "<p id=\"stim\">10</p>", "internal_node_id": "0.0-110.0-0.0", "time_elapsed": 904912, "key_press": -1, "trial_index": 146}, "uniqueid": "MTK3697:3LJ7UR74RIKO0OVKT5O4JA6VZHP4N7", "dateTime": 1520962392984}, {"current_trial": 147, "trialdata": {"rt": -1, "trial_type": "single-stim", "stimulus": "<p id=\"stim\">9</p>", "internal_node_id": "0.0-110.0-1.0", "time_elapsed": 905914, "key_press": -1, "trial_index": 147}, "uniqueid": "MTK3697:3LJ7UR74RIKO0OVKT5O4JA6VZHP4N7", "dateTime": 1520962393986}, {"current_trial": 148, "trialdata": {"rt": -1, "trial_type": "single-stim", "stimulus": "<p id=\"stim\">8</p>", "internal_node_id": "0.0-110.0-2.0", "time_elapsed": 906916, "key_press": -1, "trial_index": 148}, "uniqueid": "MTK3697:3LJ7UR74RIKO0OVKT5O4JA6VZHP4N7", "dateTime": 1520962394988}, {"current_trial": 149, "trialdata": {"rt": -1, "trial_type": "single-stim", "stimulus": "<p id=\"stim\">7</p>", "internal_node_id": "0.0-110.0-3.0", "time_elapsed": 907918, "key_press": -1, "trial_index": 149}, "uniqueid": "MTK3697:3LJ7UR74RIKO0OVKT5O4JA6VZHP4N7", "dateTime": 1520962395990}, {"current_trial": 150, "trialdata": {"rt": -1, "trial_type": "single-stim", "stimulus": "<p id=\"stim\">6</p>", "internal_node_id": "0.0-110.0-4.0", "time_elapsed": 908920, "key_press": -1, "trial_index": 150}, "uniqueid": "MTK3697:3LJ7UR74RIKO0OVKT5O4JA6VZHP4N7", "dateTime": 1520962396992}, {"current_trial": 151, "trialdata": {"rt": -1, "trial_type": "single-stim", "stimulus": "<p id=\"stim\">5</p>", "internal_node_id": "0.0-110.0-5.0", "time_elapsed": 909922, "key_press": -1, "trial_index": 151}, "uniqueid": "MTK3697:3LJ7UR74RIKO0OVKT5O4JA6VZHP4N7", "dateTime": 1520962397994}, {"current_trial": 152, "trialdata": {"rt": -1, "trial_type": "single-stim", "stimulus": "<p id=\"stim\">4</p>", "internal_node_id": "0.0-110.0-6.0", "time_elapsed": 910924, "key_press": -1, "trial_index": 152}, "uniqueid": "MTK3697:3LJ7UR74RIKO0OVKT5O4JA6VZHP4N7", "dateTime": 1520962398996}, {"current_trial": 153, "trialdata": {"rt": -1, "trial_type": "single-stim", "stimulus": "<p id=\"stim\">3</p>", "internal_node_id": "0.0-110.0-7.0", "time_elapsed": 911926, "key_press": -1, "trial_index": 153}, "uniqueid": "MTK3697:3LJ7UR74RIKO0OVKT5O4JA6VZHP4N7", "dateTime": 1520962399998}, {"current_trial": 154, "trialdata": {"rt": -1, "trial_type": "single-stim", "stimulus": "<p id=\"stim\">2</p>", "internal_node_id": "0.0-110.0-8.0", "time_elapsed": 912929, "key_press": -1, "trial_index": 154}, "uniqueid": "MTK3697:3LJ7UR74RIKO0OVKT5O4JA6VZHP4N7", "dateTime": 1520962401001}, {"current_trial": 155, "trialdata": {"rt": -1, "trial_type": "single-stim", "stimulus": "<p id=\"stim\">1</p>", "internal_node_id": "0.0-110.0-9.0", "time_elapsed": 913931, "key_press": -1, "trial_index": 155}, "uniqueid": "MTK3697:3LJ7UR74RIKO0OVKT5O4JA6VZHP4N7", "dateTime": 1520962402003}, {"current_trial": 156, "trialdata": {"rt": -1, "trial_type": "single-stim", "stimulus": "<p id=\"stim\">+</p>", "internal_node_id": "0.0-111.0-0.0", "time_elapsed": 915433, "key_press": -1, "type": "FIXATION", "trial_index": 156}, "uniqueid": "MTK3697:3LJ7UR74RIKO0OVKT5O4JA6VZHP4N7", "dateTime": 1520962403505}, {"current_trial": 157, "trialdata": {"rt": -1000, "trial_type": "single-audio", "word": "waitress", "stimulus": "/static/audio/wordpool/WAITRESS.wav", "conditions": [12, 1600, "a", 24000], "internal_node_id": "0.0-112.0", "trial": 4, "time_elapsed": 917992, "serialpos": 0, "key_press": -1, "wordID": 1580, "type": "PRES_AUD", "trial_index": 157}, "uniqueid": "MTK3697:3LJ7UR74RIKO0OVKT5O4JA6VZHP4N7", "dateTime": 1520962406065}, {"current_trial": 158, "trialdata": {"rt": -1000, "trial_type": "single-audio", "word": "shovel", "stimulus": "/static/audio/wordpool/SHOVEL.wav", "conditions": [12, 1600, "a", 24000], "internal_node_id": "0.0-113.0", "trial": 4, "time_elapsed": 920745, "serialpos": 1, "key_press": -1, "wordID": 1294, "type": "PRES_AUD", "trial_index": 158}, "uniqueid": "MTK3697:3LJ7UR74RIKO0OVKT5O4JA6VZHP4N7", "dateTime": 1520962408818}, {"current_trial": 159, "trialdata": {"rt": -1000, "trial_type": "single-audio", "word": "pasta", "stimulus": "/static/audio/wordpool/PASTA.wav", "conditions": [12, 1600, "a", 24000], "internal_node_id": "0.0-114.0", "trial": 4, "time_elapsed": 923528, "serialpos": 2, "key_press": -1, "wordID": 1020, "type": "PRES_AUD", "trial_index": 159}, "uniqueid": "MTK3697:3LJ7UR74RIKO0OVKT5O4JA6VZHP4N7", "dateTime": 1520962411600}, {"current_trial": 160, "trialdata": {"rt": -1000, "trial_type": "single-audio", "word": "plate", "stimulus": "/static/audio/wordpool/PLATE.wav", "conditions": [12, 1600, "a", 24000], "internal_node_id": "0.0-115.0", "trial": 4, "time_elapsed": 926022, "serialpos": 3, "key_press": -1, "wordID": 1085, "type": "PRES_AUD", "trial_index": 160}, "uniqueid": "MTK3697:3LJ7UR74RIKO0OVKT5O4JA6VZHP4N7", "dateTime": 1520962414099}, {"current_trial": 161, "trialdata": {"rt": -1000, "trial_type": "single-audio", "word": "plaid", "stimulus": "/static/audio/wordpool/PLAID.wav", "conditions": [12, 1600, "a", 24000], "internal_node_id": "0.0-116.0", "trial": 4, "time_elapsed": 928561, "serialpos": 4, "key_press": -1, "wordID": 1079, "type": "PRES_AUD", "trial_index": 161}, "uniqueid": "MTK3697:3LJ7UR74RIKO0OVKT5O4JA6VZHP4N7", "dateTime": 1520962416633}, {"current_trial": 162, "trialdata": {"rt": -1000, "trial_type": "single-audio", "word": "dust", "stimulus": "/static/audio/wordpool/DUST.wav", "conditions": [12, 1600, "a", 24000], "internal_node_id": "0.0-117.0", "trial": 4, "time_elapsed": 931192, "serialpos": 5, "key_press": -1, "wordID": 507, "type": "PRES_AUD", "trial_index": 162}, "uniqueid": "MTK3697:3LJ7UR74RIKO0OVKT5O4JA6VZHP4N7", "dateTime": 1520962419264}, {"current_trial": 163, "trialdata": {"rt": -1000, "trial_type": "single-audio", "word": "parrot", "stimulus": "/static/audio/wordpool/PARROT.wav", "conditions": [12, 1600, "a", 24000], "internal_node_id": "0.0-118.0", "trial": 4, "time_elapsed": 933900, "serialpos": 6, "key_press": -1, "wordID": 1014, "type": "PRES_AUD", "trial_index": 163}, "uniqueid": "MTK3697:3LJ7UR74RIKO0OVKT5O4JA6VZHP4N7", "dateTime": 1520962421972}, {"current_trial": 164, "trialdata": {"rt": -1000, "trial_type": "single-audio", "word": "penguin", "stimulus": "/static/audio/wordpool/PENGUIN.wav", "conditions": [12, 1600, "a", 24000], "internal_node_id": "0.0-119.0", "trial": 4, "time_elapsed": 936419, "serialpos": 7, "key_press": -1, "wordID": 1043, "type": "PRES_AUD", "trial_index": 164}, "uniqueid": "MTK3697:3LJ7UR74RIKO0OVKT5O4JA6VZHP4N7", "dateTime": 1520962424491}, {"current_trial": 165, "trialdata": {"rt": -1000, "trial_type": "single-audio", "word": "cashier", "stimulus": "/static/audio/wordpool/CASHIER.wav", "conditions": [12, 1600, "a", 24000], "internal_node_id": "0.0-120.0", "trial": 4, "time_elapsed": 938977, "serialpos": 8, "key_press": -1, "wordID": 253, "type": "PRES_AUD", "trial_index": 165}, "uniqueid": "MTK3697:3LJ7UR74RIKO0OVKT5O4JA6VZHP4N7", "dateTime": 1520962427049}, {"current_trial": 166, "trialdata": {"rt": -1000, "trial_type": "single-audio", "word": "muffin", "stimulus": "/static/audio/wordpool/MUFFIN.wav", "conditions": [12, 1600, "a", 24000], "internal_node_id": "0.0-121.0", "trial": 4, "time_elapsed": 941759, "serialpos": 9, "key_press": -1, "wordID": 928, "type": "PRES_AUD", "trial_index": 166}, "uniqueid": "MTK3697:3LJ7UR74RIKO0OVKT5O4JA6VZHP4N7", "dateTime": 1520962429831}, {"current_trial": 167, "trialdata": {"rt": -1000, "trial_type": "single-audio", "word": "dress", "stimulus": "/static/audio/wordpool/DRESS.wav", "conditions": [12, 1600, "a", 24000], "internal_node_id": "0.0-122.0", "trial": 4, "time_elapsed": 944480, "serialpos": 10, "key_press": -1, "wordID": 494, "type": "PRES_AUD", "trial_index": 167}, "uniqueid": "MTK3697:3LJ7UR74RIKO0OVKT5O4JA6VZHP4N7", "dateTime": 1520962432553}, {"current_trial": 168, "trialdata": {"rt": -1000, "trial_type": "single-audio", "word": "skirt", "stimulus": "/static/audio/wordpool/SKIRT.wav", "conditions": [12, 1600, "a", 24000], "internal_node_id": "0.0-123.0", "trial": 4, "time_elapsed": 946931, "serialpos": 11, "key_press": -1, "wordID": 1318, "type": "PRES_AUD", "trial_index": 168}, "uniqueid": "MTK3697:3LJ7UR74RIKO0OVKT5O4JA6VZHP4N7", "dateTime": 1520962435003}, {"current_trial": 169, "trialdata": {"rt": -1, "trial_type": "single-stim", "stimulus": "", "internal_node_id": "0.0-124.0-0.0", "time_elapsed": 948320, "key_press": -1, "type": "PRE_RECALL_DELAY", "trial_index": 169}, "uniqueid": "MTK3697:3LJ7UR74RIKO0OVKT5O4JA6VZHP4N7", "dateTime": 1520962436392}, {"current_trial": 170, "trialdata": {"rt": -1000, "trial_type": "single-audio", "stimulus": "/static/audio/400Hz.wav", "internal_node_id": "0.0-125.0", "time_elapsed": 948825, "key_press": -1, "type": "PRE_RECALL_ALERT", "trial_index": 170}, "uniqueid": "MTK3697:3LJ7UR74RIKO0OVKT5O4JA6VZHP4N7", "dateTime": 1520962436898}, {"current_trial": 171, "trialdata": {"rt": [5585, 7246, 16085, 18022, 20460, 22175, 26720, 30355, 32193, 36322, 38612, 43780, 47548], "recwords": ["skirt", "dress", "penguin", "muffin", "dust", "parrot", "cashier", "pasta", "shovel", "waitress", "shovel", "plate", "flag"], "key_times": [1908, 2240, 2429, 2612, 2786, 3136, 3287, 3428, 3533, 3917, 4950, 5288, 5439, 5585, 6000, 6301, 6455, 6912, 7074, 7246, 8014, 8163, 8606, 8913, 9433, 9604, 10515, 11154, 11542, 12775, 13498, 13666, 13813, 13969, 14212, 15045, 15284, 15522, 15586, 16085, 16627, 16891, 17130, 17275, 17396, 17626, 18022, 19467, 19658, 19818, 20050, 20460, 21076, 21217, 21506, 21671, 21803, 21982, 22175, 24501, 24684, 24949, 25050, 25268, 25444, 25641, 26040, 26212, 26385, 26493, 26720, 29057, 29179, 29356, 29598, 29926, 30355, 30709, 30909, 31186, 31556, 31735, 31891, 32193, 33516, 33731, 34259, 34451, 34829, 34980, 35481, 35687, 35908, 36096, 36322, 37291, 37574, 37732, 37914, 38175, 38343, 38612, 40973, 41150, 41260, 41497, 41734, 41976, 42135, 42269, 42381, 42796, 42951, 43167, 43362, 43780, 44545, 44837, 45005, 45256, 45379, 45608, 45774, 46074, 46605, 46974, 47548], "trial_type": "free-recall", "conditions": [12, 1600, "a", 24000], "internal_node_id": "0.0-126.0-0.0", "key_presses": [83, 75, 73, 84, 89, 8, 8, 8, 82, 8, 73, 82, 84, 13, 68, 82, 69, 83, 83, 13, 80, 69, 71, 85, 8, 8, 71, 85, 73, 78, 8, 8, 8, 8, 78, 71, 85, 73, 78, 13, 77, 85, 70, 70, 73, 78, 13, 68, 85, 83, 84, 13, 80, 65, 82, 82, 79, 84, 13, 67, 65, 83, 72, 73, 82, 84, 8, 8, 69, 82, 13, 80, 65, 83, 84, 65, 13, 83, 72, 79, 86, 69, 76, 13, 87, 65, 73, 82, 8, 84, 82, 69, 83, 83, 13, 83, 72, 79, 86, 69, 76, 13, 80, 65, 76, 84, 69, 8, 8, 8, 8, 76, 65, 84, 69, 13, 70, 65, 76, 8, 8, 76, 65, 70, 8, 71, 13], "trial": 4, "time_elapsed": 1008830, "type": "FREE_RECALL", "trial_index": 171}, "uniqueid": "MTK3697:3LJ7UR74RIKO0OVKT5O4JA6VZHP4N7", "dateTime": 1520962496910}, {"current_trial": 172, "trialdata": {"rt": 3684, "trial_type": "text", "internal_node_id": "0.0-127.0", "time_elapsed": 1014521, "key_press": 32, "type": "INSTRUCTIONS", "trial_index": 172}, "uniqueid": "MTK3697:3LJ7UR74RIKO0OVKT5O4JA6VZHP4N7", "dateTime": 1520962502593}, {"current_trial": 173, "trialdata": {"rt": [4627], "trial_type": "math-distractor", "key_times": [2023, 2266, 3138, 3387, 4107, 4290, 4627, 7954, 8608, 9519, 9987], "responses": ["11"], "num2": [3, 9], "num3": [2, 8], "conditions": [12, 800, "a", 12000], "internal_node_id": "0.0-128.0", "key_presses": [50, 50, 8, 8, 49, 49, 13, 49, 48, 8, 57], "trial": 5, "time_elapsed": 1028526, "type": "DISTRACTOR", "trial_index": 173, "num1": [6, 2]}, "uniqueid": "MTK3697:3LJ7UR74RIKO0OVKT5O4JA6VZHP4N7", "dateTime": 1520962516598}, {"current_trial": 174, "trialdata": {"rt": -1, "trial_type": "single-stim", "stimulus": "<p id=\"stim\">10</p>", "internal_node_id": "0.0-129.0-0.0", "time_elapsed": 1031529, "key_press": -1, "trial_index": 174}, "uniqueid": "MTK3697:3LJ7UR74RIKO0OVKT5O4JA6VZHP4N7", "dateTime": 1520962519601}, {"current_trial": 175, "trialdata": {"rt": -1, "trial_type": "single-stim", "stimulus": "<p id=\"stim\">9</p>", "internal_node_id": "0.0-129.0-1.0", "time_elapsed": 1032530, "key_press": -1, "trial_index": 175}, "uniqueid": "MTK3697:3LJ7UR74RIKO0OVKT5O4JA6VZHP4N7", "dateTime": 1520962520602}, {"current_trial": 176, "trialdata": {"rt": -1, "trial_type": "single-stim", "stimulus": "<p id=\"stim\">8</p>", "internal_node_id": "0.0-129.0-2.0", "time_elapsed": 1033533, "key_press": -1, "trial_index": 176}, "uniqueid": "MTK3697:3LJ7UR74RIKO0OVKT5O4JA6VZHP4N7", "dateTime": 1520962521605}, {"current_trial": 177, "trialdata": {"rt": -1, "trial_type": "single-stim", "stimulus": "<p id=\"stim\">7</p>", "internal_node_id": "0.0-129.0-3.0", "time_elapsed": 1034534, "key_press": -1, "trial_index": 177}, "uniqueid": "MTK3697:3LJ7UR74RIKO0OVKT5O4JA6VZHP4N7", "dateTime": 1520962522606}, {"current_trial": 178, "trialdata": {"rt": -1, "trial_type": "single-stim", "stimulus": "<p id=\"stim\">6</p>", "internal_node_id": "0.0-129.0-4.0", "time_elapsed": 1035537, "key_press": -1, "trial_index": 178}, "uniqueid": "MTK3697:3LJ7UR74RIKO0OVKT5O4JA6VZHP4N7", "dateTime": 1520962523609}, {"current_trial": 179, "trialdata": {"rt": -1, "trial_type": "single-stim", "stimulus": "<p id=\"stim\">5</p>", "internal_node_id": "0.0-129.0-5.0", "time_elapsed": 1036539, "key_press": -1, "trial_index": 179}, "uniqueid": "MTK3697:3LJ7UR74RIKO0OVKT5O4JA6VZHP4N7", "dateTime": 1520962524611}, {"current_trial": 180, "trialdata": {"rt": -1, "trial_type": "single-stim", "stimulus": "<p id=\"stim\">4</p>", "internal_node_id": "0.0-129.0-6.0", "time_elapsed": 1037541, "key_press": -1, "trial_index": 180}, "uniqueid": "MTK3697:3LJ7UR74RIKO0OVKT5O4JA6VZHP4N7", "dateTime": 1520962525613}, {"current_trial": 181, "trialdata": {"rt": -1, "trial_type": "single-stim", "stimulus": "<p id=\"stim\">3</p>", "internal_node_id": "0.0-129.0-7.0", "time_elapsed": 1038544, "key_press": -1, "trial_index": 181}, "uniqueid": "MTK3697:3LJ7UR74RIKO0OVKT5O4JA6VZHP4N7", "dateTime": 1520962526616}, {"current_trial": 182, "trialdata": {"rt": -1, "trial_type": "single-stim", "stimulus": "<p id=\"stim\">2</p>", "internal_node_id": "0.0-129.0-8.0", "time_elapsed": 1039544, "key_press": -1, "trial_index": 182}, "uniqueid": "MTK3697:3LJ7UR74RIKO0OVKT5O4JA6VZHP4N7", "dateTime": 1520962527616}, {"current_trial": 183, "trialdata": {"rt": -1, "trial_type": "single-stim", "stimulus": "<p id=\"stim\">1</p>", "internal_node_id": "0.0-129.0-9.0", "time_elapsed": 1040548, "key_press": -1, "trial_index": 183}, "uniqueid": "MTK3697:3LJ7UR74RIKO0OVKT5O4JA6VZHP4N7", "dateTime": 1520962528620}, {"current_trial": 184, "trialdata": {"rt": -1, "trial_type": "single-stim", "stimulus": "<p id=\"stim\">+</p>", "internal_node_id": "0.0-130.0-0.0", "time_elapsed": 1042050, "key_press": -1, "type": "FIXATION", "trial_index": 184}, "uniqueid": "MTK3697:3LJ7UR74RIKO0OVKT5O4JA6VZHP4N7", "dateTime": 1520962530122}, {"current_trial": 185, "trialdata": {"rt": -1000, "trial_type": "single-audio", "word": "gallon", "stimulus": "/static/audio/wordpool/GALLON.wav", "conditions": [12, 800, "a", 12000], "internal_node_id": "0.0-131.0", "trial": 5, "time_elapsed": 1044001, "serialpos": 0, "key_press": -1, "wordID": 617, "type": "PRES_AUD", "trial_index": 185}, "uniqueid": "MTK3697:3LJ7UR74RIKO0OVKT5O4JA6VZHP4N7", "dateTime": 1520962532073}, {"current_trial": 186, "trialdata": {"rt": -1000, "trial_type": "single-audio", "word": "creature", "stimulus": "/static/audio/wordpool/CREATURE.wav", "conditions": [12, 800, "a", 12000], "internal_node_id": "0.0-132.0", "trial": 5, "time_elapsed": 1045832, "serialpos": 1, "key_press": -1, "wordID": 402, "type": "PRES_AUD", "trial_index": 186}, "uniqueid": "MTK3697:3LJ7UR74RIKO0OVKT5O4JA6VZHP4N7", "dateTime": 1520962533904}, {"current_trial": 187, "trialdata": {"rt": -1000, "trial_type": "single-audio", "word": "critic", "stimulus": "/static/audio/wordpool/CRITIC.wav", "conditions": [12, 800, "a", 12000], "internal_node_id": "0.0-133.0", "trial": 5, "time_elapsed": 1047755, "serialpos": 2, "key_press": -1, "wordID": 409, "type": "PRES_AUD", "trial_index": 187}, "uniqueid": "MTK3697:3LJ7UR74RIKO0OVKT5O4JA6VZHP4N7", "dateTime": 1520962535828}, {"current_trial": 188, "trialdata": {"rt": -1000, "trial_type": "single-audio", "word": "bureau", "stimulus": "/static/audio/wordpool/BUREAU.wav", "conditions": [12, 800, "a", 12000], "internal_node_id": "0.0-134.0", "trial": 5, "time_elapsed": 1049692, "serialpos": 3, "key_press": -1, "wordID": 198, "type": "PRES_AUD", "trial_index": 188}, "uniqueid": "MTK3697:3LJ7UR74RIKO0OVKT5O4JA6VZHP4N7", "dateTime": 1520962537765}, {"current_trial": 189, "trialdata": {"rt": -1000, "trial_type": "single-audio", "word": "snake", "stimulus": "/static/audio/wordpool/SNAKE.wav", "conditions": [12, 800, "a", 12000], "internal_node_id": "0.0-135.0", "trial": 5, "time_elapsed": 1051523, "serialpos": 4, "key_press": -1, "wordID": 1332, "type": "PRES_AUD", "trial_index": 189}, "uniqueid": "MTK3697:3LJ7UR74RIKO0OVKT5O4JA6VZHP4N7", "dateTime": 1520962539595}, {"current_trial": 190, "trialdata": {"rt": -1000, "trial_type": "single-audio", "word": "grave", "stimulus": "/static/audio/wordpool/GRAVE.wav", "conditions": [12, 800, "a", 12000], "internal_node_id": "0.0-136.0", "trial": 5, "time_elapsed": 1053236, "serialpos": 5, "key_press": -1, "wordID": 657, "type": "PRES_AUD", "trial_index": 190}, "uniqueid": "MTK3697:3LJ7UR74RIKO0OVKT5O4JA6VZHP4N7", "dateTime": 1520962541308}, {"current_trial": 191, "trialdata": {"rt": -1000, "trial_type": "single-audio", "word": "igloo", "stimulus": "/static/audio/wordpool/IGLOO.wav", "conditions": [12, 800, "a", 12000], "internal_node_id": "0.0-137.0", "trial": 5, "time_elapsed": 1055142, "serialpos": 6, "key_press": -1, "wordID": 733, "type": "PRES_AUD", "trial_index": 191}, "uniqueid": "MTK3697:3LJ7UR74RIKO0OVKT5O4JA6VZHP4N7", "dateTime": 1520962543215}, {"current_trial": 192, "trialdata": {"rt": -1000, "trial_type": "single-audio", "word": "film", "stimulus": "/static/audio/wordpool/FILM.wav", "conditions": [12, 800, "a", 12000], "internal_node_id": "0.0-138.0", "trial": 5, "time_elapsed": 1056987, "serialpos": 7, "key_press": -1, "wordID": 564, "type": "PRES_AUD", "trial_index": 192}, "uniqueid": "MTK3697:3LJ7UR74RIKO0OVKT5O4JA6VZHP4N7", "dateTime": 1520962545059}, {"current_trial": 193, "trialdata": {"rt": -1000, "trial_type": "single-audio", "word": "lettuce", "stimulus": "/static/audio/wordpool/LETTUCE.wav", "conditions": [12, 800, "a", 12000], "internal_node_id": "0.0-139.0", "trial": 5, "time_elapsed": 1058817, "serialpos": 8, "key_press": -1, "wordID": 813, "type": "PRES_AUD", "trial_index": 193}, "uniqueid": "MTK3697:3LJ7UR74RIKO0OVKT5O4JA6VZHP4N7", "dateTime": 1520962546889}, {"current_trial": 194, "trialdata": {"rt": -1000, "trial_type": "single-audio", "word": "turtle", "stimulus": "/static/audio/wordpool/TURTLE.wav", "conditions": [12, 800, "a", 12000], "internal_node_id": "0.0-140.0", "trial": 5, "time_elapsed": 1060709, "serialpos": 9, "key_press": -1, "wordID": 1521, "type": "PRES_AUD", "trial_index": 194}, "uniqueid": "MTK3697:3LJ7UR74RIKO0OVKT5O4JA6VZHP4N7", "dateTime": 1520962548781}, {"current_trial": 195, "trialdata": {"rt": -1000, "trial_type": "single-audio", "word": "lily", "stimulus": "/static/audio/wordpool/LILY.wav", "conditions": [12, 800, "a", 12000], "internal_node_id": "0.0-141.0", "trial": 5, "time_elapsed": 1062591, "serialpos": 10, "key_press": -1, "wordID": 820, "type": "PRES_AUD", "trial_index": 195}, "uniqueid": "MTK3697:3LJ7UR74RIKO0OVKT5O4JA6VZHP4N7", "dateTime": 1520962550665}, {"current_trial": 196, "trialdata": {"rt": -1000, "trial_type": "single-audio", "word": "shrub", "stimulus": "/static/audio/wordpool/SHRUB.wav", "conditions": [12, 800, "a", 12000], "internal_node_id": "0.0-142.0", "trial": 5, "time_elapsed": 1064347, "serialpos": 11, "key_press": -1, "wordID": 1298, "type": "PRES_AUD", "trial_index": 196}, "uniqueid": "MTK3697:3LJ7UR74RIKO0OVKT5O4JA6VZHP4N7", "dateTime": 1520962552420}, {"current_trial": 197, "trialdata": {"rt": -1, "trial_type": "single-stim", "stimulus": "", "internal_node_id": "0.0-143.0-0.0", "time_elapsed": 1065565, "key_press": -1, "type": "PRE_RECALL_DELAY", "trial_index": 197}, "uniqueid": "MTK3697:3LJ7UR74RIKO0OVKT5O4JA6VZHP4N7", "dateTime": 1520962553637}, {"current_trial": 198, "trialdata": {"rt": -1000, "trial_type": "single-audio", "stimulus": "/static/audio/400Hz.wav", "internal_node_id": "0.0-144.0", "time_elapsed": 1066071, "key_press": -1, "type": "PRE_RECALL_ALERT", "trial_index": 198}, "uniqueid": "MTK3697:3LJ7UR74RIKO0OVKT5O4JA6VZHP4N7", "dateTime": 1520962554143}, {"current_trial": 199, "trialdata": {"rt": [6415, 9150, 12218, 21435, 35676], "recwords": ["shrub", "lily", "turtle", "bush", "lizard"], "key_times": [2562, 3029, 3127, 3574, 3708, 3927, 4085, 4238, 4913, 5151, 5447, 5798, 5968, 6415, 6973, 7576, 7831, 8180, 8627, 8972, 9150, 9886, 10016, 10226, 10833, 11134, 11517, 11852, 11989, 12218, 20413, 20668, 20771, 20952, 21435, 33737, 34066, 34242, 34450, 34731, 35177, 35335, 35558, 35676], "trial_type": "free-recall", "conditions": [12, 800, "a", 12000], "internal_node_id": "0.0-145.0-0.0", "key_presses": [65, 72, 72, 8, 82, 8, 8, 8, 83, 72, 82, 85, 66, 13, 76, 73, 76, 85, 8, 89, 13, 84, 85, 82, 84, 69, 8, 76, 69, 13, 66, 85, 83, 72, 13, 76, 73, 90, 65, 69, 8, 82, 68, 13], "trial": 5, "time_elapsed": 1126076, "type": "FREE_RECALL", "trial_index": 199}, "uniqueid": "MTK3697:3LJ7UR74RIKO0OVKT5O4JA6VZHP4N7", "dateTime": 1520962614154}, {"current_trial": 200, "trialdata": {"rt": 1871, "trial_type": "text", "internal_node_id": "0.0-146.0", "time_elapsed": 1129954, "key_press": 32, "type": "INSTRUCTIONS", "trial_index": 200}, "uniqueid": "MTK3697:3LJ7UR74RIKO0OVKT5O4JA6VZHP4N7", "dateTime": 1520962618026}, {"current_trial": 201, "trialdata": {"rt": [4915, 8877, 11493, 14607, 18234, 21761], "trial_type": "math-distractor", "key_times": [3820, 4289, 4915, 7867, 8002, 8877, 11129, 11493, 13222, 14236, 14607, 16804, 17747, 18234, 20663, 21155, 21761, 23831], "responses": ["19", "11", "9", "17", "14", "18"], "num2": [5, 7, 6, 6, 7, 7, 2], "num3": [8, 2, 1, 7, 1, 9, 2], "conditions": [24, 800, "a", 24000], "internal_node_id": "0.0-147.0", "key_presses": [49, 57, 13, 49, 49, 13, 57, 13, 49, 55, 13, 49, 52, 13, 49, 56, 13, 53], "trial": 6, "time_elapsed": 1155958, "type": "DISTRACTOR", "trial_index": 201, "num1": [6, 2, 2, 4, 6, 2, 1]}, "uniqueid": "MTK3697:3LJ7UR74RIKO0OVKT5O4JA6VZHP4N7", "dateTime": 1520962644031}, {"current_trial": 202, "trialdata": {"rt": -1, "trial_type": "single-stim", "stimulus": "<p id=\"stim\">10</p>", "internal_node_id": "0.0-148.0-0.0", "time_elapsed": 1158961, "key_press": -1, "trial_index": 202}, "uniqueid": "MTK3697:3LJ7UR74RIKO0OVKT5O4JA6VZHP4N7", "dateTime": 1520962647033}, {"current_trial": 203, "trialdata": {"rt": -1, "trial_type": "single-stim", "stimulus": "<p id=\"stim\">9</p>", "internal_node_id": "0.0-148.0-1.0", "time_elapsed": 1159963, "key_press": -1, "trial_index": 203}, "uniqueid": "MTK3697:3LJ7UR74RIKO0OVKT5O4JA6VZHP4N7", "dateTime": 1520962648035}, {"current_trial": 204, "trialdata": {"rt": -1, "trial_type": "single-stim", "stimulus": "<p id=\"stim\">8</p>", "internal_node_id": "0.0-148.0-2.0", "time_elapsed": 1160965, "key_press": -1, "trial_index": 204}, "uniqueid": "MTK3697:3LJ7UR74RIKO0OVKT5O4JA6VZHP4N7", "dateTime": 1520962649037}, {"current_trial": 205, "trialdata": {"rt": -1, "trial_type": "single-stim", "stimulus": "<p id=\"stim\">7</p>", "internal_node_id": "0.0-148.0-3.0", "time_elapsed": 1161967, "key_press": -1, "trial_index": 205}, "uniqueid": "MTK3697:3LJ7UR74RIKO0OVKT5O4JA6VZHP4N7", "dateTime": 1520962650039}, {"current_trial": 206, "trialdata": {"rt": -1, "trial_type": "single-stim", "stimulus": "<p id=\"stim\">6</p>", "internal_node_id": "0.0-148.0-4.0", "time_elapsed": 1162970, "key_press": -1, "trial_index": 206}, "uniqueid": "MTK3697:3LJ7UR74RIKO0OVKT5O4JA6VZHP4N7", "dateTime": 1520962651042}, {"current_trial": 207, "trialdata": {"rt": -1, "trial_type": "single-stim", "stimulus": "<p id=\"stim\">5</p>", "internal_node_id": "0.0-148.0-5.0", "time_elapsed": 1163972, "key_press": -1, "trial_index": 207}, "uniqueid": "MTK3697:3LJ7UR74RIKO0OVKT5O4JA6VZHP4N7", "dateTime": 1520962652044}, {"current_trial": 208, "trialdata": {"rt": -1, "trial_type": "single-stim", "stimulus": "<p id=\"stim\">4</p>", "internal_node_id": "0.0-148.0-6.0", "time_elapsed": 1164974, "key_press": -1, "trial_index": 208}, "uniqueid": "MTK3697:3LJ7UR74RIKO0OVKT5O4JA6VZHP4N7", "dateTime": 1520962653046}, {"current_trial": 209, "trialdata": {"rt": -1, "trial_type": "single-stim", "stimulus": "<p id=\"stim\">3</p>", "internal_node_id": "0.0-148.0-7.0", "time_elapsed": 1165976, "key_press": -1, "trial_index": 209}, "uniqueid": "MTK3697:3LJ7UR74RIKO0OVKT5O4JA6VZHP4N7", "dateTime": 1520962654048}, {"current_trial": 210, "trialdata": {"rt": -1, "trial_type": "single-stim", "stimulus": "<p id=\"stim\">2</p>", "internal_node_id": "0.0-148.0-8.0", "time_elapsed": 1166978, "key_press": -1, "trial_index": 210}, "uniqueid": "MTK3697:3LJ7UR74RIKO0OVKT5O4JA6VZHP4N7", "dateTime": 1520962655050}, {"current_trial": 211, "trialdata": {"rt": -1, "trial_type": "single-stim", "stimulus": "<p id=\"stim\">1</p>", "internal_node_id": "0.0-148.0-9.0", "time_elapsed": 1167982, "key_press": -1, "trial_index": 211}, "uniqueid": "MTK3697:3LJ7UR74RIKO0OVKT5O4JA6VZHP4N7", "dateTime": 1520962656054}, {"current_trial": 212, "trialdata": {"rt": -1, "trial_type": "single-stim", "stimulus": "<p id=\"stim\">+</p>", "internal_node_id": "0.0-149.0-0.0", "time_elapsed": 1169485, "key_press": -1, "type": "FIXATION", "trial_index": 212}, "uniqueid": "MTK3697:3LJ7UR74RIKO0OVKT5O4JA6VZHP4N7", "dateTime": 1520962657557}, {"current_trial": 213, "trialdata": {"rt": -1000, "trial_type": "single-audio", "word": "flesh", "stimulus": "/static/audio/wordpool/FLESH.wav", "conditions": [24, 800, "a", 24000], "internal_node_id": "0.0-150.0", "trial": 6, "time_elapsed": 1171395, "serialpos": 0, "key_press": -1, "wordID": 578, "type": "PRES_AUD", "trial_index": 213}, "uniqueid": "MTK3697:3LJ7UR74RIKO0OVKT5O4JA6VZHP4N7", "dateTime": 1520962659467}, {"current_trial": 214, "trialdata": {"rt": -1000, "trial_type": "single-audio", "word": "patrol", "stimulus": "/static/audio/wordpool/PATROL.wav", "conditions": [24, 800, "a", 24000], "internal_node_id": "0.0-151.0", "trial": 6, "time_elapsed": 1173281, "serialpos": 1, "key_press": -1, "wordID": 1026, "type": "PRES_AUD", "trial_index": 214}, "uniqueid": "MTK3697:3LJ7UR74RIKO0OVKT5O4JA6VZHP4N7", "dateTime": 1520962661353}, {"current_trial": 215, "trialdata": {"rt": -1000, "trial_type": "single-audio", "word": "blouse", "stimulus": "/static/audio/wordpool/BLOUSE.wav", "conditions": [24, 800, "a", 24000], "internal_node_id": "0.0-152.0", "trial": 6, "time_elapsed": 1175138, "serialpos": 2, "key_press": -1, "wordID": 138, "type": "PRES_AUD", "trial_index": 215}, "uniqueid": "MTK3697:3LJ7UR74RIKO0OVKT5O4JA6VZHP4N7", "dateTime": 1520962663212}, {"current_trial": 216, "trialdata": {"rt": -1000, "trial_type": "single-audio", "word": "denim", "stimulus": "/static/audio/wordpool/DENIM.wav", "conditions": [24, 800, "a", 24000], "internal_node_id": "0.0-153.0", "trial": 6, "time_elapsed": 1176875, "serialpos": 3, "key_press": -1, "wordID": 445, "type": "PRES_AUD", "trial_index": 216}, "uniqueid": "MTK3697:3LJ7UR74RIKO0OVKT5O4JA6VZHP4N7", "dateTime": 1520962664947}, {"current_trial": 217, "trialdata": {"rt": -1000, "trial_type": "single-audio", "word": "hound", "stimulus": "/static/audio/wordpool/HOUND.wav", "conditions": [24, 800, "a", 24000], "internal_node_id": "0.0-154.0", "trial": 6, "time_elapsed": 1178658, "serialpos": 4, "key_press": -1, "wordID": 723, "type": "PRES_AUD", "trial_index": 217}, "uniqueid": "MTK3697:3LJ7UR74RIKO0OVKT5O4JA6VZHP4N7", "dateTime": 1520962666730}, {"current_trial": 218, "trialdata": {"rt": -1000, "trial_type": "single-audio", "word": "fruit", "stimulus": "/static/audio/wordpool/FRUIT.wav", "conditions": [24, 800, "a", 24000], "internal_node_id": "0.0-155.0", "trial": 6, "time_elapsed": 1180293, "serialpos": 5, "key_press": -1, "wordID": 609, "type": "PRES_AUD", "trial_index": 218}, "uniqueid": "MTK3697:3LJ7UR74RIKO0OVKT5O4JA6VZHP4N7", "dateTime": 1520962668365}, {"current_trial": 219, "trialdata": {"rt": -1000, "trial_type": "single-audio", "word": "gymnast", "stimulus": "/static/audio/wordpool/GYMNAST.wav", "conditions": [24, 800, "a", 24000], "internal_node_id": "0.0-156.0", "trial": 6, "time_elapsed": 1182127, "serialpos": 6, "key_press": -1, "wordID": 674, "type": "PRES_AUD", "trial_index": 219}, "uniqueid": "MTK3697:3LJ7UR74RIKO0OVKT5O4JA6VZHP4N7", "dateTime": 1520962670199}, {"current_trial": 220, "trialdata": {"rt": -1000, "trial_type": "single-audio", "word": "actress", "stimulus": "/static/audio/wordpool/ACTRESS.wav", "conditions": [24, 800, "a", 24000], "internal_node_id": "0.0-157.0", "trial": 6, "time_elapsed": 1184076, "serialpos": 7, "key_press": -1, "wordID": 5, "type": "PRES_AUD", "trial_index": 220}, "uniqueid": "MTK3697:3LJ7UR74RIKO0OVKT5O4JA6VZHP4N7", "dateTime": 1520962672148}, {"current_trial": 221, "trialdata": {"rt": -1000, "trial_type": "single-audio", "word": "bunny", "stimulus": "/static/audio/wordpool/BUNNY.wav", "conditions": [24, 800, "a", 24000], "internal_node_id": "0.0-158.0", "trial": 6, "time_elapsed": 1185893, "serialpos": 8, "key_press": -1, "wordID": 197, "type": "PRES_AUD", "trial_index": 221}, "uniqueid": "MTK3697:3LJ7UR74RIKO0OVKT5O4JA6VZHP4N7", "dateTime": 1520962673965}, {"current_trial": 222, "trialdata": {"rt": -1000, "trial_type": "single-audio", "word": "marrow", "stimulus": "/static/audio/wordpool/MARROW.wav", "conditions": [24, 800, "a", 24000], "internal_node_id": "0.0-159.0", "trial": 6, "time_elapsed": 1187783, "serialpos": 9, "key_press": -1, "wordID": 871, "type": "PRES_AUD", "trial_index": 222}, "uniqueid": "MTK3697:3LJ7UR74RIKO0OVKT5O4JA6VZHP4N7", "dateTime": 1520962675855}, {"current_trial": 223, "trialdata": {"rt": -1000, "trial_type": "single-audio", "word": "transplant", "stimulus": "/static/audio/wordpool/TRANSPLANT.wav", "conditions": [24, 800, "a", 24000], "internal_node_id": "0.0-160.0", "trial": 6, "time_elapsed": 1189721, "serialpos": 10, "key_press": -1, "wordID": 1495, "type": "PRES_AUD", "trial_index": 223}, "uniqueid": "MTK3697:3LJ7UR74RIKO0OVKT5O4JA6VZHP4N7", "dateTime": 1520962677793}, {"current_trial": 224, "trialdata": {"rt": -1000, "trial_type": "single-audio", "word": "chipmunk", "stimulus": "/static/audio/wordpool/CHIPMUNK.wav", "conditions": [24, 800, "a", 24000], "internal_node_id": "0.0-161.0", "trial": 6, "time_elapsed": 1191580, "serialpos": 11, "key_press": -1, "wordID": 303, "type": "PRES_AUD", "trial_index": 224}, "uniqueid": "MTK3697:3LJ7UR74RIKO0OVKT5O4JA6VZHP4N7", "dateTime": 1520962679652}, {"current_trial": 225, "trialdata": {"rt": -1000, "trial_type": "single-audio", "word": "mustard", "stimulus": "/static/audio/wordpool/MUSTARD.wav", "conditions": [24, 800, "a", 24000], "internal_node_id": "0.0-162.0", "trial": 6, "time_elapsed": 1193487, "serialpos": 12, "key_press": -1, "wordID": 934, "type": "PRES_AUD", "trial_index": 225}, "uniqueid": "MTK3697:3LJ7UR74RIKO0OVKT5O4JA6VZHP4N7", "dateTime": 1520962681559}, {"current_trial": 226, "trialdata": {"rt": -1000, "trial_type": "single-audio", "word": "ozone", "stimulus": "/static/audio/wordpool/OZONE.wav", "conditions": [24, 800, "a", 24000], "internal_node_id": "0.0-163.0", "trial": 6, "time_elapsed": 1195424, "serialpos": 13, "key_press": -1, "wordID": 995, "type": "PRES_AUD", "trial_index": 226}, "uniqueid": "MTK3697:3LJ7UR74RIKO0OVKT5O4JA6VZHP4N7", "dateTime": 1520962683497}, {"current_trial": 227, "trialdata": {"rt": -1000, "trial_type": "single-audio", "word": "empire", "stimulus": "/static/audio/wordpool/EMPIRE.wav", "conditions": [24, 800, "a", 24000], "internal_node_id": "0.0-164.0", "trial": 6, "time_elapsed": 1197330, "serialpos": 14, "key_press": -1, "wordID": 529, "type": "PRES_AUD", "trial_index": 227}, "uniqueid": "MTK3697:3LJ7UR74RIKO0OVKT5O4JA6VZHP4N7", "dateTime": 1520962685402}, {"current_trial": 228, "trialdata": {"rt": -1000, "trial_type": "single-audio", "word": "popcorn", "stimulus": "/static/audio/wordpool/POPCORN.wav", "conditions": [24, 800, "a", 24000], "internal_node_id": "0.0-165.0", "trial": 6, "time_elapsed": 1199245, "serialpos": 15, "key_press": -1, "wordID": 1103, "type": "PRES_AUD", "trial_index": 228}, "uniqueid": "MTK3697:3LJ7UR74RIKO0OVKT5O4JA6VZHP4N7", "dateTime": 1520962687317}, {"current_trial": 229, "trialdata": {"rt": -1000, "trial_type": "single-audio", "word": "zebra", "stimulus": "/static/audio/wordpool/ZEBRA.wav", "conditions": [24, 800, "a", 24000], "internal_node_id": "0.0-166.0", "trial": 6, "time_elapsed": 1200967, "serialpos": 16, "key_press": -1, "wordID": 1634, "type": "PRES_AUD", "trial_index": 229}, "uniqueid": "MTK3697:3LJ7UR74RIKO0OVKT5O4JA6VZHP4N7", "dateTime": 1520962689039}, {"current_trial": 230, "trialdata": {"rt": -1000, "trial_type": "single-audio", "word": "leopard", "stimulus": "/static/audio/wordpool/LEOPARD.wav", "conditions": [24, 800, "a", 24000], "internal_node_id": "0.0-167.0", "trial": 6, "time_elapsed": 1202719, "serialpos": 17, "key_press": -1, "wordID": 811, "type": "PRES_AUD", "trial_index": 230}, "uniqueid": "MTK3697:3LJ7UR74RIKO0OVKT5O4JA6VZHP4N7", "dateTime": 1520962690791}, {"current_trial": 231, "trialdata": {"rt": -1000, "trial_type": "single-audio", "word": "smog", "stimulus": "/static/audio/wordpool/SMOG.wav", "conditions": [24, 800, "a", 24000], "internal_node_id": "0.0-168.0", "trial": 6, "time_elapsed": 1204410, "serialpos": 18, "key_press": -1, "wordID": 1329, "type": "PRES_AUD", "trial_index": 231}, "uniqueid": "MTK3697:3LJ7UR74RIKO0OVKT5O4JA6VZHP4N7", "dateTime": 1520962692484}, {"current_trial": 232, "trialdata": {"rt": -1000, "trial_type": "single-audio", "word": "money", "stimulus": "/static/audio/wordpool/MONEY.wav", "conditions": [24, 800, "a", 24000], "internal_node_id": "0.0-169.0", "trial": 6, "time_elapsed": 1206233, "serialpos": 19, "key_press": -1, "wordID": 907, "type": "PRES_AUD", "trial_index": 232}, "uniqueid": "MTK3697:3LJ7UR74RIKO0OVKT5O4JA6VZHP4N7", "dateTime": 1520962694306}, {"current_trial": 233, "trialdata": {"rt": -1000, "trial_type": "single-audio", "word": "lace", "stimulus": "/static/audio/wordpool/LACE.wav", "conditions": [24, 800, "a", 24000], "internal_node_id": "0.0-170.0", "trial": 6, "time_elapsed": 1207889, "serialpos": 20, "key_press": -1, "wordID": 791, "type": "PRES_AUD", "trial_index": 233}, "uniqueid": "MTK3697:3LJ7UR74RIKO0OVKT5O4JA6VZHP4N7", "dateTime": 1520962695961}, {"current_trial": 234, "trialdata": {"rt": -1000, "trial_type": "single-audio", "word": "police", "stimulus": "/static/audio/wordpool/POLICE.wav", "conditions": [24, 800, "a", 24000], "internal_node_id": "0.0-171.0", "trial": 6, "time_elapsed": 1209890, "serialpos": 21, "key_press": -1, "wordID": 1097, "type": "PRES_AUD", "trial_index": 234}, "uniqueid": "MTK3697:3LJ7UR74RIKO0OVKT5O4JA6VZHP4N7", "dateTime": 1520962697962}, {"current_trial": 235, "trialdata": {"rt": -1000, "trial_type": "single-audio", "word": "gangster", "stimulus": "/static/audio/wordpool/GANGSTER.wav", "conditions": [24, 800, "a", 24000], "internal_node_id": "0.0-172.0", "trial": 6, "time_elapsed": 1211781, "serialpos": 22, "key_press": -1, "wordID": 619, "type": "PRES_AUD", "trial_index": 235}, "uniqueid": "MTK3697:3LJ7UR74RIKO0OVKT5O4JA6VZHP4N7", "dateTime": 1520962699853}, {"current_trial": 236, "trialdata": {"rt": -1000, "trial_type": "single-audio", "word": "trombone", "stimulus": "/static/audio/wordpool/TROMBONE.wav", "conditions": [24, 800, "a", 24000], "internal_node_id": "0.0-173.0", "trial": 6, "time_elapsed": 1213566, "serialpos": 23, "key_press": -1, "wordID": 1507, "type": "PRES_AUD", "trial_index": 236}, "uniqueid": "MTK3697:3LJ7UR74RIKO0OVKT5O4JA6VZHP4N7", "dateTime": 1520962701638}, {"current_trial": 237, "trialdata": {"rt": -1, "trial_type": "single-stim", "stimulus": "", "internal_node_id": "0.0-174.0-0.0", "time_elapsed": 1214921, "key_press": -1, "type": "PRE_RECALL_DELAY", "trial_index": 237}, "uniqueid": "MTK3697:3LJ7UR74RIKO0OVKT5O4JA6VZHP4N7", "dateTime": 1520962702993}, {"current_trial": 238, "trialdata": {"rt": -1000, "trial_type": "single-audio", "stimulus": "/static/audio/400Hz.wav", "internal_node_id": "0.0-175.0", "time_elapsed": 1215423, "key_press": -1, "type": "PRE_RECALL_ALERT", "trial_index": 238}, "uniqueid": "MTK3697:3LJ7UR74RIKO0OVKT5O4JA6VZHP4N7", "dateTime": 1520962703496}, {"current_trial": 239, "trialdata": {"rt": [7186, 10078, 12524, 14791, 21151, 24448, 26844, 30587, 33977, 38713, 42195, 43821, 47987, 52280, 56464, 57958], "recwords": ["gangster", "police", "zebra", "leopard", "empire", "ozone", "mustard", "marrow", "transplant", "fruit", "denim", "blouse", "patrol", "flesh", "hound", "bunny"], "key_times": [2436, 2829, 3134, 3406, 3666, 3837, 4389, 4739, 4891, 5070, 5722, 5879, 6021, 6133, 6305, 6844, 7186, 7716, 8120, 8367, 8573, 8687, 8827, 9179, 9343, 9429, 9605, 10078, 10782, 11072, 11291, 11625, 11935, 12091, 12340, 12524, 13396, 13569, 13722, 13897, 14077, 14347, 14618, 14791, 17682, 17838, 18073, 18363, 18637, 18777, 19002, 19760, 20358, 20588, 20692, 20887, 21151, 22956, 23247, 23506, 23661, 23842, 24084, 24285, 24448, 25206, 25474, 25618, 25878, 26154, 26416, 26653, 26844, 28668, 29470, 29785, 29943, 30109, 30204, 30587, 31097, 31268, 31514, 31667, 31806, 31988, 32442, 32817, 33034, 33169, 33353, 33495, 33977, 36216, 36461, 36654, 37162, 37292, 37583, 38496, 38713, 40664, 40790, 40946, 41152, 42026, 42195, 42829, 42964, 43149, 43359, 43487, 43593, 43821, 46024, 46146, 46420, 46857, 46958, 47125, 47360, 47647, 47987, 49843, 50110, 50307, 50839, 50992, 51374, 51542, 51729, 51877, 52280, 54888, 55020, 55254, 55466, 55648, 56095, 56264, 56464, 57047, 57241, 57494, 57640, 57759, 57958], "trial_type": "free-recall", "conditions": [24, 800, "a", 24000], "internal_node_id": "0.0-176.0-0.0", "key_presses": [72, 8, 71, 65, 78, 83, 84, 8, 8, 71, 83, 84, 69, 82, 222, 8, 13, 80, 79, 76, 73, 88, 69, 8, 8, 67, 69, 13, 90, 69, 86, 8, 66, 82, 65, 13, 76, 69, 79, 80, 65, 82, 68, 13, 69, 77, 73, 80, 8, 8, 80, 8, 80, 73, 82, 69, 13, 80, 8, 79, 90, 79, 78, 69, 13, 77, 85, 83, 84, 65, 82, 68, 13, 77, 65, 82, 82, 79, 87, 13, 84, 82, 65, 78, 83, 80, 65, 8, 76, 65, 78, 84, 13, 70, 82, 85, 73, 8