{"assignmentId": "3BV8HQ2ZZX8VVS593PCEU269VLBA6W", "workerId": "MTK3032", "questiondata": {"origin": "United States", "strat-rehearsal": "45", "marital": "Single", "education": "Bachelor's degree", "ethnicity": "Not Hispanic", "color_depth": 24, "distracted": "No", "wrote-notes": "No", "strat-other": "", "screen_width": 1280, "avail_screen_width": 1280, "avail_screen_height": 709, "strat-image": "65", "language": "English", "gender": "Female", "age": "23", "gender_other": "", "race": ["White"], "strat-categorize": "75", "pixel_depth": 24, "strat-spatial": "49", "strat-story": "76", "race_other": "", "screen_height": 800}, "bonus": 0, "hitId": "3R5LWXWHR0F71E4E0A8C1HYC57UGXT", "counterbalance": 1729, "useragent": "Mozilla/5.0 (Macintosh; Intel Mac OS X 10_11_6) AppleWebKit/537.36 (KHTML, like Gecko) Chrome/64.0.3282.186 Safari/537.36", "eventdata": [{"eventtype": "initialized", "interval": 0, "value": null, "timestamp": 1519669910255}, {"eventtype": "window_resize", "interval": 0, "value": [1280, 658], "timestamp": 1519669910255}, {"eventtype": "focus", "interval": 1115451, "value": "off", "timestamp": 1519671025706}, {"eventtype": "focus", "interval": 15770, "value": "on", "timestamp": 1519671041476}, {"eventtype": "focus", "interval": 121416, "value": "off", "timestamp": 1519671162892}, {"eventtype": "focus", "interval": 6148, "value": "on", "timestamp": 1519671169040}, {"eventtype": "focus", "interval": 266326, "value": "off", "timestamp": 1519671435366}, {"eventtype": "focus", "interval": 11467, "value": "on", "timestamp": 1519671446833}, {"eventtype": "focus", "interval": 596665, "value": "off", "timestamp": 1519672043498}, {"eventtype": "focus", "interval": 21873, "value": "on", "timestamp": 1519672065371}, {"eventtype": "focus", "interval": 5814, "value": "off", "timestamp": 1519672071185}, {"eventtype": "focus", "interval": 20134, "value": "on", "timestamp": 1519672091319}, {"eventtype": "focus", "interval": 1936, "value": "off", "timestamp": 1519672093255}, {"eventtype": "focus", "interval": 8604, "value": "on", "timestamp": 1519672101859}, {"eventtype": "focus", "interval": 72220, "value": "off", "timestamp": 1519672174079}, {"eventtype": "focus", "interval": 26423, "value": "on", "timestamp": 1519672200502}, {"eventtype": "focus", "interval": 9393, "value": "off", "timestamp": 1519672209895}, {"eventtype": "focus", "interval": 83188, "value": "on", "timestamp": 1519672293083}, {"eventtype": "focus", "interval": 121298, "value": "off", "timestamp": 1519672414381}, {"eventtype": "focus", "interval": 50912, "value": "on", "timestamp": 1519672465293}, {"eventtype": "focus", "interval": 98462, "value": "off", "timestamp": 1519672563755}, {"eventtype": "focus", "interval": 51777, "value": "on", "timestamp": 1519672615532}], "data": [{"current_trial": 0, "trialdata": {"rt": 1663, "trial_type": "text", "internal_node_id": "0.0-0.0", "time_elapsed": 1665, "key_press": 32, "type": "INSTRUCTIONS", "trial_index": 0}, "uniqueid": "MTK3032:3BV8HQ2ZZX8VVS593PCEU269VLBA6W", "dateTime": 1519669913067}, {"current_trial": 1, "trialdata": {"rt": 23816, "trial_type": "text", "internal_node_id": "0.0-1.0", "time_elapsed": 25484, "key_press": 32, "type": "INSTRUCTIONS", "trial_index": 1}, "uniqueid": "MTK3032:3BV8HQ2ZZX8VVS593PCEU269VLBA6W", "dateTime": 1519669936885}, {"current_trial": 2, "trialdata": {"rt": [9637], "trial_type": "audio-test", "responses": ["ocean"], "internal_node_id": "0.0-2.0", "time_elapsed": 35133, "type": "AUDIO_TEST", "trial_index": 2}, "uniqueid": "MTK3032:3BV8HQ2ZZX8VVS593PCEU269VLBA6W", "dateTime": 1519669946534}, {"current_trial": 3, "trialdata": {"rt": [10194], "trial_type": "audio-test", "responses": ["crystal"], "internal_node_id": "0.0-3.0", "time_elapsed": 45332, "type": "AUDIO_TEST", "trial_index": 3}, "uniqueid": "MTK3032:3BV8HQ2ZZX8VVS593PCEU269VLBA6W", "dateTime": 1519669956733}, {"current_trial": 4, "trialdata": {"rt": [7083], "trial_type": "audio-test", "responses": ["spice"], "internal_node_id": "0.0-4.0", "time_elapsed": 52420, "type": "AUDIO_TEST", "trial_index": 4}, "uniqueid": "MTK3032:3BV8HQ2ZZX8VVS593PCEU269VLBA6W", "dateTime": 1519669963821}, {"current_trial": 5, "trialdata": {"rt": 23882, "trial_type": "survey-text", "responses": "{\"Q0\":\"11\",\"Q1\":\"7\",\"Q2\":\"3\"}", "internal_node_id": "0.0-5.0", "time_elapsed": 77057, "type": "SLEEP_SURVEY", "trial_index": 5}, "uniqueid": "MTK3032:3BV8HQ2ZZX8VVS593PCEU269VLBA6W", "dateTime": 1519669988458}, {"current_trial": 6, "trialdata": {"rt": 31906, "trial_type": "text", "internal_node_id": "0.0-6.0", "time_elapsed": 109965, "key_press": 91, "type": "INSTRUCTIONS", "trial_index": 6}, "uniqueid": "MTK3032:3BV8HQ2ZZX8VVS593PCEU269VLBA6W", "dateTime": 1519670021366}, {"current_trial": 7, "trialdata": {"rt": 46445, "trial_type": "text", "internal_node_id": "0.0-7.0", "time_elapsed": 156913, "key_press": 68, "type": "INSTRUCTIONS", "trial_index": 7}, "uniqueid": "MTK3032:3BV8HQ2ZZX8VVS593PCEU269VLBA6W", "dateTime": 1519670068314}, {"current_trial": 8, "trialdata": {"rt": 6721, "trial_type": "text", "internal_node_id": "0.0-8.0", "time_elapsed": 164136, "key_press": 32, "type": "INSTRUCTIONS", "trial_index": 8}, "uniqueid": "MTK3032:3BV8HQ2ZZX8VVS593PCEU269VLBA6W", "dateTime": 1519670075538}, {"current_trial": 9, "trialdata": {"rt": [4827, 8195, 11468, 17944], "trial_type": "math-distractor", "key_times": [3668, 3891, 4827, 6763, 7435, 8195, 10604, 11131, 11468, 17368, 17632, 17944], "responses": ["16", "18", "10", "17"], "num2": [5, 5, 1, 8, 2], "num3": [2, 8, 2, 5, 7], "conditions": [18, 1200, "v", 18000], "internal_node_id": "0.0-9.0", "key_presses": [49, 54, 13, 49, 56, 13, 49, 48, 13, 49, 55, 13], "trial": 0, "time_elapsed": 183144, "type": "DISTRACTOR", "trial_index": 9, "num1": [9, 5, 7, 4, 6]}, "uniqueid": "MTK3032:3BV8HQ2ZZX8VVS593PCEU269VLBA6W", "dateTime": 1519670094545}, {"current_trial": 10, "trialdata": {"rt": -1, "trial_type": "single-stim", "stimulus": "<p id=\"stim\">10</p>", "internal_node_id": "0.0-10.0-0.0", "time_elapsed": 186147, "key_press": -1, "trial_index": 10}, "uniqueid": "MTK3032:3BV8HQ2ZZX8VVS593PCEU269VLBA6W", "dateTime": 1519670097548}, {"current_trial": 11, "trialdata": {"rt": -1, "trial_type": "single-stim", "stimulus": "<p id=\"stim\">9</p>", "internal_node_id": "0.0-10.0-1.0", "time_elapsed": 187150, "key_press": -1, "trial_index": 11}, "uniqueid": "MTK3032:3BV8HQ2ZZX8VVS593PCEU269VLBA6W", "dateTime": 1519670098552}, {"current_trial": 12, "trialdata": {"rt": -1, "trial_type": "single-stim", "stimulus": "<p id=\"stim\">8</p>", "internal_node_id": "0.0-10.0-2.0", "time_elapsed": 188153, "key_press": -1, "trial_index": 12}, "uniqueid": "MTK3032:3BV8HQ2ZZX8VVS593PCEU269VLBA6W", "dateTime": 1519670099554}, {"current_trial": 13, "trialdata": {"rt": -1, "trial_type": "single-stim", "stimulus": "<p id=\"stim\">7</p>", "internal_node_id": "0.0-10.0-3.0", "time_elapsed": 189153, "key_press": -1, "trial_index": 13}, "uniqueid": "MTK3032:3BV8HQ2ZZX8VVS593PCEU269VLBA6W", "dateTime": 1519670100555}, {"current_trial": 14, "trialdata": {"rt": -1, "trial_type": "single-stim", "stimulus": "<p id=\"stim\">6</p>", "internal_node_id": "0.0-10.0-4.0", "time_elapsed": 190156, "key_press": -1, "trial_index": 14}, "uniqueid": "MTK3032:3BV8HQ2ZZX8VVS593PCEU269VLBA6W", "dateTime": 1519670101557}, {"current_trial": 15, "trialdata": {"rt": -1, "trial_type": "single-stim", "stimulus": "<p id=\"stim\">5</p>", "internal_node_id": "0.0-10.0-5.0", "time_elapsed": 191158, "key_press": -1, "trial_index": 15}, "uniqueid": "MTK3032:3BV8HQ2ZZX8VVS593PCEU269VLBA6W", "dateTime": 1519670102559}, {"current_trial": 16, "trialdata": {"rt": -1, "trial_type": "single-stim", "stimulus": "<p id=\"stim\">4</p>", "internal_node_id": "0.0-10.0-6.0", "time_elapsed": 192160, "key_press": -1, "trial_index": 16}, "uniqueid": "MTK3032:3BV8HQ2ZZX8VVS593PCEU269VLBA6W", "dateTime": 1519670103561}, {"current_trial": 17, "trialdata": {"rt": -1, "trial_type": "single-stim", "stimulus": "<p id=\"stim\">3</p>", "internal_node_id": "0.0-10.0-7.0", "time_elapsed": 193161, "key_press": -1, "trial_index": 17}, "uniqueid": "MTK3032:3BV8HQ2ZZX8VVS593PCEU269VLBA6W", "dateTime": 1519670104562}, {"current_trial": 18, "trialdata": {"rt": -1, "trial_type": "single-stim", "stimulus": "<p id=\"stim\">2</p>", "internal_node_id": "0.0-10.0-8.0", "time_elapsed": 194162, "key_press": -1, "trial_index": 18}, "uniqueid": "MTK3032:3BV8HQ2ZZX8VVS593PCEU269VLBA6W", "dateTime": 1519670105564}, {"current_trial": 19, "trialdata": {"rt": -1, "trial_type": "single-stim", "stimulus": "<p id=\"stim\">1</p>", "internal_node_id": "0.0-10.0-9.0", "time_elapsed": 195165, "key_press": -1, "trial_index": 19}, "uniqueid": "MTK3032:3BV8HQ2ZZX8VVS593PCEU269VLBA6W", "dateTime": 1519670106566}, {"current_trial": 20, "trialdata": {"rt": -1, "trial_type": "single-stim", "stimulus": "<p id=\"stim\">+</p>", "internal_node_id": "0.0-11.0-0.0", "time_elapsed": 196669, "key_press": -1, "type": "FIXATION", "trial_index": 20}, "uniqueid": "MTK3032:3BV8HQ2ZZX8VVS593PCEU269VLBA6W", "dateTime": 1519670108070}, {"current_trial": 21, "trialdata": {"rt": -1, "trial_type": "single-stim", "word": "freckle", "stimulus": "<p id=\"stim\">FRECKLE</p>", "conditions": [18, 1200, "v", 18000], "internal_node_id": "0.0-12.0", "trial": 0, "time_elapsed": 197871, "serialpos": 0, "key_press": -1, "wordID": 601, "type": "PRES_VIS", "trial_index": 21}, "uniqueid": "MTK3032:3BV8HQ2ZZX8VVS593PCEU269VLBA6W", "dateTime": 1519670109272}, {"current_trial": 22, "trialdata": {"rt": -1, "trial_type": "single-stim", "word": "necklace", "stimulus": "<p id=\"stim\">NECKLACE</p>", "conditions": [18, 1200, "v", 18000], "internal_node_id": "0.0-13.0", "trial": 0, "time_elapsed": 200147, "serialpos": 1, "key_press": -1, "wordID": 939, "type": "PRES_VIS", "trial_index": 22}, "uniqueid": "MTK3032:3BV8HQ2ZZX8VVS593PCEU269VLBA6W", "dateTime": 1519670111549}, {"current_trial": 23, "trialdata": {"rt": -1, "trial_type": "single-stim", "word": "seafood", "stimulus": "<p id=\"stim\">SEAFOOD</p>", "conditions": [18, 1200, "v", 18000], "internal_node_id": "0.0-14.0", "trial": 0, "time_elapsed": 202323, "serialpos": 2, "key_press": -1, "wordID": 1259, "type": "PRES_VIS", "trial_index": 23}, "uniqueid": "MTK3032:3BV8HQ2ZZX8VVS593PCEU269VLBA6W", "dateTime": 1519670113724}, {"current_trial": 24, "trialdata": {"rt": -1, "trial_type": "single-stim", "word": "captive", "stimulus": "<p id=\"stim\">CAPTIVE</p>", "conditions": [18, 1200, "v", 18000], "internal_node_id": "0.0-15.0", "trial": 0, "time_elapsed": 204377, "serialpos": 3, "key_press": -1, "wordID": 239, "type": "PRES_VIS", "trial_index": 24}, "uniqueid": "MTK3032:3BV8HQ2ZZX8VVS593PCEU269VLBA6W", "dateTime": 1519670115778}, {"current_trial": 25, "trialdata": {"rt": -1, "trial_type": "single-stim", "word": "razor", "stimulus": "<p id=\"stim\">RAZOR</p>", "conditions": [18, 1200, "v", 18000], "internal_node_id": "0.0-16.0", "trial": 0, "time_elapsed": 206437, "serialpos": 4, "key_press": -1, "wordID": 1170, "type": "PRES_VIS", "trial_index": 25}, "uniqueid": "MTK3032:3BV8HQ2ZZX8VVS593PCEU269VLBA6W", "dateTime": 1519670117838}, {"current_trial": 26, "trialdata": {"rt": -1, "trial_type": "single-stim", "word": "apple", "stimulus": "<p id=\"stim\">APPLE</p>", "conditions": [18, 1200, "v", 18000], "internal_node_id": "0.0-17.0", "trial": 0, "time_elapsed": 208688, "serialpos": 5, "key_press": -1, "wordID": 32, "type": "PRES_VIS", "trial_index": 26}, "uniqueid": "MTK3032:3BV8HQ2ZZX8VVS593PCEU269VLBA6W", "dateTime": 1519670120089}, {"current_trial": 27, "trialdata": {"rt": -1, "trial_type": "single-stim", "word": "pebble", "stimulus": "<p id=\"stim\">PEBBLE</p>", "conditions": [18, 1200, "v", 18000], "internal_node_id": "0.0-18.0", "trial": 0, "time_elapsed": 210860, "serialpos": 6, "key_press": -1, "wordID": 1034, "type": "PRES_VIS", "trial_index": 27}, "uniqueid": "MTK3032:3BV8HQ2ZZX8VVS593PCEU269VLBA6W", "dateTime": 1519670122261}, {"current_trial": 28, "trialdata": {"rt": -1, "trial_type": "single-stim", "word": "mammal", "stimulus": "<p id=\"stim\">MAMMAL</p>", "conditions": [18, 1200, "v", 18000], "internal_node_id": "0.0-19.0", "trial": 0, "time_elapsed": 212898, "serialpos": 7, "key_press": -1, "wordID": 860, "type": "PRES_VIS", "trial_index": 28}, "uniqueid": "MTK3032:3BV8HQ2ZZX8VVS593PCEU269VLBA6W", "dateTime": 1519670124299}, {"current_trial": 29, "trialdata": {"rt": -1, "trial_type": "single-stim", "word": "twister", "stimulus": "<p id=\"stim\">TWISTER</p>", "conditions": [18, 1200, "v", 18000], "internal_node_id": "0.0-20.0", "trial": 0, "time_elapsed": 215258, "serialpos": 8, "key_press": -1, "wordID": 1529, "type": "PRES_VIS", "trial_index": 29}, "uniqueid": "MTK3032:3BV8HQ2ZZX8VVS593PCEU269VLBA6W", "dateTime": 1519670126659}, {"current_trial": 30, "trialdata": {"rt": -1, "trial_type": "single-stim", "word": "shirt", "stimulus": "<p id=\"stim\">SHIRT</p>", "conditions": [18, 1200, "v", 18000], "internal_node_id": "0.0-21.0", "trial": 0, "time_elapsed": 217427, "serialpos": 9, "key_press": -1, "wordID": 1286, "type": "PRES_VIS", "trial_index": 30}, "uniqueid": "MTK3032:3BV8HQ2ZZX8VVS593PCEU269VLBA6W", "dateTime": 1519670128828}, {"current_trial": 31, "trialdata": {"rt": -1, "trial_type": "single-stim", "word": "beaker", "stimulus": "<p id=\"stim\">BEAKER</p>", "conditions": [18, 1200, "v", 18000], "internal_node_id": "0.0-22.0", "trial": 0, "time_elapsed": 219505, "serialpos": 10, "key_press": -1, "wordID": 103, "type": "PRES_VIS", "trial_index": 31}, "uniqueid": "MTK3032:3BV8HQ2ZZX8VVS593PCEU269VLBA6W", "dateTime": 1519670130906}, {"current_trial": 32, "trialdata": {"rt": -1, "trial_type": "single-stim", "word": "expert", "stimulus": "<p id=\"stim\">EXPERT</p>", "conditions": [18, 1200, "v", 18000], "internal_node_id": "0.0-23.0", "trial": 0, "time_elapsed": 221708, "serialpos": 11, "key_press": -1, "wordID": 542, "type": "PRES_VIS", "trial_index": 32}, "uniqueid": "MTK3032:3BV8HQ2ZZX8VVS593PCEU269VLBA6W", "dateTime": 1519670133109}, {"current_trial": 33, "trialdata": {"rt": -1, "trial_type": "single-stim", "word": "powder", "stimulus": "<p id=\"stim\">POWDER</p>", "conditions": [18, 1200, "v", 18000], "internal_node_id": "0.0-24.0", "trial": 0, "time_elapsed": 224071, "serialpos": 12, "key_press": -1, "wordID": 1116, "type": "PRES_VIS", "trial_index": 33}, "uniqueid": "MTK3032:3BV8HQ2ZZX8VVS593PCEU269VLBA6W", "dateTime": 1519670135472}, {"current_trial": 34, "trialdata": {"rt": -1, "trial_type": "single-stim", "word": "gangster", "stimulus": "<p id=\"stim\">GANGSTER</p>", "conditions": [18, 1200, "v", 18000], "internal_node_id": "0.0-25.0", "trial": 0, "time_elapsed": 226440, "serialpos": 13, "key_press": -1, "wordID": 619, "type": "PRES_VIS", "trial_index": 34}, "uniqueid": "MTK3032:3BV8HQ2ZZX8VVS593PCEU269VLBA6W", "dateTime": 1519670137841}, {"current_trial": 35, "trialdata": {"rt": -1, "trial_type": "single-stim", "word": "cobra", "stimulus": "<p id=\"stim\">COBRA</p>", "conditions": [18, 1200, "v", 18000], "internal_node_id": "0.0-26.0", "trial": 0, "time_elapsed": 228672, "serialpos": 14, "key_press": -1, "wordID": 335, "type": "PRES_VIS", "trial_index": 35}, "uniqueid": "MTK3032:3BV8HQ2ZZX8VVS593PCEU269VLBA6W", "dateTime": 1519670140074}, {"current_trial": 36, "trialdata": {"rt": -1, "trial_type": "single-stim", "word": "compass", "stimulus": "<p id=\"stim\">COMPASS</p>", "conditions": [18, 1200, "v", 18000], "internal_node_id": "0.0-27.0", "trial": 0, "time_elapsed": 230893, "serialpos": 15, "key_press": -1, "wordID": 357, "type": "PRES_VIS", "trial_index": 36}, "uniqueid": "MTK3032:3BV8HQ2ZZX8VVS593PCEU269VLBA6W", "dateTime": 1519670142294}, {"current_trial": 37, "trialdata": {"rt": -1, "trial_type": "single-stim", "word": "beaver", "stimulus": "<p id=\"stim\">BEAVER</p>", "conditions": [18, 1200, "v", 18000], "internal_node_id": "0.0-28.0", "trial": 0, "time_elapsed": 233091, "serialpos": 16, "key_press": -1, "wordID": 108, "type": "PRES_VIS", "trial_index": 37}, "uniqueid": "MTK3032:3BV8HQ2ZZX8VVS593PCEU269VLBA6W", "dateTime": 1519670144492}, {"current_trial": 38, "trialdata": {"rt": -1, "trial_type": "single-stim", "word": "heart", "stimulus": "<p id=\"stim\">HEART</p>", "conditions": [18, 1200, "v", 18000], "internal_node_id": "0.0-29.0", "trial": 0, "time_elapsed": 235162, "serialpos": 17, "key_press": -1, "wordID": 696, "type": "PRES_VIS", "trial_index": 38}, "uniqueid": "MTK3032:3BV8HQ2ZZX8VVS593PCEU269VLBA6W", "dateTime": 1519670146563}, {"current_trial": 39, "trialdata": {"rt": -1, "trial_type": "single-stim", "stimulus": "", "internal_node_id": "0.0-30.0-0.0", "time_elapsed": 237599, "key_press": -1, "type": "PRE_RECALL_DELAY", "trial_index": 39}, "uniqueid": "MTK3032:3BV8HQ2ZZX8VVS593PCEU269VLBA6W", "dateTime": 1519670149000}, {"current_trial": 40, "trialdata": {"rt": -1000, "trial_type": "single-audio", "stimulus": "/static/audio/400Hz.wav", "internal_node_id": "0.0-31.0", "time_elapsed": 238138, "key_press": -1, "type": "PRE_RECALL_ALERT", "trial_index": 40}, "uniqueid": "MTK3032:3BV8HQ2ZZX8VVS593PCEU269VLBA6W", "dateTime": 1519670149539}, {"current_trial": 41, "trialdata": {"rt": [3705, 7296, 9049, 10447, 14656, 18409, 21257, 22464, 27000, 47816, 50280, 51432, 53024], "recwords": ["heart", "beaver", "pebble", "beaker", "expert", "necklace", "twister", "shirt", "freckle", "powder", "gangster", "", ""], "key_times": [1385, 1480, 1592, 1784, 2305, 3705, 4401, 4473, 4552, 4816, 5176, 5272, 7296, 7824, 7896, 8193, 8352, 8489, 8624, 9049, 9536, 9649, 9752, 9976, 10105, 10201, 10447, 11385, 11728, 11753, 12480, 12656, 12856, 13601, 13689, 13800, 14032, 14656, 15640, 15696, 15944, 16168, 16585, 16737, 16960, 17152, 18409, 19024, 19249, 19480, 19896, 20184, 20336, 20520, 20712, 20817, 21257, 21672, 21864, 21961, 22136, 22320, 22464, 25016, 25248, 25313, 25609, 25792, 26064, 26185, 27000, 28312, 28409, 28497, 28737, 29105, 29848, 30349, 30433, 30518, 30601, 30686, 30770, 30853, 45929, 46025, 46176, 46296, 46424, 46864, 47048, 47152, 47361, 47440, 47816, 48593, 48784, 48888, 49000, 49512, 49760, 49921, 50032, 50280, 51432, 53024], "trial_type": "free-recall", "conditions": [18, 1200, "v", 18000], "internal_node_id": "0.0-32.0-0.0", "key_presses": [72, 69, 65, 82, 84, 32, 66, 69, 65, 86, 69, 82, 32, 80, 69, 66, 66, 76, 69, 32, 66, 69, 65, 75, 69, 82, 32, 69, 67, 88, 8, 8, 88, 80, 69, 82, 84, 32, 78, 69, 67, 75, 76, 65, 67, 69, 32, 84, 87, 83, 8, 73, 83, 84, 69, 82, 32, 83, 72, 73, 82, 84, 32, 70, 82, 69, 67, 75, 76, 69, 32, 72, 69, 65, 82, 84, 8, 8, 8, 8, 8, 8, 8, 8, 80, 79, 87, 69, 82, 8, 8, 68, 69, 82, 13, 71, 65, 78, 71, 83, 84, 69, 82, 13, 13, 32], "trial": 0, "time_elapsed": 298141, "type": "FREE_RECALL", "trial_index": 41}, "uniqueid": "MTK3032:3BV8HQ2ZZX8VVS593PCEU269VLBA6W", "dateTime": 1519670209543}, {"current_trial": 42, "trialdata": {"rt": 1756, "trial_type": "text", "internal_node_id": "0.0-33.0", "time_elapsed": 301899, "key_press": 32, "type": "INSTRUCTIONS", "trial_index": 42}, "uniqueid": "MTK3032:3BV8HQ2ZZX8VVS593PCEU269VLBA6W", "dateTime": 1519670213300}, {"current_trial": 43, "trialdata": {"rt": [3405, 7149, 9781, 13165, 16037], "trial_type": "math-distractor", "key_times": [2621, 2701, 3405, 6133, 6765, 7149, 9221, 9526, 9781, 12573, 12686, 13165, 15605, 15757, 16037], "responses": ["20", "18", "15", "12", "20"], "num2": [9, 7, 5, 5, 8, 8], "num3": [9, 4, 3, 1, 8, 8], "conditions": [18, 1200, "v", 18000], "internal_node_id": "0.0-34.0", "key_presses": [50, 48, 13, 49, 56, 13, 49, 53, 13, 49, 50, 13, 50, 48, 13], "trial": 1, "time_elapsed": 321904, "type": "DISTRACTOR", "trial_index": 43, "num1": [2, 7, 7, 6, 4, 1]}, "uniqueid": "MTK3032:3BV8HQ2ZZX8VVS593PCEU269VLBA6W", "dateTime": 1519670233305}, {"current_trial": 44, "trialdata": {"rt": -1, "trial_type": "single-stim", "stimulus": "<p id=\"stim\">10</p>", "internal_node_id": "0.0-35.0-0.0", "time_elapsed": 324905, "key_press": -1, "trial_index": 44}, "uniqueid": "MTK3032:3BV8HQ2ZZX8VVS593PCEU269VLBA6W", "dateTime": 1519670236306}, {"current_trial": 45, "trialdata": {"rt": -1, "trial_type": "single-stim", "stimulus": "<p id=\"stim\">9</p>", "internal_node_id": "0.0-35.0-1.0", "time_elapsed": 325909, "key_press": -1, "trial_index": 45}, "uniqueid": "MTK3032:3BV8HQ2ZZX8VVS593PCEU269VLBA6W", "dateTime": 1519670237310}, {"current_trial": 46, "trialdata": {"rt": -1, "trial_type": "single-stim", "stimulus": "<p id=\"stim\">8</p>", "internal_node_id": "0.0-35.0-2.0", "time_elapsed": 326913, "key_press": -1, "trial_index": 46}, "uniqueid": "MTK3032:3BV8HQ2ZZX8VVS593PCEU269VLBA6W", "dateTime": 1519670238314}, {"current_trial": 47, "trialdata": {"rt": -1, "trial_type": "single-stim", "stimulus": "<p id=\"stim\">7</p>", "internal_node_id": "0.0-35.0-3.0", "time_elapsed": 327914, "key_press": -1, "trial_index": 47}, "uniqueid": "MTK3032:3BV8HQ2ZZX8VVS593PCEU269VLBA6W", "dateTime": 1519670239315}, {"current_trial": 48, "trialdata": {"rt": -1, "trial_type": "single-stim", "stimulus": "<p id=\"stim\">6</p>", "internal_node_id": "0.0-35.0-4.0", "time_elapsed": 328917, "key_press": -1, "trial_index": 48}, "uniqueid": "MTK3032:3BV8HQ2ZZX8VVS593PCEU269VLBA6W", "dateTime": 1519670240318}, {"current_trial": 49, "trialdata": {"rt": -1, "trial_type": "single-stim", "stimulus": "<p id=\"stim\">5</p>", "internal_node_id": "0.0-35.0-5.0", "time_elapsed": 329920, "key_press": -1, "trial_index": 49}, "uniqueid": "MTK3032:3BV8HQ2ZZX8VVS593PCEU269VLBA6W", "dateTime": 1519670241321}, {"current_trial": 50, "trialdata": {"rt": -1, "trial_type": "single-stim", "stimulus": "<p id=\"stim\">4</p>", "internal_node_id": "0.0-35.0-6.0", "time_elapsed": 330922, "key_press": -1, "trial_index": 50}, "uniqueid": "MTK3032:3BV8HQ2ZZX8VVS593PCEU269VLBA6W", "dateTime": 1519670242323}, {"current_trial": 51, "trialdata": {"rt": -1, "trial_type": "single-stim", "stimulus": "<p id=\"stim\">3</p>", "internal_node_id": "0.0-35.0-7.0", "time_elapsed": 331925, "key_press": -1, "trial_index": 51}, "uniqueid": "MTK3032:3BV8HQ2ZZX8VVS593PCEU269VLBA6W", "dateTime": 1519670243326}, {"current_trial": 52, "trialdata": {"rt": -1, "trial_type": "single-stim", "stimulus": "<p id=\"stim\">2</p>", "internal_node_id": "0.0-35.0-8.0", "time_elapsed": 332929, "key_press": -1, "trial_index": 52}, "uniqueid": "MTK3032:3BV8HQ2ZZX8VVS593PCEU269VLBA6W", "dateTime": 1519670244330}, {"current_trial": 53, "trialdata": {"rt": -1, "trial_type": "single-stim", "stimulus": "<p id=\"stim\">1</p>", "internal_node_id": "0.0-35.0-9.0", "time_elapsed": 333930, "key_press": -1, "trial_index": 53}, "uniqueid": "MTK3032:3BV8HQ2ZZX8VVS593PCEU269VLBA6W", "dateTime": 1519670245331}, {"current_trial": 54, "trialdata": {"rt": -1, "trial_type": "single-stim", "stimulus": "<p id=\"stim\">+</p>", "internal_node_id": "0.0-36.0-0.0", "time_elapsed": 335431, "key_press": -1, "type": "FIXATION", "trial_index": 54}, "uniqueid": "MTK3032:3BV8HQ2ZZX8VVS593PCEU269VLBA6W", "dateTime": 1519670246833}, {"current_trial": 55, "trialdata": {"rt": -1, "trial_type": "single-stim", "word": "valve", "stimulus": "<p id=\"stim\">VALVE</p>", "conditions": [18, 1200, "v", 18000], "internal_node_id": "0.0-37.0", "trial": 1, "time_elapsed": 336635, "serialpos": 0, "key_press": -1, "wordID": 1545, "type": "PRES_VIS", "trial_index": 55}, "uniqueid": "MTK3032:3BV8HQ2ZZX8VVS593PCEU269VLBA6W", "dateTime": 1519670248036}, {"current_trial": 56, "trialdata": {"rt": -1, "trial_type": "single-stim", "word": "sausage", "stimulus": "<p id=\"stim\">SAUSAGE</p>", "conditions": [18, 1200, "v", 18000], "internal_node_id": "0.0-38.0", "trial": 1, "time_elapsed": 338858, "serialpos": 1, "key_press": -1, "wordID": 1237, "type": "PRES_VIS", "trial_index": 56}, "uniqueid": "MTK3032:3BV8HQ2ZZX8VVS593PCEU269VLBA6W", "dateTime": 1519670250259}, {"current_trial": 57, "trialdata": {"rt": -1, "trial_type": "single-stim", "word": "forest", "stimulus": "<p id=\"stim\">FOREST</p>", "conditions": [18, 1200, "v", 18000], "internal_node_id": "0.0-39.0", "trial": 1, "time_elapsed": 341078, "serialpos": 2, "key_press": -1, "wordID": 592, "type": "PRES_VIS", "trial_index": 57}, "uniqueid": "MTK3032:3BV8HQ2ZZX8VVS593PCEU269VLBA6W", "dateTime": 1519670252479}, {"current_trial": 58, "trialdata": {"rt": -1, "trial_type": "single-stim", "word": "marine", "stimulus": "<p id=\"stim\">MARINE</p>", "conditions": [18, 1200, "v", 18000], "internal_node_id": "0.0-40.0", "trial": 1, "time_elapsed": 343370, "serialpos": 3, "key_press": -1, "wordID": 868, "type": "PRES_VIS", "trial_index": 58}, "uniqueid": "MTK3032:3BV8HQ2ZZX8VVS593PCEU269VLBA6W", "dateTime": 1519670254771}, {"current_trial": 59, "trialdata": {"rt": -1, "trial_type": "single-stim", "word": "drill", "stimulus": "<p id=\"stim\">DRILL</p>", "conditions": [18, 1200, "v", 18000], "internal_node_id": "0.0-41.0", "trial": 1, "time_elapsed": 345393, "serialpos": 4, "key_press": -1, "wordID": 496, "type": "PRES_VIS", "trial_index": 59}, "uniqueid": "MTK3032:3BV8HQ2ZZX8VVS593PCEU269VLBA6W", "dateTime": 1519670256794}, {"current_trial": 60, "trialdata": {"rt": -1, "trial_type": "single-stim", "word": "salad", "stimulus": "<p id=\"stim\">SALAD</p>", "conditions": [18, 1200, "v", 18000], "internal_node_id": "0.0-42.0", "trial": 1, "time_elapsed": 347561, "serialpos": 5, "key_press": -1, "wordID": 1223, "type": "PRES_VIS", "trial_index": 60}, "uniqueid": "MTK3032:3BV8HQ2ZZX8VVS593PCEU269VLBA6W", "dateTime": 1519670258962}, {"current_trial": 61, "trialdata": {"rt": -1, "trial_type": "single-stim", "word": "worker", "stimulus": "<p id=\"stim\">WORKER</p>", "conditions": [18, 1200, "v", 18000], "internal_node_id": "0.0-43.0", "trial": 1, "time_elapsed": 349941, "serialpos": 6, "key_press": -1, "wordID": 1620, "type": "PRES_VIS", "trial_index": 61}, "uniqueid": "MTK3032:3BV8HQ2ZZX8VVS593PCEU269VLBA6W", "dateTime": 1519670261342}, {"current_trial": 62, "trialdata": {"rt": -1, "trial_type": "single-stim", "word": "flask", "stimulus": "<p id=\"stim\">FLASK</p>", "conditions": [18, 1200, "v", 18000], "internal_node_id": "0.0-44.0", "trial": 1, "time_elapsed": 352255, "serialpos": 7, "key_press": -1, "wordID": 575, "type": "PRES_VIS", "trial_index": 62}, "uniqueid": "MTK3032:3BV8HQ2ZZX8VVS593PCEU269VLBA6W", "dateTime": 1519670263657}, {"current_trial": 63, "trialdata": {"rt": -1, "trial_type": "single-stim", "word": "sister", "stimulus": "<p id=\"stim\">SISTER</p>", "conditions": [18, 1200, "v", 18000], "internal_node_id": "0.0-45.0", "trial": 1, "time_elapsed": 354286, "serialpos": 8, "key_press": -1, "wordID": 1311, "type": "PRES_VIS", "trial_index": 63}, "uniqueid": "MTK3032:3BV8HQ2ZZX8VVS593PCEU269VLBA6W", "dateTime": 1519670265688}, {"current_trial": 64, "trialdata": {"rt": -1, "trial_type": "single-stim", "word": "velvet", "stimulus": "<p id=\"stim\">VELVET</p>", "conditions": [18, 1200, "v", 18000], "internal_node_id": "0.0-46.0", "trial": 1, "time_elapsed": 356455, "serialpos": 9, "key_press": -1, "wordID": 1554, "type": "PRES_VIS", "trial_index": 64}, "uniqueid": "MTK3032:3BV8HQ2ZZX8VVS593PCEU269VLBA6W", "dateTime": 1519670267856}, {"current_trial": 65, "trialdata": {"rt": -1, "trial_type": "single-stim", "word": "shoulder", "stimulus": "<p id=\"stim\">SHOULDER</p>", "conditions": [18, 1200, "v", 18000], "internal_node_id": "0.0-47.0", "trial": 1, "time_elapsed": 358540, "serialpos": 10, "key_press": -1, "wordID": 1293, "type": "PRES_VIS", "trial_index": 65}, "uniqueid": "MTK3032:3BV8HQ2ZZX8VVS593PCEU269VLBA6W", "dateTime": 1519670269941}, {"current_trial": 66, "trialdata": {"rt": -1, "trial_type": "single-stim", "word": "bubble", "stimulus": "<p id=\"stim\">BUBBLE</p>", "conditions": [18, 1200, "v", 18000], "internal_node_id": "0.0-48.0", "trial": 1, "time_elapsed": 360570, "serialpos": 11, "key_press": -1, "wordID": 182, "type": "PRES_VIS", "trial_index": 66}, "uniqueid": "MTK3032:3BV8HQ2ZZX8VVS593PCEU269VLBA6W", "dateTime": 1519670271971}, {"current_trial": 67, "trialdata": {"rt": -1, "trial_type": "single-stim", "word": "camel", "stimulus": "<p id=\"stim\">CAMEL</p>", "conditions": [18, 1200, "v", 18000], "internal_node_id": "0.0-49.0", "trial": 1, "time_elapsed": 362683, "serialpos": 12, "key_press": -1, "wordID": 222, "type": "PRES_VIS", "trial_index": 67}, "uniqueid": "MTK3032:3BV8HQ2ZZX8VVS593PCEU269VLBA6W", "dateTime": 1519670274084}, {"current_trial": 68, "trialdata": {"rt": -1, "trial_type": "single-stim", "word": "trombone", "stimulus": "<p id=\"stim\">TROMBONE</p>", "conditions": [18, 1200, "v", 18000], "internal_node_id": "0.0-50.0", "trial": 1, "time_elapsed": 364717, "serialpos": 13, "key_press": -1, "wordID": 1507, "type": "PRES_VIS", "trial_index": 68}, "uniqueid": "MTK3032:3BV8HQ2ZZX8VVS593PCEU269VLBA6W", "dateTime": 1519670276120}, {"current_trial": 69, "trialdata": {"rt": -1, "trial_type": "single-stim", "word": "trench", "stimulus": "<p id=\"stim\">TRENCH</p>", "conditions": [18, 1200, "v", 18000], "internal_node_id": "0.0-51.0", "trial": 1, "time_elapsed": 366834, "serialpos": 14, "key_press": -1, "wordID": 1502, "type": "PRES_VIS", "trial_index": 69}, "uniqueid": "MTK3032:3BV8HQ2ZZX8VVS593PCEU269VLBA6W", "dateTime": 1519670278235}, {"current_trial": 70, "trialdata": {"rt": -1, "trial_type": "single-stim", "word": "pasta", "stimulus": "<p id=\"stim\">PASTA</p>", "conditions": [18, 1200, "v", 18000], "internal_node_id": "0.0-52.0", "trial": 1, "time_elapsed": 369098, "serialpos": 15, "key_press": -1, "wordID": 1020, "type": "PRES_VIS", "trial_index": 70}, "uniqueid": "MTK3032:3BV8HQ2ZZX8VVS593PCEU269VLBA6W", "dateTime": 1519670280499}, {"current_trial": 71, "trialdata": {"rt": -1, "trial_type": "single-stim", "word": "panther", "stimulus": "<p id=\"stim\">PANTHER</p>", "conditions": [18, 1200, "v", 18000], "internal_node_id": "0.0-53.0", "trial": 1, "time_elapsed": 371223, "serialpos": 16, "key_press": -1, "wordID": 1008, "type": "PRES_VIS", "trial_index": 71}, "uniqueid": "MTK3032:3BV8HQ2ZZX8VVS593PCEU269VLBA6W", "dateTime": 1519670282624}, {"current_trial": 72, "trialdata": {"rt": -1, "trial_type": "single-stim", "word": "buggy", "stimulus": "<p id=\"stim\">BUGGY</p>", "conditions": [18, 1200, "v", 18000], "internal_node_id": "0.0-54.0", "trial": 1, "time_elapsed": 373516, "serialpos": 17, "key_press": -1, "wordID": 187, "type": "PRES_VIS", "trial_index": 72}, "uniqueid": "MTK3032:3BV8HQ2ZZX8VVS593PCEU269VLBA6W", "dateTime": 1519670284917}, {"current_trial": 73, "trialdata": {"rt": -1, "trial_type": "single-stim", "stimulus": "", "internal_node_id": "0.0-55.0-0.0", "time_elapsed": 375896, "key_press": -1, "type": "PRE_RECALL_DELAY", "trial_index": 73}, "uniqueid": "MTK3032:3BV8HQ2ZZX8VVS593PCEU269VLBA6W", "dateTime": 1519670287298}, {"current_trial": 74, "trialdata": {"rt": -1000, "trial_type": "single-audio", "stimulus": "/static/audio/400Hz.wav", "internal_node_id": "0.0-56.0", "time_elapsed": 376398, "key_press": -1, "type": "PRE_RECALL_ALERT", "trial_index": 74}, "uniqueid": "MTK3032:3BV8HQ2ZZX8VVS593PCEU269VLBA6W", "dateTime": 1519670287799}, {"current_trial": 75, "trialdata": {"rt": [3788, 5436, 8444, 11148, 12836, 15372, 17020, 19228, 21557, 23100, 25884, 29428, 32021, 56900, 58820], "recwords": ["pasta", "panther", "drill", "salad", "sister", "velvet", "shoulder", "worker", "flask", "marine", "forest", "trombone", "trench", "valve", "sausage"], "key_times": [2085, 2156, 2228, 2557, 2756, 3788, 4477, 4605, 4733, 4852, 5021, 5141, 5220, 5436, 6541, 6789, 6916, 7300, 7572, 7684, 7885, 8444, 8764, 9020, 9308, 9532, 9965, 11148, 11756, 11909, 12036, 12325, 12508, 12604, 12836, 13389, 13508, 13684, 14197, 14316, 14853, 15372, 15605, 15756, 15972, 16061, 16253, 16460, 16644, 16732, 17020, 18172, 18317, 18452, 18620, 18756, 18836, 19228, 19813, 20613, 20757, 20940, 21164, 21557, 21892, 22084, 22213, 22349, 22437, 22508, 23100, 24628, 24765, 24900, 24981, 25084, 25260, 25884, 27548, 27691, 27861, 28045, 28292, 28500, 28644, 28796, 29428, 29772, 29948, 30228, 30380, 30596, 30733, 32021, 37269, 37501, 38164, 38388, 55629, 55861, 56084, 56397, 56604, 56900, 57356, 57484, 57700, 57932, 58124, 58372, 58484, 58820], "trial_type": "free-recall", "conditions": [18, 1200, "v", 18000], "internal_node_id": "0.0-57.0-0.0", "key_presses": [80, 65, 83, 84, 65, 13, 80, 65, 78, 84, 72, 69, 82, 13, 68, 82, 69, 8, 73, 76, 76, 13, 83, 65, 76, 65, 68, 13, 83, 73, 83, 84, 69, 82, 13, 86, 69, 76, 86, 69, 84, 13, 83, 72, 79, 85, 76, 68, 69, 82, 13, 87, 79, 82, 75, 69, 82, 13, 70, 76, 65, 83, 75, 13, 77, 65, 82, 73, 78, 69, 13, 70, 79, 82, 69, 83, 84, 13, 84, 82, 79, 77, 66, 79, 78, 69, 13, 84, 82, 69, 78, 67, 72, 13, 80, 65, 8, 8, 86, 65, 76, 86, 69, 13, 83, 65, 85, 83, 65, 71, 69, 13], "trial": 1, "time_elapsed": 436401, "type": "FREE_RECALL", "trial_index": 75}, "uniqueid": "MTK3032:3BV8HQ2ZZX8VVS593PCEU269VLBA6W", "dateTime": 1519670347803}, {"current_trial": 76, "trialdata": {"rt": 2727, "trial_type": "text", "internal_node_id": "0.0-58.0", "time_elapsed": 441131, "key_press": 32, "type": "INSTRUCTIONS", "trial_index": 76}, "uniqueid": "MTK3032:3BV8HQ2ZZX8VVS593PCEU269VLBA6W", "dateTime": 1519670352532}, {"current_trial": 77, "trialdata": {"rt": [3523, 6260, 10852], "trial_type": "math-distractor", "key_times": [2885, 3116, 3523, 5548, 5692, 6260, 8004, 8636, 9683, 10356, 10852], "responses": ["20", "10", "18"], "num2": [8, 6, 8, 4], "num3": [8, 1, 3, 4], "conditions": [24, 800, "v", 12000], "internal_node_id": "0.0-59.0", "key_presses": [50, 48, 13, 49, 48, 13, 49, 57, 8, 56, 13], "trial": 2, "time_elapsed": 454139, "type": "DISTRACTOR", "trial_index": 77, "num1": [4, 3, 7, 3]}, "uniqueid": "MTK3032:3BV8HQ2ZZX8VVS593PCEU269VLBA6W", "dateTime": 1519670365540}, {"current_trial": 78, "trialdata": {"rt": -1, "trial_type": "single-stim", "stimulus": "<p id=\"stim\">10</p>", "internal_node_id": "0.0-60.0-0.0", "time_elapsed": 457142, "key_press": -1, "trial_index": 78}, "uniqueid": "MTK3032:3BV8HQ2ZZX8VVS593PCEU269VLBA6W", "dateTime": 1519670368543}, {"current_trial": 79, "trialdata": {"rt": -1, "trial_type": "single-stim", "stimulus": "<p id=\"stim\">9</p>", "internal_node_id": "0.0-60.0-1.0", "time_elapsed": 458143, "key_press": -1, "trial_index": 79}, "uniqueid": "MTK3032:3BV8HQ2ZZX8VVS593PCEU269VLBA6W", "dateTime": 1519670369544}, {"current_trial": 80, "trialdata": {"rt": -1, "trial_type": "single-stim", "stimulus": "<p id=\"stim\">8</p>", "internal_node_id": "0.0-60.0-2.0", "time_elapsed": 459147, "key_press": -1, "trial_index": 80}, "uniqueid": "MTK3032:3BV8HQ2ZZX8VVS593PCEU269VLBA6W", "dateTime": 1519670370548}, {"current_trial": 81, "trialdata": {"rt": -1, "trial_type": "single-stim", "stimulus": "<p id=\"stim\">7</p>", "internal_node_id": "0.0-60.0-3.0", "time_elapsed": 460148, "key_press": -1, "trial_index": 81}, "uniqueid": "MTK3032:3BV8HQ2ZZX8VVS593PCEU269VLBA6W", "dateTime": 1519670371549}, {"current_trial": 82, "trialdata": {"rt": -1, "trial_type": "single-stim", "stimulus": "<p id=\"stim\">6</p>", "internal_node_id": "0.0-60.0-4.0", "time_elapsed": 461149, "key_press": -1, "trial_index": 82}, "uniqueid": "MTK3032:3BV8HQ2ZZX8VVS593PCEU269VLBA6W", "dateTime": 1519670372550}, {"current_trial": 83, "trialdata": {"rt": -1, "trial_type": "single-stim", "stimulus": "<p id=\"stim\">5</p>", "internal_node_id": "0.0-60.0-5.0", "time_elapsed": 462151, "key_press": -1, "trial_index": 83}, "uniqueid": "MTK3032:3BV8HQ2ZZX8VVS593PCEU269VLBA6W", "dateTime": 1519670373552}, {"current_trial": 84, "trialdata": {"rt": -1, "trial_type": "single-stim", "stimulus": "<p id=\"stim\">4</p>", "internal_node_id": "0.0-60.0-6.0", "time_elapsed": 463155, "key_press": -1, "trial_index": 84}, "uniqueid": "MTK3032:3BV8HQ2ZZX8VVS593PCEU269VLBA6W", "dateTime": 1519670374556}, {"current_trial": 85, "trialdata": {"rt": -1, "trial_type": "single-stim", "stimulus": "<p id=\"stim\">3</p>", "internal_node_id": "0.0-60.0-7.0", "time_elapsed": 464156, "key_press": -1, "trial_index": 85}, "uniqueid": "MTK3032:3BV8HQ2ZZX8VVS593PCEU269VLBA6W", "dateTime": 1519670375557}, {"current_trial": 86, "trialdata": {"rt": -1, "trial_type": "single-stim", "stimulus": "<p id=\"stim\">2</p>", "internal_node_id": "0.0-60.0-8.0", "time_elapsed": 465158, "key_press": -1, "trial_index": 86}, "uniqueid": "MTK3032:3BV8HQ2ZZX8VVS593PCEU269VLBA6W", "dateTime": 1519670376559}, {"current_trial": 87, "trialdata": {"rt": -1, "trial_type": "single-stim", "stimulus": "<p id=\"stim\">1</p>", "internal_node_id": "0.0-60.0-9.0", "time_elapsed": 466161, "key_press": -1, "trial_index": 87}, "uniqueid": "MTK3032:3BV8HQ2ZZX8VVS593PCEU269VLBA6W", "dateTime": 1519670377562}, {"current_trial": 88, "trialdata": {"rt": -1, "trial_type": "single-stim", "stimulus": "<p id=\"stim\">+</p>", "internal_node_id": "0.0-61.0-0.0", "time_elapsed": 467663, "key_press": -1, "type": "FIXATION", "trial_index": 88}, "uniqueid": "MTK3032:3BV8HQ2ZZX8VVS593PCEU269VLBA6W", "dateTime": 1519670379064}, {"current_trial": 89, "trialdata": {"rt": -1, "trial_type": "single-stim", "word": "denim", "stimulus": "<p id=\"stim\">DENIM</p>", "conditions": [24, 800, "v", 12000], "internal_node_id": "0.0-62.0", "trial": 2, "time_elapsed": 468465, "serialpos": 0, "key_press": -1, "wordID": 445, "type": "PRES_VIS", "trial_index": 89}, "uniqueid": "MTK3032:3BV8HQ2ZZX8VVS593PCEU269VLBA6W", "dateTime": 1519670379866}, {"current_trial": 90, "trialdata": {"rt": -1, "trial_type": "single-stim", "word": "globe", "stimulus": "<p id=\"stim\">GLOBE</p>", "conditions": [24, 800, "v", 12000], "internal_node_id": "0.0-63.0", "trial": 2, "time_elapsed": 470177, "serialpos": 1, "key_press": -1, "wordID": 640, "type": "PRES_VIS", "trial_index": 90}, "uniqueid": "MTK3032:3BV8HQ2ZZX8VVS593PCEU269VLBA6W", "dateTime": 1519670381578}, {"current_trial": 91, "trialdata": {"rt": -1, "trial_type": "single-stim", "word": "thief", "stimulus": "<p id=\"stim\">THIEF</p>", "conditions": [24, 800, "v", 12000], "internal_node_id": "0.0-64.0", "trial": 2, "time_elapsed": 472052, "serialpos": 2, "key_press": -1, "wordID": 1455, "type": "PRES_VIS", "trial_index": 91}, "uniqueid": "MTK3032:3BV8HQ2ZZX8VVS593PCEU269VLBA6W", "dateTime": 1519670383453}, {"current_trial": 92, "trialdata": {"rt": -1, "trial_type": "single-stim", "word": "helmet", "stimulus": "<p id=\"stim\">HELMET</p>", "conditions": [24, 800, "v", 12000], "internal_node_id": "0.0-65.0", "trial": 2, "time_elapsed": 473727, "serialpos": 3, "key_press": -1, "wordID": 701, "type": "PRES_VIS", "trial_index": 92}, "uniqueid": "MTK3032:3BV8HQ2ZZX8VVS593PCEU269VLBA6W", "dateTime": 1519670385129}, {"current_trial": 93, "trialdata": {"rt": -1, "trial_type": "single-stim", "word": "curtain", "stimulus": "<p id=\"stim\">CURTAIN</p>", "conditions": [24, 800, "v", 12000], "internal_node_id": "0.0-66.0", "trial": 2, "time_elapsed": 475589, "serialpos": 4, "key_press": -1, "wordID": 426, "type": "PRES_VIS", "trial_index": 93}, "uniqueid": "MTK3032:3BV8HQ2ZZX8VVS593PCEU269VLBA6W", "dateTime": 1519670386991}, {"current_trial": 94, "trialdata": {"rt": -1, "trial_type": "single-stim", "word": "gavel", "stimulus": "<p id=\"stim\">GAVEL</p>", "conditions": [24, 800, "v", 12000], "internal_node_id": "0.0-67.0", "trial": 2, "time_elapsed": 477496, "serialpos": 5, "key_press": -1, "wordID": 626, "type": "PRES_VIS", "trial_index": 94}, "uniqueid": "MTK3032:3BV8HQ2ZZX8VVS593PCEU269VLBA6W", "dateTime": 1519670388898}, {"current_trial": 95, "trialdata": {"rt": -1, "trial_type": "single-stim", "word": "sphinx", "stimulus": "<p id=\"stim\">SPHINX</p>", "conditions": [24, 800, "v", 12000], "internal_node_id": "0.0-68.0", "trial": 2, "time_elapsed": 479281, "serialpos": 6, "key_press": -1, "wordID": 1348, "type": "PRES_VIS", "trial_index": 95}, "uniqueid": "MTK3032:3BV8HQ2ZZX8VVS593PCEU269VLBA6W", "dateTime": 1519670390682}, {"current_trial": 96, "trialdata": {"rt": -1, "trial_type": "single-stim", "word": "bank", "stimulus": "<p id=\"stim\">BANK</p>", "conditions": [24, 800, "v", 12000], "internal_node_id": "0.0-69.0", "trial": 2, "time_elapsed": 481018, "serialpos": 7, "key_press": -1, "wordID": 82, "type": "PRES_VIS", "trial_index": 96}, "uniqueid": "MTK3032:3BV8HQ2ZZX8VVS593PCEU269VLBA6W", "dateTime": 1519670392419}, {"current_trial": 97, "trialdata": {"rt": -1, "trial_type": "single-stim", "word": "banker", "stimulus": "<p id=\"stim\">BANKER</p>", "conditions": [24, 800, "v", 12000], "internal_node_id": "0.0-70.0", "trial": 2, "time_elapsed": 482797, "serialpos": 8, "key_press": -1, "wordID": 83, "type": "PRES_VIS", "trial_index": 97}, "uniqueid": "MTK3032:3BV8HQ2ZZX8VVS593PCEU269VLBA6W", "dateTime": 1519670394199}, {"current_trial": 98, "trialdata": {"rt": -1, "trial_type": "single-stim", "word": "uncle", "stimulus": "<p id=\"stim\">UNCLE</p>", "conditions": [24, 800, "v", 12000], "internal_node_id": "0.0-71.0", "trial": 2, "time_elapsed": 484792, "serialpos": 9, "key_press": -1, "wordID": 1535, "type": "PRES_VIS", "trial_index": 98}, "uniqueid": "MTK3032:3BV8HQ2ZZX8VVS593PCEU269VLBA6W", "dateTime": 1519670396193}, {"current_trial": 99, "trialdata": {"rt": -1, "trial_type": "single-stim", "word": "robot", "stimulus": "<p id=\"stim\">ROBOT</p>", "conditions": [24, 800, "v", 12000], "internal_node_id": "0.0-72.0", "trial": 2, "time_elapsed": 486588, "serialpos": 10, "key_press": -1, "wordID": 1199, "type": "PRES_VIS", "trial_index": 99}, "uniqueid": "MTK3032:3BV8HQ2ZZX8VVS593PCEU269VLBA6W", "dateTime": 1519670397989}, {"current_trial": 100, "trialdata": {"rt": -1, "trial_type": "single-stim", "word": "plaid", "stimulus": "<p id=\"stim\">PLAID</p>", "conditions": [24, 800, "v", 12000], "internal_node_id": "0.0-73.0", "trial": 2, "time_elapsed": 488583, "serialpos": 11, "key_press": -1, "wordID": 1079, "type": "PRES_VIS", "trial_index": 100}, "uniqueid": "MTK3032:3BV8HQ2ZZX8VVS593PCEU269VLBA6W", "dateTime": 1519670399984}, {"current_trial": 101, "trialdata": {"rt": -1, "trial_type": "single-stim", "word": "penguin", "stimulus": "<p id=\"stim\">PENGUIN</p>", "conditions": [24, 800, "v", 12000], "internal_node_id": "0.0-74.0", "trial": 2, "time_elapsed": 490316, "serialpos": 12, "key_press": -1, "wordID": 1043, "type": "PRES_VIS", "trial_index": 101}, "uniqueid": "MTK3032:3BV8HQ2ZZX8VVS593PCEU269VLBA6W", "dateTime": 1519670401717}, {"current_trial": 102, "trialdata": {"rt": -1, "trial_type": "single-stim", "word": "balloon", "stimulus": "<p id=\"stim\">BALLOON</p>", "conditions": [24, 800, "v", 12000], "internal_node_id": "0.0-75.0", "trial": 2, "time_elapsed": 492047, "serialpos": 13, "key_press": -1, "wordID": 74, "type": "PRES_VIS", "trial_index": 102}, "uniqueid": "MTK3032:3BV8HQ2ZZX8VVS593PCEU269VLBA6W", "dateTime": 1519670403448}, {"current_trial": 103, "trialdata": {"rt": -1, "trial_type": "single-stim", "word": "rug", "stimulus": "<p id=\"stim\">RUG</p>", "conditions": [24, 800, "v", 12000], "internal_node_id": "0.0-76.0", "trial": 2, "time_elapsed": 493721, "serialpos": 14, "key_press": -1, "wordID": 1214, "type": "PRES_VIS", "trial_index": 103}, "uniqueid": "MTK3032:3BV8HQ2ZZX8VVS593PCEU269VLBA6W", "dateTime": 1519670405122}, {"current_trial": 104, "trialdata": {"rt": -1, "trial_type": "single-stim", "word": "butcher", "stimulus": "<p id=\"stim\">BUTCHER</p>", "conditions": [24, 800, "v", 12000], "internal_node_id": "0.0-77.0", "trial": 2, "time_elapsed": 495428, "serialpos": 15, "key_press": -1, "wordID": 202, "type": "PRES_VIS", "trial_index": 104}, "uniqueid": "MTK3032:3BV8HQ2ZZX8VVS593PCEU269VLBA6W", "dateTime": 1519670406829}, {"current_trial": 105, "trialdata": {"rt": -1, "trial_type": "single-stim", "word": "forehead", "stimulus": "<p id=\"stim\">FOREHEAD</p>", "conditions": [24, 800, "v", 12000], "internal_node_id": "0.0-78.0", "trial": 2, "time_elapsed": 497394, "serialpos": 16, "key_press": -1, "wordID": 591, "type": "PRES_VIS", "trial_index": 105}, "uniqueid": "MTK3032:3BV8HQ2ZZX8VVS593PCEU269VLBA6W", "dateTime": 1519670408795}, {"current_trial": 106, "trialdata": {"rt": -1, "trial_type": "single-stim", "word": "missile", "stimulus": "<p id=\"stim\">MISSILE</p>", "conditions": [24, 800, "v", 12000], "internal_node_id": "0.0-79.0", "trial": 2, "time_elapsed": 499325, "serialpos": 17, "key_press": -1, "wordID": 899, "type": "PRES_VIS", "trial_index": 106}, "uniqueid": "MTK3032:3BV8HQ2ZZX8VVS593PCEU269VLBA6W", "dateTime": 1519670410726}, {"current_trial": 107, "trialdata": {"rt": -1, "trial_type": "single-stim", "word": "servant", "stimulus": "<p id=\"stim\">SERVANT</p>", "conditions": [24, 800, "v", 12000], "internal_node_id": "0.0-80.0", "trial": 2, "time_elapsed": 500930, "serialpos": 18, "key_press": -1, "wordID": 1270, "type": "PRES_VIS", "trial_index": 107}, "uniqueid": "MTK3032:3BV8HQ2ZZX8VVS593PCEU269VLBA6W", "dateTime": 1519670412332}, {"current_trial": 108, "trialdata": {"rt": -1, "trial_type": "single-stim", "word": "bathtub", "stimulus": "<p id=\"stim\">BATHTUB</p>", "conditions": [24, 800, "v", 12000], "internal_node_id": "0.0-81.0", "trial": 2, "time_elapsed": 502682, "serialpos": 19, "key_press": -1, "wordID": 99, "type": "PRES_VIS", "trial_index": 108}, "uniqueid": "MTK3032:3BV8HQ2ZZX8VVS593PCEU269VLBA6W", "dateTime": 1519670414083}, {"current_trial": 109, "trialdata": {"rt": -1, "trial_type": "single-stim", "word": "scissors", "stimulus": "<p id=\"stim\">SCISSORS</p>", "conditions": [24, 800, "v", 12000], "internal_node_id": "0.0-82.0", "trial": 2, "time_elapsed": 504424, "serialpos": 20, "key_press": -1, "wordID": 1249, "type": "PRES_VIS", "trial_index": 109}, "uniqueid": "MTK3032:3BV8HQ2ZZX8VVS593PCEU269VLBA6W", "dateTime": 1519670415825}, {"current_trial": 110, "trialdata": {"rt": -1, "trial_type": "single-stim", "word": "couch", "stimulus": "<p id=\"stim\">COUCH</p>", "conditions": [24, 800, "v", 12000], "internal_node_id": "0.0-83.0", "trial": 2, "time_elapsed": 506093, "serialpos": 21, "key_press": -1, "wordID": 385, "type": "PRES_VIS", "trial_index": 110}, "uniqueid": "MTK3032:3BV8HQ2ZZX8VVS593PCEU269VLBA6W", "dateTime": 1519670417494}, {"current_trial": 111, "trialdata": {"rt": -1, "trial_type": "single-stim", "word": "mattress", "stimulus": "<p id=\"stim\">MATTRESS</p>", "conditions": [24, 800, "v", 12000], "internal_node_id": "0.0-84.0", "trial": 2, "time_elapsed": 507985, "serialpos": 22, "key_press": -1, "wordID": 878, "type": "PRES_VIS", "trial_index": 111}, "uniqueid": "MTK3032:3BV8HQ2ZZX8VVS593PCEU269VLBA6W", "dateTime": 1519670419386}, {"current_trial": 112, "trialdata": {"rt": -1, "trial_type": "single-stim", "word": "chest", "stimulus": "<p id=\"stim\">CHEST</p>", "conditions": [24, 800, "v", 12000], "internal_node_id": "0.0-85.0", "trial": 2, "time_elapsed": 509897, "serialpos": 23, "key_press": -1, "wordID": 294, "type": "PRES_VIS", "trial_index": 112}, "uniqueid": "MTK3032:3BV8HQ2ZZX8VVS593PCEU269VLBA6W", "dateTime": 1519670421298}, {"current_trial": 113, "trialdata": {"rt": -1, "trial_type": "single-stim", "stimulus": "", "internal_node_id": "0.0-86.0-0.0", "time_elapsed": 512343, "key_press": -1, "type": "PRE_RECALL_DELAY", "trial_index": 113}, "uniqueid": "MTK3032:3BV8HQ2ZZX8VVS593PCEU269VLBA6W", "dateTime": 1519670423744}, {"current_trial": 114, "trialdata": {"rt": -1000, "trial_type": "single-audio", "stimulus": "/static/audio/400Hz.wav", "internal_node_id": "0.0-87.0", "time_elapsed": 512844, "key_press": -1, "type": "PRE_RECALL_ALERT", "trial_index": 114}, "uniqueid": "MTK3032:3BV8HQ2ZZX8VVS593PCEU269VLBA6W", "dateTime": 1519670424245}, {"current_trial": 115, "trialdata": {"rt": [1893, 6053, 7549, 9406, 10941, 15750, 18213, 20413, 24862, 26053, 45409, 47577], "recwords": ["chest", "forehead", "butcher", "slave", "missile", "sphinx", "robot", "uncle", "balloon", "rug", "mattress", "couch"], "key_times": [605, 764, 949, 1054, 1302, 1893, 2414, 2542, 2670, 2773, 2966, 3278, 3413, 5517, 6053, 6429, 6654, 6773, 6997, 7077, 7244, 7342, 7549, 7773, 8086, 8429, 8709, 8869, 9077, 9174, 9406, 9710, 9870, 10061, 10189, 10437, 10533, 10677, 10941, 11589, 11774, 12013, 12221, 12909, 13438, 14045, 14229, 14413, 14854, 14965, 15173, 15750, 17189, 17277, 17501, 17757, 18085, 18213, 19429, 19694, 19845, 20030, 20158, 20413, 22966, 23141, 23261, 23413, 23621, 23806, 23997, 24862, 25565, 25677, 25846, 26053, 41138, 41730, 42921, 43361, 43626, 43737, 43937, 44122, 44353, 44434, 44673, 44873, 45409, 46841, 46969, 47041, 47170, 47257, 47577], "trial_type": "free-recall", "conditions": [24, 800, "v", 12000], "internal_node_id": "0.0-88.0-0.0", "key_presses": [67, 72, 69, 83, 84, 13, 70, 79, 82, 69, 72, 69, 65, 68, 13, 66, 85, 84, 67, 72, 69, 82, 13, 83, 65, 8, 76, 65, 86, 69, 13, 77, 73, 83, 83, 73, 76, 69, 13, 83, 80, 72, 89, 78, 88, 8, 8, 8, 73, 78, 88, 13, 82, 79, 66, 79, 84, 32, 85, 78, 67, 76, 69, 13, 66, 65, 76, 76, 79, 79, 78, 13, 82, 85, 71, 13, 83, 8, 67, 8, 77, 65, 84, 84, 82, 69, 83, 83, 13, 67, 79, 85, 67, 72, 13], "trial": 2, "time_elapsed": 572849, "type": "FREE_RECALL", "trial_index": 115}, "uniqueid": "MTK3032:3BV8HQ2ZZX8VVS593PCEU269VLBA6W", "dateTime": 1519670484252}, {"current_trial": 116, "trialdata": {"rt": 2044, "trial_type": "text", "internal_node_id": "0.0-89.0", "time_elapsed": 576898, "key_press": 32, "type": "INSTRUCTIONS", "trial_index": 116}, "uniqueid": "MTK3032:3BV8HQ2ZZX8VVS593PCEU269VLBA6W", "dateTime": 1519670488299}, {"current_trial": 117, "trialdata": {"rt": [2589, 6701, 10461], "trial_type": "math-distractor", "key_times": [1910, 2037, 2589, 5982, 6261, 6701, 9374, 9773, 10461], "responses": ["20", "17", "16"], "num2": [4, 9, 6, 5], "num3": [8, 3, 6, 9], "conditions": [12, 1600, "v", 12000], "internal_node_id": "0.0-90.0", "key_presses": [50, 48, 13, 49, 55, 13, 49, 54, 13], "trial": 3, "time_elapsed": 590902, "type": "DISTRACTOR", "trial_index": 117, "num1": [8, 5, 4, 8]}, "uniqueid": "MTK3032:3BV8HQ2ZZX8VVS593PCEU269VLBA6W", "dateTime": 1519670502303}, {"current_trial": 118, "trialdata": {"rt": -1, "trial_type": "single-stim", "stimulus": "<p id=\"stim\">10</p>", "internal_node_id": "0.0-91.0-0.0", "time_elapsed": 593906, "key_press": -1, "trial_index": 118}, "uniqueid": "MTK3032:3BV8HQ2ZZX8VVS593PCEU269VLBA6W", "dateTime": 1519670505307}, {"current_trial": 119, "trialdata": {"rt": -1, "trial_type": "single-stim", "stimulus": "<p id=\"stim\">9</p>", "internal_node_id": "0.0-91.0-1.0", "time_elapsed": 594907, "key_press": -1, "trial_index": 119}, "uniqueid": "MTK3032:3BV8HQ2ZZX8VVS593PCEU269VLBA6W", "dateTime": 1519670506308}, {"current_trial": 120, "trialdata": {"rt": -1, "trial_type": "single-stim", "stimulus": "<p id=\"stim\">8</p>", "internal_node_id": "0.0-91.0-2.0", "time_elapsed": 595910, "key_press": -1, "trial_index": 120}, "uniqueid": "MTK3032:3BV8HQ2ZZX8VVS593PCEU269VLBA6W", "dateTime": 1519670507311}, {"current_trial": 121, "trialdata": {"rt": -1, "trial_type": "single-stim", "stimulus": "<p id=\"stim\">7</p>", "internal_node_id": "0.0-91.0-3.0", "time_elapsed": 596912, "key_press": -1, "trial_index": 121}, "uniqueid": "MTK3032:3BV8HQ2ZZX8VVS593PCEU269VLBA6W", "dateTime": 1519670508314}, {"current_trial": 122, "trialdata": {"rt": -1, "trial_type": "single-stim", "stimulus": "<p id=\"stim\">6</p>", "internal_node_id": "0.0-91.0-4.0", "time_elapsed": 597914, "key_press": -1, "trial_index": 122}, "uniqueid": "MTK3032:3BV8HQ2ZZX8VVS593PCEU269VLBA6W", "dateTime": 1519670509315}, {"current_trial": 123, "trialdata": {"rt": -1, "trial_type": "single-stim", "stimulus": "<p id=\"stim\">5</p>", "internal_node_id": "0.0-91.0-5.0", "time_elapsed": 598918, "key_press": -1, "trial_index": 123}, "uniqueid": "MTK3032:3BV8HQ2ZZX8VVS593PCEU269VLBA6W", "dateTime": 1519670510319}, {"current_trial": 124, "trialdata": {"rt": -1, "trial_type": "single-stim", "stimulus": "<p id=\"stim\">4</p>", "internal_node_id": "0.0-91.0-6.0", "time_elapsed": 599918, "key_press": -1, "trial_index": 124}, "uniqueid": "MTK3032:3BV8HQ2ZZX8VVS593PCEU269VLBA6W", "dateTime": 1519670511319}, {"current_trial": 125, "trialdata": {"rt": -1, "trial_type": "single-stim", "stimulus": "<p id=\"stim\">3</p>", "internal_node_id": "0.0-91.0-7.0", "time_elapsed": 600920, "key_press": -1, "trial_index": 125}, "uniqueid": "MTK3032:3BV8HQ2ZZX8VVS593PCEU269VLBA6W", "dateTime": 1519670512322}, {"current_trial": 126, "trialdata": {"rt": -1, "trial_type": "single-stim", "stimulus": "<p id=\"stim\">2</p>", "internal_node_id": "0.0-91.0-8.0", "time_elapsed": 601924, "key_press": -1, "trial_index": 126}, "uniqueid": "MTK3032:3BV8HQ2ZZX8VVS593PCEU269VLBA6W", "dateTime": 1519670513325}, {"current_trial": 127, "trialdata": {"rt": -1, "trial_type": "single-stim", "stimulus": "<p id=\"stim\">1</p>", "internal_node_id": "0.0-91.0-9.0", "time_elapsed": 602927, "key_press": -1, "trial_index": 127}, "uniqueid": "MTK3032:3BV8HQ2ZZX8VVS593PCEU269VLBA6W", "dateTime": 1519670514328}, {"current_trial": 128, "trialdata": {"rt": -1, "trial_type": "single-stim", "stimulus": "<p id=\"stim\">+</p>", "internal_node_id": "0.0-92.0-0.0", "time_elapsed": 604429, "key_press": -1, "type": "FIXATION", "trial_index": 128}, "uniqueid": "MTK3032:3BV8HQ2ZZX8VVS593PCEU269VLBA6W", "dateTime": 1519670515830}, {"current_trial": 129, "trialdata": {"rt": -1, "trial_type": "single-stim", "word": "backbone", "stimulus": "<p id=\"stim\">BACKBONE</p>", "conditions": [12, 1600, "v", 12000], "internal_node_id": "0.0-93.0", "trial": 3, "time_elapsed": 606033, "serialpos": 0, "key_press": -1, "wordID": 65, "type": "PRES_VIS", "trial_index": 129}, "uniqueid": "MTK3032:3BV8HQ2ZZX8VVS593PCEU269VLBA6W", "dateTime": 1519670517434}, {"current_trial": 130, "trialdata": {"rt": -1, "trial_type": "single-stim", "word": "dresser", "stimulus": "<p id=\"stim\">DRESSER</p>", "conditions": [12, 1600, "v", 12000], "internal_node_id": "0.0-94.0", "trial": 3, "time_elapsed": 608736, "serialpos": 1, "key_press": -1, "wordID": 495, "type": "PRES_VIS", "trial_index": 130}, "uniqueid": "MTK3032:3BV8HQ2ZZX8VVS593PCEU269VLBA6W", "dateTime": 1519670520137}, {"current_trial": 131, "trialdata": {"rt": -1, "trial_type": "single-stim", "word": "cupboard", "stimulus": "<p id=\"stim\">CUPBOARD</p>", "conditions": [12, 1600, "v", 12000], "internal_node_id": "0.0-95.0", "trial": 3, "time_elapsed": 611431, "serialpos": 2, "key_press": -1, "wordID": 424, "type": "PRES_VIS", "trial_index": 131}, "uniqueid": "MTK3032:3BV8HQ2ZZX8VVS593PCEU269VLBA6W", "dateTime": 1519670522832}, {"current_trial": 132, "trialdata": {"rt": -1, "trial_type": "single-stim", "word": "gymnast", "stimulus": "<p id=\"stim\">GYMNAST</p>", "conditions": [12, 1600, "v", 12000], "internal_node_id": "0.0-96.0", "trial": 3, "time_elapsed": 614084, "serialpos": 3, "key_press": -1, "wordID": 674, "type": "PRES_VIS", "trial_index": 132}, "uniqueid": "MTK3032:3BV8HQ2ZZX8VVS593PCEU269VLBA6W", "dateTime": 1519670525485}, {"current_trial": 133, "trialdata": {"rt": -1, "trial_type": "single-stim", "word": "rattle", "stimulus": "<p id=\"stim\">RATTLE</p>", "conditions": [12, 1600, "v", 12000], "internal_node_id": "0.0-97.0", "trial": 3, "time_elapsed": 616646, "serialpos": 4, "key_press": -1, "wordID": 1169, "type": "PRES_VIS", "trial_index": 133}, "uniqueid": "MTK3032:3BV8HQ2ZZX8VVS593PCEU269VLBA6W", "dateTime": 1519670528047}, {"current_trial": 134, "trialdata": {"rt": -1, "trial_type": "single-stim", "word": "hook", "stimulus": "<p id=\"stim\">HOOK</p>", "conditions": [12, 1600, "v", 12000], "internal_node_id": "0.0-98.0", "trial": 3, "time_elapsed": 619327, "serialpos": 5, "key_press": -1, "wordID": 714, "type": "PRES_VIS", "trial_index": 134}, "uniqueid": "MTK3032:3BV8HQ2ZZX8VVS593PCEU269VLBA6W", "dateTime": 1519670530728}, {"current_trial": 135, "trialdata": {"rt": -1, "trial_type": "single-stim", "word": "mummy", "stimulus": "<p id=\"stim\">MUMMY</p>", "conditions": [12, 1600, "v", 12000], "internal_node_id": "0.0-99.0", "trial": 3, "time_elapsed": 621872, "serialpos": 6, "key_press": -1, "wordID": 931, "type": "PRES_VIS", "trial_index": 135}, "uniqueid": "MTK3032:3BV8HQ2ZZX8VVS593PCEU269VLBA6W", "dateTime": 1519670533273}, {"current_trial": 136, "trialdata": {"rt": -1, "trial_type": "single-stim", "word": "guard", "stimulus": "<p id=\"stim\">GUARD</p>", "conditions": [12, 1600, "v", 12000], "internal_node_id": "0.0-100.0", "trial": 3, "time_elapsed": 624432, "serialpos": 7, "key_press": -1, "wordID": 666, "type": "PRES_VIS", "trial_index": 136}, "uniqueid": "MTK3032:3BV8HQ2ZZX8VVS593PCEU269VLBA6W", "dateTime": 1519670535834}, {"current_trial": 137, "trialdata": {"rt": -1, "trial_type": "single-stim", "word": "patrol", "stimulus": "<p id=\"stim\">PATROL</p>", "conditions": [12, 1600, "v", 12000], "internal_node_id": "0.0-101.0", "trial": 3, "time_elapsed": 626838, "serialpos": 8, "key_press": -1, "wordID": 1026, "type": "PRES_VIS", "trial_index": 137}, "uniqueid": "MTK3032:3BV8HQ2ZZX8VVS593PCEU269VLBA6W", "dateTime": 1519670538239}, {"current_trial": 138, "trialdata": {"rt": -1, "trial_type": "single-stim", "word": "harp", "stimulus": "<p id=\"stim\">HARP</p>", "conditions": [12, 1600, "v", 12000], "internal_node_id": "0.0-102.0", "trial": 3, "time_elapsed": 629420, "serialpos": 9, "key_press": -1, "wordID": 688, "type": "PRES_VIS", "trial_index": 138}, "uniqueid": "MTK3032:3BV8HQ2ZZX8VVS593PCEU269VLBA6W", "dateTime": 1519670540821}, {"current_trial": 139, "trialdata": {"rt": -1, "trial_type": "single-stim", "word": "window", "stimulus": "<p id=\"stim\">WINDOW</p>", "conditions": [12, 1600, "v", 12000], "internal_node_id": "0.0-103.0", "trial": 3, "time_elapsed": 632082, "serialpos": 10, "key_press": -1, "wordID": 1610, "type": "PRES_VIS", "trial_index": 139}, "uniqueid": "MTK3032:3BV8HQ2ZZX8VVS593PCEU269VLBA6W", "dateTime": 1519670543483}, {"current_trial": 140, "trialdata": {"rt": -1, "trial_type": "single-stim", "word": "dancer", "stimulus": "<p id=\"stim\">DANCER</p>", "conditions": [12, 1600, "v", 12000], "internal_node_id": "0.0-104.0", "trial": 3, "time_elapsed": 634833, "serialpos": 11, "key_press": -1, "wordID": 436, "type": "PRES_VIS", "trial_index": 140}, "uniqueid": "MTK3032:3BV8HQ2ZZX8VVS593PCEU269VLBA6W", "dateTime": 1519670546234}, {"current_trial": 141, "trialdata": {"rt": -1, "trial_type": "single-stim", "stimulus": "", "internal_node_id": "0.0-105.0-0.0", "time_elapsed": 637141, "key_press": -1, "type": "PRE_RECALL_DELAY", "trial_index": 141}, "uniqueid": "MTK3032:3BV8HQ2ZZX8VVS593PCEU269VLBA6W", "dateTime": 1519670548543}, {"current_trial": 142, "trialdata": {"rt": -1000, "trial_type": "single-audio", "stimulus": "/static/audio/400Hz.wav", "internal_node_id": "0.0-106.0", "time_elapsed": 637643, "key_press": -1, "type": "PRE_RECALL_ALERT", "trial_index": 142}, "uniqueid": "MTK3032:3BV8HQ2ZZX8VVS593PCEU269VLBA6W", "dateTime": 1519670549044}, {"current_trial": 143, "trialdata": {"rt": [1829, 3109, 5054, 6726, 7773, 10686, 13631, 17918, 19510, 30230, 32542, 35278], "recwords": ["dancer", "window", "guard", "patrol", "harp", "mummy", "rattle", "gymnast", "hook", "backbone", "cupboard", "dresser"], "key_times": [895, 966, 1110, 1254, 1566, 1662, 1829, 2294, 2407, 2502, 2638, 2758, 2918, 3109, 3670, 3790, 4118, 4271, 4678, 5054, 5638, 5734, 6110, 6174, 6270, 6494, 6726, 7078, 7214, 7334, 7622, 7773, 8847, 9110, 9358, 9543, 9813, 10686, 12558, 12694, 12925, 13078, 13206, 13334, 13631, 13990, 14638, 15694, 15878, 16230, 16606, 17166, 17286, 17606, 17918, 18374, 18807, 19006, 19078, 19510, 28662, 28742, 28910, 28990, 29502, 29718, 29847, 29926, 30230, 30590, 30726, 31182, 31519, 31726, 31854, 32022, 32270, 32542, 33942, 34222, 34278, 34526, 34750, 34982, 35062, 35278], "trial_type": "free-recall", "conditions": [12, 1600, "v", 12000], "internal_node_id": "0.0-107.0-0.0", "key_presses": [68, 65, 78, 67, 69, 82, 13, 87, 73, 78, 68, 79, 87, 13, 71, 85, 65, 82, 68, 13, 80, 65, 84, 82, 79, 76, 13, 72, 65, 82, 80, 32, 77, 85, 77, 77, 89, 13, 82, 65, 84, 84, 76, 69, 13, 71, 8, 71, 89, 77, 78, 65, 83, 84, 13, 72, 79, 79, 75, 13, 66, 65, 67, 75, 66, 79, 78, 69, 13, 67, 85, 80, 66, 79, 65, 82, 68, 13, 68, 82, 69, 83, 83, 69, 82, 13], "trial": 3, "time_elapsed": 697647, "type": "FREE_RECALL", "trial_index": 143}, "uniqueid": "MTK3032:3BV8HQ2ZZX8VVS593PCEU269VLBA6W", "dateTime": 1519670609050}, {"current_trial": 144, "trialdata": {"rt": 2601, "trial_type": "text", "internal_node_id": "0.0-108.0", "time_elapsed": 702251, "key_press": 32, "type": "INSTRUCTIONS", "trial_index": 144}, "uniqueid": "MTK3032:3BV8HQ2ZZX8VVS593PCEU269VLBA6W", "dateTime": 1519670613652}, {"current_trial": 145, "trialdata": {"rt": [9103], "trial_type": "math-distractor", "key_times": [8335, 8487, 9103], "responses": ["15"], "num2": [5, 6], "num3": [7, 7], "conditions": [24, 1600, "v", 12000], "internal_node_id": "0.0-109.0", "key_presses": [49, 53, 13], "trial": 4, "time_elapsed": 716256, "type": "DISTRACTOR", "trial_index": 145, "num1": [3, 6]}, "uniqueid": "MTK3032:3BV8HQ2ZZX8VVS593PCEU269VLBA6W", "dateTime": 1519670627658}, {"current_trial": 146, "trialdata": {"rt": -1, "trial_type": "single-stim", "stimulus": "<p id=\"stim\">10</p>", "internal_node_id": "0.0-110.0-0.0", "time_elapsed": 719259, "key_press": -1, "trial_index": 146}, "uniqueid": "MTK3032:3BV8HQ2ZZX8VVS593PCEU269VLBA6W", "dateTime": 1519670630660}, {"current_trial": 147, "trialdata": {"rt": -1, "trial_type": "single-stim", "stimulus": "<p id=\"stim\">9</p>", "internal_node_id": "0.0-110.0-1.0", "time_elapsed": 720261, "key_press": -1, "trial_index": 147}, "uniqueid": "MTK3032:3BV8HQ2ZZX8VVS593PCEU269VLBA6W", "dateTime": 1519670631662}, {"current_trial": 148, "trialdata": {"rt": -1, "trial_type": "single-stim", "stimulus": "<p id=\"stim\">8</p>", "internal_node_id": "0.0-110.0-2.0", "time_elapsed": 721265, "key_press": -1, "trial_index": 148}, "uniqueid": "MTK3032:3BV8HQ2ZZX8VVS593PCEU269VLBA6W", "dateTime": 1519670632666}, {"current_trial": 149, "trialdata": {"rt": -1, "trial_type": "single-stim", "stimulus": "<p id=\"stim\">7</p>", "internal_node_id": "0.0-110.0-3.0", "time_elapsed": 722266, "key_press": -1, "trial_index": 149}, "uniqueid": "MTK3032:3BV8HQ2ZZX8VVS593PCEU269VLBA6W", "dateTime": 1519670633667}, {"current_trial": 150, "trialdata": {"rt": -1, "trial_type": "single-stim", "stimulus": "<p id=\"stim\">6</p>", "internal_node_id": "0.0-110.0-4.0", "time_elapsed": 723268, "key_press": -1, "trial_index": 150}, "uniqueid": "MTK3032:3BV8HQ2ZZX8VVS593PCEU269VLBA6W", "dateTime": 1519670634669}, {"current_trial": 151, "trialdata": {"rt": -1, "trial_type": "single-stim", "stimulus": "<p id=\"stim\">5</p>", "internal_node_id": "0.0-110.0-5.0", "time_elapsed": 724270, "key_press": -1, "trial_index": 151}, "uniqueid": "MTK3032:3BV8HQ2ZZX8VVS593PCEU269VLBA6W", "dateTime": 1519670635671}, {"current_trial": 152, "trialdata": {"rt": -1, "trial_type": "single-stim", "stimulus": "<p id=\"stim\">4</p>", "internal_node_id": "0.0-110.0-6.0", "time_elapsed": 725273, "key_press": -1, "trial_index": 152}, "uniqueid": "MTK3032:3BV8HQ2ZZX8VVS593PCEU269VLBA6W", "dateTime": 1519670636674}, {"current_trial": 153, "trialdata": {"rt": -1, "trial_type": "single-stim", "stimulus": "<p id=\"stim\">3</p>", "internal_node_id": "0.0-110.0-7.0", "time_elapsed": 726273, "key_press": -1, "trial_index": 153}, "uniqueid": "MTK3032:3BV8HQ2ZZX8VVS593PCEU269VLBA6W", "dateTime": 1519670637675}, {"current_trial": 154, "trialdata": {"rt": -1, "trial_type": "single-stim", "stimulus": "<p id=\"stim\">2</p>", "internal_node_id": "0.0-110.0-8.0", "time_elapsed": 727277, "key_press": -1, "trial_index": 154}, "uniqueid": "MTK3032:3BV8HQ2ZZX8VVS593PCEU269VLBA6W", "dateTime": 1519670638678}, {"current_trial": 155, "trialdata": {"rt": -1, "trial_type": "single-stim", "stimulus": "<p id=\"stim\">1</p>", "internal_node_id": "0.0-110.0-9.0", "time_elapsed": 728280, "key_press": -1, "trial_index": 155}, "uniqueid": "MTK3032:3BV8HQ2ZZX8VVS593PCEU269VLBA6W", "dateTime": 1519670639681}, {"current_trial": 156, "trialdata": {"rt": -1, "trial_type": "single-stim", "stimulus": "<p id=\"stim\">+</p>", "internal_node_id": "0.0-111.0-0.0", "time_elapsed": 729781, "key_press": -1, "type": "FIXATION", "trial_index": 156}, "uniqueid": "MTK3032:3BV8HQ2ZZX8VVS593PCEU269VLBA6W", "dateTime": 1519670641182}, {"current_trial": 157, "trialdata": {"rt": -1, "trial_type": "single-stim", "word": "blockade", "stimulus": "<p id=\"stim\">BLOCKADE</p>", "conditions": [24, 1600, "v", 12000], "internal_node_id": "0.0-112.0", "trial": 4, "time_elapsed": 731384, "serialpos": 0, "key_press": -1, "wordID": 136, "type": "PRES_VIS", "trial_index": 157}, "uniqueid": "MTK3032:3BV8HQ2ZZX8VVS593PCEU269VLBA6W", "dateTime": 1519670642785}, {"current_trial": 158, "trialdata": {"rt": -1, "trial_type": "single-stim", "word": "journal", "stimulus": "<p id=\"stim\">JOURNAL</p>", "conditions": [24, 1600, "v", 12000], "internal_node_id": "0.0-113.0", "trial": 4, "time_elapsed": 733894, "serialpos": 1, "key_press": -1, "wordID": 759, "type": "PRES_VIS", "trial_index": 158}, "uniqueid": "MTK3032:3BV8HQ2ZZX8VVS593PCEU269VLBA6W", "dateTime": 1519670645295}, {"current_trial": 159, "trialdata": {"rt": -1, "trial_type": "single-stim", "word": "sandwich", "stimulus": "<p id=\"stim\">SANDWICH</p>", "conditions": [24, 1600, "v", 12000], "internal_node_id": "0.0-114.0", "trial": 4, "time_elapsed": 736368, "serialpos": 2, "key_press": -1, "wordID": 1231, "type": "PRES_VIS", "trial_index": 159}, "uniqueid": "MTK3032:3BV8HQ2ZZX8VVS593PCEU269VLBA6W", "dateTime": 1519670647769}, {"current_trial": 160, "trialdata": {"rt": -1, "trial_type": "single-stim", "word": "scallop", "stimulus": "<p id=\"stim\">SCALLOP</p>", "conditions": [24, 1600, "v", 12000], "internal_node_id": "0.0-115.0", "trial": 4, "time_elapsed": 738862, "serialpos": 3, "key_press": -1, "wordID": 1241, "type": "PRES_VIS", "trial_index": 160}, "uniqueid": "MTK3032:3BV8HQ2ZZX8VVS593PCEU269VLBA6W", "dateTime": 1519670650263}, {"current_trial": 161, "trialdata": {"rt": -1, "trial_type": "single-stim", "word": "tweezers", "stimulus": "<p id=\"stim\">TWEEZERS</p>", "conditions": [24, 1600, "v", 12000], "internal_node_id": "0.0-116.0", "trial": 4, "time_elapsed": 741266, "serialpos": 4, "key_press": -1, "wordID": 1525, "type": "PRES_VIS", "trial_index": 161}, "uniqueid": "MTK3032:3BV8HQ2ZZX8VVS593PCEU269VLBA6W", "dateTime": 1519670652667}, {"current_trial": 162, "trialdata": {"rt": -1, "trial_type": "single-stim", "word": "spider", "stimulus": "<p id=\"stim\">SPIDER</p>", "conditions": [24, 1600, "v", 12000], "internal_node_id": "0.0-117.0", "trial": 4, "time_elapsed": 743750, "serialpos": 5, "key_press": -1, "wordID": 1350, "type": "PRES_VIS", "trial_index": 162}, "uniqueid": "MTK3032:3BV8HQ2ZZX8VVS593PCEU269VLBA6W", "dateTime": 1519670655151}, {"current_trial": 163, "trialdata": {"rt": -1, "trial_type": "single-stim", "word": "knapsack", "stimulus": "<p id=\"stim\">KNAPSACK</p>", "conditions": [24, 1600, "v", 12000], "internal_node_id": "0.0-118.0", "trial": 4, "time_elapsed": 746436, "serialpos": 6, "key_press": -1, "wordID": 782, "type": "PRES_VIS", "trial_index": 163}, "uniqueid": "MTK3032:3BV8HQ2ZZX8VVS593PCEU269VLBA6W", "dateTime": 1519670657838}, {"current_trial": 164, "trialdata": {"rt": -1, "trial_type": "single-stim", "word": "mildew", "stimulus": "<p id=\"stim\">MILDEW</p>", "conditions": [24, 1600, "v", 12000], "internal_node_id": "0.0-119.0", "trial": 4, "time_elapsed": 748921, "serialpos": 7, "key_press": -1, "wordID": 892, "type": "PRES_VIS", "trial_index": 164}, "uniqueid": "MTK3032:3BV8HQ2ZZX8VVS593PCEU269VLBA6W", "dateTime": 1519670660322}, {"current_trial": 165, "trialdata": {"rt": -1, "trial_type": "single-stim", "word": "fungus", "stimulus": "<p id=\"stim\">FUNGUS</p>", "conditions": [24, 1600, "v", 12000], "internal_node_id": "0.0-120.0", "trial": 4, "time_elapsed": 751503, "serialpos": 8, "key_press": -1, "wordID": 613, "type": "PRES_VIS", "trial_index": 165}, "uniqueid": "MTK3032:3BV8HQ2ZZX8VVS593PCEU269VLBA6W", "dateTime": 1519670662904}, {"current_trial": 166, "trialdata": {"rt": -1, "trial_type": "single-stim", "word": "pliers", "stimulus": "<p id=\"stim\">PLIERS</p>", "conditions": [24, 1600, "v", 12000], "internal_node_id": "0.0-121.0", "trial": 4, "time_elapsed": 754022, "serialpos": 9, "key_press": -1, "wordID": 1088, "type": "PRES_VIS", "trial_index": 166}, "uniqueid": "MTK3032:3BV8HQ2ZZX8VVS593PCEU269VLBA6W", "dateTime": 1519670665423}, {"current_trial": 167, "trialdata": {"rt": -1, "trial_type": "single-stim", "word": "pluto", "stimulus": "<p id=\"stim\">PLUTO</p>", "conditions": [24, 1600, "v", 12000], "internal_node_id": "0.0-122.0", "trial": 4, "time_elapsed": 756618, "serialpos": 10, "key_press": -1, "wordID": 1091, "type": "PRES_VIS", "trial_index": 167}, "uniqueid": "MTK3032:3BV8HQ2ZZX8VVS593PCEU269VLBA6W", "dateTime": 1519670668019}, {"current_trial": 168, "trialdata": {"rt": -1, "trial_type": "single-stim", "word": "clam", "stimulus": "<p id=\"stim\">CLAM</p>", "conditions": [24, 1600, "v", 12000], "internal_node_id": "0.0-123.0", "trial": 4, "time_elapsed": 759260, "serialpos": 11, "key_press": -1, "wordID": 314, "type": "PRES_VIS", "trial_index": 168}, "uniqueid": "MTK3032:3BV8HQ2ZZX8VVS593PCEU269VLBA6W", "dateTime": 1519670670661}, {"current_trial": 169, "trialdata": {"rt": -1, "trial_type": "single-stim", "word": "salmon", "stimulus": "<p id=\"stim\">SALMON</p>", "conditions": [24, 1600, "v", 12000], "internal_node_id": "0.0-124.0", "trial": 4, "time_elapsed": 761683, "serialpos": 12, "key_press": -1, "wordID": 1226, "type": "PRES_VIS", "trial_index": 169}, "uniqueid": "MTK3032:3BV8HQ2ZZX8VVS593PCEU269VLBA6W", "dateTime": 1519670673085}, {"current_trial": 170, "trialdata": {"rt": -1, "trial_type": "single-stim", "word": "friend", "stimulus": "<p id=\"stim\">FRIEND</p>", "conditions": [24, 1600, "v", 12000], "internal_node_id": "0.0-125.0", "trial": 4, "time_elapsed": 764452, "serialpos": 13, "key_press": -1, "wordID": 605, "type": "PRES_VIS", "trial_index": 170}, "uniqueid": "MTK3032:3BV8HQ2ZZX8VVS593PCEU269VLBA6W", "dateTime": 1519670675853}, {"current_trial": 171, "trialdata": {"rt": -1, "trial_type": "single-stim", "word": "fireman", "stimulus": "<p id=\"stim\">FIREMAN</p>", "conditions": [24, 1600, "v", 12000], "internal_node_id": "0.0-126.0", "trial": 4, "time_elapsed": 766902, "serialpos": 14, "key_press": -1, "wordID": 568, "type": "PRES_VIS", "trial_index": 171}, "uniqueid": "MTK3032:3BV8HQ2ZZX8VVS593PCEU269VLBA6W", "dateTime": 1519670678303}, {"current_trial": 172, "trialdata": {"rt": -1, "trial_type": "single-stim", "word": "permit", "stimulus": "<p id=\"stim\">PERMIT</p>", "conditions": [24, 1600, "v", 12000], "internal_node_id": "0.0-127.0", "trial": 4, "time_elapsed": 769682, "serialpos": 15, "key_press": -1, "wordID": 1050, "type": "PRES_VIS", "trial_index": 172}, "uniqueid": "MTK3032:3BV8HQ2ZZX8VVS593PCEU269VLBA6W", "dateTime": 1519670681083}, {"current_trial": 173, "trialdata": {"rt": -1, "trial_type": "single-stim", "word": "crab", "stimulus": "<p id=\"stim\">CRAB</p>", "conditions": [24, 1600, "v", 12000], "internal_node_id": "0.0-128.0", "trial": 4, "time_elapsed": 772201, "serialpos": 16, "key_press": -1, "wordID": 396, "type": "PRES_VIS", "trial_index": 173}, "uniqueid": "MTK3032:3BV8HQ2ZZX8VVS593PCEU269VLBA6W", "dateTime": 1519670683602}, {"current_trial": 174, "trialdata": {"rt": -1, "trial_type": "single-stim", "word": "kleenex", "stimulus": "<p id=\"stim\">KLEENEX</p>", "conditions": [24, 1600, "v", 12000], "internal_node_id": "0.0-129.0", "trial": 4, "time_elapsed": 774747, "serialpos": 17, "key_press": -1, "wordID": 781, "type": "PRES_VIS", "trial_index": 174}, "uniqueid": "MTK3032:3BV8HQ2ZZX8VVS593PCEU269VLBA6W", "dateTime": 1519670686148}, {"current_trial": 175, "trialdata": {"rt": -1, "trial_type": "single-stim", "word": "tombstone", "stimulus": "<p id=\"stim\">TOMBSTONE</p>", "conditions": [24, 1600, "v", 12000], "internal_node_id": "0.0-130.0", "trial": 4, "time_elapsed": 777500, "serialpos": 18, "key_press": -1, "wordID": 1477, "type": "PRES_VIS", "trial_index": 175}, "uniqueid": "MTK3032:3BV8HQ2ZZX8VVS593PCEU269VLBA6W", "dateTime": 1519670688901}, {"current_trial": 176, "trialdata": {"rt": -1, "trial_type": "single-stim", "word": "hiker", "stimulus": "<p id=\"stim\">HIKER</p>", "conditions": [24, 1600, "v", 12000], "internal_node_id": "0.0-131.0", "trial": 4, "time_elapsed": 780041, "serialpos": 19, "key_press": -1, "wordID": 707, "type": "PRES_VIS", "trial_index": 176}, "uniqueid": "MTK3032:3BV8HQ2ZZX8VVS593PCEU269VLBA6W", "dateTime": 1519670691442}, {"current_trial": 177, "trialdata": {"rt": -1, "trial_type": "single-stim", "word": "climber", "stimulus": "<p id=\"stim\">CLIMBER</p>", "conditions": [24, 1600, "v", 12000], "internal_node_id": "0.0-132.0", "trial": 4, "time_elapsed": 782799, "serialpos": 20, "key_press": -1, "wordID": 322, "type": "PRES_VIS", "trial_index": 177}, "uniqueid": "MTK3032:3BV8HQ2ZZX8VVS593PCEU269VLBA6W", "dateTime": 1519670694200}, {"current_trial": 178, "trialdata": {"rt": -1, "trial_type": "single-stim", "word": "pepper", "stimulus": "<p id=\"stim\">PEPPER</p>", "conditions": [24, 1600, "v", 12000], "internal_node_id": "0.0-133.0", "trial": 4, "time_elapsed": 785431, "serialpos": 21, "key_press": -1, "wordID": 1046, "type": "PRES_VIS", "trial_index": 178}, "uniqueid": "MTK3032:3BV8HQ2ZZX8VVS593PCEU269VLBA6W", "dateTime": 1519670696832}, {"current_trial": 179, "trialdata": {"rt": -1, "trial_type": "single-stim", "word": "garlic", "stimulus": "<p id=\"stim\">GARLIC</p>", "conditions": [24, 1600, "v", 12000], "internal_node_id": "0.0-134.0", "trial": 4, "time_elapsed": 788035, "serialpos": 22, "key_press": -1, "wordID": 623, "type": "PRES_VIS", "trial_index": 179}, "uniqueid": "MTK3032:3BV8HQ2ZZX8VVS593PCEU269VLBA6W", "dateTime": 1519670699436}, {"current_trial": 180, "trialdata": {"rt": -1, "trial_type": "single-stim", "word": "novel", "stimulus": "<p id=\"stim\">NOVEL</p>", "conditions": [24, 1600, "v", 12000], "internal_node_id": "0.0-135.0", "trial": 4, "time_elapsed": 790586, "serialpos": 23, "key_press": -1, "wordID": 959, "type": "PRES_VIS", "trial_index": 180}, "uniqueid": "MTK3032:3BV8HQ2ZZX8VVS593PCEU269VLBA6W", "dateTime": 1519670701987}, {"current_trial": 181, "trialdata": {"rt": -1, "trial_type": "single-stim", "stimulus": "", "internal_node_id": "0.0-136.0-0.0", "time_elapsed": 792897, "key_press": -1, "type": "PRE_RECALL_DELAY", "trial_index": 181}, "uniqueid": "MTK3032:3BV8HQ2ZZX8VVS593PCEU269VLBA6W", "dateTime": 1519670704298}, {"current_trial": 182, "trialdata": {"rt": -1000, "trial_type": "single-audio", "stimulus": "/static/audio/400Hz.wav", "internal_node_id": "0.0-137.0", "time_elapsed": 793399, "key_press": -1, "type": "PRE_RECALL_ALERT", "trial_index": 182}, "uniqueid": "MTK3032:3BV8HQ2ZZX8VVS593PCEU269VLBA6W", "dateTime": 1519670704800}, {"current_trial": 183, "trialdata": {"rt": [2781, 8069, 11853, 14748, 18924, 22588, 24652, 28148, 30548, 35317, 37036, 38404, 40068, 50956, 54548, 58564], "recwords": ["tweezers", "pliers", "kleenex", "tombstone", "blockade", "sandwich", "journal", "scallop", "clam", "crab", "salmon", "hiker", "climber", "spider", "knapsack", "friend"], "key_times": [725, 1022, 1181, 1348, 1692, 2084, 2220, 2476, 2781, 3468, 3541, 3924, 3948, 4116, 6236, 8069, 8757, 9036, 9245, 9396, 9621, 9796, 10237, 11853, 12501, 12701, 13181, 13413, 13621, 13916, 14077, 14172, 14269, 14748, 16772, 17012, 17253, 17372, 17500, 17780, 18301, 18388, 18924, 19973, 20173, 20316, 20573, 21108, 21252, 21405, 21460, 22588, 23188, 23429, 23516, 23677, 23916, 24076, 24212, 24652, 25772, 25988, 26204, 26293, 26452, 26628, 27509, 28148, 28420, 28677, 28964, 29189, 30548, 31996, 32445, 32612, 32844, 35317, 35700, 35805, 35900, 36109, 36444, 36556, 37036, 37604, 37716, 37964, 38084, 38196, 38404, 38996, 39133, 39212, 39452, 39692, 39781, 39892, 40068, 49508, 49812, 49900, 50004, 50205, 50341, 50956, 51820, 52020, 52268, 52564, 52756, 52869, 53236, 53732, 53861, 54044, 54548, 57637, 57893, 58044, 58149, 58237, 58349, 58564, 59340, 59428, 59557, 59645, 59716, 59941, 59981], "trial_type": "free-recall", "conditions": [24, 1600, "v", 12000], "internal_node_id": "0.0-138.0-0.0", "key_presses": [84, 87, 69, 69, 90, 69, 82, 83, 13, 80, 76, 73, 69, 82, 83, 13, 75, 76, 69, 69, 78, 69, 88, 13, 84, 79, 77, 66, 83, 84, 79, 78, 69, 13, 66, 76, 79, 67, 75, 65, 68, 69, 13, 83, 65, 78, 68, 87, 73, 67, 72, 13, 74, 79, 85, 82, 78, 65, 76, 13, 83, 67, 65, 76, 76, 79, 80, 13, 67, 76, 65, 77, 13, 67, 82, 65, 66, 13, 83, 65, 76, 77, 79, 78, 13, 72, 73, 75, 69, 82, 13, 67, 76, 73, 77, 66, 69, 82, 13, 83, 80, 73, 68, 69, 82, 13, 75, 78, 79, 8, 65, 80, 83, 65, 67, 75, 13, 70, 82, 73, 69, 78, 68, 13, 70, 73, 82, 69, 77, 65, 78], "trial": 4, "time_elapsed": 853402, "type": "FREE_RECALL", "trial_index": 183}, "uniqueid": "MTK3032:3BV8HQ2ZZX8VVS593PCEU269VLBA6W", "dateTime": 1519670764804}, {"current_trial": 184, "trialdata": {"rt": 1384, "trial_type": "text", "internal_node_id": "0.0-139.0", "time_elapsed": 856789, "key_press": 32, "type": "INSTRUCTIONS", "trial_index": 184}, "uniqueid": "MTK3032:3BV8HQ2ZZX8VVS593PCEU269VLBA6W", "dateTime": 1519670768190}, {"current_trial": 185, "trialdata": {"rt": [6107, 11939, 13571, 16410, 20986, 23834], "trial_type": "math-distractor", "key_times": [4555, 4779, 6107, 10779, 11107, 11939, 13227, 13346, 13571, 15715, 16266, 16410, 20507, 20690, 20986, 23242, 23530, 23834], "responses": ["21", "18", "12", "16", "22", "18"], "num2": [9, 7, 5, 8, 8, 9, 7], "num3": [9, 4, 2, 1, 9, 1, 8], "conditions": [24, 800, "v", 24000], "internal_node_id": "0.0-140.0", "key_presses": [50, 49, 13, 49, 56, 13, 49, 50, 13, 49, 54, 13, 50, 50, 13, 49, 56, 13], "trial": 5, "time_elapsed": 882794, "type": "DISTRACTOR", "trial_index": 185, "num1": [4, 7, 5, 7, 5, 8, 5]}, "uniqueid": "MTK3032:3BV8HQ2ZZX8VVS593PCEU269VLBA6W", "dateTime": 1519670794195}, {"current_trial": 186, "trialdata": {"rt": -1, "trial_type": "single-stim", "stimulus": "<p id=\"stim\">10</p>", "internal_node_id": "0.0-141.0-0.0", "time_elapsed": 885796, "key_press": -1, "trial_index": 186}, "uniqueid": "MTK3032:3BV8HQ2ZZX8VVS593PCEU269VLBA6W", "dateTime": 1519670797198}, {"current_trial": 187, "trialdata": {"rt": -1, "trial_type": "single-stim", "stimulus": "<p id=\"stim\">9</p>", "internal_node_id": "0.0-141.0-1.0", "time_elapsed": 886798, "key_press": -1, "trial_index": 187}, "uniqueid": "MTK3032:3BV8HQ2ZZX8VVS593PCEU269VLBA6W", "dateTime": 1519670798199}, {"current_trial": 188, "trialdata": {"rt": -1, "trial_type": "single-stim", "stimulus": "<p id=\"stim\">8</p>", "internal_node_id": "0.0-141.0-2.0", "time_elapsed": 887802, "key_press": -1, "trial_index": 188}, "uniqueid": "MTK3032:3BV8HQ2ZZX8VVS593PCEU269VLBA6W", "dateTime": 1519670799203}, {"current_trial": 189, "trialdata": {"rt": -1, "trial_type": "single-stim", "stimulus": "<p id=\"stim\">7</p>", "internal_node_id": "0.0-141.0-3.0", "time_elapsed": 888804, "key_press": -1, "trial_index": 189}, "uniqueid": "MTK3032:3BV8HQ2ZZX8VVS593PCEU269VLBA6W", "dateTime": 1519670800205}, {"current_trial": 190, "trialdata": {"rt": -1, "trial_type": "single-stim", "stimulus": "<p id=\"stim\">6</p>", "internal_node_id": "0.0-141.0-4.0", "time_elapsed": 889805, "key_press": -1, "trial_index": 190}, "uniqueid": "MTK3032:3BV8HQ2ZZX8VVS593PCEU269VLBA6W", "dateTime": 1519670801206}, {"current_trial": 191, "trialdata": {"rt": -1, "trial_type": "single-stim", "stimulus": "<p id=\"stim\">5</p>", "internal_node_id": "0.0-141.0-5.0", "time_elapsed": 890808, "key_press": -1, "trial_index": 191}, "uniqueid": "MTK3032:3BV8HQ2ZZX8VVS593PCEU269VLBA6W", "dateTime": 1519670802209}, {"current_trial": 192, "trialdata": {"rt": -1, "trial_type": "single-stim", "stimulus": "<p id=\"stim\">4</p>", "internal_node_id": "0.0-141.0-6.0", "time_elapsed": 891812, "key_press": -1, "trial_index": 192}, "uniqueid": "MTK3032:3BV8HQ2ZZX8VVS593PCEU269VLBA6W", "dateTime": 1519670803213}, {"current_trial": 193, "trialdata": {"rt": -1, "trial_type": "single-stim", "stimulus": "<p id=\"stim\">3</p>", "internal_node_id": "0.0-141.0-7.0", "time_elapsed": 892813, "key_press": -1, "trial_index": 193}, "uniqueid": "MTK3032:3BV8HQ2ZZX8VVS593PCEU269VLBA6W", "dateTime": 1519670804214}, {"current_trial": 194, "trialdata": {"rt": -1, "trial_type": "single-stim", "stimulus": "<p id=\"stim\">2</p>", "internal_node_id": "0.0-141.0-8.0", "time_elapsed": 893816, "key_press": -1, "trial_index": 194}, "uniqueid": "MTK3032:3BV8HQ2ZZX8VVS593PCEU269VLBA6W", "dateTime": 1519670805217}, {"current_trial": 195, "trialdata": {"rt": -1, "trial_type": "single-stim", "stimulus": "<p id=\"stim\">1</p>", "internal_node_id": "0.0-141.0-9.0", "time_elapsed": 894818, "key_press": -1, "trial_index": 195}, "uniqueid": "MTK3032:3BV8HQ2ZZX8VVS593PCEU269VLBA6W", "dateTime": 1519670806219}, {"current_trial": 196, "trialdata": {"rt": -1, "trial_type": "single-stim", "stimulus": "<p id=\"stim\">+</p>", "internal_node_id": "0.0-142.0-0.0", "time_elapsed": 896320, "key_press": -1, "type": "FIXATION", "trial_index": 196}, "uniqueid": "MTK3032:3BV8HQ2ZZX8VVS593PCEU269VLBA6W", "dateTime": 1519670807721}, {"current_trial": 197, "trialdata": {"rt": -1, "trial_type": "single-stim", "word": "liver", "stimulus": "<p id=\"stim\">LIVER</p>", "conditions": [24, 800, "v", 24000], "internal_node_id": "0.0-143.0", "trial": 5, "time_elapsed": 897122, "serialpos": 0, "key_press": -1, "wordID": 832, "type": "PRES_VIS", "trial_index": 197}, "uniqueid": "MTK3032:3BV8HQ2ZZX8VVS593PCEU269VLBA6W", "dateTime": 1519670808523}, {"current_trial": 198, "trialdata": {"rt": -1, "trial_type": "single-stim", "word": "sword", "stimulus": "<p id=\"stim\">SWORD</p>", "conditions": [24, 800, "v", 24000], "internal_node_id": "0.0-144.0", "trial": 5, "time_elapsed": 899091, "serialpos": 1, "key_press": -1, "wordID": 1422, "type": "PRES_VIS", "trial_index": 198}, "uniqueid": "MTK3032:3BV8HQ2ZZX8VVS593PCEU269VLBA6W", "dateTime": 1519670810492}, {"current_trial": 199, "trialdata": {"rt": -1, "trial_type": "single-stim", "word": "truck", "stimulus": "<p id=\"stim\">TRUCK</p>", "conditions": [24, 800, "v", 24000], "internal_node_id": "0.0-145.0", "trial": 5, "time_elapsed": 900817, "serialpos": 2, "key_press": -1, "wordID": 1511, "type": "PRES_VIS", "trial_index": 199}, "uniqueid": "MTK3032:3BV8HQ2ZZX8VVS593PCEU269VLBA6W", "dateTime": 1519670812218}, {"current_trial": 200, "trialdata": {"rt": -1, "trial_type": "single-stim", "word": "smog", "stimulus": "<p id=\"stim\">SMOG</p>", "conditions": [24, 800, "v", 24000], "internal_node_id": "0.0-146.0", "trial": 5, "time_elapsed": 902807, "serialpos": 3, "key_press": -1, "wordID": 1329, "type": "PRES_VIS", "trial_index": 200}, "uniqueid": "MTK3032:3BV8HQ2ZZX8VVS593PCEU269VLBA6W", "dateTime": 1519670814208}, {"current_trial": 201, "trialdata": {"rt": -1, "trial_type": "single-stim", "word": "freezer", "stimulus": "<p id=\"stim\">FREEZER</p>", "conditions": [24, 800, "v", 24000], "internal_node_id": "0.0-147.0", "trial": 5, "time_elapsed": 904502, "serialpos": 4, "key_press": -1, "wordID": 603, "type": "PRES_VIS", "trial_index": 201}, "uniqueid": "MTK3032:3BV8HQ2ZZX8VVS593PCEU269VLBA6W", "dateTime": 1519670815903}, {"current_trial": 202, "trialdata": {"rt": -1, "trial_type": "single-stim", "word": "swimmer", "stimulus": "<p id=\"stim\">SWIMMER</p>", "conditions": [24, 800, "v", 24000], "internal_node_id": "0.0-148.0", "trial": 5, "time_elapsed": 906358, "serialpos": 5, "key_press": -1, "wordID": 1419, "type": "PRES_VIS", "trial_index": 202}, "uniqueid": "MTK3032:3BV8HQ2ZZX8VVS593PCEU269VLBA6W", "dateTime": 1519670817759}, {"current_trial": 203, "trialdata": {"rt": -1, "trial_type": "single-stim", "word": "diver", "stimulus": "<p id=\"stim\">DIVER</p>", "conditions": [24, 800, "v", 24000], "internal_node_id": "0.0-149.0", "trial": 5, "time_elapsed": 908108, "serialpos": 6, "key_press": -1, "wordID": 475, "type": "PRES_VIS", "trial_index": 203}, "uniqueid": "MTK3032:3BV8HQ2ZZX8VVS593PCEU269VLBA6W", "dateTime": 1519670819511}, {"current_trial": 204, "trialdata": {"rt": -1, "trial_type": "single-stim", "word": "fireplace", "stimulus": "<p id=\"stim\">FIREPLACE</p>", "conditions": [24, 800, "v", 24000], "internal_node_id": "0.0-150.0", "trial": 5, "time_elapsed": 909950, "serialpos": 7, "key_press": -1, "wordID": 569, "type": "PRES_VIS", "trial_index": 204}, "uniqueid": "MTK3032:3BV8HQ2ZZX8VVS593PCEU269VLBA6W", "dateTime": 1519670821351}, {"current_trial": 205, "trialdata": {"rt": -1, "trial_type": "single-stim", "word": "knife", "stimulus": "<p id=\"stim\">KNIFE</p>", "conditions": [24, 800, "v", 24000], "internal_node_id": "0.0-151.0", "trial": 5, "time_elapsed": 911830, "serialpos": 8, "key_press": -1, "wordID": 784, "type": "PRES_VIS", "trial_index": 205}, "uniqueid": "MTK3032:3BV8HQ2ZZX8VVS593PCEU269VLBA6W", "dateTime": 1519670823231}, {"current_trial": 206, "trialdata": {"rt": -1, "trial_type": "single-stim", "word": "popcorn", "stimulus": "<p id=\"stim\">POPCORN</p>", "conditions": [24, 800, "v", 24000], "internal_node_id": "0.0-152.0", "trial": 5, "time_elapsed": 913675, "serialpos": 9, "key_press": -1, "wordID": 1103, "type": "PRES_VIS", "trial_index": 206}, "uniqueid": "MTK3032:3BV8HQ2ZZX8VVS593PCEU269VLBA6W", "dateTime": 1519670825076}, {"current_trial": 207, "trialdata": {"rt": -1, "trial_type": "single-stim", "word": "turnip", "stimulus": "<p id=\"stim\">TURNIP</p>", "conditions": [24, 800, "v", 24000], "internal_node_id": "0.0-153.0", "trial": 5, "time_elapsed": 915328, "serialpos": 10, "key_press": -1, "wordID": 1520, "type": "PRES_VIS", "trial_index": 207}, "uniqueid": "MTK3032:3BV8HQ2ZZX8VVS593PCEU269VLBA6W", "dateTime": 1519670826729}, {"current_trial": 208, "trialdata": {"rt": -1, "trial_type": "single-stim", "word": "stove", "stimulus": "<p id=\"stim\">STOVE</p>", "conditions": [24, 800, "v", 24000], "internal_node_id": "0.0-154.0", "trial": 5, "time_elapsed": 916973, "serialpos": 11, "key_press": -1, "wordID": 1387, "type": "PRES_VIS", "trial_index": 208}, "uniqueid": "MTK3032:3BV8HQ2ZZX8VVS593PCEU269VLBA6W", "dateTime": 1519670828374}, {"current_trial": 209, "trialdata": {"rt": -1, "trial_type": "single-stim", "word": "motel", "stimulus": "<p id=\"stim\">MOTEL</p>", "conditions": [24, 800, "v", 24000], "internal_node_id": "0.0-155.0", "trial": 5, "time_elapsed": 918714, "serialpos": 12, "key_press": -1, "wordID": 918, "type": "PRES_VIS", "trial_index": 209}, "uniqueid": "MTK3032:3BV8HQ2ZZX8VVS593PCEU269VLBA6W", "dateTime": 1519670830115}, {"current_trial": 210, "trialdata": {"rt": -1, "trial_type": "single-stim", "word": "mailman", "stimulus": "<p id=\"stim\">MAILMAN</p>", "conditions": [24, 800, "v", 24000], "internal_node_id": "0.0-156.0", "trial": 5, "time_elapsed": 920350, "serialpos": 13, "key_press": -1, "wordID": 857, "type": "PRES_VIS", "trial_index": 210}, "uniqueid": "MTK3032:3BV8HQ2ZZX8VVS593PCEU269VLBA6W", "dateTime": 1519670831751}, {"current_trial": 211, "trialdata": {"rt": -1, "trial_type": "single-stim", "word": "award", "stimulus": "<p id=\"stim\">AWARD</p>", "conditions": [24, 800, "v", 24000], "internal_node_id": "0.0-157.0", "trial": 5, "time_elapsed": 922308, "serialpos": 14, "key_press": -1, "wordID": 62, "type": "PRES_VIS", "trial_index": 211}, "uniqueid": "MTK3032:3BV8HQ2ZZX8VVS593PCEU269VLBA6W", "dateTime": 1519670833709}, {"current_trial": 212, "trialdata": {"rt": -1, "trial_type": "single-stim", "word": "witness", "stimulus": "<p id=\"stim\">WITNESS</p>", "conditions": [24, 800, "v", 24000], "internal_node_id": "0.0-158.0", "trial": 5, "time_elapsed": 923957, "serialpos": 15, "key_press": -1, "wordID": 1617, "type": "PRES_VIS", "trial_index": 212}, "uniqueid": "MTK3032:3BV8HQ2ZZX8VVS593PCEU269VLBA6W", "dateTime": 1519670835358}, {"current_trial": 213, "trialdata": {"rt": -1, "trial_type": "single-stim", "word": "crater", "stimulus": "<p id=\"stim\">CRATER</p>", "conditions": [24, 800, "v", 24000], "internal_node_id": "0.0-159.0", "trial": 5, "time_elapsed": 925656, "serialpos": 16, "key_press": -1, "wordID": 399, "type": "PRES_VIS", "trial_index": 213}, "uniqueid": "MTK3032:3BV8HQ2ZZX8VVS593PCEU269VLBA6W", "dateTime": 1519670837057}, {"current_trial": 214, "trialdata": {"rt": -1, "trial_type": "single-stim", "word": "monster", "stimulus": "<p id=\"stim\">MONSTER</p>", "conditions": [24, 800, "v", 24000], "internal_node_id": "0.0-160.0", "trial": 5, "time_elapsed": 927270, "serialpos": 17, "key_press": -1, "wordID": 911, "type": "PRES_VIS", "trial_index": 214}, "uniqueid": "MTK3032:3BV8HQ2ZZX8VVS593PCEU269VLBA6W", "dateTime": 1519670838671}, {"current_trial": 215, "trialdata": {"rt": -1, "trial_type": "single-stim", "word": "mailbox", "stimulus": "<p id=\"stim\">MAILBOX</p>", "conditions": [24, 800, "v", 24000], "internal_node_id": "0.0-161.0", "trial": 5, "time_elapsed": 929202, "serialpos": 18, "key_press": -1, "wordID": 856, "type": "PRES_VIS", "trial_index": 215}, "uniqueid": "MTK3032:3BV8HQ2ZZX8VVS593PCEU269VLBA6W", "dateTime": 1519670840604}, {"current_trial": 216, "trialdata": {"rt": -1, "trial_type": "single-stim", "word": "cookbook", "stimulus": "<p id=\"stim\">COOKBOOK</p>", "conditions": [24, 800, "v", 24000], "internal_node_id": "0.0-162.0", "trial": 5, "time_elapsed": 931040, "serialpos": 19, "key_press": -1, "wordID": 372, "type": "PRES_VIS", "trial_index": 216}, "uniqueid": "MTK3032:3BV8HQ2ZZX8VVS593PCEU269VLBA6W", "dateTime": 1519670842441}, {"current_trial": 217, "trialdata": {"rt": -1, "trial_type": "single-stim", "word": "cabin", "stimulus": "<p id=\"stim\">CABIN</p>", "conditions": [24, 800, "v", 24000], "internal_node_id": "0.0-163.0", "trial": 5, "time_elapsed": 932837, "serialpos": 20, "key_press": -1, "wordID": 210, "type": "PRES_VIS", "trial_index": 217}, "uniqueid": "MTK3032:3BV8HQ2ZZX8VVS593PCEU269VLBA6W", "dateTime": 1519670844238}, {"current_trial": 218, "trialdata": {"rt": -1, "trial_type": "single-stim", "word": "student", "stimulus": "<p id=\"stim\">STUDENT</p>", "conditions": [24, 800, "v", 24000], "internal_node_id": "0.0-164.0", "trial": 5, "time_elapsed": 934669, "serialpos": 21, "key_press": -1, "wordID": 1394, "type": "PRES_VIS", "trial_index": 218}, "uniqueid": "MTK3032:3BV8HQ2ZZX8VVS593PCEU269VLBA6W", "dateTime": 1519670846070}, {"current_trial": 219, "trialdata": {"rt": -1, "trial_type": "single-stim", "word": "teacher", "stimulus": "<p id=\"stim\">TEACHER</p>", "conditions": [24, 800, "v", 24000], "internal_node_id": "0.0-165.0", "trial": 5, "time_elapsed": 936448, "serialpos": 22, "key_press": -1, "wordID": 1439, "type": "PRES_VIS", "trial_index": 219}, "uniqueid": "MTK3032:3BV8HQ2ZZX8VVS593PCEU269VLBA6W", "dateTime": 1519670847849}, {"current_trial": 220, "trialdata": {"rt": -1, "trial_type": "single-stim", "word": "umpire", "stimulus": "<p id=\"stim\">UMPIRE</p>", "conditions": [24, 800, "v", 24000], "internal_node_id": "0.0-166.0", "trial": 5, "time_elapsed": 938210, "serialpos": 23, "key_press": -1, "wordID": 1534, "type": "PRES_VIS", "trial_index": 220}, "uniqueid": "MTK3032:3BV8HQ2ZZX8VVS593PCEU269VLBA6W", "dateTime": 1519670849611}, {"current_trial": 221, "trialdata": {"rt": -1, "trial_type": "single-stim", "stimulus": "", "internal_node_id": "0.0-167.0-0.0", "time_elapsed": 940349, "key_press": -1, "type": "PRE_RECALL_DELAY", "trial_index": 221}, "uniqueid": "MTK3032:3BV8HQ2ZZX8VVS593PCEU269VLBA6W", "dateTime": 1519670851750}, {"current_trial": 222, "trialdata": {"rt": -1000, "trial_type": "single-audio", "stimulus": "/static/audio/400Hz.wav", "internal_node_id": "0.0-168.0", "time_elapsed": 940850, "key_press": -1, "type": "PRE_RECALL_ALERT", "trial_index": 222}, "uniqueid": "MTK3032:3BV8HQ2ZZX8VVS593PCEU269VLBA6W", "dateTime": 1519670852251}, {"current_trial": 223, "trialdata": {"rt": [2049, 3849, 7560, 9457, 12105, 17248, 18753, 19977, 22169, 29137, 38953, 55033, 57153], "recwords": ["student", "teacher", "umpire", "stove", "cabin", "knife", "sword", "liver", "truck", "kitchen", "pepper", "cookbook", "mailbox"], "key_times": [465, 657, 801, 969, 1120, 1209, 1705, 2049, 2458, 2569, 2657, 2913, 3017, 3192, 3281, 3849, 4704, 4961, 5257, 5480, 5617, 5713, 6280, 6473, 6648, 7096, 7208, 7296, 7560, 7953, 8305, 8481, 8617, 8745, 9457, 10697, 10793, 11016, 11240, 11328, 12105, 13705, 14529, 15625, 16432, 16544, 16904, 17048, 17248, 17552, 17841, 18089, 18256, 18545, 18753, 19096, 19273, 19416, 19641, 19784, 19977, 20257, 20681, 20969, 21153, 21400, 22169, 26513, 26881, 26969, 27320, 27432, 27601, 27697, 29137, 29745, 29856, 29953, 30080, 30161, 30264, 34049, 35120, 38953, 53369, 53488, 53680, 53801, 54289, 54529, 54697, 54792, 55033, 55369, 55553, 55681, 55816, 56161, 56681, 56832, 57153], "trial_type": "free-recall", "conditions": [24, 800, "v", 24000], "internal_node_id": "0.0-169.0-0.0", "key_presses": [83, 84, 85, 68, 69, 78, 84, 13, 84, 69, 65, 67, 72, 69, 82, 13, 85, 77, 80, 79, 82, 69, 8, 8, 8, 73, 82, 69, 13, 83, 84, 79, 86, 69, 13, 67, 65, 66, 73, 78, 13, 75, 8, 75, 78, 73, 70, 69, 13, 83, 87, 79, 82, 68, 13, 76, 73, 86, 69, 82, 13, 84, 82, 85, 67, 75, 13, 75, 73, 84, 67, 72, 69, 78, 13, 80, 69, 80, 80, 69, 82, 8, 82, 13, 67, 79, 79, 75, 66, 79, 79, 75, 13, 77, 65, 73, 76, 66, 79, 88, 13], "trial": 5, "time_elapsed": 1000856, "type": "FREE_RECALL", "trial_index": 223}, "uniqueid": "MTK3032:3BV8HQ2ZZX8VVS593PCEU269VLBA6W", "dateTime": 1519670912259}, {"current_trial": 224, "trialdata": {"rt": 1208, "trial_type": "text", "internal_node_id": "0.0-170.0", "time_elapsed": 1004069, "key_press": 32, "type": "INSTRUCTIONS", "trial_index": 224}, "uniqueid": "MTK3032:3BV8HQ2ZZX8VVS593PCEU269VLBA6W", "dateTime": 1519670915470}, {"current_trial": 225, "trialdata": {"rt": [2260, 4564, 6915, 8899], "trial_type": "math-distractor", "key_times": [1652, 1764, 2260, 4395, 4564, 6835, 6915, 8243, 8739, 8899, 11803], "responses": ["13", "9", "7", "19"], "num2": [1, 2, 2, 5, 9], "num3": [6, 6, 1, 9, 3], "conditions": [12, 1600, "v", 12000], "internal_node_id": "0.0-171.0", "key_presses": [49, 51, 13, 57, 13, 55, 13, 49, 57, 13, 49], "trial": 6, "time_elapsed": 1018076, "type": "DISTRACTOR", "trial_index": 225, "num1": [6, 1, 4, 5, 3]}, "uniqueid": "MTK3032:3BV8HQ2ZZX8VVS593PCEU269VLBA6W", "dateTime": 1519670929477}, {"current_trial": 226, "trialdata": {"rt": -1, "trial_type": "single-stim", "stimulus": "<p id=\"stim\">10</p>", "internal_node_id": "0.0-172.0-0.0", "time_elapsed": 1021078, "key_press": -1, "trial_index": 226}, "uniqueid": "MTK3032:3BV8HQ2ZZX8VVS593PCEU269VLBA6W", "dateTime": 1519670932480}, {"current_trial": 227, "trialdata": {"rt": -1, "trial_type": "single-stim", "stimulus": "<p id=\"stim\">9</p>", "internal_node_id": "0.0-172.0-1.0", "time_elapsed": 1022081, "key_press": -1, "trial_index": 227}, "uniqueid": "MTK3032:3BV8HQ2ZZX8VVS593PCEU269VLBA6W", "dateTime": 1519670933482}, {"current_trial": 228, "trialdata": {"rt": -1, "trial_type": "single-stim", "stimulus": "<p id=\"stim\">8</p>", "internal_node_id": "0.0-172.0-2.0", "time_elapsed": 1023084, "key_press": -1, "trial_index": 228}, "uniqueid": "MTK3032:3BV8HQ2ZZX8VVS593PCEU269VLBA6W", "dateTime": 1519670934486}, {"current_trial": 229, "trialdata": {"rt": -1, "trial_type": "single-stim", "stimulus": "<p id=\"stim\">7</p>", "internal_node_id": "0.0-172.0-3.0", "time_elapsed": 1024085, "key_press": -1, "trial_index": 229}, "uniqueid": "MTK3032:3BV8HQ2ZZX8VVS593PCEU269VLBA6W", "dateTime": 1519670935486}, {"current_trial": 230, "trialdata": {"rt": -1, "trial_type": "single-stim", "stimulus": "<p id=\"stim\">6</p>", "internal_node_id": "0.0-172.0-4.0", "time_elapsed": 1025087, "key_press": -1, "trial_index": 230}, "uniqueid": "MTK3032:3BV8HQ2ZZX8VVS593PCEU269VLBA6W", "dateTime": 1519670936488}, {"current_trial": 231, "trialdata": {"rt": -1, "trial_type": "single-stim", "stimulus": "<p id=\"stim\">5</p>", "internal_node_id": "0.0-172.0-5.0", "time_elapsed": 1026089, "key_press": -1, "trial_index": 231}, "uniqueid": "MTK3032:3BV8HQ2ZZX8VVS593PCEU269VLBA6W", "dateTime": 1519670937491}, {"current_trial": 232, "trialdata": {"rt": -1, "trial_type": "single-stim", "stimulus": "<p id=\"stim\">4</p>", "internal_node_id": "0.0-172.0-6.0", "time_elapsed": 1027095, "key_press": -1, "trial_index": 232}, "uniqueid": "MTK3032:3BV8HQ2ZZX8VVS593PCEU269VLBA6W", "dateTime": 1519670938497}, {"current_trial": 233, "trialdata": {"rt": -1, "trial_type": "single-stim", "stimulus": "<p id=\"stim\">3</p>", "internal_node_id": "0.0-172.0-7.0", "time_elapsed": 1028097, "key_press": -1, "trial_index": 233}, "uniqueid": "MTK3032:3BV8HQ2ZZX8VVS593PCEU269VLBA6W", "dateTime": 1519670939498}, {"current_trial": 234, "trialdata": {"rt": -1, "trial_type": "single-stim", "stimulus": "<p id=\"stim\">2</p>", "internal_node_id": "0.0-172.0-8.0", "time_elapsed": 1029100, "key_press": -1, "trial_index": 234}, "uniqueid": "MTK3032:3BV8HQ2ZZX8VVS593PCEU269VLBA6W", "dateTime": 1519670940501}, {"current_trial": 235, "trialdata": {"rt": -1, "trial_type": "single-stim", "stimulus": "<p id=\"stim\">1</p>", "internal_node_id": "0.0-172.0-9.0", "time_elapsed": 1030101, "key_press": -1, "trial_index": 235}, "uniqueid": "MTK3032:3BV8HQ2ZZX8VVS593PCEU269VLBA6W", "dateTime": 1519670941502}, {"current_trial": 236, "trialdata": {"rt": -1, "trial_type": "single-stim", "stimulus": "<p id=\"stim\">+</p>", "internal_node_id": "0.0-173.0-0.0", "time_elapsed": 1031603, "key_press": -1, "type": "FIXATION", "trial_index": 236}, "uniqueid": "MTK3032:3BV8HQ2ZZX8VVS593PCEU269VLBA6W", "dateTime": 1519670943004}, {"current_trial": 237, "trialdata": {"rt": -1, "trial_type": "single-stim", "word": "candy", "stimulus": "<p id=\"stim\">CANDY</p>", "conditions": [12, 1600, "v", 12000], "internal_node_id": "0.0-174.0", "trial": 6, "time_elapsed": 1033206, "serialpos": 0, "key_press": -1, "wordID": 229, "type": "PRES_VIS", "trial_index": 237}, "uniqueid": "MTK3032:3BV8HQ2ZZX8VVS593PCEU269VLBA6W", "dateTime": 1519670944607}, {"current_trial": 238, "trialdata": {"rt": -1, "trial_type": "single-stim", "word": "gazelle", "stimulus": "<p id=\"stim\">GAZELLE</p>", "conditions": [12, 1600, "v", 12000], "internal_node_id": "0.0-175.0", "trial": 6, "time_elapsed": 1035841, "serialpos": 1, "key_press": -1, "wordID": 627, "type": "PRES_VIS", "trial_index": 238}, "uniqueid": "MTK3032:3BV8HQ2ZZX8VVS593PCEU269VLBA6W", "dateTime": 1519670947242}, {"current_trial": 239, "trialdata": {"rt": -1, "trial_type": "single-stim", "word": "space", "stimulus": "<p id=\"stim\">SPACE</p>", "conditions": [12, 1600, "v", 12000], "internal_node_id": "0.0-176.0", "trial": 6, "time_elapsed": 1038533, "serialpos": 2, "key_press": -1, "wordID": 1344, "type": "PRES_VIS", "trial_index": 239}, "uniqueid": "MTK3032:3BV8HQ2ZZX8VVS593PCEU269VLBA6W", "dateTime": 1519670949934}, {"current_trial": 240, "trialdata": {"rt": -1, "trial_type": "single-stim", "word": "tart", "stimulus": "<p id=\"stim\">TART</p>", "conditions": [12, 1600, "v", 12000], "internal_node_id": "0.0-177.0", "trial": 6, "time_elapsed": 1040998, "serialpos": 3, "key_press": -1, "wordID": 1435, "type": "PRES_VIS", "trial_index": 240}, "uniqueid": "MTK3032:3BV8HQ2ZZX8VVS593PCEU269VLBA6W", "dateTime": 1519670952399}, {"current_trial": 241, "trialdata": {"rt": -1, "trial_type": "single-stim", "word": "pecan", "stimulus": "<p id=\"stim\">PECAN</p>", "conditions": [12, 1600, "v", 12000], "internal_node_id": "0.0-178.0", "trial": 6, "time_elapsed": 1043645, "serialpos": 4, "key_press": -1, "wordID": 1035, "type": "PRES_VIS", "trial_index": 241}, "uniqueid": "MTK3032:3BV8HQ2ZZX8VVS593PCEU269VLBA6W", "dateTime": 1519670955046}, {"current_trial": 242, "trialdata": {"rt": -1, "trial_type": "single-stim", "word": "peach", "stimulus": "<p id=\"stim\">PEACH</p>", "conditions": [12, 1600, "v", 12000], "internal_node_id": "0.0-179.0", "trial": 6, "time_elapsed": 1046259, "serialpos": 5, "key_press": -1, "wordID": 1030, "type": "PRES_VIS", "trial_index": 242}, "uniqueid": "MTK3032:3BV8HQ2ZZX8VVS593PCEU269VLBA6W", "dateTime": 1519670957661}, {"current_trial": 243, "trialdata": {"rt": -1, "trial_type": "single-stim", "word": "actor", "stimulus": "<p id=\"stim\">ACTOR</p>", "conditions": [12, 1600, "v", 12000], "internal_node_id": "0.0-180.0", "trial": 6, "time_elapsed": 1048983, "serialpos": 6, "key_press": -1, "wordID": 4, "type": "PRES_VIS", "trial_index": 243}, "uniqueid": "MTK3032:3BV8HQ2ZZX8VVS593PCEU269VLBA6W", "dateTime": 1519670960384}, {"current_trial": 244, "trialdata": {"rt":