{"assignmentId": "3B4YI393VA34IMP0R218G7W70SHSSN", "workerId": "MTK3611", "questiondata": {"origin": "United States", "strat-rehearsal": "50", "marital": "Married/Domestic Partnership", "education": "Some college", "ethnicity": "Not Hispanic", "color_depth": 24, "distracted": "No", "wrote-notes": "No", "strat-other": "", "screen_width": 1280, "avail_screen_width": 1280, "avail_screen_height": 984, "strat-image": "83", "language": "English", "gender": "Female", "age": "48", "gender_other": "", "race": ["White"], "strat-categorize": "83", "pixel_depth": 24, "strat-spatial": "74", "strat-story": "68", "race_other": "", "screen_height": 1024}, "bonus": 0, "hitId": "3WJGKMRWVIGGMWJS7OBHHJA5S8BCDL", "counterbalance": 928, "useragent": "Mozilla/5.0 (Windows NT 6.3; Win64; x64) AppleWebKit/537.36 (KHTML, like Gecko) Chrome/64.0.3282.186 Safari/537.36", "eventdata": [{"eventtype": "initialized", "interval": 0, "value": null, "timestamp": 1520807986090}, {"eventtype": "window_resize", "interval": 0, "value": [1268, 962], "timestamp": 1520807986090}, {"eventtype": "focus", "interval": 24652, "value": "off", "timestamp": 1520808010742}, {"eventtype": "focus", "interval": 151, "value": "on", "timestamp": 1520808010893}, {"eventtype": "focus", "interval": 631779, "value": "off", "timestamp": 1520808642672}, {"eventtype": "focus", "interval": 132, "value": "on", "timestamp": 1520808642804}], "data": [{"current_trial": 0, "trialdata": {"rt": 3788, "trial_type": "text", "internal_node_id": "0.0-0.0", "time_elapsed": 3792, "key_press": 74, "type": "INSTRUCTIONS", "trial_index": 0}, "uniqueid": "MTK3611:3B4YI393VA34IMP0R218G7W70SHSSN", "dateTime": 1520808012557}, {"current_trial": 1, "trialdata": {"rt": 25425, "trial_type": "text", "internal_node_id": "0.0-1.0", "time_elapsed": 29222, "key_press": 173, "type": "INSTRUCTIONS", "trial_index": 1}, "uniqueid": "MTK3611:3B4YI393VA34IMP0R218G7W70SHSSN", "dateTime": 1520808037985}, {"current_trial": 2, "trialdata": {"rt": [24340], "trial_type": "audio-test", "responses": ["ocean"], "internal_node_id": "0.0-2.0", "time_elapsed": 53583, "type": "AUDIO_TEST", "trial_index": 2}, "uniqueid": "MTK3611:3B4YI393VA34IMP0R218G7W70SHSSN", "dateTime": 1520808062346}, {"current_trial": 3, "trialdata": {"rt": [10638], "trial_type": "audio-test", "responses": ["crystal"], "internal_node_id": "0.0-3.0", "time_elapsed": 64230, "type": "AUDIO_TEST", "trial_index": 3}, "uniqueid": "MTK3611:3B4YI393VA34IMP0R218G7W70SHSSN", "dateTime": 1520808072993}, {"current_trial": 4, "trialdata": {"rt": [7126], "trial_type": "audio-test", "responses": ["spice"], "internal_node_id": "0.0-4.0", "time_elapsed": 71366, "type": "AUDIO_TEST", "trial_index": 4}, "uniqueid": "MTK3611:3B4YI393VA34IMP0R218G7W70SHSSN", "dateTime": 1520808080129}, {"current_trial": 5, "trialdata": {"rt": 27864, "trial_type": "survey-text", "responses": "{\"Q0\":\"10:30\",\"Q1\":\"8:00\",\"Q2\":\"4\"}", "internal_node_id": "0.0-5.0", "time_elapsed": 99983, "type": "SLEEP_SURVEY", "trial_index": 5}, "uniqueid": "MTK3611:3B4YI393VA34IMP0R218G7W70SHSSN", "dateTime": 1520808108746}, {"current_trial": 6, "trialdata": {"rt": 37491, "trial_type": "text", "internal_node_id": "0.0-6.0", "time_elapsed": 138477, "key_press": 72, "type": "INSTRUCTIONS", "trial_index": 6}, "uniqueid": "MTK3611:3B4YI393VA34IMP0R218G7W70SHSSN", "dateTime": 1520808147240}, {"current_trial": 7, "trialdata": {"rt": 13371, "trial_type": "text", "internal_node_id": "0.0-7.0", "time_elapsed": 152350, "key_press": 72, "type": "INSTRUCTIONS", "trial_index": 7}, "uniqueid": "MTK3611:3B4YI393VA34IMP0R218G7W70SHSSN", "dateTime": 1520808161113}, {"current_trial": 8, "trialdata": {"rt": 10595, "trial_type": "text", "internal_node_id": "0.0-8.0", "time_elapsed": 163447, "key_press": 72, "type": "INSTRUCTIONS", "trial_index": 8}, "uniqueid": "MTK3611:3B4YI393VA34IMP0R218G7W70SHSSN", "dateTime": 1520808172210}, {"current_trial": 9, "trialdata": {"rt": [5623, 9232, 13712, 16512], "trial_type": "math-distractor", "key_times": [3792, 4095, 5623, 8079, 8295, 9232, 12273, 12649, 13712, 15944, 16512], "responses": ["18", "14", "20", "7"], "num2": [3, 6, 7, 1, 8], "num3": [7, 5, 6, 2, 1], "conditions": [18, 1200, "a", 18000], "internal_node_id": "0.0-9.0", "key_presses": [97, 104, 13, 97, 100, 13, 98, 96, 13, 103, 13], "trial": 0, "time_elapsed": 182454, "type": "DISTRACTOR", "trial_index": 9, "num1": [8, 3, 7, 4, 9]}, "uniqueid": "MTK3611:3B4YI393VA34IMP0R218G7W70SHSSN", "dateTime": 1520808191217}, {"current_trial": 10, "trialdata": {"rt": -1, "trial_type": "single-stim", "stimulus": "<p id=\"stim\">10</p>", "internal_node_id": "0.0-10.0-0.0", "time_elapsed": 185456, "key_press": -1, "trial_index": 10}, "uniqueid": "MTK3611:3B4YI393VA34IMP0R218G7W70SHSSN", "dateTime": 1520808194219}, {"current_trial": 11, "trialdata": {"rt": -1, "trial_type": "single-stim", "stimulus": "<p id=\"stim\">9</p>", "internal_node_id": "0.0-10.0-1.0", "time_elapsed": 186458, "key_press": -1, "trial_index": 11}, "uniqueid": "MTK3611:3B4YI393VA34IMP0R218G7W70SHSSN", "dateTime": 1520808195221}, {"current_trial": 12, "trialdata": {"rt": -1, "trial_type": "single-stim", "stimulus": "<p id=\"stim\">8</p>", "internal_node_id": "0.0-10.0-2.0", "time_elapsed": 187458, "key_press": -1, "trial_index": 12}, "uniqueid": "MTK3611:3B4YI393VA34IMP0R218G7W70SHSSN", "dateTime": 1520808196222}, {"current_trial": 13, "trialdata": {"rt": -1, "trial_type": "single-stim", "stimulus": "<p id=\"stim\">7</p>", "internal_node_id": "0.0-10.0-3.0", "time_elapsed": 188459, "key_press": -1, "trial_index": 13}, "uniqueid": "MTK3611:3B4YI393VA34IMP0R218G7W70SHSSN", "dateTime": 1520808197223}, {"current_trial": 14, "trialdata": {"rt": -1, "trial_type": "single-stim", "stimulus": "<p id=\"stim\">6</p>", "internal_node_id": "0.0-10.0-4.0", "time_elapsed": 189460, "key_press": -1, "trial_index": 14}, "uniqueid": "MTK3611:3B4YI393VA34IMP0R218G7W70SHSSN", "dateTime": 1520808198224}, {"current_trial": 15, "trialdata": {"rt": -1, "trial_type": "single-stim", "stimulus": "<p id=\"stim\">5</p>", "internal_node_id": "0.0-10.0-5.0", "time_elapsed": 190464, "key_press": -1, "trial_index": 15}, "uniqueid": "MTK3611:3B4YI393VA34IMP0R218G7W70SHSSN", "dateTime": 1520808199227}, {"current_trial": 16, "trialdata": {"rt": -1, "trial_type": "single-stim", "stimulus": "<p id=\"stim\">4</p>", "internal_node_id": "0.0-10.0-6.0", "time_elapsed": 191464, "key_press": -1, "trial_index": 16}, "uniqueid": "MTK3611:3B4YI393VA34IMP0R218G7W70SHSSN", "dateTime": 1520808200229}, {"current_trial": 17, "trialdata": {"rt": -1, "trial_type": "single-stim", "stimulus": "<p id=\"stim\">3</p>", "internal_node_id": "0.0-10.0-7.0", "time_elapsed": 192466, "key_press": -1, "trial_index": 17}, "uniqueid": "MTK3611:3B4YI393VA34IMP0R218G7W70SHSSN", "dateTime": 1520808201231}, {"current_trial": 18, "trialdata": {"rt": -1, "trial_type": "single-stim", "stimulus": "<p id=\"stim\">2</p>", "internal_node_id": "0.0-10.0-8.0", "time_elapsed": 193467, "key_press": -1, "trial_index": 18}, "uniqueid": "MTK3611:3B4YI393VA34IMP0R218G7W70SHSSN", "dateTime": 1520808202231}, {"current_trial": 19, "trialdata": {"rt": -1, "trial_type": "single-stim", "stimulus": "<p id=\"stim\">1</p>", "internal_node_id": "0.0-10.0-9.0", "time_elapsed": 194468, "key_press": -1, "trial_index": 19}, "uniqueid": "MTK3611:3B4YI393VA34IMP0R218G7W70SHSSN", "dateTime": 1520808203232}, {"current_trial": 20, "trialdata": {"rt": -1, "trial_type": "single-stim", "stimulus": "<p id=\"stim\">+</p>", "internal_node_id": "0.0-11.0-0.0", "time_elapsed": 195969, "key_press": -1, "type": "FIXATION", "trial_index": 20}, "uniqueid": "MTK3611:3B4YI393VA34IMP0R218G7W70SHSSN", "dateTime": 1520808204734}, {"current_trial": 21, "trialdata": {"rt": -1000, "trial_type": "single-audio", "word": "scalpel", "stimulus": "/static/audio/wordpool/SCALPEL.wav", "conditions": [18, 1200, "a", 18000], "internal_node_id": "0.0-12.0", "trial": 0, "time_elapsed": 198284, "serialpos": 0, "key_press": -1, "wordID": 1242, "type": "PRES_AUD", "trial_index": 21}, "uniqueid": "MTK3611:3B4YI393VA34IMP0R218G7W70SHSSN", "dateTime": 1520808207048}, {"current_trial": 22, "trialdata": {"rt": -1000, "trial_type": "single-audio", "word": "waiter", "stimulus": "/static/audio/wordpool/WAITER.wav", "conditions": [18, 1200, "a", 18000], "internal_node_id": "0.0-13.0", "trial": 0, "time_elapsed": 200406, "serialpos": 1, "key_press": -1, "wordID": 1579, "type": "PRES_AUD", "trial_index": 22}, "uniqueid": "MTK3611:3B4YI393VA34IMP0R218G7W70SHSSN", "dateTime": 1520808209169}, {"current_trial": 23, "trialdata": {"rt": -1000, "trial_type": "single-audio", "word": "nomad", "stimulus": "/static/audio/wordpool/NOMAD.wav", "conditions": [18, 1200, "a", 18000], "internal_node_id": "0.0-14.0", "trial": 0, "time_elapsed": 202465, "serialpos": 2, "key_press": -1, "wordID": 954, "type": "PRES_AUD", "trial_index": 23}, "uniqueid": "MTK3611:3B4YI393VA34IMP0R218G7W70SHSSN", "dateTime": 1520808211229}, {"current_trial": 24, "trialdata": {"rt": -1000, "trial_type": "single-audio", "word": "custard", "stimulus": "/static/audio/wordpool/CUSTARD.wav", "conditions": [18, 1200, "a", 18000], "internal_node_id": "0.0-15.0", "trial": 0, "time_elapsed": 204780, "serialpos": 3, "key_press": -1, "wordID": 428, "type": "PRES_AUD", "trial_index": 24}, "uniqueid": "MTK3611:3B4YI393VA34IMP0R218G7W70SHSSN", "dateTime": 1520808213543}, {"current_trial": 25, "trialdata": {"rt": -1000, "trial_type": "single-audio", "word": "hook", "stimulus": "/static/audio/wordpool/HOOK.wav", "conditions": [18, 1200, "a", 18000], "internal_node_id": "0.0-16.0", "trial": 0, "time_elapsed": 206999, "serialpos": 4, "key_press": -1, "wordID": 714, "type": "PRES_AUD", "trial_index": 25}, "uniqueid": "MTK3611:3B4YI393VA34IMP0R218G7W70SHSSN", "dateTime": 1520808215762}, {"current_trial": 26, "trialdata": {"rt": -1000, "trial_type": "single-audio", "word": "keeper", "stimulus": "/static/audio/wordpool/KEEPER.wav", "conditions": [18, 1200, "a", 18000], "internal_node_id": "0.0-17.0", "trial": 0, "time_elapsed": 209213, "serialpos": 5, "key_press": -1, "wordID": 768, "type": "PRES_AUD", "trial_index": 26}, "uniqueid": "MTK3611:3B4YI393VA34IMP0R218G7W70SHSSN", "dateTime": 1520808217976}, {"current_trial": 27, "trialdata": {"rt": -1000, "trial_type": "single-audio", "word": "antler", "stimulus": "/static/audio/wordpool/ANTLER.wav", "conditions": [18, 1200, "a", 18000], "internal_node_id": "0.0-18.0", "trial": 0, "time_elapsed": 211538, "serialpos": 6, "key_press": -1, "wordID": 28, "type": "PRES_AUD", "trial_index": 27}, "uniqueid": "MTK3611:3B4YI393VA34IMP0R218G7W70SHSSN", "dateTime": 1520808220301}, {"current_trial": 28, "trialdata": {"rt": -1000, "trial_type": "single-audio", "word": "patrol", "stimulus": "/static/audio/wordpool/PATROL.wav", "conditions": [18, 1200, "a", 18000], "internal_node_id": "0.0-19.0", "trial": 0, "time_elapsed": 213888, "serialpos": 7, "key_press": -1, "wordID": 1026, "type": "PRES_AUD", "trial_index": 28}, "uniqueid": "MTK3611:3B4YI393VA34IMP0R218G7W70SHSSN", "dateTime": 1520808222651}, {"current_trial": 29, "trialdata": {"rt": -1000, "trial_type": "single-audio", "word": "saddle", "stimulus": "/static/audio/wordpool/SADDLE.wav", "conditions": [18, 1200, "a", 18000], "internal_node_id": "0.0-20.0", "trial": 0, "time_elapsed": 216261, "serialpos": 8, "key_press": -1, "wordID": 1220, "type": "PRES_AUD", "trial_index": 29}, "uniqueid": "MTK3611:3B4YI393VA34IMP0R218G7W70SHSSN", "dateTime": 1520808225025}, {"current_trial": 30, "trialdata": {"rt": -1000, "trial_type": "single-audio", "word": "chemist", "stimulus": "/static/audio/wordpool/CHEMIST.wav", "conditions": [18, 1200, "a", 18000], "internal_node_id": "0.0-21.0", "trial": 0, "time_elapsed": 218569, "serialpos": 9, "key_press": -1, "wordID": 291, "type": "PRES_AUD", "trial_index": 30}, "uniqueid": "MTK3611:3B4YI393VA34IMP0R218G7W70SHSSN", "dateTime": 1520808227332}, {"current_trial": 31, "trialdata": {"rt": -1000, "trial_type": "single-audio", "word": "drink", "stimulus": "/static/audio/wordpool/DRINK.wav", "conditions": [18, 1200, "a", 18000], "internal_node_id": "0.0-22.0", "trial": 0, "time_elapsed": 220914, "serialpos": 10, "key_press": -1, "wordID": 497, "type": "PRES_AUD", "trial_index": 31}, "uniqueid": "MTK3611:3B4YI393VA34IMP0R218G7W70SHSSN", "dateTime": 1520808229677}, {"current_trial": 32, "trialdata": {"rt": -1000, "trial_type": "single-audio", "word": "market", "stimulus": "/static/audio/wordpool/MARKET.wav", "conditions": [18, 1200, "a", 18000], "internal_node_id": "0.0-23.0", "trial": 0, "time_elapsed": 222994, "serialpos": 11, "key_press": -1, "wordID": 870, "type": "PRES_AUD", "trial_index": 32}, "uniqueid": "MTK3611:3B4YI393VA34IMP0R218G7W70SHSSN", "dateTime": 1520808231757}, {"current_trial": 33, "trialdata": {"rt": -1000, "trial_type": "single-audio", "word": "carriage", "stimulus": "/static/audio/wordpool/CARRIAGE.wav", "conditions": [18, 1200, "a", 18000], "internal_node_id": "0.0-24.0", "trial": 0, "time_elapsed": 225321, "serialpos": 12, "key_press": -1, "wordID": 247, "type": "PRES_AUD", "trial_index": 33}, "uniqueid": "MTK3611:3B4YI393VA34IMP0R218G7W70SHSSN", "dateTime": 1520808234084}, {"current_trial": 34, "trialdata": {"rt": -1000, "trial_type": "single-audio", "word": "pigeon", "stimulus": "/static/audio/wordpool/PIGEON.wav", "conditions": [18, 1200, "a", 18000], "internal_node_id": "0.0-25.0", "trial": 0, "time_elapsed": 227515, "serialpos": 13, "key_press": -1, "wordID": 1064, "type": "PRES_AUD", "trial_index": 34}, "uniqueid": "MTK3611:3B4YI393VA34IMP0R218G7W70SHSSN", "dateTime": 1520808236278}, {"current_trial": 35, "trialdata": {"rt": -1000, "trial_type": "single-audio", "word": "barrel", "stimulus": "/static/audio/wordpool/BARREL.wav", "conditions": [18, 1200, "a", 18000], "internal_node_id": "0.0-26.0", "trial": 0, "time_elapsed": 229685, "serialpos": 14, "key_press": -1, "wordID": 90, "type": "PRES_AUD", "trial_index": 35}, "uniqueid": "MTK3611:3B4YI393VA34IMP0R218G7W70SHSSN", "dateTime": 1520808238448}, {"current_trial": 36, "trialdata": {"rt": -1000, "trial_type": "single-audio", "word": "bucket", "stimulus": "/static/audio/wordpool/BUCKET.wav", "conditions": [18, 1200, "a", 18000], "internal_node_id": "0.0-27.0", "trial": 0, "time_elapsed": 231712, "serialpos": 15, "key_press": -1, "wordID": 183, "type": "PRES_AUD", "trial_index": 36}, "uniqueid": "MTK3611:3B4YI393VA34IMP0R218G7W70SHSSN", "dateTime": 1520808240475}, {"current_trial": 37, "trialdata": {"rt": -1000, "trial_type": "single-audio", "word": "tractor", "stimulus": "/static/audio/wordpool/TRACTOR.wav", "conditions": [18, 1200, "a", 18000], "internal_node_id": "0.0-28.0", "trial": 0, "time_elapsed": 233938, "serialpos": 16, "key_press": -1, "wordID": 1492, "type": "PRES_AUD", "trial_index": 37}, "uniqueid": "MTK3611:3B4YI393VA34IMP0R218G7W70SHSSN", "dateTime": 1520808242701}, {"current_trial": 38, "trialdata": {"rt": -1000, "trial_type": "single-audio", "word": "stove", "stimulus": "/static/audio/wordpool/STOVE.wav", "conditions": [18, 1200, "a", 18000], "internal_node_id": "0.0-29.0", "trial": 0, "time_elapsed": 236077, "serialpos": 17, "key_press": -1, "wordID": 1387, "type": "PRES_AUD", "trial_index": 38}, "uniqueid": "MTK3611:3B4YI393VA34IMP0R218G7W70SHSSN", "dateTime": 1520808244840}, {"current_trial": 39, "trialdata": {"rt": -1, "trial_type": "single-stim", "stimulus": "", "internal_node_id": "0.0-30.0-0.0", "time_elapsed": 237418, "key_press": -1, "type": "PRE_RECALL_DELAY", "trial_index": 39}, "uniqueid": "MTK3611:3B4YI393VA34IMP0R218G7W70SHSSN", "dateTime": 1520808246181}, {"current_trial": 40, "trialdata": {"rt": -1000, "trial_type": "single-audio", "stimulus": "/static/audio/400Hz.wav", "internal_node_id": "0.0-31.0", "time_elapsed": 237920, "key_press": -1, "type": "PRE_RECALL_ALERT", "trial_index": 40}, "uniqueid": "MTK3611:3B4YI393VA34IMP0R218G7W70SHSSN", "dateTime": 1520808246683}, {"current_trial": 41, "trialdata": {"rt": [3962, 6417, 9363, 13682, 17435, 19514, 23602, 55715], "recwords": ["scalpel", "carriage", "pigeon", "stove", "bucket", "tractor", "waiter", ""], "key_times": [1363, 1642, 1906, 2083, 2482, 2721, 3177, 3962, 4689, 4938, 5170, 5330, 5482, 5650, 5882, 6145, 6417, 6929, 7282, 7538, 7802, 8121, 8499, 9363, 12578, 12747, 12914, 13211, 13427, 13682, 16210, 16361, 16705, 16882, 17042, 17233, 17435, 17994, 18218, 18449, 18706, 18922, 19058, 19290, 19514, 21834, 22113, 22522, 22906, 23185, 23378, 23602, 55715], "trial_type": "free-recall", "conditions": [18, 1200, "a", 18000], "internal_node_id": "0.0-32.0-0.0", "key_presses": [83, 67, 65, 76, 80, 69, 76, 13, 67, 65, 82, 82, 73, 65, 71, 69, 13, 80, 73, 71, 69, 79, 78, 13, 83, 84, 79, 86, 69, 13, 66, 85, 67, 75, 69, 84, 13, 84, 82, 65, 67, 84, 79, 82, 13, 87, 65, 73, 84, 69, 82, 13, 13], "trial": 0, "time_elapsed": 297925, "type": "FREE_RECALL", "trial_index": 41}, "uniqueid": "MTK3611:3B4YI393VA34IMP0R218G7W70SHSSN", "dateTime": 1520808306692}, {"current_trial": 42, "trialdata": {"rt": 3356, "trial_type": "text", "internal_node_id": "0.0-33.0", "time_elapsed": 303286, "key_press": 74, "type": "INSTRUCTIONS", "trial_index": 42}, "uniqueid": "MTK3611:3B4YI393VA34IMP0R218G7W70SHSSN", "dateTime": 1520808312049}, {"current_trial": 43, "trialdata": {"rt": [4004, 8556, 13533, 16269], "trial_type": "math-distractor", "key_times": [3045, 3204, 4004, 7252, 7588, 8556, 12820, 13093, 13533, 15565, 15885, 16269], "responses": ["20", "17", "15", "17"], "num2": [3, 8, 3, 8, 7], "num3": [9, 6, 4, 2, 4], "conditions": [18, 1200, "a", 18000], "internal_node_id": "0.0-34.0", "key_presses": [98, 96, 13, 97, 103, 13, 97, 101, 13, 97, 103, 13], "trial": 1, "time_elapsed": 323289, "type": "DISTRACTOR", "trial_index": 43, "num1": [8, 3, 8, 7, 2]}, "uniqueid": "MTK3611:3B4YI393VA34IMP0R218G7W70SHSSN", "dateTime": 1520808332052}, {"current_trial": 44, "trialdata": {"rt": -1, "trial_type": "single-stim", "stimulus": "<p id=\"stim\">10</p>", "internal_node_id": "0.0-35.0-0.0", "time_elapsed": 326289, "key_press": -1, "trial_index": 44}, "uniqueid": "MTK3611:3B4YI393VA34IMP0R218G7W70SHSSN", "dateTime": 1520808335052}, {"current_trial": 45, "trialdata": {"rt": -1, "trial_type": "single-stim", "stimulus": "<p id=\"stim\">9</p>", "internal_node_id": "0.0-35.0-1.0", "time_elapsed": 327290, "key_press": -1, "trial_index": 45}, "uniqueid": "MTK3611:3B4YI393VA34IMP0R218G7W70SHSSN", "dateTime": 1520808336053}, {"current_trial": 46, "trialdata": {"rt": -1, "trial_type": "single-stim", "stimulus": "<p id=\"stim\">8</p>", "internal_node_id": "0.0-35.0-2.0", "time_elapsed": 328290, "key_press": -1, "trial_index": 46}, "uniqueid": "MTK3611:3B4YI393VA34IMP0R218G7W70SHSSN", "dateTime": 1520808337055}, {"current_trial": 47, "trialdata": {"rt": -1, "trial_type": "single-stim", "stimulus": "<p id=\"stim\">7</p>", "internal_node_id": "0.0-35.0-3.0", "time_elapsed": 329291, "key_press": -1, "trial_index": 47}, "uniqueid": "MTK3611:3B4YI393VA34IMP0R218G7W70SHSSN", "dateTime": 1520808338056}, {"current_trial": 48, "trialdata": {"rt": -1, "trial_type": "single-stim", "stimulus": "<p id=\"stim\">6</p>", "internal_node_id": "0.0-35.0-4.0", "time_elapsed": 330293, "key_press": -1, "trial_index": 48}, "uniqueid": "MTK3611:3B4YI393VA34IMP0R218G7W70SHSSN", "dateTime": 1520808339057}, {"current_trial": 49, "trialdata": {"rt": -1, "trial_type": "single-stim", "stimulus": "<p id=\"stim\">5</p>", "internal_node_id": "0.0-35.0-5.0", "time_elapsed": 331294, "key_press": -1, "trial_index": 49}, "uniqueid": "MTK3611:3B4YI393VA34IMP0R218G7W70SHSSN", "dateTime": 1520808340058}, {"current_trial": 50, "trialdata": {"rt": -1, "trial_type": "single-stim", "stimulus": "<p id=\"stim\">4</p>", "internal_node_id": "0.0-35.0-6.0", "time_elapsed": 332295, "key_press": -1, "trial_index": 50}, "uniqueid": "MTK3611:3B4YI393VA34IMP0R218G7W70SHSSN", "dateTime": 1520808341058}, {"current_trial": 51, "trialdata": {"rt": -1, "trial_type": "single-stim", "stimulus": "<p id=\"stim\">3</p>", "internal_node_id": "0.0-35.0-7.0", "time_elapsed": 333296, "key_press": -1, "trial_index": 51}, "uniqueid": "MTK3611:3B4YI393VA34IMP0R218G7W70SHSSN", "dateTime": 1520808342060}, {"current_trial": 52, "trialdata": {"rt": -1, "trial_type": "single-stim", "stimulus": "<p id=\"stim\">2</p>", "internal_node_id": "0.0-35.0-8.0", "time_elapsed": 334297, "key_press": -1, "trial_index": 52}, "uniqueid": "MTK3611:3B4YI393VA34IMP0R218G7W70SHSSN", "dateTime": 1520808343060}, {"current_trial": 53, "trialdata": {"rt": -1, "trial_type": "single-stim", "stimulus": "<p id=\"stim\">1</p>", "internal_node_id": "0.0-35.0-9.0", "time_elapsed": 335298, "key_press": -1, "trial_index": 53}, "uniqueid": "MTK3611:3B4YI393VA34IMP0R218G7W70SHSSN", "dateTime": 1520808344062}, {"current_trial": 54, "trialdata": {"rt": -1, "trial_type": "single-stim", "stimulus": "<p id=\"stim\">+</p>", "internal_node_id": "0.0-36.0-0.0", "time_elapsed": 336799, "key_press": -1, "type": "FIXATION", "trial_index": 54}, "uniqueid": "MTK3611:3B4YI393VA34IMP0R218G7W70SHSSN", "dateTime": 1520808345563}, {"current_trial": 55, "trialdata": {"rt": -1000, "trial_type": "single-audio", "word": "switch", "stimulus": "/static/audio/wordpool/SWITCH.wav", "conditions": [18, 1200, "a", 18000], "internal_node_id": "0.0-37.0", "trial": 1, "time_elapsed": 338821, "serialpos": 0, "key_press": -1, "wordID": 1421, "type": "PRES_AUD", "trial_index": 55}, "uniqueid": "MTK3611:3B4YI393VA34IMP0R218G7W70SHSSN", "dateTime": 1520808347584}, {"current_trial": 56, "trialdata": {"rt": -1000, "trial_type": "single-audio", "word": "scribble", "stimulus": "/static/audio/wordpool/SCRIBBLE.wav", "conditions": [18, 1200, "a", 18000], "internal_node_id": "0.0-38.0", "trial": 1, "time_elapsed": 340993, "serialpos": 1, "key_press": -1, "wordID": 1255, "type": "PRES_AUD", "trial_index": 56}, "uniqueid": "MTK3611:3B4YI393VA34IMP0R218G7W70SHSSN", "dateTime": 1520808349756}, {"current_trial": 57, "trialdata": {"rt": -1000, "trial_type": "single-audio", "word": "tribe", "stimulus": "/static/audio/wordpool/TRIBE.wav", "conditions": [18, 1200, "a", 18000], "internal_node_id": "0.0-39.0", "trial": 1, "time_elapsed": 343122, "serialpos": 2, "key_press": -1, "wordID": 1504, "type": "PRES_AUD", "trial_index": 57}, "uniqueid": "MTK3611:3B4YI393VA34IMP0R218G7W70SHSSN", "dateTime": 1520808351885}, {"current_trial": 58, "trialdata": {"rt": -1000, "trial_type": "single-audio", "word": "peach", "stimulus": "/static/audio/wordpool/PEACH.wav", "conditions": [18, 1200, "a", 18000], "internal_node_id": "0.0-40.0", "trial": 1, "time_elapsed": 345235, "serialpos": 3, "key_press": -1, "wordID": 1030, "type": "PRES_AUD", "trial_index": 58}, "uniqueid": "MTK3611:3B4YI393VA34IMP0R218G7W70SHSSN", "dateTime": 1520808353998}, {"current_trial": 59, "trialdata": {"rt": -1000, "trial_type": "single-audio", "word": "cashew", "stimulus": "/static/audio/wordpool/CASHEW.wav", "conditions": [18, 1200, "a", 18000], "internal_node_id": "0.0-41.0", "trial": 1, "time_elapsed": 347435, "serialpos": 4, "key_press": -1, "wordID": 252, "type": "PRES_AUD", "trial_index": 59}, "uniqueid": "MTK3611:3B4YI393VA34IMP0R218G7W70SHSSN", "dateTime": 1520808356198}, {"current_trial": 60, "trialdata": {"rt": -1000, "trial_type": "single-audio", "word": "icing", "stimulus": "/static/audio/wordpool/ICING.wav", "conditions": [18, 1200, "a", 18000], "internal_node_id": "0.0-42.0", "trial": 1, "time_elapsed": 349562, "serialpos": 5, "key_press": -1, "wordID": 731, "type": "PRES_AUD", "trial_index": 60}, "uniqueid": "MTK3611:3B4YI393VA34IMP0R218G7W70SHSSN", "dateTime": 1520808358325}, {"current_trial": 61, "trialdata": {"rt": -1000, "trial_type": "single-audio", "word": "salad", "stimulus": "/static/audio/wordpool/SALAD.wav", "conditions": [18, 1200, "a", 18000], "internal_node_id": "0.0-43.0", "trial": 1, "time_elapsed": 351670, "serialpos": 6, "key_press": -1, "wordID": 1223, "type": "PRES_AUD", "trial_index": 61}, "uniqueid": "MTK3611:3B4YI393VA34IMP0R218G7W70SHSSN", "dateTime": 1520808360433}, {"current_trial": 62, "trialdata": {"rt": -1000, "trial_type": "single-audio", "word": "paper", "stimulus": "/static/audio/wordpool/PAPER.wav", "conditions": [18, 1200, "a", 18000], "internal_node_id": "0.0-44.0", "trial": 1, "time_elapsed": 353827, "serialpos": 7, "key_press": -1, "wordID": 1010, "type": "PRES_AUD", "trial_index": 62}, "uniqueid": "MTK3611:3B4YI393VA34IMP0R218G7W70SHSSN", "dateTime": 1520808362590}, {"current_trial": 63, "trialdata": {"rt": -1000, "trial_type": "single-audio", "word": "journal", "stimulus": "/static/audio/wordpool/JOURNAL.wav", "conditions": [18, 1200, "a", 18000], "internal_node_id": "0.0-45.0", "trial": 1, "time_elapsed": 355849, "serialpos": 8, "key_press": -1, "wordID": 759, "type": "PRES_AUD", "trial_index": 63}, "uniqueid": "MTK3611:3B4YI393VA34IMP0R218G7W70SHSSN", "dateTime": 1520808364612}, {"current_trial": 64, "trialdata": {"rt": -1000, "trial_type": "single-audio", "word": "clock", "stimulus": "/static/audio/wordpool/CLOCK.wav", "conditions": [18, 1200, "a", 18000], "internal_node_id": "0.0-46.0", "trial": 1, "time_elapsed": 358010, "serialpos": 9, "key_press": -1, "wordID": 324, "type": "PRES_AUD", "trial_index": 64}, "uniqueid": "MTK3611:3B4YI393VA34IMP0R218G7W70SHSSN", "dateTime": 1520808366773}, {"current_trial": 65, "trialdata": {"rt": -1000, "trial_type": "single-audio", "word": "patient", "stimulus": "/static/audio/wordpool/PATIENT.wav", "conditions": [18, 1200, "a", 18000], "internal_node_id": "0.0-47.0", "trial": 1, "time_elapsed": 360131, "serialpos": 10, "key_press": -1, "wordID": 1023, "type": "PRES_AUD", "trial_index": 65}, "uniqueid": "MTK3611:3B4YI393VA34IMP0R218G7W70SHSSN", "dateTime": 1520808368894}, {"current_trial": 66, "trialdata": {"rt": -1000, "trial_type": "single-audio", "word": "kitchen", "stimulus": "/static/audio/wordpool/KITCHEN.wav", "conditions": [18, 1200, "a", 18000], "internal_node_id": "0.0-48.0", "trial": 1, "time_elapsed": 362307, "serialpos": 11, "key_press": -1, "wordID": 777, "type": "PRES_AUD", "trial_index": 66}, "uniqueid": "MTK3611:3B4YI393VA34IMP0R218G7W70SHSSN", "dateTime": 1520808371070}, {"current_trial": 67, "trialdata": {"rt": -1000, "trial_type": "single-audio", "word": "drill", "stimulus": "/static/audio/wordpool/DRILL.wav", "conditions": [18, 1200, "a", 18000], "internal_node_id": "0.0-49.0", "trial": 1, "time_elapsed": 364528, "serialpos": 12, "key_press": -1, "wordID": 496, "type": "PRES_AUD", "trial_index": 67}, "uniqueid": "MTK3611:3B4YI393VA34IMP0R218G7W70SHSSN", "dateTime": 1520808373291}, {"current_trial": 68, "trialdata": {"rt": -1000, "trial_type": "single-audio", "word": "lightning", "stimulus": "/static/audio/wordpool/LIGHTNING.wav", "conditions": [18, 1200, "a", 18000], "internal_node_id": "0.0-50.0", "trial": 1, "time_elapsed": 366781, "serialpos": 13, "key_press": -1, "wordID": 819, "type": "PRES_AUD", "trial_index": 68}, "uniqueid": "MTK3611:3B4YI393VA34IMP0R218G7W70SHSSN", "dateTime": 1520808375549}, {"current_trial": 69, "trialdata": {"rt": -1000, "trial_type": "single-audio", "word": "lace", "stimulus": "/static/audio/wordpool/LACE.wav", "conditions": [18, 1200, "a", 18000], "internal_node_id": "0.0-51.0", "trial": 1, "time_elapsed": 369184, "serialpos": 14, "key_press": -1, "wordID": 791, "type": "PRES_AUD", "trial_index": 69}, "uniqueid": "MTK3611:3B4YI393VA34IMP0R218G7W70SHSSN", "dateTime": 1520808377947}, {"current_trial": 70, "trialdata": {"rt": -1000, "trial_type": "single-audio", "word": "curtain", "stimulus": "/static/audio/wordpool/CURTAIN.wav", "conditions": [18, 1200, "a", 18000], "internal_node_id": "0.0-52.0", "trial": 1, "time_elapsed": 371190, "serialpos": 15, "key_press": -1, "wordID": 426, "type": "PRES_AUD", "trial_index": 70}, "uniqueid": "MTK3611:3B4YI393VA34IMP0R218G7W70SHSSN", "dateTime": 1520808379953}, {"current_trial": 71, "trialdata": {"rt": -1000, "trial_type": "single-audio", "word": "award", "stimulus": "/static/audio/wordpool/AWARD.wav", "conditions": [18, 1200, "a", 18000], "internal_node_id": "0.0-53.0", "trial": 1, "time_elapsed": 373286, "serialpos": 16, "key_press": -1, "wordID": 62, "type": "PRES_AUD", "trial_index": 71}, "uniqueid": "MTK3611:3B4YI393VA34IMP0R218G7W70SHSSN", "dateTime": 1520808382049}, {"current_trial": 72, "trialdata": {"rt": -1000, "trial_type": "single-audio", "word": "friend", "stimulus": "/static/audio/wordpool/FRIEND.wav", "conditions": [18, 1200, "a", 18000], "internal_node_id": "0.0-54.0", "trial": 1, "time_elapsed": 375365, "serialpos": 17, "key_press": -1, "wordID": 605, "type": "PRES_AUD", "trial_index": 72}, "uniqueid": "MTK3611:3B4YI393VA34IMP0R218G7W70SHSSN", "dateTime": 1520808384128}, {"current_trial": 73, "trialdata": {"rt": -1, "trial_type": "single-stim", "stimulus": "", "internal_node_id": "0.0-55.0-0.0", "time_elapsed": 376728, "key_press": -1, "type": "PRE_RECALL_DELAY", "trial_index": 73}, "uniqueid": "MTK3611:3B4YI393VA34IMP0R218G7W70SHSSN", "dateTime": 1520808385491}, {"current_trial": 74, "trialdata": {"rt": -1000, "trial_type": "single-audio", "stimulus": "/static/audio/400Hz.wav", "internal_node_id": "0.0-56.0", "time_elapsed": 377229, "key_press": -1, "type": "PRE_RECALL_ALERT", "trial_index": 74}, "uniqueid": "MTK3611:3B4YI393VA34IMP0R218G7W70SHSSN", "dateTime": 1520808385992}, {"current_trial": 75, "trialdata": {"rt": [2293, 4997, 7389, 9078, 11582, 14086, 17798, 19724, 22916, 45764, 48789, 54580], "recwords": ["lace", "curtain", "award", "friend", "cashew", "kitchen", "lace", "curtain", "friend", "paper", "journal", "scribble"], "key_times": [1198, 1485, 1854, 2109, 2293, 3245, 3477, 3605, 3885, 4133, 4293, 4517, 4997, 5958, 6229, 6518, 6749, 7062, 7389, 7997, 8221, 8389, 8582, 8702, 8878, 9078, 10173, 10389, 10621, 10773, 10942, 11326, 11582, 12221, 12509, 12887, 13246, 13366, 13583, 13774, 14086, 16445, 16661, 16917, 17141, 17798, 18293, 18453, 18677, 18916, 19181, 19269, 19477, 19724, 21894, 22109, 22245, 22453, 22574, 22765, 22916, 44158, 44477, 44597, 44892, 45077, 45764, 46949, 47324, 47549, 47685, 47844, 48013, 48437, 48789, 52734, 53077, 53380, 53549, 53780, 53949, 54101, 54302, 54580], "trial_type": "free-recall", "conditions": [18, 1200, "a", 18000], "internal_node_id": "0.0-57.0-0.0", "key_presses": [76, 65, 67, 69, 13, 67, 85, 82, 84, 65, 73, 78, 13, 65, 87, 65, 82, 68, 13, 70, 82, 73, 69, 78, 68, 13, 67, 65, 83, 72, 69, 87, 13, 75, 73, 84, 67, 72, 69, 78, 13, 76, 65, 67, 69, 13, 67, 85, 82, 84, 65, 73, 78, 13, 70, 82, 73, 69, 78, 68, 13, 80, 65, 80, 69, 82, 13, 74, 79, 85, 82, 78, 65, 76, 13, 83, 67, 82, 73, 66, 66, 76, 69, 13], "trial": 1, "time_elapsed": 437231, "type": "FREE_RECALL", "trial_index": 75}, "uniqueid": "MTK3611:3B4YI393VA34IMP0R218G7W70SHSSN", "dateTime": 1520808445997}, {"current_trial": 76, "trialdata": {"rt": 2872, "trial_type": "text", "internal_node_id": "0.0-58.0", "time_elapsed": 442116, "key_press": 74, "type": "INSTRUCTIONS", "trial_index": 76}, "uniqueid": "MTK3611:3B4YI393VA34IMP0R218G7W70SHSSN", "dateTime": 1520808450879}, {"current_trial": 77, "trialdata": {"rt": [3414, 5526, 7989, 10285, 13269, 15662, 18430, 21271], "trial_type": "math-distractor", "key_times": [3039, 3414, 4813, 5141, 5526, 7621, 7989, 9615, 9901, 10285, 12670, 12854, 13269, 15006, 15205, 15662, 17654, 17949, 18430, 20415, 20775, 21271], "responses": ["8", "18", "7", "17", "22", "10", "16", "15"], "num2": [1, 5, 2, 8, 8, 7, 7, 5, 5], "num3": [2, 8, 4, 6, 5, 1, 3, 4, 7], "conditions": [24, 1600, "a", 24000], "internal_node_id": "0.0-59.0", "key_presses": [104, 13, 97, 104, 13, 103, 13, 97, 103, 13, 98, 98, 13, 97, 96, 13, 97, 102, 13, 97, 101, 13], "trial": 2, "time_elapsed": 467120, "type": "DISTRACTOR", "trial_index": 77, "num1": [5, 5, 1, 3, 9, 2, 6, 6, 7]}, "uniqueid": "MTK3611:3B4YI393VA34IMP0R218G7W70SHSSN", "dateTime": 1520808475883}, {"current_trial": 78, "trialdata": {"rt": -1, "trial_type": "single-stim", "stimulus": "<p id=\"stim\">10</p>", "internal_node_id": "0.0-60.0-0.0", "time_elapsed": 470120, "key_press": -1, "trial_index": 78}, "uniqueid": "MTK3611:3B4YI393VA34IMP0R218G7W70SHSSN", "dateTime": 1520808478884}, {"current_trial": 79, "trialdata": {"rt": -1, "trial_type": "single-stim", "stimulus": "<p id=\"stim\">9</p>", "internal_node_id": "0.0-60.0-1.0", "time_elapsed": 471121, "key_press": -1, "trial_index": 79}, "uniqueid": "MTK3611:3B4YI393VA34IMP0R218G7W70SHSSN", "dateTime": 1520808479885}, {"current_trial": 80, "trialdata": {"rt": -1, "trial_type": "single-stim", "stimulus": "<p id=\"stim\">8</p>", "internal_node_id": "0.0-60.0-2.0", "time_elapsed": 472122, "key_press": -1, "trial_index": 80}, "uniqueid": "MTK3611:3B4YI393VA34IMP0R218G7W70SHSSN", "dateTime": 1520808480885}, {"current_trial": 81, "trialdata": {"rt": -1, "trial_type": "single-stim", "stimulus": "<p id=\"stim\">7</p>", "internal_node_id": "0.0-60.0-3.0", "time_elapsed": 473123, "key_press": -1, "trial_index": 81}, "uniqueid": "MTK3611:3B4YI393VA34IMP0R218G7W70SHSSN", "dateTime": 1520808481886}, {"current_trial": 82, "trialdata": {"rt": -1, "trial_type": "single-stim", "stimulus": "<p id=\"stim\">6</p>", "internal_node_id": "0.0-60.0-4.0", "time_elapsed": 474124, "key_press": -1, "trial_index": 82}, "uniqueid": "MTK3611:3B4YI393VA34IMP0R218G7W70SHSSN", "dateTime": 1520808482887}, {"current_trial": 83, "trialdata": {"rt": -1, "trial_type": "single-stim", "stimulus": "<p id=\"stim\">5</p>", "internal_node_id": "0.0-60.0-5.0", "time_elapsed": 475125, "key_press": -1, "trial_index": 83}, "uniqueid": "MTK3611:3B4YI393VA34IMP0R218G7W70SHSSN", "dateTime": 1520808483888}, {"current_trial": 84, "trialdata": {"rt": -1, "trial_type": "single-stim", "stimulus": "<p id=\"stim\">4</p>", "internal_node_id": "0.0-60.0-6.0", "time_elapsed": 476125, "key_press": -1, "trial_index": 84}, "uniqueid": "MTK3611:3B4YI393VA34IMP0R218G7W70SHSSN", "dateTime": 1520808484888}, {"current_trial": 85, "trialdata": {"rt": -1, "trial_type": "single-stim", "stimulus": "<p id=\"stim\">3</p>", "internal_node_id": "0.0-60.0-7.0", "time_elapsed": 477127, "key_press": -1, "trial_index": 85}, "uniqueid": "MTK3611:3B4YI393VA34IMP0R218G7W70SHSSN", "dateTime": 1520808485890}, {"current_trial": 86, "trialdata": {"rt": -1, "trial_type": "single-stim", "stimulus": "<p id=\"stim\">2</p>", "internal_node_id": "0.0-60.0-8.0", "time_elapsed": 478128, "key_press": -1, "trial_index": 86}, "uniqueid": "MTK3611:3B4YI393VA34IMP0R218G7W70SHSSN", "dateTime": 1520808486891}, {"current_trial": 87, "trialdata": {"rt": -1, "trial_type": "single-stim", "stimulus": "<p id=\"stim\">1</p>", "internal_node_id": "0.0-60.0-9.0", "time_elapsed": 479129, "key_press": -1, "trial_index": 87}, "uniqueid": "MTK3611:3B4YI393VA34IMP0R218G7W70SHSSN", "dateTime": 1520808487892}, {"current_trial": 88, "trialdata": {"rt": -1, "trial_type": "single-stim", "stimulus": "<p id=\"stim\">+</p>", "internal_node_id": "0.0-61.0-0.0", "time_elapsed": 480629, "key_press": -1, "type": "FIXATION", "trial_index": 88}, "uniqueid": "MTK3611:3B4YI393VA34IMP0R218G7W70SHSSN", "dateTime": 1520808489392}, {"current_trial": 89, "trialdata": {"rt": -1000, "trial_type": "single-audio", "word": "film", "stimulus": "/static/audio/wordpool/FILM.wav", "conditions": [24, 1600, "a", 24000], "internal_node_id": "0.0-62.0", "trial": 2, "time_elapsed": 483380, "serialpos": 0, "key_press": -1, "wordID": 564, "type": "PRES_AUD", "trial_index": 89}, "uniqueid": "MTK3611:3B4YI393VA34IMP0R218G7W70SHSSN", "dateTime": 1520808492143}, {"current_trial": 90, "trialdata": {"rt": -1000, "trial_type": "single-audio", "word": "mattress", "stimulus": "/static/audio/wordpool/MATTRESS.wav", "conditions": [24, 1600, "a", 24000], "internal_node_id": "0.0-63.0", "trial": 2, "time_elapsed": 485961, "serialpos": 1, "key_press": -1, "wordID": 878, "type": "PRES_AUD", "trial_index": 90}, "uniqueid": "MTK3611:3B4YI393VA34IMP0R218G7W70SHSSN", "dateTime": 1520808494724}, {"current_trial": 91, "trialdata": {"rt": -1000, "trial_type": "single-audio", "word": "sandwich", "stimulus": "/static/audio/wordpool/SANDWICH.wav", "conditions": [24, 1600, "a", 24000], "internal_node_id": "0.0-64.0", "trial": 2, "time_elapsed": 488451, "serialpos": 2, "key_press": -1, "wordID": 1231, "type": "PRES_AUD", "trial_index": 91}, "uniqueid": "MTK3611:3B4YI393VA34IMP0R218G7W70SHSSN", "dateTime": 1520808497214}, {"current_trial": 92, "trialdata": {"rt": -1000, "trial_type": "single-audio", "word": "scarecrow", "stimulus": "/static/audio/wordpool/SCARECROW.wav", "conditions": [24, 1600, "a", 24000], "internal_node_id": "0.0-65.0", "trial": 2, "time_elapsed": 490895, "serialpos": 3, "key_press": -1, "wordID": 1244, "type": "PRES_AUD", "trial_index": 92}, "uniqueid": "MTK3611:3B4YI393VA34IMP0R218G7W70SHSSN", "dateTime": 1520808499658}, {"current_trial": 93, "trialdata": {"rt": -1000, "trial_type": "single-audio", "word": "beast", "stimulus": "/static/audio/wordpool/BEAST.wav", "conditions": [24, 1600, "a", 24000], "internal_node_id": "0.0-66.0", "trial": 2, "time_elapsed": 493666, "serialpos": 4, "key_press": -1, "wordID": 107, "type": "PRES_AUD", "trial_index": 93}, "uniqueid": "MTK3611:3B4YI393VA34IMP0R218G7W70SHSSN", "dateTime": 1520808502429}, {"current_trial": 94, "trialdata": {"rt": -1000, "trial_type": "single-audio", "word": "playground", "stimulus": "/static/audio/wordpool/PLAYGROUND.wav", "conditions": [24, 1600, "a", 24000], "internal_node_id": "0.0-67.0", "trial": 2, "time_elapsed": 496156, "serialpos": 5, "key_press": -1, "wordID": 1086, "type": "PRES_AUD", "trial_index": 94}, "uniqueid": "MTK3611:3B4YI393VA34IMP0R218G7W70SHSSN", "dateTime": 1520808504919}, {"current_trial": 95, "trialdata": {"rt": -1000, "trial_type": "single-audio", "word": "balloon", "stimulus": "/static/audio/wordpool/BALLOON.wav", "conditions": [24, 1600, "a", 24000], "internal_node_id": "0.0-68.0", "trial": 2, "time_elapsed": 498758, "serialpos": 6, "key_press": -1, "wordID": 74, "type": "PRES_AUD", "trial_index": 95}, "uniqueid": "MTK3611:3B4YI393VA34IMP0R218G7W70SHSSN", "dateTime": 1520808507521}, {"current_trial": 96, "trialdata": {"rt": -1000, "trial_type": "single-audio", "word": "beaver", "stimulus": "/static/audio/wordpool/BEAVER.wav", "conditions": [24, 1600, "a", 24000], "internal_node_id": "0.0-69.0", "trial": 2, "time_elapsed": 501336, "serialpos": 7, "key_press": -1, "wordID": 108, "type": "PRES_AUD", "trial_index": 96}, "uniqueid": "MTK3611:3B4YI393VA34IMP0R218G7W70SHSSN", "dateTime": 1520808510099}, {"current_trial": 97, "trialdata": {"rt": -1000, "trial_type": "single-audio", "word": "chipmunk", "stimulus": "/static/audio/wordpool/CHIPMUNK.wav", "conditions": [24, 1600, "a", 24000], "internal_node_id": "0.0-70.0", "trial": 2, "time_elapsed": 503778, "serialpos": 8, "key_press": -1, "wordID": 303, "type": "PRES_AUD", "trial_index": 97}, "uniqueid": "MTK3611:3B4YI393VA34IMP0R218G7W70SHSSN", "dateTime": 1520808512541}, {"current_trial": 98, "trialdata": {"rt": -1000, "trial_type": "single-audio", "word": "costume", "stimulus": "/static/audio/wordpool/COSTUME.wav", "conditions": [24, 1600, "a", 24000], "internal_node_id": "0.0-71.0", "trial": 2, "time_elapsed": 506198, "serialpos": 9, "key_press": -1, "wordID": 382, "type": "PRES_AUD", "trial_index": 98}, "uniqueid": "MTK3611:3B4YI393VA34IMP0R218G7W70SHSSN", "dateTime": 1520808514961}, {"current_trial": 99, "trialdata": {"rt": -1000, "trial_type": "single-audio", "word": "zebra", "stimulus": "/static/audio/wordpool/ZEBRA.wav", "conditions": [24, 1600, "a", 24000], "internal_node_id": "0.0-72.0", "trial": 2, "time_elapsed": 508963, "serialpos": 10, "key_press": -1, "wordID": 1634, "type": "PRES_AUD", "trial_index": 99}, "uniqueid": "MTK3611:3B4YI393VA34IMP0R218G7W70SHSSN", "dateTime": 1520808517726}, {"current_trial": 100, "trialdata": {"rt": -1000, "trial_type": "single-audio", "word": "yacht", "stimulus": "/static/audio/wordpool/YACHT.wav", "conditions": [24, 1600, "a", 24000], "internal_node_id": "0.0-73.0", "trial": 2, "time_elapsed": 511637, "serialpos": 11, "key_press": -1, "wordID": 1628, "type": "PRES_AUD", "trial_index": 100}, "uniqueid": "MTK3611:3B4YI393VA34IMP0R218G7W70SHSSN", "dateTime": 1520808520400}, {"current_trial": 101, "trialdata": {"rt": -1000, "trial_type": "single-audio", "word": "dorm", "stimulus": "/static/audio/wordpool/DORM.wav", "conditions": [24, 1600, "a", 24000], "internal_node_id": "0.0-74.0", "trial": 2, "time_elapsed": 514407, "serialpos": 12, "key_press": -1, "wordID": 487, "type": "PRES_AUD", "trial_index": 101}, "uniqueid": "MTK3611:3B4YI393VA34IMP0R218G7W70SHSSN", "dateTime": 1520808523170}, {"current_trial": 102, "trialdata": {"rt": -1000, "trial_type": "single-audio", "word": "slope", "stimulus": "/static/audio/wordpool/SLOPE.wav", "conditions": [24, 1600, "a", 24000], "internal_node_id": "0.0-75.0", "trial": 2, "time_elapsed": 517165, "serialpos": 13, "key_press": -1, "wordID": 1327, "type": "PRES_AUD", "trial_index": 102}, "uniqueid": "MTK3611:3B4YI393VA34IMP0R218G7W70SHSSN", "dateTime": 1520808525928}, {"current_trial": 103, "trialdata": {"rt": -1000, "trial_type": "single-audio", "word": "piston", "stimulus": "/static/audio/wordpool/PISTON.wav", "conditions": [24, 1600, "a", 24000], "internal_node_id": "0.0-76.0", "trial": 2, "time_elapsed": 519768, "serialpos": 14, "key_press": -1, "wordID": 1075, "type": "PRES_AUD", "trial_index": 103}, "uniqueid": "MTK3611:3B4YI393VA34IMP0R218G7W70SHSSN", "dateTime": 1520808528531}, {"current_trial": 104, "trialdata": {"rt": -1000, "trial_type": "single-audio", "word": "stone", "stimulus": "/static/audio/wordpool/STONE.wav", "conditions": [24, 1600, "a", 24000], "internal_node_id": "0.0-77.0", "trial": 2, "time_elapsed": 522343, "serialpos": 15, "key_press": -1, "wordID": 1384, "type": "PRES_AUD", "trial_index": 104}, "uniqueid": "MTK3611:3B4YI393VA34IMP0R218G7W70SHSSN", "dateTime": 1520808531106}, {"current_trial": 105, "trialdata": {"rt": -1000, "trial_type": "single-audio", "word": "world", "stimulus": "/static/audio/wordpool/WORLD.wav", "conditions": [24, 1600, "a", 24000], "internal_node_id": "0.0-78.0", "trial": 2, "time_elapsed": 524758, "serialpos": 16, "key_press": -1, "wordID": 1621, "type": "PRES_AUD", "trial_index": 105}, "uniqueid": "MTK3611:3B4YI393VA34IMP0R218G7W70SHSSN", "dateTime": 1520808533521}, {"current_trial": 106, "trialdata": {"rt": -1000, "trial_type": "single-audio", "word": "turtle", "stimulus": "/static/audio/wordpool/TURTLE.wav", "conditions": [24, 1600, "a", 24000], "internal_node_id": "0.0-79.0", "trial": 2, "time_elapsed": 527279, "serialpos": 17, "key_press": -1, "wordID": 1521, "type": "PRES_AUD", "trial_index": 106}, "uniqueid": "MTK3611:3B4YI393VA34IMP0R218G7W70SHSSN", "dateTime": 1520808536042}, {"current_trial": 107, "trialdata": {"rt": -1000, "trial_type": "single-audio", "word": "dolphin", "stimulus": "/static/audio/wordpool/DOLPHIN.wav", "conditions": [24, 1600, "a", 24000], "internal_node_id": "0.0-80.0", "trial": 2, "time_elapsed": 529763, "serialpos": 18, "key_press": -1, "wordID": 482, "type": "PRES_AUD", "trial_index": 107}, "uniqueid": "MTK3611:3B4YI393VA34IMP0R218G7W70SHSSN", "dateTime": 1520808538526}, {"current_trial": 108, "trialdata": {"rt": -1000, "trial_type": "single-audio", "word": "country", "stimulus": "/static/audio/wordpool/COUNTRY.wav", "conditions": [24, 1600, "a", 24000], "internal_node_id": "0.0-81.0", "trial": 2, "time_elapsed": 532446, "serialpos": 19, "key_press": -1, "wordID": 387, "type": "PRES_AUD", "trial_index": 108}, "uniqueid": "MTK3611:3B4YI393VA34IMP0R218G7W70SHSSN", "dateTime": 1520808541209}, {"current_trial": 109, "trialdata": {"rt": -1000, "trial_type": "single-audio", "word": "cattle", "stimulus": "/static/audio/wordpool/CATTLE.wav", "conditions": [24, 1600, "a", 24000], "internal_node_id": "0.0-82.0", "trial": 2, "time_elapsed": 535055, "serialpos": 20, "key_press": -1, "wordID": 260, "type": "PRES_AUD", "trial_index": 109}, "uniqueid": "MTK3611:3B4YI393VA34IMP0R218G7W70SHSSN", "dateTime": 1520808543818}, {"current_trial": 110, "trialdata": {"rt": -1000, "trial_type": "single-audio", "word": "uncle", "stimulus": "/static/audio/wordpool/UNCLE.wav", "conditions": [24, 1600, "a", 24000], "internal_node_id": "0.0-83.0", "trial": 2, "time_elapsed": 537475, "serialpos": 21, "key_press": -1, "wordID": 1535, "type": "PRES_AUD", "trial_index": 110}, "uniqueid": "MTK3611:3B4YI393VA34IMP0R218G7W70SHSSN", "dateTime": 1520808546238}, {"current_trial": 111, "trialdata": {"rt": -1000, "trial_type": "single-audio", "word": "candy", "stimulus": "/static/audio/wordpool/CANDY.wav", "conditions": [24, 1600, "a", 24000], "internal_node_id": "0.0-84.0", "trial": 2, "time_elapsed": 540236, "serialpos": 22, "key_press": -1, "wordID": 229, "type": "PRES_AUD", "trial_index": 111}, "uniqueid": "MTK3611:3B4YI393VA34IMP0R218G7W70SHSSN", "dateTime": 1520808548999}, {"current_trial": 112, "trialdata": {"rt": -1000, "trial_type": "single-audio", "word": "freezer", "stimulus": "/static/audio/wordpool/FREEZER.wav", "conditions": [24, 1600, "a", 24000], "internal_node_id": "0.0-85.0", "trial": 2, "time_elapsed": 542967, "serialpos": 23, "key_press": -1, "wordID": 603, "type": "PRES_AUD", "trial_index": 112}, "uniqueid": "MTK3611:3B4YI393VA34IMP0R218G7W70SHSSN", "dateTime": 1520808551730}, {"current_trial": 113, "trialdata": {"rt": -1, "trial_type": "single-stim", "stimulus": "", "internal_node_id": "0.0-86.0-0.0", "time_elapsed": 544267, "key_press": -1, "type": "PRE_RECALL_DELAY", "trial_index": 113}, "uniqueid": "MTK3611:3B4YI393VA34IMP0R218G7W70SHSSN", "dateTime": 1520808553030}, {"current_trial": 114, "trialdata": {"rt": -1000, "trial_type": "single-audio", "stimulus": "/static/audio/400Hz.wav", "internal_node_id": "0.0-87.0", "time_elapsed": 544767, "key_press": -1, "type": "PRE_RECALL_ALERT", "trial_index": 114}, "uniqueid": "MTK3611:3B4YI393VA34IMP0R218G7W70SHSSN", "dateTime": 1520808553531}, {"current_trial": 115, "trialdata": {"rt": [2521, 6855, 9568, 12641, 15056, 17768, 19808, 28256, 30488, 33273, 45480, 52784], "recwords": ["world", "turtle", "dolphin", "beaver", "balloon", "cattle", "freezer", "scarecrow", "film", "sandwich", "mattress", "dolphin"], "key_times": [1034, 1368, 1560, 1793, 2024, 2521, 3481, 3681, 3857, 4257, 5152, 5449, 5584, 6217, 6376, 6855, 7648, 7809, 8136, 8441, 8656, 8889, 9128, 9568, 11024, 11313, 11560, 11849, 12065, 12272, 12641, 13032, 13313, 13480, 13649, 13913, 14112, 14360, 15056, 16160, 16385, 16568, 16737, 17304, 17488, 17768, 18200, 18408, 18664, 18808, 19112, 19360, 19536, 19808, 25633, 26144, 26488, 26672, 26920, 27360, 27593, 27808, 27984, 28256, 29416, 29617, 29881, 30184, 30488, 31433, 31689, 31784, 32009, 32369, 32545, 32824, 32968, 33273, 43674, 43881, 44104, 44241, 44545, 44849, 45176, 45352, 45480, 50920, 51232, 51537, 51825, 52041, 52272, 52488, 52784], "trial_type": "free-recall", "conditions": [24, 1600, "a", 24000], "internal_node_id": "0.0-88.0-0.0", "key_presses": [87, 79, 82, 76, 68, 13, 84, 85, 82, 76, 37, 46, 84, 76, 69, 13, 68, 79, 76, 80, 72, 73, 78, 13, 66, 69, 65, 86, 69, 82, 13, 66, 65, 76, 76, 79, 79, 78, 13, 67, 65, 84, 84, 76, 69, 13, 70, 82, 69, 69, 90, 69, 82, 13, 83, 67, 65, 82, 69, 67, 82, 79, 87, 13, 70, 73, 76, 77, 13, 83, 65, 78, 68, 87, 73, 67, 72, 13, 77, 65, 84, 84, 82, 69, 83, 83, 13, 68, 79, 76, 80, 72, 73, 78, 13], "trial": 2, "time_elapsed": 604771, "type": "FREE_RECALL", "trial_index": 115}, "uniqueid": "MTK3611:3B4YI393VA34IMP0R218G7W70SHSSN", "dateTime": 1520808613539}, {"current_trial": 116, "trialdata": {"rt": 2205, "trial_type": "text", "internal_node_id": "0.0-89.0", "time_elapsed": 608982, "key_press": 32, "type": "INSTRUCTIONS", "trial_index": 116}, "uniqueid": "MTK3611:3B4YI393VA34IMP0R218G7W70SHSSN", "dateTime": 1520808617745}, {"current_trial": 117, "trialdata": {"rt": [2740, 5180, 10426], "trial_type": "math-distractor", "key_times": [2100, 2740, 4324, 4572, 5180, 9603, 9764, 10426, 11987], "responses": ["9", "18", "22"], "num2": [2, 6, 6, 8], "num3": [2, 8, 7, 2], "conditions": [24, 800, "a", 12000], "internal_node_id": "0.0-90.0", "key_presses": [105, 13, 97, 104, 13, 98, 98, 13, 97], "trial": 3, "time_elapsed": 622988, "type": "DISTRACTOR", "trial_index": 117, "num1": [5, 4, 9, 7]}, "uniqueid": "MTK3611:3B4YI393VA34IMP0R218G7W70SHSSN", "dateTime": 1520808631751}, {"current_trial": 118, "trialdata": {"rt": -1, "trial_type": "single-stim", "stimulus": "<p id=\"stim\">10</p>", "internal_node_id": "0.0-91.0-0.0", "time_elapsed": 625988, "key_press": -1, "trial_index": 118}, "uniqueid": "MTK3611:3B4YI393VA34IMP0R218G7W70SHSSN", "dateTime": 1520808634752}, {"current_trial": 119, "trialdata": {"rt": -1, "trial_type": "single-stim", "stimulus": "<p id=\"stim\">9</p>", "internal_node_id": "0.0-91.0-1.0", "time_elapsed": 626992, "key_press": -1, "trial_index": 119}, "uniqueid": "MTK3611:3B4YI393VA34IMP0R218G7W70SHSSN", "dateTime": 1520808635755}, {"current_trial": 120, "trialdata": {"rt": -1, "trial_type": "single-stim", "stimulus": "<p id=\"stim\">8</p>", "internal_node_id": "0.0-91.0-2.0", "time_elapsed": 627991, "key_press": -1, "trial_index": 120}, "uniqueid": "MTK3611:3B4YI393VA34IMP0R218G7W70SHSSN", "dateTime": 1520808636754}, {"current_trial": 121, "trialdata": {"rt": -1, "trial_type": "single-stim", "stimulus": "<p id=\"stim\">7</p>", "internal_node_id": "0.0-91.0-3.0", "time_elapsed": 628992, "key_press": -1, "trial_index": 121}, "uniqueid": "MTK3611:3B4YI393VA34IMP0R218G7W70SHSSN", "dateTime": 1520808637755}, {"current_trial": 122, "trialdata": {"rt": -1, "trial_type": "single-stim", "stimulus": "<p id=\"stim\">6</p>", "internal_node_id": "0.0-91.0-4.0", "time_elapsed": 629994, "key_press": -1, "trial_index": 122}, "uniqueid": "MTK3611:3B4YI393VA34IMP0R218G7W70SHSSN", "dateTime": 1520808638757}, {"current_trial": 123, "trialdata": {"rt": -1, "trial_type": "single-stim", "stimulus": "<p id=\"stim\">5</p>", "internal_node_id": "0.0-91.0-5.0", "time_elapsed": 630995, "key_press": -1, "trial_index": 123}, "uniqueid": "MTK3611:3B4YI393VA34IMP0R218G7W70SHSSN", "dateTime": 1520808639759}, {"current_trial": 124, "trialdata": {"rt": -1, "trial_type": "single-stim", "stimulus": "<p id=\"stim\">4</p>", "internal_node_id": "0.0-91.0-6.0", "time_elapsed": 631995, "key_press": -1, "trial_index": 124}, "uniqueid": "MTK3611:3B4YI393VA34IMP0R218G7W70SHSSN", "dateTime": 1520808640759}, {"current_trial": 125, "trialdata": {"rt": -1, "trial_type": "single-stim", "stimulus": "<p id=\"stim\">3</p>", "internal_node_id": "0.0-91.0-7.0", "time_elapsed": 632996, "key_press": -1, "trial_index": 125}, "uniqueid": "MTK3611:3B4YI393VA34IMP0R218G7W70SHSSN", "dateTime": 1520808641759}, {"current_trial": 126, "trialdata": {"rt": -1, "trial_type": "single-stim", "stimulus": "<p id=\"stim\">2</p>", "internal_node_id": "0.0-91.0-8.0", "time_elapsed": 633999, "key_press": -1, "trial_index": 126}, "uniqueid": "MTK3611:3B4YI393VA34IMP0R218G7W70SHSSN", "dateTime": 1520808642762}, {"current_trial": 127, "trialdata": {"rt": -1, "trial_type": "single-stim", "stimulus": "<p id=\"stim\">1</p>", "internal_node_id": "0.0-91.0-9.0", "time_elapsed": 635000, "key_press": -1, "trial_index": 127}, "uniqueid": "MTK3611:3B4YI393VA34IMP0R218G7W70SHSSN", "dateTime": 1520808643763}, {"current_trial": 128, "trialdata": {"rt": -1, "trial_type": "single-stim", "stimulus": "<p id=\"stim\">+</p>", "internal_node_id": "0.0-92.0-0.0", "time_elapsed": 636502, "key_press": -1, "type": "FIXATION", "trial_index": 128}, "uniqueid": "MTK3611:3B4YI393VA34IMP0R218G7W70SHSSN", "dateTime": 1520808645265}, {"current_trial": 129, "trialdata": {"rt": -1000, "trial_type": "single-audio", "word": "stallion", "stimulus": "/static/audio/wordpool/STALLION.wav", "conditions": [24, 800, "a", 12000], "internal_node_id": "0.0-93.0", "trial": 3, "time_elapsed": 638174, "serialpos": 0, "key_press": -1, "wordID": 1368, "type": "PRES_AUD", "trial_index": 129}, "uniqueid": "MTK3611:3B4YI393VA34IMP0R218G7W70SHSSN", "dateTime": 1520808646937}, {"current_trial": 130, "trialdata": {"rt": -1000, "trial_type": "single-audio", "word": "ox", "stimulus": "/static/audio/wordpool/OX.wav", "conditions": [24, 800, "a", 12000], "internal_node_id": "0.0-94.0", "trial": 3, "time_elapsed": 640109, "serialpos": 1, "key_press": -1, "wordID": 993, "type": "PRES_AUD", "trial_index": 130}, "uniqueid": "MTK3611:3B4YI393VA34IMP0R218G7W70SHSSN", "dateTime": 1520808648872}, {"current_trial": 131, "trialdata": {"rt": -1000, "trial_type": "single-audio", "word": "velvet", "stimulus": "/static/audio/wordpool/VELVET.wav", "conditions": [24, 800, "a", 12000], "internal_node_id": "0.0-95.0", "trial": 3, "time_elapsed": 641827, "serialpos": 2, "key_press": -1, "wordID": 1554, "type": "PRES_AUD", "trial_index": 131}, "uniqueid": "MTK3611:3B4YI393VA34IMP0R218G7W70SHSSN", "dateTime": 1520808650590}, {"current_trial": 132, "trialdata": {"rt": -1000, "trial_type": "single-audio", "word": "hero", "stimulus": "/static/audio/wordpool/HERO.wav", "conditions": [24, 800, "a", 12000], "internal_node_id": "0.0-96.0", "trial": 3, "time_elapsed": 643615, "serialpos": 3, "key_press": -1, "wordID": 705, "type": "PRES_AUD", "trial_index": 132}, "uniqueid": "MTK3611:3B4YI393VA34IMP0R218G7W70SHSSN", "dateTime": 1520808652378}, {"current_trial": 133, "trialdata": {"rt": -1000, "trial_type": "single-audio", "word": "sister", "stimulus": "/static/audio/wordpool/SISTER.wav", "conditions": [24, 800, "a", 12000], "internal_node_id": "0.0-97.0", "trial": 3, "time_elapsed": 645454, "serialpos": 4, "key_press": -1, "wordID": 1311, "type": "PRES_AUD", "trial_index": 133}, "uniqueid": "MTK3611:3B4YI393VA34IMP0R218G7W70SHSSN", "dateTime": 1520808654217}, {"current_trial": 134, "trialdata": {"rt": -1000, "trial_type": "single-audio", "word": "penguin", "stimulus": "/static/audio/wordpool/PENGUIN.wav", "conditions": [24, 800, "a", 12000], "internal_node_id": "0.0-98.0", "trial": 3, "time_elapsed": 647452, "serialpos": 5, "key_press": -1, "wordID": 1043, "type": "PRES_AUD", "trial_index": 134}, "uniqueid": "MTK3611:3B4YI393VA34IMP0R218G7W70SHSSN", "dateTime": 1520808656215}, {"current_trial": 135, "trialdata": {"rt": -1000, "trial_type": "single-audio", "word": "waitress", "stimulus": "/static/audio/wordpool/WAITRESS.wav", "conditions": [24, 800, "a", 12000], "internal_node_id": "0.0-99.0", "trial": 3, "time_elapsed": 649381, "serialpos": 6, "key_press": -1, "wordID": 1580, "type": "PRES_AUD", "trial_index": 135}, "uniqueid": "MTK3611:3B4YI393VA34IMP0R218G7W70SHSSN", "dateTime": 1520808658144}, {"current_trial": 136, "trialdata": {"rt": -1000, "trial_type": "single-audio", "word": "casket", "stimulus": "/static/audio/wordpool/CASKET.wav", "conditions": [24, 800, "a", 12000], "internal_node_id": "0.0-100.0", "trial": 3, "time_elapsed": 651138, "serialpos": 7, "key_press": -1, "wordID": 254, "type": "PRES_AUD", "trial_index": 136}, "uniqueid": "MTK3611:3B4YI393VA34IMP0R218G7W70SHSSN", "dateTime": 1520808659901}, {"current_trial": 137, "trialdata": {"rt": -1000, "trial_type": "single-audio", "word": "tombstone", "stimulus": "/static/audio/wordpool/TOMBSTONE.wav", "conditions": [24, 800, "a", 12000], "internal_node_id": "0.0-101.0", "trial": 3, "time_elapsed": 653051, "serialpos": 8, "key_press": -1, "wordID": 1477, "type": "PRES_AUD", "trial_index": 137}, "uniqueid": "MTK3611:3B4YI393VA34IMP0R218G7W70SHSSN", "dateTime": 1520808661814}, {"current_trial": 138, "trialdata": {"rt": -1000, "trial_type": "single-audio", "word": "rabbit", "stimulus": "/static/audio/wordpool/RABBIT.wav", "conditions": [24, 800, "a", 12000], "internal_node_id": "0.0-102.0", "trial": 3, "time_elapsed": 654670, "serialpos": 9, "key_press": -1, "wordID": 1151, "type": "PRES_AUD", "trial_index": 138}, "uniqueid": "MTK3611:3B4YI393VA34IMP0R218G7W70SHSSN", "dateTime": 1520808663433}, {"current_trial": 139, "trialdata": {"rt": -1000, "trial_type": "single-audio", "word": "cashier", "stimulus": "/static/audio/wordpool/CASHIER.wav", "conditions": [24, 800, "a", 12000], "internal_node_id": "0.0-103.0", "trial": 3, "time_elapsed": 656350, "serialpos": 10, "key_press": -1, "wordID": 253, "type": "PRES_AUD", "trial_index": 139}, "uniqueid": "MTK3611:3B4YI393VA34IMP0R218G7W70SHSSN", "dateTime": 1520808665113}, {"current_trial": 140, "trialdata": {"rt": -1000, "trial_type": "single-audio", "word": "creature", "stimulus": "/static/audio/wordpool/CREATURE.wav", "conditions": [24, 800, "a", 12000], "internal_node_id": "0.0-104.0", "trial": 3, "time_elapsed": 658334, "serialpos": 11, "key_press": -1, "wordID": 402, "type": "PRES_AUD", "trial_index": 140}, "uniqueid": "MTK3611:3B4YI393VA34IMP0R218G7W70SHSSN", "dateTime": 1520808667097}, {"current_trial": 141, "trialdata": {"rt": -1000, "trial_type": "single-audio", "word": "lodge", "stimulus": "/static/audio/wordpool/LODGE.wav", "conditions": [24, 800, "a", 12000], "internal_node_id": "0.0-105.0", "trial": 3, "time_elapsed": 660083, "serialpos": 12, "key_press": -1, "wordID": 838, "type": "PRES_AUD", "trial_index": 141}, "uniqueid": "MTK3611:3B4YI393VA34IMP0R218G7W70SHSSN", "dateTime": 1520808668846}, {"current_trial": 142, "trialdata": {"rt": -1000, "trial_type": "single-audio", "word": "space", "stimulus": "/static/audio/wordpool/SPACE.wav", "conditions": [24, 800, "a", 12000], "internal_node_id": "0.0-106.0", "trial": 3, "time_elapsed": 661781, "serialpos": 13, "key_press": -1, "wordID": 1344, "type": "PRES_AUD", "trial_index": 142}, "uniqueid": "MTK3611:3B4YI393VA34IMP0R218G7W70SHSSN", "dateTime": 1520808670544}, {"current_trial": 143, "trialdata": {"rt": -1000, "trial_type": "single-audio", "word": "suspect", "stimulus": "/static/audio/wordpool/SUSPECT.wav", "conditions": [24, 800, "a", 12000], "internal_node_id": "0.0-107.0", "trial": 3, "time_elapsed": 663499, "serialpos": 14, "key_press": -1, "wordID": 1414, "type": "PRES_AUD", "trial_index": 143}, "uniqueid": "MTK3611:3B4YI393VA34IMP0R218G7W70SHSSN", "dateTime": 1520808672262}, {"current_trial": 144, "trialdata": {"rt": -1000, "trial_type": "single-audio", "word": "victim", "stimulus": "/static/audio/wordpool/VICTIM.wav", "conditions": [24, 800, "a", 12000], "internal_node_id": "0.0-108.0", "trial": 3, "time_elapsed": 665108, "serialpos": 15, "key_press": -1, "wordID": 1561, "type": "PRES_AUD", "trial_index": 144}, "uniqueid": "MTK3611:3B4YI393VA34IMP0R218G7W70SHSSN", "dateTime": 1520808673871}, {"current_trial": 145, "trialdata": {"rt": -1000, "trial_type": "single-audio", "word": "river", "stimulus": "/static/audio/wordpool/RIVER.wav", "conditions": [24, 800, "a", 12000], "internal_node_id": "0.0-109.0", "trial": 3, "time_elapsed": 666776, "serialpos": 16, "key_press": -1, "wordID": 1193, "type": "PRES_AUD", "trial_index": 145}, "uniqueid": "MTK3611:3B4YI393VA34IMP0R218G7W70SHSSN", "dateTime": 1520808675539}, {"current_trial": 146, "trialdata": {"rt": -1000, "trial_type": "single-audio", "word": "flipper", "stimulus": "/static/audio/wordpool/FLIPPER.wav", "conditions": [24, 800, "a", 12000], "internal_node_id": "0.0-110.0", "trial": 3, "time_elapsed": 668477, "serialpos": 17, "key_press": -1, "wordID": 579, "type": "PRES_AUD", "trial_index": 146}, "uniqueid": "MTK3611:3B4YI393VA34IMP0R218G7W70SHSSN", "dateTime": 1520808677240}, {"current_trial": 147, "trialdata": {"rt": -1000, "trial_type": "single-audio", "word": "marker", "stimulus": "/static/audio/wordpool/MARKER.wav", "conditions": [24, 800, "a", 12000], "internal_node_id": "0.0-111.0", "trial": 3, "time_elapsed": 670197, "serialpos": 18, "key_press": -1, "wordID": 869, "type": "PRES_AUD", "trial_index": 147}, "uniqueid": "MTK3611:3B4YI393VA34IMP0R218G7W70SHSSN", "dateTime": 1520808678960}, {"current_trial": 148, "trialdata": {"rt": -1000, "trial_type": "single-audio", "word": "dragon", "stimulus": "/static/audio/wordpool/DRAGON.wav", "conditions": [24, 800, "a", 12000], "internal_node_id": "0.0-112.0", "trial": 3, "time_elapsed": 672101, "serialpos": 19, "key_press": -1, "wordID": 491, "type": "PRES_AUD", "trial_index": 148}, "uniqueid": "MTK3611:3B4YI393VA34IMP0R218G7W70SHSSN", "dateTime": 1520808680864}, {"current_trial": 149, "trialdata": {"rt": -1000, "trial_type": "single-audio", "word": "lunch", "stimulus": "/static/audio/wordpool/LUNCH.wav", "conditions": [24, 800, "a", 12000], "internal_node_id": "0.0-113.0", "trial": 3, "time_elapsed": 673720, "serialpos": 20, "key_press": -1, "wordID": 848, "type": "PRES_AUD", "trial_index": 149}, "uniqueid": "MTK3611:3B4YI393VA34IMP0R218G7W70SHSSN", "dateTime": 1520808682483}, {"current_trial": 150, "trialdata": {"rt": -1000, "trial_type": "single-audio", "word": "shark", "stimulus": "/static/audio/wordpool/SHARK.wav", "conditions": [24, 800, "a", 12000], "internal_node_id": "0.0-114.0", "trial": 3, "time_elapsed": 675380, "serialpos": 21, "key_press": -1, "wordID": 1274, "type": "PRES_AUD", "trial_index": 150}, "uniqueid": "MTK3611:3B4YI393VA34IMP0R218G7W70SHSSN", "dateTime": 1520808684144}, {"current_trial": 151, "trialdata": {"rt": -1000, "trial_type": "single-audio", "word": "lagoon", "stimulus": "/static/audio/wordpool/LAGOON.wav", "conditions": [24, 800, "a", 12000], "internal_node_id": "0.0-115.0", "trial": 3, "time_elapsed": 677053, "serialpos": 22, "key_press": -1, "wordID": 794, "type": "PRES_AUD", "trial_index": 151}, "uniqueid": "MTK3611:3B4YI393VA34IMP0R218G7W70SHSSN", "dateTime": 1520808685816}, {"current_trial": 152, "trialdata": {"rt": -1000, "trial_type": "single-audio", "word": "motel", "stimulus": "/static/audio/wordpool/MOTEL.wav", "conditions": [24, 800, "a", 12000], "internal_node_id": "0.0-116.0", "trial": 3, "time_elapsed": 679030, "serialpos": 23, "key_press": -1, "wordID": 918, "type": "PRES_AUD", "trial_index": 152}, "uniqueid": "MTK3611:3B4YI393VA34IMP0R218G7W70SHSSN", "dateTime": 1520808687793}, {"current_trial": 153, "trialdata": {"rt": -1, "trial_type": "single-stim", "stimulus": "", "internal_node_id": "0.0-117.0-0.0", "time_elapsed": 680354, "key_press": -1, "type": "PRE_RECALL_DELAY", "trial_index": 153}, "uniqueid": "MTK3611:3B4YI393VA34IMP0R218G7W70SHSSN", "dateTime": 1520808689117}, {"current_trial": 154, "trialdata": {"rt": -1000, "trial_type": "single-audio", "stimulus": "/static/audio/400Hz.wav", "internal_node_id": "0.0-118.0", "time_elapsed": 680854, "key_press": -1, "type": "PRE_RECALL_ALERT", "trial_index": 154}, "uniqueid": "MTK3611:3B4YI393VA34IMP0R218G7W70SHSSN", "dateTime": 1520808689617}, {"current_trial": 155, "trialdata": {"rt": [4140, 6740, 9004, 13219, 20739, 23427, 29354, 42133, 47442, 52579], "recwords": ["shark", "lagoon", "motel", "stallion", "beast", "river", "hero", "buffalo", "space", "casket"], "key_times": [1709, 1900, 2052, 2228, 2524, 4140, 4860, 5148, 5444, 5956, 6148, 6404, 6740, 7612, 7892, 8044, 8340, 8628, 9004, 11595, 11796, 12051, 12156, 12324, 12508, 12739, 12939, 13219, 19171, 19579, 19907, 20235, 20452, 20739, 22516, 22683, 22852, 23045, 23211, 23427, 27955, 28179, 28363, 28891, 29354, 40572, 40707, 40987, 41147, 41379, 41515, 41779, 42133, 46299, 46491, 46683, 46986, 47219, 47442, 49906, 50170, 50491, 51629, 51843, 52059, 52579, 53692, 54827, 55443, 55779, 56132, 56259, 56475, 57212, 57436, 57675, 58619, 59668, 59932], "trial_type": "free-recall", "conditions": [24, 800, "a", 12000], "internal_node_id": "0.0-119.0-0.0", "key_presses": [83, 72, 65, 82, 75, 13, 76, 65, 71, 79, 79, 78, 13, 77, 79, 84, 69, 76, 13, 83, 84, 65, 76, 76, 73, 79, 78, 13, 66, 69, 65, 83, 84, 13, 82, 73, 86, 69, 82, 13, 72, 69, 82, 79, 13, 66, 85, 70, 70, 65, 76, 79, 13, 83, 80, 65, 67, 69, 13, 67, 65, 83, 75, 69, 84, 13, 84, 79, 77, 66, 83, 79, 84, 37, 37, 46, 39, 79, 78], "trial": 3, "time_elapsed": 740857, "type": "FREE_RECALL", "trial_index": 155}, "uniqueid": "MTK3611:3B4YI393VA34IMP0R218G7W70SHSSN", "dateTime": 1520808749624}, {"current_trial": 156, "trialdata": {"rt": 2046, "trial_type": "text", "internal_node_id": "0.0-120.0", "time_elapsed": 744908, "key_press": 74, "type": "INSTRUCTIONS", "trial_index": 156}, "uniqueid": "MTK3611:3B4YI393VA34IMP0R218G7W70SHSSN", "dateTime": 1520808753671}, {"current_trial": 157, "trialdata": {"rt": [3613, 8542, 11509], "trial_type": "math-distractor", "key_times": [2950, 3229, 3613, 5414, 5677, 7437, 7686, 8149, 8542, 10878, 11125, 11509], "responses": ["17", "13", "21"], "num2": [8, 2, 7, 2], "num3": [3, 7, 9, 3], "conditions": [12, 1600, "a", 12000], "internal_node_id": "0.0-121.0", "key_presses": [97, 103, 13, 97, 100, 37, 46, 99, 13, 98, 97, 13], "trial": 4, "time_elapsed": 758911, "type": "DISTRACTOR", "trial_index": 157, "num1": [6, 4, 5, 4]}, "uniqueid": "MTK3611:3B4YI393VA34IMP0R218G7W70SHSSN", "dateTime": 1520808767674}, {"current_trial": 158, "trialdata": {"rt": -1, "trial_type": "single-stim", "stimulus": "<p id=\"stim\">10</p>", "internal_node_id": "0.0-122.0-0.0", "time_elapsed": 761911, "key_press": -1, "trial_index": 158}, "uniqueid": "MTK3611:3B4YI393VA34IMP0R218G7W70SHSSN", "dateTime": 1520808770674}, {"current_trial": 159, "trialdata": {"rt": -1, "trial_type": "single-stim", "stimulus": "<p id=\"stim\">9</p>", "internal_node_id": "0.0-122.0-1.0", "time_elapsed": 762915, "key_press": -1, "trial_index": 159}, "uniqueid": "MTK3611:3B4YI393VA34IMP0R218G7W70SHSSN", "dateTime": 1520808771678}, {"current_trial": 160, "trialdata": {"rt": -1, "trial_type": "single-stim", "stimulus": "<p id=\"stim\">8</p>", "internal_node_id": "0.0-122.0-2.0", "time_elapsed": 763915, "key_press": -1, "trial_index": 160}, "uniqueid": "MTK3611:3B4YI393VA34IMP0R218G7W70SHSSN", "dateTime": 1520808772678}, {"current_trial": 161, "trialdata": {"rt": -1, "trial_type": "single-stim", "stimulus": "<p id=\"stim\">7</p>", "internal_node_id": "0.0-122.0-3.0", "time_elapsed": 764915, "key_press": -1, "trial_index": 161}, "uniqueid": "MTK3611:3B4YI393VA34IMP0R218G7W70SHSSN", "dateTime": 1520808773678}, {"current_trial": 162, "trialdata": {"rt": -1, "trial_type": "single-stim", "stimulus": "<p id=\"stim\">6</p>", "internal_node_id": "0.0-122.0-4.0", "time_elapsed": 765917, "key_press": -1, "trial_index": 162}, "uniqueid": "MTK3611:3B4YI393VA34IMP0R218G7W70SHSSN", "dateTime": 1520808774680}, {"current_trial": 163, "trialdata": {"rt": -1, "trial_type": "single-stim", "stimulus": "<p id=\"stim\">5</p>", "internal_node_id": "0.0-122.0-5.0", "time_elapsed": 766918, "key_press": -1, "trial_index": 163}, "uniqueid": "MTK3611:3B4YI393VA34IMP0R218G7W70SHSSN", "dateTime": 1520808775681}, {"current_trial": 164, "trialdata": {"rt": -1, "trial_type": "single-stim", "stimulus": "<p id=\"stim\">4</p>", "internal_node_id": "0.0-122.0-6.0", "time_elapsed": 767919, "key_press": -1, "trial_index": 164}, "uniqueid": "MTK3611:3B4YI393VA34IMP0R218G7W70SHSSN", "dateTime": 1520808776682}, {"current_trial": 165, "trialdata": {"rt": -1, "trial_type": "single-stim", "stimulus": "<p id=\"stim\">3</p>", "internal_node_id": "0.0-122.0-7.0", "time_elapsed": 768919, "key_press": -1, "trial_index": 165}, "uniqueid": "MTK3611:3B4YI393VA34IMP0R218G7W70SHSSN", "dateTime": 1520808777682}, {"current_trial": 166, "trialdata": {"rt": -1, "trial_type": "single-stim", "stimulus": "<p id=\"stim\">2</p>", "internal_node_id": "0.0-122.0-8.0", "time_elapsed": 769920, "key_press": -1, "trial_index": 166}, "uniqueid": "MTK3611:3B4YI393VA34IMP0R218G7W70SHSSN", "dateTime": 1520808778685}, {"current_trial": 167, "trialdata": {"rt": -1, "trial_type": "single-stim", "stimulus": "<p id=\"stim\">1</p>", "internal_node_id": "0.0-122.0-9.0", "time_elapsed": 770922, "key_press": -1, "trial_index": 167}, "uniqueid": "MTK3611:3B4YI393VA34IMP0R218G7W70SHSSN", "dateTime": 1520808779685}, {"current_trial": 168, "trialdata": {"rt": -1, "trial_type": "single-stim", "stimulus": "<p id=\"stim\">+</p>", "internal_node_id": "0.0-123.0-0.0", "time_elapsed": 772424, "key_press": -1, "type": "FIXATION", "trial_index": 168}, "uniqueid": "MTK3611:3B4YI393VA34IMP0R218G7W70SHSSN", "dateTime": 1520808781187}, {"current_trial": 169, "trialdata": {"rt": -1000, "trial_type": "single-audio", "word": "lettuce", "stimulus": "/static/audio/wordpool/LETTUCE.wav", "conditions": [12, 1600, "a", 12000], "internal_node_id": "0.0-124.0", "trial": 4, "time_elapsed": 774884, "serialpos": 0, "key_press": -1, "wordID": 813, "type": "PRES_AUD", "trial_index": 169}, "uniqueid": "MTK3611:3B4YI393VA34IMP0R218G7W70SHSSN", "dateTime": 1520808783647}, {"current_trial": 170, "trialdata": {"rt": -1000, "trial_type": "single-audio", "word": "gift", "stimulus": "/static/audio/wordpool/GIFT.wav", "conditions": [12, 1600, "a", 12000], "internal_node_id": "0.0-125.0", "trial": 4, "time_elapsed": 777645, "serialpos": 1, "key_press": -1, "wordID": 634, "type": "PRES_AUD", "trial_index": 170}, "uniqueid": "MTK3611:3B4YI393VA34IMP0R218G7W70SHSSN", "dateTime": 1520808786408}, {"current_trial": 171, "trialdata": {"rt": -1000, "trial_type": "single-audio", "word": "garlic", "stimulus": "/static/audio/wordpool/GARLIC.wav", "conditions": [12, 1600, "a", 12000], "internal_node_id": "0.0-126.0", "trial": 4, "time_elapsed": 780240, "serialpos": 2, "key_press": -1, "wordID": 623, "type": "PRES_AUD", "trial_index": 171}, "uniqueid": "MTK3611:3B4YI393VA34IMP0R218G7W70SHSSN", "dateTime": 1520808789003}, {"current_trial": 172, "trialdata": {"rt": -1000, "trial_type": "single-audio", "word": "parsley", "stimulus": "/static/audio/wordpool/PARSLEY.wav", "conditions": [12, 1600, "a", 12000], "internal_node_id": "0.0-127.0", "trial": 4, "time_elapsed": 782897, "serialpos": 3, "key_press": -1, "wordID": 1015, "type": "PRES_AUD", "trial_index": 172}, "uniqueid": "MTK3611:3B4YI393VA34IMP0R218G7W70SHSSN", "dateTime": 1520808791660}, {"current_trial": 173, "trialdata": {"rt": -1000, "trial_type": "single-audio", "word": "college", "stimulus": "/static/audio/wordpool/COLLEGE.wav", "conditions": [12, 1600, "a", 12000], "internal_node_id": "0.0-128.0", "trial": 4, "time_elapsed": 785640, "serialpos": 4, "key_press": -1, "wordID": 345, "type": "PRES_AUD", "trial_index": 173}, "uniqueid": "MTK3611:3B4YI393VA34IMP0R218G7W70SHSSN", "dateTime": 1520808794403}, {"current_trial": 174, "trialdata": {"rt": -1000, "trial_type": "single-audio", "word": "crevice", "stimulus": "/static/audio/wordpool/CREVICE.wav", "conditions": [12, 1600, "a", 12000], "internal_node_id": "0.0-129.0", "trial": 4, "time_elapsed": 788432, "serialpos": 5, "key_press": -1, "wordID": 404, "type": "PRES_AUD", "trial_index": 174}, "uniqueid": "MTK3611:3B4YI393VA34IMP0R218G7W70SHSSN", "dateTime": 1520808797195}, {"current_trial": 175, "trialdata": {"rt": -1000, "trial_type": "single-audio", "word": "radish", "stimulus": "/static/audio/wordpool/RADISH.wav", "conditions": [12, 1600, "a", 12000], "internal_node_id": "0.0-130.0", "trial": 4, "time_elapsed": 791223, "serialpos": 6, "key_press": -1, "wordID": 1157, "type": "PRES_AUD", "trial_index": 175}, "uniqueid": "MTK3611:3B4YI393VA34IMP0R218G7W70SHSSN", "dateTime": 1520808799986}, {"current_trial": 176, "trialdata": {"rt": -1000, "trial_type": "single-audio", "word": "boyfriend", "stimulus": "/static/audio/wordpool/BOYFRIEND.wav", "conditions": [12, 1600, "a", 12000], "internal_node_id": "0.0-131.0", "trial": 4, "time_elapsed": 793809, "serialpos": 7, "key_press": -1, "wordID": 161, "type": "PRES_AUD", "trial_index": 176}, "uniqueid": "MTK3611:3B4YI393VA34IMP0R218G7W70SHSSN", "dateTime": 1520808802572}, {"current_trial": 177, "trialdata": {"rt": -1000, "trial_type": "single-audio", "word": "expert", "stimulus": "/static/audio/wordpool/EXPERT.wav", "conditions": [12, 1600, "a", 12000], "internal_node_id": "0.0-132.0", "trial": 4, "time_elapsed": 796466, "serialpos": 8, "key_press": -1, "wordID": 542, "type": "PRES_AUD", "trial_index": 177}, "uniqueid": "MTK3611:3B4YI393VA34IMP0R218G7W70SHSSN", "dateTime": 1520808805229}, {"current_trial": 178, "trialdata": {"rt": -1000, "trial_type": "single-audio", "word": "partner", "stimulus": "/static/audio/wordpool/PARTNER.wav", "conditions": [12, 1600, "a", 12000], "internal_node_id": "0.0-133.0", "trial": 4, "time_elapsed": 798911, "serialpos": 9, "key_press": -1, "wordID": 1016, "type": "PRES_AUD", "trial_index": 178}, "uniqueid": "MTK3611:3B4YI393VA34IMP0R218G7W70SHSSN", "dateTime": 1520808807674}, {"current_trial": 179, "trialdata": {"rt": -1000, "trial_type": "single-audio", "word": "pepper", "stimulus": "/static/audio/wordpool/PEPPER.wav", "conditions": [12, 1600, "a", 12000], "internal_node_id": "0.0-134.0", "trial": 4, "time_elapsed": 801601, "serialpos": 10, "key_press": -1, "wordID": 1046, "type": "PRES_AUD", "trial_index": 179}, "uniqueid": "MTK3611:3B4YI393VA34IMP0R218G7W70SHSSN", "dateTime": 1520808810365}, {"current_trial": 180, "trialdata": {"rt": -1000, "trial_type": "single-audio", "word": "onion", "stimulus": "/static/audio/wordpool/ONION.wav", "conditions": [12, 1600, "a", 12000], "internal_node_id": "0.0-135.0", "trial": 4, "time_elapsed": 804290, "serialpos": 11, "key_press": -1, "wordID": 976, "type": "PRES_AUD", "trial_index": 180}, "uniqueid": "MTK3611:3B4YI393VA34IMP0R218G7W70SHSSN", "dateTime": 1520808813053}, {"current_trial": 181, "trialdata": {"rt": -1, "trial_type": "single-stim", "stimulus": "", "internal_node_id": "0.0-136.0-0.0", "time_elapsed": 805581, "key_press": -1, "type": "PRE_RECALL_DELAY", "trial_index": 181}, "uniqueid": "MTK3611:3B4YI393VA34IMP0R218G7W70SHSSN", "dateTime": 1520808814346}, {"current_trial": 182, "trialdata": {"rt": -1000, "trial_type": "single-audio", "stimulus": "/static/audio/400Hz.wav", "internal_node_id": "0.0-137.0", "time_elapsed": 806083, "key_press": -1, "type": "PRE_RECALL_ALERT", "trial_index": 182}, "uniqueid": "MTK3611:3B4YI393VA34IMP0R218G7W70SHSSN", "dateTime": 1520808814846}, {"current_trial": 183, "trialdata": {"rt": [6823, 9805, 12886, 14686, 17431, 25023], "recwords": ["lettuce", "pepper", "onion", "radish", "garlic", "partner"], "key_times": [2895, 3759, 4111, 4262, 4383, 4726, 5007, 6823, 7854, 8279, 8990, 9213, 9398, 9583, 9805, 10741, 10974, 11206, 12111, 12407, 12886, 13207, 13462, 13774, 13926, 14182, 14350, 14686, 15247, 15727, 15991, 16151, 16415, 16551, 17431, 22767, 23047, 23263, 23519, 24191, 24415, 24599, 25023, 28814, 32262, 32622], "trial_type": "free-recall", "conditions": [12, 1600, "a", 12000], "internal_node_id": "0.0-138.0-0.0", "key_presses": [76, 69, 84, 84, 85, 67, 69, 13, 80, 69, 80, 80, 69, 82, 13, 79, 78, 73, 79, 78, 13, 82, 65, 68, 73, 83, 72, 13, 71, 65, 82, 76, 73, 67, 13, 80, 65, 82, 84, 78, 69, 82, 13, 67, 37, 46], "trial": 4, "time_elapsed": 866087, "type": "FREE_RECALL", "trial_index": 183}, "uniqueid": "MTK3611:3B4YI393VA34IMP0R218G7W70SHSSN", "dateTime": 1520808874855}, {"current_trial": 184, "trialdata": {"rt": 6856, "trial_type": "text", "internal_node_id": "0.0-139.0", "time_elapsed": 874948, "key_press": 76, "type": "INSTRUCTIONS", "trial_index": 184}, "uniqueid": "MTK3611:3B4YI393VA34IMP0R218G7W70SHSSN", "dateTime": 1520808883711}, {"current_trial": 185, "trialdata": {"rt": [5204, 7811, 10132, 13028, 15627, 18692, 21980], "trial_type": "math-distractor", "key_times": [4613, 4837, 5204, 7108, 7399, 7811, 9420, 9755, 10132, 11788, 12460, 13028, 14636, 15044, 15627, 17717, 18157, 18692, 21181, 21516, 21980, 23981], "responses": ["21", "18", "17", "12", "13", "19", "21"], "num2": [6, 8, 8, 3, 6, 7, 8, 7], "num3": [7, 7, 2, 2, 2, 4, 6, 1], "conditions": [24, 1600, "a", 24000], "internal_node_id": "0.0-140.0", "key_presses": [98, 97, 13, 97, 104, 13, 97, 103, 13, 97, 98, 13, 97, 99, 13, 97, 105, 13, 98, 97, 13, 97], "trial": 5, "time_elapsed": 900952, "type": "DISTRACTOR", "trial_index": 185, "num1": [8, 4, 7, 7, 5, 8, 7, 8]}, "uniqueid": "MTK3611:3B4YI393VA34IMP0R218G7W70SHSSN", "dateTime": 1520808909715}, {"current_trial": 186, "trialdata": {"rt": -1, "trial_type": "single-stim", "stimulus": "<p id=\"stim\">10</p>", "internal_node_id": "0.0-141.0-0.0", "time_elapsed": 903952, "key_press": -1, "trial_index": 186}, "uniqueid": "MTK3611:3B4YI393VA34IMP0R218G7W70SHSSN", "dateTime": 1520808912715}, {"current_trial": 187, "trialdata": {"rt": -1, "trial_type": "single-stim", "stimulus": "<p id=\"stim\">9</p>", "internal_node_id": "0.0-141.0-1.0", "time_elapsed": 904953, "key_press": -1, "trial_index": 187}, "uniqueid": "MTK3611:3B4YI393VA34IMP0R218G7W70SHSSN", "dateTime": 1520808913716}, {"current_trial": 188, "trialdata": {"rt": -1, "trial_type": "single-stim", "stimulus": "<p id=\"stim\">8</p>", "internal_node_id": "0.0-141.0-2.0", "time_elapsed": 905954, "key_press": -1, "trial_index": 188}, "uniqueid": "MTK3611:3B4YI393VA34IMP0R218G7W70SHSSN", "dateTime": 1520808914717}, {"current_trial": 189, "trialdata": {"rt": -1, "trial_type": "single-stim", "stimulus": "<p id=\"stim\">7</p>", "internal_node_id": "0.0-141.0-3.0", "time_elapsed": 906955, "key_press": -1, "trial_index": 189}, "uniqueid": "MTK3611:3B4YI393VA34IMP0R218G7W70SHSSN", "dateTime": 1520808915719}, {"current_trial": 190, "trialdata": {"rt": -1, "trial_type": "single-stim", "stimulus": "<p id=\"stim\">6</p>", "internal_node_id": "0.0-141.0-4.0", "time_elapsed": 907955, "key_press": -1, "trial_index": 190}, "uniqueid": "MTK3611:3B4YI393VA34IMP0R218G7W70SHSSN", "dateTime": 1520808916718}, {"current_trial": 191, "trialdata": {"rt": -1, "trial_type": "single-stim", "stimulus": "<p id=\"stim\">5</p>", "internal_node_id": "0.0-141.0-5.0", "time_elapsed": 908956, "key_press": -1, "trial_index": 191}, "uniqueid": "MTK3611:3B4YI393VA34IMP0R218G7W70SHSSN", "dateTime": 1520808917719}, {"current_trial": 192, "trialdata": {"rt": -1, "trial_type": "single-stim", "stimulus": "<p id=\"stim\">4</p>", "internal_node_id": "0.0-141.0-6.0", "time_elapsed": 909958, "key_press": -1, "trial_index": 192}, "uniqueid": "MTK3611:3B4YI393VA34IMP0R218G7W70SHSSN", "dateTime": 1520808918721}, {"current_trial": 193, "trialdata": {"rt": -1, "trial_type": "single-stim", "stimulus": "<p id=\"stim\">3</p>", "internal_node_id": "0.0-141.0-7.0", "time_elapsed": 910958, "key_press": -1, "trial_index": 193}, "uniqueid": "MTK3611:3B4YI393VA34IMP0R218G7W70SHSSN", "dateTime": 1520808919721}, {"current_trial": 194, "trialdata": {"rt": -1, "trial_type": "single-stim", "stimulus": "<p id=\"stim\">2</p>", "internal_node_id": "0.0-141.0-8.0", "time_elapsed": 911959, "key_press": -1, "trial_index": 194}, "uniqueid": "MTK3611:3B4YI393VA34IMP0R218G7W70SHSSN", "dateTime": 1520808920723}, {"current_trial": 195, "trialdata": {"rt": -1, "trial_type": "single-stim", "stimulus": "<p id=\"stim\">1</p>", "internal_node_id": "0.0-141.0-9.0", "time_elapsed": 912961, "key_press": -1, "trial_index": 195}, "uniqueid": "MTK3611:3B4YI393VA34IMP0R218G7W70SHSSN", "dateTime": 1520808921724}, {"current_trial": 196, "trialdata": {"rt": -1, "trial_type": "single-stim", "stimulus": "<p id=\"stim\">+</p>", "internal_node_id": "0.0-142.0-0.0", "time_elapsed": 914461, "key_press": -1, "type": "FIXATION", "trial_index": 196}, "uniqueid": "MTK3611:3B4YI393VA34IMP0R218G7W70SHSSN", "dateTime": 1520808923226}, {"current_trial": 197, "trialdata": {"rt": -1000, "trial_type": "single-audio", "word": "bank", "stimulus": "/static/audio/wordpool/BANK.wav", "conditions": [24, 1600, "a", 24000], "internal_node_id": "0.0-143.0", "trial": 5, "time_elapsed": 916960, "serialpos": 0, "key_press": -1, "wordID": 82, "type": "PRES_AUD", "trial_index": 197}, "uniqueid": "MTK3611:3B4YI393VA34IMP0R218G7W70SHSSN", "dateTime": 1520808925723}, {"current_trial": 198, "trialdata": {"rt": -1000, "trial_type": "single-audio", "word": "twister", "stimulus": "/static/audio/wordpool/TWISTER.wav", "conditions": [24, 1600, "a", 24000], "internal_node_id": "0.0-144.0", "trial": 5, "time_elapsed": 919628, "serialpos": 1, "key_press": -1, "wordID": 1529, "type": "PRES_AUD", "trial_index": 198}, "uniqueid": "MTK3611:3B4YI393VA34IMP0R218G7W70SHSSN", "dateTime": 1520808928391}, {"current_trial": 199, "trialdata": {"rt": -1000, "trial_type": "single-audio", "word": "rug", "stimulus": "/static/audio/wordpool/RUG.wav", "conditions": [24, 1600, "a", 24000], "internal_node_id": "0.0-145.0", "trial": 5, "time_elapsed": 922053, "serialpos": 2, "key_press": -1, "wordID": 1214, "type": "PRES_AUD", "trial_index": 199}, "uniqueid": "MTK3611:3B4YI393VA34IMP0R218G7W70SHSSN", "dateTime": 1520808930816}, {"current_trial": 200, "trialdata": {"rt": -1000, "trial_type": "single-audio", "word": "branch", "stimulus": "/static/audio/wordpool/BRANCH.wav", "conditions": [24, 1600, "a", 24000], "internal_node_id": "0.0-146.0", "trial": 5, "time_elapsed": 924620, "serialpos": 3, "key_press": -1, "wordID": 167, "type": "PRES_AUD", "trial_index": 200}, "uniqueid": "MTK3611:3B4YI393VA34IMP0R218G7W70SHSSN", "dateTime": 1520808933383}, {"current_trial": 201, "trialdata": {"rt": -1000, "trial_type": "single-audio", "word": "ozone", "stimulus": "/static/audio/wordpool/OZONE.wav", "conditions": [24, 1600, "a", 24000], "internal_node_id": "0.0-147.0", "trial": 5, "time_elapsed": 927145, "serialpos": 4, "key_press": -1, "wordID": 995, "type": "PRES_AUD", "trial_index": 201}, "uniqueid": "MTK3611:3B4YI393VA34IMP0R218G7W70SHSSN", "dateTime": 1520808935908}, {"current_trial": 202, "trialdata": {"rt": -1000, "trial_type": "single-audio", "word": "soda", "stimulus": "/static/audio/wordpool/SODA.wav", "conditions": [24, 1600, "a", 24000], "internal_node_id": "0.0-148.0", "trial": 5, "time_elapsed": 929555, "serialpos": 5, "key_press": -1, "wordID": 1340, "type": "PRES_AUD", "trial_index": 202}, "uniqueid": "MTK3611:3B4YI393VA34IMP0R218G7W70SHSSN", "dateTime": 1520808938318}, {"current_trial": 203, "trialdata": {"rt": -1000, "trial_type": "single-audio", "word": "smog", "stimulus": "/static/audio/wordpool/SMOG.wav", "conditions": [24, 1600, "a", 24000], "internal_node_id": "0.0-149.0", "trial": 5, "time_elapsed": 932143, "serialpos": 6, "key_press": -1, "wordID": 1329, "type": "PRES_AUD", "trial_index": 203}, "uniqueid": "MTK3611:3B4YI393VA34IMP0R218G7W70SHSSN", "dateTime": 1520808940906}, {"current_trial": 204, "trialdata": {"rt": -1000, "trial_type": "single-audio", "word": "crayon", "stimulus": "/static/audio/wordpool/CRAYON.wav", "conditions": [24, 1600, "a", 24000], "internal_node_id": "0.0-150.0", "trial": 5, "time_elapsed": 934833, "serialpos": 7, "key_press": -1, "wordID": 400, "type": "PRES_AUD", "trial_index": 204}, "uniqueid": "MTK3611:3B4YI393VA34IMP0R218G7W70SHSSN", "dateTime": 1520808943596}, {"current_trial": 205, "trialdata": {"rt": -1000, "trial_type": "single-audio", "word": "valley", "stimulus": "/static/audio/wordpool/VALLEY.wav", "conditions": [24, 1600, "a", 24000], "internal_node_id": "0.0-151.0", "trial": 5, "time_elapsed": 937550, "serialpos": 8, "key_press": -1, "wordID": 1544, "type": "PRES_AUD", "trial_index": 205}, "uniqueid": "MTK3611:3B4YI393VA34IMP0R218G7W70SHSSN", "dateTime": 1520808946313}, {"current_trial": 206, "trialdata": {"rt": -1000, "trial_type": "single-audio", "word": "canyon", "stimulus": "/static/audio/wordpool/CANYON.wav", "conditions": [24, 1600, "a", 24000], "internal_node_id": "0.0-152.0", "trial": 5, "time_elapsed": 939977, "serialpos": 9, "key_press": -1, "wordID": 234, "type": "PRES_AUD", "trial_index": 206}, "uniqueid": "MTK3611:3B4YI393VA34IMP0R218G7W70SHSSN", "dateTime": 1520808948740}, {"current_trial": 207, "trialdata": {"rt": -1000, "trial_type": "single-audio", "word": "handbag", "stimulus": "/static/audio/wordpool/HANDBAG.wav", "conditions": [24, 1600, "a", 24000], "internal_node_id": "0.0-153.0", "trial": 5, "time_elapsed": 942555, "serialpos": 10, "key_press": -1, "wordID": 683, "type": "PRES_AUD", "trial_index": 207}, "uniqueid": "MTK3611:3B4YI393VA34IMP0R218G7W70SHSSN", "dateTime": 1520808951318}, {"current_trial": 208, "trialdata": {"rt": -1000, "trial_type": "single-audio", "word": "notebook", "stimulus": "/static/audio/wordpool/NOTEBOOK.wav", "conditions": [24, 1600, "a", 24000], "internal_node_id": "0.0-154.0", "trial": 5, "time_elapsed": 944981, "serialpos": 11, "key_press": -1, "wordID": 958, "type": "PRES_AUD", "trial_index": 208}, "uniqueid": "MTK3611:3B4YI393VA34IMP0R218G7W70SHSSN", "dateTime": 1520808953744}, {"current_trial": 209, "trialdata": {"rt": -1000, "trial_type": "single-audio", "word": "popcorn", "stimulus": "/static/audio/wordpool/POPCORN.wav", "conditions": [24, 1600, "a", 24000], "internal_node_id": "0.0-155.0", "trial": 5, "time_elapsed": 947727, "serialpos": 12, "key_press": -1, "wordID": 1103, "type": "PRES_AUD", "trial_index": 209}, "uniqueid": "MTK3611:3B4YI393VA34IMP0R218G7W70SHSSN", "dateTime": 1520808956490}, {"current_trial": 210, "trialdata": {"rt": -1000, "trial_type": "single-audio", "word": "scallop", "stimulus": "/static/audio/wordpool/SCALLOP.wav", "conditions": [24, 1600, "a", 24000], "internal_node_id": "0.0-156.0", "trial": 5, "time_elapsed": 950424, "serialpos": 13, "key_press": -1, "wordID": 1241, "type": "PRES_AUD", "trial_index": 210}, "uniqueid": "MTK3611:3B4YI393VA34IMP0R218G7W70SHSSN", "dateTime": 1520808959187}, {"current_trial": 211, "trialdata": {"rt": -1000, "trial_type": "single-audio", "word": "sunset", "stimulus": "/static/audio/wordpool/SUNSET.wav", "conditions": [24, 1600, "a", 24000], "internal_node_id": "0.0-157.0", "trial": 5, "time_elapsed": 952837, "serialpos": 14, "key_press": -1, "wordID": 1407, "type": "PRES_AUD", "trial_index": 211}, "uniqueid": "MTK3611:3B4YI393VA34IMP0R218G7W70SHSSN", "dateTime": 1520808961600}, {"current_trial": 212, "trialdata": {"rt": -1000, "trial_type": "single-audio", "word": "pizza", "stimulus": "/static/audio/wordpool/PIZZA.wav", "conditions": [24, 1600, "a", 24000], "internal_node_id": "0.0-158.0", "trial": 5, "time_elapsed": 955298, "serialpos": 15, "key_press": -1, "wordID": 1078, "type": "PRES_AUD", "trial_index": 212}, "uniqueid": "MTK3611:3B4YI393VA34IMP0R218G7W70SHSSN", "dateTime": 1520808964061}, {"current_trial": 213, "trialdata": {"rt": -1000, "trial_type": "single-audio", "word": "diner", "stimulus": "/static/audio/wordpool/DINER.wav", "conditions": [24, 1600, "a", 24000], "internal_node_id": "0.0-159.0", "trial": 5, "time_elapsed": 957949, "serialpos": 16, "key_press": -1, "wordID": 466, "type": "PRES_AUD", "trial_index": 213}, "uniqueid": "MTK3611:3B4YI393VA34IMP0R218G7W70SHSSN", "dateTime": 1520808966712}, {"current_trial": 214, "trialdata": {"rt": -1000, "trial_type": "single-audio", "word": "hatchet", "stimulus": "/static/audio/wordpool/HATCHET.wav", "conditions": [24, 1600, "a", 24000], "internal_node_id": "0.0-160.0", "trial": 5, "time_elapsed": 960693, "serialpos": 17, "key_press": -1, "wordID": 690, "type": "PRES_AUD", "trial_index": 214}, "uniqueid": "MTK3611:3B4YI393VA34IMP0R218G7W70SHSSN", "dateTime": 1520808969456}, {"current_trial": 215, "trialdata": {"rt": -1000, "trial_type": "single-audio", "word": "relish", "stimulus": "/static/audio/wordpool/RELISH.wav", "conditions": [24, 1600, "a", 24000], "internal_node_id": "0.0-161.0", "trial": 5, "time_elapsed": 963098, "serialpos": 18, "key_press": -1, "wordID": 1182, "type": "PRES_AUD", "trial_index": 215}, "uniqueid": "MTK3611:3B4YI393VA34IMP0R218G7W70SHSSN", "dateTime": 1520808971861}, {"current_trial": 216, "trialdata": {"rt": -1000, "trial_type": "single-audio", "word": "piano", "stimulus": "/static/audio/wordpool/PIANO.wav", "conditions": [24, 1600, "a", 24000], "internal_node_id": "0.0-162.0", "trial": 5, "time_elapsed": 965794, "serialpos": 19, "key_press": -1, "wordID": 1056, "type": "PRES_AUD", "trial_index": 216}, "uniqueid": "MTK3611:3B4YI393VA34IMP0R218G7W70SHSSN", "dateTime": 1520808974557}, {"current_trial": 217, "trialdata": {"rt": -1000, "trial_type": "single-audio", "word": "cocktail", "stimulus": "/static/audio/wordpool/COCKTAIL.wav", "conditions": [24, 1600, "a", 24000], "internal_node_id": "0.0-163.0", "trial": 5, "time_elapsed": 968209, "serialpos": 20, "key_press": -1, "wordID": 337, "type": "PRES_AUD", "trial_index": 217}, "uniqueid": "MTK3611:3B4YI393VA34IMP0R218G7W70SHSSN", "dateTime": 1520808976972}, {"current_trial": 218, "trialdata": {"rt": -1000, "trial_type": "single-audio", "word": "parrot", "stimulus": "/static/audio/wordpool/PARROT.wav", "conditions": [24, 1600, "a", 24000], "internal_node_id": "0.0-164.0", "trial": 5, "time_elapsed": 970802, "serialpos": 21, "key_press": -1, "wordID": 1014, "type": "PRES_AUD", "trial_index": 218}, "uniqueid": "MTK3611:3B4YI393VA34IMP0R218G7W70SHSSN", "dateTime": 1520808979565}, {"current_trial": 219, "trialdata": {"rt": -1000, "trial_type": "single-audio", "word": "cafe", "stimulus": "/static/audio/wordpool/CAFE.wav", "conditions": [24, 1600, "a", 24000], "internal_node_id": "0.0-165.0", "trial": 5, "time_elapsed": 973465, "serialpos": 22, "key_press": -1, "wordID": 215, "type": "PRES_AUD", "trial_index": 219}, "uniqueid": "MTK3611:3B4YI393VA34IMP0R218G7W70SHSSN", "dateTime": 1520808982228}, {"current_trial": 220, "trialdata": {"rt": -1000, "trial_type": "single-audio", "word": "sunrise", "stimulus": "/static/audio/wordpool/SUNRISE.wav", "conditions": [24, 1600, "a", 24000], "internal_node_id": "0.0-166.0", "trial": 5, "time_elapsed": 975881, "serialpos": 23, "key_press": -1, "wordID": 1406, "type": "PRES_AUD", "trial_index": 220}, "uniqueid": "MTK3611:3B4YI393VA34IMP0R218G7W70SHSSN", "dateTime": 1520808984644}, {"current_trial": 221, "trialdata": {"rt": -1, "trial_type": "single-stim", "stimulus": "", "internal_node_id": "0.0-167.0-0.0", "time_elapsed": 977176, "key_press": -1, "type": "PRE_RECALL_DELAY", "trial_index": 221}, "uniqueid": "MTK3611:3B4YI393VA34IMP0R218G7W70SHSSN", "dateTime": 1520808985939}, {"current_trial": 222, "trialdata": {"rt": -1000, "trial_type": "single-audio", "stimulus": "/static/audio/400Hz.wav", "internal_node_id": "0.0-168.0", "time_elapsed": 977677, "key_press": -1, "type": "PRE_RECALL_ALERT", "trial_index": 222}, "uniqueid": "MTK3611:3B4YI393VA34IMP0R218G7W70SHSSN", "dateTime": 1520808986440}, {"current_trial": 223, "trialdata": {"rt": [6715, 8804, 10875, 14580, 18187, 21212, 26764, 34939, 37835], "recwords": ["sunset", "sunrise", "parrot", "pizza", "cafe", "diner", "relish", "handbag", "notebook"], "key_times": [2321, 2467, 2739, 3003, 3283, 4459, 4939, 5796, 6715, 7155, 7356, 7588, 7828, 8028, 8260, 8468, 8804, 9212, 9468, 9835, 10028, 10260, 10404, 10875, 12748, 13308, 13660, 13851, 14154, 14580, 15043, 15315, 15755, 16026, 16715, 17027, 17250, 18187, 20211, 20396, 20635, 20835, 21035, 21212, 22539, 22835, 23067, 23989, 24268, 24620, 24804, 25156, 25404, 25772, 25932, 26076, 26764, 32636, 32844, 32996, 33300, 33787, 34075, 34371, 34939, 35475, 35868, 36004, 36259, 36635, 36859, 37043, 37371, 37835], "trial_type": "free-recall", "conditions": [24, 1600, "a", 24000], "internal_node_id": "0.0-169.0-0.0", "key_presses": [83, 85, 78, 83, 84, 37, 69, 39, 13, 83, 85, 78, 82, 73, 83, 69, 13, 80, 65, 82, 82, 79, 84, 13, 80, 73, 90, 90, 65, 13, 67, 65, 70, 84, 37, 46, 69, 32, 68, 73, 78, 69, 82, 13, 82, 73, 83, 37, 37, 46, 46, 69, 76, 73, 83, 72, 13, 72, 65, 78, 68, 66, 65, 71, 13, 78, 79, 84, 69, 66, 79, 79, 75, 13], "trial": 5, "time_elapsed": 1037682, "type": "FREE_RECALL", "trial_index": 223}, "uniqueid": "MTK3611:3B4YI393VA34IMP0R218G7W70SHSSN", "dateTime": 1520809046450}, {"current_trial": 224, "trialdata": {"rt": 3604, "trial_type": "text", "internal_node_id": "0.0-170.0", "time_elapsed": 1043293, "key_press": 72, "type": "INSTRUCTIONS", "trial_index": 224}, "uniqueid": "MTK3611:3B4YI393VA34IMP0R218G7W70SHSSN", "dateTime": 1520809052056}, {"current_trial": 225, "trialdata": {"rt": [2181, 4750, 6893, 8901, 11063], "trial_type": "math-distractor", "key_times": [1565, 1805, 2181, 4005, 4261, 4750, 6245, 6518, 6893, 8325, 8541, 8901, 10422, 10670, 11063], "responses": ["14", "12", "16", "14", "16"], "num2": [6, 6, 6, 5, 1, 7], "num3": [3, 1, 1, 7, 6, 6], "conditions": [24, 1600, "a", 12000], "internal_node_id": "0.0-171.0", "key_presses": [97, 100, 13, 97, 98, 13, 97, 102, 13, 97, 100, 13, 97, 102, 13], "trial": 6, "time_elapsed": 1057296, "type": "DISTRACTOR", "trial_index": 225, "num1": [5, 5, 9, 2, 9, 2]}, "uniqueid": "MTK3611:3B4YI393VA34IMP0R218G7W70SHSSN", "dateTime": 1520809066059}, {"current_trial": 226, "trialdata": {"rt": -1, "trial_type": "single-stim", "stimulus": "<p id=\"stim\">10</p>", "internal_node_id": "0.0-172.0-0.0", "time_elapsed": 1060295, "key_press": -1, "trial_index": 226}, "uniqueid": "MTK3611:3B4YI393VA34IMP0R218G7W70SHSSN", "dateTime": 1520809069059}, {"current_trial": 227, "trialdata": {"rt": -1, "trial_type": "single-stim", "stimulus": "<p id=\"stim\">9</p>", "internal_node_id": "0.0-172.0-1.0", "time_elapsed": 1061297, "key_press": -1, "trial_index": 227}, "uniqueid": "MTK3611:3B4YI393VA34IMP0R218G7W70SHSSN", "dateTime": 1520809070061}, {"current_trial": 228, "trialdata": {"rt": -1, "trial_type": "single-stim", "stimulus": "<p id=\"stim\">8</p>", "internal_node_id": "0.0-172.0-2.0", "time_elapsed": 1062298, "key_press": -1, "trial_index": 228}, "uniqueid": "MTK3611:3B4YI393VA34IMP0R218G7W70SHSSN", "dateTime": 1520809071062}, {"current_trial": 229, "trialdata": {"rt": -1, "trial_type": "single-stim", "stimulus": "<p id=\"stim\">7</p>", "internal_node_id": "0.0-172.0-3.0", "time_elapsed": 1063298, "key_press": -1, "trial_index": 229}, "uniqueid": "MTK3611:3B4YI393VA34IMP0R218G7W70SHSSN", "dateTime": 1520809072061}, {"current_trial": 230, "trialdata": {"rt": -1, "trial_type": "single-stim", "stimulus": "<p id=\"stim\">6</p>", "internal_node_id": "0.0-172.0-4.0", "time_elapsed": 1064300, "key_press": -1, "trial_index": 230}, "uniqueid": "MTK3611:3B4YI393VA34IMP0R218G7W70SHSSN", "dateTime": 1520809073066}, {"current_trial": 231, "trialdata": {"rt": -1, "trial_type": "single-stim", "stimulus": "<p id=\"stim\">5</p>", "internal_node_id": "0.0-172.0-5.0", "time_elapsed": 1065303, "key_press": -1, "trial_index": 231}, "uniqueid": "MTK3611:3B4YI393VA34IMP0R218G7W70SHSSN", "dateTime": 1520809074066}, {"current_trial": 232, "trialdata": {"rt": -1, "trial_type": "single-stim", "stimulus": "<p id=\"stim\">4</p>", "internal_node_id": "0.0-172.0-6.0", "time_elapsed": 1066304, "key_press": -1, "trial_index": 232}, "uniqueid": "MTK3611:3B4YI393VA34IMP0R218G7W70SHSSN", "dateTime": 1520809075067}, {"current_trial": 233, "trialdata": {"rt": -1, "trial_type": "single-stim", "stimulus": "<p id=\"stim\">3</p>", "internal_node_id": "0.0-172.0-7.0", "time_elapsed": 1067305, "key_press": -1, "trial_index": 233}, "uniqueid": "MTK3611:3B4YI393VA34IMP0R218G7W70SHSSN", "dateTime": 1520809076068}, {"current_trial": 234, "trialdata": {"rt": -1, "trial_type": "single-stim", "stimulus": "<p id=\"stim\">2</p>", "internal_node_id": "0.0-172.0-8.0", "time_elapsed": 1068306, "key_press": -1, "trial_index": 234}, "uniqueid": "MTK3611:3B4YI393VA34IMP0R218G7W70SHSSN", "dateTime": 1520809077069}, {"current_trial": 235, "trialdata": {"rt": -1, "trial_type": "single-stim", "stimulus": "<p id=\"stim\">1</p>", "internal_node_id": "0.0-172.0-9.0", "time_elapsed": 1069307, "key_press": -1, "trial_index": 235}, "uniqueid": "MTK3611:3B4YI393VA34IMP0R218G7W70SHSSN", "dateTime": 1520809078071}, {"current_trial": 236, "trialdata": {"rt": -1, "trial_type": "single-stim", "stimulus": "<p id=\"stim\">+</p>", "internal_node_id": "0.0-173.0-0.0", "time_elapsed": 1070808, "key_press": -1, "type": "FIXATION", "trial_index": 236}, "uniqueid": "MTK3611:3B4YI393VA34IMP0R218G7W70SHSSN", "dateTime": 1520809079571}, {"current_trial": 237, "trialdata": {"rt": -1000, "trial_type": "single-audio", "word": "cottage", "stimulus": "/static/audio/wordpool/COTTAGE.wav", "conditions": [24, 1600, "a", 12000], "internal_node_id": "0.0-174.0", "trial": 6, "time_elapsed": 1073367, "serialpos": 0, "key_press": -1, "wordID": 383, "type": "PRES_AUD", "trial_index": 237}, "uniqueid": "MTK3611:3B4YI393VA34IMP0R218G7W70SHSSN", "dateTime": 1520809082130}, {"current_trial": 238, "trialdata": {"rt": -1000, "trial_type": "single-audio", "word": "cabin", "stimulus": "/static/audio/wordpool/CABIN.wav", "conditions": [24, 1600, "a", 12000], "internal_node_id": "0.0-175.0", "trial": 6, "time_elapsed": 1076039, "serialpos": 1, "key_press": -1, "wordID": 210, "type": "PRES_AUD", "trial_index": 238}, "uniqueid": "MTK3611:3B4YI393VA34IMP0R218G7W70SHSSN", "dateTime": 1520809084802}, {"current_trial": 239, "trialdata": {"rt": -1000, "trial_type": "single-audio", "word": "airplane", "stimulus": "/static/audio/wordpool/AIRPLANE.wav", "conditions": [24, 1600, "a", 12000], "internal_node_id": "0.0-176.0", "trial": 6, "time_elapsed": 1078487, "serialpos": 2, "key_press": -1, "wordID": 11, "type": "PRES_AUD", "trial_index": 239}, "uniqueid": "MTK3611:3B4YI393VA34IMP0R218G7W70SHSSN", "dateTime": 1520809087250}, {"current_trial": 240, "trialdata": {"rt": -1000, "trial_type": "single-audio", "word": "baby", "stimulus": "/static/audio/wordpool/BABY.wav", "conditions": [24, 1600, "a", 12000], "internal_node_id": "0.0-177.0", "trial": 6, "time_elapsed": 1081142, "serialpos": 3, "key_press": -1, "wordID": 63, "type": "PRES_AUD", "trial_index": 240}, "uniqueid": "MTK3611:3B4YI393VA34IMP0R218G7W70SHSSN", "dateTime": 1520809089905}, {"current_trial": 241, "trialdata": {"rt": -1000, "trial_type": "single-audio", "word": "daughter", "stimulus": "/static/audio/wordpool/DAUGHTER.wav", "conditions": [24, 1600, "a", 12000], "internal_node_id": "0.0-178.0", "trial": 6, "time_elapsed": 1083780, "serialpos": 4, "key_press": -1, "wordID": 441, "type": "PRES_AUD", "trial_index": 241}, "uniqueid": "MTK3611:3B4YI393VA34IMP0R218G7W70SHSSN", "dateTime": 1520809092543}, {"current_trial": 242, "trialdata": {"rt": -1000, "trial_type": "single-audio", "word": "plaid", "stimulus": "/static/audio/wordpool/PLAID.wav", "conditions": [24, 1600, "a", 12000], "internal_node_id": "0.0-179.0", "trial": 6, "time_elapsed": 1086190, "serialpos": 5, "key_press": -1, "wordID": 1079, "type": "PRES_AUD", "trial_index": 242}, "uniqueid": "MTK3611:3B4YI393VA34IMP0R218G7W70SHSSN", "dateTime": 1520809094953}, {"current_trial": 243, "trialdata": {"rt": -1000, "trial_type": "single-audio", "word": "ground", "stimulus": "/static/audio/wordpool/GROUND.wav", "conditions": [24, 1600, "a", 12000], "internal_node_id": "0.0-180.0", "trial": 6, "time_elapsed": 1088834, "serialpos": 6, "key_press": -1, "wordID": 665, "type": "PRES_AUD", "trial_index": 243}, "uniqueid": "MTK3611:3B4YI393VA34IMP0R218G7W70SHSSN", "dateTime": 1520809097597}, {"current_trial": 244, "trialdata": {"rt": -1000, "trial_type": "single-audio", "word": "taxi", "stimulus": "/static/audio/wordpool/TAXI.wav", "conditions": [24, 1600, "a", 12000], "internal_node_id": "0.0-181.0", "trial": 6, "time_elapsed": 1091564, "serialpos": 7, "key_press": -1, "wordID": 1437, "type": "PRES_AUD", "trial_index": 244}, "uniqueid": "MTK3611:3B4YI393VA34IMP0R218G7W70SHSSN", "dateTime": 1520809100327}, {"current_trial": 245, "trialdata": {"rt": -1000, "trial_type": "single-audio", "word": "outlaw", "stimulus": "/static/audio/wordpool/OUTLAW.wav", "conditions": [24, 1600, "a", 12000], "internal_node_id": "0.0-182.0", "trial": 6, "time_elapsed": 1094199, "serialpos": 8, "key_press": -1, "wordID": 988, "type": "PRES_AUD", "trial_index": 245}, "uniqueid": "MTK3611:3B4YI393VA34IMP0R218G7W70SHSSN", "dateTime": 1520809102962}, {"current_trial": 246, "trialdata": {"rt": -1000, "trial_type": "single-audio", "word": "denim", "stimulus": "/static/audio/wordpool/DENIM.wav", "conditions": [24, 1600, "a", 12000], "internal_node_id": "0.0-183.0", "trial": 6, "time_elapsed": 1096993, "serialpos": 9, "key_press": -1, "wordID": 445, "type": "PRES_AUD", "trial_index": 246}, "uniqueid": "MTK3611:3B4YI393VA34IMP0R218G7W70SHSSN", "dateTime": 1520809105756}, {"current_trial": 247, "trialdata": {"rt": -1000, "trial_type": "single-audio", "word": "leg", "stimulus": "/static/audio/wordpool/LEG.wav", "conditions": [24, 1600, "a", 12000], "internal_node_id": "0.0-184.0", "trial": 6, "time_elapsed": 1099433, "serialpos": 10, "key_press": -1, "wordID": 808, "type": "PRES_AUD", "trial_index": 247}, "uniqueid": "MTK3611:3B4YI393VA34IMP0R218G7W70SHSSN", "dateTime": 1520809108196}, {"current_trial": 248, "trialdata": {"rt": -1000, "trial_type": "single-audio", "word": "statue", "stimulus": "/static/audio/wordpool/STATUE.wav", "conditions": [24, 1600, "a", 12000], "internal_node_id": "0.0-185.0", "trial": 6