{"assignmentId": "3MMN5BL1W0BX0ARGHQ4LWQPPGMO3MG", "workerId": "MTK3592", "questiondata": {"origin": "United States", "strat-rehearsal": "8", "marital": "Single", "education": "Bachelor's degree", "ethnicity": "Not Hispanic", "color_depth": 24, "distracted": "No", "wrote-notes": "Yes", "strat-other": "", "screen_width": 1280, "avail_screen_width": 1280, "avail_screen_height": 800, "strat-image": "79", "language": "English", "gender": "Male", "age": "29", "gender_other": "", "race": ["White"], "strat-categorize": "88", "pixel_depth": 24, "strat-spatial": "51", "strat-story": "60", "race_other": "", "screen_height": 800}, "bonus": 0, "hitId": "341YLJU21I6KWP7C29NMW3HW8N72I7", "counterbalance": 310, "useragent": "Mozilla/5.0 (Windows NT 6.1; Win64; x64) AppleWebKit/537.36 (KHTML, like Gecko) Chrome/63.0.3239.132 Safari/537.36", "eventdata": [{"eventtype": "initialized", "interval": 0, "value": null, "timestamp": 1520797537742}, {"eventtype": "window_resize", "interval": 0, "value": [1283, 753], "timestamp": 1520797537742}, {"eventtype": "window_resize", "interval": 9461, "value": [1280, 750], "timestamp": 1520797547203}, {"eventtype": "focus", "interval": 2087039, "value": "off", "timestamp": 1520799634242}, {"eventtype": "focus", "interval": 5638, "value": "on", "timestamp": 1520799639880}, {"eventtype": "focus", "interval": 545303, "value": "off", "timestamp": 1520800185183}, {"eventtype": "focus", "interval": 48959, "value": "on", "timestamp": 1520800234142}, {"eventtype": "focus", "interval": 5631, "value": "off", "timestamp": 1520800239773}, {"eventtype": "focus", "interval": 15022, "value": "on", "timestamp": 1520800254795}, {"eventtype": "focus", "interval": 15901, "value": "off", "timestamp": 1520800270696}, {"eventtype": "focus", "interval": 461515, "value": "on", "timestamp": 1520800732211}], "data": [{"current_trial": 0, "trialdata": {"rt": 4548, "trial_type": "text", "internal_node_id": "0.0-0.0", "time_elapsed": 4549, "key_press": 71, "type": "INSTRUCTIONS", "trial_index": 0}, "uniqueid": "MTK3592:3MMN5BL1W0BX0ARGHQ4LWQPPGMO3MG", "dateTime": 1520797542764}, {"current_trial": 1, "trialdata": {"rt": 21783, "trial_type": "text", "internal_node_id": "0.0-1.0", "time_elapsed": 26333, "key_press": 13, "type": "INSTRUCTIONS", "trial_index": 1}, "uniqueid": "MTK3592:3MMN5BL1W0BX0ARGHQ4LWQPPGMO3MG", "dateTime": 1520797564548}, {"current_trial": 2, "trialdata": {"rt": [5272], "trial_type": "audio-test", "responses": ["ocean"], "internal_node_id": "0.0-2.0", "time_elapsed": 31621, "type": "AUDIO_TEST", "trial_index": 2}, "uniqueid": "MTK3592:3MMN5BL1W0BX0ARGHQ4LWQPPGMO3MG", "dateTime": 1520797569836}, {"current_trial": 3, "trialdata": {"rt": [5205], "trial_type": "audio-test", "responses": ["crystal"], "internal_node_id": "0.0-3.0", "time_elapsed": 36833, "type": "AUDIO_TEST", "trial_index": 3}, "uniqueid": "MTK3592:3MMN5BL1W0BX0ARGHQ4LWQPPGMO3MG", "dateTime": 1520797575048}, {"current_trial": 4, "trialdata": {"rt": [3451], "trial_type": "audio-test", "responses": ["spice"], "internal_node_id": "0.0-4.0", "time_elapsed": 40295, "type": "AUDIO_TEST", "trial_index": 4}, "uniqueid": "MTK3592:3MMN5BL1W0BX0ARGHQ4LWQPPGMO3MG", "dateTime": 1520797578510}, {"current_trial": 5, "trialdata": {"rt": 17971, "trial_type": "survey-text", "responses": "{\"Q0\":\"10:30 PM\",\"Q1\":\"8:30 AM\",\"Q2\":\"3\"}", "internal_node_id": "0.0-5.0", "time_elapsed": 59022, "type": "SLEEP_SURVEY", "trial_index": 5}, "uniqueid": "MTK3592:3MMN5BL1W0BX0ARGHQ4LWQPPGMO3MG", "dateTime": 1520797597237}, {"current_trial": 6, "trialdata": {"rt": 32984, "trial_type": "text", "internal_node_id": "0.0-6.0", "time_elapsed": 93008, "key_press": 32, "type": "INSTRUCTIONS", "trial_index": 6}, "uniqueid": "MTK3592:3MMN5BL1W0BX0ARGHQ4LWQPPGMO3MG", "dateTime": 1520797631223}, {"current_trial": 7, "trialdata": {"rt": 11615, "trial_type": "text", "internal_node_id": "0.0-7.0", "time_elapsed": 105125, "key_press": 32, "type": "INSTRUCTIONS", "trial_index": 7}, "uniqueid": "MTK3592:3MMN5BL1W0BX0ARGHQ4LWQPPGMO3MG", "dateTime": 1520797643340}, {"current_trial": 8, "trialdata": {"rt": 6931, "trial_type": "text", "internal_node_id": "0.0-8.0", "time_elapsed": 112557, "key_press": 32, "type": "INSTRUCTIONS", "trial_index": 8}, "uniqueid": "MTK3592:3MMN5BL1W0BX0ARGHQ4LWQPPGMO3MG", "dateTime": 1520797650772}, {"current_trial": 9, "trialdata": {"rt": [2934, 4718, 9838, 12925, 15926, 17710], "trial_type": "math-distractor", "key_times": [2263, 2663, 2934, 4190, 4334, 4718, 7374, 7518, 9838, 12526, 12686, 12925, 15478, 15622, 15926, 17294, 17454, 17710], "responses": ["17", "18", "19", "11", "15", "19"], "num2": [6, 4, 5, 1, 3, 9, 6], "num3": [7, 8, 8, 8, 6, 1, 7], "conditions": [18, 1200, "v", 18000], "internal_node_id": "0.0-9.0", "key_presses": [49, 55, 13, 49, 56, 13, 49, 57, 13, 49, 49, 13, 49, 53, 13, 49, 57, 13], "trial": 0, "time_elapsed": 131567, "type": "DISTRACTOR", "trial_index": 9, "num1": [4, 6, 6, 2, 6, 9, 5]}, "uniqueid": "MTK3592:3MMN5BL1W0BX0ARGHQ4LWQPPGMO3MG", "dateTime": 1520797669782}, {"current_trial": 10, "trialdata": {"rt": -1, "trial_type": "single-stim", "stimulus": "<p id=\"stim\">10</p>", "internal_node_id": "0.0-10.0-0.0", "time_elapsed": 134569, "key_press": -1, "trial_index": 10}, "uniqueid": "MTK3592:3MMN5BL1W0BX0ARGHQ4LWQPPGMO3MG", "dateTime": 1520797672784}, {"current_trial": 11, "trialdata": {"rt": -1, "trial_type": "single-stim", "stimulus": "<p id=\"stim\">9</p>", "internal_node_id": "0.0-10.0-1.0", "time_elapsed": 135569, "key_press": -1, "trial_index": 11}, "uniqueid": "MTK3592:3MMN5BL1W0BX0ARGHQ4LWQPPGMO3MG", "dateTime": 1520797673784}, {"current_trial": 12, "trialdata": {"rt": -1, "trial_type": "single-stim", "stimulus": "<p id=\"stim\">8</p>", "internal_node_id": "0.0-10.0-2.0", "time_elapsed": 136570, "key_press": -1, "trial_index": 12}, "uniqueid": "MTK3592:3MMN5BL1W0BX0ARGHQ4LWQPPGMO3MG", "dateTime": 1520797674785}, {"current_trial": 13, "trialdata": {"rt": -1, "trial_type": "single-stim", "stimulus": "<p id=\"stim\">7</p>", "internal_node_id": "0.0-10.0-3.0", "time_elapsed": 137576, "key_press": -1, "trial_index": 13}, "uniqueid": "MTK3592:3MMN5BL1W0BX0ARGHQ4LWQPPGMO3MG", "dateTime": 1520797675791}, {"current_trial": 14, "trialdata": {"rt": -1, "trial_type": "single-stim", "stimulus": "<p id=\"stim\">6</p>", "internal_node_id": "0.0-10.0-4.0", "time_elapsed": 138577, "key_press": -1, "trial_index": 14}, "uniqueid": "MTK3592:3MMN5BL1W0BX0ARGHQ4LWQPPGMO3MG", "dateTime": 1520797676792}, {"current_trial": 15, "trialdata": {"rt": -1, "trial_type": "single-stim", "stimulus": "<p id=\"stim\">5</p>", "internal_node_id": "0.0-10.0-5.0", "time_elapsed": 139578, "key_press": -1, "trial_index": 15}, "uniqueid": "MTK3592:3MMN5BL1W0BX0ARGHQ4LWQPPGMO3MG", "dateTime": 1520797677793}, {"current_trial": 16, "trialdata": {"rt": -1, "trial_type": "single-stim", "stimulus": "<p id=\"stim\">4</p>", "internal_node_id": "0.0-10.0-6.0", "time_elapsed": 140579, "key_press": -1, "trial_index": 16}, "uniqueid": "MTK3592:3MMN5BL1W0BX0ARGHQ4LWQPPGMO3MG", "dateTime": 1520797678794}, {"current_trial": 17, "trialdata": {"rt": -1, "trial_type": "single-stim", "stimulus": "<p id=\"stim\">3</p>", "internal_node_id": "0.0-10.0-7.0", "time_elapsed": 141581, "key_press": -1, "trial_index": 17}, "uniqueid": "MTK3592:3MMN5BL1W0BX0ARGHQ4LWQPPGMO3MG", "dateTime": 1520797679796}, {"current_trial": 18, "trialdata": {"rt": -1, "trial_type": "single-stim", "stimulus": "<p id=\"stim\">2</p>", "internal_node_id": "0.0-10.0-8.0", "time_elapsed": 142583, "key_press": -1, "trial_index": 18}, "uniqueid": "MTK3592:3MMN5BL1W0BX0ARGHQ4LWQPPGMO3MG", "dateTime": 1520797680798}, {"current_trial": 19, "trialdata": {"rt": -1, "trial_type": "single-stim", "stimulus": "<p id=\"stim\">1</p>", "internal_node_id": "0.0-10.0-9.0", "time_elapsed": 143583, "key_press": -1, "trial_index": 19}, "uniqueid": "MTK3592:3MMN5BL1W0BX0ARGHQ4LWQPPGMO3MG", "dateTime": 1520797681799}, {"current_trial": 20, "trialdata": {"rt": -1, "trial_type": "single-stim", "stimulus": "<p id=\"stim\">+</p>", "internal_node_id": "0.0-11.0-0.0", "time_elapsed": 145084, "key_press": -1, "type": "FIXATION", "trial_index": 20}, "uniqueid": "MTK3592:3MMN5BL1W0BX0ARGHQ4LWQPPGMO3MG", "dateTime": 1520797683299}, {"current_trial": 21, "trialdata": {"rt": -1, "trial_type": "single-stim", "word": "whistle", "stimulus": "<p id=\"stim\">WHISTLE</p>", "conditions": [18, 1200, "v", 18000], "internal_node_id": "0.0-12.0", "trial": 0, "time_elapsed": 146285, "serialpos": 0, "key_press": -1, "wordID": 1605, "type": "PRES_VIS", "trial_index": 21}, "uniqueid": "MTK3592:3MMN5BL1W0BX0ARGHQ4LWQPPGMO3MG", "dateTime": 1520797684501}, {"current_trial": 22, "trialdata": {"rt": -1, "trial_type": "single-stim", "word": "cowboy", "stimulus": "<p id=\"stim\">COWBOY</p>", "conditions": [18, 1200, "v", 18000], "internal_node_id": "0.0-13.0", "trial": 0, "time_elapsed": 148602, "serialpos": 1, "key_press": -1, "wordID": 394, "type": "PRES_VIS", "trial_index": 22}, "uniqueid": "MTK3592:3MMN5BL1W0BX0ARGHQ4LWQPPGMO3MG", "dateTime": 1520797686817}, {"current_trial": 23, "trialdata": {"rt": -1, "trial_type": "single-stim", "word": "orange", "stimulus": "<p id=\"stim\">ORANGE</p>", "conditions": [18, 1200, "v", 18000], "internal_node_id": "0.0-14.0", "trial": 0, "time_elapsed": 150995, "serialpos": 2, "key_press": -1, "wordID": 979, "type": "PRES_VIS", "trial_index": 23}, "uniqueid": "MTK3592:3MMN5BL1W0BX0ARGHQ4LWQPPGMO3MG", "dateTime": 1520797689210}, {"current_trial": 24, "trialdata": {"rt": -1, "trial_type": "single-stim", "word": "maple", "stimulus": "<p id=\"stim\">MAPLE</p>", "conditions": [18, 1200, "v", 18000], "internal_node_id": "0.0-15.0", "trial": 0, "time_elapsed": 153129, "serialpos": 3, "key_press": -1, "wordID": 865, "type": "PRES_VIS", "trial_index": 24}, "uniqueid": "MTK3592:3MMN5BL1W0BX0ARGHQ4LWQPPGMO3MG", "dateTime": 1520797691344}, {"current_trial": 25, "trialdata": {"rt": -1, "trial_type": "single-stim", "word": "pecan", "stimulus": "<p id=\"stim\">PECAN</p>", "conditions": [18, 1200, "v", 18000], "internal_node_id": "0.0-16.0", "trial": 0, "time_elapsed": 155446, "serialpos": 4, "key_press": -1, "wordID": 1035, "type": "PRES_VIS", "trial_index": 25}, "uniqueid": "MTK3592:3MMN5BL1W0BX0ARGHQ4LWQPPGMO3MG", "dateTime": 1520797693661}, {"current_trial": 26, "trialdata": {"rt": -1, "trial_type": "single-stim", "word": "airport", "stimulus": "<p id=\"stim\">AIRPORT</p>", "conditions": [18, 1200, "v", 18000], "internal_node_id": "0.0-17.0", "trial": 0, "time_elapsed": 157829, "serialpos": 5, "key_press": -1, "wordID": 12, "type": "PRES_VIS", "trial_index": 26}, "uniqueid": "MTK3592:3MMN5BL1W0BX0ARGHQ4LWQPPGMO3MG", "dateTime": 1520797696044}, {"current_trial": 27, "trialdata": {"rt": -1, "trial_type": "single-stim", "word": "blender", "stimulus": "<p id=\"stim\">BLENDER</p>", "conditions": [18, 1200, "v", 18000], "internal_node_id": "0.0-18.0", "trial": 0, "time_elapsed": 159912, "serialpos": 6, "key_press": -1, "wordID": 135, "type": "PRES_VIS", "trial_index": 27}, "uniqueid": "MTK3592:3MMN5BL1W0BX0ARGHQ4LWQPPGMO3MG", "dateTime": 1520797698127}, {"current_trial": 28, "trialdata": {"rt": -1, "trial_type": "single-stim", "word": "paper", "stimulus": "<p id=\"stim\">PAPER</p>", "conditions": [18, 1200, "v", 18000], "internal_node_id": "0.0-19.0", "trial": 0, "time_elapsed": 162235, "serialpos": 7, "key_press": -1, "wordID": 1010, "type": "PRES_VIS", "trial_index": 28}, "uniqueid": "MTK3592:3MMN5BL1W0BX0ARGHQ4LWQPPGMO3MG", "dateTime": 1520797700451}, {"current_trial": 29, "trialdata": {"rt": -1, "trial_type": "single-stim", "word": "whiskers", "stimulus": "<p id=\"stim\">WHISKERS</p>", "conditions": [18, 1200, "v", 18000], "internal_node_id": "0.0-20.0", "trial": 0, "time_elapsed": 164490, "serialpos": 8, "key_press": -1, "wordID": 1604, "type": "PRES_VIS", "trial_index": 29}, "uniqueid": "MTK3592:3MMN5BL1W0BX0ARGHQ4LWQPPGMO3MG", "dateTime": 1520797702705}, {"current_trial": 30, "trialdata": {"rt": -1, "trial_type": "single-stim", "word": "queen", "stimulus": "<p id=\"stim\">QUEEN</p>", "conditions": [18, 1200, "v", 18000], "internal_node_id": "0.0-21.0", "trial": 0, "time_elapsed": 166835, "serialpos": 9, "key_press": -1, "wordID": 1148, "type": "PRES_VIS", "trial_index": 30}, "uniqueid": "MTK3592:3MMN5BL1W0BX0ARGHQ4LWQPPGMO3MG", "dateTime": 1520797705050}, {"current_trial": 31, "trialdata": {"rt": -1, "trial_type": "single-stim", "word": "canal", "stimulus": "<p id=\"stim\">CANAL</p>", "conditions": [18, 1200, "v", 18000], "internal_node_id": "0.0-22.0", "trial": 0, "time_elapsed": 168961, "serialpos": 10, "key_press": -1, "wordID": 225, "type": "PRES_VIS", "trial_index": 31}, "uniqueid": "MTK3592:3MMN5BL1W0BX0ARGHQ4LWQPPGMO3MG", "dateTime": 1520797707176}, {"current_trial": 32, "trialdata": {"rt": -1, "trial_type": "single-stim", "word": "oyster", "stimulus": "<p id=\"stim\">OYSTER</p>", "conditions": [18, 1200, "v", 18000], "internal_node_id": "0.0-23.0", "trial": 0, "time_elapsed": 171087, "serialpos": 11, "key_press": -1, "wordID": 994, "type": "PRES_VIS", "trial_index": 32}, "uniqueid": "MTK3592:3MMN5BL1W0BX0ARGHQ4LWQPPGMO3MG", "dateTime": 1520797709302}, {"current_trial": 33, "trialdata": {"rt": -1, "trial_type": "single-stim", "word": "daughter", "stimulus": "<p id=\"stim\">DAUGHTER</p>", "conditions": [18, 1200, "v", 18000], "internal_node_id": "0.0-24.0", "trial": 0, "time_elapsed": 173360, "serialpos": 12, "key_press": -1, "wordID": 441, "type": "PRES_VIS", "trial_index": 33}, "uniqueid": "MTK3592:3MMN5BL1W0BX0ARGHQ4LWQPPGMO3MG", "dateTime": 1520797711575}, {"current_trial": 34, "trialdata": {"rt": -1, "trial_type": "single-stim", "word": "compass", "stimulus": "<p id=\"stim\">COMPASS</p>", "conditions": [18, 1200, "v", 18000], "internal_node_id": "0.0-25.0", "trial": 0, "time_elapsed": 175544, "serialpos": 13, "key_press": -1, "wordID": 357, "type": "PRES_VIS", "trial_index": 34}, "uniqueid": "MTK3592:3MMN5BL1W0BX0ARGHQ4LWQPPGMO3MG", "dateTime": 1520797713759}, {"current_trial": 35, "trialdata": {"rt": -1, "trial_type": "single-stim", "word": "casket", "stimulus": "<p id=\"stim\">CASKET</p>", "conditions": [18, 1200, "v", 18000], "internal_node_id": "0.0-26.0", "trial": 0, "time_elapsed": 177769, "serialpos": 14, "key_press": -1, "wordID": 254, "type": "PRES_VIS", "trial_index": 35}, "uniqueid": "MTK3592:3MMN5BL1W0BX0ARGHQ4LWQPPGMO3MG", "dateTime": 1520797715984}, {"current_trial": 36, "trialdata": {"rt": -1, "trial_type": "single-stim", "word": "bacon", "stimulus": "<p id=\"stim\">BACON</p>", "conditions": [18, 1200, "v", 18000], "internal_node_id": "0.0-27.0", "trial": 0, "time_elapsed": 180065, "serialpos": 15, "key_press": -1, "wordID": 66, "type": "PRES_VIS", "trial_index": 36}, "uniqueid": "MTK3592:3MMN5BL1W0BX0ARGHQ4LWQPPGMO3MG", "dateTime": 1520797718280}, {"current_trial": 37, "trialdata": {"rt": -1, "trial_type": "single-stim", "word": "crater", "stimulus": "<p id=\"stim\">CRATER</p>", "conditions": [18, 1200, "v", 18000], "internal_node_id": "0.0-28.0", "trial": 0, "time_elapsed": 182292, "serialpos": 16, "key_press": -1, "wordID": 399, "type": "PRES_VIS", "trial_index": 37}, "uniqueid": "MTK3592:3MMN5BL1W0BX0ARGHQ4LWQPPGMO3MG", "dateTime": 1520797720507}, {"current_trial": 38, "trialdata": {"rt": -1, "trial_type": "single-stim", "word": "seal", "stimulus": "<p id=\"stim\">SEAL</p>", "conditions": [18, 1200, "v", 18000], "internal_node_id": "0.0-29.0", "trial": 0, "time_elapsed": 184511, "serialpos": 17, "key_press": -1, "wordID": 1261, "type": "PRES_VIS", "trial_index": 38}, "uniqueid": "MTK3592:3MMN5BL1W0BX0ARGHQ4LWQPPGMO3MG", "dateTime": 1520797722726}, {"current_trial": 39, "trialdata": {"rt": -1, "trial_type": "single-stim", "stimulus": "", "internal_node_id": "0.0-30.0-0.0", "time_elapsed": 186893, "key_press": -1, "type": "PRE_RECALL_DELAY", "trial_index": 39}, "uniqueid": "MTK3592:3MMN5BL1W0BX0ARGHQ4LWQPPGMO3MG", "dateTime": 1520797725108}, {"current_trial": 40, "trialdata": {"rt": -1000, "trial_type": "single-audio", "stimulus": "/static/audio/400Hz.wav", "internal_node_id": "0.0-31.0", "time_elapsed": 187395, "key_press": -1, "type": "PRE_RECALL_ALERT", "trial_index": 40}, "uniqueid": "MTK3592:3MMN5BL1W0BX0ARGHQ4LWQPPGMO3MG", "dateTime": 1520797725610}, {"current_trial": 41, "trialdata": {"rt": [1360, 2304, 3664, 6448, 8151, 10031, 11896, 28920, 32519], "recwords": ["seal", "orange", "cowboy", "whiskers", "queen", "canal", "oyster", "casket", "bacon"], "key_times": [609, 688, 816, 976, 1360, 1712, 1776, 1824, 1936, 2016, 2080, 2304, 2560, 2736, 2864, 3088, 3248, 3344, 3664, 3792, 3936, 3968, 4096, 4224, 4384, 4640, 4784, 4928, 5512, 5696, 5792, 5840, 5968, 6448, 6872, 7080, 7256, 7383, 7543, 8151, 9103, 9167, 9312, 9456, 9727, 10031, 10319, 10497, 10881, 11024, 11168, 11264, 11896, 28041, 28153, 28265, 28424, 28536, 28632, 28920, 31385, 31480, 31688, 31823, 31887, 32519], "trial_type": "free-recall", "conditions": [18, 1200, "v", 18000], "internal_node_id": "0.0-32.0-0.0", "key_presses": [83, 69, 65, 76, 13, 79, 82, 65, 78, 71, 69, 13, 67, 79, 87, 66, 79, 89, 13, 87, 72, 73, 67, 75, 69, 8, 8, 8, 83, 75, 69, 82, 83, 13, 81, 85, 69, 69, 78, 13, 67, 65, 78, 65, 76, 13, 79, 89, 83, 84, 69, 82, 13, 67, 65, 83, 75, 69, 84, 13, 66, 65, 67, 79, 78, 13], "trial": 0, "time_elapsed": 247398, "type": "FREE_RECALL", "trial_index": 41}, "uniqueid": "MTK3592:3MMN5BL1W0BX0ARGHQ4LWQPPGMO3MG", "dateTime": 1520797785618}, {"current_trial": 42, "trialdata": {"rt": 1522, "trial_type": "text", "internal_node_id": "0.0-33.0", "time_elapsed": 250926, "key_press": 75, "type": "INSTRUCTIONS", "trial_index": 42}, "uniqueid": "MTK3592:3MMN5BL1W0BX0ARGHQ4LWQPPGMO3MG", "dateTime": 1520797789141}, {"current_trial": 43, "trialdata": {"rt": [2334, 11253, 16517], "trial_type": "math-distractor", "key_times": [1990, 2077, 2334, 8950, 9485, 10325, 10997, 11253, 15941, 16230, 16517], "responses": ["12", "20", "16"], "num2": [1, 7, 7, 7], "num3": [2, 9, 4, 7], "conditions": [18, 1200, "v", 18000], "internal_node_id": "0.0-34.0", "key_presses": [49, 50, 13, 50, 57, 8, 48, 13, 49, 54, 13], "trial": 1, "time_elapsed": 270927, "type": "DISTRACTOR", "trial_index": 43, "num1": [9, 4, 5, 5]}, "uniqueid": "MTK3592:3MMN5BL1W0BX0ARGHQ4LWQPPGMO3MG", "dateTime": 1520797809142}, {"current_trial": 44, "trialdata": {"rt": -1, "trial_type": "single-stim", "stimulus": "<p id=\"stim\">10</p>", "internal_node_id": "0.0-35.0-0.0", "time_elapsed": 273928, "key_press": -1, "trial_index": 44}, "uniqueid": "MTK3592:3MMN5BL1W0BX0ARGHQ4LWQPPGMO3MG", "dateTime": 1520797812143}, {"current_trial": 45, "trialdata": {"rt": -1, "trial_type": "single-stim", "stimulus": "<p id=\"stim\">9</p>", "internal_node_id": "0.0-35.0-1.0", "time_elapsed": 274928, "key_press": -1, "trial_index": 45}, "uniqueid": "MTK3592:3MMN5BL1W0BX0ARGHQ4LWQPPGMO3MG", "dateTime": 1520797813143}, {"current_trial": 46, "trialdata": {"rt": -1, "trial_type": "single-stim", "stimulus": "<p id=\"stim\">8</p>", "internal_node_id": "0.0-35.0-2.0", "time_elapsed": 275929, "key_press": -1, "trial_index": 46}, "uniqueid": "MTK3592:3MMN5BL1W0BX0ARGHQ4LWQPPGMO3MG", "dateTime": 1520797814144}, {"current_trial": 47, "trialdata": {"rt": -1, "trial_type": "single-stim", "stimulus": "<p id=\"stim\">7</p>", "internal_node_id": "0.0-35.0-3.0", "time_elapsed": 276930, "key_press": -1, "trial_index": 47}, "uniqueid": "MTK3592:3MMN5BL1W0BX0ARGHQ4LWQPPGMO3MG", "dateTime": 1520797815145}, {"current_trial": 48, "trialdata": {"rt": -1, "trial_type": "single-stim", "stimulus": "<p id=\"stim\">6</p>", "internal_node_id": "0.0-35.0-4.0", "time_elapsed": 277930, "key_press": -1, "trial_index": 48}, "uniqueid": "MTK3592:3MMN5BL1W0BX0ARGHQ4LWQPPGMO3MG", "dateTime": 1520797816146}, {"current_trial": 49, "trialdata": {"rt": -1, "trial_type": "single-stim", "stimulus": "<p id=\"stim\">5</p>", "internal_node_id": "0.0-35.0-5.0", "time_elapsed": 278931, "key_press": -1, "trial_index": 49}, "uniqueid": "MTK3592:3MMN5BL1W0BX0ARGHQ4LWQPPGMO3MG", "dateTime": 1520797817147}, {"current_trial": 50, "trialdata": {"rt": -1, "trial_type": "single-stim", "stimulus": "<p id=\"stim\">4</p>", "internal_node_id": "0.0-35.0-6.0", "time_elapsed": 279933, "key_press": -1, "trial_index": 50}, "uniqueid": "MTK3592:3MMN5BL1W0BX0ARGHQ4LWQPPGMO3MG", "dateTime": 1520797818149}, {"current_trial": 51, "trialdata": {"rt": -1, "trial_type": "single-stim", "stimulus": "<p id=\"stim\">3</p>", "internal_node_id": "0.0-35.0-7.0", "time_elapsed": 280934, "key_press": -1, "trial_index": 51}, "uniqueid": "MTK3592:3MMN5BL1W0BX0ARGHQ4LWQPPGMO3MG", "dateTime": 1520797819149}, {"current_trial": 52, "trialdata": {"rt": -1, "trial_type": "single-stim", "stimulus": "<p id=\"stim\">2</p>", "internal_node_id": "0.0-35.0-8.0", "time_elapsed": 281935, "key_press": -1, "trial_index": 52}, "uniqueid": "MTK3592:3MMN5BL1W0BX0ARGHQ4LWQPPGMO3MG", "dateTime": 1520797820151}, {"current_trial": 53, "trialdata": {"rt": -1, "trial_type": "single-stim", "stimulus": "<p id=\"stim\">1</p>", "internal_node_id": "0.0-35.0-9.0", "time_elapsed": 282936, "key_press": -1, "trial_index": 53}, "uniqueid": "MTK3592:3MMN5BL1W0BX0ARGHQ4LWQPPGMO3MG", "dateTime": 1520797821151}, {"current_trial": 54, "trialdata": {"rt": -1, "trial_type": "single-stim", "stimulus": "<p id=\"stim\">+</p>", "internal_node_id": "0.0-36.0-0.0", "time_elapsed": 284436, "key_press": -1, "type": "FIXATION", "trial_index": 54}, "uniqueid": "MTK3592:3MMN5BL1W0BX0ARGHQ4LWQPPGMO3MG", "dateTime": 1520797822652}, {"current_trial": 55, "trialdata": {"rt": -1, "trial_type": "single-stim", "word": "brick", "stimulus": "<p id=\"stim\">BRICK</p>", "conditions": [18, 1200, "v", 18000], "internal_node_id": "0.0-37.0", "trial": 1, "time_elapsed": 285639, "serialpos": 0, "key_press": -1, "wordID": 171, "type": "PRES_VIS", "trial_index": 55}, "uniqueid": "MTK3592:3MMN5BL1W0BX0ARGHQ4LWQPPGMO3MG", "dateTime": 1520797823854}, {"current_trial": 56, "trialdata": {"rt": -1, "trial_type": "single-stim", "word": "breast", "stimulus": "<p id=\"stim\">BREAST</p>", "conditions": [18, 1200, "v", 18000], "internal_node_id": "0.0-38.0", "trial": 1, "time_elapsed": 287989, "serialpos": 1, "key_press": -1, "wordID": 170, "type": "PRES_VIS", "trial_index": 56}, "uniqueid": "MTK3592:3MMN5BL1W0BX0ARGHQ4LWQPPGMO3MG", "dateTime": 1520797826205}, {"current_trial": 57, "trialdata": {"rt": -1, "trial_type": "single-stim", "word": "student", "stimulus": "<p id=\"stim\">STUDENT</p>", "conditions": [18, 1200, "v", 18000], "internal_node_id": "0.0-39.0", "trial": 1, "time_elapsed": 290364, "serialpos": 2, "key_press": -1, "wordID": 1394, "type": "PRES_VIS", "trial_index": 57}, "uniqueid": "MTK3592:3MMN5BL1W0BX0ARGHQ4LWQPPGMO3MG", "dateTime": 1520797828579}, {"current_trial": 58, "trialdata": {"rt": -1, "trial_type": "single-stim", "word": "shirt", "stimulus": "<p id=\"stim\">SHIRT</p>", "conditions": [18, 1200, "v", 18000], "internal_node_id": "0.0-40.0", "trial": 1, "time_elapsed": 292638, "serialpos": 3, "key_press": -1, "wordID": 1286, "type": "PRES_VIS", "trial_index": 58}, "uniqueid": "MTK3592:3MMN5BL1W0BX0ARGHQ4LWQPPGMO3MG", "dateTime": 1520797830853}, {"current_trial": 59, "trialdata": {"rt": -1, "trial_type": "single-stim", "word": "raft", "stimulus": "<p id=\"stim\">RAFT</p>", "conditions": [18, 1200, "v", 18000], "internal_node_id": "0.0-41.0", "trial": 1, "time_elapsed": 294770, "serialpos": 4, "key_press": -1, "wordID": 1158, "type": "PRES_VIS", "trial_index": 59}, "uniqueid": "MTK3592:3MMN5BL1W0BX0ARGHQ4LWQPPGMO3MG", "dateTime": 1520797832985}, {"current_trial": 60, "trialdata": {"rt": -1, "trial_type": "single-stim", "word": "beef", "stimulus": "<p id=\"stim\">BEEF</p>", "conditions": [18, 1200, "v", 18000], "internal_node_id": "0.0-42.0", "trial": 1, "time_elapsed": 296842, "serialpos": 5, "key_press": -1, "wordID": 112, "type": "PRES_VIS", "trial_index": 60}, "uniqueid": "MTK3592:3MMN5BL1W0BX0ARGHQ4LWQPPGMO3MG", "dateTime": 1520797835057}, {"current_trial": 61, "trialdata": {"rt": -1, "trial_type": "single-stim", "word": "lagoon", "stimulus": "<p id=\"stim\">LAGOON</p>", "conditions": [18, 1200, "v", 18000], "internal_node_id": "0.0-43.0", "trial": 1, "time_elapsed": 299068, "serialpos": 6, "key_press": -1, "wordID": 794, "type": "PRES_VIS", "trial_index": 61}, "uniqueid": "MTK3592:3MMN5BL1W0BX0ARGHQ4LWQPPGMO3MG", "dateTime": 1520797837283}, {"current_trial": 62, "trialdata": {"rt": -1, "trial_type": "single-stim", "word": "cigar", "stimulus": "<p id=\"stim\">CIGAR</p>", "conditions": [18, 1200, "v", 18000], "internal_node_id": "0.0-44.0", "trial": 1, "time_elapsed": 301123, "serialpos": 7, "key_press": -1, "wordID": 307, "type": "PRES_VIS", "trial_index": 62}, "uniqueid": "MTK3592:3MMN5BL1W0BX0ARGHQ4LWQPPGMO3MG", "dateTime": 1520797839338}, {"current_trial": 63, "trialdata": {"rt": -1, "trial_type": "single-stim", "word": "jello", "stimulus": "<p id=\"stim\">JELLO</p>", "conditions": [18, 1200, "v", 18000], "internal_node_id": "0.0-45.0", "trial": 1, "time_elapsed": 303435, "serialpos": 8, "key_press": -1, "wordID": 753, "type": "PRES_VIS", "trial_index": 63}, "uniqueid": "MTK3592:3MMN5BL1W0BX0ARGHQ4LWQPPGMO3MG", "dateTime": 1520797841650}, {"current_trial": 64, "trialdata": {"rt": -1, "trial_type": "single-stim", "word": "cricket", "stimulus": "<p id=\"stim\">CRICKET</p>", "conditions": [18, 1200, "v", 18000], "internal_node_id": "0.0-46.0", "trial": 1, "time_elapsed": 305771, "serialpos": 9, "key_press": -1, "wordID": 407, "type": "PRES_VIS", "trial_index": 64}, "uniqueid": "MTK3592:3MMN5BL1W0BX0ARGHQ4LWQPPGMO3MG", "dateTime": 1520797843986}, {"current_trial": 65, "trialdata": {"rt": -1, "trial_type": "single-stim", "word": "coin", "stimulus": "<p id=\"stim\">COIN</p>", "conditions": [18, 1200, "v", 18000], "internal_node_id": "0.0-47.0", "trial": 1, "time_elapsed": 308167, "serialpos": 10, "key_press": -1, "wordID": 342, "type": "PRES_VIS", "trial_index": 65}, "uniqueid": "MTK3592:3MMN5BL1W0BX0ARGHQ4LWQPPGMO3MG", "dateTime": 1520797846382}, {"current_trial": 66, "trialdata": {"rt": -1, "trial_type": "single-stim", "word": "snail", "stimulus": "<p id=\"stim\">SNAIL</p>", "conditions": [18, 1200, "v", 18000], "internal_node_id": "0.0-48.0", "trial": 1, "time_elapsed": 310261, "serialpos": 11, "key_press": -1, "wordID": 1331, "type": "PRES_VIS", "trial_index": 66}, "uniqueid": "MTK3592:3MMN5BL1W0BX0ARGHQ4LWQPPGMO3MG", "dateTime": 1520797848476}, {"current_trial": 67, "trialdata": {"rt": -1, "trial_type": "single-stim", "word": "proton", "stimulus": "<p id=\"stim\">PROTON</p>", "conditions": [18, 1200, "v", 18000], "internal_node_id": "0.0-49.0", "trial": 1, "time_elapsed": 312402, "serialpos": 12, "key_press": -1, "wordID": 1131, "type": "PRES_VIS", "trial_index": 67}, "uniqueid": "MTK3592:3MMN5BL1W0BX0ARGHQ4LWQPPGMO3MG", "dateTime": 1520797850617}, {"current_trial": 68, "trialdata": {"rt": -1, "trial_type": "single-stim", "word": "shrub", "stimulus": "<p id=\"stim\">SHRUB</p>", "conditions": [18, 1200, "v", 18000], "internal_node_id": "0.0-50.0", "trial": 1, "time_elapsed": 314755, "serialpos": 13, "key_press": -1, "wordID": 1298, "type": "PRES_VIS", "trial_index": 68}, "uniqueid": "MTK3592:3MMN5BL1W0BX0ARGHQ4LWQPPGMO3MG", "dateTime": 1520797852975}, {"current_trial": 69, "trialdata": {"rt": -1, "trial_type": "single-stim", "word": "drink", "stimulus": "<p id=\"stim\">DRINK</p>", "conditions": [18, 1200, "v", 18000], "internal_node_id": "0.0-51.0", "trial": 1, "time_elapsed": 317040, "serialpos": 14, "key_press": -1, "wordID": 497, "type": "PRES_VIS", "trial_index": 69}, "uniqueid": "MTK3592:3MMN5BL1W0BX0ARGHQ4LWQPPGMO3MG", "dateTime": 1520797855256}, {"current_trial": 70, "trialdata": {"rt": -1, "trial_type": "single-stim", "word": "ox", "stimulus": "<p id=\"stim\">OX</p>", "conditions": [18, 1200, "v", 18000], "internal_node_id": "0.0-52.0", "trial": 1, "time_elapsed": 319346, "serialpos": 15, "key_press": -1, "wordID": 993, "type": "PRES_VIS", "trial_index": 70}, "uniqueid": "MTK3592:3MMN5BL1W0BX0ARGHQ4LWQPPGMO3MG", "dateTime": 1520797857561}, {"current_trial": 71, "trialdata": {"rt": -1, "trial_type": "single-stim", "word": "taxi", "stimulus": "<p id=\"stim\">TAXI</p>", "conditions": [18, 1200, "v", 18000], "internal_node_id": "0.0-53.0", "trial": 1, "time_elapsed": 321399, "serialpos": 16, "key_press": -1, "wordID": 1437, "type": "PRES_VIS", "trial_index": 71}, "uniqueid": "MTK3592:3MMN5BL1W0BX0ARGHQ4LWQPPGMO3MG", "dateTime": 1520797859614}, {"current_trial": 72, "trialdata": {"rt": -1, "trial_type": "single-stim", "word": "police", "stimulus": "<p id=\"stim\">POLICE</p>", "conditions": [18, 1200, "v", 18000], "internal_node_id": "0.0-54.0", "trial": 1, "time_elapsed": 323489, "serialpos": 17, "key_press": -1, "wordID": 1097, "type": "PRES_VIS", "trial_index": 72}, "uniqueid": "MTK3592:3MMN5BL1W0BX0ARGHQ4LWQPPGMO3MG", "dateTime": 1520797861704}, {"current_trial": 73, "trialdata": {"rt": -1, "trial_type": "single-stim", "stimulus": "", "internal_node_id": "0.0-55.0-0.0", "time_elapsed": 325947, "key_press": -1, "type": "PRE_RECALL_DELAY", "trial_index": 73}, "uniqueid": "MTK3592:3MMN5BL1W0BX0ARGHQ4LWQPPGMO3MG", "dateTime": 1520797864162}, {"current_trial": 74, "trialdata": {"rt": -1000, "trial_type": "single-audio", "stimulus": "/static/audio/400Hz.wav", "internal_node_id": "0.0-56.0", "time_elapsed": 326447, "key_press": -1, "type": "PRE_RECALL_ALERT", "trial_index": 74}, "uniqueid": "MTK3592:3MMN5BL1W0BX0ARGHQ4LWQPPGMO3MG", "dateTime": 1520797864662}, {"current_trial": 75, "trialdata": {"rt": [988, 2044, 2988, 4812, 5988, 7444, 8891], "recwords": ["ox", "taxi", "drink", "police", "shrub", "lagoon", "breast"], "key_times": [542, 652, 988, 1164, 1212, 1469, 1644, 2044, 2268, 2460, 2540, 2604, 2732, 2988, 3276, 3468, 3628, 3804, 3924, 4332, 4812, 5164, 5292, 5420, 5516, 5692, 5988, 6452, 6556, 6636, 6716, 6876, 6980, 7444, 7652, 7844, 7876, 7940, 8116, 8260, 8891], "trial_type": "free-recall", "conditions": [18, 1200, "v", 18000], "internal_node_id": "0.0-57.0-0.0", "key_presses": [79, 88, 13, 84, 65, 88, 73, 13, 68, 82, 73, 78, 75, 13, 80, 79, 76, 73, 67, 69, 13, 83, 72, 82, 85, 66, 13, 76, 65, 71, 79, 79, 78, 13, 66, 82, 69, 65, 83, 84, 13], "trial": 1, "time_elapsed": 386449, "type": "FREE_RECALL", "trial_index": 75}, "uniqueid": "MTK3592:3MMN5BL1W0BX0ARGHQ4LWQPPGMO3MG", "dateTime": 1520797924666}, {"current_trial": 76, "trialdata": {"rt": 3899, "trial_type": "text", "internal_node_id": "0.0-58.0", "time_elapsed": 392350, "key_press": 72, "type": "INSTRUCTIONS", "trial_index": 76}, "uniqueid": "MTK3592:3MMN5BL1W0BX0ARGHQ4LWQPPGMO3MG", "dateTime": 1520797930565}, {"current_trial": 77, "trialdata": {"rt": [3790, 6204, 9292, 11252, 14036, 16372, 18653, 22076], "trial_type": "math-distractor", "key_times": [3325, 3501, 3790, 5614, 5884, 6204, 8884, 9084, 9292, 10772, 11028, 11252, 13396, 13780, 14036, 15756, 16165, 16372, 18340, 18436, 18653, 21581, 21772, 22076, 23628, 23852], "responses": ["19", "13", "16", "15", "15", "19", "12", "15"], "num2": [4, 1, 4, 2, 7, 4, 5, 8, 6], "num3": [8, 7, 7, 7, 7, 3, 1, 6, 3], "conditions": [12, 1600, "v", 24000], "internal_node_id": "0.0-59.0", "key_presses": [49, 57, 13, 49, 51, 13, 49, 54, 13, 49, 53, 13, 49, 53, 13, 49, 57, 13, 49, 50, 13, 49, 53, 13, 49, 54], "trial": 2, "time_elapsed": 417353, "type": "DISTRACTOR", "trial_index": 77, "num1": [7, 5, 5, 6, 1, 3, 6, 1, 7]}, "uniqueid": "MTK3592:3MMN5BL1W0BX0ARGHQ4LWQPPGMO3MG", "dateTime": 1520797955568}, {"current_trial": 78, "trialdata": {"rt": -1, "trial_type": "single-stim", "stimulus": "<p id=\"stim\">10</p>", "internal_node_id": "0.0-60.0-0.0", "time_elapsed": 420353, "key_press": -1, "trial_index": 78}, "uniqueid": "MTK3592:3MMN5BL1W0BX0ARGHQ4LWQPPGMO3MG", "dateTime": 1520797958568}, {"current_trial": 79, "trialdata": {"rt": -1, "trial_type": "single-stim", "stimulus": "<p id=\"stim\">9</p>", "internal_node_id": "0.0-60.0-1.0", "time_elapsed": 421353, "key_press": -1, "trial_index": 79}, "uniqueid": "MTK3592:3MMN5BL1W0BX0ARGHQ4LWQPPGMO3MG", "dateTime": 1520797959568}, {"current_trial": 80, "trialdata": {"rt": -1, "trial_type": "single-stim", "stimulus": "<p id=\"stim\">8</p>", "internal_node_id": "0.0-60.0-2.0", "time_elapsed": 422354, "key_press": -1, "trial_index": 80}, "uniqueid": "MTK3592:3MMN5BL1W0BX0ARGHQ4LWQPPGMO3MG", "dateTime": 1520797960569}, {"current_trial": 81, "trialdata": {"rt": -1, "trial_type": "single-stim", "stimulus": "<p id=\"stim\">7</p>", "internal_node_id": "0.0-60.0-3.0", "time_elapsed": 423354, "key_press": -1, "trial_index": 81}, "uniqueid": "MTK3592:3MMN5BL1W0BX0ARGHQ4LWQPPGMO3MG", "dateTime": 1520797961569}, {"current_trial": 82, "trialdata": {"rt": -1, "trial_type": "single-stim", "stimulus": "<p id=\"stim\">6</p>", "internal_node_id": "0.0-60.0-4.0", "time_elapsed": 424355, "key_press": -1, "trial_index": 82}, "uniqueid": "MTK3592:3MMN5BL1W0BX0ARGHQ4LWQPPGMO3MG", "dateTime": 1520797962570}, {"current_trial": 83, "trialdata": {"rt": -1, "trial_type": "single-stim", "stimulus": "<p id=\"stim\">5</p>", "internal_node_id": "0.0-60.0-5.0", "time_elapsed": 425357, "key_press": -1, "trial_index": 83}, "uniqueid": "MTK3592:3MMN5BL1W0BX0ARGHQ4LWQPPGMO3MG", "dateTime": 1520797963572}, {"current_trial": 84, "trialdata": {"rt": -1, "trial_type": "single-stim", "stimulus": "<p id=\"stim\">4</p>", "internal_node_id": "0.0-60.0-6.0", "time_elapsed": 426357, "key_press": -1, "trial_index": 84}, "uniqueid": "MTK3592:3MMN5BL1W0BX0ARGHQ4LWQPPGMO3MG", "dateTime": 1520797964572}, {"current_trial": 85, "trialdata": {"rt": -1, "trial_type": "single-stim", "stimulus": "<p id=\"stim\">3</p>", "internal_node_id": "0.0-60.0-7.0", "time_elapsed": 427358, "key_press": -1, "trial_index": 85}, "uniqueid": "MTK3592:3MMN5BL1W0BX0ARGHQ4LWQPPGMO3MG", "dateTime": 1520797965573}, {"current_trial": 86, "trialdata": {"rt": -1, "trial_type": "single-stim", "stimulus": "<p id=\"stim\">2</p>", "internal_node_id": "0.0-60.0-8.0", "time_elapsed": 428359, "key_press": -1, "trial_index": 86}, "uniqueid": "MTK3592:3MMN5BL1W0BX0ARGHQ4LWQPPGMO3MG", "dateTime": 1520797966574}, {"current_trial": 87, "trialdata": {"rt": -1, "trial_type": "single-stim", "stimulus": "<p id=\"stim\">1</p>", "internal_node_id": "0.0-60.0-9.0", "time_elapsed": 429359, "key_press": -1, "trial_index": 87}, "uniqueid": "MTK3592:3MMN5BL1W0BX0ARGHQ4LWQPPGMO3MG", "dateTime": 1520797967574}, {"current_trial": 88, "trialdata": {"rt": -1, "trial_type": "single-stim", "stimulus": "<p id=\"stim\">+</p>", "internal_node_id": "0.0-61.0-0.0", "time_elapsed": 430860, "key_press": -1, "type": "FIXATION", "trial_index": 88}, "uniqueid": "MTK3592:3MMN5BL1W0BX0ARGHQ4LWQPPGMO3MG", "dateTime": 1520797969075}, {"current_trial": 89, "trialdata": {"rt": -1, "trial_type": "single-stim", "word": "belly", "stimulus": "<p id=\"stim\">BELLY</p>", "conditions": [12, 1600, "v", 24000], "internal_node_id": "0.0-62.0", "trial": 2, "time_elapsed": 432460, "serialpos": 0, "key_press": -1, "wordID": 118, "type": "PRES_VIS", "trial_index": 89}, "uniqueid": "MTK3592:3MMN5BL1W0BX0ARGHQ4LWQPPGMO3MG", "dateTime": 1520797970675}, {"current_trial": 90, "trialdata": {"rt": -1, "trial_type": "single-stim", "word": "drill", "stimulus": "<p id=\"stim\">DRILL</p>", "conditions": [12, 1600, "v", 24000], "internal_node_id": "0.0-63.0", "trial": 2, "time_elapsed": 434868, "serialpos": 1, "key_press": -1, "wordID": 496, "type": "PRES_VIS", "trial_index": 90}, "uniqueid": "MTK3592:3MMN5BL1W0BX0ARGHQ4LWQPPGMO3MG", "dateTime": 1520797973083}, {"current_trial": 91, "trialdata": {"rt": -1, "trial_type": "single-stim", "word": "woman", "stimulus": "<p id=\"stim\">WOMAN</p>", "conditions": [12, 1600, "v", 24000], "internal_node_id": "0.0-64.0", "trial": 2, "time_elapsed": 437320, "serialpos": 2, "key_press": -1, "wordID": 1619, "type": "PRES_VIS", "trial_index": 91}, "uniqueid": "MTK3592:3MMN5BL1W0BX0ARGHQ4LWQPPGMO3MG", "dateTime": 1520797975535}, {"current_trial": 92, "trialdata": {"rt": -1, "trial_type": "single-stim", "word": "clam", "stimulus": "<p id=\"stim\">CLAM</p>", "conditions": [12, 1600, "v", 24000], "internal_node_id": "0.0-65.0", "trial": 2, "time_elapsed": 439810, "serialpos": 3, "key_press": -1, "wordID": 314, "type": "PRES_VIS", "trial_index": 92}, "uniqueid": "MTK3592:3MMN5BL1W0BX0ARGHQ4LWQPPGMO3MG", "dateTime": 1520797978025}, {"current_trial": 93, "trialdata": {"rt": -1, "trial_type": "single-stim", "word": "statue", "stimulus": "<p id=\"stim\">STATUE</p>", "conditions": [12, 1600, "v", 24000], "internal_node_id": "0.0-66.0", "trial": 2, "time_elapsed": 442585, "serialpos": 4, "key_press": -1, "wordID": 1373, "type": "PRES_VIS", "trial_index": 93}, "uniqueid": "MTK3592:3MMN5BL1W0BX0ARGHQ4LWQPPGMO3MG", "dateTime": 1520797980800}, {"current_trial": 94, "trialdata": {"rt": -1, "trial_type": "single-stim", "word": "gallon", "stimulus": "<p id=\"stim\">GALLON</p>", "conditions": [12, 1600, "v", 24000], "internal_node_id": "0.0-67.0", "trial": 2, "time_elapsed": 445256, "serialpos": 5, "key_press": -1, "wordID": 617, "type": "PRES_VIS", "trial_index": 94}, "uniqueid": "MTK3592:3MMN5BL1W0BX0ARGHQ4LWQPPGMO3MG", "dateTime": 1520797983471}, {"current_trial": 95, "trialdata": {"rt": -1, "trial_type": "single-stim", "word": "barrel", "stimulus": "<p id=\"stim\">BARREL</p>", "conditions": [12, 1600, "v", 24000], "internal_node_id": "0.0-68.0", "trial": 2, "time_elapsed": 447999, "serialpos": 6, "key_press": -1, "wordID": 90, "type": "PRES_VIS", "trial_index": 95}, "uniqueid": "MTK3592:3MMN5BL1W0BX0ARGHQ4LWQPPGMO3MG", "dateTime": 1520797986214}, {"current_trial": 96, "trialdata": {"rt": -1, "trial_type": "single-stim", "word": "switch", "stimulus": "<p id=\"stim\">SWITCH</p>", "conditions": [12, 1600, "v", 24000], "internal_node_id": "0.0-69.0", "trial": 2, "time_elapsed": 450449, "serialpos": 7, "key_press": -1, "wordID": 1421, "type": "PRES_VIS", "trial_index": 96}, "uniqueid": "MTK3592:3MMN5BL1W0BX0ARGHQ4LWQPPGMO3MG", "dateTime": 1520797988664}, {"current_trial": 97, "trialdata": {"rt": -1, "trial_type": "single-stim", "word": "servant", "stimulus": "<p id=\"stim\">SERVANT</p>", "conditions": [12, 1600, "v", 24000], "internal_node_id": "0.0-70.0", "trial": 2, "time_elapsed": 453248, "serialpos": 8, "key_press": -1, "wordID": 1270, "type": "PRES_VIS", "trial_index": 97}, "uniqueid": "MTK3592:3MMN5BL1W0BX0ARGHQ4LWQPPGMO3MG", "dateTime": 1520797991463}, {"current_trial": 98, "trialdata": {"rt": -1, "trial_type": "single-stim", "word": "wife", "stimulus": "<p id=\"stim\">WIFE</p>", "conditions": [12, 1600, "v", 24000], "internal_node_id": "0.0-71.0", "trial": 2, "time_elapsed": 455845, "serialpos": 9, "key_press": -1, "wordID": 1608, "type": "PRES_VIS", "trial_index": 98}, "uniqueid": "MTK3592:3MMN5BL1W0BX0ARGHQ4LWQPPGMO3MG", "dateTime": 1520797994060}, {"current_trial": 99, "trialdata": {"rt": -1, "trial_type": "single-stim", "word": "liver", "stimulus": "<p id=\"stim\">LIVER</p>", "conditions": [12, 1600, "v", 24000], "internal_node_id": "0.0-72.0", "trial": 2, "time_elapsed": 458538, "serialpos": 10, "key_press": -1, "wordID": 832, "type": "PRES_VIS", "trial_index": 99}, "uniqueid": "MTK3592:3MMN5BL1W0BX0ARGHQ4LWQPPGMO3MG", "dateTime": 1520797996753}, {"current_trial": 100, "trialdata": {"rt": -1, "trial_type": "single-stim", "word": "lady", "stimulus": "<p id=\"stim\">LADY</p>", "conditions": [12, 1600, "v", 24000], "internal_node_id": "0.0-73.0", "trial": 2, "time_elapsed": 461276, "serialpos": 11, "key_press": -1, "wordID": 793, "type": "PRES_VIS", "trial_index": 100}, "uniqueid": "MTK3592:3MMN5BL1W0BX0ARGHQ4LWQPPGMO3MG", "dateTime": 1520797999491}, {"current_trial": 101, "trialdata": {"rt": -1, "trial_type": "single-stim", "stimulus": "", "internal_node_id": "0.0-74.0-0.0", "time_elapsed": 463659, "key_press": -1, "type": "PRE_RECALL_DELAY", "trial_index": 101}, "uniqueid": "MTK3592:3MMN5BL1W0BX0ARGHQ4LWQPPGMO3MG", "dateTime": 1520798001874}, {"current_trial": 102, "trialdata": {"rt": -1000, "trial_type": "single-audio", "stimulus": "/static/audio/400Hz.wav", "internal_node_id": "0.0-75.0", "time_elapsed": 464159, "key_press": -1, "type": "PRE_RECALL_ALERT", "trial_index": 102}, "uniqueid": "MTK3592:3MMN5BL1W0BX0ARGHQ4LWQPPGMO3MG", "dateTime": 1520798002374}, {"current_trial": 103, "trialdata": {"rt": [1278, 2381, 3597, 5469, 6797, 8109, 12813, 15925], "recwords": ["gallon", "barrel", "switch", "servent", "wife", "lady", "statue", "drill"], "key_times": [415, 477, 589, 734, 909, 958, 1278, 1421, 1518, 1741, 1885, 1981, 2109, 2381, 2558, 2733, 2878, 2941, 3150, 3325, 3597, 3821, 3941, 4005, 4230, 4534, 4725, 4854, 5469, 6253, 6429, 6557, 6605, 6797, 7037, 7117, 7229, 7349, 8109, 11733, 11877, 11989, 12085, 12228, 12325, 12813, 15142, 15253, 15349, 15541, 15686, 15925], "trial_type": "free-recall", "conditions": [12, 1600, "v", 24000], "internal_node_id": "0.0-76.0-0.0", "key_presses": [71, 65, 76, 76, 79, 78, 13, 66, 65, 82, 82, 69, 76, 13, 83, 87, 73, 84, 67, 72, 13, 83, 69, 82, 86, 69, 78, 84, 13, 87, 73, 70, 69, 13, 76, 65, 68, 89, 13, 83, 84, 65, 84, 85, 69, 13, 68, 82, 73, 76, 76, 13], "trial": 2, "time_elapsed": 524160, "type": "FREE_RECALL", "trial_index": 103}, "uniqueid": "MTK3592:3MMN5BL1W0BX0ARGHQ4LWQPPGMO3MG", "dateTime": 1520798062377}, {"current_trial": 104, "trialdata": {"rt": 3876, "trial_type": "text", "internal_node_id": "0.0-77.0", "time_elapsed": 530039, "key_press": 32, "type": "INSTRUCTIONS", "trial_index": 104}, "uniqueid": "MTK3592:3MMN5BL1W0BX0ARGHQ4LWQPPGMO3MG", "dateTime": 1520798068254}, {"current_trial": 105, "trialdata": {"rt": [1764, 3467, 7955, 9779, 11859, 13875, 15955, 18012, 20547, 23099], "trial_type": "math-distractor", "key_times": [1348, 1523, 1764, 3020, 3211, 3467, 7371, 7619, 7955, 8979, 9443, 9779, 11147, 11499, 11859, 13379, 13587, 13875, 15444, 15955, 17659, 18012, 20125, 20315, 20547, 22555, 22827, 23099], "responses": ["11", "16", "16", "15", "13", "13", "9", "9", "20", "27"], "num2": [3, 8, 8, 9, 4, 9, 1, 7, 4, 9, 1], "num3": [1, 7, 5, 5, 7, 3, 5, 1, 8, 9, 1], "conditions": [12, 800, "v", 24000], "internal_node_id": "0.0-78.0", "key_presses": [49, 49, 13, 49, 54, 13, 49, 54, 13, 49, 53, 13, 49, 51, 13, 49, 51, 13, 57, 13, 57, 13, 50, 48, 13, 50, 55, 13], "trial": 3, "time_elapsed": 556041, "type": "DISTRACTOR", "trial_index": 105, "num1": [7, 1, 3, 1, 2, 1, 3, 1, 8, 9, 2]}, "uniqueid": "MTK3592:3MMN5BL1W0BX0ARGHQ4LWQPPGMO3MG", "dateTime": 1520798094257}, {"current_trial": 106, "trialdata": {"rt": -1, "trial_type": "single-stim", "stimulus": "<p id=\"stim\">10</p>", "internal_node_id": "0.0-79.0-0.0", "time_elapsed": 559043, "key_press": -1, "trial_index": 106}, "uniqueid": "MTK3592:3MMN5BL1W0BX0ARGHQ4LWQPPGMO3MG", "dateTime": 1520798097258}, {"current_trial": 107, "trialdata": {"rt": -1, "trial_type": "single-stim", "stimulus": "<p id=\"stim\">9</p>", "internal_node_id": "0.0-79.0-1.0", "time_elapsed": 560044, "key_press": -1, "trial_index": 107}, "uniqueid": "MTK3592:3MMN5BL1W0BX0ARGHQ4LWQPPGMO3MG", "dateTime": 1520798098259}, {"current_trial": 108, "trialdata": {"rt": -1, "trial_type": "single-stim", "stimulus": "<p id=\"stim\">8</p>", "internal_node_id": "0.0-79.0-2.0", "time_elapsed": 561045, "key_press": -1, "trial_index": 108}, "uniqueid": "MTK3592:3MMN5BL1W0BX0ARGHQ4LWQPPGMO3MG", "dateTime": 1520798099260}, {"current_trial": 109, "trialdata": {"rt": -1, "trial_type": "single-stim", "stimulus": "<p id=\"stim\">7</p>", "internal_node_id": "0.0-79.0-3.0", "time_elapsed": 562046, "key_press": -1, "trial_index": 109}, "uniqueid": "MTK3592:3MMN5BL1W0BX0ARGHQ4LWQPPGMO3MG", "dateTime": 1520798100261}, {"current_trial": 110, "trialdata": {"rt": -1, "trial_type": "single-stim", "stimulus": "<p id=\"stim\">6</p>", "internal_node_id": "0.0-79.0-4.0", "time_elapsed": 563046, "key_press": -1, "trial_index": 110}, "uniqueid": "MTK3592:3MMN5BL1W0BX0ARGHQ4LWQPPGMO3MG", "dateTime": 1520798101261}, {"current_trial": 111, "trialdata": {"rt": -1, "trial_type": "single-stim", "stimulus": "<p id=\"stim\">5</p>", "internal_node_id": "0.0-79.0-5.0", "time_elapsed": 564046, "key_press": -1, "trial_index": 111}, "uniqueid": "MTK3592:3MMN5BL1W0BX0ARGHQ4LWQPPGMO3MG", "dateTime": 1520798102261}, {"current_trial": 112, "trialdata": {"rt": -1, "trial_type": "single-stim", "stimulus": "<p id=\"stim\">4</p>", "internal_node_id": "0.0-79.0-6.0", "time_elapsed": 565048, "key_press": -1, "trial_index": 112}, "uniqueid": "MTK3592:3MMN5BL1W0BX0ARGHQ4LWQPPGMO3MG", "dateTime": 1520798103263}, {"current_trial": 113, "trialdata": {"rt": -1, "trial_type": "single-stim", "stimulus": "<p id=\"stim\">3</p>", "internal_node_id": "0.0-79.0-7.0", "time_elapsed": 566048, "key_press": -1, "trial_index": 113}, "uniqueid": "MTK3592:3MMN5BL1W0BX0ARGHQ4LWQPPGMO3MG", "dateTime": 1520798104264}, {"current_trial": 114, "trialdata": {"rt": -1, "trial_type": "single-stim", "stimulus": "<p id=\"stim\">2</p>", "internal_node_id": "0.0-79.0-8.0", "time_elapsed": 567050, "key_press": -1, "trial_index": 114}, "uniqueid": "MTK3592:3MMN5BL1W0BX0ARGHQ4LWQPPGMO3MG", "dateTime": 1520798105265}, {"current_trial": 115, "trialdata": {"rt": -1, "trial_type": "single-stim", "stimulus": "<p id=\"stim\">1</p>", "internal_node_id": "0.0-79.0-9.0", "time_elapsed": 568050, "key_press": -1, "trial_index": 115}, "uniqueid": "MTK3592:3MMN5BL1W0BX0ARGHQ4LWQPPGMO3MG", "dateTime": 1520798106267}, {"current_trial": 116, "trialdata": {"rt": -1, "trial_type": "single-stim", "stimulus": "<p id=\"stim\">+</p>", "internal_node_id": "0.0-80.0-0.0", "time_elapsed": 569553, "key_press": -1, "type": "FIXATION", "trial_index": 116}, "uniqueid": "MTK3592:3MMN5BL1W0BX0ARGHQ4LWQPPGMO3MG", "dateTime": 1520798107768}, {"current_trial": 117, "trialdata": {"rt": -1, "trial_type": "single-stim", "word": "kidney", "stimulus": "<p id=\"stim\">KIDNEY</p>", "conditions": [12, 800, "v", 24000], "internal_node_id": "0.0-81.0", "trial": 3, "time_elapsed": 570353, "serialpos": 0, "key_press": -1, "wordID": 775, "type": "PRES_VIS", "trial_index": 117}, "uniqueid": "MTK3592:3MMN5BL1W0BX0ARGHQ4LWQPPGMO3MG", "dateTime": 1520798108568}, {"current_trial": 118, "trialdata": {"rt": -1, "trial_type": "single-stim", "word": "marrow", "stimulus": "<p id=\"stim\">MARROW</p>", "conditions": [12, 800, "v", 24000], "internal_node_id": "0.0-82.0", "trial": 3, "time_elapsed": 572133, "serialpos": 1, "key_press": -1, "wordID": 871, "type": "PRES_VIS", "trial_index": 118}, "uniqueid": "MTK3592:3MMN5BL1W0BX0ARGHQ4LWQPPGMO3MG", "dateTime": 1520798110348}, {"current_trial": 119, "trialdata": {"rt": -1, "trial_type": "single-stim", "word": "cottage", "stimulus": "<p id=\"stim\">COTTAGE</p>", "conditions": [12, 800, "v", 24000], "internal_node_id": "0.0-83.0", "trial": 3, "time_elapsed": 574078, "serialpos": 2, "key_press": -1, "wordID": 383, "type": "PRES_VIS", "trial_index": 119}, "uniqueid": "MTK3592:3MMN5BL1W0BX0ARGHQ4LWQPPGMO3MG", "dateTime": 1520798112293}, {"current_trial": 120, "trialdata": {"rt": -1, "trial_type": "single-stim", "word": "pasta", "stimulus": "<p id=\"stim\">PASTA</p>", "conditions": [12, 800, "v", 24000], "internal_node_id": "0.0-84.0", "trial": 3, "time_elapsed": 576072, "serialpos": 3, "key_press": -1, "wordID": 1020, "type": "PRES_VIS", "trial_index": 120}, "uniqueid": "MTK3592:3MMN5BL1W0BX0ARGHQ4LWQPPGMO3MG", "dateTime": 1520798114287}, {"current_trial": 121, "trialdata": {"rt": -1, "trial_type": "single-stim", "word": "twister", "stimulus": "<p id=\"stim\">TWISTER</p>", "conditions": [12, 800, "v", 24000], "internal_node_id": "0.0-85.0", "trial": 3, "time_elapsed": 577739, "serialpos": 4, "key_press": -1, "wordID": 1529, "type": "PRES_VIS", "trial_index": 121}, "uniqueid": "MTK3592:3MMN5BL1W0BX0ARGHQ4LWQPPGMO3MG", "dateTime": 1520798115954}, {"current_trial": 122, "trialdata": {"rt": -1, "trial_type": "single-stim", "word": "possum", "stimulus": "<p id=\"stim\">POSSUM</p>", "conditions": [12, 800, "v", 24000], "internal_node_id": "0.0-86.0", "trial": 3, "time_elapsed": 579602, "serialpos": 5, "key_press": -1, "wordID": 1111, "type": "PRES_VIS", "trial_index": 122}, "uniqueid": "MTK3592:3MMN5BL1W0BX0ARGHQ4LWQPPGMO3MG", "dateTime": 1520798117817}, {"current_trial": 123, "trialdata": {"rt": -1, "trial_type": "single-stim", "word": "sausage", "stimulus": "<p id=\"stim\">SAUSAGE</p>", "conditions": [12, 800, "v", 24000], "internal_node_id": "0.0-87.0", "trial": 3, "time_elapsed": 581371, "serialpos": 6, "key_press": -1, "wordID": 1237, "type": "PRES_VIS", "trial_index": 123}, "uniqueid": "MTK3592:3MMN5BL1W0BX0ARGHQ4LWQPPGMO3MG", "dateTime": 1520798119586}, {"current_trial": 124, "trialdata": {"rt": -1, "trial_type": "single-stim", "word": "toaster", "stimulus": "<p id=\"stim\">TOASTER</p>", "conditions": [12, 800, "v", 24000], "internal_node_id": "0.0-88.0", "trial": 3, "time_elapsed": 583083, "serialpos": 7, "key_press": -1, "wordID": 1471, "type": "PRES_VIS", "trial_index": 124}, "uniqueid": "MTK3592:3MMN5BL1W0BX0ARGHQ4LWQPPGMO3MG", "dateTime": 1520798121298}, {"current_trial": 125, "trialdata": {"rt": -1, "trial_type": "single-stim", "word": "glass", "stimulus": "<p id=\"stim\">GLASS</p>", "conditions": [12, 800, "v", 24000], "internal_node_id": "0.0-89.0", "trial": 3, "time_elapsed": 584860, "serialpos": 8, "key_press": -1, "wordID": 638, "type": "PRES_VIS", "trial_index": 125}, "uniqueid": "MTK3592:3MMN5BL1W0BX0ARGHQ4LWQPPGMO3MG", "dateTime": 1520798123075}, {"current_trial": 126, "trialdata": {"rt": -1, "trial_type": "single-stim", "word": "softball", "stimulus": "<p id=\"stim\">SOFTBALL</p>", "conditions": [12, 800, "v", 24000], "internal_node_id": "0.0-90.0", "trial": 3, "time_elapsed": 586675, "serialpos": 9, "key_press": -1, "wordID": 1342, "type": "PRES_VIS", "trial_index": 126}, "uniqueid": "MTK3592:3MMN5BL1W0BX0ARGHQ4LWQPPGMO3MG", "dateTime": 1520798124890}, {"current_trial": 127, "trialdata": {"rt": -1, "trial_type": "single-stim", "word": "cook", "stimulus": "<p id=\"stim\">COOK</p>", "conditions": [12, 800, "v", 24000], "internal_node_id": "0.0-91.0", "trial": 3, "time_elapsed": 588451, "serialpos": 10, "key_press": -1, "wordID": 371, "type": "PRES_VIS", "trial_index": 127}, "uniqueid": "MTK3592:3MMN5BL1W0BX0ARGHQ4LWQPPGMO3MG", "dateTime": 1520798126666}, {"current_trial": 128, "trialdata": {"rt": -1, "trial_type": "single-stim", "word": "clothes", "stimulus": "<p id=\"stim\">CLOTHES</p>", "conditions": [12, 800, "v", 24000], "internal_node_id": "0.0-92.0", "trial": 3, "time_elapsed": 590143, "serialpos": 11, "key_press": -1, "wordID": 326, "type": "PRES_VIS", "trial_index": 128}, "uniqueid": "MTK3592:3MMN5BL1W0BX0ARGHQ4LWQPPGMO3MG", "dateTime": 1520798128358}, {"current_trial": 129, "trialdata": {"rt": -1, "trial_type": "single-stim", "stimulus": "", "internal_node_id": "0.0-93.0-0.0", "time_elapsed": 592636, "key_press": -1, "type": "PRE_RECALL_DELAY", "trial_index": 129}, "uniqueid": "MTK3592:3MMN5BL1W0BX0ARGHQ4LWQPPGMO3MG", "dateTime": 1520798130852}, {"current_trial": 130, "trialdata": {"rt": -1000, "trial_type": "single-audio", "stimulus": "/static/audio/400Hz.wav", "internal_node_id": "0.0-94.0", "time_elapsed": 593137, "key_press": -1, "type": "PRE_RECALL_ALERT", "trial_index": 130}, "uniqueid": "MTK3592:3MMN5BL1W0BX0ARGHQ4LWQPPGMO3MG", "dateTime": 1520798131352}, {"current_trial": 131, "trialdata": {"rt": [1315, 2851, 4067, 6267, 8283, 12427], "recwords": ["glass", "cook", "clothes", "possum", "pasta", "kidney"], "key_times": [340, 563, 707, 883, 995, 1315, 1411, 2131, 2299, 2427, 2851, 3139, 3283, 3426, 3554, 3667, 3762, 3811, 4067, 4891, 5114, 5275, 5419, 5531, 5803, 6267, 6804, 7003, 7164, 7420, 7547, 8283, 11628, 11819, 11867, 11980, 12059, 12171, 12427], "trial_type": "free-recall", "conditions": [12, 800, "v", 24000], "internal_node_id": "0.0-95.0-0.0", "key_presses": [71, 76, 65, 83, 83, 32, 67, 79, 79, 75, 32, 67, 76, 79, 84, 72, 69, 83, 13, 80, 79, 83, 83, 85, 77, 13, 80, 65, 83, 84, 65, 13, 75, 73, 68, 78, 69, 89, 13], "trial": 3, "time_elapsed": 653139, "type": "FREE_RECALL", "trial_index": 131}, "uniqueid": "MTK3592:3MMN5BL1W0BX0ARGHQ4LWQPPGMO3MG", "dateTime": 1520798191362}, {"current_trial": 132, "trialdata": {"rt": 9610, "trial_type": "text", "internal_node_id": "0.0-96.0", "time_elapsed": 664759, "key_press": 32, "type": "INSTRUCTIONS", "trial_index": 132}, "uniqueid": "MTK3592:3MMN5BL1W0BX0ARGHQ4LWQPPGMO3MG", "dateTime": 1520798202974}, {"current_trial": 133, "trialdata": {"rt": [3332, 6332, 8268, 11812], "trial_type": "math-distractor", "key_times": [1787, 2107, 2947, 3124, 3332, 5756, 6107, 6332, 7836, 7995, 8268, 10715, 10955, 11300, 11508, 11812], "responses": ["10", "16", "11", "10"], "num2": [1, 7, 2, 1, 1], "num3": [6, 3, 8, 3, 5], "conditions": [12, 800, "v", 12000], "internal_node_id": "0.0-97.0", "key_presses": [49, 57, 8, 48, 13, 49, 54, 13, 49, 49, 13, 49, 57, 8, 48, 13], "trial": 4, "time_elapsed": 678762, "type": "DISTRACTOR", "trial_index": 133, "num1": [3, 6, 1, 6, 6]}, "uniqueid": "MTK3592:3MMN5BL1W0BX0ARGHQ4LWQPPGMO3MG", "dateTime": 1520798216977}, {"current_trial": 134, "trialdata": {"rt": -1, "trial_type": "single-stim", "stimulus": "<p id=\"stim\">10</p>", "internal_node_id": "0.0-98.0-0.0", "time_elapsed": 681763, "key_press": -1, "trial_index": 134}, "uniqueid": "MTK3592:3MMN5BL1W0BX0ARGHQ4LWQPPGMO3MG", "dateTime": 1520798219978}, {"current_trial": 135, "trialdata": {"rt": -1, "trial_type": "single-stim", "stimulus": "<p id=\"stim\">9</p>", "internal_node_id": "0.0-98.0-1.0", "time_elapsed": 682764, "key_press": -1, "trial_index": 135}, "uniqueid": "MTK3592:3MMN5BL1W0BX0ARGHQ4LWQPPGMO3MG", "dateTime": 1520798220979}, {"current_trial": 136, "trialdata": {"rt": -1, "trial_type": "single-stim", "stimulus": "<p id=\"stim\">8</p>", "internal_node_id": "0.0-98.0-2.0", "time_elapsed": 683764, "key_press": -1, "trial_index": 136}, "uniqueid": "MTK3592:3MMN5BL1W0BX0ARGHQ4LWQPPGMO3MG", "dateTime": 1520798221979}, {"current_trial": 137, "trialdata": {"rt": -1, "trial_type": "single-stim", "stimulus": "<p id=\"stim\">7</p>", "internal_node_id": "0.0-98.0-3.0", "time_elapsed": 684765, "key_press": -1, "trial_index": 137}, "uniqueid": "MTK3592:3MMN5BL1W0BX0ARGHQ4LWQPPGMO3MG", "dateTime": 1520798222981}, {"current_trial": 138, "trialdata": {"rt": -1, "trial_type": "single-stim", "stimulus": "<p id=\"stim\">6</p>", "internal_node_id": "0.0-98.0-4.0", "time_elapsed": 685766, "key_press": -1, "trial_index": 138}, "uniqueid": "MTK3592:3MMN5BL1W0BX0ARGHQ4LWQPPGMO3MG", "dateTime": 1520798223981}, {"current_trial": 139, "trialdata": {"rt": -1, "trial_type": "single-stim", "stimulus": "<p id=\"stim\">5</p>", "internal_node_id": "0.0-98.0-5.0", "time_elapsed": 686766, "key_press": -1, "trial_index": 139}, "uniqueid": "MTK3592:3MMN5BL1W0BX0ARGHQ4LWQPPGMO3MG", "dateTime": 1520798224981}, {"current_trial": 140, "trialdata": {"rt": -1, "trial_type": "single-stim", "stimulus": "<p id=\"stim\">4</p>", "internal_node_id": "0.0-98.0-6.0", "time_elapsed": 687768, "key_press": -1, "trial_index": 140}, "uniqueid": "MTK3592:3MMN5BL1W0BX0ARGHQ4LWQPPGMO3MG", "dateTime": 1520798225983}, {"current_trial": 141, "trialdata": {"rt": -1, "trial_type": "single-stim", "stimulus": "<p id=\"stim\">3</p>", "internal_node_id": "0.0-98.0-7.0", "time_elapsed": 688768, "key_press": -1, "trial_index": 141}, "uniqueid": "MTK3592:3MMN5BL1W0BX0ARGHQ4LWQPPGMO3MG", "dateTime": 1520798226983}, {"current_trial": 142, "trialdata": {"rt": -1, "trial_type": "single-stim", "stimulus": "<p id=\"stim\">2</p>", "internal_node_id": "0.0-98.0-8.0", "time_elapsed": 689769, "key_press": -1, "trial_index": 142}, "uniqueid": "MTK3592:3MMN5BL1W0BX0ARGHQ4LWQPPGMO3MG", "dateTime": 1520798227985}, {"current_trial": 143, "trialdata": {"rt": -1, "trial_type": "single-stim", "stimulus": "<p id=\"stim\">1</p>", "internal_node_id": "0.0-98.0-9.0", "time_elapsed": 690770, "key_press": -1, "trial_index": 143}, "uniqueid": "MTK3592:3MMN5BL1W0BX0ARGHQ4LWQPPGMO3MG", "dateTime": 1520798228986}, {"current_trial": 144, "trialdata": {"rt": -1, "trial_type": "single-stim", "stimulus": "<p id=\"stim\">+</p>", "internal_node_id": "0.0-99.0-0.0", "time_elapsed": 692271, "key_press": -1, "type": "FIXATION", "trial_index": 144}, "uniqueid": "MTK3592:3MMN5BL1W0BX0ARGHQ4LWQPPGMO3MG", "dateTime": 1520798230487}, {"current_trial": 145, "trialdata": {"rt": -1, "trial_type": "single-stim", "word": "female", "stimulus": "<p id=\"stim\">FEMALE</p>", "conditions": [12, 800, "v", 12000], "internal_node_id": "0.0-100.0", "trial": 4, "time_elapsed": 693072, "serialpos": 0, "key_press": -1, "wordID": 558, "type": "PRES_VIS", "trial_index": 145}, "uniqueid": "MTK3592:3MMN5BL1W0BX0ARGHQ4LWQPPGMO3MG", "dateTime": 1520798231287}, {"current_trial": 146, "trialdata": {"rt": -1, "trial_type": "single-stim", "word": "piano", "stimulus": "<p id=\"stim\">PIANO</p>", "conditions": [12, 800, "v", 12000], "internal_node_id": "0.0-101.0", "trial": 4, "time_elapsed": 694742, "serialpos": 1, "key_press": -1, "wordID": 1056, "type": "PRES_VIS", "trial_index": 146}, "uniqueid": "MTK3592:3MMN5BL1W0BX0ARGHQ4LWQPPGMO3MG", "dateTime": 1520798232958}, {"current_trial": 147, "trialdata": {"rt": -1, "trial_type": "single-stim", "word": "orchid", "stimulus": "<p id=\"stim\">ORCHID</p>", "conditions": [12, 800, "v", 12000], "internal_node_id": "0.0-102.0", "trial": 4, "time_elapsed": 696700, "serialpos": 2, "key_press": -1, "wordID": 981, "type": "PRES_VIS", "trial_index": 147}, "uniqueid": "MTK3592:3MMN5BL1W0BX0ARGHQ4LWQPPGMO3MG", "dateTime": 1520798234915}, {"current_trial": 148, "trialdata": {"rt": -1, "trial_type": "single-stim", "word": "postage", "stimulus": "<p id=\"stim\">POSTAGE</p>", "conditions": [12, 800, "v", 12000], "internal_node_id": "0.0-103.0", "trial": 4, "time_elapsed": 698687, "serialpos": 3, "key_press": -1, "wordID": 1112, "type": "PRES_VIS", "trial_index": 148}, "uniqueid": "MTK3592:3MMN5BL1W0BX0ARGHQ4LWQPPGMO3MG", "dateTime": 1520798236902}, {"current_trial": 149, "trialdata": {"rt": -1, "trial_type": "single-stim", "word": "cashier", "stimulus": "<p id=\"stim\">CASHIER</p>", "conditions": [12, 800, "v", 12000], "internal_node_id": "0.0-104.0", "trial": 4, "time_elapsed": 700476, "serialpos": 4, "key_press": -1, "wordID": 253, "type": "PRES_VIS", "trial_index": 149}, "uniqueid": "MTK3592:3MMN5BL1W0BX0ARGHQ4LWQPPGMO3MG", "dateTime": 1520798238691}, {"current_trial": 150, "trialdata": {"rt": -1, "trial_type": "single-stim", "word": "hornet", "stimulus": "<p id=\"stim\">HORNET</p>", "conditions": [12, 800, "v", 12000], "internal_node_id": "0.0-105.0", "trial": 4, "time_elapsed": 702100, "serialpos": 5, "key_press": -1, "wordID": 717, "type": "PRES_VIS", "trial_index": 150}, "uniqueid": "MTK3592:3MMN5BL1W0BX0ARGHQ4LWQPPGMO3MG", "dateTime": 1520798240315}, {"current_trial": 151, "trialdata": {"rt": -1, "trial_type": "single-stim", "word": "shortcake", "stimulus": "<p id=\"stim\">SHORTCAKE</p>", "conditions": [12, 800, "v", 12000], "internal_node_id": "0.0-106.0", "trial": 4, "time_elapsed": 703840, "serialpos": 6, "key_press": -1, "wordID": 1291, "type": "PRES_VIS", "trial_index": 151}, "uniqueid": "MTK3592:3MMN5BL1W0BX0ARGHQ4LWQPPGMO3MG", "dateTime": 1520798242055}, {"current_trial": 152, "trialdata": {"rt": -1, "trial_type": "single-stim", "word": "captive", "stimulus": "<p id=\"stim\">CAPTIVE</p>", "conditions": [12, 800, "v", 12000], "internal_node_id": "0.0-107.0", "trial": 4, "time_elapsed": 705610, "serialpos": 7, "key_press": -1, "wordID": 239, "type": "PRES_VIS", "trial_index": 152}, "uniqueid": "MTK3592:3MMN5BL1W0BX0ARGHQ4LWQPPGMO3MG", "dateTime": 1520798243825}, {"current_trial": 153, "trialdata": {"rt": -1, "trial_type": "single-stim", "word": "wasp", "stimulus": "<p id=\"stim\">WASP</p>", "conditions": [12, 800, "v", 12000], "internal_node_id": "0.0-108.0", "trial": 4, "time_elapsed": 707566, "serialpos": 8, "key_press": -1, "wordID": 1592, "type": "PRES_VIS", "trial_index": 153}, "uniqueid": "MTK3592:3MMN5BL1W0BX0ARGHQ4LWQPPGMO3MG", "dateTime": 1520798245781}, {"current_trial": 154, "trialdata": {"rt": -1, "trial_type": "single-stim", "word": "plaster", "stimulus": "<p id=\"stim\">PLASTER</p>", "conditions": [12, 800, "v", 12000], "internal_node_id": "0.0-109.0", "trial": 4, "time_elapsed": 709486, "serialpos": 9, "key_press": -1, "wordID": 1084, "type": "PRES_VIS", "trial_index": 154}, "uniqueid": "MTK3592:3MMN5BL1W0BX0ARGHQ4LWQPPGMO3MG", "dateTime": 1520798247701}, {"current_trial": 155, "trialdata": {"rt": -1, "trial_type": "single-stim", "word": "chipmunk", "stimulus": "<p id=\"stim\">CHIPMUNK</p>", "conditions": [12, 800, "v", 12000], "internal_node_id": "0.0-110.0", "trial": 4, "time_elapsed": 711451, "serialpos": 10, "key_press": -1, "wordID": 303, "type": "PRES_VIS", "trial_index": 155}, "uniqueid": "MTK3592:3MMN5BL1W0BX0ARGHQ4LWQPPGMO3MG", "dateTime": 1520798249666}, {"current_trial": 156, "trialdata": {"rt": -1, "trial_type": "single-stim", "word": "bunny", "stimulus": "<p id=\"stim\">BUNNY</p>", "conditions": [12, 800, "v", 12000], "internal_node_id": "0.0-111.0", "trial": 4, "time_elapsed": 713313, "serialpos": 11, "key_press": -1, "wordID": 197, "type": "PRES_VIS", "trial_index": 156}, "uniqueid": "MTK3592:3MMN5BL1W0BX0ARGHQ4LWQPPGMO3MG", "dateTime": 1520798251528}, {"current_trial": 157, "trialdata": {"rt": -1, "trial_type": "single-stim", "stimulus": "", "internal_node_id": "0.0-112.0-0.0", "time_elapsed": 715560, "key_press": -1, "type": "PRE_RECALL_DELAY", "trial_index": 157}, "uniqueid": "MTK3592:3MMN5BL1W0BX0ARGHQ4LWQPPGMO3MG", "dateTime": 1520798253775}, {"current_trial": 158, "trialdata": {"rt": -1000, "trial_type": "single-audio", "stimulus": "/static/audio/400Hz.wav", "internal_node_id": "0.0-113.0", "time_elapsed": 716060, "key_press": -1, "type": "PRE_RECALL_ALERT", "trial_index": 158}, "uniqueid": "MTK3592:3MMN5BL1W0BX0ARGHQ4LWQPPGMO3MG", "dateTime": 1520798254275}, {"current_trial": 159, "trialdata": {"rt": [2215, 3615, 4671, 5911, 8719, 12911], "recwords": ["shortcake", "captive", "watch", "bunny", "woman", "plaster"], "key_times": [439, 583, 647, 727, 871, 1047, 1111, 1519, 1927, 2215, 2471, 2567, 2663, 2871, 3015, 3143, 3239, 3615, 3887, 3950, 4047, 4239, 4351, 4671, 4798, 4927, 5102, 5247, 5351, 5911, 7711, 7824, 7904, 7999, 8096, 8719, 12033, 12079, 12111, 12239, 12319, 12447, 12511, 12911, 23849, 24399, 24560], "trial_type": "free-recall", "conditions": [12, 800, "v", 12000], "internal_node_id": "0.0-114.0-0.0", "key_presses": [83, 72, 79, 82, 84, 67, 65, 75, 69, 32, 67, 65, 80, 84, 73, 86, 69, 32, 87, 65, 84, 67, 72, 32, 66, 85, 78, 78, 89, 32, 87, 79, 77, 65, 78, 32, 80, 76, 65, 83, 84, 69, 82, 32, 83, 8, 8], "trial": 4, "time_elapsed": 776061, "type": "FREE_RECALL", "trial_index": 159}, "uniqueid": "MTK3592:3MMN5BL1W0BX0ARGHQ4LWQPPGMO3MG", "dateTime": 1520798314279}, {"current_trial": 160, "trialdata": {"rt": 2540, "trial_type": "text", "internal_node_id": "0.0-115.0", "time_elapsed": 780605, "key_press": 74, "type": "INSTRUCTIONS", "trial_index": 160}, "uniqueid": "MTK3592:3MMN5BL1W0BX0ARGHQ4LWQPPGMO3MG", "dateTime": 1520798318820}, {"current_trial": 161, "trialdata": {"rt": [2718, 4734, 7534, 10238, 12334, 14078, 18574, 20782, 22294], "trial_type": "math-distractor", "key_times": [1974, 2182, 2718, 4022, 4278, 4734, 7150, 7342, 7534, 9712, 9966, 10238, 11950, 12095, 12334, 13679, 13886, 14078, 18118, 18350, 18574, 20430, 20606, 20782, 21846, 22054, 22294], "responses": ["13", "19", "14", "17", "18", "13", "19", "16", "10"], "num2": [3, 9, 2, 2, 8, 4, 8, 5, 5, 8], "num3": [6, 9, 5, 6, 2, 6, 6, 2, 1, 2], "conditions": [12, 800, "v", 24000], "internal_node_id": "0.0-116.0", "key_presses": [49, 51, 13, 49, 57, 13, 49, 52, 13, 49, 55, 13, 49, 56, 13, 49, 51, 13, 49, 57, 13, 49, 54, 13, 49, 48, 13], "trial": 5, "time_elapsed": 806606, "type": "DISTRACTOR", "trial_index": 161, "num1": [4, 1, 7, 9, 8, 3, 5, 9, 4, 6]}, "uniqueid": "MTK3592:3MMN5BL1W0BX0ARGHQ4LWQPPGMO3MG", "dateTime": 1520798344821}, {"current_trial": 162, "trialdata": {"rt": -1, "trial_type": "single-stim", "stimulus": "<p id=\"stim\">10</p>", "internal_node_id": "0.0-117.0-0.0", "time_elapsed": 809606, "key_press": -1, "trial_index": 162}, "uniqueid": "MTK3592:3MMN5BL1W0BX0ARGHQ4LWQPPGMO3MG", "dateTime": 1520798347821}, {"current_trial": 163, "trialdata": {"rt": -1, "trial_type": "single-stim", "stimulus": "<p id=\"stim\">9</p>", "internal_node_id": "0.0-117.0-1.0", "time_elapsed": 810607, "key_press": -1, "trial_index": 163}, "uniqueid": "MTK3592:3MMN5BL1W0BX0ARGHQ4LWQPPGMO3MG", "dateTime": 1520798348822}, {"current_trial": 164, "trialdata": {"rt": -1, "trial_type": "single-stim", "stimulus": "<p id=\"stim\">8</p>", "internal_node_id": "0.0-117.0-2.0", "time_elapsed": 811607, "key_press": -1, "trial_index": 164}, "uniqueid": "MTK3592:3MMN5BL1W0BX0ARGHQ4LWQPPGMO3MG", "dateTime": 1520798349823}, {"current_trial": 165, "trialdata": {"rt": -1, "trial_type": "single-stim", "stimulus": "<p id=\"stim\">7</p>", "internal_node_id": "0.0-117.0-3.0", "time_elapsed": 812608, "key_press": -1, "trial_index": 165}, "uniqueid": "MTK3592:3MMN5BL1W0BX0ARGHQ4LWQPPGMO3MG", "dateTime": 1520798350823}, {"current_trial": 166, "trialdata": {"rt": -1, "trial_type": "single-stim", "stimulus": "<p id=\"stim\">6</p>", "internal_node_id": "0.0-117.0-4.0", "time_elapsed": 813609, "key_press": -1, "trial_index": 166}, "uniqueid": "MTK3592:3MMN5BL1W0BX0ARGHQ4LWQPPGMO3MG", "dateTime": 1520798351824}, {"current_trial": 167, "trialdata": {"rt": -1, "trial_type": "single-stim", "stimulus": "<p id=\"stim\">5</p>", "internal_node_id": "0.0-117.0-5.0", "time_elapsed": 814610, "key_press": -1, "trial_index": 167}, "uniqueid": "MTK3592:3MMN5BL1W0BX0ARGHQ4LWQPPGMO3MG", "dateTime": 1520798352825}, {"current_trial": 168, "trialdata": {"rt": -1, "trial_type": "single-stim", "stimulus": "<p id=\"stim\">4</p>", "internal_node_id": "0.0-117.0-6.0", "time_elapsed": 815610, "key_press": -1, "trial_index": 168}, "uniqueid": "MTK3592:3MMN5BL1W0BX0ARGHQ4LWQPPGMO3MG", "dateTime": 1520798353826}, {"current_trial": 169, "trialdata": {"rt": -1, "trial_type": "single-stim", "stimulus": "<p id=\"stim\">3</p>", "internal_node_id": "0.0-117.0-7.0", "time_elapsed": 816611, "key_press": -1, "trial_index": 169}, "uniqueid": "MTK3592:3MMN5BL1W0BX0ARGHQ4LWQPPGMO3MG", "dateTime": 1520798354826}, {"current_trial": 170, "trialdata": {"rt": -1, "trial_type": "single-stim", "stimulus": "<p id=\"stim\">2</p>", "internal_node_id": "0.0-117.0-8.0", "time_elapsed": 817611, "key_press": -1, "trial_index": 170}, "uniqueid": "MTK3592:3MMN5BL1W0BX0ARGHQ4LWQPPGMO3MG", "dateTime": 1520798355826}, {"current_trial": 171, "trialdata": {"rt": -1, "trial_type": "single-stim", "stimulus": "<p id=\"stim\">1</p>", "internal_node_id": "0.0-117.0-9.0", "time_elapsed": 818612, "key_press": -1, "trial_index": 171}, "uniqueid": "MTK3592:3MMN5BL1W0BX0ARGHQ4LWQPPGMO3MG", "dateTime": 1520798356827}, {"current_trial": 172, "trialdata": {"rt": -1, "trial_type": "single-stim", "stimulus": "<p id=\"stim\">+</p>", "internal_node_id": "0.0-118.0-0.0", "time_elapsed": 820112, "key_press": -1, "type": "FIXATION", "trial_index": 172}, "uniqueid": "MTK3592:3MMN5BL1W0BX0ARGHQ4LWQPPGMO3MG", "dateTime": 1520798358328}, {"current_trial": 173, "trialdata": {"rt": -1, "trial_type": "single-stim", "word": "survey", "stimulus": "<p id=\"stim\">SURVEY</p>", "conditions": [12, 800, "v", 24000], "internal_node_id": "0.0-119.0", "trial": 5, "time_elapsed": 820913, "serialpos": 0, "key_press": -1, "wordID": 1413, "type": "PRES_VIS", "trial_index": 173}, "uniqueid": "MTK3592:3MMN5BL1W0BX0ARGHQ4LWQPPGMO3MG", "dateTime": 1520798359128}, {"current_trial": 174, "trialdata": {"rt": -1, "trial_type": "single-stim", "word": "briefcase", "stimulus": "<p id=\"stim\">BRIEFCASE</p>", "conditions": [12, 800, "v", 24000], "internal_node_id": "0.0-120.0", "trial": 5, "time_elapsed": 822886, "serialpos": 1, "key_press": -1, "wordID": 174, "type": "PRES_VIS", "trial_index": 174}, "uniqueid": "MTK3592:3MMN5BL1W0BX0ARGHQ4LWQPPGMO3MG", "dateTime": 1520798361102}, {"current_trial": 175, "trialdata": {"rt": -1, "trial_type": "single-stim", "word": "cousin", "stimulus": "<p id=\"stim\">COUSIN</p>", "conditions": [12, 800, "v", 24000], "internal_node_id": "0.0-121.0", "trial": 5, "time_elapsed": 824662, "serialpos": 2, "key_press": -1, "wordID": 391, "type": "PRES_VIS", "trial_index": 175}, "uniqueid": "MTK3592:3MMN5BL1W0BX0ARGHQ4LWQPPGMO3MG", "dateTime": 1520798362878}, {"current_trial": 176, "trialdata": {"rt": -1, "trial_type": "single-stim", "word": "uncle", "stimulus": "<p id=\"stim\">UNCLE</p>", "conditions": [12, 800, "v", 24000], "internal_node_id": "0.0-122.0", "trial": 5, "time_elapsed": 826311, "serialpos": 3, "key_press": -1, "wordID": 1535, "type": "PRES_VIS", "trial_index": 176}, "uniqueid": "MTK3592:3MMN5BL1W0BX0ARGHQ4LWQPPGMO3MG", "dateTime": 1520798364526}, {"current_trial": 177, "trialdata": {"rt": -1, "trial_type": "single-stim", "word": "handbag", "stimulus": "<p id=\"stim\">HANDBAG</p>", "conditions": [12, 800, "v", 24000], "internal_node_id": "0.0-123.0", "trial": 5, "time_elapsed": 827918, "serialpos": 4, "key_press": -1, "wordID": 683, "type": "PRES_VIS", "trial_index": 177}, "uniqueid": "MTK3592:3MMN5BL1W0BX0ARGHQ4LWQPPGMO3MG", "dateTime": 1520798366133}, {"current_trial": 178, "trialdata": {"rt": -1, "trial_type": "single-stim", "word": "mattress", "stimulus": "<p id=\"stim\">MATTRESS</p>", "conditions": [12, 800, "v", 24000], "internal_node_id": "0.0-124.0", "trial": 5, "time_elapsed": 829576, "serialpos": 5, "key_press": -1, "wordID": 878, "type": "PRES_VIS", "trial_index": 178}, "uniqueid": "MTK3592:3MMN5BL1W0BX0ARGHQ4LWQPPGMO3MG", "dateTime": 1520798367791}, {"current_trial": 179, "trialdata": {"rt": -1, "trial_type": "single-stim", "word": "princess", "stimulus": "<p id=\"stim\">PRINCESS</p>", "conditions": [12, 800, "v", 24000], "internal_node_id": "0.0-125.0", "trial": 5, "time_elapsed": 831418, "serialpos": 6, "key_press": -1, "wordID": 1124, "type": "PRES_VIS", "trial_index": 179}, "uniqueid": "MTK3592:3MMN5BL1W0BX0ARGHQ4LWQPPGMO3MG", "dateTime": 1520798369633}, {"current_trial": 180, "trialdata": {"rt": -1, "trial_type": "single-stim", "word": "flower", "stimulus": "<p id=\"stim\">FLOWER</p>", "conditions": [12, 800, "v", 24000], "internal_node_id": "0.0-126.0", "trial": 5, "time_elapsed": 833032, "serialpos": 7, "key_press": -1, "wordID": 583, "type": "PRES_VIS", "trial_index": 180}, "uniqueid": "MTK3592:3MMN5BL1W0BX0ARGHQ4LWQPPGMO3MG", "dateTime": 1520798371247}, {"current_trial": 181, "trialdata": {"rt": -1, "trial_type": "single-stim", "word": "turtle", "stimulus": "<p id=\"stim\">TURTLE</p>", "conditions": [12, 800, "v", 24000], "internal_node_id": "0.0-127.0", "trial": 5, "time_elapsed": 834724, "serialpos": 8, "key_press": -1, "wordID": 1521, "type": "PRES_VIS", "trial_index": 181}, "uniqueid": "MTK3592:3MMN5BL1W0BX0ARGHQ4LWQPPGMO3MG", "dateTime": 1520798372940}, {"current_trial": 182, "trialdata": {"rt": -1, "trial_type": "single-stim", "word": "neutron", "stimulus": "<p id=\"stim\">NEUTRON</p>", "conditions": [12, 800, "v", 24000], "internal_node_id": "0.0-128.0", "trial": 5, "time_elapsed": 836326, "serialpos": 9, "key_press": -1, "wordID": 946, "type": "PRES_VIS", "trial_index": 182}, "uniqueid": "MTK3592:3MMN5BL1W0BX0ARGHQ4LWQPPGMO3MG", "dateTime": 1520798374541}, {"current_trial": 183, "trialdata": {"rt": -1, "trial_type": "single-stim", "word": "leopard", "stimulus": "<p id=\"stim\">LEOPARD</p>", "conditions": [12, 800, "v", 24000], "internal_node_id": "0.0-129.0", "trial": 5, "time_elapsed": 837958, "serialpos": 10, "key_press": -1, "wordID": 811, "type": "PRES_VIS", "trial_index": 183}, "uniqueid": "MTK3592:3MMN5BL1W0BX0ARGHQ4LWQPPGMO3MG", "dateTime": 1520798376173}, {"current_trial": 184, "trialdata": {"rt": -1, "trial_type": "single-stim", "word": "binder", "stimulus": "<p id=\"stim\">BINDER</p>", "conditions": [12, 800, "v", 24000], "internal_node_id": "0.0-130.0", "trial": 5, "time_elapsed": 839935, "serialpos": 11, "key_press": -1, "wordID": 126, "type": "PRES_VIS", "trial_index": 184}, "uniqueid": "MTK3592:3MMN5BL1W0BX0ARGHQ4LWQPPGMO3MG", "dateTime": 1520798378150}, {"current_trial": 185, "trialdata": {"rt": -1, "trial_type": "single-stim", "stimulus": "", "internal_node_id": "0.0-131.0-0.0", "time_elapsed": 842431, "key_press": -1, "type": "PRE_RECALL_DELAY", "trial_index": 185}, "uniqueid": "MTK3592:3MMN5BL1W0BX0ARGHQ4LWQPPGMO3MG", "dateTime": 1520798380646}, {"current_trial": 186, "trialdata": {"rt": -1000, "trial_type": "single-audio", "stimulus": "/static/audio/400Hz.wav", "internal_node_id": "0.0-132.0", "time_elapsed": 842932, "key_press": -1, "type": "PRE_RECALL_ALERT", "trial_index": 186}, "uniqueid": "MTK3592:3MMN5BL1W0BX0ARGHQ4LWQPPGMO3MG", "dateTime": 1520798381147}, {"current_trial": 187, "trialdata": {"rt": [1959, 3319, 4583, 6151, 7455, 11350, 14046, 20735, 24398], "recwords": ["neutron", "leopard", "binder", "uncle", "princess", "cousin", "binder", "suitcase", "survey"], "key_times": [430, 526, 750, 998, 1366, 1590, 1638, 1959, 2247, 2391, 2518, 2774, 2887, 2966, 3094, 3319, 3559, 3750, 3782, 4102, 4279, 4374, 4583, 5055, 5118, 5199, 5326, 5423, 6151, 6398, 6502, 6614, 6679, 6783, 6846, 7087, 7214, 7455, 8630, 8775, 8838, 8998, 9086, 9150, 11350, 13118, 13246, 13310, 13374, 13542, 13606, 14046, 18342, 18445, 18512, 18734, 18846, 19134, 19278, 19431, 20039, 20103, 20318, 20399, 20478, 20558, 20735, 23352, 23510, 23558, 23750, 23886, 24030, 24398], "trial_type": "free-recall", "conditions": [12, 800, "v", 24000], "internal_node_id": "0.0-133.0-0.0", "key_presses": [78, 69, 85, 84, 82, 79, 78, 13, 76, 69, 79, 80, 65, 82, 68, 13, 66, 73, 78, 68, 69, 82, 13, 85, 78, 67, 76, 69, 13, 80, 82, 73, 78, 67, 69, 83, 83, 13, 67, 79, 85, 83, 73, 78, 13, 66, 73, 78, 68, 69, 82, 13, 83, 85, 84, 67, 65, 8, 8, 8, 73, 84, 67, 65, 83, 69, 13, 83, 85, 82, 86, 69, 89, 13], "trial": 5, "time_elapsed": 902935, "type": "FREE_RECALL", "trial_index": 187}, "uniqueid": "MTK3592:3MMN5BL1W0BX0ARGHQ4LWQPPGMO3MG", "dateTime": 1520798441153}, {"current_trial": 188, "trialdata": {"rt": 3523, "trial_type": "text", "internal_node_id": "0.0-134.0", "time_elapsed": 908461, "key_press": 70, "type": "INSTRUCTIONS", "trial_index": 188}, "uniqueid": "MTK3592:3MMN5BL1W0BX0ARGHQ4LWQPPGMO3MG", "dateTime": 1520798446676}, {"current_trial": 189, "trialdata": {"rt": [1974, 7238, 10390, 11862], "trial_type": "math-distractor", "key_times": [1814, 1974, 6374, 6727, 7238, 10119, 10215, 10390, 11726, 11862], "responses": ["7", "18", "14", "7"], "num2": [4, 8, 1, 3, 5], "num3": [2, 5, 5, 3, 5], "conditions": [24, 1600, "v", 12000], "internal_node_id": "0.0-135.0", "key_presses": [55, 13, 49, 56, 13, 49, 52, 13, 55, 13], "trial": 6, "time_elapsed": 922462, "type": "DISTRACTOR", "trial_index": 189, "num1": [1, 5, 8, 1, 8]}, "uniqueid": "MTK3592:3MMN5BL1W0BX0ARGHQ4LWQPPGMO3MG", "dateTime": 1520798460677}, {"current_trial": 190, "trialdata": {"rt": -1, "trial_type": "single-stim", "stimulus": "<p id=\"stim\">10</p>", "internal_node_id": "0.0-136.0-0.0", "time_elapsed": 925463, "key_press": -1, "trial_index": 190}, "uniqueid": "MTK3592:3MMN5BL1W0BX0ARGHQ4LWQPPGMO3MG", "dateTime": 1520798463678}, {"current_trial": 191, "trialdata": {"rt": -1, "trial_type": "single-stim", "stimulus": "<p id=\"stim\">9</p>", "internal_node_id": "0.0-136.0-1.0", "time_elapsed": 926464, "key_press": -1, "trial_index": 191}, "uniqueid": "MTK3592:3MMN5BL1W0BX0ARGHQ4LWQPPGMO3MG", "dateTime": 1520798464679}, {"current_trial": 192, "trialdata": {"rt": -1, "trial_type": "single-stim", "stimulus": "<p id=\"stim\">8</p>", "internal_node_id": "0.0-136.0-2.0", "time_elapsed": 927465, "key_press": -1, "trial_index": 192}, "uniqueid": "MTK3592:3MMN5BL1W0BX0ARGHQ4LWQPPGMO3MG", "dateTime": 1520798465680}, {"current_trial": 193, "trialdata": {"rt": -1, "trial_type": "single-stim", "stimulus": "<p id=\"stim\">7</p>", "internal_node_id": "0.0-136.0-3.0", "time_elapsed": 928465, "key_press": -1, "trial_index": 193}, "uniqueid": "MTK3592:3MMN5BL1W0BX0ARGHQ4LWQPPGMO3MG", "dateTime": 1520798466680}, {"current_trial": 194, "trialdata": {"rt": -1, "trial_type": "single-stim", "stimulus": "<p id=\"stim\">6</p>", "internal_node_id": "0.0-136.0-4.0", "time_elapsed": 929466, "key_press": -1, "trial_index": 194}, "uniqueid": "MTK3592:3MMN5BL1W0BX0ARGHQ4LWQPPGMO3MG", "dateTime": 1520798467682}, {"current_trial": 195, "trialdata": {"rt": -1, "trial_type": "single-stim", "stimulus": "<p id=\"stim\">5</p>", "internal_node_id": "0.0-136.0-5.0", "time_elapsed": 930467, "key_press": -1, "trial_index": 195}, "uniqueid": "MTK3592:3MMN5BL1W0BX0ARGHQ4LWQPPGMO3MG", "dateTime": 1520798468683}, {"current_trial": 196, "trialdata": {"rt": -1, "trial_type": "single-stim", "stimulus": "<p id=\"stim\">4</p>", "internal_node_id": "0.0-136.0-6.0", "time_elapsed": 931468, "key_press": -1, "trial_index": 196}, "uniqueid": "MTK3592:3MMN5BL1W0BX0ARGHQ4LWQPPGMO3MG", "dateTime": 1520798469683}, {"current_trial": 197, "trialdata": {"rt": -1, "trial_type": "single-stim", "stimulus": "<p id=\"stim\">3</p>", "internal_node_id": "0.0-136.0-7.0", "time_elapsed": 932469, "key_press": -1, "trial_index": 197}, "uniqueid": "MTK3592:3MMN5BL1W0BX0ARGHQ4LWQPPGMO3MG", "dateTime": 1520798470684}, {"current_trial": 198, "trialdata": {"rt": -1, "trial_type": "single-stim", "stimulus": "<p id=\"stim\">2</p>", "internal_node_id": "0.0-136.0-8.0", "time_elapsed": 933469, "key_press": -1, "trial_index": 198}, "uniqueid": "MTK3592:3MMN5BL1W0BX0ARGHQ4LWQPPGMO3MG", "dateTime": 1520798471684}, {"current_trial": 199, "trialdata": {"rt": -1, "trial_type": "single-stim", "stimulus": "<p id=\"stim\">1</p>", "internal_node_id": "0.0-136.0-9.0", "time_elapsed": 934469, "key_press": -1, "trial_index": 199}, "uniqueid": "MTK3592:3MMN5BL1W0BX0ARGHQ4LWQPPGMO3MG", "dateTime": 1520798472684}, {"current_trial": 200, "trialdata": {"rt": -1, "trial_type": "single-stim", "stimulus": "<p id=\"stim\">+</p>", "internal_node_id": "0.0-137.0-0.0", "time_elapsed": 935969, "key_press": -1, "type": "FIXATION", "trial_index": 200}, "uniqueid": "MTK3592:3MMN5BL1W0BX0ARGHQ4LWQPPGMO3MG", "dateTime": 1520798474184}, {"current_trial": 201, "trialdata": {"rt": -1, "trial_type": "single-stim", "word": "freckle", "stimulus": "<p id=\"stim\">FRECKLE</p>", "conditions": [24, 1600, "v", 12000], "internal_node_id": "0.0-138.0", "trial": 6, "time_elapsed": 937569, "serialpos": 0, "key_press": -1, "wordID": 601, "type": "PRES_VIS", "trial_index": 201}, "uniqueid": "MTK3592:3MMN5BL1W0BX0ARGHQ4LWQPPGMO3MG", "dateTime": 1520798475784}, {"current_trial": 202, "trialdata": {"rt": -1, "trial_type": "single-stim", "word": "flask", "stimulus": "<p id=\"stim\">FLASK</p>", "conditions": [24, 1600, "v", 12000], "internal_node_id": "0.0-139.0", "trial": 6, "time_elapsed": 940041, "serialpos": 1, "key_press": -1, "wordID": 575, "type": "PRES_VIS", "trial_index": 202}, "uniqueid": "MTK3592:3MMN5BL1W0BX0ARGHQ4LWQPPGMO3MG", "dateTime": 1520798478256}, {"current_trial": 203, "trialdata": {"rt": -1, "trial_type": "single-stim", "word": "quail", "stimulus": "<p id=\"stim\">QUAIL</p>", "conditions": [24, 1600, "v", 12000], "internal_node_id": "0.0-140.0", "trial": 6, "time_elapsed": 942770, "serialpos": 2, "key_press": -1, "wordID": 1146, "type": "PRES_VIS", "trial_index": 203}, "uniqueid": "MTK3592:3MMN5BL1W0BX0ARGHQ4LWQPPGMO3MG", "dateTime": 1520798480985}, {"current_trial": 204, "trialdata": {"rt": -1, "trial_type": "single-stim", "word": "bison", "stimulus": "<p id=\"stim\">BISON</p>", "conditions": [24, 1600, "v", 12000], "internal_node_id": "0.0-141.0", "trial": 6, "time_elapsed": 945526, "serialpos": 3, "key_press": -1, "wordID": 130, "type": "PRES_VIS", "trial_index": 204}, "uniqueid": "MTK3592:3MMN5BL1W0BX0ARGHQ4LWQPPGMO3MG", "dateTime": 1520798483741}, {"current_trial": 205, "trialdata": {"rt": -1, "trial_type": "single-stim", "word": "backbone", "stimulus": "<p id=\"stim\">BACKBONE</p>", "conditions": [24, 1600, "v", 12000], "internal_node_id": "0.0-142.0", "trial": 6, "time_elapsed": 948156, "serialpos": 4, "key_press": -1, "wordID": 65, "type": "PRES_VIS", "trial_index": 205}, "uniqueid": "MTK3592:3MMN5BL1W0BX0ARGHQ4LWQPPGMO3MG", "dateTime": 1520798486371}, {"current_trial": 206, "trialdata": {"rt": -1, "trial_type": "single-stim", "word": "salad", "stimulus": "<p id=\"stim\">SALAD</p>", "conditions": [24, 1600, "v", 12000], "internal_node_id": "0.0-143.0", "trial": 6, "time_elapsed": 950566, "serialpos": 5, "key_press": -1, "wordID": 1223, "type": "PRES_VIS", "trial_index": 206}, "uniqueid": "MTK3592:3MMN5BL1W0BX0ARGHQ4LWQPPGMO3MG", "dateTime": 1520798488781}, {"current_trial": 207, "trialdata": {"rt": -1, "trial_type": "single-stim", "word": "sandwich", "stimulus": "<p id=\"stim\">SANDWICH</p>", "conditions": [24, 1600, "v", 12000], "internal_node_id": "0.0-144.0", "trial": 6, "time_elapsed": 953352, "serialpos": 6, "key_press": -1, "wordID": 1231, "type": "PRES_VIS", "trial_index": 207}, "uniqueid": "MTK3592:3MMN5BL1W0BX0ARGHQ4LWQPPGMO3MG", "dateTime": 1520798491567}, {"current_trial": 208, "trialdata": {"rt": -1, "trial_type": "single-stim", "word": "label", "stimulus": "<p id=\"stim\">LABEL</p>", "conditions": [24, 1600, "v", 12000], "internal_node_id": "0.0-145.0", "trial": 6, "time_elapsed": 955896, "serialpos": 7, "key_press": -1, "wordID": 789, "type": "PRES_VIS", "trial_index": 208}, "uniqueid": "MTK3592:3MMN5BL1W0BX0ARGHQ4LWQPPGMO3MG", "dateTime": 1520798494111}, {"current_trial": 209, "trialdata": {"rt": -1, "trial_type": "single-stim", "word": "nightgown", "stimulus": "<p id=\"stim\">NIGHTGOWN</p>", "conditions": [24, 1600, "v", 12000], "internal_node_id": "0.0-146.0", "trial": 6, "time_elapsed": 958559, "serialpos": 8, "key_press": -1, "wordID": 952, "type": "PRES_VIS", "trial_index": 209}, "uniqueid": "MTK3592:3MMN5BL1W0BX0ARGHQ4LWQPPGMO3MG", "dateTime": 1520798496774}, {"current_trial": 210, "trialdata": {"rt": -1, "trial_type": "single-stim", "word": "xerox", "stimulus": "<p id=\"stim\">XEROX</p>", "conditions": [24, 1600, "v", 12000], "internal_node_id": "0.0-147.0", "trial": 6, "time_elapsed": 961110, "serialpos": 9, "key_press": -1, "wordID": 1627, "type": "PRES_VIS", "trial_index": 210}, "uniqueid": "MTK3592:3MMN5BL1W0BX0ARGHQ4LWQPPGMO3MG", "dateTime": 1520798499325}, {"current_trial": 211, "trialdata": {"rt": -1, "trial_type": "single-stim", "word": "pimple", "stimulus": "<p id=\"stim\">PIMPLE</p>", "conditions": [24, 1600, "v", 12000], "internal_node_id": "0.0-148.0", "trial": 6, "time_elapsed": 963656, "serialpos": 10, "key_press": -1, "wordID": 1070, "type": "PRES_VIS", "trial_index": 211}, "uniqueid": "MTK3592:3MMN5BL1W0BX0ARGHQ4LWQPPGMO3MG", "dateTime": 1520798501871}, {"current_trial": 212, "trialdata": {"rt": -1, "trial_type": "single-stim", "word": "braces", "stimulus": "<p id=\"stim\">BRACES</p>", "conditions": [24, 1600, "v", 12000], "internal_node_id": "0.0-149.0", "trial": 6, "time_elapsed": 966389, "serialpos": 11, "key_press": -1, "wordID": 163, "type": "PRES_VIS", "trial_index": 212}, "uniqueid": "MTK3592:3MMN5BL1W0BX0ARGHQ4LWQPPGMO3MG", "dateTime": 1520798504604}, {"current_trial": 213, "trialdata": {"rt": -1, "trial_type": "single-stim", "word": "wagon", "stimulus": "<p id=\"stim\">WAGON</p>", "conditions": [24, 1600, "v", 12000], "internal_node_id": "0.0-150.0", "trial": 6, "time_elapsed": 969126, "serialpos": 12, "key_press": -1, "wordID": 1577, "type": "PRES_VIS", "trial_index": 213}, "uniqueid": "MTK3592:3MMN5BL1W0BX0ARGHQ4LWQPPGMO3MG", "dateTime": 1520798507341}, {"current_trial": 214, "trialdata": {"rt": -1, "trial_type": "single-stim", "word": "pastry", "stimulus": "<p id=\"stim\">PASTRY</p>", "conditions": [24, 1600, "v", 12000], "internal_node_id": "0.0-151.0", "trial": 6, "time_elapsed": 971689, "serialpos": 13, "key_press": -1, "wordID": 1021, "type": "PRES_VIS", "trial_index": 214}, "uniqueid": "MTK3592:3MMN5BL1W0BX0ARGHQ4LWQPPGMO3MG", "dateTime": 1520798509904}, {"current_trial": 215, "trialdata": {"rt": -1, "trial_type": "single-stim", "word": "fox", "stimulus": "<p id=\"stim\">FOX</p>", "conditions": [24, 1600, "v", 12000], "internal_node_id": "0.0-152.0", "trial": 6, "time_elapsed": 974115, "serialpos": 14, "key_press": -1, "wordID": 597, "type": "PRES_VIS", "trial_index": 215}, "uniqueid": "MTK3592:3MMN5BL1W0BX0ARGHQ4LWQPPGMO3MG", "dateTime": 1520798512330}, {"current_trial": 216, "trialdata": {"rt": -1, "trial_type": "single-stim", "word": "robin", "stimulus": "<p id=\"stim\">ROBIN</p>", "conditions": [24, 1600, "v", 12000], "internal_node_id": "0.0-153.0", "trial": 6, "time_elapsed": 976655, "serialpos": 15, "key_press": -1, "wordID": 1198, "type": "PRES_VIS", "trial_index": 216}, "uniqueid": "MTK3592:3MMN5BL1W0BX0ARGHQ4LWQPPGMO3MG", "dateTime": 1520798514870}, {"current_trial": 217, "trialdata": {"rt": -1, "trial_type": "single-stim", "word": "doughnut", "stimulus": "<p id=\"stim\">DOUGHNUT</p>", "conditions": [24, 1600, "v", 12000], "internal_node_id": "0.0-154.0", "trial": 6, "time_elapsed": 979217, "serialpos": 16, "key_press": -1, "wordID": 489, "type": "PRES_VIS", "trial_index": 217}, "uniqueid": "MTK3592:3MMN5BL1W0BX0ARGHQ4LWQPPGMO3MG", "dateTime": 1520798517433}, {"current_trial": 218, "trialdata": {"rt": -1, "trial_type": "single-stim", "word": "tribe", "stimulus": "<p id=\"stim\">TRIBE</p>", "conditions": [24, 1600, "v", 12000], "internal_node_id": "0.0-155.0", "trial": 6, "time_elapsed": 981657, "serialpos": 17, "key_press": -1, "wordID": 1504, "type": "PRES_VIS", "trial_index": 218}, "uniqueid": "MTK3592:3MMN5BL1W0BX0ARGHQ4LWQPPGMO3MG", "dateTime": 1520798519872}, {"current_trial": 219, "trialdata": {"rt": -1, "trial_type": "single-stim", "word": "contract", "stimulus": "<p id=\"stim\">CONTRACT</p>", "conditions": [24, 1600, "v", 12000], "internal_node_id": "0.0-156.0", "trial": 6, "time_elapsed": 984075, "serialpos": 18, "key_press": -1, "wordID": 367, "type": "PRES_VIS", "trial_index": 219}, "uniqueid": "MTK3592:3MMN5BL1W0BX0ARGHQ4LWQPPGMO3MG", "dateTime": 1520798522291}, {"current_trial": 220, "trialdata": {"rt": -1, "trial_type": "single-stim", "word": "permit", "stimulus": "<p id=\"stim\">PERMIT</p>", "conditions": [24, 1600, "v", 12000], "internal_node_id": "0.0-157.0", "trial": 6, "time_elapsed": 986479, "serialpos": 19, "key_press": -1, "wordID": 1050, "type": "PRES_VIS", "trial_index": 220}, "uniqueid": "MTK3592:3MMN5BL1W0BX0ARGHQ4LWQPPGMO3MG", "dateTime": 1520798524694}, {"current_trial": 221, "trialdata": {"rt": -1, "trial_type": "single-stim", "word": "fleet", "stimulus": "<p id=\"stim\">FLEET</p>", "conditions": [24, 1600, "v", 12000], "internal_node_id": "0.0-158.0", "trial": 6, "time_elapsed": 989273, "serialpos": 20, "key_press": -1, "wordID": 577, "type": "PRES_VIS", "trial_index": 221}, "uniqueid": "MTK3592:3MMN5BL1W0BX0ARGHQ4LWQPPGMO3MG", "dateTime": 1520798527488}, {"current_trial": 222, "trialdata": {"rt": -1, "trial_type": "single-stim", "word": "human", "stimulus": "<p id=\"stim\">HUMAN</p>", "conditions": [24, 1600, "v", 12000], "internal_node_id": "0.0-159.0", "trial": 6, "time_elapsed": 991773, "serialpos": 21, "key_press": -1, "wordID": 725, "type": "PRES_VIS", "trial_index": 222}, "uniqueid": "MTK3592:3MMN5BL1W0BX0ARGHQ4LWQPPGMO3MG", "dateTime": 1520798529988}, {"current_trial": 223, "trialdata": {"rt": -1, "trial_type": "single-stim", "word": "monster", "stimulus": "<p id=\"stim\">MONSTER</p>", "conditions": [24, 1600, "v", 12000], "internal_node_id": "0.0-160.0", "trial": 6, "time_elapsed": 994414, "serialpos": 22, "key_press": -1, "wordID": 911, "type": "PRES_VIS", "trial_index": 223}, "uniqueid": "MTK3592:3MMN5BL1W0BX0ARGHQ4LWQPPGMO3MG", "dateTime": 1520798532629}, {"current_trial": 224, "trialdata": {"rt": -1, "trial_type": "single-stim", "word": "plaid", "stimulus": "<p id=\"stim\">PLAID</p>", "conditions": [24, 1600, "v", 12000], "internal_node_id": "0.0-161.0", "trial": 6, "time_elapsed": 996988, "serialpos": 23, "key_press": -1, "wordID": 1079, "type": "PRES_VIS", "trial_index": 224}, "uniqueid": "MTK3592:3MMN5BL1W0BX0ARGHQ4LWQPPGMO3MG", "dateTime": 1520798535203}, {"current_trial": 225, "trialdata": {"rt": -1, "trial_type": "single-stim", "stimulus": "", "internal_node_id": "0.0-162.0-0.0", "time_elapsed": 999265, "key_press": -1, "type": "PRE_RECALL_DELAY", "trial_index": 225}, "uniqueid": "MTK3592:3MMN5BL1W0BX0ARGHQ4LWQPPGMO3MG", "dateTime": 1520798537480}, {"current_trial": 226, "trialdata": {"rt": -1000, "trial_type": "single-audio", "stimulus": "/static/audio/400Hz.wav", "internal_node_id": "0.0-163.0", "time_elapsed": 999766, "key_press": -1, "type": "PRE_RECALL_ALERT", "trial_index": 226}, "uniqueid": "MTK3592:3MMN5BL1W0BX0ARGHQ4LWQPPGMO3MG", "dateTime": 1520798537981}, {"current_trial": 227, "trialdata": {"rt": [1053, 2157, 3295, 4495, 5366, 7646, 10302, 13382, 15286, 20055, 22560, 25006, 28502], "recwords": ["fleet", "human", "monster", "plaid", "fox", "doughnut", "contrast", "xerox", "pimple", "salad", "sandwich", "label", "tribe"], "key_times": [414, 557, 621, 749, 845, 1053, 1278, 1550, 1758, 1885, 1974, 2157, 2415, 2567, 2655, 2750, 2839, 2943, 3022, 3295, 3662, 3694, 3799, 3958, 4038, 4495, 4767, 4894, 5006, 5366, 5662, 5870, 6047, 6126, 6222, 6414, 6574, 6687, 7646, 8222, 8334, 8414, 8447, 8590, 8638, 8815, 9006, 9694, 9822, 9934, 9998, 10302, 11638, 12118, 12198, 12310, 12486, 13382, 14046, 14278, 14342, 14534, 14854, 14934, 15286, 18854, 18982, 19334, 19446, 19525, 20055, 20184, 20247, 20343, 20631, 20822, 20967, 21062, 21174, 22560, 24206, 24286, 24366, 24526, 24654, 25006, 27006, 27070, 27230, 27342, 27486, 28502], "trial_type": "free-recall", "conditions": [24, 1600, "v", 12000], "internal_node_id": "0.0-164.0-0.0", "key_presses": [70, 76, 69, 69, 84, 32, 72, 85, 77, 65, 78, 32, 77, 79, 78, 83, 84, 69, 82, 32, 80, 76, 65, 73, 68, 32, 70, 79, 88, 32, 68, 79, 85, 71, 72, 78, 85, 84, 13, 67, 79, 78, 84, 82, 65, 67, 84, 8, 8, 83, 84, 32, 88, 69, 82, 79, 88, 32, 80, 73, 77, 80, 76, 69, 32, 83, 65, 76, 65, 68, 32, 83, 65, 78, 68, 87, 73, 67, 72, 32, 76, 65, 66, 69, 76, 32, 84, 82, 73, 66, 69, 32], "trial": 6, "time_elapsed": 1059768, "type": "FREE_RECALL", "trial_index": 227}, "uniqueid": "MTK3592:3MMN5BL1W0BX0ARGHQ4LWQPPGMO3MG", "dateTime": 1520798597986}, {"current_trial": 228, "trialdata": {"rt": 4139, "trial_type": "text", "internal_node_id": "0.0-165.0", "time_elapsed": 1065910, "key_press": 32, "type": "INSTRUCTIONS", "trial_index": 228}, "uniqueid": "MTK3592:3MMN5BL1W0BX0ARGHQ4LWQPPGMO3MG", "dateTime": 1520798604126}, {"current_trial": 229, "trialdata": {"rt": [3155, 4859, 9635, 11011, 12395, 14259, 17251, 18739, 20715, 22596], "trial_type": "math-distractor", "key_times": [2779, 2906, 3155, 4716, 4859, 9348, 9460, 9635, 10676, 10819, 11011, 12091, 12204, 12395, 13939, 14084, 14259, 16883, 17059, 17251, 18355, 18563, 18739, 20348, 20507, 20715, 22075, 22392, 22596], "responses": ["20", "7", "23", "11", "10", "11", "20", "15", "14", "16"], "num2": [8, 3, 9, 7, 5, 1, 9, 4, 6, 3, 9], "num3": [8, 3, 8, 1, 1, 6, 3, 5, 1, 8, 7], "conditions": [24, 1600, "v", 24000], "internal_node_id": "0.0-166.0", "key_presses": [50, 48, 13, 55, 13, 50, 51, 13, 49, 49, 13, 49, 48, 13, 49, 49, 13, 50, 48, 13, 49, 53, 13, 49, 52, 13, 49, 54, 13], "trial": 7, "time_elapsed": 1091913, "type": "DISTRACTOR", "trial_index": 229, "num1": [4, 1, 6, 3, 4, 4, 8, 6, 7, 5, 7]}, "uniqueid": "MTK3592:3MMN5BL1W0BX0ARGHQ4LWQPPGMO3MG", "dateTime": 1520798630129}, {"current_trial": 230, "trialdata": {"rt": -1, "trial_type": "single-stim", "stimulus": "<p id=\"stim\">10</p>", "internal_node_id": "0.0-167.0-0.0", "time_elapsed": 1094914, "key_press": -1, "trial_index": 230}, "uniqueid": "MTK3592:3MMN5BL1W0BX0ARGHQ4LWQPPGMO3MG", "dateTime": 1520798633129}, {"current_trial": 231, "trialdata": {"rt": -1, "trial_type": "single-stim", "stimulus": "<p id=\"stim\">9</p>", "internal_node_id": "0.0-167.0-1.0", "time_elapsed": 1095914, "key_press": -1, "trial_index": 231}, "uniqueid": "MTK3592:3MMN5BL1W0BX0ARGHQ4LWQPPGMO3MG", "dateTime": 1520798634129}, {"current_trial": 232, "trialdata": {"rt": -1, "trial_type": "single-stim", "stimulus": "<p id=\"stim\">8</p>", "internal_node_id": "0.0-167.0-2.0", "time_elapsed": 1096914, "key_press": -1, "trial_index": 232}, "uniqueid": "MTK3592:3MMN5BL1W0BX0ARGHQ4LWQPPGMO3MG", "dateTime": 1520798635129}, {"current_trial": 233, "trialdata": {"rt": -1, "trial_type": "single-stim", "stimulus": "<p id=\"stim\">7</p>", "internal_node_id": "0.0-167.0-3.0", "time_elapsed": 1097915, "key_press": -1, "trial_index": 233}, "uniqueid": "MTK3592:3MMN5BL1W0BX0ARGHQ4LWQPPGMO3MG", "dateTime": 1520798636130}, {"current_trial": 234, "trialdata": {"rt": -1, "trial_type": "single-stim", "stimulus": "<p id=\"stim\">6</p>", "internal_node_id": "0.0-167.0-4.0", "time_elapsed": 1098915, "key_press": -1, "trial_index": 234}, "uniqueid": "MTK3592:3MMN5BL1W0BX0ARGHQ4LWQPPGMO3MG", "dateTime": 1520798637130}, {"current_trial": 235, "trialdata": {"rt": -1, "trial_type": "single-stim", "stimulus": "<p id=\"stim\">5</p>", "internal_node_id": "0.0-167.0-5.0", "time_elapsed": 1099917, "key_press": -1, "trial_index": 235}, "uniqueid": "MTK3592:3MMN5BL1W0BX0ARGHQ4LWQPPGMO3MG", "dateTime": 1520798638132}, {"current_trial": 236, "trialdata": {"rt": -1, "trial_type": "single-stim", "stimulus": "<p id=\"stim\">4</p>", "internal_node_id": "0.0-167.0-6.0", "time_elapsed": 1100918, "key_press": -1, "trial_index": 236}, "uniqueid": "MTK3592:3MMN5BL1W0BX0ARGHQ4LWQPPGMO3MG", "dateTime": 1520798639133}, {"current_trial": 237, "trialdata": {"rt": -1, "trial_type": "single-stim", "stimulus": "<p id=\"stim\">3</p>", "internal_node_id": "0.0-167.0-7.0", "time_elapsed": 1101919, "key_press": -1, "trial_index": 237}, "uniqueid": "MTK3592:3MMN5BL1W0BX0ARGHQ4LWQPPGMO3MG", "dateTime": 1520798640134}, {"current_trial": 238, "trialdata": {"rt": -1, "trial_type": "single-stim", "stimulus": "<p id=\"stim\">2</p>", "internal_node_id": "0.0-167.0-8.0", "time_elapsed": 1102919, "key_press": -1, "trial_index": 238}, "uniqueid": "MTK3592:3MMN5BL1W0BX0ARGHQ4LWQPPGMO3MG", "dateTime": 1520798641135}, {"current_trial": 239, "trialdata": {"rt": -1, "trial_type": "single-stim", "stimulus": "<p id=\"stim\">1</p>", "internal_node_id": "0.0-167.0-9.0", "time_elapsed": 1103920, "key_press": -1, "trial_index": 239}, "uniqueid": "MTK3592:3MMN5BL1W0BX0ARGHQ4LWQPPGMO3MG", "dateTime": 1520798642136}, {"current_trial": 240, "trialdata": {"rt": -1, "trial_type": "single-stim", "stimulus": "<p id=\"stim\">+</p>", "internal_node_id": "0.0-168.0-0.0", "time_elapsed": 1105421, "key_press": -1, "type": "FIXATION", "trial_index": 240}, "uniqueid": "MTK3592:3MMN5BL1W0BX0ARGHQ4LWQPPGMO3MG", "dateTime": 1520798643636}, {"current_trial": 241, "trialdata": {"rt": -1, "trial_type": "single-stim", "word": "lodge", "stimulus": "<p id=\"stim\">LODGE</p>", "conditions": [24, 1600, "v", 24000], "internal_node_id": "0.0-169.0", "trial": 7, "time_elapsed": 1107021, "serialpos": 0, "key_press": -1, "wordID": 838, "type": "PRES_VIS", "trial_index": 241}, "uniqueid": "MTK3592:3MMN5BL1W0BX0ARGHQ4LWQPPGMO3MG", "dateTime": 1520798645236}, {"current_trial": 242, "trialdata": {"rt": -1, "trial_type": "single-stim", "word": "diner", "stimulus": "<p id=\"stim\">DINER</p>", "conditions": [24, 1600, "v", 24000], "internal_node_id": "0.0-170.0", "trial": 7, "time_elapsed": 1109554, "serialpos": 1, "key_press": -1, "wordID": 466, "type": "PRES_VIS", "trial_index": 242}, "uniqueid": "MTK3592:3MMN5BL1W0BX0ARGHQ4LWQPPGMO3MG", "dateTime": 1520798647769}, {"current_trial": 243, "trialdata": {"rt": -1, "trial_type": "single-stim", "word": "mammal", "stimulus": "<p id=\"stim\">MAMMAL</p>", "conditions": [24, 1600, "v", 24000], "internal_node_id": "0.0-171.0", "trial": 7, "time_elapsed": 1112049, "serialpos": 2, "key_press": -1, "wordID": 860, "type": "PRES_VIS", "trial_index": 243}, "uniqueid": "MTK3592:3MMN5BL1W0BX0ARGHQ4LWQPPGMO3MG", "dateTime": 1520798650264}, {"current_trial": 244, "trialdata": {"rt": -1, "trial_type": "single-stim", "word": "sword", "stimulus": "<p id=\"stim\">SWORD</p>", "conditions": [24, 1600, "v", 24000], "internal_node_id": "0.0-172.0", "trial": 7, "time_elapsed": 1114508, "serialpos": 3, "key_press": -1, "wordID": 1422, "type": "PRES_VIS", "trial_index": 244}, "uniqueid": "MTK3592:3MMN5BL1W0BX0ARGHQ4LWQPPGMO3MG", "dateTime": 1520798652723}, {"current_trial": 245, "trialdata": {"rt": -1, "trial_type": "single-stim", "word": "tombstone", "stimulus": "<p id=\"stim\">TOMBSTONE</p>", "conditions": [24, 1600, "v", 24000], "internal_node_id": "0.0-173.0", "trial": 7, "time_elapsed": 1116955, "serialpos": 4, "key_press": -1, "wordID": 1477, "type": "PRES_VIS", "trial_index": 245}, "uniqueid": "MTK3592:3MMN5BL1W0BX0ARGHQ4LWQPPGMO3MG", "dateTime": 1520798655170}, {"current_trial": 246, "trialdata": {"rt": -1, "trial_type": "single-stim", "word": "cafe", "stimulus": "<p id=\"stim\">CAFE</p>", "conditions": [24, 1600, "v", 24000], "internal_node_id": "0.0-174.0", "trial": 7, "time_elapsed": 1119563, "serialpos": 5, "key_press": -1, "wordID": 215, "type": "PRES_VIS", "trial_index": 246}, "uniqueid": "MTK3592:3MMN5BL1W0BX0ARGHQ4LWQPPGMO3MG", "dateTime": 1520798657778}, {"current_trial": 247, "trialdata": {"rt": -1, "trial_type": "single-stim", "word": "heart", "stimulus": "<p id=\"stim\">HEART</p>", "conditions": [24, 1600, "v", 24000], "internal_node_id": "0.0-175.0", "trial": 7, "time_elapsed": 1122022, "serialpos": 6, "key_press": -1, "wordID": 696, "type": "PRES_VIS", "trial_index": 247}, "uniqueid": "MTK3592:3MMN5BL1W0BX0ARGHQ4LWQPPGMO3MG", "dateTime": 1520798660237}, {"current_trial": 248, "trialdata": {"rt": -1, "trial_type": "single-stim", "word": "jungle", "stimulus": "<p id=\"stim\">JUNGLE</p>", "conditions": [24, 1600, "v", 24000], "internal_node_id": "0.0-176.0", "trial": 7, "time_elapsed": 1124531, "serialpos": 7, "key_press": -1, "wordID": 763, "type": "PRES_VIS", "trial_index": 248}, "uniqueid": "MTK3592:3MMN5BL1W0BX0ARGHQ4LWQPPGMO3MG", "dateTime": 1520798662746}, {"current_trial": 249, "trialdata": {"rt": -1, "trial_type": "single-stim", "word": "truck", "stimulus": "<p id=\"stim\">TRUCK</p>", "conditions": [24, 1600, "v", 24000], "internal_node_id": "0.0-177.0", "trial": 7, "time_elapsed": 1127230, "serialpos": 8, "key_press": -1, "wordID": 1511, "type": "PRES_VIS", "trial_index": 249}, "uniqueid": "MTK3592:3MMN5BL1W0BX0ARGHQ4LWQPPGMO3MG", "dateTime": 1520798665446}, {"current_trial": 250, "trialdata": {"rt": -1, "trial_type": "single-stim", "word": "tractor", "stimulus": "<p id=\"stim\">TRACTOR</p>", "conditions": [24, 1600, "v", 24000], "internal_node_id": "0.0-178.0", "trial": 7, "time_elapsed": 1129852, "serialpos": 9, "key_press": -1, "wordID": 1492, "type": "PRES_VIS", "trial_index": 250}, "uniqueid": "MTK3592:3MMN5BL1W0BX0ARGHQ4LWQPPGMO3MG", "dateTime": 1520798668067}, {"current_trial": 251, "trialdata": {"rt": -1, "trial_type": "single-stim", "word": "judge", "stimulus": "<p id=\"stim\">JUDGE</p>", "conditions": [24, 1600, "v", 24000], "internal_node_id": "0.0-179.0", "trial": 7, "time_elapsed": 1132367, "serialpos": 10, "key_press": -1, "wordID": 760, "type": "PRES_VIS", "trial_index": 251}, "uniqueid": "MTK3592:3MMN5BL1W0BX0ARGHQ4LWQPPGMO3MG", "dateTime": 1520798670582}, {"current_trial": 252, "trialdata": {"rt": -1, "trial_type": "single-stim", "word": "army", "stimulus": "<p id=\"stim\">ARMY</p>", "conditions": [24, 1600, "v", 24000], "internal_node_id": "0.0-180.0", "trial": 7, "time_elapsed": 1134974, "serialpos": 11, "key_press": -1, "wordID": 38, "type": "PRES_VIS", "trial_index": 252}, "uniqueid": "MTK3592:3MMN5BL1W0BX0ARGHQ4LWQPPGMO3MG", "dateTime": 1520798673189}, {"current_trial": 253, "trialdata": {"rt": -1, "trial_type": "single-stim", "word": "cod", "stimulus": "<p id=\"stim\">COD</p>", "conditions": [24, 1600, "v", 24000], "internal_node_id": "0.0-181.0", "trial": 7, "time_elapsed": 1137501, "serialpos": 12, "key_press": -1, "wordID": 339, "type": "PRES_VIS", "trial_index": 253}, "uniqueid": "MTK3592:3MMN5BL1W0BX0ARGHQ4LWQPPGMO3MG", "dateTime": 1520798675717}, {"current_trial": 254, "trialdata": {"rt": -1, "trial_type": "s