{"assignmentId": "3PDJHANYK6NA5FDN9VM6BOTD8VJ6HF", "workerId": "MTK3094", "questiondata": {"origin": "United States", "strat-rehearsal": "0", "marital": "Married/Domestic Partnership", "education": "Some college", "ethnicity": "Not Hispanic", "color_depth": 24, "distracted": "No", "wrote-notes": "Yes", "strat-other": "none", "screen_width": 1366, "avail_screen_width": 1366, "avail_screen_height": 728, "strat-image": "100", "language": "English", "gender": "Female", "age": "35", "gender_other": "", "race": ["White"], "strat-categorize": "44", "pixel_depth": 24, "strat-spatial": "10", "strat-story": "23", "race_other": "", "screen_height": 768}, "bonus": 0, "hitId": "3V7ICJJAZANKCV8T0DET3VAHX3W4BT", "counterbalance": 1792, "useragent": "Mozilla/5.0 (Windows NT 10.0; Win64; x64) AppleWebKit/537.36 (KHTML, like Gecko) Chrome/63.0.3239.132 Safari/537.36", "eventdata": [{"eventtype": "initialized", "interval": 0, "value": null, "timestamp": 1520012375778}, {"eventtype": "window_resize", "interval": 0, "value": [1366, 721], "timestamp": 1520012375778}, {"eventtype": "focus", "interval": 24063, "value": "off", "timestamp": 1520012399841}, {"eventtype": "focus", "interval": 1, "value": "on", "timestamp": 1520012399842}], "data": [{"current_trial": 0, "trialdata": {"rt": 1847, "trial_type": "text", "internal_node_id": "0.0-0.0", "time_elapsed": 1851, "key_press": 74, "type": "INSTRUCTIONS", "trial_index": 0}, "uniqueid": "MTK3094:3PDJHANYK6NA5FDN9VM6BOTD8VJ6HF", "dateTime": 1520012378313}, {"current_trial": 1, "trialdata": {"rt": 4131, "trial_type": "text", "internal_node_id": "0.0-1.0", "time_elapsed": 5985, "key_press": 175, "type": "INSTRUCTIONS", "trial_index": 1}, "uniqueid": "MTK3094:3PDJHANYK6NA5FDN9VM6BOTD8VJ6HF", "dateTime": 1520012382446}, {"current_trial": 2, "trialdata": {"rt": [15520, 20415], "trial_type": "audio-test", "responses": ["0cean", "ocean"], "internal_node_id": "0.0-2.0", "time_elapsed": 26412, "type": "AUDIO_TEST", "trial_index": 2}, "uniqueid": "MTK3094:3PDJHANYK6NA5FDN9VM6BOTD8VJ6HF", "dateTime": 1520012402872}, {"current_trial": 3, "trialdata": {"rt": [4808], "trial_type": "audio-test", "responses": ["crystal"], "internal_node_id": "0.0-3.0", "time_elapsed": 31224, "type": "AUDIO_TEST", "trial_index": 3}, "uniqueid": "MTK3094:3PDJHANYK6NA5FDN9VM6BOTD8VJ6HF", "dateTime": 1520012407684}, {"current_trial": 4, "trialdata": {"rt": [7506], "trial_type": "audio-test", "responses": ["spice"], "internal_node_id": "0.0-4.0", "time_elapsed": 38733, "type": "AUDIO_TEST", "trial_index": 4}, "uniqueid": "MTK3094:3PDJHANYK6NA5FDN9VM6BOTD8VJ6HF", "dateTime": 1520012415193}, {"current_trial": 5, "trialdata": {"rt": 15388, "trial_type": "survey-text", "responses": "{\"Q0\":\"11 PM\",\"Q1\":\"6:30 AM\",\"Q2\":\"5\"}", "internal_node_id": "0.0-5.0", "time_elapsed": 54875, "type": "SLEEP_SURVEY", "trial_index": 5}, "uniqueid": "MTK3094:3PDJHANYK6NA5FDN9VM6BOTD8VJ6HF", "dateTime": 1520012431335}, {"current_trial": 6, "trialdata": {"rt": 31946, "trial_type": "text", "internal_node_id": "0.0-6.0", "time_elapsed": 87823, "key_press": 75, "type": "INSTRUCTIONS", "trial_index": 6}, "uniqueid": "MTK3094:3PDJHANYK6NA5FDN9VM6BOTD8VJ6HF", "dateTime": 1520012464283}, {"current_trial": 7, "trialdata": {"rt": 16684, "trial_type": "text", "internal_node_id": "0.0-7.0", "time_elapsed": 105009, "key_press": 75, "type": "INSTRUCTIONS", "trial_index": 7}, "uniqueid": "MTK3094:3PDJHANYK6NA5FDN9VM6BOTD8VJ6HF", "dateTime": 1520012481470}, {"current_trial": 8, "trialdata": {"rt": 8695, "trial_type": "text", "internal_node_id": "0.0-8.0", "time_elapsed": 114207, "key_press": 76, "type": "INSTRUCTIONS", "trial_index": 8}, "uniqueid": "MTK3094:3PDJHANYK6NA5FDN9VM6BOTD8VJ6HF", "dateTime": 1520012490667}, {"current_trial": 9, "trialdata": {"rt": [3320, 5679, 7300, 9182, 11043, 13848, 15295, 17152], "trial_type": "math-distractor", "key_times": [2296, 2448, 3320, 5246, 5420, 5679, 6929, 7102, 7300, 8875, 9027, 9182, 10634, 10841, 11043, 13456, 13650, 13848, 14904, 15086, 15295, 16679, 16903, 17152], "responses": ["11", "15", "13", "11", "10", "20", "16", "10"], "num2": [3, 2, 4, 6, 5, 7, 5, 1, 7], "num3": [5, 9, 3, 2, 4, 7, 5, 7, 6], "conditions": [18, 1200, "v", 18000], "internal_node_id": "0.0-9.0", "key_presses": [97, 97, 13, 97, 101, 13, 97, 99, 13, 97, 97, 13, 97, 96, 13, 98, 96, 13, 97, 102, 13, 97, 96, 13], "trial": 0, "time_elapsed": 133214, "type": "DISTRACTOR", "trial_index": 9, "num1": [3, 4, 6, 3, 1, 6, 6, 2, 5]}, "uniqueid": "MTK3094:3PDJHANYK6NA5FDN9VM6BOTD8VJ6HF", "dateTime": 1520012509674}, {"current_trial": 10, "trialdata": {"rt": -1, "trial_type": "single-stim", "stimulus": "<p id=\"stim\">10</p>", "internal_node_id": "0.0-10.0-0.0", "time_elapsed": 136218, "key_press": -1, "trial_index": 10}, "uniqueid": "MTK3094:3PDJHANYK6NA5FDN9VM6BOTD8VJ6HF", "dateTime": 1520012512678}, {"current_trial": 11, "trialdata": {"rt": -1, "trial_type": "single-stim", "stimulus": "<p id=\"stim\">9</p>", "internal_node_id": "0.0-10.0-1.0", "time_elapsed": 137220, "key_press": -1, "trial_index": 11}, "uniqueid": "MTK3094:3PDJHANYK6NA5FDN9VM6BOTD8VJ6HF", "dateTime": 1520012513680}, {"current_trial": 12, "trialdata": {"rt": -1, "trial_type": "single-stim", "stimulus": "<p id=\"stim\">8</p>", "internal_node_id": "0.0-10.0-2.0", "time_elapsed": 138221, "key_press": -1, "trial_index": 12}, "uniqueid": "MTK3094:3PDJHANYK6NA5FDN9VM6BOTD8VJ6HF", "dateTime": 1520012514681}, {"current_trial": 13, "trialdata": {"rt": -1, "trial_type": "single-stim", "stimulus": "<p id=\"stim\">7</p>", "internal_node_id": "0.0-10.0-3.0", "time_elapsed": 139223, "key_press": -1, "trial_index": 13}, "uniqueid": "MTK3094:3PDJHANYK6NA5FDN9VM6BOTD8VJ6HF", "dateTime": 1520012515683}, {"current_trial": 14, "trialdata": {"rt": -1, "trial_type": "single-stim", "stimulus": "<p id=\"stim\">6</p>", "internal_node_id": "0.0-10.0-4.0", "time_elapsed": 140224, "key_press": -1, "trial_index": 14}, "uniqueid": "MTK3094:3PDJHANYK6NA5FDN9VM6BOTD8VJ6HF", "dateTime": 1520012516684}, {"current_trial": 15, "trialdata": {"rt": -1, "trial_type": "single-stim", "stimulus": "<p id=\"stim\">5</p>", "internal_node_id": "0.0-10.0-5.0", "time_elapsed": 141226, "key_press": -1, "trial_index": 15}, "uniqueid": "MTK3094:3PDJHANYK6NA5FDN9VM6BOTD8VJ6HF", "dateTime": 1520012517686}, {"current_trial": 16, "trialdata": {"rt": -1, "trial_type": "single-stim", "stimulus": "<p id=\"stim\">4</p>", "internal_node_id": "0.0-10.0-6.0", "time_elapsed": 142227, "key_press": -1, "trial_index": 16}, "uniqueid": "MTK3094:3PDJHANYK6NA5FDN9VM6BOTD8VJ6HF", "dateTime": 1520012518687}, {"current_trial": 17, "trialdata": {"rt": -1, "trial_type": "single-stim", "stimulus": "<p id=\"stim\">3</p>", "internal_node_id": "0.0-10.0-7.0", "time_elapsed": 143228, "key_press": -1, "trial_index": 17}, "uniqueid": "MTK3094:3PDJHANYK6NA5FDN9VM6BOTD8VJ6HF", "dateTime": 1520012519688}, {"current_trial": 18, "trialdata": {"rt": -1, "trial_type": "single-stim", "stimulus": "<p id=\"stim\">2</p>", "internal_node_id": "0.0-10.0-8.0", "time_elapsed": 144230, "key_press": -1, "trial_index": 18}, "uniqueid": "MTK3094:3PDJHANYK6NA5FDN9VM6BOTD8VJ6HF", "dateTime": 1520012520690}, {"current_trial": 19, "trialdata": {"rt": -1, "trial_type": "single-stim", "stimulus": "<p id=\"stim\">1</p>", "internal_node_id": "0.0-10.0-9.0", "time_elapsed": 145231, "key_press": -1, "trial_index": 19}, "uniqueid": "MTK3094:3PDJHANYK6NA5FDN9VM6BOTD8VJ6HF", "dateTime": 1520012521691}, {"current_trial": 20, "trialdata": {"rt": -1, "trial_type": "single-stim", "stimulus": "<p id=\"stim\">+</p>", "internal_node_id": "0.0-11.0-0.0", "time_elapsed": 146734, "key_press": -1, "type": "FIXATION", "trial_index": 20}, "uniqueid": "MTK3094:3PDJHANYK6NA5FDN9VM6BOTD8VJ6HF", "dateTime": 1520012523194}, {"current_trial": 21, "trialdata": {"rt": -1, "trial_type": "single-stim", "word": "eyelash", "stimulus": "<p id=\"stim\">EYELASH</p>", "conditions": [18, 1200, "v", 18000], "internal_node_id": "0.0-12.0", "trial": 0, "time_elapsed": 147935, "serialpos": 0, "key_press": -1, "wordID": 545, "type": "PRES_VIS", "trial_index": 21}, "uniqueid": "MTK3094:3PDJHANYK6NA5FDN9VM6BOTD8VJ6HF", "dateTime": 1520012524396}, {"current_trial": 22, "trialdata": {"rt": -1, "trial_type": "single-stim", "word": "compass", "stimulus": "<p id=\"stim\">COMPASS</p>", "conditions": [18, 1200, "v", 18000], "internal_node_id": "0.0-13.0", "trial": 0, "time_elapsed": 150194, "serialpos": 1, "key_press": -1, "wordID": 357, "type": "PRES_VIS", "trial_index": 22}, "uniqueid": "MTK3094:3PDJHANYK6NA5FDN9VM6BOTD8VJ6HF", "dateTime": 1520012526654}, {"current_trial": 23, "trialdata": {"rt": -1, "trial_type": "single-stim", "word": "lagoon", "stimulus": "<p id=\"stim\">LAGOON</p>", "conditions": [18, 1200, "v", 18000], "internal_node_id": "0.0-14.0", "trial": 0, "time_elapsed": 152246, "serialpos": 2, "key_press": -1, "wordID": 794, "type": "PRES_VIS", "trial_index": 23}, "uniqueid": "MTK3094:3PDJHANYK6NA5FDN9VM6BOTD8VJ6HF", "dateTime": 1520012528706}, {"current_trial": 24, "trialdata": {"rt": -1, "trial_type": "single-stim", "word": "cricket", "stimulus": "<p id=\"stim\">CRICKET</p>", "conditions": [18, 1200, "v", 18000], "internal_node_id": "0.0-15.0", "trial": 0, "time_elapsed": 154323, "serialpos": 3, "key_press": -1, "wordID": 407, "type": "PRES_VIS", "trial_index": 24}, "uniqueid": "MTK3094:3PDJHANYK6NA5FDN9VM6BOTD8VJ6HF", "dateTime": 1520012530784}, {"current_trial": 25, "trialdata": {"rt": -1, "trial_type": "single-stim", "word": "washer", "stimulus": "<p id=\"stim\">WASHER</p>", "conditions": [18, 1200, "v", 18000], "internal_node_id": "0.0-16.0", "trial": 0, "time_elapsed": 156480, "serialpos": 4, "key_press": -1, "wordID": 1591, "type": "PRES_VIS", "trial_index": 25}, "uniqueid": "MTK3094:3PDJHANYK6NA5FDN9VM6BOTD8VJ6HF", "dateTime": 1520012532940}, {"current_trial": 26, "trialdata": {"rt": -1, "trial_type": "single-stim", "word": "spool", "stimulus": "<p id=\"stim\">SPOOL</p>", "conditions": [18, 1200, "v", 18000], "internal_node_id": "0.0-17.0", "trial": 0, "time_elapsed": 158730, "serialpos": 5, "key_press": -1, "wordID": 1355, "type": "PRES_VIS", "trial_index": 26}, "uniqueid": "MTK3094:3PDJHANYK6NA5FDN9VM6BOTD8VJ6HF", "dateTime": 1520012535191}, {"current_trial": 27, "trialdata": {"rt": -1, "trial_type": "single-stim", "word": "balloon", "stimulus": "<p id=\"stim\">BALLOON</p>", "conditions": [18, 1200, "v", 18000], "internal_node_id": "0.0-18.0", "trial": 0, "time_elapsed": 161051, "serialpos": 6, "key_press": -1, "wordID": 74, "type": "PRES_VIS", "trial_index": 27}, "uniqueid": "MTK3094:3PDJHANYK6NA5FDN9VM6BOTD8VJ6HF", "dateTime": 1520012537511}, {"current_trial": 28, "trialdata": {"rt": -1, "trial_type": "single-stim", "word": "county", "stimulus": "<p id=\"stim\">COUNTY</p>", "conditions": [18, 1200, "v", 18000], "internal_node_id": "0.0-19.0", "trial": 0, "time_elapsed": 163101, "serialpos": 7, "key_press": -1, "wordID": 388, "type": "PRES_VIS", "trial_index": 28}, "uniqueid": "MTK3094:3PDJHANYK6NA5FDN9VM6BOTD8VJ6HF", "dateTime": 1520012539561}, {"current_trial": 29, "trialdata": {"rt": -1, "trial_type": "single-stim", "word": "lunch", "stimulus": "<p id=\"stim\">LUNCH</p>", "conditions": [18, 1200, "v", 18000], "internal_node_id": "0.0-20.0", "trial": 0, "time_elapsed": 165331, "serialpos": 8, "key_press": -1, "wordID": 848, "type": "PRES_VIS", "trial_index": 29}, "uniqueid": "MTK3094:3PDJHANYK6NA5FDN9VM6BOTD8VJ6HF", "dateTime": 1520012541791}, {"current_trial": 30, "trialdata": {"rt": -1, "trial_type": "single-stim", "word": "paper", "stimulus": "<p id=\"stim\">PAPER</p>", "conditions": [18, 1200, "v", 18000], "internal_node_id": "0.0-21.0", "trial": 0, "time_elapsed": 167377, "serialpos": 9, "key_press": -1, "wordID": 1010, "type": "PRES_VIS", "trial_index": 30}, "uniqueid": "MTK3094:3PDJHANYK6NA5FDN9VM6BOTD8VJ6HF", "dateTime": 1520012543837}, {"current_trial": 31, "trialdata": {"rt": -1, "trial_type": "single-stim", "word": "spouse", "stimulus": "<p id=\"stim\">SPOUSE</p>", "conditions": [18, 1200, "v", 18000], "internal_node_id": "0.0-22.0", "trial": 0, "time_elapsed": 169517, "serialpos": 10, "key_press": -1, "wordID": 1357, "type": "PRES_VIS", "trial_index": 31}, "uniqueid": "MTK3094:3PDJHANYK6NA5FDN9VM6BOTD8VJ6HF", "dateTime": 1520012545977}, {"current_trial": 32, "trialdata": {"rt": -1, "trial_type": "single-stim", "word": "coin", "stimulus": "<p id=\"stim\">COIN</p>", "conditions": [18, 1200, "v", 18000], "internal_node_id": "0.0-23.0", "trial": 0, "time_elapsed": 171586, "serialpos": 11, "key_press": -1, "wordID": 342, "type": "PRES_VIS", "trial_index": 32}, "uniqueid": "MTK3094:3PDJHANYK6NA5FDN9VM6BOTD8VJ6HF", "dateTime": 1520012548046}, {"current_trial": 33, "trialdata": {"rt": -1, "trial_type": "single-stim", "word": "ox", "stimulus": "<p id=\"stim\">OX</p>", "conditions": [18, 1200, "v", 18000], "internal_node_id": "0.0-24.0", "trial": 0, "time_elapsed": 173947, "serialpos": 12, "key_press": -1, "wordID": 993, "type": "PRES_VIS", "trial_index": 33}, "uniqueid": "MTK3094:3PDJHANYK6NA5FDN9VM6BOTD8VJ6HF", "dateTime": 1520012550407}, {"current_trial": 34, "trialdata": {"rt": -1, "trial_type": "single-stim", "word": "clamp", "stimulus": "<p id=\"stim\">CLAMP</p>", "conditions": [18, 1200, "v", 18000], "internal_node_id": "0.0-25.0", "trial": 0, "time_elapsed": 176147, "serialpos": 13, "key_press": -1, "wordID": 315, "type": "PRES_VIS", "trial_index": 34}, "uniqueid": "MTK3094:3PDJHANYK6NA5FDN9VM6BOTD8VJ6HF", "dateTime": 1520012552607}, {"current_trial": 35, "trialdata": {"rt": -1, "trial_type": "single-stim", "word": "crevice", "stimulus": "<p id=\"stim\">CREVICE</p>", "conditions": [18, 1200, "v", 18000], "internal_node_id": "0.0-26.0", "trial": 0, "time_elapsed": 178193, "serialpos": 14, "key_press": -1, "wordID": 404, "type": "PRES_VIS", "trial_index": 35}, "uniqueid": "MTK3094:3PDJHANYK6NA5FDN9VM6BOTD8VJ6HF", "dateTime": 1520012554653}, {"current_trial": 36, "trialdata": {"rt": -1, "trial_type": "single-stim", "word": "doughnut", "stimulus": "<p id=\"stim\">DOUGHNUT</p>", "conditions": [18, 1200, "v", 18000], "internal_node_id": "0.0-27.0", "trial": 0, "time_elapsed": 180502, "serialpos": 15, "key_press": -1, "wordID": 489, "type": "PRES_VIS", "trial_index": 36}, "uniqueid": "MTK3094:3PDJHANYK6NA5FDN9VM6BOTD8VJ6HF", "dateTime": 1520012556962}, {"current_trial": 37, "trialdata": {"rt": -1, "trial_type": "single-stim", "word": "antler", "stimulus": "<p id=\"stim\">ANTLER</p>", "conditions": [18, 1200, "v", 18000], "internal_node_id": "0.0-28.0", "trial": 0, "time_elapsed": 182646, "serialpos": 16, "key_press": -1, "wordID": 28, "type": "PRES_VIS", "trial_index": 37}, "uniqueid": "MTK3094:3PDJHANYK6NA5FDN9VM6BOTD8VJ6HF", "dateTime": 1520012559106}, {"current_trial": 38, "trialdata": {"rt": -1, "trial_type": "single-stim", "word": "receipt", "stimulus": "<p id=\"stim\">RECEIPT</p>", "conditions": [18, 1200, "v", 18000], "internal_node_id": "0.0-29.0", "trial": 0, "time_elapsed": 184787, "serialpos": 17, "key_press": -1, "wordID": 1172, "type": "PRES_VIS", "trial_index": 38}, "uniqueid": "MTK3094:3PDJHANYK6NA5FDN9VM6BOTD8VJ6HF", "dateTime": 1520012561247}, {"current_trial": 39, "trialdata": {"rt": -1, "trial_type": "single-stim", "stimulus": "", "internal_node_id": "0.0-30.0-0.0", "time_elapsed": 186951, "key_press": -1, "type": "PRE_RECALL_DELAY", "trial_index": 39}, "uniqueid": "MTK3094:3PDJHANYK6NA5FDN9VM6BOTD8VJ6HF", "dateTime": 1520012563412}, {"current_trial": 40, "trialdata": {"rt": -1000, "trial_type": "single-audio", "stimulus": "/static/audio/400Hz.wav", "internal_node_id": "0.0-31.0", "time_elapsed": 187461, "key_press": -1, "type": "PRE_RECALL_ALERT", "trial_index": 40}, "uniqueid": "MTK3094:3PDJHANYK6NA5FDN9VM6BOTD8VJ6HF", "dateTime": 1520012563922}, {"current_trial": 41, "trialdata": {"rt": [2483, 3859, 5824, 6842, 8248, 10314, 12066, 14692, 18415, 20446, 24850, 28787, 38358, 52038], "recwords": ["eyelash", "lagoon", "cricket", "ox", "antler", "clamp", "coin", "doughnut", "spool", "spouse", "county", "balloon", "cricket", "washer"], "key_times": [1088, 1362, 1526, 1695, 1863, 1983, 2091, 2483, 2970, 3078, 3224, 3350, 3486, 3640, 3859, 4283, 4496, 4632, 4805, 4943, 5298, 5481, 5824, 6440, 6624, 6842, 7095, 7318, 7535, 7698, 7842, 7955, 8248, 9227, 9333, 9508, 9578, 9817, 10314, 11200, 11347, 11529, 11731, 12066, 12556, 12667, 12885, 13031, 13097, 13353, 13571, 13758, 14692, 15308, 15438, 16164, 16985, 17828, 17985, 18208, 18415, 18729, 18974, 19271, 19428, 19717, 19852, 20446, 23880, 24026, 24199, 24427, 24533, 24701, 24850, 27286, 27465, 27590, 27753, 27934, 28059, 28598, 28787, 37193, 37459, 37628, 37822, 37923, 38036, 38201, 38358, 51207, 51382, 51506, 51658, 51783, 51870, 52038], "trial_type": "free-recall", "conditions": [18, 1200, "v", 18000], "internal_node_id": "0.0-32.0-0.0", "key_presses": [69, 89, 69, 76, 65, 83, 72, 13, 76, 65, 71, 79, 79, 78, 13, 67, 82, 73, 67, 75, 69, 84, 13, 79, 88, 13, 65, 78, 84, 76, 69, 82, 13, 67, 76, 65, 77, 80, 13, 67, 79, 73, 78, 13, 68, 79, 85, 71, 72, 78, 85, 84, 13, 83, 80, 85, 8, 79, 79, 76, 13, 83, 80, 79, 85, 83, 69, 13, 67, 79, 85, 78, 84, 89, 13, 66, 65, 76, 76, 79, 79, 78, 13, 67, 82, 73, 67, 75, 69, 84, 13, 87, 65, 83, 72, 69, 82, 13], "trial": 0, "time_elapsed": 247466, "type": "FREE_RECALL", "trial_index": 41}, "uniqueid": "MTK3094:3PDJHANYK6NA5FDN9VM6BOTD8VJ6HF", "dateTime": 1520012623930}, {"current_trial": 42, "trialdata": {"rt": 1478, "trial_type": "text", "internal_node_id": "0.0-33.0", "time_elapsed": 250949, "key_press": 74, "type": "INSTRUCTIONS", "trial_index": 42}, "uniqueid": "MTK3094:3PDJHANYK6NA5FDN9VM6BOTD8VJ6HF", "dateTime": 1520012627409}, {"current_trial": 43, "trialdata": {"rt": [1822, 3212, 6531, 12002, 14461, 16034, 17622], "trial_type": "math-distractor", "key_times": [1362, 1570, 1822, 2950, 3212, 5805, 6051, 6531, 10539, 10762, 12002, 13758, 13970, 14461, 15716, 16034, 17209, 17393, 17622], "responses": ["10", "5", "14", "15", "12", "8", "12"], "num2": [4, 3, 3, 1, 9, 3, 1, 1], "num3": [4, 1, 5, 7, 2, 1, 6, 9], "conditions": [18, 1200, "v", 18000], "internal_node_id": "0.0-34.0", "key_presses": [97, 96, 13, 101, 13, 97, 100, 13, 97, 101, 13, 97, 98, 13, 104, 13, 97, 98, 13], "trial": 1, "time_elapsed": 270955, "type": "DISTRACTOR", "trial_index": 43, "num1": [2, 1, 6, 6, 1, 4, 5, 5]}, "uniqueid": "MTK3094:3PDJHANYK6NA5FDN9VM6BOTD8VJ6HF", "dateTime": 1520012647415}, {"current_trial": 44, "trialdata": {"rt": -1, "trial_type": "single-stim", "stimulus": "<p id=\"stim\">10</p>", "internal_node_id": "0.0-35.0-0.0", "time_elapsed": 273957, "key_press": -1, "trial_index": 44}, "uniqueid": "MTK3094:3PDJHANYK6NA5FDN9VM6BOTD8VJ6HF", "dateTime": 1520012650417}, {"current_trial": 45, "trialdata": {"rt": -1, "trial_type": "single-stim", "stimulus": "<p id=\"stim\">9</p>", "internal_node_id": "0.0-35.0-1.0", "time_elapsed": 274959, "key_press": -1, "trial_index": 45}, "uniqueid": "MTK3094:3PDJHANYK6NA5FDN9VM6BOTD8VJ6HF", "dateTime": 1520012651419}, {"current_trial": 46, "trialdata": {"rt": -1, "trial_type": "single-stim", "stimulus": "<p id=\"stim\">8</p>", "internal_node_id": "0.0-35.0-2.0", "time_elapsed": 275960, "key_press": -1, "trial_index": 46}, "uniqueid": "MTK3094:3PDJHANYK6NA5FDN9VM6BOTD8VJ6HF", "dateTime": 1520012652420}, {"current_trial": 47, "trialdata": {"rt": -1, "trial_type": "single-stim", "stimulus": "<p id=\"stim\">7</p>", "internal_node_id": "0.0-35.0-3.0", "time_elapsed": 276961, "key_press": -1, "trial_index": 47}, "uniqueid": "MTK3094:3PDJHANYK6NA5FDN9VM6BOTD8VJ6HF", "dateTime": 1520012653422}, {"current_trial": 48, "trialdata": {"rt": -1, "trial_type": "single-stim", "stimulus": "<p id=\"stim\">6</p>", "internal_node_id": "0.0-35.0-4.0", "time_elapsed": 277963, "key_press": -1, "trial_index": 48}, "uniqueid": "MTK3094:3PDJHANYK6NA5FDN9VM6BOTD8VJ6HF", "dateTime": 1520012654423}, {"current_trial": 49, "trialdata": {"rt": -1, "trial_type": "single-stim", "stimulus": "<p id=\"stim\">5</p>", "internal_node_id": "0.0-35.0-5.0", "time_elapsed": 278965, "key_press": -1, "trial_index": 49}, "uniqueid": "MTK3094:3PDJHANYK6NA5FDN9VM6BOTD8VJ6HF", "dateTime": 1520012655425}, {"current_trial": 50, "trialdata": {"rt": -1, "trial_type": "single-stim", "stimulus": "<p id=\"stim\">4</p>", "internal_node_id": "0.0-35.0-6.0", "time_elapsed": 279967, "key_press": -1, "trial_index": 50}, "uniqueid": "MTK3094:3PDJHANYK6NA5FDN9VM6BOTD8VJ6HF", "dateTime": 1520012656427}, {"current_trial": 51, "trialdata": {"rt": -1, "trial_type": "single-stim", "stimulus": "<p id=\"stim\">3</p>", "internal_node_id": "0.0-35.0-7.0", "time_elapsed": 280968, "key_press": -1, "trial_index": 51}, "uniqueid": "MTK3094:3PDJHANYK6NA5FDN9VM6BOTD8VJ6HF", "dateTime": 1520012657429}, {"current_trial": 52, "trialdata": {"rt": -1, "trial_type": "single-stim", "stimulus": "<p id=\"stim\">2</p>", "internal_node_id": "0.0-35.0-8.0", "time_elapsed": 281970, "key_press": -1, "trial_index": 52}, "uniqueid": "MTK3094:3PDJHANYK6NA5FDN9VM6BOTD8VJ6HF", "dateTime": 1520012658430}, {"current_trial": 53, "trialdata": {"rt": -1, "trial_type": "single-stim", "stimulus": "<p id=\"stim\">1</p>", "internal_node_id": "0.0-35.0-9.0", "time_elapsed": 282971, "key_press": -1, "trial_index": 53}, "uniqueid": "MTK3094:3PDJHANYK6NA5FDN9VM6BOTD8VJ6HF", "dateTime": 1520012659432}, {"current_trial": 54, "trialdata": {"rt": -1, "trial_type": "single-stim", "stimulus": "<p id=\"stim\">+</p>", "internal_node_id": "0.0-36.0-0.0", "time_elapsed": 284473, "key_press": -1, "type": "FIXATION", "trial_index": 54}, "uniqueid": "MTK3094:3PDJHANYK6NA5FDN9VM6BOTD8VJ6HF", "dateTime": 1520012660933}, {"current_trial": 55, "trialdata": {"rt": -1, "trial_type": "single-stim", "word": "backbone", "stimulus": "<p id=\"stim\">BACKBONE</p>", "conditions": [18, 1200, "v", 18000], "internal_node_id": "0.0-37.0", "trial": 1, "time_elapsed": 285675, "serialpos": 0, "key_press": -1, "wordID": 65, "type": "PRES_VIS", "trial_index": 55}, "uniqueid": "MTK3094:3PDJHANYK6NA5FDN9VM6BOTD8VJ6HF", "dateTime": 1520012662135}, {"current_trial": 56, "trialdata": {"rt": -1, "trial_type": "single-stim", "word": "report", "stimulus": "<p id=\"stim\">REPORT</p>", "conditions": [18, 1200, "v", 18000], "internal_node_id": "0.0-38.0", "trial": 1, "time_elapsed": 287762, "serialpos": 1, "key_press": -1, "wordID": 1183, "type": "PRES_VIS", "trial_index": 56}, "uniqueid": "MTK3094:3PDJHANYK6NA5FDN9VM6BOTD8VJ6HF", "dateTime": 1520012664223}, {"current_trial": 57, "trialdata": {"rt": -1, "trial_type": "single-stim", "word": "daisy", "stimulus": "<p id=\"stim\">DAISY</p>", "conditions": [18, 1200, "v", 18000], "internal_node_id": "0.0-39.0", "trial": 1, "time_elapsed": 290149, "serialpos": 2, "key_press": -1, "wordID": 434, "type": "PRES_VIS", "trial_index": 57}, "uniqueid": "MTK3094:3PDJHANYK6NA5FDN9VM6BOTD8VJ6HF", "dateTime": 1520012666609}, {"current_trial": 58, "trialdata": {"rt": -1, "trial_type": "single-stim", "word": "badge", "stimulus": "<p id=\"stim\">BADGE</p>", "conditions": [18, 1200, "v", 18000], "internal_node_id": "0.0-40.0", "trial": 1, "time_elapsed": 292175, "serialpos": 3, "key_press": -1, "wordID": 67, "type": "PRES_VIS", "trial_index": 58}, "uniqueid": "MTK3094:3PDJHANYK6NA5FDN9VM6BOTD8VJ6HF", "dateTime": 1520012668635}, {"current_trial": 59, "trialdata": {"rt": -1, "trial_type": "single-stim", "word": "piano", "stimulus": "<p id=\"stim\">PIANO</p>", "conditions": [18, 1200, "v", 18000], "internal_node_id": "0.0-41.0", "trial": 1, "time_elapsed": 294180, "serialpos": 4, "key_press": -1, "wordID": 1056, "type": "PRES_VIS", "trial_index": 59}, "uniqueid": "MTK3094:3PDJHANYK6NA5FDN9VM6BOTD8VJ6HF", "dateTime": 1520012670641}, {"current_trial": 60, "trialdata": {"rt": -1, "trial_type": "single-stim", "word": "treat", "stimulus": "<p id=\"stim\">TREAT</p>", "conditions": [18, 1200, "v", 18000], "internal_node_id": "0.0-42.0", "trial": 1, "time_elapsed": 296497, "serialpos": 5, "key_press": -1, "wordID": 1500, "type": "PRES_VIS", "trial_index": 60}, "uniqueid": "MTK3094:3PDJHANYK6NA5FDN9VM6BOTD8VJ6HF", "dateTime": 1520012672957}, {"current_trial": 61, "trialdata": {"rt": -1, "trial_type": "single-stim", "word": "iceberg", "stimulus": "<p id=\"stim\">ICEBERG</p>", "conditions": [18, 1200, "v", 18000], "internal_node_id": "0.0-43.0", "trial": 1, "time_elapsed": 298571, "serialpos": 6, "key_press": -1, "wordID": 730, "type": "PRES_VIS", "trial_index": 61}, "uniqueid": "MTK3094:3PDJHANYK6NA5FDN9VM6BOTD8VJ6HF", "dateTime": 1520012675031}, {"current_trial": 62, "trialdata": {"rt": -1, "trial_type": "single-stim", "word": "knife", "stimulus": "<p id=\"stim\">KNIFE</p>", "conditions": [18, 1200, "v", 18000], "internal_node_id": "0.0-44.0", "trial": 1, "time_elapsed": 300956, "serialpos": 7, "key_press": -1, "wordID": 784, "type": "PRES_VIS", "trial_index": 62}, "uniqueid": "MTK3094:3PDJHANYK6NA5FDN9VM6BOTD8VJ6HF", "dateTime": 1520012677416}, {"current_trial": 63, "trialdata": {"rt": -1, "trial_type": "single-stim", "word": "cabin", "stimulus": "<p id=\"stim\">CABIN</p>", "conditions": [18, 1200, "v", 18000], "internal_node_id": "0.0-45.0", "trial": 1, "time_elapsed": 303284, "serialpos": 8, "key_press": -1, "wordID": 210, "type": "PRES_VIS", "trial_index": 63}, "uniqueid": "MTK3094:3PDJHANYK6NA5FDN9VM6BOTD8VJ6HF", "dateTime": 1520012679744}, {"current_trial": 64, "trialdata": {"rt": -1, "trial_type": "single-stim", "word": "custard", "stimulus": "<p id=\"stim\">CUSTARD</p>", "conditions": [18, 1200, "v", 18000], "internal_node_id": "0.0-46.0", "trial": 1, "time_elapsed": 305672, "serialpos": 9, "key_press": -1, "wordID": 428, "type": "PRES_VIS", "trial_index": 64}, "uniqueid": "MTK3094:3PDJHANYK6NA5FDN9VM6BOTD8VJ6HF", "dateTime": 1520012682132}, {"current_trial": 65, "trialdata": {"rt": -1, "trial_type": "single-stim", "word": "patient", "stimulus": "<p id=\"stim\">PATIENT</p>", "conditions": [18, 1200, "v", 18000], "internal_node_id": "0.0-47.0", "trial": 1, "time_elapsed": 307679, "serialpos": 10, "key_press": -1, "wordID": 1023, "type": "PRES_VIS", "trial_index": 65}, "uniqueid": "MTK3094:3PDJHANYK6NA5FDN9VM6BOTD8VJ6HF", "dateTime": 1520012684139}, {"current_trial": 66, "trialdata": {"rt": -1, "trial_type": "single-stim", "word": "zebra", "stimulus": "<p id=\"stim\">ZEBRA</p>", "conditions": [18, 1200, "v", 18000], "internal_node_id": "0.0-48.0", "trial": 1, "time_elapsed": 309696, "serialpos": 11, "key_press": -1, "wordID": 1634, "type": "PRES_VIS", "trial_index": 66}, "uniqueid": "MTK3094:3PDJHANYK6NA5FDN9VM6BOTD8VJ6HF", "dateTime": 1520012686156}, {"current_trial": 67, "trialdata": {"rt": -1, "trial_type": "single-stim", "word": "brick", "stimulus": "<p id=\"stim\">BRICK</p>", "conditions": [18, 1200, "v", 18000], "internal_node_id": "0.0-49.0", "trial": 1, "time_elapsed": 311844, "serialpos": 12, "key_press": -1, "wordID": 171, "type": "PRES_VIS", "trial_index": 67}, "uniqueid": "MTK3094:3PDJHANYK6NA5FDN9VM6BOTD8VJ6HF", "dateTime": 1520012688305}, {"current_trial": 68, "trialdata": {"rt": -1, "trial_type": "single-stim", "word": "softball", "stimulus": "<p id=\"stim\">SOFTBALL</p>", "conditions": [18, 1200, "v", 18000], "internal_node_id": "0.0-50.0", "trial": 1, "time_elapsed": 314038, "serialpos": 13, "key_press": -1, "wordID": 1342, "type": "PRES_VIS", "trial_index": 68}, "uniqueid": "MTK3094:3PDJHANYK6NA5FDN9VM6BOTD8VJ6HF", "dateTime": 1520012690501}, {"current_trial": 69, "trialdata": {"rt": -1, "trial_type": "single-stim", "word": "jungle", "stimulus": "<p id=\"stim\">JUNGLE</p>", "conditions": [18, 1200, "v", 18000], "internal_node_id": "0.0-51.0", "trial": 1, "time_elapsed": 316332, "serialpos": 14, "key_press": -1, "wordID": 763, "type": "PRES_VIS", "trial_index": 69}, "uniqueid": "MTK3094:3PDJHANYK6NA5FDN9VM6BOTD8VJ6HF", "dateTime": 1520012692792}, {"current_trial": 70, "trialdata": {"rt": -1, "trial_type": "single-stim", "word": "lodge", "stimulus": "<p id=\"stim\">LODGE</p>", "conditions": [18, 1200, "v", 18000], "internal_node_id": "0.0-52.0", "trial": 1, "time_elapsed": 318728, "serialpos": 15, "key_press": -1, "wordID": 838, "type": "PRES_VIS", "trial_index": 70}, "uniqueid": "MTK3094:3PDJHANYK6NA5FDN9VM6BOTD8VJ6HF", "dateTime": 1520012695188}, {"current_trial": 71, "trialdata": {"rt": -1, "trial_type": "single-stim", "word": "wagon", "stimulus": "<p id=\"stim\">WAGON</p>", "conditions": [18, 1200, "v", 18000], "internal_node_id": "0.0-53.0", "trial": 1, "time_elapsed": 320835, "serialpos": 16, "key_press": -1, "wordID": 1577, "type": "PRES_VIS", "trial_index": 71}, "uniqueid": "MTK3094:3PDJHANYK6NA5FDN9VM6BOTD8VJ6HF", "dateTime": 1520012697295}, {"current_trial": 72, "trialdata": {"rt": -1, "trial_type": "single-stim", "word": "marker", "stimulus": "<p id=\"stim\">MARKER</p>", "conditions": [18, 1200, "v", 18000], "internal_node_id": "0.0-54.0", "trial": 1, "time_elapsed": 322974, "serialpos": 17, "key_press": -1, "wordID": 869, "type": "PRES_VIS", "trial_index": 72}, "uniqueid": "MTK3094:3PDJHANYK6NA5FDN9VM6BOTD8VJ6HF", "dateTime": 1520012699434}, {"current_trial": 73, "trialdata": {"rt": -1, "trial_type": "single-stim", "stimulus": "", "internal_node_id": "0.0-55.0-0.0", "time_elapsed": 325527, "key_press": -1, "type": "PRE_RECALL_DELAY", "trial_index": 73}, "uniqueid": "MTK3094:3PDJHANYK6NA5FDN9VM6BOTD8VJ6HF", "dateTime": 1520012701987}, {"current_trial": 74, "trialdata": {"rt": -1000, "trial_type": "single-audio", "stimulus": "/static/audio/400Hz.wav", "internal_node_id": "0.0-56.0", "time_elapsed": 326035, "key_press": -1, "type": "PRE_RECALL_ALERT", "trial_index": 74}, "uniqueid": "MTK3094:3PDJHANYK6NA5FDN9VM6BOTD8VJ6HF", "dateTime": 1520012702495}, {"current_trial": 75, "trialdata": {"rt": [2860, 4021, 5825, 7541, 8657, 10832, 18239, 35784, 37825, 50728], "recwords": ["marker", "lodge", "cabin", "knife", "piano", "zebra", "custard", "lodge", "wagon", "marker"], "key_times": [543, 955, 1358, 1870, 2098, 2315, 2474, 2507, 2860, 3285, 3502, 3600, 3778, 3885, 4021, 4336, 4516, 4640, 4813, 5000, 5825, 6190, 6494, 6690, 6815, 6964, 7541, 7857, 8070, 8195, 8316, 8479, 8657, 9279, 9536, 9818, 9993, 10168, 10832, 16053, 16281, 16383, 16534, 16697, 16779, 17672, 18239, 34877, 35078, 35366, 35572, 35664, 35784, 36970, 37189, 37326, 37440, 37614, 37825, 49625, 49744, 49999, 50216, 50342, 50442, 50728, 59582, 59701, 59945], "trial_type": "free-recall", "conditions": [18, 1200, "v", 18000], "internal_node_id": "0.0-57.0-0.0", "key_presses": [77, 83, 8, 65, 82, 75, 69, 82, 13, 76, 79, 68, 71, 69, 13, 67, 65, 66, 73, 78, 13, 75, 78, 73, 70, 69, 13, 80, 73, 65, 78, 79, 13, 90, 69, 66, 82, 65, 13, 67, 85, 83, 84, 65, 82, 68, 13, 76, 79, 68, 71, 69, 13, 87, 65, 71, 79, 78, 13, 77, 65, 82, 75, 69, 82, 13, 80, 65, 84], "trial": 1, "time_elapsed": 386038, "type": "FREE_RECALL", "trial_index": 75}, "uniqueid": "MTK3094:3PDJHANYK6NA5FDN9VM6BOTD8VJ6HF", "dateTime": 1520012762501}, {"current_trial": 76, "trialdata": {"rt": 2400, "trial_type": "text", "internal_node_id": "0.0-58.0", "time_elapsed": 390442, "key_press": 74, "type": "INSTRUCTIONS", "trial_index": 76}, "uniqueid": "MTK3094:3PDJHANYK6NA5FDN9VM6BOTD8VJ6HF", "dateTime": 1520012766902}, {"current_trial": 77, "trialdata": {"rt": [1755, 3446, 5417, 7469, 9173, 11088], "trial_type": "math-distractor", "key_times": [1381, 1523, 1755, 3173, 3446, 4945, 5166, 5417, 7092, 7283, 7469, 8794, 8952, 9173, 10379, 10573, 11088], "responses": ["16", "6", "19", "20", "15", "10"], "num2": [7, 2, 8, 8, 2, 1, 9], "num3": [8, 3, 3, 6, 6, 7, 9], "conditions": [24, 800, "v", 12000], "internal_node_id": "0.0-59.0", "key_presses": [97, 102, 13, 102, 13, 97, 105, 13, 98, 96, 13, 97, 101, 13, 97, 96, 13], "trial": 2, "time_elapsed": 403447, "type": "DISTRACTOR", "trial_index": 77, "num1": [1, 1, 8, 6, 7, 2, 7]}, "uniqueid": "MTK3094:3PDJHANYK6NA5FDN9VM6BOTD8VJ6HF", "dateTime": 1520012779907}, {"current_trial": 78, "trialdata": {"rt": -1, "trial_type": "single-stim", "stimulus": "<p id=\"stim\">10</p>", "internal_node_id": "0.0-60.0-0.0", "time_elapsed": 406449, "key_press": -1, "trial_index": 78}, "uniqueid": "MTK3094:3PDJHANYK6NA5FDN9VM6BOTD8VJ6HF", "dateTime": 1520012782909}, {"current_trial": 79, "trialdata": {"rt": -1, "trial_type": "single-stim", "stimulus": "<p id=\"stim\">9</p>", "internal_node_id": "0.0-60.0-1.0", "time_elapsed": 407451, "key_press": -1, "trial_index": 79}, "uniqueid": "MTK3094:3PDJHANYK6NA5FDN9VM6BOTD8VJ6HF", "dateTime": 1520012783911}, {"current_trial": 80, "trialdata": {"rt": -1, "trial_type": "single-stim", "stimulus": "<p id=\"stim\">8</p>", "internal_node_id": "0.0-60.0-2.0", "time_elapsed": 408452, "key_press": -1, "trial_index": 80}, "uniqueid": "MTK3094:3PDJHANYK6NA5FDN9VM6BOTD8VJ6HF", "dateTime": 1520012784912}, {"current_trial": 81, "trialdata": {"rt": -1, "trial_type": "single-stim", "stimulus": "<p id=\"stim\">7</p>", "internal_node_id": "0.0-60.0-3.0", "time_elapsed": 409454, "key_press": -1, "trial_index": 81}, "uniqueid": "MTK3094:3PDJHANYK6NA5FDN9VM6BOTD8VJ6HF", "dateTime": 1520012785914}, {"current_trial": 82, "trialdata": {"rt": -1, "trial_type": "single-stim", "stimulus": "<p id=\"stim\">6</p>", "internal_node_id": "0.0-60.0-4.0", "time_elapsed": 410455, "key_press": -1, "trial_index": 82}, "uniqueid": "MTK3094:3PDJHANYK6NA5FDN9VM6BOTD8VJ6HF", "dateTime": 1520012786915}, {"current_trial": 83, "trialdata": {"rt": -1, "trial_type": "single-stim", "stimulus": "<p id=\"stim\">5</p>", "internal_node_id": "0.0-60.0-5.0", "time_elapsed": 411456, "key_press": -1, "trial_index": 83}, "uniqueid": "MTK3094:3PDJHANYK6NA5FDN9VM6BOTD8VJ6HF", "dateTime": 1520012787916}, {"current_trial": 84, "trialdata": {"rt": -1, "trial_type": "single-stim", "stimulus": "<p id=\"stim\">4</p>", "internal_node_id": "0.0-60.0-6.0", "time_elapsed": 412457, "key_press": -1, "trial_index": 84}, "uniqueid": "MTK3094:3PDJHANYK6NA5FDN9VM6BOTD8VJ6HF", "dateTime": 1520012788918}, {"current_trial": 85, "trialdata": {"rt": -1, "trial_type": "single-stim", "stimulus": "<p id=\"stim\">3</p>", "internal_node_id": "0.0-60.0-7.0", "time_elapsed": 413458, "key_press": -1, "trial_index": 85}, "uniqueid": "MTK3094:3PDJHANYK6NA5FDN9VM6BOTD8VJ6HF", "dateTime": 1520012789919}, {"current_trial": 86, "trialdata": {"rt": -1, "trial_type": "single-stim", "stimulus": "<p id=\"stim\">2</p>", "internal_node_id": "0.0-60.0-8.0", "time_elapsed": 414460, "key_press": -1, "trial_index": 86}, "uniqueid": "MTK3094:3PDJHANYK6NA5FDN9VM6BOTD8VJ6HF", "dateTime": 1520012790920}, {"current_trial": 87, "trialdata": {"rt": -1, "trial_type": "single-stim", "stimulus": "<p id=\"stim\">1</p>", "internal_node_id": "0.0-60.0-9.0", "time_elapsed": 415461, "key_press": -1, "trial_index": 87}, "uniqueid": "MTK3094:3PDJHANYK6NA5FDN9VM6BOTD8VJ6HF", "dateTime": 1520012791921}, {"current_trial": 88, "trialdata": {"rt": -1, "trial_type": "single-stim", "stimulus": "<p id=\"stim\">+</p>", "internal_node_id": "0.0-61.0-0.0", "time_elapsed": 416964, "key_press": -1, "type": "FIXATION", "trial_index": 88}, "uniqueid": "MTK3094:3PDJHANYK6NA5FDN9VM6BOTD8VJ6HF", "dateTime": 1520012793424}, {"current_trial": 89, "trialdata": {"rt": -1, "trial_type": "single-stim", "word": "japan", "stimulus": "<p id=\"stim\">JAPAN</p>", "conditions": [24, 800, "v", 12000], "internal_node_id": "0.0-62.0", "trial": 2, "time_elapsed": 417765, "serialpos": 0, "key_press": -1, "wordID": 748, "type": "PRES_VIS", "trial_index": 89}, "uniqueid": "MTK3094:3PDJHANYK6NA5FDN9VM6BOTD8VJ6HF", "dateTime": 1520012794225}, {"current_trial": 90, "trialdata": {"rt": -1, "trial_type": "single-stim", "word": "coffee", "stimulus": "<p id=\"stim\">COFFEE</p>", "conditions": [24, 800, "v", 12000], "internal_node_id": "0.0-63.0", "trial": 2, "time_elapsed": 419672, "serialpos": 1, "key_press": -1, "wordID": 340, "type": "PRES_VIS", "trial_index": 90}, "uniqueid": "MTK3094:3PDJHANYK6NA5FDN9VM6BOTD8VJ6HF", "dateTime": 1520012796132}, {"current_trial": 91, "trialdata": {"rt": -1, "trial_type": "single-stim", "word": "panther", "stimulus": "<p id=\"stim\">PANTHER</p>", "conditions": [24, 800, "v", 12000], "internal_node_id": "0.0-64.0", "trial": 2, "time_elapsed": 421298, "serialpos": 2, "key_press": -1, "wordID": 1008, "type": "PRES_VIS", "trial_index": 91}, "uniqueid": "MTK3094:3PDJHANYK6NA5FDN9VM6BOTD8VJ6HF", "dateTime": 1520012797758}, {"current_trial": 92, "trialdata": {"rt": -1, "trial_type": "single-stim", "word": "dress", "stimulus": "<p id=\"stim\">DRESS</p>", "conditions": [24, 800, "v", 12000], "internal_node_id": "0.0-65.0", "trial": 2, "time_elapsed": 423166, "serialpos": 3, "key_press": -1, "wordID": 494, "type": "PRES_VIS", "trial_index": 92}, "uniqueid": "MTK3094:3PDJHANYK6NA5FDN9VM6BOTD8VJ6HF", "dateTime": 1520012799626}, {"current_trial": 93, "trialdata": {"rt": -1, "trial_type": "single-stim", "word": "cigar", "stimulus": "<p id=\"stim\">CIGAR</p>", "conditions": [24, 800, "v", 12000], "internal_node_id": "0.0-66.0", "trial": 2, "time_elapsed": 424967, "serialpos": 4, "key_press": -1, "wordID": 307, "type": "PRES_VIS", "trial_index": 93}, "uniqueid": "MTK3094:3PDJHANYK6NA5FDN9VM6BOTD8VJ6HF", "dateTime": 1520012801427}, {"current_trial": 94, "trialdata": {"rt": -1, "trial_type": "single-stim", "word": "mattress", "stimulus": "<p id=\"stim\">MATTRESS</p>", "conditions": [24, 800, "v", 12000], "internal_node_id": "0.0-67.0", "trial": 2, "time_elapsed": 426725, "serialpos": 5, "key_press": -1, "wordID": 878, "type": "PRES_VIS", "trial_index": 94}, "uniqueid": "MTK3094:3PDJHANYK6NA5FDN9VM6BOTD8VJ6HF", "dateTime": 1520012803186}, {"current_trial": 95, "trialdata": {"rt": -1, "trial_type": "single-stim", "word": "robin", "stimulus": "<p id=\"stim\">ROBIN</p>", "conditions": [24, 800, "v", 12000], "internal_node_id": "0.0-68.0", "trial": 2, "time_elapsed": 428509, "serialpos": 6, "key_press": -1, "wordID": 1198, "type": "PRES_VIS", "trial_index": 95}, "uniqueid": "MTK3094:3PDJHANYK6NA5FDN9VM6BOTD8VJ6HF", "dateTime": 1520012804969}, {"current_trial": 96, "trialdata": {"rt": -1, "trial_type": "single-stim", "word": "witness", "stimulus": "<p id=\"stim\">WITNESS</p>", "conditions": [24, 800, "v", 12000], "internal_node_id": "0.0-69.0", "trial": 2, "time_elapsed": 430136, "serialpos": 7, "key_press": -1, "wordID": 1617, "type": "PRES_VIS", "trial_index": 96}, "uniqueid": "MTK3094:3PDJHANYK6NA5FDN9VM6BOTD8VJ6HF", "dateTime": 1520012806596}, {"current_trial": 97, "trialdata": {"rt": -1, "trial_type": "single-stim", "word": "clothes", "stimulus": "<p id=\"stim\">CLOTHES</p>", "conditions": [24, 800, "v", 12000], "internal_node_id": "0.0-70.0", "trial": 2, "time_elapsed": 431794, "serialpos": 8, "key_press": -1, "wordID": 326, "type": "PRES_VIS", "trial_index": 97}, "uniqueid": "MTK3094:3PDJHANYK6NA5FDN9VM6BOTD8VJ6HF", "dateTime": 1520012808254}, {"current_trial": 98, "trialdata": {"rt": -1, "trial_type": "single-stim", "word": "rooster", "stimulus": "<p id=\"stim\">ROOSTER</p>", "conditions": [24, 800, "v", 12000], "internal_node_id": "0.0-71.0", "trial": 2, "time_elapsed": 433622, "serialpos": 9, "key_press": -1, "wordID": 1208, "type": "PRES_VIS", "trial_index": 98}, "uniqueid": "MTK3094:3PDJHANYK6NA5FDN9VM6BOTD8VJ6HF", "dateTime": 1520012810082}, {"current_trial": 99, "trialdata": {"rt": -1, "trial_type": "single-stim", "word": "fox", "stimulus": "<p id=\"stim\">FOX</p>", "conditions": [24, 800, "v", 12000], "internal_node_id": "0.0-72.0", "trial": 2, "time_elapsed": 435513, "serialpos": 10, "key_press": -1, "wordID": 597, "type": "PRES_VIS", "trial_index": 99}, "uniqueid": "MTK3094:3PDJHANYK6NA5FDN9VM6BOTD8VJ6HF", "dateTime": 1520012811973}, {"current_trial": 100, "trialdata": {"rt": -1, "trial_type": "single-stim", "word": "atlas", "stimulus": "<p id=\"stim\">ATLAS</p>", "conditions": [24, 800, "v", 12000], "internal_node_id": "0.0-73.0", "trial": 2, "time_elapsed": 437315, "serialpos": 11, "key_press": -1, "wordID": 52, "type": "PRES_VIS", "trial_index": 100}, "uniqueid": "MTK3094:3PDJHANYK6NA5FDN9VM6BOTD8VJ6HF", "dateTime": 1520012813775}, {"current_trial": 101, "trialdata": {"rt": -1, "trial_type": "single-stim", "word": "liver", "stimulus": "<p id=\"stim\">LIVER</p>", "conditions": [24, 800, "v", 12000], "internal_node_id": "0.0-74.0", "trial": 2, "time_elapsed": 439183, "serialpos": 12, "key_press": -1, "wordID": 832, "type": "PRES_VIS", "trial_index": 101}, "uniqueid": "MTK3094:3PDJHANYK6NA5FDN9VM6BOTD8VJ6HF", "dateTime": 1520012815643}, {"current_trial": 102, "trialdata": {"rt": -1, "trial_type": "single-stim", "word": "tribe", "stimulus": "<p id=\"stim\">TRIBE</p>", "conditions": [24, 800, "v", 12000], "internal_node_id": "0.0-75.0", "trial": 2, "time_elapsed": 440905, "serialpos": 13, "key_press": -1, "wordID": 1504, "type": "PRES_VIS", "trial_index": 102}, "uniqueid": "MTK3094:3PDJHANYK6NA5FDN9VM6BOTD8VJ6HF", "dateTime": 1520012817365}, {"current_trial": 103, "trialdata": {"rt": -1, "trial_type": "single-stim", "word": "dime", "stimulus": "<p id=\"stim\">DIME</p>", "conditions": [24, 800, "v", 12000], "internal_node_id": "0.0-76.0", "trial": 2, "time_elapsed": 442891, "serialpos": 14, "key_press": -1, "wordID": 465, "type": "PRES_VIS", "trial_index": 103}, "uniqueid": "MTK3094:3PDJHANYK6NA5FDN9VM6BOTD8VJ6HF", "dateTime": 1520012819351}, {"current_trial": 104, "trialdata": {"rt": -1, "trial_type": "single-stim", "word": "pimple", "stimulus": "<p id=\"stim\">PIMPLE</p>", "conditions": [24, 800, "v", 12000], "internal_node_id": "0.0-77.0", "trial": 2, "time_elapsed": 444805, "serialpos": 15, "key_press": -1, "wordID": 1070, "type": "PRES_VIS", "trial_index": 104}, "uniqueid": "MTK3094:3PDJHANYK6NA5FDN9VM6BOTD8VJ6HF", "dateTime": 1520012821265}, {"current_trial": 105, "trialdata": {"rt": -1, "trial_type": "single-stim", "word": "pigeon", "stimulus": "<p id=\"stim\">PIGEON</p>", "conditions": [24, 800, "v", 12000], "internal_node_id": "0.0-78.0", "trial": 2, "time_elapsed": 446437, "serialpos": 16, "key_press": -1, "wordID": 1064, "type": "PRES_VIS", "trial_index": 105}, "uniqueid": "MTK3094:3PDJHANYK6NA5FDN9VM6BOTD8VJ6HF", "dateTime": 1520012822897}, {"current_trial": 106, "trialdata": {"rt": -1, "trial_type": "single-stim", "word": "actor", "stimulus": "<p id=\"stim\">ACTOR</p>", "conditions": [24, 800, "v", 12000], "internal_node_id": "0.0-79.0", "trial": 2, "time_elapsed": 448121, "serialpos": 17, "key_press": -1, "wordID": 4, "type": "PRES_VIS", "trial_index": 106}, "uniqueid": "MTK3094:3PDJHANYK6NA5FDN9VM6BOTD8VJ6HF", "dateTime": 1520012824581}, {"current_trial": 107, "trialdata": {"rt": -1, "trial_type": "single-stim", "word": "actress", "stimulus": "<p id=\"stim\">ACTRESS</p>", "conditions": [24, 800, "v", 12000], "internal_node_id": "0.0-80.0", "trial": 2, "time_elapsed": 449849, "serialpos": 18, "key_press": -1, "wordID": 5, "type": "PRES_VIS", "trial_index": 107}, "uniqueid": "MTK3094:3PDJHANYK6NA5FDN9VM6BOTD8VJ6HF", "dateTime": 1520012826309}, {"current_trial": 108, "trialdata": {"rt": -1, "trial_type": "single-stim", "word": "pistol", "stimulus": "<p id=\"stim\">PISTOL</p>", "conditions": [24, 800, "v", 12000], "internal_node_id": "0.0-81.0", "trial": 2, "time_elapsed": 451496, "serialpos": 19, "key_press": -1, "wordID": 1074, "type": "PRES_VIS", "trial_index": 108}, "uniqueid": "MTK3094:3PDJHANYK6NA5FDN9VM6BOTD8VJ6HF", "dateTime": 1520012827956}, {"current_trial": 109, "trialdata": {"rt": -1, "trial_type": "single-stim", "word": "banker", "stimulus": "<p id=\"stim\">BANKER</p>", "conditions": [24, 800, "v", 12000], "internal_node_id": "0.0-82.0", "trial": 2, "time_elapsed": 453313, "serialpos": 20, "key_press": -1, "wordID": 83, "type": "PRES_VIS", "trial_index": 109}, "uniqueid": "MTK3094:3PDJHANYK6NA5FDN9VM6BOTD8VJ6HF", "dateTime": 1520012829773}, {"current_trial": 110, "trialdata": {"rt": -1, "trial_type": "single-stim", "word": "preacher", "stimulus": "<p id=\"stim\">PREACHER</p>", "conditions": [24, 800, "v", 12000], "internal_node_id": "0.0-83.0", "trial": 2, "time_elapsed": 455184, "serialpos": 21, "key_press": -1, "wordID": 1118, "type": "PRES_VIS", "trial_index": 110}, "uniqueid": "MTK3094:3PDJHANYK6NA5FDN9VM6BOTD8VJ6HF", "dateTime": 1520012831644}, {"current_trial": 111, "trialdata": {"rt": -1, "trial_type": "single-stim", "word": "rabbit", "stimulus": "<p id=\"stim\">RABBIT</p>", "conditions": [24, 800, "v", 12000], "internal_node_id": "0.0-84.0", "trial": 2, "time_elapsed": 456876, "serialpos": 22, "key_press": -1, "wordID": 1151, "type": "PRES_VIS", "trial_index": 111}, "uniqueid": "MTK3094:3PDJHANYK6NA5FDN9VM6BOTD8VJ6HF", "dateTime": 1520012833336}, {"current_trial": 112, "trialdata": {"rt": -1, "trial_type": "single-stim", "word": "bubble", "stimulus": "<p id=\"stim\">BUBBLE</p>", "conditions": [24, 800, "v", 12000], "internal_node_id": "0.0-85.0", "trial": 2, "time_elapsed": 458537, "serialpos": 23, "key_press": -1, "wordID": 182, "type": "PRES_VIS", "trial_index": 112}, "uniqueid": "MTK3094:3PDJHANYK6NA5FDN9VM6BOTD8VJ6HF", "dateTime": 1520012834997}, {"current_trial": 113, "trialdata": {"rt": -1, "trial_type": "single-stim", "stimulus": "", "internal_node_id": "0.0-86.0-0.0", "time_elapsed": 460811, "key_press": -1, "type": "PRE_RECALL_DELAY", "trial_index": 113}, "uniqueid": "MTK3094:3PDJHANYK6NA5FDN9VM6BOTD8VJ6HF", "dateTime": 1520012837272}, {"current_trial": 114, "trialdata": {"rt": -1000, "trial_type": "single-audio", "stimulus": "/static/audio/400Hz.wav", "internal_node_id": "0.0-87.0", "time_elapsed": 461314, "key_press": -1, "type": "PRE_RECALL_ALERT", "trial_index": 114}, "uniqueid": "MTK3094:3PDJHANYK6NA5FDN9VM6BOTD8VJ6HF", "dateTime": 1520012837774}, {"current_trial": 115, "trialdata": {"rt": [2152, 3775, 5148, 7816, 11417, 18903, 20140, 27321, 41078, 42577, 56227], "recwords": ["bubble", "rabbit", "banker", "preacher", "clothes", "fox", "panther", "bubble", "actress", "actor", "jungle"], "key_times": [981, 1247, 1477, 1621, 1794, 1930, 2152, 2604, 2810, 2949, 3102, 3280, 3379, 3775, 4402, 4515, 4662, 4794, 4929, 4999, 5148, 5686, 5912, 6042, 6218, 6409, 6528, 6675, 6768, 7816, 9927, 10068, 10275, 10439, 10482, 10798, 10917, 11417, 18197, 18377, 18724, 18903, 19290, 19464, 19585, 19711, 19820, 19928, 19987, 20140, 26169, 26402, 26651, 26825, 27012, 27161, 27321, 39408, 39696, 39918, 40343, 40532, 40781, 40943, 41078, 41449, 41788, 42055, 42191, 42283, 42577, 55263, 55474, 55707, 55845, 55960, 56060, 56227], "trial_type": "free-recall", "conditions": [24, 800, "v", 12000], "internal_node_id": "0.0-88.0-0.0", "key_presses": [66, 85, 66, 66, 76, 69, 13, 82, 65, 66, 66, 73, 84, 13, 66, 65, 78, 75, 69, 82, 13, 80, 82, 69, 65, 67, 72, 69, 82, 13, 67, 76, 79, 84, 72, 69, 83, 13, 70, 79, 88, 13, 80, 65, 78, 84, 72, 69, 82, 13, 66, 85, 66, 66, 76, 69, 13, 65, 67, 84, 82, 69, 83, 83, 13, 65, 67, 84, 79, 82, 13, 74, 85, 78, 71, 76, 69, 13], "trial": 2, "time_elapsed": 521318, "type": "FREE_RECALL", "trial_index": 115}, "uniqueid": "MTK3094:3PDJHANYK6NA5FDN9VM6BOTD8VJ6HF", "dateTime": 1520012897782}, {"current_trial": 116, "trialdata": {"rt": 1308, "trial_type": "text", "internal_node_id": "0.0-89.0", "time_elapsed": 524631, "key_press": 75, "type": "INSTRUCTIONS", "trial_index": 116}, "uniqueid": "MTK3094:3PDJHANYK6NA5FDN9VM6BOTD8VJ6HF", "dateTime": 1520012901091}, {"current_trial": 117, "trialdata": {"rt": [1901, 4484, 6494, 8459], "trial_type": "math-distractor", "key_times": [1283, 1568, 1901, 4009, 4201, 4484, 6093, 6282, 6494, 8026, 8212, 8459], "responses": ["17", "14", "16", "14"], "num2": [9, 2, 4, 2, 5], "num3": [4, 9, 4, 7, 7], "conditions": [12, 800, "v", 12000], "internal_node_id": "0.0-90.0", "key_presses": [97, 103, 13, 97, 100, 13, 97, 102, 13, 97, 100, 13], "trial": 3, "time_elapsed": 538634, "type": "DISTRACTOR", "trial_index": 117, "num1": [4, 3, 8, 5, 9]}, "uniqueid": "MTK3094:3PDJHANYK6NA5FDN9VM6BOTD8VJ6HF", "dateTime": 1520012915095}, {"current_trial": 118, "trialdata": {"rt": -1, "trial_type": "single-stim", "stimulus": "<p id=\"stim\">10</p>", "internal_node_id": "0.0-91.0-0.0", "time_elapsed": 541636, "key_press": -1, "trial_index": 118}, "uniqueid": "MTK3094:3PDJHANYK6NA5FDN9VM6BOTD8VJ6HF", "dateTime": 1520012918097}, {"current_trial": 119, "trialdata": {"rt": -1, "trial_type": "single-stim", "stimulus": "<p id=\"stim\">9</p>", "internal_node_id": "0.0-91.0-1.0", "time_elapsed": 542638, "key_press": -1, "trial_index": 119}, "uniqueid": "MTK3094:3PDJHANYK6NA5FDN9VM6BOTD8VJ6HF", "dateTime": 1520012919098}, {"current_trial": 120, "trialdata": {"rt": -1, "trial_type": "single-stim", "stimulus": "<p id=\"stim\">8</p>", "internal_node_id": "0.0-91.0-2.0", "time_elapsed": 543639, "key_press": -1, "trial_index": 120}, "uniqueid": "MTK3094:3PDJHANYK6NA5FDN9VM6BOTD8VJ6HF", "dateTime": 1520012920100}, {"current_trial": 121, "trialdata": {"rt": -1, "trial_type": "single-stim", "stimulus": "<p id=\"stim\">7</p>", "internal_node_id": "0.0-91.0-3.0", "time_elapsed": 544641, "key_press": -1, "trial_index": 121}, "uniqueid": "MTK3094:3PDJHANYK6NA5FDN9VM6BOTD8VJ6HF", "dateTime": 1520012921101}, {"current_trial": 122, "trialdata": {"rt": -1, "trial_type": "single-stim", "stimulus": "<p id=\"stim\">6</p>", "internal_node_id": "0.0-91.0-4.0", "time_elapsed": 545643, "key_press": -1, "trial_index": 122}, "uniqueid": "MTK3094:3PDJHANYK6NA5FDN9VM6BOTD8VJ6HF", "dateTime": 1520012922103}, {"current_trial": 123, "trialdata": {"rt": -1, "trial_type": "single-stim", "stimulus": "<p id=\"stim\">5</p>", "internal_node_id": "0.0-91.0-5.0", "time_elapsed": 546644, "key_press": -1, "trial_index": 123}, "uniqueid": "MTK3094:3PDJHANYK6NA5FDN9VM6BOTD8VJ6HF", "dateTime": 1520012923104}, {"current_trial": 124, "trialdata": {"rt": -1, "trial_type": "single-stim", "stimulus": "<p id=\"stim\">4</p>", "internal_node_id": "0.0-91.0-6.0", "time_elapsed": 547646, "key_press": -1, "trial_index": 124}, "uniqueid": "MTK3094:3PDJHANYK6NA5FDN9VM6BOTD8VJ6HF", "dateTime": 1520012924106}, {"current_trial": 125, "trialdata": {"rt": -1, "trial_type": "single-stim", "stimulus": "<p id=\"stim\">3</p>", "internal_node_id": "0.0-91.0-7.0", "time_elapsed": 548648, "key_press": -1, "trial_index": 125}, "uniqueid": "MTK3094:3PDJHANYK6NA5FDN9VM6BOTD8VJ6HF", "dateTime": 1520012925108}, {"current_trial": 126, "trialdata": {"rt": -1, "trial_type": "single-stim", "stimulus": "<p id=\"stim\">2</p>", "internal_node_id": "0.0-91.0-8.0", "time_elapsed": 549649, "key_press": -1, "trial_index": 126}, "uniqueid": "MTK3094:3PDJHANYK6NA5FDN9VM6BOTD8VJ6HF", "dateTime": 1520012926110}, {"current_trial": 127, "trialdata": {"rt": -1, "trial_type": "single-stim", "stimulus": "<p id=\"stim\">1</p>", "internal_node_id": "0.0-91.0-9.0", "time_elapsed": 550651, "key_press": -1, "trial_index": 127}, "uniqueid": "MTK3094:3PDJHANYK6NA5FDN9VM6BOTD8VJ6HF", "dateTime": 1520012927111}, {"current_trial": 128, "trialdata": {"rt": -1, "trial_type": "single-stim", "stimulus": "<p id=\"stim\">+</p>", "internal_node_id": "0.0-92.0-0.0", "time_elapsed": 552152, "key_press": -1, "type": "FIXATION", "trial_index": 128}, "uniqueid": "MTK3094:3PDJHANYK6NA5FDN9VM6BOTD8VJ6HF", "dateTime": 1520012928612}, {"current_trial": 129, "trialdata": {"rt": -1, "trial_type": "single-stim", "word": "tuba", "stimulus": "<p id=\"stim\">TUBA</p>", "conditions": [12, 800, "v", 12000], "internal_node_id": "0.0-93.0", "trial": 3, "time_elapsed": 552954, "serialpos": 0, "key_press": -1, "wordID": 1514, "type": "PRES_VIS", "trial_index": 129}, "uniqueid": "MTK3094:3PDJHANYK6NA5FDN9VM6BOTD8VJ6HF", "dateTime": 1520012929414}, {"current_trial": 130, "trialdata": {"rt": -1, "trial_type": "single-stim", "word": "scissors", "stimulus": "<p id=\"stim\">SCISSORS</p>", "conditions": [12, 800, "v", 12000], "internal_node_id": "0.0-94.0", "trial": 3, "time_elapsed": 554571, "serialpos": 1, "key_press": -1, "wordID": 1249, "type": "PRES_VIS", "trial_index": 130}, "uniqueid": "MTK3094:3PDJHANYK6NA5FDN9VM6BOTD8VJ6HF", "dateTime": 1520012931031}, {"current_trial": 131, "trialdata": {"rt": -1, "trial_type": "single-stim", "word": "pecan", "stimulus": "<p id=\"stim\">PECAN</p>", "conditions": [12, 800, "v", 12000], "internal_node_id": "0.0-95.0", "trial": 3, "time_elapsed": 556234, "serialpos": 2, "key_press": -1, "wordID": 1035, "type": "PRES_VIS", "trial_index": 131}, "uniqueid": "MTK3094:3PDJHANYK6NA5FDN9VM6BOTD8VJ6HF", "dateTime": 1520012932694}, {"current_trial": 132, "trialdata": {"rt": -1, "trial_type": "single-stim", "word": "glass", "stimulus": "<p id=\"stim\">GLASS</p>", "conditions": [12, 800, "v", 12000], "internal_node_id": "0.0-96.0", "trial": 3, "time_elapsed": 558031, "serialpos": 3, "key_press": -1, "wordID": 638, "type": "PRES_VIS", "trial_index": 132}, "uniqueid": "MTK3094:3PDJHANYK6NA5FDN9VM6BOTD8VJ6HF", "dateTime": 1520012934492}, {"current_trial": 133, "trialdata": {"rt": -1, "trial_type": "single-stim", "word": "hand", "stimulus": "<p id=\"stim\">HAND</p>", "conditions": [12, 800, "v", 12000], "internal_node_id": "0.0-97.0", "trial": 3, "time_elapsed": 559928, "serialpos": 4, "key_press": -1, "wordID": 682, "type": "PRES_VIS", "trial_index": 133}, "uniqueid": "MTK3094:3PDJHANYK6NA5FDN9VM6BOTD8VJ6HF", "dateTime": 1520012936388}, {"current_trial": 134, "trialdata": {"rt": -1, "trial_type": "single-stim", "word": "monster", "stimulus": "<p id=\"stim\">MONSTER</p>", "conditions": [12, 800, "v", 12000], "internal_node_id": "0.0-98.0", "trial": 3, "time_elapsed": 561635, "serialpos": 5, "key_press": -1, "wordID": 911, "type": "PRES_VIS", "trial_index": 134}, "uniqueid": "MTK3094:3PDJHANYK6NA5FDN9VM6BOTD8VJ6HF", "dateTime": 1520012938096}, {"current_trial": 135, "trialdata": {"rt": -1, "trial_type": "single-stim", "word": "swamp", "stimulus": "<p id=\"stim\">SWAMP</p>", "conditions": [12, 800, "v", 12000], "internal_node_id": "0.0-99.0", "trial": 3, "time_elapsed": 563440, "serialpos": 6, "key_press": -1, "wordID": 1415, "type": "PRES_VIS", "trial_index": 135}, "uniqueid": "MTK3094:3PDJHANYK6NA5FDN9VM6BOTD8VJ6HF", "dateTime": 1520012939900}, {"current_trial": 136, "trialdata": {"rt": -1, "trial_type": "single-stim", "word": "flute", "stimulus": "<p id=\"stim\">FLUTE</p>", "conditions": [12, 800, "v", 12000], "internal_node_id": "0.0-100.0", "trial": 3, "time_elapsed": 565397, "serialpos": 7, "key_press": -1, "wordID": 584, "type": "PRES_VIS", "trial_index": 136}, "uniqueid": "MTK3094:3PDJHANYK6NA5FDN9VM6BOTD8VJ6HF", "dateTime": 1520012941857}, {"current_trial": 137, "trialdata": {"rt": -1, "trial_type": "single-stim", "word": "pocket", "stimulus": "<p id=\"stim\">POCKET</p>", "conditions": [12, 800, "v", 12000], "internal_node_id": "0.0-101.0", "trial": 3, "time_elapsed": 567289, "serialpos": 8, "key_press": -1, "wordID": 1092, "type": "PRES_VIS", "trial_index": 137}, "uniqueid": "MTK3094:3PDJHANYK6NA5FDN9VM6BOTD8VJ6HF", "dateTime": 1520012943749}, {"current_trial": 138, "trialdata": {"rt": -1, "trial_type": "single-stim", "word": "canyon", "stimulus": "<p id=\"stim\">CANYON</p>", "conditions": [12, 800, "v", 12000], "internal_node_id": "0.0-102.0", "trial": 3, "time_elapsed": 569119, "serialpos": 9, "key_press": -1, "wordID": 234, "type": "PRES_VIS", "trial_index": 138}, "uniqueid": "MTK3094:3PDJHANYK6NA5FDN9VM6BOTD8VJ6HF", "dateTime": 1520012945579}, {"current_trial": 139, "trialdata": {"rt": -1, "trial_type": "single-stim", "word": "valley", "stimulus": "<p id=\"stim\">VALLEY</p>", "conditions": [12, 800, "v", 12000], "internal_node_id": "0.0-103.0", "trial": 3, "time_elapsed": 570986, "serialpos": 10, "key_press": -1, "wordID": 1544, "type": "PRES_VIS", "trial_index": 139}, "uniqueid": "MTK3094:3PDJHANYK6NA5FDN9VM6BOTD8VJ6HF", "dateTime": 1520012947446}, {"current_trial": 140, "trialdata": {"rt": -1, "trial_type": "single-stim", "word": "turtle", "stimulus": "<p id=\"stim\">TURTLE</p>", "conditions": [12, 800, "v", 12000], "internal_node_id": "0.0-104.0", "trial": 3, "time_elapsed": 572737, "serialpos": 11, "key_press": -1, "wordID": 1521, "type": "PRES_VIS", "trial_index": 140}, "uniqueid": "MTK3094:3PDJHANYK6NA5FDN9VM6BOTD8VJ6HF", "dateTime": 1520012949197}, {"current_trial": 141, "trialdata": {"rt": -1, "trial_type": "single-stim", "stimulus": "", "internal_node_id": "0.0-105.0-0.0", "time_elapsed": 575043, "key_press": -1, "type": "PRE_RECALL_DELAY", "trial_index": 141}, "uniqueid": "MTK3094:3PDJHANYK6NA5FDN9VM6BOTD8VJ6HF", "dateTime": 1520012951504}, {"current_trial": 142, "trialdata": {"rt": -1000, "trial_type": "single-audio", "stimulus": "/static/audio/400Hz.wav", "internal_node_id": "0.0-106.0", "time_elapsed": 575551, "key_press": -1, "type": "PRE_RECALL_ALERT", "trial_index": 142}, "uniqueid": "MTK3094:3PDJHANYK6NA5FDN9VM6BOTD8VJ6HF", "dateTime": 1520012952011}, {"current_trial": 143, "trialdata": {"rt": [2264, 4176, 6154, 8060, 10894, 11843, 40605], "recwords": ["turtle", "canyon", "valley", "tuba", "glass", "hand", "flute"], "key_times": [729, 871, 1125, 1458, 1889, 2069, 2264, 2657, 2854, 2957, 3131, 3604, 3918, 4176, 5016, 5177, 5335, 5482, 5635, 5706, 6154, 6545, 6663, 6845, 7069, 8060, 9837, 10059, 10211, 10321, 10522, 10894, 11204, 11374, 11510, 11647, 11843, 39777, 39930, 40190, 40327, 40457, 40605], "trial_type": "free-recall", "conditions": [12, 800, "v", 12000], "internal_node_id": "0.0-107.0-0.0", "key_presses": [84, 85, 82, 84, 76, 69, 13, 67, 65, 78, 89, 79, 78, 13, 86, 65, 76, 76, 69, 89, 13, 84, 85, 66, 65, 13, 71, 76, 65, 83, 83, 13, 72, 65, 78, 68, 13, 70, 76, 85, 84, 69, 13], "trial": 3, "time_elapsed": 635555, "type": "FREE_RECALL", "trial_index": 143}, "uniqueid": "MTK3094:3PDJHANYK6NA5FDN9VM6BOTD8VJ6HF", "dateTime": 1520013012019}, {"current_trial": 144, "trialdata": {"rt": 742, "trial_type": "text", "internal_node_id": "0.0-108.0", "time_elapsed": 638302, "key_press": 75, "type": "INSTRUCTIONS", "trial_index": 144}, "uniqueid": "MTK3094:3PDJHANYK6NA5FDN9VM6BOTD8VJ6HF", "dateTime": 1520013014762}, {"current_trial": 145, "trialdata": {"rt": [1908, 5633, 7739, 9556, 11359], "trial_type": "math-distractor", "key_times": [1484, 1674, 1908, 5229, 5397, 5633, 7388, 7568, 7739, 9278, 9556, 10957, 11077, 11359], "responses": ["12", "14", "21", "9", "15"], "num2": [5, 2, 6, 5, 1, 8], "num3": [6, 8, 9, 3, 9, 3], "conditions": [12, 1600, "v", 12000], "internal_node_id": "0.0-109.0", "key_presses": [97, 98, 13, 97, 100, 13, 98, 97, 13, 105, 13, 97, 101, 13], "trial": 4, "time_elapsed": 652305, "type": "DISTRACTOR", "trial_index": 145, "num1": [1, 4, 6, 1, 5, 9]}, "uniqueid": "MTK3094:3PDJHANYK6NA5FDN9VM6BOTD8VJ6HF", "dateTime": 1520013028766}, {"current_trial": 146, "trialdata": {"rt": -1, "trial_type": "single-stim", "stimulus": "<p id=\"stim\">10</p>", "internal_node_id": "0.0-110.0-0.0", "time_elapsed": 655307, "key_press": -1, "trial_index": 146}, "uniqueid": "MTK3094:3PDJHANYK6NA5FDN9VM6BOTD8VJ6HF", "dateTime": 1520013031767}, {"current_trial": 147, "trialdata": {"rt": -1, "trial_type": "single-stim", "stimulus": "<p id=\"stim\">9</p>", "internal_node_id": "0.0-110.0-1.0", "time_elapsed": 656309, "key_press": -1, "trial_index": 147}, "uniqueid": "MTK3094:3PDJHANYK6NA5FDN9VM6BOTD8VJ6HF", "dateTime": 1520013032769}, {"current_trial": 148, "trialdata": {"rt": -1, "trial_type": "single-stim", "stimulus": "<p id=\"stim\">8</p>", "internal_node_id": "0.0-110.0-2.0", "time_elapsed": 657310, "key_press": -1, "trial_index": 148}, "uniqueid": "MTK3094:3PDJHANYK6NA5FDN9VM6BOTD8VJ6HF", "dateTime": 1520013033770}, {"current_trial": 149, "trialdata": {"rt": -1, "trial_type": "single-stim", "stimulus": "<p id=\"stim\">7</p>", "internal_node_id": "0.0-110.0-3.0", "time_elapsed": 658312, "key_press": -1, "trial_index": 149}, "uniqueid": "MTK3094:3PDJHANYK6NA5FDN9VM6BOTD8VJ6HF", "dateTime": 1520013034773}, {"current_trial": 150, "trialdata": {"rt": -1, "trial_type": "single-stim", "stimulus": "<p id=\"stim\">6</p>", "internal_node_id": "0.0-110.0-4.0", "time_elapsed": 659313, "key_press": -1, "trial_index": 150}, "uniqueid": "MTK3094:3PDJHANYK6NA5FDN9VM6BOTD8VJ6HF", "dateTime": 1520013035774}, {"current_trial": 151, "trialdata": {"rt": -1, "trial_type": "single-stim", "stimulus": "<p id=\"stim\">5</p>", "internal_node_id": "0.0-110.0-5.0", "time_elapsed": 660315, "key_press": -1, "trial_index": 151}, "uniqueid": "MTK3094:3PDJHANYK6NA5FDN9VM6BOTD8VJ6HF", "dateTime": 1520013036775}, {"current_trial": 152, "trialdata": {"rt": -1, "trial_type": "single-stim", "stimulus": "<p id=\"stim\">4</p>", "internal_node_id": "0.0-110.0-6.0", "time_elapsed": 661317, "key_press": -1, "trial_index": 152}, "uniqueid": "MTK3094:3PDJHANYK6NA5FDN9VM6BOTD8VJ6HF", "dateTime": 1520013037777}, {"current_trial": 153, "trialdata": {"rt": -1, "trial_type": "single-stim", "stimulus": "<p id=\"stim\">3</p>", "internal_node_id": "0.0-110.0-7.0", "time_elapsed": 662318, "key_press": -1, "trial_index": 153}, "uniqueid": "MTK3094:3PDJHANYK6NA5FDN9VM6BOTD8VJ6HF", "dateTime": 1520013038778}, {"current_trial": 154, "trialdata": {"rt": -1, "trial_type": "single-stim", "stimulus": "<p id=\"stim\">2</p>", "internal_node_id": "0.0-110.0-8.0", "time_elapsed": 663321, "key_press": -1, "trial_index": 154}, "uniqueid": "MTK3094:3PDJHANYK6NA5FDN9VM6BOTD8VJ6HF", "dateTime": 1520013039781}, {"current_trial": 155, "trialdata": {"rt": -1, "trial_type": "single-stim", "stimulus": "<p id=\"stim\">1</p>", "internal_node_id": "0.0-110.0-9.0", "time_elapsed": 664323, "key_press": -1, "trial_index": 155}, "uniqueid": "MTK3094:3PDJHANYK6NA5FDN9VM6BOTD8VJ6HF", "dateTime": 1520013040783}, {"current_trial": 156, "trialdata": {"rt": -1, "trial_type": "single-stim", "stimulus": "<p id=\"stim\">+</p>", "internal_node_id": "0.0-111.0-0.0", "time_elapsed": 665824, "key_press": -1, "type": "FIXATION", "trial_index": 156}, "uniqueid": "MTK3094:3PDJHANYK6NA5FDN9VM6BOTD8VJ6HF", "dateTime": 1520013042284}, {"current_trial": 157, "trialdata": {"rt": -1, "trial_type": "single-stim", "word": "stove", "stimulus": "<p id=\"stim\">STOVE</p>", "conditions": [12, 1600, "v", 12000], "internal_node_id": "0.0-112.0", "trial": 4, "time_elapsed": 667425, "serialpos": 0, "key_press": -1, "wordID": 1387, "type": "PRES_VIS", "trial_index": 157}, "uniqueid": "MTK3094:3PDJHANYK6NA5FDN9VM6BOTD8VJ6HF", "dateTime": 1520013043885}, {"current_trial": 158, "trialdata": {"rt": -1, "trial_type": "single-stim", "word": "peach", "stimulus": "<p id=\"stim\">PEACH</p>", "conditions": [12, 1600, "v", 12000], "internal_node_id": "0.0-113.0", "trial": 4, "time_elapsed": 669933, "serialpos": 1, "key_press": -1, "wordID": 1030, "type": "PRES_VIS", "trial_index": 158}, "uniqueid": "MTK3094:3PDJHANYK6NA5FDN9VM6BOTD8VJ6HF", "dateTime": 1520013046393}, {"current_trial": 159, "trialdata": {"rt": -1, "trial_type": "single-stim", "word": "citrus", "stimulus": "<p id=\"stim\">CITRUS</p>", "conditions": [12, 1600, "v", 12000], "internal_node_id": "0.0-114.0", "trial": 4, "time_elapsed": 672708, "serialpos": 2, "key_press": -1, "wordID": 312, "type": "PRES_VIS", "trial_index": 159}, "uniqueid": "MTK3094:3PDJHANYK6NA5FDN9VM6BOTD8VJ6HF", "dateTime": 1520013049168}, {"current_trial": 160, "trialdata": {"rt": -1, "trial_type": "single-stim", "word": "stallion", "stimulus": "<p id=\"stim\">STALLION</p>", "conditions": [12, 1600, "v", 12000], "internal_node_id": "0.0-115.0", "trial": 4, "time_elapsed": 675140, "serialpos": 3, "key_press": -1, "wordID": 1368, "type": "PRES_VIS", "trial_index": 160}, "uniqueid": "MTK3094:3PDJHANYK6NA5FDN9VM6BOTD8VJ6HF", "dateTime": 1520013051600}, {"current_trial": 161, "trialdata": {"rt": -1, "trial_type": "single-stim", "word": "oyster", "stimulus": "<p id=\"stim\">OYSTER</p>", "conditions": [12, 1600, "v", 12000], "internal_node_id": "0.0-116.0", "trial": 4, "time_elapsed": 677900, "serialpos": 4, "key_press": -1, "wordID": 994, "type": "PRES_VIS", "trial_index": 161}, "uniqueid": "MTK3094:3PDJHANYK6NA5FDN9VM6BOTD8VJ6HF", "dateTime": 1520013054360}, {"current_trial": 162, "trialdata": {"rt": -1, "trial_type": "single-stim", "word": "gangster", "stimulus": "<p id=\"stim\">GANGSTER</p>", "conditions": [12, 1600, "v", 12000], "internal_node_id": "0.0-117.0", "trial": 4, "time_elapsed": 680555, "serialpos": 5, "key_press": -1, "wordID": 619, "type": "PRES_VIS", "trial_index": 162}, "uniqueid": "MTK3094:3PDJHANYK6NA5FDN9VM6BOTD8VJ6HF", "dateTime": 1520013057016}, {"current_trial": 163, "trialdata": {"rt": -1, "trial_type": "single-stim", "word": "peanut", "stimulus": "<p id=\"stim\">PEANUT</p>", "conditions": [12, 1600, "v", 12000], "internal_node_id": "0.0-118.0", "trial": 4, "time_elapsed": 683019, "serialpos": 6, "key_press": -1, "wordID": 1031, "type": "PRES_VIS", "trial_index": 163}, "uniqueid": "MTK3094:3PDJHANYK6NA5FDN9VM6BOTD8VJ6HF", "dateTime": 1520013059479}, {"current_trial": 164, "trialdata": {"rt": -1, "trial_type": "single-stim", "word": "chipmunk", "stimulus": "<p id=\"stim\">CHIPMUNK</p>", "conditions": [12, 1600, "v", 12000], "internal_node_id": "0.0-119.0", "trial": 4, "time_elapsed": 685713, "serialpos": 7, "key_press": -1, "wordID": 303, "type": "PRES_VIS", "trial_index": 164}, "uniqueid": "MTK3094:3PDJHANYK6NA5FDN9VM6BOTD8VJ6HF", "dateTime": 1520013062173}, {"current_trial": 165, "trialdata": {"rt": -1, "trial_type": "single-stim", "word": "fireplace", "stimulus": "<p id=\"stim\">FIREPLACE</p>", "conditions": [12, 1600, "v", 12000], "internal_node_id": "0.0-120.0", "trial": 4, "time_elapsed": 688401, "serialpos": 8, "key_press": -1, "wordID": 569, "type": "PRES_VIS", "trial_index": 165}, "uniqueid": "MTK3094:3PDJHANYK6NA5FDN9VM6BOTD8VJ6HF", "dateTime": 1520013064861}, {"current_trial": 166, "trialdata": {"rt": -1, "trial_type": "single-stim", "word": "parrot", "stimulus": "<p id=\"stim\">PARROT</p>", "conditions": [12, 1600, "v", 12000], "internal_node_id": "0.0-121.0", "trial": 4, "time_elapsed": 691100, "serialpos": 9, "key_press": -1, "wordID": 1014, "type": "PRES_VIS", "trial_index": 166}, "uniqueid": "MTK3094:3PDJHANYK6NA5FDN9VM6BOTD8VJ6HF", "dateTime": 1520013067560}, {"current_trial": 167, "trialdata": {"rt": -1, "trial_type": "single-stim", "word": "mammal", "stimulus": "<p id=\"stim\">MAMMAL</p>", "conditions": [12, 1600, "v", 12000], "internal_node_id": "0.0-122.0", "trial": 4, "time_elapsed": 693736, "serialpos": 10, "key_press": -1, "wordID": 860, "type": "PRES_VIS", "trial_index": 167}, "uniqueid": "MTK3094:3PDJHANYK6NA5FDN9VM6BOTD8VJ6HF", "dateTime": 1520013070196}, {"current_trial": 168, "trialdata": {"rt": -1, "trial_type": "single-stim", "word": "whiskers", "stimulus": "<p id=\"stim\">WHISKERS</p>", "conditions": [12, 1600, "v", 12000], "internal_node_id": "0.0-123.0", "trial": 4, "time_elapsed": 696235, "serialpos": 11, "key_press": -1, "wordID": 1604, "type": "PRES_VIS", "trial_index": 168}, "uniqueid": "MTK3094:3PDJHANYK6NA5FDN9VM6BOTD8VJ6HF", "dateTime": 1520013072696}, {"current_trial": 169, "trialdata": {"rt": -1, "trial_type": "single-stim", "stimulus": "", "internal_node_id": "0.0-124.0-0.0", "time_elapsed": 698543, "key_press": -1, "type": "PRE_RECALL_DELAY", "trial_index": 169}, "uniqueid": "MTK3094:3PDJHANYK6NA5FDN9VM6BOTD8VJ6HF", "dateTime": 1520013075003}, {"current_trial": 170, "trialdata": {"rt": -1000, "trial_type": "single-audio", "stimulus": "/static/audio/400Hz.wav", "internal_node_id": "0.0-125.0", "time_elapsed": 699045, "key_press": -1, "type": "PRE_RECALL_ALERT", "trial_index": 170}, "uniqueid": "MTK3094:3PDJHANYK6NA5FDN9VM6BOTD8VJ6HF", "dateTime": 1520013075505}, {"current_trial": 171, "trialdata": {"rt": [1765, 3853, 5861, 7593, 8754, 28100, 34571, 42014], "recwords": ["whiskers", "chipmunk", "fireplace", "peanut", "stove", "mammal", "parrot", "stallion"], "key_times": [421, 578, 741, 996, 1210, 1335, 1424, 1624, 1765, 2119, 2250, 2400, 2555, 2784, 3040, 3236, 3400, 3853, 4468, 4598, 4730, 4844, 5051, 5273, 5338, 5540, 5733, 5861, 6189, 6286, 6433, 6590, 7326, 7462, 7593, 7861, 8029, 8151, 8353, 8618, 8754, 27240, 27359, 27494, 27647, 27735, 27848, 28100, 33809, 33901, 34069, 34199, 34291, 34396, 34571, 40453, 40719, 40855, 40997, 41156, 41363, 41527, 41727, 42014], "trial_type": "free-recall", "conditions": [12, 1600, "v", 12000], "internal_node_id": "0.0-126.0-0.0", "key_presses": [87, 72, 73, 83, 75, 69, 82, 83, 13, 67, 72, 73, 80, 77, 85, 78, 75, 13, 70, 73, 82, 69, 80, 76, 65, 67, 69, 13, 80, 69, 65, 78, 85, 84, 13, 83, 84, 79, 86, 69, 13, 77, 65, 77, 77, 65, 76, 13, 80, 65, 82, 82, 79, 84, 13, 83, 84, 65, 76, 76, 73, 79, 78, 13], "trial": 4, "time_elapsed": 759048, "type": "FREE_RECALL", "trial_index": 171}, "uniqueid": "MTK3094:3PDJHANYK6NA5FDN9VM6BOTD8VJ6HF", "dateTime": 1520013135513}, {"current_trial": 172, "trialdata": {"rt": 1474, "trial_type": "text", "internal_node_id": "0.0-127.0", "time_elapsed": 762527, "key_press": 76, "type": "INSTRUCTIONS", "trial_index": 172}, "uniqueid": "MTK3094:3PDJHANYK6NA5FDN9VM6BOTD8VJ6HF", "dateTime": 1520013138988}, {"current_trial": 173, "trialdata": {"rt": [1922, 3476, 6661, 8650, 10583, 12311, 14521, 15882, 17825, 21676], "trial_type": "math-distractor", "key_times": [1509, 1687, 1922, 3122, 3293, 3476, 5164, 6413, 6661, 8199, 8399, 8650, 10164, 10408, 10583, 11945, 12142, 12311, 14121, 14373, 14521, 15461, 15667, 15882, 17447, 17583, 17825, 21308, 21506, 21676], "responses": ["14", "11", "13", "19", "13", "20", "22", "15", "15", "21"], "num2": [4, 5, 5, 9, 4, 9, 7, 3, 7, 5, 3], "num3": [7, 2, 1, 3, 4, 8, 8, 5, 6, 7, 6], "conditions": [12, 800, "v", 24000], "internal_node_id": "0.0-128.0", "key_presses": [97, 100, 13, 97, 97, 13, 97, 99, 13, 97, 105, 13, 97, 99, 13, 98, 96, 13, 98, 98, 13, 97, 101, 13, 97, 101, 13, 98, 97, 13], "trial": 5, "time_elapsed": 788531, "type": "DISTRACTOR", "trial_index": 173, "num1": [3, 4, 7, 7, 5, 3, 8, 7, 2, 9, 9]}, "uniqueid": "MTK3094:3PDJHANYK6NA5FDN9VM6BOTD8VJ6HF", "dateTime": 1520013164992}, {"current_trial": 174, "trialdata": {"rt": -1, "trial_type": "single-stim", "stimulus": "<p id=\"stim\">10</p>", "internal_node_id": "0.0-129.0-0.0", "time_elapsed": 791534, "key_press": -1, "trial_index": 174}, "uniqueid": "MTK3094:3PDJHANYK6NA5FDN9VM6BOTD8VJ6HF", "dateTime": 1520013167994}, {"current_trial": 175, "trialdata": {"rt": -1, "trial_type": "single-stim", "stimulus": "<p id=\"stim\">9</p>", "internal_node_id": "0.0-129.0-1.0", "time_elapsed": 792535, "key_press": -1, "trial_index": 175}, "uniqueid": "MTK3094:3PDJHANYK6NA5FDN9VM6BOTD8VJ6HF", "dateTime": 1520013168996}, {"current_trial": 176, "trialdata": {"rt": -1, "trial_type": "single-stim", "stimulus": "<p id=\"stim\">8</p>", "internal_node_id": "0.0-129.0-2.0", "time_elapsed": 793537, "key_press": -1, "trial_index": 176}, "uniqueid": "MTK3094:3PDJHANYK6NA5FDN9VM6BOTD8VJ6HF", "dateTime": 1520013169997}, {"current_trial": 177, "trialdata": {"rt": -1, "trial_type": "single-stim", "stimulus": "<p id=\"stim\">7</p>", "internal_node_id": "0.0-129.0-3.0", "time_elapsed": 794539, "key_press": -1, "trial_index": 177}, "uniqueid": "MTK3094:3PDJHANYK6NA5FDN9VM6BOTD8VJ6HF", "dateTime": 1520013170999}, {"current_trial": 178, "trialdata": {"rt": -1, "trial_type": "single-stim", "stimulus": "<p id=\"stim\">6</p>", "internal_node_id": "0.0-129.0-4.0", "time_elapsed": 795540, "key_press": -1, "trial_index": 178}, "uniqueid": "MTK3094:3PDJHANYK6NA5FDN9VM6BOTD8VJ6HF", "dateTime": 1520013172000}, {"current_trial": 179, "trialdata": {"rt": -1, "trial_type": "single-stim", "stimulus": "<p id=\"stim\">5</p>", "internal_node_id": "0.0-129.0-5.0", "time_elapsed": 796541, "key_press": -1, "trial_index": 179}, "uniqueid": "MTK3094:3PDJHANYK6NA5FDN9VM6BOTD8VJ6HF", "dateTime": 1520013173001}, {"current_trial": 180, "trialdata": {"rt": -1, "trial_type": "single-stim", "stimulus": "<p id=\"stim\">4</p>", "internal_node_id": "0.0-129.0-6.0", "time_elapsed": 797542, "key_press": -1, "trial_index": 180}, "uniqueid": "MTK3094:3PDJHANYK6NA5FDN9VM6BOTD8VJ6HF", "dateTime": 1520013174003}, {"current_trial": 181, "trialdata": {"rt": -1, "trial_type": "single-stim", "stimulus": "<p id=\"stim\">3</p>", "internal_node_id": "0.0-129.0-7.0", "time_elapsed": 798543, "key_press": -1, "trial_index": 181}, "uniqueid": "MTK3094:3PDJHANYK6NA5FDN9VM6BOTD8VJ6HF", "dateTime": 1520013175004}, {"current_trial": 182, "trialdata": {"rt": -1, "trial_type": "single-stim", "stimulus": "<p id=\"stim\">2</p>", "internal_node_id": "0.0-129.0-8.0", "time_elapsed": 799545, "key_press": -1, "trial_index": 182}, "uniqueid": "MTK3094:3PDJHANYK6NA5FDN9VM6BOTD8VJ6HF", "dateTime": 1520013176005}, {"current_trial": 183, "trialdata": {"rt": -1, "trial_type": "single-stim", "stimulus": "<p id=\"stim\">1</p>", "internal_node_id": "0.0-129.0-9.0", "time_elapsed": 800546, "key_press": -1, "trial_index": 183}, "uniqueid": "MTK3094:3PDJHANYK6NA5FDN9VM6BOTD8VJ6HF", "dateTime": 1520013177006}, {"current_trial": 184, "trialdata": {"rt": -1, "trial_type": "single-stim", "stimulus": "<p id=\"stim\">+</p>", "internal_node_id": "0.0-130.0-0.0", "time_elapsed": 802048, "key_press": -1, "type": "FIXATION", "trial_index": 184}, "uniqueid": "MTK3094:3PDJHANYK6NA5FDN9VM6BOTD8VJ6HF", "dateTime": 1520013178508}, {"current_trial": 185, "trialdata": {"rt": -1, "trial_type": "single-stim", "word": "nurse", "stimulus": "<p id=\"stim\">NURSE</p>", "conditions": [12, 800, "v", 24000], "internal_node_id": "0.0-131.0", "trial": 5, "time_elapsed": 802850, "serialpos": 0, "key_press": -1, "wordID": 962, "type": "PRES_VIS", "trial_index": 185}, "uniqueid": "MTK3094:3PDJHANYK6NA5FDN9VM6BOTD8VJ6HF", "dateTime": 1520013179310}, {"current_trial": 186, "trialdata": {"rt": -1, "trial_type": "single-stim", "word": "cloud", "stimulus": "<p id=\"stim\">CLOUD</p>", "conditions": [12, 800, "v", 24000], "internal_node_id": "0.0-132.0", "trial": 5, "time_elapsed": 804669, "serialpos": 1, "key_press": -1, "wordID": 327, "type": "PRES_VIS", "trial_index": 186}, "uniqueid": "MTK3094:3PDJHANYK6NA5FDN9VM6BOTD8VJ6HF", "dateTime": 1520013181129}, {"current_trial": 187, "trialdata": {"rt": -1, "trial_type": "single-stim", "word": "server", "stimulus": "<p id=\"stim\">SERVER</p>", "conditions": [12, 800, "v", 24000], "internal_node_id": "0.0-133.0", "trial": 5, "time_elapsed": 806454, "serialpos": 2, "key_press": -1, "wordID": 1271, "type": "PRES_VIS", "trial_index": 187}, "uniqueid": "MTK3094:3PDJHANYK6NA5FDN9VM6BOTD8VJ6HF", "dateTime": 1520013182914}, {"current_trial": 188, "trialdata": {"rt": -1, "trial_type": "single-stim", "word": "soda", "stimulus": "<p id=\"stim\">SODA</p>", "conditions": [12, 800, "v", 24000], "internal_node_id": "0.0-134.0", "trial": 5, "time_elapsed": 808426, "serialpos": 3, "key_press": -1, "wordID": 1340, "type": "PRES_VIS", "trial_index": 188}, "uniqueid": "MTK3094:3PDJHANYK6NA5FDN9VM6BOTD8VJ6HF", "dateTime": 1520013184887}, {"current_trial": 189, "trialdata": {"rt": -1, "trial_type": "single-stim", "word": "frame", "stimulus": "<p id=\"stim\">FRAME</p>", "conditions": [12, 800, "v", 24000], "internal_node_id": "0.0-135.0", "trial": 5, "time_elapsed": 810165, "serialpos": 4, "key_press": -1, "wordID": 599, "type": "PRES_VIS", "trial_index": 189}, "uniqueid": "MTK3094:3PDJHANYK6NA5FDN9VM6BOTD8VJ6HF", "dateTime": 1520013186625}, {"current_trial": 190, "trialdata": {"rt": -1, "trial_type": "single-stim", "word": "puppy", "stimulus": "<p id=\"stim\">PUPPY</p>", "conditions": [12, 800, "v", 24000], "internal_node_id": "0.0-136.0", "trial": 5, "time_elapsed": 812090, "serialpos": 5, "key_press": -1, "wordID": 1143, "type": "PRES_VIS", "trial_index": 190}, "uniqueid": "MTK3094:3PDJHANYK6NA5FDN9VM6BOTD8VJ6HF", "dateTime": 1520013188550}, {"current_trial": 191, "trialdata": {"rt": -1, "trial_type": "single-stim", "word": "cyclone", "stimulus": "<p id=\"stim\">CYCLONE</p>", "conditions": [12, 800, "v", 24000], "internal_node_id": "0.0-137.0", "trial": 5, "time_elapsed": 813741, "serialpos": 6, "key_press": -1, "wordID": 430, "type": "PRES_VIS", "trial_index": 191}, "uniqueid": "MTK3094:3PDJHANYK6NA5FDN9VM6BOTD8VJ6HF", "dateTime": 1520013190201}, {"current_trial": 192, "trialdata": {"rt": -1, "trial_type": "single-stim", "word": "cashew", "stimulus": "<p id=\"stim\">CASHEW</p>", "conditions": [12, 800, "v", 24000], "internal_node_id": "0.0-138.0", "trial": 5, "time_elapsed": 815549, "serialpos": 7, "key_press": -1, "wordID": 252, "type": "PRES_VIS", "trial_index": 192}, "uniqueid": "MTK3094:3PDJHANYK6NA5FDN9VM6BOTD8VJ6HF", "dateTime": 1520013192010}, {"current_trial": 193, "trialdata": {"rt": -1, "trial_type": "single-stim", "word": "drink", "stimulus": "<p id=\"stim\">DRINK</p>", "conditions": [12, 800, "v", 24000], "internal_node_id": "0.0-139.0", "trial": 5, "time_elapsed": 817281, "serialpos": 8, "key_press": -1, "wordID": 497, "type": "PRES_VIS", "trial_index": 193}, "uniqueid": "MTK3094:3PDJHANYK6NA5FDN9VM6BOTD8VJ6HF", "dateTime": 1520013193741}, {"current_trial": 194, "trialdata": {"rt": -1, "trial_type": "single-stim", "word": "loft", "stimulus": "<p id=\"stim\">LOFT</p>", "conditions": [12, 800, "v", 24000], "internal_node_id": "0.0-140.0", "trial": 5, "time_elapsed": 818918, "serialpos": 9, "key_press": -1, "wordID": 839, "type": "PRES_VIS", "trial_index": 194}, "uniqueid": "MTK3094:3PDJHANYK6NA5FDN9VM6BOTD8VJ6HF", "dateTime": 1520013195378}, {"current_trial": 195, "trialdata": {"rt": -1, "trial_type": "single-stim", "word": "picnic", "stimulus": "<p id=\"stim\">PICNIC</p>", "conditions": [12, 800, "v", 24000], "internal_node_id": "0.0-141.0", "trial": 5, "time_elapsed": 820780, "serialpos": 10, "key_press": -1, "wordID": 1059, "type": "PRES_VIS", "trial_index": 195}, "uniqueid": "MTK3094:3PDJHANYK6NA5FDN9VM6BOTD8VJ6HF", "dateTime": 1520013197240}, {"current_trial": 196, "trialdata": {"rt": -1, "trial_type": "single-stim", "word": "supper", "stimulus": "<p id=\"stim\">SUPPER</p>", "conditions": [12, 800, "v", 24000], "internal_node_id": "0.0-142.0", "trial": 5, "time_elapsed": 822427, "serialpos": 11, "key_press": -1, "wordID": 1410, "type": "PRES_VIS", "trial_index": 196}, "uniqueid": "MTK3094:3PDJHANYK6NA5FDN9VM6BOTD8VJ6HF", "dateTime": 1520013198887}, {"current_trial": 197, "trialdata": {"rt": -1, "trial_type": "single-stim", "stimulus": "", "internal_node_id": "0.0-143.0-0.0", "time_elapsed": 824572, "key_press": -1, "type": "PRE_RECALL_DELAY", "trial_index": 197}, "uniqueid": "MTK3094:3PDJHANYK6NA5FDN9VM6BOTD8VJ6HF", "dateTime": 1520013201032}, {"current_trial": 198, "trialdata": {"rt": -1000, "trial_type": "single-audio", "stimulus": "/static/audio/400Hz.wav", "internal_node_id": "0.0-144.0", "time_elapsed": 825081, "key_press": -1, "type": "PRE_RECALL_ALERT", "trial_index": 198}, "uniqueid": "MTK3094:3PDJHANYK6NA5FDN9VM6BOTD8VJ6HF", "dateTime": 1520013201541}, {"current_trial": 199, "trialdata": {"rt": [1360, 3443, 5144, 6912, 8765, 10153, 15815, 22251], "recwords": ["supper", "picnic", "nurse", "soda", "frame", "puppy", "drink", "cashew"], "key_times": [560, 679, 844, 980, 1078, 1154, 1360, 1746, 1963, 2099, 2240, 2413, 2601, 3443, 4222, 4467, 4608, 4791, 4882, 5144, 5458, 5600, 5757, 5939, 6912, 7572, 7805, 7920, 8111, 8252, 8765, 9069, 9265, 9434, 9576, 9713, 10153, 13676, 13879, 13996, 14294, 14435, 15815, 20760, 20939, 21206, 21298, 21898, 22105, 22251], "trial_type": "free-recall", "conditions": [12, 800, "v", 24000], "internal_node_id": "0.0-145.0-0.0", "key_presses": [83, 85, 80, 80, 69, 82, 13, 80, 73, 67, 78, 73, 67, 13, 78, 85, 82, 83, 69, 13, 83, 79, 68, 65, 13, 70, 82, 65, 77, 69, 13, 80, 85, 80, 80, 89, 13, 68, 82, 73, 78, 75, 13, 67, 65, 83, 72, 69, 87, 13], "trial": 5, "time_elapsed": 885084, "type": "FREE_RECALL", "trial_index": 199}, "uniqueid": "MTK3094:3PDJHANYK6NA5FDN9VM6BOTD8VJ6HF", "dateTime": 1520013261549}, {"current_trial": 200, "trialdata": {"rt": 647, "trial_type": "text", "internal_node_id": "0.0-146.0", "time_elapsed": 887737, "key_press": 82, "type": "INSTRUCTIONS", "trial_index": 200}, "uniqueid": "MTK3094:3PDJHANYK6NA5FDN9VM6BOTD8VJ6HF", "dateTime": 1520013264197}, {"current_trial": 201, "trialdata": {"rt": [2062, 4043, 7312, 8775, 10720, 12151, 13677, 15890, 18554, 20089], "trial_type": "math-distractor", "key_times": [1686, 1832, 2062, 3656, 3839, 4043, 7017, 7169, 7312, 8422, 8611, 8775, 10233, 10474, 10720, 11759, 11970, 12151, 13292, 13467, 13677, 15461, 15702, 15890, 18035, 18313, 18554, 19802, 20089, 23895], "responses": ["15", "12", "22", "12", "12", "10", "11", "20", "18", "9"], "num2": [5, 8, 5, 2, 5, 2, 4, 9, 6, 1, 7], "num3": [3, 1, 9, 8, 1, 1, 5, 7, 4, 7, 7], "conditions": [12, 1600, "v", 24000], "internal_node_id": "0.0-147.0", "key_presses": [97, 101, 13, 97, 98, 13, 98, 98, 13, 97, 98, 13, 97, 98, 13, 97, 96, 13, 97, 97, 13, 98, 96, 13, 97, 104, 13, 105, 13, 98], "trial": 6, "time_elapsed": 913741, "type": "DISTRACTOR", "trial_index": 201, "num1": [7, 3, 8, 2, 6, 7, 2, 4, 8, 1, 8]}, "uniqueid": "MTK3094:3PDJHANYK6NA5FDN9VM6BOTD8VJ6HF", "dateTime": 1520013290201}, {"current_trial": 202, "trialdata": {"rt": -1, "trial_type": "single-stim", "stimulus": "<p id=\"stim\">10</p>", "internal_node_id": "0.0-148.0-0.0", "time_elapsed": 916744, "key_press": -1, "trial_index": 202}, "uniqueid": "MTK3094:3PDJHANYK6NA5FDN9VM6BOTD8VJ6HF", "dateTime": 1520013293205}, {"current_trial": 203, "trialdata": {"rt": -1, "trial_type": "single-stim", "stimulus": "<p id=\"stim\">9</p>", "internal_node_id": "0.0-148.0-1.0", "time_elapsed": 917746, "key_press": -1, "trial_index": 203}, "uniqueid": "MTK3094:3PDJHANYK6NA5FDN9VM6BOTD8VJ6HF", "dateTime": 1520013294206}, {"current_trial": 204, "trialdata": {"rt": -1, "trial_type": "single-stim", "stimulus": "<p id=\"stim\">8</p>", "internal_node_id": "0.0-148.0-2.0", "time_elapsed": 918749, "key_press": -1, "trial_index": 204}, "uniqueid": "MTK3094:3PDJHANYK6NA5FDN9VM6BOTD8VJ6HF", "dateTime": 1520013295209}, {"current_trial": 205, "trialdata": {"rt": -1, "trial_type": "single-stim", "stimulus": "<p id=\"stim\">7</p>", "internal_node_id": "0.0-148.0-3.0", "time_elapsed": 919750, "key_press": -1, "trial_index": 205}, "uniqueid": "MTK3094:3PDJHANYK6NA5FDN9VM6BOTD8VJ6HF", "dateTime": 1520013296210}, {"current_trial": 206, "trialdata": {"rt": -1, "trial_type": "single-stim", "stimulus": "<p id=\"stim\">6</p>", "internal_node_id": "0.0-148.0-4.0", "time_elapsed": 920751, "key_press": -1, "trial_index": 206}, "uniqueid": "MTK3094:3PDJHANYK6NA5FDN9VM6BOTD8VJ6HF", "dateTime": 1520013297212}, {"current_trial": 207, "trialdata": {"rt": -1, "trial_type": "single-stim", "stimulus": "<p id=\"stim\">5</p>", "internal_node_id": "0.0-148.0-5.0", "time_elapsed": 921754, "key_press": -1, "trial_index": 207}, "uniqueid": "MTK3094:3PDJHANYK6NA5FDN9VM6BOTD8VJ6HF", "dateTime": 1520013298214}, {"current_trial": 208, "trialdata": {"rt": -1, "trial_type": "single-stim", "stimulus": "<p id=\"stim\">4</p>", "internal_node_id": "0.0-148.0-6.0", "time_elapsed": 922755, "key_press": -1, "trial_index": 208}, "uniqueid": "MTK3094:3PDJHANYK6NA5FDN9VM6BOTD8VJ6HF", "dateTime": 1520013299215}, {"current_trial": 209, "trialdata": {"rt": -1, "trial_type": "single-stim", "stimulus": "<p id=\"stim\">3</p>", "internal_node_id": "0.0-148.0-7.0", "time_elapsed": 923756, "key_press": -1, "trial_index": 209}, "uniqueid": "MTK3094:3PDJHANYK6NA5FDN9VM6BOTD8VJ6HF", "dateTime": 1520013300216}, {"current_trial": 210, "trialdata": {"rt": -1, "trial_type": "single-stim", "stimulus": "<p id=\"stim\">2</p>", "internal_node_id": "0.0-148.0-8.0", "time_elapsed": 924758, "key_press": -1, "trial_index": 210}, "uniqueid": "MTK3094:3PDJHANYK6NA5FDN9VM6BOTD8VJ6HF", "dateTime": 1520013301218}, {"current_trial": 211, "trialdata": {"rt": -1, "trial_type": "single-stim", "stimulus": "<p id=\"stim\">1</p>", "internal_node_id": "0.0-148.0-9.0", "time_elapsed": 925760, "key_press": -1, "trial_index": 211}, "uniqueid": "MTK3094:3PDJHANYK6NA5FDN9VM6BOTD8VJ6HF", "dateTime": 1520013302220}, {"current_trial": 212, "trialdata": {"rt": -1, "trial_type": "single-stim", "stimulus": "<p id=\"stim\">+</p>", "internal_node_id": "0.0-149.0-0.0", "time_elapsed": 927262, "key_press": -1, "type": "FIXATION", "trial_index": 212}, "uniqueid": "MTK3094:3PDJHANYK6NA5FDN9VM6BOTD8VJ6HF", "dateTime": 1520013303722}, {"current_trial": 213, "trialdata": {"rt": -1, "trial_type": "single-stim", "word": "survey", "stimulus": "<p id=\"stim\">SURVEY</p>", "conditions": [12, 1600, "v", 24000], "internal_node_id": "0.0-150.0", "trial": 6, "time_elapsed": 928864, "serialpos": 0, "key_press": -1, "wordID": 1413, "type": "PRES_VIS", "trial_index": 213}, "uniqueid": "MTK3094:3PDJHANYK6NA5FDN9VM6BOTD8VJ6HF", "dateTime": 1520013305324}, {"current_trial": 214, "trialdata": {"rt": -1, "trial_type": "single-stim", "word": "blouse", "stimulus": "<p id=\"stim\">BLOUSE</p>", "conditions": [12, 1600, "v", 24000], "internal_node_id": "0.0-151.0", "trial": 6, "time_elapsed": 931633, "serialpos": 1, "key_press": -1, "wordID": 138, "type": "PRES_VIS", "trial_index": 214}, "uniqueid": "MTK3094:3PDJHANYK6NA5FDN9VM6BOTD8VJ6HF", "dateTime": 1520013308094}, {"current_trial": 215, "trialdata": {"rt": -1, "trial_type": "single-stim", "word": "skirt", "stimulus": "<p id=\"stim\">SKIRT</p>", "conditions": [12, 1600, "v", 24000], "internal_node_id": "0.0-152.0", "trial": 6, "time_elapsed": 934414, "serialpos": 2, "key_press": -1, "wordID": 1318, "type": "PRES_VIS", "trial_index": 215}, "uniqueid": "MTK3094:3PDJHANYK6NA5FDN9VM6BOTD8VJ6HF", "dateTime": 1520013310875}, {"current_trial": 216, "trialdata": {"rt": -1, "trial_type": "single-stim", "word": "palace", "stimulus": "<p id=\"stim\">PALACE</p>", "conditions": [12, 1600, "v", 24000], "internal_node_id": "0.0-153.0", "trial": 6, "time_elapsed": 936829, "serialpos": 3, "key_press": -1, "wordID": 1005, "type": "PRES_VIS", "trial_index": 216}, "uniqueid": "MTK3094:3PDJHANYK6NA5FDN9VM6BOTD8VJ6HF", "dateTime": 1520013313289}, {"current_trial": 217, "trialdata": {"rt": -1, "trial_type": "single-stim", "word": "cellar", "stimulus": "<p id=\"stim\">CELLAR</p>", "conditions": [12, 1600, "v", 24000], "internal_node_id": "0.0-154.0", "trial": 6, "time_elapsed": 939472, "serialpos": 4, "key_press": -1, "wordID": 266, "type": "PRES_VIS", "trial_index": 217}, "uniqueid": "MTK3094:3PDJHANYK6NA5FDN9VM6BOTD8VJ6HF", "dateTime": 1520013315933}, {"current_trial": 218, "trialdata": {"rt": -1, "trial_type": "single-stim", "word": "fragrance", "stimulus": "<p id=\"stim\">FRAGRANCE</p>", "conditions": [12, 1600, "v", 24000], "internal_node_id": "0.0-155.0", "trial": 6, "time_elapsed": 942189, "serialpos": 5, "key_press": -1, "wordID": 598, "type": "PRES_VIS", "trial_index": 218}, "uniqueid": "MTK3094:3PDJHANYK6NA5FDN9VM6BOTD8VJ6HF", "dateTime": 1520013318649}, {"current_trial": 219, "trialdata": {"rt": -1, "trial_type": "single-stim", "word": "milk", "stimulus": "<p id=\"stim\">MILK</p>", "conditions": [12, 1600, "v", 24000], "internal_node_id": "0.0-156.0", "trial": 6, "time_elapsed": 944657, "serialpos": 6, "key_press": -1, "wordID": 894, "type": "PRES_VIS", "trial_index": 219}, "uniqueid": "MTK3094:3PDJHANYK6NA5FDN9VM6BOTD8VJ6HF", "dateTime": 1520013321117}, {"current_trial": 220, "trialdata": {"rt": -1, "trial_type": "single-stim", "word": "salad", "stimulus": "<p id=\"stim\">SALAD</p>", "conditions": [12, 1600, "v", 24000], "internal_node_id": "0.0-157.0", "trial": 6, "time_elapsed": 947419, "serialpos": 7, "key_press": -1, "wordID": 1223, "type": "PRES_VIS", "trial_index": 220}, "uniqueid": "MTK3094:3PDJHANYK6NA5FDN9VM6BOTD8VJ6HF", "dateTime": 1520013323880}, {"current_trial": 221, "trialdata": {"rt": -1, "trial_type": "single-stim", "word": "mailbox", "stimulus": "<p id=\"stim\">MAILBOX</p>", "conditions": [12, 1600, "v", 24000], "internal_node_id": "0.0-158.0", "trial": 6, "time_elapsed": 950087, "serialpos": 8, "key_press": -1, "wordID": 856, "type": "PRES_VIS", "trial_index": 221}, "uniqueid": "MTK3094:3PDJHANYK6NA5FDN9VM6BOTD8VJ6HF", "dateTime": 1520013326547}, {"current_trial": 222, "trialdata": {"rt": -1, "trial_type": "single-stim", "word": "perfume", "stimulus": "<p id=\"stim\">PERFUME</p>", "conditions": [12, 1600, "v", 24000], "internal_node_id": "0.0-159.0", "trial": 6, "time_elapsed": 952545, "serialpos": 9, "key_press": -1, "wordID": 1048, "type": "PRES_VIS", "trial_index": 222}, "uniqueid": "MTK3094:3PDJHANYK6NA5FDN9VM6BOTD8VJ6HF", "dateTime": 1520013329005}, {"current_trial": 223, "trialdata": {"rt": -1, "trial_type": "single-stim", "word": "sponge", "stimulus": "<p id=\"stim\">SPONGE</p>", "conditions": [12, 1600, "v", 24000], "internal_node_id": "0.0-160.0", "trial": 6, "time_elapsed": 955319, "serialpos": 10, "key_press": -1, "wordID": 1354, "type": "PRES_VIS", "trial_index": 223}, "uniqueid": "MTK3094:3PDJHANYK6NA5FDN9VM6BOTD8VJ6HF", "dateTime": 1520013331780}, {"current_trial": 224, "trialdata": {"rt": -1, "trial_type": "single-stim", "word": "barrel", "stimulus": "<p id=\"stim\">BARREL</p>", "conditions": [12, 1600, "v", 24000], "internal_node_id": "0.0-161.0", "trial": 6, "time_elapsed": 957959, "serialpos": 11, "key_press": -1, "wordID": 90, "type": "PRES_VIS", "trial_index": 224}, "uniqueid": "MTK3094:3PDJHANYK6NA5FDN9VM6BOTD8VJ6HF", "dateTime": 1520013334419}, {"current_trial": 225, "trialdata": {"rt": -1, "trial_type": "single-stim", "stimulus": "", "internal_node_id": "0.0-162.0-0.0", "time_elapsed": 960404, "key_press": -1, "type": "PRE_RECALL_DELAY", "trial_index": 225}, "uniqueid": "MTK3094:3PDJHANYK6NA5FDN9VM6BOTD8VJ6HF", "dateTime": 1520013336864}, {"current_trial": 226, "trialdata": {"rt": -1000, "trial_type": "single-audio", "stimulus": "/static/audio/400Hz.wav", "internal_node_id": "0.0-163.0", "time_elapsed": 960905, "key_press": -1, "type": "PRE_RECALL_ALERT", "trial_index": 226}, "uniqueid": "MTK3094:3PDJHANYK6NA5FDN9VM6BOTD8VJ6HF", "dateTime": 1520013337366}, {"current_trial": 227, "trialdata": {"rt": [2248, 3779, 5534, 6888, 8444, 10418, 12123, 13866, 17585, 24961, 33999], "recwords": ["barrell", "sponge", "survey", "blouse", "skirt", "fragrance", "palace", "perfume", "salad", "milk", "supper"], "key_times": [348, 732, 907, 1165, 1547, 1671, 1774, 1888, 2040, 2248, 2522, 2675, 2848, 3146, 3486, 3605, 3779, 4122, 4498, 4774, 4968, 5142, 5267, 5534, 6020, 6156, 6352, 6488, 6608, 6695, 6888, 7231, 7377, 7764, 7901, 8059, 8444, 8935, 9132, 9252, 9485, 9686, 9795, 9927, 10048, 10190, 10418, 10864, 11153, 11433, 11580, 11813, 12014, 12123, 12440, 12614, 12675, 12870, 12945, 13234, 13327, 13866, 16833, 17053, 17151, 17285, 17423, 17585, 24160, 24351, 24585, 24722, 24961, 32823, 33057, 33238, 33352, 33761, 33837, 33999], "trial_type": "free-recall", "conditions": [12, 1600, "v", 24000], "internal_node_id": "0.0-164.0-0.0", "key_presses": [66, 65, 82, 69, 8, 82, 69, 76, 76, 13, 83, 80, 79, 78, 71, 69, 13, 83, 85, 82, 86, 69, 89, 13, 66, 76, 79, 85, 83, 69, 13, 83, 75, 73, 82, 84, 13, 70, 82, 65, 71, 82, 65, 78, 67, 69, 13, 80, 65, 76, 65, 67, 69, 13, 80, 69, 82, 70, 85, 77, 69, 13, 83, 65, 76, 65, 68, 13, 77, 73, 76, 75, 13, 83, 85, 80, 80, 69, 82, 13], "trial": 6, "time_elapsed": 1020909, "type": "FREE_RECALL", "trial_index": 227}, "uniqueid": "MTK3094:3PDJHANYK6NA5FDN9VM6BOTD8VJ6HF", "dateTime": 1520013397375}, {"current_trial": 228, "trialdata": {"rt": 1168, "trial_type": "text", "internal_node_id": "0.0-165.0", "time_elapsed": 1024084, "key_press": 74, "type": "INSTRUCTIONS", "trial_index": 228}, "uniqueid": "MTK3094:3PDJHANYK6NA5FDN9VM6BOTD8VJ6HF", "dateTime": 1520013400544}, {"current_trial": 229, "trialdata": {"rt": [2775, 4546, 6136, 7582, 9657], "trial_type": "math-distractor", "key_times": [2233, 2500, 2775, 4133, 4322, 4546, 5850, 6136, 7244, 7407, 7582, 9315, 9458, 9657], "responses": ["18", "21", "7", "11", "13"], "num2": [4, 5, 5, 2, 7, 5], "num3": [6, 8, 1, 8, 4, 7], "conditions": [24, 1600, "v", 12000], "internal_node_id": "0.0-166.0", "key_presses": [97, 104, 13, 98, 97, 13, 103, 13, 97, 97, 13, 97, 99, 13], "trial": 7, "time_elapsed": 1038088, "type": "DISTRACTOR", "trial_index": 229, "num1": [8, 8, 1, 1, 2, 8]}, "uniqueid": "MTK3094:3PDJHANYK6NA5FDN9VM6BOTD8VJ6HF", "dateTime": 1520013414548}, {"current_trial": 230, "trialdata": {"rt": -1, "trial_type": "single-stim", "stimulus": "<p id=\"stim\">10</p>", "internal_node_id": "0.0-167.0-0.0", "time_elapsed": 1041090, "key_press": -1, "trial_index": 230}, "uniqueid": "MTK3094:3PDJHANYK6NA5FDN9VM6BOTD8VJ6HF", "dateTime": 1520013417550}, {"current_trial": 231, "trialdata": {"rt": -1, "trial_type": "single-stim", "stimulus": "<p id=\"stim\">9</p>", "internal_node_id": "0.0-167.0-1.0", "time_elapsed": 1042092, "key_press": -1, "trial_index": 231}, "uniqueid": "MTK3094:3PDJHANYK6NA5FDN9VM6BOTD8VJ6HF", "dateTime": 1520013418552}, {"current_trial": 232, "trialdata": {"rt": -1, "trial_type": "single-stim", "stimulus": "<p id=\"stim\">8</p>", "internal_node_id": "0.0-167.0-2.0", "time_elapsed": 1043093, "key_press": -1, "trial_index": 232}, "uniqueid": "MTK3094:3PDJHANYK6NA5FDN9VM6BOTD8VJ6HF", "dateTime": 1520013419554}, {"current_trial": 233, "trialdata": {"rt": -1, "trial_type": "single-stim", "stimulus": "<p id=\"stim\">7</p>", "internal_node_id": "0.0-167.0-3.0", "time_elapsed": 1044095, "key_press": -1, "trial_index": 233}, "uniqueid": "MTK3094:3PDJHANYK6NA5FDN9VM6BOTD8VJ6HF", "dateTime": 1520013420556}, {"current_trial": 234, "trialdata": {"rt": -1, "trial_type": "single-stim", "stimulus": "<p id=\"stim\">6</p>", "internal_node_id": "0.0-167.0-4.0", "time_elapsed": 1045096, "key_press": -1, "trial_index": 234}, "uniqueid": "MTK3094:3PDJHANYK6NA5FDN9VM6BOTD8VJ6HF", "dateTime": 1520013421557}, {"current_trial": 235, "trialdata": {"rt": -1, "trial_type": "single-stim", "stimulus": "<p id=\"stim\">5</p>", "internal_node_id": "0.0-167.0-5.0", "time_elapsed": 1046098, "key_press": -1, "trial_index": 235}, "uniqueid": "MTK3094:3PDJHANYK6NA5FDN9VM6BOTD8VJ6HF", "dateTime": 1520013422559}, {"current_trial": 236, "trialdata": {"rt": -1, "trial_type": "single-stim", "stimulus": "<p id=\"stim\">4</p>", "internal_node_id": "0.0-167.0-6.0", "time_elapsed": 1047100, "key_press": -1, "trial_index": 236}, "uniqueid": "MTK3094:3PDJHANYK6NA5FDN9VM6BOTD8VJ6HF", "dateTime": 1520013423560}, {"current_trial": 237, "trialdata": {"rt": -1, "trial_type": "single-stim", "stimulus": "<p id=\"stim\">3</p>", "internal_node_id": "0.0-167.0-7.0", "time_elapsed": 1048101, "key_press": -1, "trial_index": 237}, "uniqueid": "MTK3094:3PDJHANYK6NA5FDN9VM6BOTD8VJ6HF", "dateTime": 1520013424562}, {"current_trial": 238, "trialdata": {"rt": -1, "trial_type": "single-stim", "stimulus": "<p id=\"stim\">2</p>", "internal_node_id": "0.0-167.0-8.0", "time_elapsed": 1049103, "key_press": -1, "trial_index": 238}, "uniqueid": "MTK3094:3PDJHANYK6NA5FDN9VM6BOTD8VJ6HF", "dateTime": 1520013425563}, {"current_trial": 239, "trialdata": {"rt": -1, "trial_type": "single-stim", "stimulus": "<p id=\"stim\">1</p>", "internal_node_id": "0.0-167.0-9.0", "time_elapsed": 1050105, "key_press": -1, "trial_index": 239}, "uniqueid": "MTK3094:3PDJHANYK6NA5FDN9VM6BOTD8VJ6HF", "dateTime": 1520013426565}, {"current_trial": 240, "trialdata": {"rt": -1, "trial_type": "single-stim", "stimulus": "<p id=\"stim\">+</p>", "internal_node_id": "0.0-168.0-0.0", "time_elapsed": 1051607, "key_press": -1, "type": "FIXATION", "trial_index": 240}, "uniqueid": "MTK3094:3PDJHANYK6NA5FDN9VM6BOTD8VJ6HF", "dateTime": 1520013428067}, {"current_trial": 241, "trialdata": {"rt": -1, "trial_type": "single-stim", "word": "chemist", "stimulus": "<p id=\"stim\">CHEMIST</p>", "conditions": [24, 1600, "v", 12000], "internal_node_id": "0.0-169.0", "trial": 7, "time_elapsed": 1053208, "serialpos": 0, "key_press": -1, "wordID": 291, "type": "PRES_VIS", "trial_index": 241}, "uniqueid": "MTK3094:3PDJHANYK6NA5FDN9VM6BOTD8VJ6HF", "dateTime": 1520013429668}, {"current_trial": 242, "trialdata": {"rt": -1, "trial_type": "single-stim", "word": "lace", "stimulus": "<p id=\"stim\">LACE</p>", "conditions": [24, 1600, "v", 12000], "internal_node_id": "0.0-170.0", "trial": 7, "time_elapsed": 1055848, "serialpos": 1, "key_press": -1, "wordID": 791, "type": "PRES_VIS", "trial_index": 242}, "uniqueid": "MTK3094:3PDJHANYK6NA5FDN9VM6BOTD8VJ6HF", "dateTime": 1520013432308}, {"current_trial": 243, "trialdata": {"rt": -1, "trial_type": "single-stim", "word": "scribble", "stimulus": "<p id=\"stim\">SCRIBBLE</p>", "conditions": [24, 1600, "v", 12000], "internal_node_id": "0.0-171.0", "trial": 7, "time_elapsed": 1058384, "serialpos": 2, "key_press": -1, "wordID": 1255, "type": "PRES_VIS", "trial_index": 243}, "uniqueid": "MTK3094:3PDJHANYK6NA5FDN9VM6BOTD8VJ6HF", "dateTime": 1520013434844}, {"current_trial": 244, "trialdata": {"rt": -1, "trial_type": "single-stim", "word": "victim", "stimulus": "<p id=\"stim\">VICTIM</p>", "conditions": [24, 1600, "v", 12000], "internal_node_id": "0.0-172.0", "trial": 7, "time_elapsed": 1060807, "serialpos": 3, "key_press": -1, "wordID": 1561, "type": "PRES_VIS", "trial_index": 244}, "uniqueid": "MTK3094:3PDJHANYK6NA5FDN9VM6BOTD8VJ6HF", "dateTime": 1520013437268}, {"current_trial": 245, "trialdata": {"rt": -1, "trial_type": "single-stim", "word": "suspect", "stimulus": "<p id=\"stim\">SUSPECT</p>", "conditions": [24, 1600, "v", 12000], "internal_node_id": "0.0-173.0", "trial": 7, "time_elapsed": 1063341, "serialpos": 4, "key_press": -1, "wordID": 1414, "type": "PRES_VIS", "trial_index": 245}, "uniqueid": "MTK3094:3PDJHANYK6NA5FDN9VM6BOTD8VJ6HF", "dateTime": 1520013439801}, {"current_trial": 246, "trialdata": {"rt": -1, "trial_type": "single-stim", "word": "fungus", "stimulus": "<p id=\"stim\">FUNGUS</p>", "conditions": [24, 1600, "v", 12000], "internal_node_id": "0.0-174.0", "trial": 7, "time_elapsed": 1066121, "serialpos": 5, "key_press": -1, "wordID": 613, "type": "PRES_VIS", "trial_index": 246}, "uniqueid": "MTK3094:3PDJHANYK6NA5FDN9VM6BOTD8VJ6HF", "dateTime": 1520013442581}, {"current_trial": 247, "trialdata": {"rt": -1, "trial_type": "single-stim", "word": "tourist", "stimulus": "<p id=\"stim\">TOURIST</p>", "conditions": [24, 1600, "v", 12000], "internal_node_id": "0.0-175.0", "trial": 7, "time_elapsed": 1068661, "serialpos": 6, "key_press": -1, "wordID": 1487, "type": "PRES_VIS", "trial_index": 247}, "uniqueid": "MTK3094:3PDJHANYK6NA5FDN9VM6BOTD8VJ6HF", "dateTime": 1520013445121}, {"current_trial": 248, "trialdata": {"rt": -1, "trial_type": "single-stim", "word": "velvet", "stimulus": "<p id=\"stim\">VELVET</p>", "conditions": [24, 1600, "v", 12000], "internal_node_id": "0.0-176.0", "trial": 7, "time_elapsed": 1071269, "serialpos": 7, "key_press": -1, "wordID": 1554, "type": "PRES_VIS", "trial_index": 248}, "uniqueid": "MTK3094:3PDJHANYK6NA5FDN9VM6BOTD8VJ6HF", "dateTime": 1520013447729}, {"current_trial": 249, "trialdata": {"rt": -1, "trial_type": "single-stim", "word": "agent", "stimulus": "<p id=\"stim\">AGENT</p>", "conditions": [24, 1600, "v", 12000], "internal_node_id": "0.0-177.0", "trial": 7, "time_elapsed": 1073899, "serialpos": 8, "key_press": -1, "wordID": 9, "type": "PRES_VIS", "trial_index": 249}, "uniqueid": "MTK3094:3PDJHANYK6NA5FDN9VM6BOTD8VJ6HF", "dateTime": 1520013450359}, {"current_trial": 250, "trialdata": {"rt": -1, "trial_type": "single-stim", "word": "ointment", "stimulus": "<p id=\"stim\">OINTMENT</p>", "conditions": [24, 1600, "v", 12000], "internal_node_id": "0.0-178.0", "trial": 7, "time_elapsed": 1076386, "serialpos": 9, "key_press": -1, "wordID": 973, "type": "PRES_VIS", "trial_index": 250}, "uniqueid": "MTK3094:3PDJHANYK6NA5FDN9VM6BOTD8VJ6HF", "dateTime": 1520013452847}, {"current_trial": 251, "trialdata": {"rt": -1, "trial_type": "single-stim", "word": "nightgown", "stimulus": "<p id=\"stim\">NIGHTGOWN</p>", "conditions": [24, 1600, "v", 12000], "internal_node_id": "0.0-179.0", "trial": 7, "time_elapsed": 1078820, "serialpos": 10, "key_press": -1, "wordID": 952, "type": "PRES_VIS", "trial_index": 251}, "uniqueid": "MTK3094:3PDJHANYK6NA5FDN9VM6BOTD8VJ6HF", "dateTime": 1520013455280}, {"current_trial": 252, "trialdata": {"rt": -1, "trial_type": "single-stim", "word": "viking", "stimulus": "<p id=\"stim\">VIKING</p>", "conditions": [24, 1600, "v", 12000], "internal_node_id": "0.0-180.0", "trial": 7, "time_elapsed": 1081377, "serialpos": 11, "key_press": -1, "wordID": 1564, "type": "PRES_VIS", "trial_index": 252}, "uniqueid": "MTK3094:3PDJHANYK6NA5FDN9VM6BOTD8VJ6HF", "dateTime": 1520013457837}, {"current_trial": 253, "trialdata": {"rt": -1, "t