{"assignmentId": "3L70J4KAZHTUG1KODCKS08G1DDJADM", "workerId": "MTK3507", "questiondata": {"origin": "United States", "strat-rehearsal": "0", "marital": "Single", "education": "Some college", "ethnicity": "Hispanic", "color_depth": 24, "distracted": "No", "wrote-notes": "Yes", "strat-other": "I tried to repeat words out loud as i saw them ", "screen_width": 1093, "avail_screen_width": 1093, "avail_screen_height": 615, "strat-image": "47", "language": "English", "gender": "Female", "age": "21", "gender_other": "", "race": ["White"], "strat-categorize": "82", "pixel_depth": 24, "strat-spatial": "78", "strat-story": "1", "race_other": "", "screen_height": 615}, "bonus": 0, "hitId": "3ATYLI1PRT9UY7GN7P6JFHZZM6TOJA", "counterbalance": 2517, "useragent": "Mozilla/5.0 (Windows NT 6.3; Win64; x64) AppleWebKit/537.36 (KHTML, like Gecko) Chrome/64.0.3282.119 Safari/537.36 OPR/51.0.2830.26", "eventdata": [{"eventtype": "initialized", "interval": 0, "value": null, "timestamp": 1520623531148}, {"eventtype": "window_resize", "interval": 1, "value": [1084, 526], "timestamp": 1520623531149}, {"eventtype": "focus", "interval": 6128, "value": "on", "timestamp": 1520623537277}, {"eventtype": "focus", "interval": 18525, "value": "off", "timestamp": 1520623555802}, {"eventtype": "focus", "interval": 6400, "value": "on", "timestamp": 1520623562202}, {"eventtype": "focus", "interval": 21658, "value": "off", "timestamp": 1520623583860}, {"eventtype": "focus", "interval": 1704, "value": "on", "timestamp": 1520623585564}, {"eventtype": "focus", "interval": 8113, "value": "off", "timestamp": 1520623593677}, {"eventtype": "focus", "interval": 9086, "value": "on", "timestamp": 1520623602763}, {"eventtype": "window_resize", "interval": 622826, "value": [1094, 543], "timestamp": 1520624225589}, {"eventtype": "window_resize", "interval": 1921, "value": [1084, 526], "timestamp": 1520624227510}, {"eventtype": "focus", "interval": 2457, "value": "off", "timestamp": 1520624229967}, {"eventtype": "focus", "interval": 10250, "value": "on", "timestamp": 1520624240217}, {"eventtype": "focus", "interval": 421436, "value": "off", "timestamp": 1520624661653}, {"eventtype": "focus", "interval": 21733, "value": "on", "timestamp": 1520624683386}, {"eventtype": "focus", "interval": 2143261, "value": "off", "timestamp": 1520626826647}, {"eventtype": "focus", "interval": 8959, "value": "on", "timestamp": 1520626835606}, {"eventtype": "window_resize", "interval": 201307, "value": [1082, 526], "timestamp": 1520627036913}], "data": [{"current_trial": 0, "trialdata": {"rt": 7923, "trial_type": "text", "internal_node_id": "0.0-0.0", "time_elapsed": 7936, "key_press": 32, "type": "INSTRUCTIONS", "trial_index": 0}, "uniqueid": "MTK3507:3L70J4KAZHTUG1KODCKS08G1DDJADM", "dateTime": 1520623539626}, {"current_trial": 1, "trialdata": {"rt": 23420, "trial_type": "text", "internal_node_id": "0.0-1.0", "time_elapsed": 31372, "key_press": 32, "type": "INSTRUCTIONS", "trial_index": 1}, "uniqueid": "MTK3507:3L70J4KAZHTUG1KODCKS08G1DDJADM", "dateTime": 1520623563055}, {"current_trial": 2, "trialdata": {"rt": [45747], "trial_type": "audio-test", "responses": ["ocean"], "internal_node_id": "0.0-2.0", "time_elapsed": 77250, "type": "AUDIO_TEST", "trial_index": 2}, "uniqueid": "MTK3507:3L70J4KAZHTUG1KODCKS08G1DDJADM", "dateTime": 1520623608931}, {"current_trial": 3, "trialdata": {"rt": [5736], "trial_type": "audio-test", "responses": ["crystal"], "internal_node_id": "0.0-3.0", "time_elapsed": 83034, "type": "AUDIO_TEST", "trial_index": 3}, "uniqueid": "MTK3507:3L70J4KAZHTUG1KODCKS08G1DDJADM", "dateTime": 1520623614715}, {"current_trial": 4, "trialdata": {"rt": [4412], "trial_type": "audio-test", "responses": ["spice"], "internal_node_id": "0.0-4.0", "time_elapsed": 87489, "type": "AUDIO_TEST", "trial_index": 4}, "uniqueid": "MTK3507:3L70J4KAZHTUG1KODCKS08G1DDJADM", "dateTime": 1520623619171}, {"current_trial": 5, "trialdata": {"rt": 20090, "trial_type": "survey-text", "responses": "{\"Q0\":\"12:30 am\",\"Q1\":\"9:45 am\",\"Q2\":\"5\"}", "internal_node_id": "0.0-5.0", "time_elapsed": 108357, "type": "SLEEP_SURVEY", "trial_index": 5}, "uniqueid": "MTK3507:3L70J4KAZHTUG1KODCKS08G1DDJADM", "dateTime": 1520623640038}, {"current_trial": 6, "trialdata": {"rt": 42331, "trial_type": "text", "internal_node_id": "0.0-6.0", "time_elapsed": 151695, "key_press": 32, "type": "INSTRUCTIONS", "trial_index": 6}, "uniqueid": "MTK3507:3L70J4KAZHTUG1KODCKS08G1DDJADM", "dateTime": 1520623683377}, {"current_trial": 7, "trialdata": {"rt": 25181, "trial_type": "text", "internal_node_id": "0.0-7.0", "time_elapsed": 177383, "key_press": 13, "type": "INSTRUCTIONS", "trial_index": 7}, "uniqueid": "MTK3507:3L70J4KAZHTUG1KODCKS08G1DDJADM", "dateTime": 1520623709064}, {"current_trial": 8, "trialdata": {"rt": 12528, "trial_type": "text", "internal_node_id": "0.0-8.0", "time_elapsed": 190418, "key_press": 13, "type": "INSTRUCTIONS", "trial_index": 8}, "uniqueid": "MTK3507:3L70J4KAZHTUG1KODCKS08G1DDJADM", "dateTime": 1520623722099}, {"current_trial": 9, "trialdata": {"rt": [7577, 10111, 13485, 15636], "trial_type": "math-distractor", "key_times": [7113, 7160, 7577, 9879, 10015, 10111, 12961, 13260, 13485, 15271, 15371, 15636], "responses": ["18", "12", "16", "19"], "num2": [8, 2, 7, 8, 4], "num3": [5, 9, 4, 3, 5], "conditions": [18, 1200, "v", 18000], "internal_node_id": "0.0-9.0", "key_presses": [49, 56, 13, 49, 50, 13, 49, 54, 13, 49, 57, 13], "trial": 0, "time_elapsed": 209461, "type": "DISTRACTOR", "trial_index": 9, "num1": [5, 1, 5, 8, 4]}, "uniqueid": "MTK3507:3L70J4KAZHTUG1KODCKS08G1DDJADM", "dateTime": 1520623741143}, {"current_trial": 10, "trialdata": {"rt": -1, "trial_type": "single-stim", "stimulus": "<p id=\"stim\">10</p>", "internal_node_id": "0.0-10.0-0.0", "time_elapsed": 212480, "key_press": -1, "trial_index": 10}, "uniqueid": "MTK3507:3L70J4KAZHTUG1KODCKS08G1DDJADM", "dateTime": 1520623744162}, {"current_trial": 11, "trialdata": {"rt": -1, "trial_type": "single-stim", "stimulus": "<p id=\"stim\">9</p>", "internal_node_id": "0.0-10.0-1.0", "time_elapsed": 213489, "key_press": -1, "trial_index": 11}, "uniqueid": "MTK3507:3L70J4KAZHTUG1KODCKS08G1DDJADM", "dateTime": 1520623745171}, {"current_trial": 12, "trialdata": {"rt": -1, "trial_type": "single-stim", "stimulus": "<p id=\"stim\">8</p>", "internal_node_id": "0.0-10.0-2.0", "time_elapsed": 214492, "key_press": -1, "trial_index": 12}, "uniqueid": "MTK3507:3L70J4KAZHTUG1KODCKS08G1DDJADM", "dateTime": 1520623746173}, {"current_trial": 13, "trialdata": {"rt": -1, "trial_type": "single-stim", "stimulus": "<p id=\"stim\">7</p>", "internal_node_id": "0.0-10.0-3.0", "time_elapsed": 215499, "key_press": -1, "trial_index": 13}, "uniqueid": "MTK3507:3L70J4KAZHTUG1KODCKS08G1DDJADM", "dateTime": 1520623747181}, {"current_trial": 14, "trialdata": {"rt": -1, "trial_type": "single-stim", "stimulus": "<p id=\"stim\">6</p>", "internal_node_id": "0.0-10.0-4.0", "time_elapsed": 216507, "key_press": -1, "trial_index": 14}, "uniqueid": "MTK3507:3L70J4KAZHTUG1KODCKS08G1DDJADM", "dateTime": 1520623748188}, {"current_trial": 15, "trialdata": {"rt": -1, "trial_type": "single-stim", "stimulus": "<p id=\"stim\">5</p>", "internal_node_id": "0.0-10.0-5.0", "time_elapsed": 217511, "key_press": -1, "trial_index": 15}, "uniqueid": "MTK3507:3L70J4KAZHTUG1KODCKS08G1DDJADM", "dateTime": 1520623749192}, {"current_trial": 16, "trialdata": {"rt": -1, "trial_type": "single-stim", "stimulus": "<p id=\"stim\">4</p>", "internal_node_id": "0.0-10.0-6.0", "time_elapsed": 218517, "key_press": -1, "trial_index": 16}, "uniqueid": "MTK3507:3L70J4KAZHTUG1KODCKS08G1DDJADM", "dateTime": 1520623750199}, {"current_trial": 17, "trialdata": {"rt": -1, "trial_type": "single-stim", "stimulus": "<p id=\"stim\">3</p>", "internal_node_id": "0.0-10.0-7.0", "time_elapsed": 219525, "key_press": -1, "trial_index": 17}, "uniqueid": "MTK3507:3L70J4KAZHTUG1KODCKS08G1DDJADM", "dateTime": 1520623751206}, {"current_trial": 18, "trialdata": {"rt": -1, "trial_type": "single-stim", "stimulus": "<p id=\"stim\">2</p>", "internal_node_id": "0.0-10.0-8.0", "time_elapsed": 220530, "key_press": -1, "trial_index": 18}, "uniqueid": "MTK3507:3L70J4KAZHTUG1KODCKS08G1DDJADM", "dateTime": 1520623752212}, {"current_trial": 19, "trialdata": {"rt": -1, "trial_type": "single-stim", "stimulus": "<p id=\"stim\">1</p>", "internal_node_id": "0.0-10.0-9.0", "time_elapsed": 221536, "key_press": -1, "trial_index": 19}, "uniqueid": "MTK3507:3L70J4KAZHTUG1KODCKS08G1DDJADM", "dateTime": 1520623753218}, {"current_trial": 20, "trialdata": {"rt": -1, "trial_type": "single-stim", "stimulus": "<p id=\"stim\">+</p>", "internal_node_id": "0.0-11.0-0.0", "time_elapsed": 223046, "key_press": -1, "type": "FIXATION", "trial_index": 20}, "uniqueid": "MTK3507:3L70J4KAZHTUG1KODCKS08G1DDJADM", "dateTime": 1520623754728}, {"current_trial": 21, "trialdata": {"rt": -1, "trial_type": "single-stim", "word": "lover", "stimulus": "<p id=\"stim\">LOVER</p>", "conditions": [18, 1200, "v", 18000], "internal_node_id": "0.0-12.0", "trial": 0, "time_elapsed": 224254, "serialpos": 0, "key_press": -1, "wordID": 845, "type": "PRES_VIS", "trial_index": 21}, "uniqueid": "MTK3507:3L70J4KAZHTUG1KODCKS08G1DDJADM", "dateTime": 1520623755935}, {"current_trial": 22, "trialdata": {"rt": -1, "trial_type": "single-stim", "word": "yacht", "stimulus": "<p id=\"stim\">YACHT</p>", "conditions": [18, 1200, "v", 18000], "internal_node_id": "0.0-13.0", "trial": 0, "time_elapsed": 226440, "serialpos": 1, "key_press": -1, "wordID": 1628, "type": "PRES_VIS", "trial_index": 22}, "uniqueid": "MTK3507:3L70J4KAZHTUG1KODCKS08G1DDJADM", "dateTime": 1520623758121}, {"current_trial": 23, "trialdata": {"rt": -1, "trial_type": "single-stim", "word": "rooster", "stimulus": "<p id=\"stim\">ROOSTER</p>", "conditions": [18, 1200, "v", 18000], "internal_node_id": "0.0-14.0", "trial": 0, "time_elapsed": 228739, "serialpos": 2, "key_press": -1, "wordID": 1208, "type": "PRES_VIS", "trial_index": 23}, "uniqueid": "MTK3507:3L70J4KAZHTUG1KODCKS08G1DDJADM", "dateTime": 1520623760420}, {"current_trial": 24, "trialdata": {"rt": -1, "trial_type": "single-stim", "word": "clam", "stimulus": "<p id=\"stim\">CLAM</p>", "conditions": [18, 1200, "v", 18000], "internal_node_id": "0.0-15.0", "trial": 0, "time_elapsed": 230933, "serialpos": 3, "key_press": -1, "wordID": 314, "type": "PRES_VIS", "trial_index": 24}, "uniqueid": "MTK3507:3L70J4KAZHTUG1KODCKS08G1DDJADM", "dateTime": 1520623762614}, {"current_trial": 25, "trialdata": {"rt": -1, "trial_type": "single-stim", "word": "money", "stimulus": "<p id=\"stim\">MONEY</p>", "conditions": [18, 1200, "v", 18000], "internal_node_id": "0.0-16.0", "trial": 0, "time_elapsed": 233186, "serialpos": 4, "key_press": -1, "wordID": 907, "type": "PRES_VIS", "trial_index": 25}, "uniqueid": "MTK3507:3L70J4KAZHTUG1KODCKS08G1DDJADM", "dateTime": 1520623764867}, {"current_trial": 26, "trialdata": {"rt": -1, "trial_type": "single-stim", "word": "citrus", "stimulus": "<p id=\"stim\">CITRUS</p>", "conditions": [18, 1200, "v", 18000], "internal_node_id": "0.0-17.0", "trial": 0, "time_elapsed": 235374, "serialpos": 5, "key_press": -1, "wordID": 312, "type": "PRES_VIS", "trial_index": 26}, "uniqueid": "MTK3507:3L70J4KAZHTUG1KODCKS08G1DDJADM", "dateTime": 1520623767055}, {"current_trial": 27, "trialdata": {"rt": -1, "trial_type": "single-stim", "word": "female", "stimulus": "<p id=\"stim\">FEMALE</p>", "conditions": [18, 1200, "v", 18000], "internal_node_id": "0.0-18.0", "trial": 0, "time_elapsed": 237766, "serialpos": 6, "key_press": -1, "wordID": 558, "type": "PRES_VIS", "trial_index": 27}, "uniqueid": "MTK3507:3L70J4KAZHTUG1KODCKS08G1DDJADM", "dateTime": 1520623769448}, {"current_trial": 28, "trialdata": {"rt": -1, "trial_type": "single-stim", "word": "pork", "stimulus": "<p id=\"stim\">PORK</p>", "conditions": [18, 1200, "v", 18000], "internal_node_id": "0.0-19.0", "trial": 0, "time_elapsed": 239885, "serialpos": 7, "key_press": -1, "wordID": 1107, "type": "PRES_VIS", "trial_index": 28}, "uniqueid": "MTK3507:3L70J4KAZHTUG1KODCKS08G1DDJADM", "dateTime": 1520623771566}, {"current_trial": 29, "trialdata": {"rt": -1, "trial_type": "single-stim", "word": "cattle", "stimulus": "<p id=\"stim\">CATTLE</p>", "conditions": [18, 1200, "v", 18000], "internal_node_id": "0.0-20.0", "trial": 0, "time_elapsed": 242113, "serialpos": 8, "key_press": -1, "wordID": 260, "type": "PRES_VIS", "trial_index": 29}, "uniqueid": "MTK3507:3L70J4KAZHTUG1KODCKS08G1DDJADM", "dateTime": 1520623773794}, {"current_trial": 30, "trialdata": {"rt": -1, "trial_type": "single-stim", "word": "hornet", "stimulus": "<p id=\"stim\">HORNET</p>", "conditions": [18, 1200, "v", 18000], "internal_node_id": "0.0-21.0", "trial": 0, "time_elapsed": 244479, "serialpos": 9, "key_press": -1, "wordID": 717, "type": "PRES_VIS", "trial_index": 30}, "uniqueid": "MTK3507:3L70J4KAZHTUG1KODCKS08G1DDJADM", "dateTime": 1520623776160}, {"current_trial": 31, "trialdata": {"rt": -1, "trial_type": "single-stim", "word": "japan", "stimulus": "<p id=\"stim\">JAPAN</p>", "conditions": [18, 1200, "v", 18000], "internal_node_id": "0.0-22.0", "trial": 0, "time_elapsed": 246800, "serialpos": 10, "key_press": -1, "wordID": 748, "type": "PRES_VIS", "trial_index": 31}, "uniqueid": "MTK3507:3L70J4KAZHTUG1KODCKS08G1DDJADM", "dateTime": 1520623778481}, {"current_trial": 32, "trialdata": {"rt": -1, "trial_type": "single-stim", "word": "crater", "stimulus": "<p id=\"stim\">CRATER</p>", "conditions": [18, 1200, "v", 18000], "internal_node_id": "0.0-23.0", "trial": 0, "time_elapsed": 248862, "serialpos": 11, "key_press": -1, "wordID": 399, "type": "PRES_VIS", "trial_index": 32}, "uniqueid": "MTK3507:3L70J4KAZHTUG1KODCKS08G1DDJADM", "dateTime": 1520623780543}, {"current_trial": 33, "trialdata": {"rt": -1, "trial_type": "single-stim", "word": "briefcase", "stimulus": "<p id=\"stim\">BRIEFCASE</p>", "conditions": [18, 1200, "v", 18000], "internal_node_id": "0.0-24.0", "trial": 0, "time_elapsed": 251147, "serialpos": 12, "key_press": -1, "wordID": 174, "type": "PRES_VIS", "trial_index": 33}, "uniqueid": "MTK3507:3L70J4KAZHTUG1KODCKS08G1DDJADM", "dateTime": 1520623782828}, {"current_trial": 34, "trialdata": {"rt": -1, "trial_type": "single-stim", "word": "harp", "stimulus": "<p id=\"stim\">HARP</p>", "conditions": [18, 1200, "v", 18000], "internal_node_id": "0.0-25.0", "trial": 0, "time_elapsed": 253513, "serialpos": 13, "key_press": -1, "wordID": 688, "type": "PRES_VIS", "trial_index": 34}, "uniqueid": "MTK3507:3L70J4KAZHTUG1KODCKS08G1DDJADM", "dateTime": 1520623785194}, {"current_trial": 35, "trialdata": {"rt": -1, "trial_type": "single-stim", "word": "police", "stimulus": "<p id=\"stim\">POLICE</p>", "conditions": [18, 1200, "v", 18000], "internal_node_id": "0.0-26.0", "trial": 0, "time_elapsed": 255608, "serialpos": 14, "key_press": -1, "wordID": 1097, "type": "PRES_VIS", "trial_index": 35}, "uniqueid": "MTK3507:3L70J4KAZHTUG1KODCKS08G1DDJADM", "dateTime": 1520623787289}, {"current_trial": 36, "trialdata": {"rt": -1, "trial_type": "single-stim", "word": "shorts", "stimulus": "<p id=\"stim\">SHORTS</p>", "conditions": [18, 1200, "v", 18000], "internal_node_id": "0.0-27.0", "trial": 0, "time_elapsed": 257641, "serialpos": 15, "key_press": -1, "wordID": 1292, "type": "PRES_VIS", "trial_index": 36}, "uniqueid": "MTK3507:3L70J4KAZHTUG1KODCKS08G1DDJADM", "dateTime": 1520623789322}, {"current_trial": 37, "trialdata": {"rt": -1, "trial_type": "single-stim", "word": "chauffeur", "stimulus": "<p id=\"stim\">CHAUFFEUR</p>", "conditions": [18, 1200, "v", 18000], "internal_node_id": "0.0-28.0", "trial": 0, "time_elapsed": 259800, "serialpos": 16, "key_press": -1, "wordID": 282, "type": "PRES_VIS", "trial_index": 37}, "uniqueid": "MTK3507:3L70J4KAZHTUG1KODCKS08G1DDJADM", "dateTime": 1520623791481}, {"current_trial": 38, "trialdata": {"rt": -1, "trial_type": "single-stim", "word": "church", "stimulus": "<p id=\"stim\">CHURCH</p>", "conditions": [18, 1200, "v", 18000], "internal_node_id": "0.0-29.0", "trial": 0, "time_elapsed": 261822, "serialpos": 17, "key_press": -1, "wordID": 306, "type": "PRES_VIS", "trial_index": 38}, "uniqueid": "MTK3507:3L70J4KAZHTUG1KODCKS08G1DDJADM", "dateTime": 1520623793504}, {"current_trial": 39, "trialdata": {"rt": -1, "trial_type": "single-stim", "stimulus": "", "internal_node_id": "0.0-30.0-0.0", "time_elapsed": 264086, "key_press": -1, "type": "PRE_RECALL_DELAY", "trial_index": 39}, "uniqueid": "MTK3507:3L70J4KAZHTUG1KODCKS08G1DDJADM", "dateTime": 1520623795767}, {"current_trial": 40, "trialdata": {"rt": -1000, "trial_type": "single-audio", "stimulus": "/static/audio/400Hz.wav", "internal_node_id": "0.0-31.0", "time_elapsed": 264599, "key_press": -1, "type": "PRE_RECALL_ALERT", "trial_index": 40}, "uniqueid": "MTK3507:3L70J4KAZHTUG1KODCKS08G1DDJADM", "dateTime": 1520623796281}, {"current_trial": 41, "trialdata": {"rt": [1854, 2742, 3931, 6161, 7682, 12336, 29750, 52956], "recwords": ["lover", "clam", "rooster", "church", "chauffer", "yachy", "short", "japan"], "key_times": [1289, 1443, 1509, 1674, 1780, 1854, 2188, 2278, 2420, 2510, 2742, 2988, 3099, 3224, 3287, 3512, 3679, 3764, 3931, 5424, 5517, 5677, 5751, 5917, 5932, 6161, 6549, 6653, 6840, 6960, 7176, 7277, 7464, 7557, 7682, 11324, 11400, 11824, 11944, 12177, 12336, 28944, 29008, 29208, 29266, 29362, 29750, 50796, 50932, 51060, 51185, 51447, 51576, 51755, 51876, 52019, 52148, 52392, 52482, 52610, 52742, 52956], "trial_type": "free-recall", "conditions": [18, 1200, "v", 18000], "internal_node_id": "0.0-32.0-0.0", "key_presses": [76, 79, 86, 69, 82, 13, 67, 76, 65, 77, 13, 82, 79, 79, 83, 84, 69, 82, 13, 67, 72, 85, 82, 67, 72, 13, 67, 72, 65, 85, 70, 70, 69, 82, 13, 89, 65, 67, 72, 89, 13, 83, 72, 79, 82, 84, 13, 74, 65, 79, 65, 8, 8, 8, 8, 16, 74, 65, 80, 65, 78, 13], "trial": 0, "time_elapsed": 324614, "type": "FREE_RECALL", "trial_index": 41}, "uniqueid": "MTK3507:3L70J4KAZHTUG1KODCKS08G1DDJADM", "dateTime": 1520623856306}, {"current_trial": 42, "trialdata": {"rt": 1904, "trial_type": "text", "internal_node_id": "0.0-33.0", "time_elapsed": 328539, "key_press": 13, "type": "INSTRUCTIONS", "trial_index": 42}, "uniqueid": "MTK3507:3L70J4KAZHTUG1KODCKS08G1DDJADM", "dateTime": 1520623860221}, {"current_trial": 43, "trialdata": {"rt": [4668, 7132, 11635, 13614, 15544, 17768], "trial_type": "math-distractor", "key_times": [3997, 4368, 4668, 6989, 7132, 10683, 11307, 11635, 13466, 13614, 15404, 15544, 17428, 17644, 17768], "responses": ["18", "6", "14", "6", "8", "13"], "num2": [7, 1, 8, 1, 2, 6, 6], "num3": [7, 2, 5, 4, 4, 1, 2], "conditions": [18, 1200, "v", 18000], "internal_node_id": "0.0-34.0", "key_presses": [49, 56, 13, 54, 13, 49, 52, 13, 54, 13, 56, 13, 49, 51, 13], "trial": 1, "time_elapsed": 348556, "type": "DISTRACTOR", "trial_index": 43, "num1": [4, 3, 1, 1, 2, 6, 9]}, "uniqueid": "MTK3507:3L70J4KAZHTUG1KODCKS08G1DDJADM", "dateTime": 1520623880237}, {"current_trial": 44, "trialdata": {"rt": -1, "trial_type": "single-stim", "stimulus": "<p id=\"stim\">10</p>", "internal_node_id": "0.0-35.0-0.0", "time_elapsed": 351569, "key_press": -1, "trial_index": 44}, "uniqueid": "MTK3507:3L70J4KAZHTUG1KODCKS08G1DDJADM", "dateTime": 1520623883251}, {"current_trial": 45, "trialdata": {"rt": -1, "trial_type": "single-stim", "stimulus": "<p id=\"stim\">9</p>", "internal_node_id": "0.0-35.0-1.0", "time_elapsed": 352574, "key_press": -1, "trial_index": 45}, "uniqueid": "MTK3507:3L70J4KAZHTUG1KODCKS08G1DDJADM", "dateTime": 1520623884256}, {"current_trial": 46, "trialdata": {"rt": -1, "trial_type": "single-stim", "stimulus": "<p id=\"stim\">8</p>", "internal_node_id": "0.0-35.0-2.0", "time_elapsed": 353582, "key_press": -1, "trial_index": 46}, "uniqueid": "MTK3507:3L70J4KAZHTUG1KODCKS08G1DDJADM", "dateTime": 1520623885263}, {"current_trial": 47, "trialdata": {"rt": -1, "trial_type": "single-stim", "stimulus": "<p id=\"stim\">7</p>", "internal_node_id": "0.0-35.0-3.0", "time_elapsed": 354588, "key_press": -1, "trial_index": 47}, "uniqueid": "MTK3507:3L70J4KAZHTUG1KODCKS08G1DDJADM", "dateTime": 1520623886269}, {"current_trial": 48, "trialdata": {"rt": -1, "trial_type": "single-stim", "stimulus": "<p id=\"stim\">6</p>", "internal_node_id": "0.0-35.0-4.0", "time_elapsed": 355592, "key_press": -1, "trial_index": 48}, "uniqueid": "MTK3507:3L70J4KAZHTUG1KODCKS08G1DDJADM", "dateTime": 1520623887274}, {"current_trial": 49, "trialdata": {"rt": -1, "trial_type": "single-stim", "stimulus": "<p id=\"stim\">5</p>", "internal_node_id": "0.0-35.0-5.0", "time_elapsed": 356600, "key_press": -1, "trial_index": 49}, "uniqueid": "MTK3507:3L70J4KAZHTUG1KODCKS08G1DDJADM", "dateTime": 1520623888282}, {"current_trial": 50, "trialdata": {"rt": -1, "trial_type": "single-stim", "stimulus": "<p id=\"stim\">4</p>", "internal_node_id": "0.0-35.0-6.0", "time_elapsed": 357606, "key_press": -1, "trial_index": 50}, "uniqueid": "MTK3507:3L70J4KAZHTUG1KODCKS08G1DDJADM", "dateTime": 1520623889288}, {"current_trial": 51, "trialdata": {"rt": -1, "trial_type": "single-stim", "stimulus": "<p id=\"stim\">3</p>", "internal_node_id": "0.0-35.0-7.0", "time_elapsed": 358613, "key_press": -1, "trial_index": 51}, "uniqueid": "MTK3507:3L70J4KAZHTUG1KODCKS08G1DDJADM", "dateTime": 1520623890294}, {"current_trial": 52, "trialdata": {"rt": -1, "trial_type": "single-stim", "stimulus": "<p id=\"stim\">2</p>", "internal_node_id": "0.0-35.0-8.0", "time_elapsed": 359622, "key_press": -1, "trial_index": 52}, "uniqueid": "MTK3507:3L70J4KAZHTUG1KODCKS08G1DDJADM", "dateTime": 1520623891303}, {"current_trial": 53, "trialdata": {"rt": -1, "trial_type": "single-stim", "stimulus": "<p id=\"stim\">1</p>", "internal_node_id": "0.0-35.0-9.0", "time_elapsed": 360627, "key_press": -1, "trial_index": 53}, "uniqueid": "MTK3507:3L70J4KAZHTUG1KODCKS08G1DDJADM", "dateTime": 1520623892309}, {"current_trial": 54, "trialdata": {"rt": -1, "trial_type": "single-stim", "stimulus": "<p id=\"stim\">+</p>", "internal_node_id": "0.0-36.0-0.0", "time_elapsed": 362134, "key_press": -1, "type": "FIXATION", "trial_index": 54}, "uniqueid": "MTK3507:3L70J4KAZHTUG1KODCKS08G1DDJADM", "dateTime": 1520623893816}, {"current_trial": 55, "trialdata": {"rt": -1, "trial_type": "single-stim", "word": "cashew", "stimulus": "<p id=\"stim\">CASHEW</p>", "conditions": [18, 1200, "v", 18000], "internal_node_id": "0.0-37.0", "trial": 1, "time_elapsed": 363341, "serialpos": 0, "key_press": -1, "wordID": 252, "type": "PRES_VIS", "trial_index": 55}, "uniqueid": "MTK3507:3L70J4KAZHTUG1KODCKS08G1DDJADM", "dateTime": 1520623895023}, {"current_trial": 56, "trialdata": {"rt": -1, "trial_type": "single-stim", "word": "canyon", "stimulus": "<p id=\"stim\">CANYON</p>", "conditions": [18, 1200, "v", 18000], "internal_node_id": "0.0-38.0", "trial": 1, "time_elapsed": 365676, "serialpos": 1, "key_press": -1, "wordID": 234, "type": "PRES_VIS", "trial_index": 56}, "uniqueid": "MTK3507:3L70J4KAZHTUG1KODCKS08G1DDJADM", "dateTime": 1520623897358}, {"current_trial": 57, "trialdata": {"rt": -1, "trial_type": "single-stim", "word": "gazelle", "stimulus": "<p id=\"stim\">GAZELLE</p>", "conditions": [18, 1200, "v", 18000], "internal_node_id": "0.0-39.0", "trial": 1, "time_elapsed": 367781, "serialpos": 2, "key_press": -1, "wordID": 627, "type": "PRES_VIS", "trial_index": 57}, "uniqueid": "MTK3507:3L70J4KAZHTUG1KODCKS08G1DDJADM", "dateTime": 1520623899463}, {"current_trial": 58, "trialdata": {"rt": -1, "trial_type": "single-stim", "word": "whistle", "stimulus": "<p id=\"stim\">WHISTLE</p>", "conditions": [18, 1200, "v", 18000], "internal_node_id": "0.0-40.0", "trial": 1, "time_elapsed": 369843, "serialpos": 3, "key_press": -1, "wordID": 1605, "type": "PRES_VIS", "trial_index": 58}, "uniqueid": "MTK3507:3L70J4KAZHTUG1KODCKS08G1DDJADM", "dateTime": 1520623901525}, {"current_trial": 59, "trialdata": {"rt": -1, "trial_type": "single-stim", "word": "beaker", "stimulus": "<p id=\"stim\">BEAKER</p>", "conditions": [18, 1200, "v", 18000], "internal_node_id": "0.0-41.0", "trial": 1, "time_elapsed": 372172, "serialpos": 4, "key_press": -1, "wordID": 103, "type": "PRES_VIS", "trial_index": 59}, "uniqueid": "MTK3507:3L70J4KAZHTUG1KODCKS08G1DDJADM", "dateTime": 1520623903853}, {"current_trial": 60, "trialdata": {"rt": -1, "trial_type": "single-stim", "word": "keeper", "stimulus": "<p id=\"stim\">KEEPER</p>", "conditions": [18, 1200, "v", 18000], "internal_node_id": "0.0-42.0", "trial": 1, "time_elapsed": 374201, "serialpos": 5, "key_press": -1, "wordID": 768, "type": "PRES_VIS", "trial_index": 60}, "uniqueid": "MTK3507:3L70J4KAZHTUG1KODCKS08G1DDJADM", "dateTime": 1520623905883}, {"current_trial": 61, "trialdata": {"rt": -1, "trial_type": "single-stim", "word": "passage", "stimulus": "<p id=\"stim\">PASSAGE</p>", "conditions": [18, 1200, "v", 18000], "internal_node_id": "0.0-43.0", "trial": 1, "time_elapsed": 376220, "serialpos": 6, "key_press": -1, "wordID": 1018, "type": "PRES_VIS", "trial_index": 61}, "uniqueid": "MTK3507:3L70J4KAZHTUG1KODCKS08G1DDJADM", "dateTime": 1520623907901}, {"current_trial": 62, "trialdata": {"rt": -1, "trial_type": "single-stim", "word": "turtle", "stimulus": "<p id=\"stim\">TURTLE</p>", "conditions": [18, 1200, "v", 18000], "internal_node_id": "0.0-44.0", "trial": 1, "time_elapsed": 378312, "serialpos": 7, "key_press": -1, "wordID": 1521, "type": "PRES_VIS", "trial_index": 62}, "uniqueid": "MTK3507:3L70J4KAZHTUG1KODCKS08G1DDJADM", "dateTime": 1520623909994}, {"current_trial": 63, "trialdata": {"rt": -1, "trial_type": "single-stim", "word": "tart", "stimulus": "<p id=\"stim\">TART</p>", "conditions": [18, 1200, "v", 18000], "internal_node_id": "0.0-45.0", "trial": 1, "time_elapsed": 380521, "serialpos": 8, "key_press": -1, "wordID": 1435, "type": "PRES_VIS", "trial_index": 63}, "uniqueid": "MTK3507:3L70J4KAZHTUG1KODCKS08G1DDJADM", "dateTime": 1520623912203}, {"current_trial": 64, "trialdata": {"rt": -1, "trial_type": "single-stim", "word": "world", "stimulus": "<p id=\"stim\">WORLD</p>", "conditions": [18, 1200, "v", 18000], "internal_node_id": "0.0-46.0", "trial": 1, "time_elapsed": 382902, "serialpos": 9, "key_press": -1, "wordID": 1621, "type": "PRES_VIS", "trial_index": 64}, "uniqueid": "MTK3507:3L70J4KAZHTUG1KODCKS08G1DDJADM", "dateTime": 1520623914584}, {"current_trial": 65, "trialdata": {"rt": -1, "trial_type": "single-stim", "word": "sticker", "stimulus": "<p id=\"stim\">STICKER</p>", "conditions": [18, 1200, "v", 18000], "internal_node_id": "0.0-47.0", "trial": 1, "time_elapsed": 385123, "serialpos": 10, "key_press": -1, "wordID": 1381, "type": "PRES_VIS", "trial_index": 65}, "uniqueid": "MTK3507:3L70J4KAZHTUG1KODCKS08G1DDJADM", "dateTime": 1520623916805}, {"current_trial": 66, "trialdata": {"rt": -1, "trial_type": "single-stim", "word": "poison", "stimulus": "<p id=\"stim\">POISON</p>", "conditions": [18, 1200, "v", 18000], "internal_node_id": "0.0-48.0", "trial": 1, "time_elapsed": 387467, "serialpos": 11, "key_press": -1, "wordID": 1095, "type": "PRES_VIS", "trial_index": 66}, "uniqueid": "MTK3507:3L70J4KAZHTUG1KODCKS08G1DDJADM", "dateTime": 1520623919148}, {"current_trial": 67, "trialdata": {"rt": -1, "trial_type": "single-stim", "word": "scarecrow", "stimulus": "<p id=\"stim\">SCARECROW</p>", "conditions": [18, 1200, "v", 18000], "internal_node_id": "0.0-49.0", "trial": 1, "time_elapsed": 389475, "serialpos": 12, "key_press": -1, "wordID": 1244, "type": "PRES_VIS", "trial_index": 67}, "uniqueid": "MTK3507:3L70J4KAZHTUG1KODCKS08G1DDJADM", "dateTime": 1520623921156}, {"current_trial": 68, "trialdata": {"rt": -1, "trial_type": "single-stim", "word": "beef", "stimulus": "<p id=\"stim\">BEEF</p>", "conditions": [18, 1200, "v", 18000], "internal_node_id": "0.0-50.0", "trial": 1, "time_elapsed": 391544, "serialpos": 13, "key_press": -1, "wordID": 112, "type": "PRES_VIS", "trial_index": 68}, "uniqueid": "MTK3507:3L70J4KAZHTUG1KODCKS08G1DDJADM", "dateTime": 1520623923241}, {"current_trial": 69, "trialdata": {"rt": -1, "trial_type": "single-stim", "word": "plaza", "stimulus": "<p id=\"stim\">PLAZA</p>", "conditions": [18, 1200, "v", 18000], "internal_node_id": "0.0-51.0", "trial": 1, "time_elapsed": 393688, "serialpos": 14, "key_press": -1, "wordID": 1087, "type": "PRES_VIS", "trial_index": 69}, "uniqueid": "MTK3507:3L70J4KAZHTUG1KODCKS08G1DDJADM", "dateTime": 1520623925370}, {"current_trial": 70, "trialdata": {"rt": -1, "trial_type": "single-stim", "word": "cupboard", "stimulus": "<p id=\"stim\">CUPBOARD</p>", "conditions": [18, 1200, "v", 18000], "internal_node_id": "0.0-52.0", "trial": 1, "time_elapsed": 396010, "serialpos": 15, "key_press": -1, "wordID": 424, "type": "PRES_VIS", "trial_index": 70}, "uniqueid": "MTK3507:3L70J4KAZHTUG1KODCKS08G1DDJADM", "dateTime": 1520623927692}, {"current_trial": 71, "trialdata": {"rt": -1, "trial_type": "single-stim", "word": "chipmunk", "stimulus": "<p id=\"stim\">CHIPMUNK</p>", "conditions": [18, 1200, "v", 18000], "internal_node_id": "0.0-53.0", "trial": 1, "time_elapsed": 398091, "serialpos": 16, "key_press": -1, "wordID": 303, "type": "PRES_VIS", "trial_index": 71}, "uniqueid": "MTK3507:3L70J4KAZHTUG1KODCKS08G1DDJADM", "dateTime": 1520623929778}, {"current_trial": 72, "trialdata": {"rt": -1, "trial_type": "single-stim", "word": "possum", "stimulus": "<p id=\"stim\">POSSUM</p>", "conditions": [18, 1200, "v", 18000], "internal_node_id": "0.0-54.0", "trial": 1, "time_elapsed": 400391, "serialpos": 17, "key_press": -1, "wordID": 1111, "type": "PRES_VIS", "trial_index": 72}, "uniqueid": "MTK3507:3L70J4KAZHTUG1KODCKS08G1DDJADM", "dateTime": 1520623932073}, {"current_trial": 73, "trialdata": {"rt": -1, "trial_type": "single-stim", "stimulus": "", "internal_node_id": "0.0-55.0-0.0", "time_elapsed": 402970, "key_press": -1, "type": "PRE_RECALL_DELAY", "trial_index": 73}, "uniqueid": "MTK3507:3L70J4KAZHTUG1KODCKS08G1DDJADM", "dateTime": 1520623934651}, {"current_trial": 74, "trialdata": {"rt": -1000, "trial_type": "single-audio", "stimulus": "/static/audio/400Hz.wav", "internal_node_id": "0.0-56.0", "time_elapsed": 403481, "key_press": -1, "type": "PRE_RECALL_ALERT", "trial_index": 74}, "uniqueid": "MTK3507:3L70J4KAZHTUG1KODCKS08G1DDJADM", "dateTime": 1520623935162}, {"current_trial": 75, "trialdata": {"rt": [2371, 4138, 6487, 12668, 19730], "recwords": ["plaza", "cupboard", "chipmunk", "beaker", "possum"], "key_times": [923, 993, 1174, 1248, 1569, 1940, 1998, 2214, 2371, 2681, 2814, 3011, 3467, 3685, 3750, 3883, 4037, 4138, 4310, 4483, 4715, 5087, 5355, 5569, 5775, 6235, 6487, 11924, 12044, 12143, 12278, 12439, 12561, 12668, 18785, 18973, 19083, 19209, 19316, 19473, 19730], "trial_type": "free-recall", "conditions": [18, 1200, "v", 18000], "internal_node_id": "0.0-57.0-0.0", "key_presses": [16, 80, 76, 65, 88, 8, 90, 65, 13, 67, 85, 80, 66, 79, 65, 82, 68, 13, 67, 72, 73, 80, 77, 85, 78, 75, 13, 66, 69, 65, 75, 69, 82, 13, 80, 79, 83, 83, 85, 77, 13], "trial": 1, "time_elapsed": 463495, "type": "FREE_RECALL", "trial_index": 75}, "uniqueid": "MTK3507:3L70J4KAZHTUG1KODCKS08G1DDJADM", "dateTime": 1520623995191}, {"current_trial": 76, "trialdata": {"rt": 3353, "trial_type": "text", "internal_node_id": "0.0-58.0", "time_elapsed": 468868, "key_press": 32, "type": "INSTRUCTIONS", "trial_index": 76}, "uniqueid": "MTK3507:3L70J4KAZHTUG1KODCKS08G1DDJADM", "dateTime": 1520624000550}, {"current_trial": 77, "trialdata": {"rt": [4107, 6187, 8964, 11363], "trial_type": "math-distractor", "key_times": [3835, 4005, 4107, 5740, 5913, 6187, 8629, 8708, 8964, 10711, 11363], "responses": ["14", "19", "10", "9"], "num2": [2, 8, 5, 3, 1], "num3": [8, 3, 1, 3, 8], "conditions": [12, 1600, "v", 12000], "internal_node_id": "0.0-59.0", "key_presses": [49, 52, 13, 49, 57, 13, 49, 48, 13, 57, 13], "trial": 2, "time_elapsed": 481892, "type": "DISTRACTOR", "trial_index": 77, "num1": [4, 8, 4, 3, 5]}, "uniqueid": "MTK3507:3L70J4KAZHTUG1KODCKS08G1DDJADM", "dateTime": 1520624013573}, {"current_trial": 78, "trialdata": {"rt": -1, "trial_type": "single-stim", "stimulus": "<p id=\"stim\">10</p>", "internal_node_id": "0.0-60.0-0.0", "time_elapsed": 484900, "key_press": -1, "trial_index": 78}, "uniqueid": "MTK3507:3L70J4KAZHTUG1KODCKS08G1DDJADM", "dateTime": 1520624016581}, {"current_trial": 79, "trialdata": {"rt": -1, "trial_type": "single-stim", "stimulus": "<p id=\"stim\">9</p>", "internal_node_id": "0.0-60.0-1.0", "time_elapsed": 485905, "key_press": -1, "trial_index": 79}, "uniqueid": "MTK3507:3L70J4KAZHTUG1KODCKS08G1DDJADM", "dateTime": 1520624017586}, {"current_trial": 80, "trialdata": {"rt": -1, "trial_type": "single-stim", "stimulus": "<p id=\"stim\">8</p>", "internal_node_id": "0.0-60.0-2.0", "time_elapsed": 486911, "key_press": -1, "trial_index": 80}, "uniqueid": "MTK3507:3L70J4KAZHTUG1KODCKS08G1DDJADM", "dateTime": 1520624018593}, {"current_trial": 81, "trialdata": {"rt": -1, "trial_type": "single-stim", "stimulus": "<p id=\"stim\">7</p>", "internal_node_id": "0.0-60.0-3.0", "time_elapsed": 487922, "key_press": -1, "trial_index": 81}, "uniqueid": "MTK3507:3L70J4KAZHTUG1KODCKS08G1DDJADM", "dateTime": 1520624019603}, {"current_trial": 82, "trialdata": {"rt": -1, "trial_type": "single-stim", "stimulus": "<p id=\"stim\">6</p>", "internal_node_id": "0.0-60.0-4.0", "time_elapsed": 488929, "key_press": -1, "trial_index": 82}, "uniqueid": "MTK3507:3L70J4KAZHTUG1KODCKS08G1DDJADM", "dateTime": 1520624020619}, {"current_trial": 83, "trialdata": {"rt": -1, "trial_type": "single-stim", "stimulus": "<p id=\"stim\">5</p>", "internal_node_id": "0.0-60.0-5.0", "time_elapsed": 489943, "key_press": -1, "trial_index": 83}, "uniqueid": "MTK3507:3L70J4KAZHTUG1KODCKS08G1DDJADM", "dateTime": 1520624021625}, {"current_trial": 84, "trialdata": {"rt": -1, "trial_type": "single-stim", "stimulus": "<p id=\"stim\">4</p>", "internal_node_id": "0.0-60.0-6.0", "time_elapsed": 490949, "key_press": -1, "trial_index": 84}, "uniqueid": "MTK3507:3L70J4KAZHTUG1KODCKS08G1DDJADM", "dateTime": 1520624022630}, {"current_trial": 85, "trialdata": {"rt": -1, "trial_type": "single-stim", "stimulus": "<p id=\"stim\">3</p>", "internal_node_id": "0.0-60.0-7.0", "time_elapsed": 491957, "key_press": -1, "trial_index": 85}, "uniqueid": "MTK3507:3L70J4KAZHTUG1KODCKS08G1DDJADM", "dateTime": 1520624023638}, {"current_trial": 86, "trialdata": {"rt": -1, "trial_type": "single-stim", "stimulus": "<p id=\"stim\">2</p>", "internal_node_id": "0.0-60.0-8.0", "time_elapsed": 492963, "key_press": -1, "trial_index": 86}, "uniqueid": "MTK3507:3L70J4KAZHTUG1KODCKS08G1DDJADM", "dateTime": 1520624024645}, {"current_trial": 87, "trialdata": {"rt": -1, "trial_type": "single-stim", "stimulus": "<p id=\"stim\">1</p>", "internal_node_id": "0.0-60.0-9.0", "time_elapsed": 493968, "key_press": -1, "trial_index": 87}, "uniqueid": "MTK3507:3L70J4KAZHTUG1KODCKS08G1DDJADM", "dateTime": 1520624025649}, {"current_trial": 88, "trialdata": {"rt": -1, "trial_type": "single-stim", "stimulus": "<p id=\"stim\">+</p>", "internal_node_id": "0.0-61.0-0.0", "time_elapsed": 495473, "key_press": -1, "type": "FIXATION", "trial_index": 88}, "uniqueid": "MTK3507:3L70J4KAZHTUG1KODCKS08G1DDJADM", "dateTime": 1520624027154}, {"current_trial": 89, "trialdata": {"rt": -1, "trial_type": "single-stim", "word": "dancer", "stimulus": "<p id=\"stim\">DANCER</p>", "conditions": [12, 1600, "v", 12000], "internal_node_id": "0.0-62.0", "trial": 2, "time_elapsed": 497079, "serialpos": 0, "key_press": -1, "wordID": 436, "type": "PRES_VIS", "trial_index": 89}, "uniqueid": "MTK3507:3L70J4KAZHTUG1KODCKS08G1DDJADM", "dateTime": 1520624028761}, {"current_trial": 90, "trialdata": {"rt": -1, "trial_type": "single-stim", "word": "ketchup", "stimulus": "<p id=\"stim\">KETCHUP</p>", "conditions": [12, 1600, "v", 12000], "internal_node_id": "0.0-63.0", "trial": 2, "time_elapsed": 499786, "serialpos": 1, "key_press": -1, "wordID": 770, "type": "PRES_VIS", "trial_index": 90}, "uniqueid": "MTK3507:3L70J4KAZHTUG1KODCKS08G1DDJADM", "dateTime": 1520624031469}, {"current_trial": 91, "trialdata": {"rt": -1, "trial_type": "single-stim", "word": "grill", "stimulus": "<p id=\"stim\">GRILL</p>", "conditions": [12, 1600, "v", 12000], "internal_node_id": "0.0-64.0", "trial": 2, "time_elapsed": 502295, "serialpos": 2, "key_press": -1, "wordID": 660, "type": "PRES_VIS", "trial_index": 91}, "uniqueid": "MTK3507:3L70J4KAZHTUG1KODCKS08G1DDJADM", "dateTime": 1520624033977}, {"current_trial": 92, "trialdata": {"rt": -1, "trial_type": "single-stim", "word": "skillet", "stimulus": "<p id=\"stim\">SKILLET</p>", "conditions": [12, 1600, "v", 12000], "internal_node_id": "0.0-65.0", "trial": 2, "time_elapsed": 504888, "serialpos": 3, "key_press": -1, "wordID": 1316, "type": "PRES_VIS", "trial_index": 92}, "uniqueid": "MTK3507:3L70J4KAZHTUG1KODCKS08G1DDJADM", "dateTime": 1520624036570}, {"current_trial": 93, "trialdata": {"rt": -1, "trial_type": "single-stim", "word": "lady", "stimulus": "<p id=\"stim\">LADY</p>", "conditions": [12, 1600, "v", 12000], "internal_node_id": "0.0-66.0", "trial": 2, "time_elapsed": 507416, "serialpos": 4, "key_press": -1, "wordID": 793, "type": "PRES_VIS", "trial_index": 93}, "uniqueid": "MTK3507:3L70J4KAZHTUG1KODCKS08G1DDJADM", "dateTime": 1520624039098}, {"current_trial": 94, "trialdata": {"rt": -1, "trial_type": "single-stim", "word": "jungle", "stimulus": "<p id=\"stim\">JUNGLE</p>", "conditions": [12, 1600, "v", 12000], "internal_node_id": "0.0-67.0", "trial": 2, "time_elapsed": 509883, "serialpos": 5, "key_press": -1, "wordID": 763, "type": "PRES_VIS", "trial_index": 94}, "uniqueid": "MTK3507:3L70J4KAZHTUG1KODCKS08G1DDJADM", "dateTime": 1520624041565}, {"current_trial": 95, "trialdata": {"rt": -1, "trial_type": "single-stim", "word": "dime", "stimulus": "<p id=\"stim\">DIME</p>", "conditions": [12, 1600, "v", 12000], "internal_node_id": "0.0-68.0", "trial": 2, "time_elapsed": 512667, "serialpos": 6, "key_press": -1, "wordID": 465, "type": "PRES_VIS", "trial_index": 95}, "uniqueid": "MTK3507:3L70J4KAZHTUG1KODCKS08G1DDJADM", "dateTime": 1520624044348}, {"current_trial": 96, "trialdata": {"rt": -1, "trial_type": "single-stim", "word": "woman", "stimulus": "<p id=\"stim\">WOMAN</p>", "conditions": [12, 1600, "v", 12000], "internal_node_id": "0.0-69.0", "trial": 2, "time_elapsed": 515458, "serialpos": 7, "key_press": -1, "wordID": 1619, "type": "PRES_VIS", "trial_index": 96}, "uniqueid": "MTK3507:3L70J4KAZHTUG1KODCKS08G1DDJADM", "dateTime": 1520624047139}, {"current_trial": 97, "trialdata": {"rt": -1, "trial_type": "single-stim", "word": "crib", "stimulus": "<p id=\"stim\">CRIB</p>", "conditions": [12, 1600, "v", 12000], "internal_node_id": "0.0-70.0", "trial": 2, "time_elapsed": 517973, "serialpos": 8, "key_press": -1, "wordID": 406, "type": "PRES_VIS", "trial_index": 97}, "uniqueid": "MTK3507:3L70J4KAZHTUG1KODCKS08G1DDJADM", "dateTime": 1520624049655}, {"current_trial": 98, "trialdata": {"rt": -1, "trial_type": "single-stim", "word": "sandwich", "stimulus": "<p id=\"stim\">SANDWICH</p>", "conditions": [12, 1600, "v", 12000], "internal_node_id": "0.0-71.0", "trial": 2, "time_elapsed": 520399, "serialpos": 9, "key_press": -1, "wordID": 1231, "type": "PRES_VIS", "trial_index": 98}, "uniqueid": "MTK3507:3L70J4KAZHTUG1KODCKS08G1DDJADM", "dateTime": 1520624052080}, {"current_trial": 99, "trialdata": {"rt": -1, "trial_type": "single-stim", "word": "lily", "stimulus": "<p id=\"stim\">LILY</p>", "conditions": [12, 1600, "v", 12000], "internal_node_id": "0.0-72.0", "trial": 2, "time_elapsed": 523148, "serialpos": 10, "key_press": -1, "wordID": 820, "type": "PRES_VIS", "trial_index": 99}, "uniqueid": "MTK3507:3L70J4KAZHTUG1KODCKS08G1DDJADM", "dateTime": 1520624054829}, {"current_trial": 100, "trialdata": {"rt": -1, "trial_type": "single-stim", "word": "casket", "stimulus": "<p id=\"stim\">CASKET</p>", "conditions": [12, 1600, "v", 12000], "internal_node_id": "0.0-73.0", "trial": 2, "time_elapsed": 525580, "serialpos": 11, "key_press": -1, "wordID": 254, "type": "PRES_VIS", "trial_index": 100}, "uniqueid": "MTK3507:3L70J4KAZHTUG1KODCKS08G1DDJADM", "dateTime": 1520624057262}, {"current_trial": 101, "trialdata": {"rt": -1, "trial_type": "single-stim", "stimulus": "", "internal_node_id": "0.0-74.0-0.0", "time_elapsed": 527807, "key_press": -1, "type": "PRE_RECALL_DELAY", "trial_index": 101}, "uniqueid": "MTK3507:3L70J4KAZHTUG1KODCKS08G1DDJADM", "dateTime": 1520624059489}, {"current_trial": 102, "trialdata": {"rt": -1000, "trial_type": "single-audio", "stimulus": "/static/audio/400Hz.wav", "internal_node_id": "0.0-75.0", "time_elapsed": 528311, "key_press": -1, "type": "PRE_RECALL_ALERT", "trial_index": 102}, "uniqueid": "MTK3507:3L70J4KAZHTUG1KODCKS08G1DDJADM", "dateTime": 1520624059993}, {"current_trial": 103, "trialdata": {"rt": [1724, 6250, 8127, 9128, 14545, 16037, 27094], "recwords": ["dancer", "cupboard", "ketchup", "lily", "casket", "basket", "lady"], "key_times": [926, 1045, 1113, 1237, 1399, 1533, 1724, 1980, 2194, 2487, 2678, 2963, 3402, 3531, 3821, 4079, 4372, 4511, 5608, 5821, 5889, 6000, 6169, 6250, 6877, 6988, 7168, 7304, 7378, 7598, 7820, 8127, 8456, 8659, 8828, 8945, 9128, 12660, 13024, 13151, 13215, 13367, 13507, 13998, 14094, 14545, 15089, 15152, 15313, 15392, 15549, 15788, 16037, 26544, 26631, 26755, 26857, 27094], "trial_type": "free-recall", "conditions": [12, 1600, "v", 12000], "internal_node_id": "0.0-76.0-0.0", "key_presses": [68, 65, 78, 67, 69, 82, 13, 67, 85, 80, 79, 66, 8, 8, 66, 79, 8, 8, 66, 79, 65, 82, 68, 13, 75, 69, 84, 67, 72, 85, 80, 13, 76, 73, 76, 89, 13, 67, 65, 83, 75, 69, 89, 8, 84, 13, 66, 65, 83, 75, 69, 84, 13, 76, 65, 68, 89, 13], "trial": 2, "time_elapsed": 588327, "type": "FREE_RECALL", "trial_index": 103}, "uniqueid": "MTK3507:3L70J4KAZHTUG1KODCKS08G1DDJADM", "dateTime": 1520624120021}, {"current_trial": 104, "trialdata": {"rt": 2906, "trial_type": "text", "internal_node_id": "0.0-77.0", "time_elapsed": 593251, "key_press": 32, "type": "INSTRUCTIONS", "trial_index": 104}, "uniqueid": "MTK3507:3L70J4KAZHTUG1KODCKS08G1DDJADM", "dateTime": 1520624124932}, {"current_trial": 105, "trialdata": {"rt": [5210, 11933], "trial_type": "math-distractor", "key_times": [4754, 5027, 5210, 11182, 11490, 11933], "responses": ["16", "24"], "num2": [8, 7, 3], "num3": [5, 9, 8], "conditions": [24, 800, "v", 12000], "internal_node_id": "0.0-78.0", "key_presses": [49, 54, 13, 50, 52, 13], "trial": 3, "time_elapsed": 607260, "type": "DISTRACTOR", "trial_index": 105, "num1": [3, 8, 1]}, "uniqueid": "MTK3507:3L70J4KAZHTUG1KODCKS08G1DDJADM", "dateTime": 1520624138941}, {"current_trial": 106, "trialdata": {"rt": -1, "trial_type": "single-stim", "stimulus": "<p id=\"stim\">10</p>", "internal_node_id": "0.0-79.0-0.0", "time_elapsed": 610269, "key_press": -1, "trial_index": 106}, "uniqueid": "MTK3507:3L70J4KAZHTUG1KODCKS08G1DDJADM", "dateTime": 1520624141950}, {"current_trial": 107, "trialdata": {"rt": -1, "trial_type": "single-stim", "stimulus": "<p id=\"stim\">9</p>", "internal_node_id": "0.0-79.0-1.0", "time_elapsed": 611276, "key_press": -1, "trial_index": 107}, "uniqueid": "MTK3507:3L70J4KAZHTUG1KODCKS08G1DDJADM", "dateTime": 1520624142957}, {"current_trial": 108, "trialdata": {"rt": -1, "trial_type": "single-stim", "stimulus": "<p id=\"stim\">8</p>", "internal_node_id": "0.0-79.0-2.0", "time_elapsed": 612281, "key_press": -1, "trial_index": 108}, "uniqueid": "MTK3507:3L70J4KAZHTUG1KODCKS08G1DDJADM", "dateTime": 1520624143962}, {"current_trial": 109, "trialdata": {"rt": -1, "trial_type": "single-stim", "stimulus": "<p id=\"stim\">7</p>", "internal_node_id": "0.0-79.0-3.0", "time_elapsed": 613286, "key_press": -1, "trial_index": 109}, "uniqueid": "MTK3507:3L70J4KAZHTUG1KODCKS08G1DDJADM", "dateTime": 1520624144968}, {"current_trial": 110, "trialdata": {"rt": -1, "trial_type": "single-stim", "stimulus": "<p id=\"stim\">6</p>", "internal_node_id": "0.0-79.0-4.0", "time_elapsed": 614291, "key_press": -1, "trial_index": 110}, "uniqueid": "MTK3507:3L70J4KAZHTUG1KODCKS08G1DDJADM", "dateTime": 1520624145974}, {"current_trial": 111, "trialdata": {"rt": -1, "trial_type": "single-stim", "stimulus": "<p id=\"stim\">5</p>", "internal_node_id": "0.0-79.0-5.0", "time_elapsed": 615298, "key_press": -1, "trial_index": 111}, "uniqueid": "MTK3507:3L70J4KAZHTUG1KODCKS08G1DDJADM", "dateTime": 1520624146980}, {"current_trial": 112, "trialdata": {"rt": -1, "trial_type": "single-stim", "stimulus": "<p id=\"stim\">4</p>", "internal_node_id": "0.0-79.0-6.0", "time_elapsed": 616305, "key_press": -1, "trial_index": 112}, "uniqueid": "MTK3507:3L70J4KAZHTUG1KODCKS08G1DDJADM", "dateTime": 1520624147986}, {"current_trial": 113, "trialdata": {"rt": -1, "trial_type": "single-stim", "stimulus": "<p id=\"stim\">3</p>", "internal_node_id": "0.0-79.0-7.0", "time_elapsed": 617310, "key_press": -1, "trial_index": 113}, "uniqueid": "MTK3507:3L70J4KAZHTUG1KODCKS08G1DDJADM", "dateTime": 1520624148991}, {"current_trial": 114, "trialdata": {"rt": -1, "trial_type": "single-stim", "stimulus": "<p id=\"stim\">2</p>", "internal_node_id": "0.0-79.0-8.0", "time_elapsed": 618316, "key_press": -1, "trial_index": 114}, "uniqueid": "MTK3507:3L70J4KAZHTUG1KODCKS08G1DDJADM", "dateTime": 1520624149997}, {"current_trial": 115, "trialdata": {"rt": -1, "trial_type": "single-stim", "stimulus": "<p id=\"stim\">1</p>", "internal_node_id": "0.0-79.0-9.0", "time_elapsed": 619322, "key_press": -1, "trial_index": 115}, "uniqueid": "MTK3507:3L70J4KAZHTUG1KODCKS08G1DDJADM", "dateTime": 1520624151003}, {"current_trial": 116, "trialdata": {"rt": -1, "trial_type": "single-stim", "stimulus": "<p id=\"stim\">+</p>", "internal_node_id": "0.0-80.0-0.0", "time_elapsed": 620826, "key_press": -1, "type": "FIXATION", "trial_index": 116}, "uniqueid": "MTK3507:3L70J4KAZHTUG1KODCKS08G1DDJADM", "dateTime": 1520624152508}, {"current_trial": 117, "trialdata": {"rt": -1, "trial_type": "single-stim", "word": "jury", "stimulus": "<p id=\"stim\">JURY</p>", "conditions": [24, 800, "v", 12000], "internal_node_id": "0.0-81.0", "trial": 3, "time_elapsed": 621633, "serialpos": 0, "key_press": -1, "wordID": 765, "type": "PRES_VIS", "trial_index": 117}, "uniqueid": "MTK3507:3L70J4KAZHTUG1KODCKS08G1DDJADM", "dateTime": 1520624153314}, {"current_trial": 118, "trialdata": {"rt": -1, "trial_type": "single-stim", "word": "piston", "stimulus": "<p id=\"stim\">PISTON</p>", "conditions": [24, 800, "v", 12000], "internal_node_id": "0.0-82.0", "trial": 3, "time_elapsed": 623268, "serialpos": 1, "key_press": -1, "wordID": 1075, "type": "PRES_VIS", "trial_index": 118}, "uniqueid": "MTK3507:3L70J4KAZHTUG1KODCKS08G1DDJADM", "dateTime": 1520624154949}, {"current_trial": 119, "trialdata": {"rt": -1, "trial_type": "single-stim", "word": "smog", "stimulus": "<p id=\"stim\">SMOG</p>", "conditions": [24, 800, "v", 12000], "internal_node_id": "0.0-83.0", "trial": 3, "time_elapsed": 625120, "serialpos": 2, "key_press": -1, "wordID": 1329, "type": "PRES_VIS", "trial_index": 119}, "uniqueid": "MTK3507:3L70J4KAZHTUG1KODCKS08G1DDJADM", "dateTime": 1520624156801}, {"current_trial": 120, "trialdata": {"rt": -1, "trial_type": "single-stim", "word": "ozone", "stimulus": "<p id=\"stim\">OZONE</p>", "conditions": [24, 800, "v", 12000], "internal_node_id": "0.0-84.0", "trial": 3, "time_elapsed": 626878, "serialpos": 3, "key_press": -1, "wordID": 995, "type": "PRES_VIS", "trial_index": 120}, "uniqueid": "MTK3507:3L70J4KAZHTUG1KODCKS08G1DDJADM", "dateTime": 1520624158560}, {"current_trial": 121, "trialdata": {"rt": -1, "trial_type": "single-stim", "word": "tweezers", "stimulus": "<p id=\"stim\">TWEEZERS</p>", "conditions": [24, 800, "v", 12000], "internal_node_id": "0.0-85.0", "trial": 3, "time_elapsed": 628797, "serialpos": 4, "key_press": -1, "wordID": 1525, "type": "PRES_VIS", "trial_index": 121}, "uniqueid": "MTK3507:3L70J4KAZHTUG1KODCKS08G1DDJADM", "dateTime": 1520624160478}, {"current_trial": 122, "trialdata": {"rt": -1, "trial_type": "single-stim", "word": "baby", "stimulus": "<p id=\"stim\">BABY</p>", "conditions": [24, 800, "v", 12000], "internal_node_id": "0.0-86.0", "trial": 3, "time_elapsed": 630482, "serialpos": 5, "key_press": -1, "wordID": 63, "type": "PRES_VIS", "trial_index": 122}, "uniqueid": "MTK3507:3L70J4KAZHTUG1KODCKS08G1DDJADM", "dateTime": 1520624162164}, {"current_trial": 123, "trialdata": {"rt": -1, "trial_type": "single-stim", "word": "judge", "stimulus": "<p id=\"stim\">JUDGE</p>", "conditions": [24, 800, "v", 12000], "internal_node_id": "0.0-87.0", "trial": 3, "time_elapsed": 632102, "serialpos": 6, "key_press": -1, "wordID": 760, "type": "PRES_VIS", "trial_index": 123}, "uniqueid": "MTK3507:3L70J4KAZHTUG1KODCKS08G1DDJADM", "dateTime": 1520624163785}, {"current_trial": 124, "trialdata": {"rt": -1, "trial_type": "single-stim", "word": "window", "stimulus": "<p id=\"stim\">WINDOW</p>", "conditions": [24, 800, "v", 12000], "internal_node_id": "0.0-88.0", "trial": 3, "time_elapsed": 634022, "serialpos": 7, "key_press": -1, "wordID": 1610, "type": "PRES_VIS", "trial_index": 124}, "uniqueid": "MTK3507:3L70J4KAZHTUG1KODCKS08G1DDJADM", "dateTime": 1520624165704}, {"current_trial": 125, "trialdata": {"rt": -1, "trial_type": "single-stim", "word": "swimmer", "stimulus": "<p id=\"stim\">SWIMMER</p>", "conditions": [24, 800, "v", 12000], "internal_node_id": "0.0-89.0", "trial": 3, "time_elapsed": 635973, "serialpos": 8, "key_press": -1, "wordID": 1419, "type": "PRES_VIS", "trial_index": 125}, "uniqueid": "MTK3507:3L70J4KAZHTUG1KODCKS08G1DDJADM", "dateTime": 1520624167654}, {"current_trial": 126, "trialdata": {"rt": -1, "trial_type": "single-stim", "word": "flipper", "stimulus": "<p id=\"stim\">FLIPPER</p>", "conditions": [24, 800, "v", 12000], "internal_node_id": "0.0-90.0", "trial": 3, "time_elapsed": 637807, "serialpos": 9, "key_press": -1, "wordID": 579, "type": "PRES_VIS", "trial_index": 126}, "uniqueid": "MTK3507:3L70J4KAZHTUG1KODCKS08G1DDJADM", "dateTime": 1520624169488}, {"current_trial": 127, "trialdata": {"rt": -1, "trial_type": "single-stim", "word": "diver", "stimulus": "<p id=\"stim\">DIVER</p>", "conditions": [24, 800, "v", 12000], "internal_node_id": "0.0-91.0", "trial": 3, "time_elapsed": 639566, "serialpos": 10, "key_press": -1, "wordID": 475, "type": "PRES_VIS", "trial_index": 127}, "uniqueid": "MTK3507:3L70J4KAZHTUG1KODCKS08G1DDJADM", "dateTime": 1520624171248}, {"current_trial": 128, "trialdata": {"rt": -1, "trial_type": "single-stim", "word": "bouquet", "stimulus": "<p id=\"stim\">BOUQUET</p>", "conditions": [24, 800, "v", 12000], "internal_node_id": "0.0-92.0", "trial": 3, "time_elapsed": 641523, "serialpos": 11, "key_press": -1, "wordID": 156, "type": "PRES_VIS", "trial_index": 128}, "uniqueid": "MTK3507:3L70J4KAZHTUG1KODCKS08G1DDJADM", "dateTime": 1520624173205}, {"current_trial": 129, "trialdata": {"rt": -1, "trial_type": "single-stim", "word": "contract", "stimulus": "<p id=\"stim\">CONTRACT</p>", "conditions": [24, 800, "v", 12000], "internal_node_id": "0.0-93.0", "trial": 3, "time_elapsed": 643509, "serialpos": 12, "key_press": -1, "wordID": 367, "type": "PRES_VIS", "trial_index": 129}, "uniqueid": "MTK3507:3L70J4KAZHTUG1KODCKS08G1DDJADM", "dateTime": 1520624175190}, {"current_trial": 130, "trialdata": {"rt": -1, "trial_type": "single-stim", "word": "knife", "stimulus": "<p id=\"stim\">KNIFE</p>", "conditions": [24, 800, "v", 12000], "internal_node_id": "0.0-94.0", "trial": 3, "time_elapsed": 645228, "serialpos": 13, "key_press": -1, "wordID": 784, "type": "PRES_VIS", "trial_index": 130}, "uniqueid": "MTK3507:3L70J4KAZHTUG1KODCKS08G1DDJADM", "dateTime": 1520624176910}, {"current_trial": 131, "trialdata": {"rt": -1, "trial_type": "single-stim", "word": "suitcase", "stimulus": "<p id=\"stim\">SUITCASE</p>", "conditions": [24, 800, "v", 12000], "internal_node_id": "0.0-95.0", "trial": 3, "time_elapsed": 646848, "serialpos": 14, "key_press": -1, "wordID": 1402, "type": "PRES_VIS", "trial_index": 131}, "uniqueid": "MTK3507:3L70J4KAZHTUG1KODCKS08G1DDJADM", "dateTime": 1520624178529}, {"current_trial": 132, "trialdata": {"rt": -1, "trial_type": "single-stim", "word": "luggage", "stimulus": "<p id=\"stim\">LUGGAGE</p>", "conditions": [24, 800, "v", 12000], "internal_node_id": "0.0-96.0", "trial": 3, "time_elapsed": 648551, "serialpos": 15, "key_press": -1, "wordID": 846, "type": "PRES_VIS", "trial_index": 132}, "uniqueid": "MTK3507:3L70J4KAZHTUG1KODCKS08G1DDJADM", "dateTime": 1520624180232}, {"current_trial": 133, "trialdata": {"rt": -1, "trial_type": "single-stim", "word": "mildew", "stimulus": "<p id=\"stim\">MILDEW</p>", "conditions": [24, 800, "v", 12000], "internal_node_id": "0.0-97.0", "trial": 3, "time_elapsed": 650275, "serialpos": 16, "key_press": -1, "wordID": 892, "type": "PRES_VIS", "trial_index": 133}, "uniqueid": "MTK3507:3L70J4KAZHTUG1KODCKS08G1DDJADM", "dateTime": 1520624181957}, {"current_trial": 134, "trialdata": {"rt": -1, "trial_type": "single-stim", "word": "fragrance", "stimulus": "<p id=\"stim\">FRAGRANCE</p>", "conditions": [24, 800, "v", 12000], "internal_node_id": "0.0-98.0", "trial": 3, "time_elapsed": 652273, "serialpos": 17, "key_press": -1, "wordID": 598, "type": "PRES_VIS", "trial_index": 134}, "uniqueid": "MTK3507:3L70J4KAZHTUG1KODCKS08G1DDJADM", "dateTime": 1520624183954}, {"current_trial": 135, "trialdata": {"rt": -1, "trial_type": "single-stim", "word": "airplane", "stimulus": "<p id=\"stim\">AIRPLANE</p>", "conditions": [24, 800, "v", 12000], "internal_node_id": "0.0-99.0", "trial": 3, "time_elapsed": 654185, "serialpos": 18, "key_press": -1, "wordID": 11, "type": "PRES_VIS", "trial_index": 135}, "uniqueid": "MTK3507:3L70J4KAZHTUG1KODCKS08G1DDJADM", "dateTime": 1520624185867}, {"current_trial": 136, "trialdata": {"rt": -1, "trial_type": "single-stim", "word": "country", "stimulus": "<p id=\"stim\">COUNTRY</p>", "conditions": [24, 800, "v", 12000], "internal_node_id": "0.0-100.0", "trial": 3, "time_elapsed": 656031, "serialpos": 19, "key_press": -1, "wordID": 387, "type": "PRES_VIS", "trial_index": 136}, "uniqueid": "MTK3507:3L70J4KAZHTUG1KODCKS08G1DDJADM", "dateTime": 1520624187712}, {"current_trial": 137, "trialdata": {"rt": -1, "trial_type": "single-stim", "word": "fungus", "stimulus": "<p id=\"stim\">FUNGUS</p>", "conditions": [24, 800, "v", 12000], "internal_node_id": "0.0-101.0", "trial": 3, "time_elapsed": 657970, "serialpos": 20, "key_press": -1, "wordID": 613, "type": "PRES_VIS", "trial_index": 137}, "uniqueid": "MTK3507:3L70J4KAZHTUG1KODCKS08G1DDJADM", "dateTime": 1520624189651}, {"current_trial": 138, "trialdata": {"rt": -1, "trial_type": "single-stim", "word": "pistol", "stimulus": "<p id=\"stim\">PISTOL</p>", "conditions": [24, 800, "v", 12000], "internal_node_id": "0.0-102.0", "trial": 3, "time_elapsed": 659745, "serialpos": 21, "key_press": -1, "wordID": 1074, "type": "PRES_VIS", "trial_index": 138}, "uniqueid": "MTK3507:3L70J4KAZHTUG1KODCKS08G1DDJADM", "dateTime": 1520624191427}, {"current_trial": 139, "trialdata": {"rt": -1, "trial_type": "single-stim", "word": "stone", "stimulus": "<p id=\"stim\">STONE</p>", "conditions": [24, 800, "v", 12000], "internal_node_id": "0.0-103.0", "trial": 3, "time_elapsed": 661688, "serialpos": 22, "key_press": -1, "wordID": 1384, "type": "PRES_VIS", "trial_index": 139}, "uniqueid": "MTK3507:3L70J4KAZHTUG1KODCKS08G1DDJADM", "dateTime": 1520624193369}, {"current_trial": 140, "trialdata": {"rt": -1, "trial_type": "single-stim", "word": "package", "stimulus": "<p id=\"stim\">PACKAGE</p>", "conditions": [24, 800, "v", 12000], "internal_node_id": "0.0-104.0", "trial": 3, "time_elapsed": 663371, "serialpos": 23, "key_press": -1, "wordID": 996, "type": "PRES_VIS", "trial_index": 140}, "uniqueid": "MTK3507:3L70J4KAZHTUG1KODCKS08G1DDJADM", "dateTime": 1520624195053}, {"current_trial": 141, "trialdata": {"rt": -1, "trial_type": "single-stim", "stimulus": "", "internal_node_id": "0.0-105.0-0.0", "time_elapsed": 665461, "key_press": -1, "type": "PRE_RECALL_DELAY", "trial_index": 141}, "uniqueid": "MTK3507:3L70J4KAZHTUG1KODCKS08G1DDJADM", "dateTime": 1520624197142}, {"current_trial": 142, "trialdata": {"rt": -1000, "trial_type": "single-audio", "stimulus": "/static/audio/400Hz.wav", "internal_node_id": "0.0-106.0", "time_elapsed": 665963, "key_press": -1, "type": "PRE_RECALL_ALERT", "trial_index": 142}, "uniqueid": "MTK3507:3L70J4KAZHTUG1KODCKS08G1DDJADM", "dateTime": 1520624197644}, {"current_trial": 143, "trialdata": {"rt": [2046, 3530, 5545, 6714, 8152, 11796, 14194], "recwords": ["stone", "package", "jury", "piston", "smog", "airplane", "country"], "key_times": [992, 1198, 1530, 1589, 1707, 1902, 1944, 2046, 2701, 2771, 2938, 2985, 3139, 3251, 3342, 3530, 4220, 4476, 4574, 4679, 5545, 5807, 6012, 6076, 6224, 6326, 6504, 6714, 6894, 7049, 7631, 7758, 8152, 10905, 10942, 11079, 11184, 11359, 11443, 11561, 11646, 11796, 13313, 13415, 13573, 13724, 13767, 13874, 13954, 14194], "trial_type": "free-recall", "conditions": [24, 800, "v", 12000], "internal_node_id": "0.0-107.0-0.0", "key_presses": [83, 79, 8, 84, 79, 78, 69, 32, 80, 65, 67, 75, 65, 71, 69, 13, 74, 85, 82, 89, 13, 80, 73, 83, 84, 79, 78, 13, 83, 77, 79, 71, 13, 65, 73, 82, 80, 76, 65, 78, 69, 13, 67, 79, 85, 78, 84, 82, 89, 13], "trial": 3, "time_elapsed": 725972, "type": "FREE_RECALL", "trial_index": 143}, "uniqueid": "MTK3507:3L70J4KAZHTUG1KODCKS08G1DDJADM", "dateTime": 1520624257671}, {"current_trial": 144, "trialdata": {"rt": 1928, "trial_type": "text", "internal_node_id": "0.0-108.0", "time_elapsed": 729924, "key_press": 32, "type": "INSTRUCTIONS", "trial_index": 144}, "uniqueid": "MTK3507:3L70J4KAZHTUG1KODCKS08G1DDJADM", "dateTime": 1520624261605}, {"current_trial": 145, "trialdata": {"rt": [2320, 6860, 9034], "trial_type": "math-distractor", "key_times": [2101, 2320, 6550, 6754, 6860, 8479, 8779, 9034], "responses": ["8", "16", "17"], "num2": [1, 3, 8, 5], "num3": [6, 8, 7, 3], "conditions": [12, 1600, "v", 12000], "internal_node_id": "0.0-109.0", "key_presses": [56, 13, 49, 54, 13, 49, 55, 13], "trial": 4, "time_elapsed": 743939, "type": "DISTRACTOR", "trial_index": 145, "num1": [1, 5, 2, 6]}, "uniqueid": "MTK3507:3L70J4KAZHTUG1KODCKS08G1DDJADM", "dateTime": 1520624275620}, {"current_trial": 146, "trialdata": {"rt": -1, "trial_type": "single-stim", "stimulus": "<p id=\"stim\">10</p>", "internal_node_id": "0.0-110.0-0.0", "time_elapsed": 746945, "key_press": -1, "trial_index": 146}, "uniqueid": "MTK3507:3L70J4KAZHTUG1KODCKS08G1DDJADM", "dateTime": 1520624278627}, {"current_trial": 147, "trialdata": {"rt": -1, "trial_type": "single-stim", "stimulus": "<p id=\"stim\">9</p>", "internal_node_id": "0.0-110.0-1.0", "time_elapsed": 747951, "key_press": -1, "trial_index": 147}, "uniqueid": "MTK3507:3L70J4KAZHTUG1KODCKS08G1DDJADM", "dateTime": 1520624279632}, {"current_trial": 148, "trialdata": {"rt": -1, "trial_type": "single-stim", "stimulus": "<p id=\"stim\">8</p>", "internal_node_id": "0.0-110.0-2.0", "time_elapsed": 748957, "key_press": -1, "trial_index": 148}, "uniqueid": "MTK3507:3L70J4KAZHTUG1KODCKS08G1DDJADM", "dateTime": 1520624280651}, {"current_trial": 149, "trialdata": {"rt": -1, "trial_type": "single-stim", "stimulus": "<p id=\"stim\">7</p>", "internal_node_id": "0.0-110.0-3.0", "time_elapsed": 749973, "key_press": -1, "trial_index": 149}, "uniqueid": "MTK3507:3L70J4KAZHTUG1KODCKS08G1DDJADM", "dateTime": 1520624281655}, {"current_trial": 150, "trialdata": {"rt": -1, "trial_type": "single-stim", "stimulus": "<p id=\"stim\">6</p>", "internal_node_id": "0.0-110.0-4.0", "time_elapsed": 750978, "key_press": -1, "trial_index": 150}, "uniqueid": "MTK3507:3L70J4KAZHTUG1KODCKS08G1DDJADM", "dateTime": 1520624282660}, {"current_trial": 151, "trialdata": {"rt": -1, "trial_type": "single-stim", "stimulus": "<p id=\"stim\">5</p>", "internal_node_id": "0.0-110.0-5.0", "time_elapsed": 751984, "key_press": -1, "trial_index": 151}, "uniqueid": "MTK3507:3L70J4KAZHTUG1KODCKS08G1DDJADM", "dateTime": 1520624283665}, {"current_trial": 152, "trialdata": {"rt": -1, "trial_type": "single-stim", "stimulus": "<p id=\"stim\">4</p>", "internal_node_id": "0.0-110.0-6.0", "time_elapsed": 752988, "key_press": -1, "trial_index": 152}, "uniqueid": "MTK3507:3L70J4KAZHTUG1KODCKS08G1DDJADM", "dateTime": 1520624284669}, {"current_trial": 153, "trialdata": {"rt": -1, "trial_type": "single-stim", "stimulus": "<p id=\"stim\">3</p>", "internal_node_id": "0.0-110.0-7.0", "time_elapsed": 753996, "key_press": -1, "trial_index": 153}, "uniqueid": "MTK3507:3L70J4KAZHTUG1KODCKS08G1DDJADM", "dateTime": 1520624285677}, {"current_trial": 154, "trialdata": {"rt": -1, "trial_type": "single-stim", "stimulus": "<p id=\"stim\">2</p>", "internal_node_id": "0.0-110.0-8.0", "time_elapsed": 755001, "key_press": -1, "trial_index": 154}, "uniqueid": "MTK3507:3L70J4KAZHTUG1KODCKS08G1DDJADM", "dateTime": 1520624286683}, {"current_trial": 155, "trialdata": {"rt": -1, "trial_type": "single-stim", "stimulus": "<p id=\"stim\">1</p>", "internal_node_id": "0.0-110.0-9.0", "time_elapsed": 756006, "key_press": -1, "trial_index": 155}, "uniqueid": "MTK3507:3L70J4KAZHTUG1KODCKS08G1DDJADM", "dateTime": 1520624287687}, {"current_trial": 156, "trialdata": {"rt": -1, "trial_type": "single-stim", "stimulus": "<p id=\"stim\">+</p>", "internal_node_id": "0.0-111.0-0.0", "time_elapsed": 757511, "key_press": -1, "type": "FIXATION", "trial_index": 156}, "uniqueid": "MTK3507:3L70J4KAZHTUG1KODCKS08G1DDJADM", "dateTime": 1520624289194}, {"current_trial": 157, "trialdata": {"rt": -1, "trial_type": "single-stim", "word": "gavel", "stimulus": "<p id=\"stim\">GAVEL</p>", "conditions": [12, 1600, "v", 12000], "internal_node_id": "0.0-112.0", "trial": 4, "time_elapsed": 759117, "serialpos": 0, "key_press": -1, "wordID": 626, "type": "PRES_VIS", "trial_index": 157}, "uniqueid": "MTK3507:3L70J4KAZHTUG1KODCKS08G1DDJADM", "dateTime": 1520624290798}, {"current_trial": 158, "trialdata": {"rt": -1, "trial_type": "single-stim", "word": "fox", "stimulus": "<p id=\"stim\">FOX</p>", "conditions": [12, 1600, "v", 12000], "internal_node_id": "0.0-113.0", "trial": 4, "time_elapsed": 761683, "serialpos": 1, "key_press": -1, "wordID": 597, "type": "PRES_VIS", "trial_index": 158}, "uniqueid": "MTK3507:3L70J4KAZHTUG1KODCKS08G1DDJADM", "dateTime": 1520624293364}, {"current_trial": 159, "trialdata": {"rt": -1, "trial_type": "single-stim", "word": "airport", "stimulus": "<p id=\"stim\">AIRPORT</p>", "conditions": [12, 1600, "v", 12000], "internal_node_id": "0.0-114.0", "trial": 4, "time_elapsed": 764350, "serialpos": 2, "key_press": -1, "wordID": 12, "type": "PRES_VIS", "trial_index": 159}, "uniqueid": "MTK3507:3L70J4KAZHTUG1KODCKS08G1DDJADM", "dateTime": 1520624296032}, {"current_trial": 160, "trialdata": {"rt": -1, "trial_type": "single-stim", "word": "farmer", "stimulus": "<p id=\"stim\">FARMER</p>", "conditions": [12, 1600, "v", 12000], "internal_node_id": "0.0-115.0", "trial": 4, "time_elapsed": 767057, "serialpos": 3, "key_press": -1, "wordID": 552, "type": "PRES_VIS", "trial_index": 160}, "uniqueid": "MTK3507:3L70J4KAZHTUG1KODCKS08G1DDJADM", "dateTime": 1520624298739}, {"current_trial": 161, "trialdata": {"rt": -1, "trial_type": "single-stim", "word": "parrot", "stimulus": "<p id=\"stim\">PARROT</p>", "conditions": [12, 1600, "v", 12000], "internal_node_id": "0.0-116.0", "trial": 4, "time_elapsed": 769718, "serialpos": 4, "key_press": -1, "wordID": 1014, "type": "PRES_VIS", "trial_index": 161}, "uniqueid": "MTK3507:3L70J4KAZHTUG1KODCKS08G1DDJADM", "dateTime": 1520624301400}, {"current_trial": 162, "trialdata": {"rt": -1, "trial_type": "single-stim", "word": "outdoors", "stimulus": "<p id=\"stim\">OUTDOORS</p>", "conditions": [12, 1600, "v", 12000], "internal_node_id": "0.0-117.0", "trial": 4, "time_elapsed": 772387, "serialpos": 5, "key_press": -1, "wordID": 986, "type": "PRES_VIS", "trial_index": 162}, "uniqueid": "MTK3507:3L70J4KAZHTUG1KODCKS08G1DDJADM", "dateTime": 1520624304068}, {"current_trial": 163, "trialdata": {"rt": -1, "trial_type": "single-stim", "word": "patient", "stimulus": "<p id=\"stim\">PATIENT</p>", "conditions": [12, 1600, "v", 12000], "internal_node_id": "0.0-118.0", "trial": 4, "time_elapsed": 774902, "serialpos": 6, "key_press": -1, "wordID": 1023, "type": "PRES_VIS", "trial_index": 163}, "uniqueid": "MTK3507:3L70J4KAZHTUG1KODCKS08G1DDJADM", "dateTime": 1520624306583}, {"current_trial": 164, "trialdata": {"rt": -1, "trial_type": "single-stim", "word": "bullet", "stimulus": "<p id=\"stim\">BULLET</p>", "conditions": [12, 1600, "v", 12000], "internal_node_id": "0.0-119.0", "trial": 4, "time_elapsed": 777618, "serialpos": 7, "key_press": -1, "wordID": 193, "type": "PRES_VIS", "trial_index": 164}, "uniqueid": "MTK3507:3L70J4KAZHTUG1KODCKS08G1DDJADM", "dateTime": 1520624309299}, {"current_trial": 165, "trialdata": {"rt": -1, "trial_type": "single-stim", "word": "body", "stimulus": "<p id=\"stim\">BODY</p>", "conditions": [12, 1600, "v", 12000], "internal_node_id": "0.0-120.0", "trial": 4, "time_elapsed": 780201, "serialpos": 8, "key_press": -1, "wordID": 144, "type": "PRES_VIS", "trial_index": 165}, "uniqueid": "MTK3507:3L70J4KAZHTUG1KODCKS08G1DDJADM", "dateTime": 1520624311887}, {"current_trial": 166, "trialdata": {"rt": -1, "trial_type": "single-stim", "word": "garlic", "stimulus": "<p id=\"stim\">GARLIC</p>", "conditions": [12, 1600, "v", 12000], "internal_node_id": "0.0-121.0", "trial": 4, "time_elapsed": 782687, "serialpos": 9, "key_press": -1, "wordID": 623, "type": "PRES_VIS", "trial_index": 166}, "uniqueid": "MTK3507:3L70J4KAZHTUG1KODCKS08G1DDJADM", "dateTime": 1520624314369}, {"current_trial": 167, "trialdata": {"rt": -1, "trial_type": "single-stim", "word": "onion", "stimulus": "<p id=\"stim\">ONION</p>", "conditions": [12, 1600, "v", 12000], "internal_node_id": "0.0-122.0", "trial": 4, "time_elapsed": 785199, "serialpos": 10, "key_press": -1, "wordID": 976, "type": "PRES_VIS", "trial_index": 167}, "uniqueid": "MTK3507:3L70J4KAZHTUG1KODCKS08G1DDJADM", "dateTime": 1520624316881}, {"current_trial": 168, "trialdata": {"rt": -1, "trial_type": "single-stim", "word": "machine", "stimulus": "<p id=\"stim\">MACHINE</p>", "conditions": [12, 1600, "v", 12000], "internal_node_id": "0.0-123.0", "trial": 4, "time_elapsed": 787607, "serialpos": 11, "key_press": -1, "wordID": 851, "type": "PRES_VIS", "trial_index": 168}, "uniqueid": "MTK3507:3L70J4KAZHTUG1KODCKS08G1DDJADM", "dateTime": 1520624319289}, {"current_trial": 169, "trialdata": {"rt": -1, "trial_type": "single-stim", "stimulus": "", "internal_node_id": "0.0-124.0-0.0", "time_elapsed": 789806, "key_press": -1, "type": "PRE_RECALL_DELAY", "trial_index": 169}, "uniqueid": "MTK3507:3L70J4KAZHTUG1KODCKS08G1DDJADM", "dateTime": 1520624321487}, {"current_trial": 170, "trialdata": {"rt": -1000, "trial_type": "single-audio", "stimulus": "/static/audio/400Hz.wav", "internal_node_id": "0.0-125.0", "time_elapsed": 790310, "key_press": -1, "type": "PRE_RECALL_ALERT", "trial_index": 170}, "uniqueid": "MTK3507:3L70J4KAZHTUG1KODCKS08G1DDJADM", "dateTime": 1520624321992}, {"current_trial": 171, "trialdata": {"rt": [1933, 3175, 4970, 6352, 10028], "recwords": ["garlic", "machine", "airport", "fox", "gavel"], "key_times": [992, 1195, 1351, 1463, 1643, 1703, 1933, 2238, 2302, 2501, 2554, 2736, 2904, 2990, 3175, 3414, 3816, 3946, 4080, 4235, 4583, 4786, 4970, 5886, 5983, 6134, 6352, 9112, 9363, 9552, 9747, 9822, 10028], "trial_type": "free-recall", "conditions": [12, 1600, "v", 12000], "internal_node_id": "0.0-126.0-0.0", "key_presses": [71, 65, 82, 76, 73, 67, 13, 77, 65, 67, 72, 73, 78, 69, 13, 65, 73, 82, 80, 79, 82, 84, 13, 70, 79, 88, 13, 71, 65, 86, 69, 76, 13], "trial": 4, "time_elapsed": 850323, "type": "FREE_RECALL", "trial_index": 171}, "uniqueid": "MTK3507:3L70J4KAZHTUG1KODCKS08G1DDJADM", "dateTime": 1520624382016}, {"current_trial": 172, "trialdata": {"rt": 1597, "trial_type": "text", "internal_node_id": "0.0-127.0", "time_elapsed": 853938, "key_press": 32, "type": "INSTRUCTIONS", "trial_index": 172}, "uniqueid": "MTK3507:3L70J4KAZHTUG1KODCKS08G1DDJADM", "dateTime": 1520624385620}, {"current_trial": 173, "trialdata": {"rt": [4014, 15912, 18185, 20097, 21616], "trial_type": "math-distractor", "key_times": [2736, 2784, 4014, 14952, 15088, 15671, 15831, 15912, 17887, 18093, 18185, 19940, 20097, 21466, 21558, 21616], "responses": ["19", "22", "13", "8", "12"], "num2": [8, 5, 5, 4, 6, 7], "num3": [5, 9, 5, 3, 2, 8], "conditions": [12, 800, "v", 24000], "internal_node_id": "0.0-128.0", "key_presses": [49, 57, 13, 50, 49, 8, 50, 13, 49, 51, 13, 56, 13, 49, 50, 13], "trial": 5, "time_elapsed": 879954, "type": "DISTRACTOR", "trial_index": 173, "num1": [6, 8, 3, 1, 4, 7]}, "uniqueid": "MTK3507:3L70J4KAZHTUG1KODCKS08G1DDJADM", "dateTime": 1520624411635}, {"current_trial": 174, "trialdata": {"rt": -1, "trial_type": "single-stim", "stimulus": "<p id=\"stim\">10</p>", "internal_node_id": "0.0-129.0-0.0", "time_elapsed": 882963, "key_press": -1, "trial_index": 174}, "uniqueid": "MTK3507:3L70J4KAZHTUG1KODCKS08G1DDJADM", "dateTime": 1520624414645}, {"current_trial": 175, "trialdata": {"rt": -1, "trial_type": "single-stim", "stimulus": "<p id=\"stim\">9</p>", "internal_node_id": "0.0-129.0-1.0", "time_elapsed": 883968, "key_press": -1, "trial_index": 175}, "uniqueid": "MTK3507:3L70J4KAZHTUG1KODCKS08G1DDJADM", "dateTime": 1520624415650}, {"current_trial": 176, "trialdata": {"rt": -1, "trial_type": "single-stim", "stimulus": "<p id=\"stim\">8</p>", "internal_node_id": "0.0-129.0-2.0", "time_elapsed": 884973, "key_press": -1, "trial_index": 176}, "uniqueid": "MTK3507:3L70J4KAZHTUG1KODCKS08G1DDJADM", "dateTime": 1520624416654}, {"current_trial": 177, "trialdata": {"rt": -1, "trial_type": "single-stim", "stimulus": "<p id=\"stim\">7</p>", "internal_node_id": "0.0-129.0-3.0", "time_elapsed": 885979, "key_press": -1, "trial_index": 177}, "uniqueid": "MTK3507:3L70J4KAZHTUG1KODCKS08G1DDJADM", "dateTime": 1520624417660}, {"current_trial": 178, "trialdata": {"rt": -1, "trial_type": "single-stim", "stimulus": "<p id=\"stim\">6</p>", "internal_node_id": "0.0-129.0-4.0", "time_elapsed": 886984, "key_press": -1, "trial_index": 178}, "uniqueid": "MTK3507:3L70J4KAZHTUG1KODCKS08G1DDJADM", "dateTime": 1520624418666}, {"current_trial": 179, "trialdata": {"rt": -1, "trial_type": "single-stim", "stimulus": "<p id=\"stim\">5</p>", "internal_node_id": "0.0-129.0-5.0", "time_elapsed": 887990, "key_press": -1, "trial_index": 179}, "uniqueid": "MTK3507:3L70J4KAZHTUG1KODCKS08G1DDJADM", "dateTime": 1520624419671}, {"current_trial": 180, "trialdata": {"rt": -1, "trial_type": "single-stim", "stimulus": "<p id=\"stim\">4</p>", "internal_node_id": "0.0-129.0-6.0", "time_elapsed": 888995, "key_press": -1, "trial_index": 180}, "uniqueid": "MTK3507:3L70J4KAZHTUG1KODCKS08G1DDJADM", "dateTime": 1520624420676}, {"current_trial": 181, "trialdata": {"rt": -1, "trial_type": "single-stim", "stimulus": "<p id=\"stim\">3</p>", "internal_node_id": "0.0-129.0-7.0", "time_elapsed": 889998, "key_press": -1, "trial_index": 181}, "uniqueid": "MTK3507:3L70J4KAZHTUG1KODCKS08G1DDJADM", "dateTime": 1520624421680}, {"current_trial": 182, "trialdata": {"rt": -1, "trial_type": "single-stim", "stimulus": "<p id=\"stim\">2</p>", "internal_node_id": "0.0-129.0-8.0", "time_elapsed": 891003, "key_press": -1, "trial_index": 182}, "uniqueid": "MTK3507:3L70J4KAZHTUG1KODCKS08G1DDJADM", "dateTime": 1520624422685}, {"current_trial": 183, "trialdata": {"rt": -1, "trial_type": "single-stim", "stimulus": "<p id=\"stim\">1</p>", "internal_node_id": "0.0-129.0-9.0", "time_elapsed": 892008, "key_press": -1, "trial_index": 183}, "uniqueid": "MTK3507:3L70J4KAZHTUG1KODCKS08G1DDJADM", "dateTime": 1520624423690}, {"current_trial": 184, "trialdata": {"rt": -1, "trial_type": "single-stim", "stimulus": "<p id=\"stim\">+</p>", "internal_node_id": "0.0-130.0-0.0", "time_elapsed": 893514, "key_press": -1, "type": "FIXATION", "trial_index": 184}, "uniqueid": "MTK3507:3L70J4KAZHTUG1KODCKS08G1DDJADM", "dateTime": 1520624425195}, {"current_trial": 185, "trialdata": {"rt": -1, "trial_type": "single-stim", "word": "bureau", "stimulus": "<p id=\"stim\">BUREAU</p>", "conditions": [12, 800, "v", 24000], "internal_node_id": "0.0-131.0", "trial": 5, "time_elapsed": 894320, "serialpos": 0, "key_press": -1, "wordID": 198, "type": "PRES_VIS", "trial_index": 185}, "uniqueid": "MTK3507:3L70J4KAZHTUG1KODCKS08G1DDJADM", "dateTime": 1520624426002}, {"current_trial": 186, "trialdata": {"rt": -1, "trial_type": "single-stim", "word": "jelly", "stimulus": "<p id=\"stim\">JELLY</p>", "conditions": [12, 800, "v", 24000], "internal_node_id": "0.0-132.0", "trial": 5, "time_elapsed": 896121, "serialpos": 1, "key_press": -1, "wordID": 754, "type": "PRES_VIS", "trial_index": 186}, "uniqueid": "MTK3507:3L70J4KAZHTUG1KODCKS08G1DDJADM", "dateTime": 1520624427803}, {"current_trial": 187, "trialdata": {"rt": -1, "trial_type": "single-stim", "word": "washer", "stimulus": "<p id=\"stim\">WASHER</p>", "conditions": [12, 800, "v", 24000], "internal_node_id": "0.0-133.0", "trial": 5, "time_elapsed": 898118, "serialpos": 2, "key_press": -1, "wordID": 1591, "type": "PRES_VIS", "trial_index": 187}, "uniqueid": "MTK3507:3L70J4KAZHTUG1KODCKS08G1DDJADM", "dateTime": 1520624429800}, {"current_trial": 188, "trialdata": {"rt": -1, "trial_type": "single-stim", "word": "razor", "stimulus": "<p id=\"stim\">RAZOR</p>", "conditions": [12, 800, "v", 24000], "internal_node_id": "0.0-134.0", "trial": 5, "time_elapsed": 899962, "serialpos": 3, "key_press": -1, "wordID": 1170, "type": "PRES_VIS", "trial_index": 188}, "uniqueid": "MTK3507:3L70J4KAZHTUG1KODCKS08G1DDJADM", "dateTime": 1520624431643}, {"current_trial": 189, "trialdata": {"rt": -1, "trial_type": "single-stim", "word": "seafood", "stimulus": "<p id=\"stim\">SEAFOOD</p>", "conditions": [12, 800, "v", 24000], "internal_node_id": "0.0-135.0", "trial": 5, "time_elapsed": 901789, "serialpos": 4, "key_press": -1, "wordID": 1259, "type": "PRES_VIS", "trial_index": 189}, "uniqueid": "MTK3507:3L70J4KAZHTUG1KODCKS08G1DDJADM", "dateTime": 1520624433471}, {"current_trial": 190, "trialdata": {"rt": -1, "trial_type": "single-stim", "word": "cafe", "stimulus": "<p id=\"stim\">CAFE</p>", "conditions": [12, 800, "v", 24000], "internal_node_id": "0.0-136.0", "trial": 5, "time_elapsed": 903670, "serialpos": 5, "key_press": -1, "wordID": 215, "type": "PRES_VIS", "trial_index": 190}, "uniqueid": "MTK3507:3L70J4KAZHTUG1KODCKS08G1DDJADM", "dateTime": 1520624435352}, {"current_trial": 191, "trialdata": {"rt": -1, "trial_type": "single-stim", "word": "brother", "stimulus": "<p id=\"stim\">BROTHER</p>", "conditions": [12, 800, "v", 24000], "internal_node_id": "0.0-137.0", "trial": 5, "time_elapsed": 905496, "serialpos": 6, "key_press": -1, "wordID": 178, "type": "PRES_VIS", "trial_index": 191}, "uniqueid": "MTK3507:3L70J4KAZHTUG1KODCKS08G1DDJADM", "dateTime": 1520624437178}, {"current_trial": 192, "trialdata": {"rt": -1, "trial_type": "single-stim", "word": "cousin", "stimulus": "<p id=\"stim\">COUSIN</p>", "conditions": [12, 800, "v", 24000], "internal_node_id": "0.0-138.0", "trial": 5, "time_elapsed": 907472, "serialpos": 7, "key_press": -1, "wordID": 391, "type": "PRES_VIS", "trial_index": 192}, "uniqueid": "MTK3507:3L70J4KAZHTUG1KODCKS08G1DDJADM", "dateTime": 1520624439153}, {"current_trial": 193, "trialdata": {"rt": -1, "trial_type": "single-stim", "word": "salmon", "stimulus": "<p id=\"stim\">SALMON</p>", "conditions": [12, 800, "v", 24000], "internal_node_id": "0.0-139.0", "trial": 5, "time_elapsed": 909471, "serialpos": 8, "key_press": -1, "wordID": 1226, "type": "PRES_VIS", "trial_index": 193}, "uniqueid": "MTK3507:3L70J4KAZHTUG1KODCKS08G1DDJADM", "dateTime": 1520624441153}, {"current_trial": 194, "trialdata": {"rt": -1, "trial_type": "single-stim", "word": "blouse", "stimulus": "<p id=\"stim\">BLOUSE</p>", "conditions": [12, 800, "v", 24000], "internal_node_id": "0.0-140.0", "trial": 5, "time_elapsed": 911265, "serialpos": 9, "key_press": -1, "wordID": 138, "type": "PRES_VIS", "trial_index": 194}, "uniqueid": "MTK3507:3L70J4KAZHTUG1KODCKS08G1DDJADM", "dateTime": 1520624442946}, {"current_trial": 195, "trialdata": {"rt": -1, "trial_type": "single-stim", "word": "taxi", "stimulus": "<p id=\"stim\">TAXI</p>", "conditions": [12, 800, "v", 24000], "internal_node_id": "0.0-141.0", "trial": 5, "time_elapsed": 913128, "serialpos": 10, "key_press": -1, "wordID": 1437, "type": "PRES_VIS", "trial_index": 195}, "uniqueid": "MTK3507:3L70J4KAZHTUG1KODCKS08G1DDJADM", "dateTime": 1520624444809}, {"current_trial": 196, "trialdata": {"rt": -1, "trial_type": "single-stim", "word": "turnip", "stimulus": "<p id=\"stim\">TURNIP</p>", "conditions": [12, 800, "v", 24000], "internal_node_id": "0.0-142.0", "trial": 5, "time_elapsed": 914749, "serialpos": 11, "key_press": -1, "wordID": 1520, "type": "PRES_VIS", "trial_index": 196}, "uniqueid": "MTK3507:3L70J4KAZHTUG1KODCKS08G1DDJADM", "dateTime": 1520624446431}, {"current_trial": 197, "trialdata": {"rt": -1, "trial_type": "single-stim", "stimulus": "", "internal_node_id": "0.0-143.0-0.0", "time_elapsed": 917037, "key_press": -1, "type": "PRE_RECALL_DELAY", "trial_index": 197}, "uniqueid": "MTK3507:3L70J4KAZHTUG1KODCKS08G1DDJADM", "dateTime": 1520624448724}, {"current_trial": 198, "trialdata": {"rt": -1000, "trial_type": "single-audio", "stimulus": "/static/audio/400Hz.wav", "internal_node_id": "0.0-144.0", "time_elapsed": 917547, "key_press": -1, "type": "PRE_RECALL_ALERT", "trial_index": 198}, "uniqueid": "MTK3507:3L70J4KAZHTUG1KODCKS08G1DDJADM", "dateTime": 1520624449229}, {"current_trial": 199, "trialdata": {"rt": [1821, 3424, 4433, 5526, 6805], "recwords": ["taxi", "turnip", "blouse", "brother", "cousin"], "key_times": [907, 1149, 1422, 1545, 1821, 2170, 2376, 2501, 2597, 2914, 3123, 3424, 3692, 3772, 3945, 4123, 4166, 4347, 4433, 4728, 4840, 4956, 5093, 5171, 5300, 5368, 5526, 5715, 5842, 6048, 6166, 6362, 6553, 6805], "trial_type": "free-recall", "conditions": [12, 800, "v", 24000], "internal_node_id": "0.0-145.0-0.0", "key_presses": [84, 65, 88, 73, 13, 84, 85, 82, 78, 73, 80, 13, 66, 76, 79, 85, 83, 69, 13, 66, 82, 79, 84, 72, 69, 82, 13, 67, 79, 85, 83, 73, 78, 13], "trial": 5, "time_elapsed": 977557, "type": "FREE_RECALL", "trial_index": 199}, "uniqueid": "MTK3507:3L70J4KAZHTUG1KODCKS08G1DDJADM", "dateTime": 1520624509256}, {"current_trial": 200, "trialdata": {"rt": 1712, "trial_type": "text", "internal_node_id": "0.0-146.0", "time_elapsed": 981292, "key_press": 32, "type": "INSTRUCTIONS", "trial_index": 200}, "uniqueid": "MTK3507:3L70J4KAZHTUG1KODCKS08G1DDJADM", "dateTime": 1520624512973}, {"current_trial": 201, "trialdata": {"rt": [11260, 13667, 16561, 19710, 22800], "trial_type": "math-distractor", "key_times": [10659, 10989, 11260, 13031, 13211, 13667, 16098, 16448, 16561, 19296, 19374, 19710, 22524, 22687, 22800], "responses": ["20", "19", "16", "19", "15"], "num2": [9, 3, 7, 7, 1, 3], "num3": [4, 9, 4, 5, 9, 1], "conditions": [24, 800, "v", 24000], "internal_node_id": "0.0-147.0", "key_presses": [50, 48, 13, 49, 57, 13, 49, 54, 13, 49, 57, 13, 49, 53, 13], "trial": 6, "time_elapsed": 1007307, "type": "DISTRACTOR", "trial_index": 201, "num1": [7, 7, 4, 8, 5, 4]}, "uniqueid": "MTK3507:3L70J4KAZHTUG1KODCKS08G1DDJADM", "dateTime": 1520624538988}, {"current_trial": 202, "trialdata": {"rt": -1, "trial_type": "single-stim", "stimulus": "<p id=\"stim\">10</p>", "internal_node_id": "0.0-148.0-0.0", "time_elapsed": 1010316, "key_press": -1, "trial_index": 202}, "uniqueid": "MTK3507:3L70J4KAZHTUG1KODCKS08G1DDJADM", "dateTime": 1520624541997}, {"current_trial": 203, "trialdata": {"rt": -1, "trial_type": "single-stim", "stimulus": "<p id=\"stim\">9</p>", "internal_node_id": "0.0-148.0-1.0", "time_elapsed": 1011326, "key_press": -1, "trial_index": 203}, "uniqueid": "MTK3507:3L70J4KAZHTUG1KODCKS08G1DDJADM", "dateTime": 1520624543009}, {"current_trial": 204, "trialdata": {"rt": -1, "trial_type": "single-stim", "stimulus": "<p id=\"stim\">8</p>", "internal_node_id": "0.0-148.0-2.0", "time_elapsed": 1012333, "key_press": -1, "trial_index": 204}, "uniqueid": "MTK3507:3L70J4KAZHTUG1KODCKS08G1DDJADM", "dateTime": 1520624544015}, {"current_trial": 205, "trialdata": {"rt": -1, "trial_type": "single-stim", "stimulus": "<p id=\"stim\">7</p>", "internal_node_id": "0.0-148.0-3.0", "time_elapsed": 1013341, "key_press": -1, "trial_index": 205}, "uniqueid": "MTK3507:3L70J4KAZHTUG1KODCKS08G1DDJADM", "dateTime": 1520624545024}, {"current_trial": 206, "trialdata": {"rt": -1, "trial_type": "single-stim", "stimulus": "<p id=\"stim\">6</p>", "internal_node_id": "0.0-148.0-4.0", "time_elapsed": 1014349, "key_press": -1, "trial_index": 206}, "uniqueid": "MTK3507:3L70J4KAZHTUG1KODCKS08G1DDJADM", "dateTime": 1520624546030}, {"current_trial": 207, "trialdata": {"rt": -1, "trial_type": "single-stim", "stimulus": "<p id=\"stim\">5</p>", "internal_node_id": "0.0-148.0-5.0", "time_elapsed": 1015356, "key_press": -1, "trial_index": 207}, "uniqueid": "MTK3507:3L70J4KAZHTUG1KODCKS08G1DDJADM", "dateTime": 1520624547037}, {"current_trial": 208, "trialdata": {"rt": -1, "trial_type": "single-stim", "stimulus": "<p id=\"stim\">4</p>", "internal_node_id": "0.0-148.0-6.0", "time_elapsed": 1016362, "key_press": -1, "trial_index": 208}, "uniqueid": "MTK3507:3L70J4KAZHTUG1KODCKS08G1DDJADM", "dateTime": 1520624548044}, {"current_trial": 209, "trialdata": {"rt": -1, "trial_type": "single-stim", "stimulus": "<p id=\"stim\">3</p>", "internal_node_id": "0.0-148.0-7.0", "time_elapsed": 1017369, "key_press": -1, "trial_index": 209}, "uniqueid": "MTK3507:3L70J4KAZHTUG1KODCKS08G1DDJADM", "dateTime": 1520624549050}, {"current_trial": 210, "trialdata": {"rt": -1, "trial_type": "single-stim", "stimulus": "<p id=\"stim\">2</p>", "internal_node_id": "0.0-148.0-8.0", "time_elapsed": 1018375, "key_press": -1, "trial_index": 210}, "uniqueid": "MTK3507:3L70J4KAZHTUG1KODCKS08G1DDJADM", "dateTime": 1520624550057}, {"current_trial": 211, "trialdata": {"rt": -1, "trial_type": "single-stim", "stimulus": "<p id=\"stim\">1</p>", "internal_node_id": "0.0-148.0-9.0", "time_elapsed": 1019380, "key_press": -1, "trial_index": 211}, "uniqueid": "MTK3507:3L70J4KAZHTUG1KODCKS08G1DDJADM", "dateTime": 1520624551062}, {"current_trial": 212, "trialdata": {"rt": -1, "trial_type": "single-stim", "stimulus": "<p id=\"stim\">+</p>", "internal_node_id": "0.0-149.0-0.0", "time_elapsed": 1020884, "key_press": -1, "type": "FIXATION", "trial_index": 212}, "uniqueid": "MTK3507:3L70J4KAZHTUG1KODCKS08G1DDJADM", "dateTime": 1520624552566}, {"current_trial": 213, "trialdata": {"rt": -1, "trial_type": "single-stim", "word": "switch", "stimulus": "<p id=\"stim\">SWITCH</p>", "conditions": [24, 800, "v", 24000], "internal_node_id": "0.0-150.0", "trial": 6, "time_elapsed": 1021688, "serialpos": 0, "key_press": -1, "wordID": 1421, "type": "PRES_VIS", "trial_index": 213}, "uniqueid": "MTK3507:3L70J4KAZHTUG1KODCKS08G1DDJADM", "dateTime": 1520624553371}, {"current_trial": 214, "trialdata": {"rt": -1, "trial_type": "single-stim", "word": "custard", "stimulus": "<p id=\"stim\">CUSTARD</p>", "conditions": [24, 800, "v", 24000], "internal_node_id": "0.0-151.0", "trial": 6, "time_elapsed": 1023520, "serialpos": 1, "key_press": -1, "wordID": 428, "type": "PRES_VIS", "trial_index": 214}, "uniqueid": "MTK3507:3L70J4KAZHTUG1KODCKS08G1DDJADM", "dateTime": 1520624555201}, {"current_trial": 215, "trialdata": {"rt": -1, "trial_type": "single-stim", "word": "braces", "stimulus": "<p id=\"stim\">BRACES</p>", "conditions": [24, 800, "v", 24000], "internal_node_id": "0.0-152.0", "trial": 6, "time_elapsed": 1025264, "serialpos": 2, "key_press": -1, "wordID": 163, "type": "PRES_VIS", "trial_index": 215}, "uniqueid": "MTK3507:3L70J4KAZHTUG1KODCKS08G1DDJADM", "dateTime": 1520624556945}, {"current_trial": 216, "trialdata": {"rt": -1, "trial_type": "single-stim", "word": "muffin", "stimulus": "<p id=\"stim\">MUFFIN</p>", "conditions": [24, 800, "v", 24000], "internal_node_id": "0.0-153.0", "trial": 6, "time_elapsed": 1027007, "serialpos": 3, "key_press": -1, "wordID": 928, "type": "PRES_VIS", "trial_index": 216}, "uniqueid": "MTK3507:3L70J4KAZHTUG1KODCKS08G1DDJADM", "dateTime": 1520624558689}, {"current_trial": 217, "trialdata": {"rt": -1, "trial_type": "single-stim", "word": "rattle", "stimulus": "<p id=\"stim\">RATTLE</p>", "conditions": [24, 800, "v", 24000], "internal_node_id": "0.0-154.0", "trial": 6, "time_elapsed": 1029008, "serialpos": 4, "key_press": -1, "wordID": 1169, "type": "PRES_VIS", "trial_index": 217}, "uniqueid": "MTK3507:3L70J4KAZHTUG1KODCKS08G1DDJADM", "dateTime": 1520624560690}, {"current_trial": 218, "trialdata": {"rt": -1, "trial_type": "single-stim", "word": "mars", "stimulus": "<p id=\"stim\">MARS</p>", "conditions": [24, 800, "v", 24000], "internal_node_id": "0.0-155.0", "trial": 6, "time_elapsed": 1030984, "serialpos": 5, "key_press": -1, "wordID": 872, "type": "PRES_VIS", "trial_index": 218}, "uniqueid": "MTK3507:3L70J4KAZHTUG1KODCKS08G1DDJADM", "dateTime": 1520624562665}, {"current_trial": 219, "trialdata": {"rt": -1, "trial_type": "single-stim", "word": "bunny", "stimulus": "<p id=\"stim\">BUNNY</p>", "conditions": [24, 800, "v", 24000], "internal_node_id": "0.0-156.0", "trial": 6, "time_elapsed": 1032881, "serialpos": 6, "key_press": -1, "wordID": 197, "type": "PRES_VIS", "trial_index": 219}, "uniqueid": "MTK3507:3L70J4KAZHTUG1KODCKS08G1DDJADM", "dateTime": 1520624564563}, {"current_trial": 220, "trialdata": {"rt": -1, "trial_type": "single-stim", "word": "puppy", "stimulus": "<p id=\"stim\">PUPPY</p>", "conditions": [24, 800, "v", 24000], "internal_node_id": "0.0-157.0", "trial": 6, "time_elapsed": 1034657, "serialpos": 7, "key_press": -1, "wordID": 1143, "type": "PRES_VIS", "trial_index": 220}, "uniqueid": "MTK3507:3L70J4KAZHTUG1KODCKS08G1DDJADM", "dateTime": 1520624566339}, {"current_trial": 221, "trialdata": {"rt": -1, "trial_type": "single-stim", "word": "river", "stimulus": "<p id=\"stim\">RIVER</p>", "conditions": [24, 800, "v", 24000], "internal_node_id": "0.0-158.0", "trial": 6, "time_elapsed": 1036423, "serialpos": 8, "key_press": -1, "wordID": 1193, "type": "PRES_VIS", "trial_index": 221}, "uniqueid": "MTK3507:3L70J4KAZHTUG1KODCKS08G1DDJADM", "dateTime": 1520624568105}, {"current_trial": 222, "trialdata": {"rt": -1, "trial_type": "single-stim", "word": "crevice", "stimulus": "<p id=\"stim\">CREVICE</p>", "conditions": [24, 800, "v", 24000], "internal_node_id": "0.0-159.0", "trial": 6, "time_elapsed": 1038202, "serialpos": 9, "key_press": -1, "wordID": 404, "type": "PRES_VIS", "trial_index": 222}, "uniqueid": "MTK3507:3L70J4KAZHTUG1KODCKS08G1DDJADM", "dateTime": 1520624569884}, {"current_trial": 223, "trialdata": {"rt": -1, "trial_type": "single-stim", "word": "doughnut", "stimulus": "<p id=\"stim\">DOUGHNUT</p>", "conditions": [24, 800, "v", 24000], "internal_node_id": "0.0-160.0", "trial": 6, "time_elapsed": 1039933, "serialpos": 10, "key_press": -1, "wordID": 489, "type": "PRES_VIS", "trial_index": 223}, "uniqueid": "MTK3507:3L70J4KAZHTUG1KODCKS08G1DDJADM", "dateTime": 1520624571614}, {"current_trial": 224, "trialdata": {"rt": -1, "trial_type": "single-stim", "word": "snail", "stimulus": "<p id=\"stim\">SNAIL</p>", "conditions": [24, 800, "v", 24000], "internal_node_id": "0.0-161.0", "trial": 6, "time_elapsed": 1041864, "serialpos": 11, "key_press": -1, "wordID": 1331, "type": "PRES_VIS", "trial_index": 224}, "uniqueid": "MTK3507:3L70J4KAZHTUG1KODCKS08G1DDJADM", "dateTime": 1520624573547}, {"current_trial": 225, "trialdata": {"rt": -1, "trial_type": "single-stim", "word": "valley", "stimulus": "<p id=\"stim\">VALLEY</p>", "conditions": [24, 800, "v", 24000], "internal_node_id": "0.0-162.0", "trial": 6, "time_elapsed": 1043659, "serialpos": 12, "key_press": -1, "wordID": 1544, "type": "PRES_VIS", "trial_index": 225}, "uniqueid": "MTK3507:3L70J4KAZHTUG1KODCKS08G1DDJADM", "dateTime": 1520624575340}, {"current_trial": 226, "trialdata": {"rt": -1, "trial_type": "single-stim", "word": "highway", "stimulus": "<p id=\"stim\">HIGHWAY</p>", "conditions": [24, 800, "v", 24000], "internal_node_id": "0.0-163.0", "trial": 6, "time_elapsed": 1045290, "serialpos": 13, "key_press": -1, "wordID": 706, "type": "PRES_VIS", "trial_index": 226}, "uniqueid": "MTK3507:3L70J4KAZHTUG1KODCKS08G1DDJADM", "dateTime": 1520624576972}, {"current_trial": 227, "trialdata": {"rt": -1, "trial_type": "single-stim", "word": "tractor", "stimulus": "<p id=\"stim\">TRACTOR</p>", "conditions": [24, 800, "v", 24000], "internal_node_id": "0.0-164.0", "trial": 6, "time_elapsed": 1046946, "serialpos": 14, "key_press": -1, "wordID": 1492, "type": "PRES_VIS", "trial_index": 227}, "uniqueid": "MTK3507:3L70J4KAZHTUG1KODCKS08G1DDJADM", "dateTime": 1520624578628}, {"current_trial": 228, "trialdata": {"rt": -1, "trial_type": "single-stim", "word": "couch", "stimulus": "<p id=\"stim\">COUCH</p>", "conditions": [24, 800, "v", 24000], "internal_node_id": "0.0-165.0", "trial": 6, "time_elapsed": 1048794, "serialpos": 15, "key_press": -1, "wordID": 385, "type": "PRES_VIS", "trial_index": 228}, "uniqueid": "MTK3507:3L70J4KAZHTUG1KODCKS08G1DDJADM", "dateTime": 1520624580475}, {"current_trial": 229, "trialdata": {"rt": -1, "trial_type": "single-stim", "word": "necklace", "stimulus": "<p id=\"stim\">NECKLACE</p>", "conditions": [24, 800, "v", 24000], "internal_node_id": "0.0-166.0", "trial": 6, "time_elapsed": 1050494, "serialpos": 16, "key_press": -1, "wordID": 939, "type": "PRES_VIS", "trial_index": 229}, "uniqueid": "MTK3507:3L70J4KAZHTUG1KODCKS08G1DDJADM", "dateTime": 1520624582176}, {"current_trial": 230, "trialdata": {"rt": -1, "trial_type": "single-stim", "word": "handbag", "stimulus": "<p id=\"stim\">HANDBAG</p>", "conditions": [24, 800, "v", 24000], "internal_node_id": "0.0-167.0", "trial": 6, "time_elapsed": 1052202, "serialpos": 17, "key_press": -1, "wordID": 683, "type": "PRES_VIS", "trial_index": 230}, "uniqueid": "MTK3507:3L70J4KAZHTUG1KODCKS08G1DDJADM", "dateTime": 1520624583888}, {"current_trial": 231, "trialdata": {"rt": -1, "trial_type": "single-stim", "word": "rifle", "stimulus": "<p id=\"stim\">RIFLE</p>", "conditions": [24, 800, "v", 24000], "internal_node_id": "0.0-168.0", "trial": 6, "time_elapsed": 1054041, "serialpos": 18, "key_press": -1, "wordID": 1191, "type": "PRES_VIS", "trial_index": 231}, "uniqueid": "MTK3507:3L70J4KAZHTUG1KODCKS08G1DDJADM", "dateTime": 1520624585723}, {"current_trial": 232, "trialdata": {"rt": -1, "trial_type": "single-stim", "word": "bank", "stimulus": "<p id=\"stim\">BANK</p>", "conditions": [24, 800, "v", 24000], "internal_node_id": "0.0-169.0", "trial": 6, "time_elapsed": 1056030, "serialpos": 19, "key_press": -1, "wordID": 82, "type": "PRES_VIS", "trial_index": 232}, "uniqueid": "MTK3507:3L70J4KAZHTUG1KODCKS08G1DDJADM", "dateTime": 1520624587712}, {"current_trial": 233, "trialdata": {"rt": -1, "trial_type": "single-stim", "word": "hood", "stimulus": "<p id=\"stim\">HOOD</p>", "conditions": [24, 800, "v", 24000], "internal_node_id": "0.0-170.0", "trial": 6, "time_elapsed": 1057873, "serialpos": 20, "key_press": -1, "wordID": 713, "type": "PRES_VIS", "trial_index": 233}, "uniqueid": "MTK3507:3L70J4KAZHTUG1KODCKS08G1DDJADM", "dateTime": 1520624589555}, {"current_trial": 234, "trialdata": {"rt": -1, "trial_type": "single-stim", "word": "table", "stimulus": "<p id=\"stim\">TABLE</p>", "conditions": [24, 800, "v", 24000], "internal_node_id": "0.0-171.0", "trial": 6, "time_elapsed": 1059663, "serialpos": 21, "key_press": -1, "wordID": 1425, "type": "PRES_VIS", "trial_index": 234}, "uniqueid": "MTK3507:3L70J4KAZHTUG1KODCKS08G1DDJADM", "dateTime": 1520624591345}, {"current_trial": 235, "trialdata": {"rt": -1, "trial_type": "single-stim", "word": "lightning", "stimulus": "<p id=\"stim\">LIGHTNING</p>", "conditions": [24, 800, "v", 24000], "internal_node_id": "0.0-172.0", "trial": 6, "time_elapsed": 1061449, "serialpos": 22, "key_press": -1, "wordID": 819, "type": "PRES_VIS", "trial_index": 235}, "uniqueid": "MTK3507:3L70J4KAZHTUG1KODCKS08G1DDJADM", "dateTime": 1520624593130}, {"current_trial": 236, "trialdata": {"rt": -1, "trial_type": "single-stim", "word": "banker", "stimulus": "<p id=\"stim\">BANKER</p>", "conditions": [24, 800, "v", 24000], "internal_node_id": "0.0-173.0", "trial": 6, "time_elapsed": 1063361, "serialpos": 23, "key_press": -1, "wordID": 83, "type": "PRES_VIS", "trial_index": 236}, "uniqueid": "MTK3507:3L70J4KAZHTUG1KODCKS08G1DDJADM", "dateTime": 1520624595043}, {"current_trial": 237, "trialdata": {"rt": -1, "trial_type": "single-stim", "stimulus": "", "internal_node_id": "0.0-174.0-0.0", "time_elapsed": 1065584, "key_press": -1, "type": "PRE_RECALL_DELAY", "trial_index": 237}, "uniqueid": "MTK3507:3L70J4KAZHTUG1KODCKS08G1DDJADM", "dateTime": 1520624597265}, {"current_trial": 238, "trialdata": {"rt": -1000, "trial_type": "single-audio", "stimulus": "/static/audio/400Hz.wav", "internal_node_id": "0.0-175.0", "time_elapsed": 1066088, "key_press": -1, "type": "PRE_RECALL_ALERT", "trial_index": 238}, "uniqueid": "MTK3507:3L70J4KAZHTUG1KODCKS08G1DDJADM", "dateTime": 1520624597770}, {"current_trial": 239, "trialdata": {"rt": [1688, 2766, 4538, 9161], "recwords": ["banker", "rifle", "lightning", "couch"], "key_times": [789, 921, 989, 1212, 1362, 1533, 1688, 1881, 2102, 2255, 2365, 2520, 2766, 3178, 3379, 3459, 3577, 3702, 3804, 3988, 4150, 4249, 4538, 8286, 8406, 8634, 8713, 8799, 9161, 13930, 14147, 14176, 14588, 14731, 14860, 15142, 15418], "trial_type": "free-recall", "conditions": [24, 800, "v", 24000], "internal_node_id": "0.0-176.0-0.0", "key_presses": [66, 65, 78, 75, 69, 82, 13, 82, 73, 70, 76, 69, 13, 76, 73, 71, 72, 84, 78, 73, 78, 71, 13, 67, 79, 85, 67, 72, 13, 67, 65, 78, 8, 8, 8, 8, 8], "trial": 6, "time_elapsed": 1126098, "type": "FREE_RECALL", "trial_index": 239}, "uniqueid": "MTK3507:3L70J4KAZHTUG1KODCKS08G1DDJADM", "dateTime": 1520624657801}, {"current_trial": 240, "trialdata": {"rt": 27631, "trial_type": "text", "internal_node_id": "0.0-177.0", "time_elapsed": 1155756, "key_press": 32, "type": "INSTRUCTIONS", "trial_index": 240}, "uniqueid": "MTK3507:3L70J4KAZHTUG1KODCKS08G1DDJADM", "dateTime": 1520624687439}, {"current_trial": 241, "trialdata": {"rt": [2587, 4390, 6020, 8016], "trial_type": "math-distractor", "key_times": [2228, 2458, 2587, 4306, 4390, 5829, 6020, 7877, 8016], "responses": ["14", "5", "4", "8"], "num2": [7, 3, 1, 4, 9], "num3": [6, 1, 1, 2, 7], "conditions": [12, 800, "v", 12000], "internal_node_id": "0.0-178.0", "key_presses": [49, 52, 13, 53, 13, 52, 13, 56, 13], "trial": 7, "time_elapsed": 1169769, "type": "DISTRACTOR", "trial_index": 241, "num1": [1, 1, 2, 2, 9]}, "uniqueid": "MTK3507:3L70J4KAZHTUG1KODCKS08G1DDJADM", "dateTime": 1520624701451}, {"current_trial": 242, "trialdata": {"rt": -1, "trial_type": "single-stim", "stimulus": "<p id=\"stim\">10</p>", "internal_node_id": "0.0-179.0-0.0", "time_elapsed": 1172778, "key_press": -1, "trial_index": 242}, "uniqueid": "MTK3507:3L70J4KAZHTUG1KODCKS08G1DDJADM", "dateTime": 1520624704459}, {"current_trial": 243, "trialdata": {"rt": -1, "trial_type": "single-stim", "stimulus": "<p id=\"stim\">9</p>", "internal_node_id": "0.0-179.0-1.0", "time_elapsed": 1173783, "key_press": -1, "trial_index": 243}, "uniqueid": "MTK3507:3L70J4KAZHTUG1KODCKS08G1DDJADM", "dateTime": 1520624705465}, {"current_trial": 244, "trialdata": {"rt": -1, "trial_type": "single-stim", "stimulus": "<p id=\"stim\">8</p>", "internal_node_id": "0.0-179.0-2.0", "time_elapsed": 1174788, "key_press": -1, "trial_index": 244}, "uniqueid": "MTK3507:3L70J4KAZHTUG1KODCKS08G1DDJADM", "dateTime": 1520624706470}, {"current_trial": 245, "trialdata": {"rt": -1, "trial_type": "single-stim", "stimulus": "<p id=\"stim\">7</p>", "internal_node_id": "0.0-179.0-3.0", "time_elapsed": 1175794, "key_press": -1, "trial_index": 245}, "uniqueid": "MTK3507:3L70J4KAZHTUG1KODCKS08G1DDJADM", "dateTime": 1520624707476}, {"current_trial": 246, "trialdata": {"rt": -1, "trial_type": "single-stim", "stimulus": "<p id=\"stim\">6</p>", "internal_node_id": "0.0-179.0-4.0", "time_elapsed": 1176799, "key_press": -1, "trial_index": 246}, "uniqueid": "MTK3507:3L70J4KAZHTUG1KODCKS08G1DDJADM", "dateTime": 1520624708480}, {"current_trial": 247, "trialdata": {"rt": -1, "trial_type": "single-stim", "stimulus": "<p id=\"stim\">5</p>", "internal_node_id": "0.0-179.0-5.0", "time_elapsed": 1177805, "key_press": -1, "trial_index": 247}, "uniqueid": "MTK3507:3L70J4KAZHTUG1KODCKS08G1DDJADM", "dateTime": 1520624709487}, {"current_trial": 248, "trialdata": {"rt": -1, "trial_type": "single-stim", "stimulus": "<p id=\"stim\">4</p>", "internal_node_id": "0.0-179.0-6.0", "time_elapsed": 1178810, "key_press": -1, "trial_index": 248}, "uniqueid": "MTK3507:3L70J4KAZHTUG1KODCKS08G1DDJADM", "dateTime": 1520624710493}, {"current_trial": 249, "trialdata": {"rt": -1, "trial_type": "single-stim", "stimulus": "<p id=\"stim\">3</p>", "internal_node_id": "0.0-179.0-7.0", "time_elapsed": 1179818, "key_press": -1, "trial_index": 249}, "uniqueid": "MTK3507:3L70J4KAZHTUG1KODCKS08G1DDJADM", "dateTime": 1520624711500}, {"current_trial": 250, "trialdata": {"rt": -1, "trial_type": "single-stim", "stimulus": "<p id=\"stim\">2</p>", "internal_node_id": "0.0-179.0-8.0", "time_elapsed": 1180824, "key_press": -1, "trial_index": 250}, "uniqueid": "MTK3507:3L70J4KAZHTUG1KODCKS08G1DDJADM", "dateTime": 1520624712506}, {"current_trial": 251, "trialdata": {"rt": -1, "trial_type": "single-stim", "stimulus": "<p id=\"stim\">1</p>", "internal_node_id": "0.0-179.0-9.0", "time_elapsed": 1181828, "key_press": -1, "trial_index": 251}, "uniqueid": "MTK3507:3L70J4KAZHTUG1KODCKS08G1DDJADM", "dateTime": 1520624713510}, {"current_trial": 252, "trialdata": {"rt": -1, "trial_type": "single-stim", "stimulus": "<p id=\"stim\">+</p>", "internal_node_id": "0.0-180.0-0.0", "time_elapsed": 1183339, "key_press": -1, "type": "FIXATION", "trial_index": 252}, "uniqueid": "MTK3507:3L70J4KAZHTUG1KODCKS08G1DDJADM", "dateTime": 1520624715021}, {"current_trial": 253, "trialdata": {"rt": -1, "trial_type": "single-stim", "word": "canal", "stimulus": "<p id=\"stim\">CANAL</p>", "conditions": [12, 800, "v", 12000], "internal_node_id": "0.0-181.0", "trial": 7, "time_elapsed": 1184146, "serialpos": 0, "key_press": -1, "wordID": 225, "type": "PRES_VIS", "trial_index": 253}, "uniqueid": "MTK3507:3L70J4KAZHTUG1KODCKS08G1DDJADM", "dateTime": 1520624715827}, {"current_trial": 254, "trialdata": {"rt": -1, "trial_type": "single-stim", "word": "stove", "stimulus": "<p id=\"stim\">STOVE</p>", "conditions": [12, 800, "v", 12000], "internal_node_id": "0.0-182.0", "trial": 7, "time_elapsed": 1186030, "serialpos": 1, "key_press": -1, "wordID": 1387, "type": "PRES_VIS", "trial_index": 254}, "uniqueid": "MTK3507:3L70J4KAZHTUG1KODCKS08G1DDJADM", "dateTime": 1520624717711}, {"current_trial": 255, "trialdata": {"rt": -1, "trial_type": "single-stim", "word": "teacher", "stimulus": "<p id=\"stim\">TEACHER</p>", "conditions": [12, 800, "v", 12000], "internal_node_id": "0.0-183.0", "trial": 7, "time_elapsed": 1187647, "serialpos": 2, "key_press": -1, "wordID": 1439, "type": "PRES_VIS", "trial_index": 255}, "uniqueid": "MTK3507:3L70J4KAZHTUG1KODCKS08G1DDJADM", "dateTime": 1520624719329}, {"current_trial": 256, "trialdata": {"rt": -1, "trial_type": "single-stim", "word": "liver", "stimulus": "<p id=\"stim\">LIVER</p>", "conditions": [12, 800, "v", 12000], "internal_node_id": "0.0-184.0", "trial": 7, "time_elapsed": 1189356, "serialpos": 3, "key_press": -1, "wordID": 832, "type": "PRES_VIS", "trial_index": 256}, "uniqueid": "MTK3507:3L70J4KAZHTUG1KODCKS08G1DDJADM", "dateTime": 1520624721037}, {"current_trial": 257, "trialdata": {"rt": -1, "trial_type": "single-stim", "word": "chapel", "stimulus": "<p id=\"stim\">CHAPEL</p>", "conditions": [12, 800, "v", 12000], "internal_node_id": "0.0-185.0", "trial": 7, "time_elapsed": 1191243, "serialpos": 4, "key_press": -1, "wordID": 279, "type": "PRES_VIS", "trial_index": 257}, "uniqueid": "MTK3507:3L70J4KAZHTUG1KODCKS08G1DDJADM", "dateTime": 1520624722925}, {"current_trial": 258, "trialdata": {"rt": -1, "trial_type": "single-stim", "word": "tribe", "stimulus": "<p id=\"stim\">TRIBE</p>", "conditions": [12, 800, 