{"assignmentId": "3K772S5NP9IEIU62FD54NCLQQ2DEHX", "workerId": "MTK3740", "questiondata": {"origin": "United States", "strat-rehearsal": "100", "marital": "Single", "education": "Some college", "ethnicity": "Not Hispanic", "color_depth": 24, "distracted": "No", "wrote-notes": "No", "strat-other": "", "screen_width": 1360, "avail_screen_width": 1360, "avail_screen_height": 728, "strat-image": "100", "language": "English", "gender": "Male", "age": "27", "gender_other": "", "race": ["Black"], "strat-categorize": "100", "pixel_depth": 24, "strat-spatial": "100", "strat-story": "100", "race_other": "", "screen_height": 768}, "bonus": 0, "hitId": "3P520RYKCHDH4DLZE9EYDD8JMV55U9", "counterbalance": 1222, "useragent": "Mozilla/5.0 (Windows NT 10.0; WOW64) AppleWebKit/537.36 (KHTML, like Gecko) Chrome/64.0.3282.186 Safari/537.36", "eventdata": [{"eventtype": "initialized", "interval": 0, "value": null, "timestamp": 1521216198376}, {"eventtype": "window_resize", "interval": 0, "value": [1360, 728], "timestamp": 1521216198376}, {"eventtype": "focus", "interval": 3089286, "value": "off", "timestamp": 1521219287662}, {"eventtype": "focus", "interval": 3169, "value": "on", "timestamp": 1521219290831}], "data": [{"current_trial": 0, "trialdata": {"rt": 4180, "trial_type": "text", "internal_node_id": "0.0-0.0", "time_elapsed": 4188, "key_press": 72, "type": "INSTRUCTIONS", "trial_index": 0}, "uniqueid": "MTK3740:3K772S5NP9IEIU62FD54NCLQQ2DEHX", "dateTime": 1521216203565}, {"current_trial": 1, "trialdata": {"rt": 18, "trial_type": "text", "internal_node_id": "0.0-1.0", "time_elapsed": 4212, "key_press": 74, "type": "INSTRUCTIONS", "trial_index": 1}, "uniqueid": "MTK3740:3K772S5NP9IEIU62FD54NCLQQ2DEHX", "dateTime": 1521216203586}, {"current_trial": 2, "trialdata": {"rt": [22516], "trial_type": "audio-test", "responses": ["ocean"], "internal_node_id": "0.0-2.0", "time_elapsed": 26754, "type": "AUDIO_TEST", "trial_index": 2}, "uniqueid": "MTK3740:3K772S5NP9IEIU62FD54NCLQQ2DEHX", "dateTime": 1521216226129}, {"current_trial": 3, "trialdata": {"rt": [14429], "trial_type": "audio-test", "responses": ["crystal"], "internal_node_id": "0.0-3.0", "time_elapsed": 41194, "type": "AUDIO_TEST", "trial_index": 3}, "uniqueid": "MTK3740:3K772S5NP9IEIU62FD54NCLQQ2DEHX", "dateTime": 1521216240569}, {"current_trial": 4, "trialdata": {"rt": [8392], "trial_type": "audio-test", "responses": ["spice"], "internal_node_id": "0.0-4.0", "time_elapsed": 49597, "type": "AUDIO_TEST", "trial_index": 4}, "uniqueid": "MTK3740:3K772S5NP9IEIU62FD54NCLQQ2DEHX", "dateTime": 1521216248971}, {"current_trial": 5, "trialdata": {"rt": 64461, "trial_type": "survey-text", "responses": "{\"Q0\":\"2am\",\"Q1\":\"10am\",\"Q2\":\"4\"}", "internal_node_id": "0.0-5.0", "time_elapsed": 114815, "type": "SLEEP_SURVEY", "trial_index": 5}, "uniqueid": "MTK3740:3K772S5NP9IEIU62FD54NCLQQ2DEHX", "dateTime": 1521216314189}, {"current_trial": 6, "trialdata": {"rt": 61826, "trial_type": "text", "internal_node_id": "0.0-6.0", "time_elapsed": 177641, "key_press": 78, "type": "INSTRUCTIONS", "trial_index": 6}, "uniqueid": "MTK3740:3K772S5NP9IEIU62FD54NCLQQ2DEHX", "dateTime": 1521216377015}, {"current_trial": 7, "trialdata": {"rt": 31028, "trial_type": "text", "internal_node_id": "0.0-7.0", "time_elapsed": 209171, "key_press": 78, "type": "INSTRUCTIONS", "trial_index": 7}, "uniqueid": "MTK3740:3K772S5NP9IEIU62FD54NCLQQ2DEHX", "dateTime": 1521216408545}, {"current_trial": 8, "trialdata": {"rt": 21030, "trial_type": "text", "internal_node_id": "0.0-8.0", "time_elapsed": 230703, "key_press": 78, "type": "INSTRUCTIONS", "trial_index": 8}, "uniqueid": "MTK3740:3K772S5NP9IEIU62FD54NCLQQ2DEHX", "dateTime": 1521216430077}, {"current_trial": 9, "trialdata": {"rt": [5704, 9330, 14043], "trial_type": "math-distractor", "key_times": [3794, 4231, 5704, 8603, 8769, 9330, 13332, 13651, 14043], "responses": ["12", "11", "14"], "num2": [4, 6, 4, 7], "num3": [4, 1, 7, 8], "conditions": [18, 1200, "v", 18000], "internal_node_id": "0.0-9.0", "key_presses": [49, 50, 13, 49, 49, 13, 49, 52, 13], "trial": 0, "time_elapsed": 249715, "type": "DISTRACTOR", "trial_index": 9, "num1": [4, 4, 3, 9]}, "uniqueid": "MTK3740:3K772S5NP9IEIU62FD54NCLQQ2DEHX", "dateTime": 1521216449089}, {"current_trial": 10, "trialdata": {"rt": -1, "trial_type": "single-stim", "stimulus": "<p id=\"stim\">10</p>", "internal_node_id": "0.0-10.0-0.0", "time_elapsed": 252719, "key_press": -1, "trial_index": 10}, "uniqueid": "MTK3740:3K772S5NP9IEIU62FD54NCLQQ2DEHX", "dateTime": 1521216452093}, {"current_trial": 11, "trialdata": {"rt": -1, "trial_type": "single-stim", "stimulus": "<p id=\"stim\">9</p>", "internal_node_id": "0.0-10.0-1.0", "time_elapsed": 253720, "key_press": -1, "trial_index": 11}, "uniqueid": "MTK3740:3K772S5NP9IEIU62FD54NCLQQ2DEHX", "dateTime": 1521216453094}, {"current_trial": 12, "trialdata": {"rt": -1, "trial_type": "single-stim", "stimulus": "<p id=\"stim\">8</p>", "internal_node_id": "0.0-10.0-2.0", "time_elapsed": 254724, "key_press": -1, "trial_index": 12}, "uniqueid": "MTK3740:3K772S5NP9IEIU62FD54NCLQQ2DEHX", "dateTime": 1521216454098}, {"current_trial": 13, "trialdata": {"rt": -1, "trial_type": "single-stim", "stimulus": "<p id=\"stim\">7</p>", "internal_node_id": "0.0-10.0-3.0", "time_elapsed": 255725, "key_press": -1, "trial_index": 13}, "uniqueid": "MTK3740:3K772S5NP9IEIU62FD54NCLQQ2DEHX", "dateTime": 1521216455099}, {"current_trial": 14, "trialdata": {"rt": -1, "trial_type": "single-stim", "stimulus": "<p id=\"stim\">6</p>", "internal_node_id": "0.0-10.0-4.0", "time_elapsed": 256728, "key_press": -1, "trial_index": 14}, "uniqueid": "MTK3740:3K772S5NP9IEIU62FD54NCLQQ2DEHX", "dateTime": 1521216456102}, {"current_trial": 15, "trialdata": {"rt": -1, "trial_type": "single-stim", "stimulus": "<p id=\"stim\">5</p>", "internal_node_id": "0.0-10.0-5.0", "time_elapsed": 257730, "key_press": -1, "trial_index": 15}, "uniqueid": "MTK3740:3K772S5NP9IEIU62FD54NCLQQ2DEHX", "dateTime": 1521216457104}, {"current_trial": 16, "trialdata": {"rt": -1, "trial_type": "single-stim", "stimulus": "<p id=\"stim\">4</p>", "internal_node_id": "0.0-10.0-6.0", "time_elapsed": 258732, "key_press": -1, "trial_index": 16}, "uniqueid": "MTK3740:3K772S5NP9IEIU62FD54NCLQQ2DEHX", "dateTime": 1521216458106}, {"current_trial": 17, "trialdata": {"rt": -1, "trial_type": "single-stim", "stimulus": "<p id=\"stim\">3</p>", "internal_node_id": "0.0-10.0-7.0", "time_elapsed": 259737, "key_press": -1, "trial_index": 17}, "uniqueid": "MTK3740:3K772S5NP9IEIU62FD54NCLQQ2DEHX", "dateTime": 1521216459112}, {"current_trial": 18, "trialdata": {"rt": -1, "trial_type": "single-stim", "stimulus": "<p id=\"stim\">2</p>", "internal_node_id": "0.0-10.0-8.0", "time_elapsed": 260742, "key_press": -1, "trial_index": 18}, "uniqueid": "MTK3740:3K772S5NP9IEIU62FD54NCLQQ2DEHX", "dateTime": 1521216460116}, {"current_trial": 19, "trialdata": {"rt": -1, "trial_type": "single-stim", "stimulus": "<p id=\"stim\">1</p>", "internal_node_id": "0.0-10.0-9.0", "time_elapsed": 261745, "key_press": -1, "trial_index": 19}, "uniqueid": "MTK3740:3K772S5NP9IEIU62FD54NCLQQ2DEHX", "dateTime": 1521216461119}, {"current_trial": 20, "trialdata": {"rt": -1, "trial_type": "single-stim", "stimulus": "<p id=\"stim\">+</p>", "internal_node_id": "0.0-11.0-0.0", "time_elapsed": 263247, "key_press": -1, "type": "FIXATION", "trial_index": 20}, "uniqueid": "MTK3740:3K772S5NP9IEIU62FD54NCLQQ2DEHX", "dateTime": 1521216462621}, {"current_trial": 21, "trialdata": {"rt": -1, "trial_type": "single-stim", "word": "plaza", "stimulus": "<p id=\"stim\">PLAZA</p>", "conditions": [18, 1200, "v", 18000], "internal_node_id": "0.0-12.0", "trial": 0, "time_elapsed": 264448, "serialpos": 0, "key_press": -1, "wordID": 1087, "type": "PRES_VIS", "trial_index": 21}, "uniqueid": "MTK3740:3K772S5NP9IEIU62FD54NCLQQ2DEHX", "dateTime": 1521216463822}, {"current_trial": 22, "trialdata": {"rt": -1, "trial_type": "single-stim", "word": "pecan", "stimulus": "<p id=\"stim\">PECAN</p>", "conditions": [18, 1200, "v", 18000], "internal_node_id": "0.0-13.0", "trial": 0, "time_elapsed": 266753, "serialpos": 1, "key_press": -1, "wordID": 1035, "type": "PRES_VIS", "trial_index": 22}, "uniqueid": "MTK3740:3K772S5NP9IEIU62FD54NCLQQ2DEHX", "dateTime": 1521216466127}, {"current_trial": 23, "trialdata": {"rt": -1, "trial_type": "single-stim", "word": "turkey", "stimulus": "<p id=\"stim\">TURKEY</p>", "conditions": [18, 1200, "v", 18000], "internal_node_id": "0.0-14.0", "trial": 0, "time_elapsed": 269089, "serialpos": 2, "key_press": -1, "wordID": 1519, "type": "PRES_VIS", "trial_index": 23}, "uniqueid": "MTK3740:3K772S5NP9IEIU62FD54NCLQQ2DEHX", "dateTime": 1521216468463}, {"current_trial": 24, "trialdata": {"rt": -1, "trial_type": "single-stim", "word": "robin", "stimulus": "<p id=\"stim\">ROBIN</p>", "conditions": [18, 1200, "v", 18000], "internal_node_id": "0.0-15.0", "trial": 0, "time_elapsed": 271113, "serialpos": 3, "key_press": -1, "wordID": 1198, "type": "PRES_VIS", "trial_index": 24}, "uniqueid": "MTK3740:3K772S5NP9IEIU62FD54NCLQQ2DEHX", "dateTime": 1521216470487}, {"current_trial": 25, "trialdata": {"rt": -1, "trial_type": "single-stim", "word": "contract", "stimulus": "<p id=\"stim\">CONTRACT</p>", "conditions": [18, 1200, "v", 18000], "internal_node_id": "0.0-16.0", "trial": 0, "time_elapsed": 273412, "serialpos": 4, "key_press": -1, "wordID": 367, "type": "PRES_VIS", "trial_index": 25}, "uniqueid": "MTK3740:3K772S5NP9IEIU62FD54NCLQQ2DEHX", "dateTime": 1521216472786}, {"current_trial": 26, "trialdata": {"rt": -1, "trial_type": "single-stim", "word": "flute", "stimulus": "<p id=\"stim\">FLUTE</p>", "conditions": [18, 1200, "v", 18000], "internal_node_id": "0.0-17.0", "trial": 0, "time_elapsed": 275673, "serialpos": 5, "key_press": -1, "wordID": 584, "type": "PRES_VIS", "trial_index": 26}, "uniqueid": "MTK3740:3K772S5NP9IEIU62FD54NCLQQ2DEHX", "dateTime": 1521216475047}, {"current_trial": 27, "trialdata": {"rt": -1, "trial_type": "single-stim", "word": "cousin", "stimulus": "<p id=\"stim\">COUSIN</p>", "conditions": [18, 1200, "v", 18000], "internal_node_id": "0.0-18.0", "trial": 0, "time_elapsed": 277974, "serialpos": 6, "key_press": -1, "wordID": 391, "type": "PRES_VIS", "trial_index": 27}, "uniqueid": "MTK3740:3K772S5NP9IEIU62FD54NCLQQ2DEHX", "dateTime": 1521216477348}, {"current_trial": 28, "trialdata": {"rt": -1, "trial_type": "single-stim", "word": "pizza", "stimulus": "<p id=\"stim\">PIZZA</p>", "conditions": [18, 1200, "v", 18000], "internal_node_id": "0.0-19.0", "trial": 0, "time_elapsed": 280089, "serialpos": 7, "key_press": -1, "wordID": 1078, "type": "PRES_VIS", "trial_index": 28}, "uniqueid": "MTK3740:3K772S5NP9IEIU62FD54NCLQQ2DEHX", "dateTime": 1521216479463}, {"current_trial": 29, "trialdata": {"rt": -1, "trial_type": "single-stim", "word": "clothes", "stimulus": "<p id=\"stim\">CLOTHES</p>", "conditions": [18, 1200, "v", 18000], "internal_node_id": "0.0-20.0", "trial": 0, "time_elapsed": 282147, "serialpos": 8, "key_press": -1, "wordID": 326, "type": "PRES_VIS", "trial_index": 29}, "uniqueid": "MTK3740:3K772S5NP9IEIU62FD54NCLQQ2DEHX", "dateTime": 1521216481521}, {"current_trial": 30, "trialdata": {"rt": -1, "trial_type": "single-stim", "word": "pimple", "stimulus": "<p id=\"stim\">PIMPLE</p>", "conditions": [18, 1200, "v", 18000], "internal_node_id": "0.0-21.0", "trial": 0, "time_elapsed": 284153, "serialpos": 9, "key_press": -1, "wordID": 1070, "type": "PRES_VIS", "trial_index": 30}, "uniqueid": "MTK3740:3K772S5NP9IEIU62FD54NCLQQ2DEHX", "dateTime": 1521216483527}, {"current_trial": 31, "trialdata": {"rt": -1, "trial_type": "single-stim", "word": "milk", "stimulus": "<p id=\"stim\">MILK</p>", "conditions": [18, 1200, "v", 18000], "internal_node_id": "0.0-22.0", "trial": 0, "time_elapsed": 286359, "serialpos": 10, "key_press": -1, "wordID": 894, "type": "PRES_VIS", "trial_index": 31}, "uniqueid": "MTK3740:3K772S5NP9IEIU62FD54NCLQQ2DEHX", "dateTime": 1521216485733}, {"current_trial": 32, "trialdata": {"rt": -1, "trial_type": "single-stim", "word": "nomad", "stimulus": "<p id=\"stim\">NOMAD</p>", "conditions": [18, 1200, "v", 18000], "internal_node_id": "0.0-23.0", "trial": 0, "time_elapsed": 288656, "serialpos": 11, "key_press": -1, "wordID": 954, "type": "PRES_VIS", "trial_index": 32}, "uniqueid": "MTK3740:3K772S5NP9IEIU62FD54NCLQQ2DEHX", "dateTime": 1521216488030}, {"current_trial": 33, "trialdata": {"rt": -1, "trial_type": "single-stim", "word": "airport", "stimulus": "<p id=\"stim\">AIRPORT</p>", "conditions": [18, 1200, "v", 18000], "internal_node_id": "0.0-24.0", "trial": 0, "time_elapsed": 290989, "serialpos": 12, "key_press": -1, "wordID": 12, "type": "PRES_VIS", "trial_index": 33}, "uniqueid": "MTK3740:3K772S5NP9IEIU62FD54NCLQQ2DEHX", "dateTime": 1521216490363}, {"current_trial": 34, "trialdata": {"rt": -1, "trial_type": "single-stim", "word": "crown", "stimulus": "<p id=\"stim\">CROWN</p>", "conditions": [18, 1200, "v", 18000], "internal_node_id": "0.0-25.0", "trial": 0, "time_elapsed": 293350, "serialpos": 13, "key_press": -1, "wordID": 414, "type": "PRES_VIS", "trial_index": 34}, "uniqueid": "MTK3740:3K772S5NP9IEIU62FD54NCLQQ2DEHX", "dateTime": 1521216492724}, {"current_trial": 35, "trialdata": {"rt": -1, "trial_type": "single-stim", "word": "spouse", "stimulus": "<p id=\"stim\">SPOUSE</p>", "conditions": [18, 1200, "v", 18000], "internal_node_id": "0.0-26.0", "trial": 0, "time_elapsed": 295499, "serialpos": 14, "key_press": -1, "wordID": 1357, "type": "PRES_VIS", "trial_index": 35}, "uniqueid": "MTK3740:3K772S5NP9IEIU62FD54NCLQQ2DEHX", "dateTime": 1521216494873}, {"current_trial": 36, "trialdata": {"rt": -1, "trial_type": "single-stim", "word": "honey", "stimulus": "<p id=\"stim\">HONEY</p>", "conditions": [18, 1200, "v", 18000], "internal_node_id": "0.0-27.0", "trial": 0, "time_elapsed": 297602, "serialpos": 15, "key_press": -1, "wordID": 712, "type": "PRES_VIS", "trial_index": 36}, "uniqueid": "MTK3740:3K772S5NP9IEIU62FD54NCLQQ2DEHX", "dateTime": 1521216496976}, {"current_trial": 37, "trialdata": {"rt": -1, "trial_type": "single-stim", "word": "teacher", "stimulus": "<p id=\"stim\">TEACHER</p>", "conditions": [18, 1200, "v", 18000], "internal_node_id": "0.0-28.0", "trial": 0, "time_elapsed": 299789, "serialpos": 16, "key_press": -1, "wordID": 1439, "type": "PRES_VIS", "trial_index": 37}, "uniqueid": "MTK3740:3K772S5NP9IEIU62FD54NCLQQ2DEHX", "dateTime": 1521216499164}, {"current_trial": 38, "trialdata": {"rt": -1, "trial_type": "single-stim", "word": "washer", "stimulus": "<p id=\"stim\">WASHER</p>", "conditions": [18, 1200, "v", 18000], "internal_node_id": "0.0-29.0", "trial": 0, "time_elapsed": 302192, "serialpos": 17, "key_press": -1, "wordID": 1591, "type": "PRES_VIS", "trial_index": 38}, "uniqueid": "MTK3740:3K772S5NP9IEIU62FD54NCLQQ2DEHX", "dateTime": 1521216501568}, {"current_trial": 39, "trialdata": {"rt": -1, "trial_type": "single-stim", "stimulus": "", "internal_node_id": "0.0-30.0-0.0", "time_elapsed": 304504, "key_press": -1, "type": "PRE_RECALL_DELAY", "trial_index": 39}, "uniqueid": "MTK3740:3K772S5NP9IEIU62FD54NCLQQ2DEHX", "dateTime": 1521216503879}, {"current_trial": 40, "trialdata": {"rt": -1000, "trial_type": "single-audio", "stimulus": "/static/audio/400Hz.wav", "internal_node_id": "0.0-31.0", "time_elapsed": 305015, "key_press": -1, "type": "PRE_RECALL_ALERT", "trial_index": 40}, "uniqueid": "MTK3740:3K772S5NP9IEIU62FD54NCLQQ2DEHX", "dateTime": 1521216504389}, {"current_trial": 41, "trialdata": {"rt": [5550, 7874, 11596, 14440, 17595, 27783, 45713, 59323], "recwords": ["plaza", "pecan", "turkey", "flute", "nomad", "robin", "pecan", "nomad"], "key_times": [2635, 3156, 3213, 3651, 3836, 4349, 4512, 4823, 5117, 5550, 6325, 6451, 6958, 7131, 7370, 7874, 9734, 9940, 10313, 10657, 10791, 11012, 11596, 12945, 13032, 13236, 13794, 13964, 14440, 16124, 16317, 16641, 16783, 16908, 17595, 26545, 26623, 26963, 27106, 27303, 27783, 44596, 44757, 45076, 45225, 45363, 45713, 57509, 57691, 58088, 58219, 58461, 59323], "trial_type": "free-recall", "conditions": [18, 1200, "v", 18000], "internal_node_id": "0.0-32.0-0.0", "key_presses": [80, 65, 76, 8, 8, 76, 65, 90, 65, 13, 80, 69, 67, 65, 78, 13, 84, 85, 82, 75, 69, 89, 13, 70, 76, 85, 84, 69, 13, 78, 79, 77, 65, 68, 13, 82, 79, 66, 73, 78, 13, 80, 69, 67, 65, 78, 13, 78, 79, 77, 65, 68, 13], "trial": 0, "time_elapsed": 365023, "type": "FREE_RECALL", "trial_index": 41}, "uniqueid": "MTK3740:3K772S5NP9IEIU62FD54NCLQQ2DEHX", "dateTime": 1521216564403}, {"current_trial": 42, "trialdata": {"rt": 2375, "trial_type": "text", "internal_node_id": "0.0-33.0", "time_elapsed": 369405, "key_press": 32, "type": "INSTRUCTIONS", "trial_index": 42}, "uniqueid": "MTK3740:3K772S5NP9IEIU62FD54NCLQQ2DEHX", "dateTime": 1521216568779}, {"current_trial": 43, "trialdata": {"rt": [5839, 9975, 13625, 17308], "trial_type": "math-distractor", "key_times": [4922, 5455, 5839, 9449, 9762, 9975, 12828, 13387, 13625, 16341, 17076, 17308], "responses": ["14", "16", "27", "18"], "num2": [2, 9, 9, 8, 4], "num3": [3, 2, 9, 9, 3], "conditions": [18, 1200, "v", 18000], "internal_node_id": "0.0-34.0", "key_presses": [49, 52, 13, 49, 54, 13, 50, 55, 13, 49, 56, 13], "trial": 1, "time_elapsed": 389411, "type": "DISTRACTOR", "trial_index": 43, "num1": [9, 5, 9, 1, 2]}, "uniqueid": "MTK3740:3K772S5NP9IEIU62FD54NCLQQ2DEHX", "dateTime": 1521216588785}, {"current_trial": 44, "trialdata": {"rt": -1, "trial_type": "single-stim", "stimulus": "<p id=\"stim\">10</p>", "internal_node_id": "0.0-35.0-0.0", "time_elapsed": 392412, "key_press": -1, "trial_index": 44}, "uniqueid": "MTK3740:3K772S5NP9IEIU62FD54NCLQQ2DEHX", "dateTime": 1521216591786}, {"current_trial": 45, "trialdata": {"rt": -1, "trial_type": "single-stim", "stimulus": "<p id=\"stim\">9</p>", "internal_node_id": "0.0-35.0-1.0", "time_elapsed": 393413, "key_press": -1, "trial_index": 45}, "uniqueid": "MTK3740:3K772S5NP9IEIU62FD54NCLQQ2DEHX", "dateTime": 1521216592787}, {"current_trial": 46, "trialdata": {"rt": -1, "trial_type": "single-stim", "stimulus": "<p id=\"stim\">8</p>", "internal_node_id": "0.0-35.0-2.0", "time_elapsed": 394414, "key_press": -1, "trial_index": 46}, "uniqueid": "MTK3740:3K772S5NP9IEIU62FD54NCLQQ2DEHX", "dateTime": 1521216593788}, {"current_trial": 47, "trialdata": {"rt": -1, "trial_type": "single-stim", "stimulus": "<p id=\"stim\">7</p>", "internal_node_id": "0.0-35.0-3.0", "time_elapsed": 395416, "key_press": -1, "trial_index": 47}, "uniqueid": "MTK3740:3K772S5NP9IEIU62FD54NCLQQ2DEHX", "dateTime": 1521216594790}, {"current_trial": 48, "trialdata": {"rt": -1, "trial_type": "single-stim", "stimulus": "<p id=\"stim\">6</p>", "internal_node_id": "0.0-35.0-4.0", "time_elapsed": 396418, "key_press": -1, "trial_index": 48}, "uniqueid": "MTK3740:3K772S5NP9IEIU62FD54NCLQQ2DEHX", "dateTime": 1521216595792}, {"current_trial": 49, "trialdata": {"rt": -1, "trial_type": "single-stim", "stimulus": "<p id=\"stim\">5</p>", "internal_node_id": "0.0-35.0-5.0", "time_elapsed": 397419, "key_press": -1, "trial_index": 49}, "uniqueid": "MTK3740:3K772S5NP9IEIU62FD54NCLQQ2DEHX", "dateTime": 1521216596793}, {"current_trial": 50, "trialdata": {"rt": -1, "trial_type": "single-stim", "stimulus": "<p id=\"stim\">4</p>", "internal_node_id": "0.0-35.0-6.0", "time_elapsed": 398419, "key_press": -1, "trial_index": 50}, "uniqueid": "MTK3740:3K772S5NP9IEIU62FD54NCLQQ2DEHX", "dateTime": 1521216597793}, {"current_trial": 51, "trialdata": {"rt": -1, "trial_type": "single-stim", "stimulus": "<p id=\"stim\">3</p>", "internal_node_id": "0.0-35.0-7.0", "time_elapsed": 399421, "key_press": -1, "trial_index": 51}, "uniqueid": "MTK3740:3K772S5NP9IEIU62FD54NCLQQ2DEHX", "dateTime": 1521216598795}, {"current_trial": 52, "trialdata": {"rt": -1, "trial_type": "single-stim", "stimulus": "<p id=\"stim\">2</p>", "internal_node_id": "0.0-35.0-8.0", "time_elapsed": 400421, "key_press": -1, "trial_index": 52}, "uniqueid": "MTK3740:3K772S5NP9IEIU62FD54NCLQQ2DEHX", "dateTime": 1521216599795}, {"current_trial": 53, "trialdata": {"rt": -1, "trial_type": "single-stim", "stimulus": "<p id=\"stim\">1</p>", "internal_node_id": "0.0-35.0-9.0", "time_elapsed": 401421, "key_press": -1, "trial_index": 53}, "uniqueid": "MTK3740:3K772S5NP9IEIU62FD54NCLQQ2DEHX", "dateTime": 1521216600795}, {"current_trial": 54, "trialdata": {"rt": -1, "trial_type": "single-stim", "stimulus": "<p id=\"stim\">+</p>", "internal_node_id": "0.0-36.0-0.0", "time_elapsed": 402925, "key_press": -1, "type": "FIXATION", "trial_index": 54}, "uniqueid": "MTK3740:3K772S5NP9IEIU62FD54NCLQQ2DEHX", "dateTime": 1521216602299}, {"current_trial": 55, "trialdata": {"rt": -1, "trial_type": "single-stim", "word": "hatchet", "stimulus": "<p id=\"stim\">HATCHET</p>", "conditions": [18, 1200, "v", 18000], "internal_node_id": "0.0-37.0", "trial": 1, "time_elapsed": 404126, "serialpos": 0, "key_press": -1, "wordID": 690, "type": "PRES_VIS", "trial_index": 55}, "uniqueid": "MTK3740:3K772S5NP9IEIU62FD54NCLQQ2DEHX", "dateTime": 1521216603500}, {"current_trial": 56, "trialdata": {"rt": -1, "trial_type": "single-stim", "word": "waitress", "stimulus": "<p id=\"stim\">WAITRESS</p>", "conditions": [18, 1200, "v", 18000], "internal_node_id": "0.0-38.0", "trial": 1, "time_elapsed": 406432, "serialpos": 1, "key_press": -1, "wordID": 1580, "type": "PRES_VIS", "trial_index": 56}, "uniqueid": "MTK3740:3K772S5NP9IEIU62FD54NCLQQ2DEHX", "dateTime": 1521216605806}, {"current_trial": 57, "trialdata": {"rt": -1, "trial_type": "single-stim", "word": "trombone", "stimulus": "<p id=\"stim\">TROMBONE</p>", "conditions": [18, 1200, "v", 18000], "internal_node_id": "0.0-39.0", "trial": 1, "time_elapsed": 408718, "serialpos": 2, "key_press": -1, "wordID": 1507, "type": "PRES_VIS", "trial_index": 57}, "uniqueid": "MTK3740:3K772S5NP9IEIU62FD54NCLQQ2DEHX", "dateTime": 1521216608092}, {"current_trial": 58, "trialdata": {"rt": -1, "trial_type": "single-stim", "word": "tablet", "stimulus": "<p id=\"stim\">TABLET</p>", "conditions": [18, 1200, "v", 18000], "internal_node_id": "0.0-40.0", "trial": 1, "time_elapsed": 410858, "serialpos": 3, "key_press": -1, "wordID": 1426, "type": "PRES_VIS", "trial_index": 58}, "uniqueid": "MTK3740:3K772S5NP9IEIU62FD54NCLQQ2DEHX", "dateTime": 1521216610232}, {"current_trial": 59, "trialdata": {"rt": -1, "trial_type": "single-stim", "word": "statue", "stimulus": "<p id=\"stim\">STATUE</p>", "conditions": [18, 1200, "v", 18000], "internal_node_id": "0.0-41.0", "trial": 1, "time_elapsed": 413010, "serialpos": 4, "key_press": -1, "wordID": 1373, "type": "PRES_VIS", "trial_index": 59}, "uniqueid": "MTK3740:3K772S5NP9IEIU62FD54NCLQQ2DEHX", "dateTime": 1521216612384}, {"current_trial": 60, "trialdata": {"rt": -1, "trial_type": "single-stim", "word": "wardrobe", "stimulus": "<p id=\"stim\">WARDROBE</p>", "conditions": [18, 1200, "v", 18000], "internal_node_id": "0.0-42.0", "trial": 1, "time_elapsed": 415117, "serialpos": 5, "key_press": -1, "wordID": 1586, "type": "PRES_VIS", "trial_index": 60}, "uniqueid": "MTK3740:3K772S5NP9IEIU62FD54NCLQQ2DEHX", "dateTime": 1521216614491}, {"current_trial": 61, "trialdata": {"rt": -1, "trial_type": "single-stim", "word": "atom", "stimulus": "<p id=\"stim\">ATOM</p>", "conditions": [18, 1200, "v", 18000], "internal_node_id": "0.0-43.0", "trial": 1, "time_elapsed": 417237, "serialpos": 6, "key_press": -1, "wordID": 54, "type": "PRES_VIS", "trial_index": 61}, "uniqueid": "MTK3740:3K772S5NP9IEIU62FD54NCLQQ2DEHX", "dateTime": 1521216616613}, {"current_trial": 62, "trialdata": {"rt": -1, "trial_type": "single-stim", "word": "report", "stimulus": "<p id=\"stim\">REPORT</p>", "conditions": [18, 1200, "v", 18000], "internal_node_id": "0.0-44.0", "trial": 1, "time_elapsed": 419264, "serialpos": 7, "key_press": -1, "wordID": 1183, "type": "PRES_VIS", "trial_index": 62}, "uniqueid": "MTK3740:3K772S5NP9IEIU62FD54NCLQQ2DEHX", "dateTime": 1521216618638}, {"current_trial": 63, "trialdata": {"rt": -1, "trial_type": "single-stim", "word": "ozone", "stimulus": "<p id=\"stim\">OZONE</p>", "conditions": [18, 1200, "v", 18000], "internal_node_id": "0.0-45.0", "trial": 1, "time_elapsed": 421430, "serialpos": 8, "key_press": -1, "wordID": 995, "type": "PRES_VIS", "trial_index": 63}, "uniqueid": "MTK3740:3K772S5NP9IEIU62FD54NCLQQ2DEHX", "dateTime": 1521216620804}, {"current_trial": 64, "trialdata": {"rt": -1, "trial_type": "single-stim", "word": "proton", "stimulus": "<p id=\"stim\">PROTON</p>", "conditions": [18, 1200, "v", 18000], "internal_node_id": "0.0-46.0", "trial": 1, "time_elapsed": 423483, "serialpos": 9, "key_press": -1, "wordID": 1131, "type": "PRES_VIS", "trial_index": 64}, "uniqueid": "MTK3740:3K772S5NP9IEIU62FD54NCLQQ2DEHX", "dateTime": 1521216622857}, {"current_trial": 65, "trialdata": {"rt": -1, "trial_type": "single-stim", "word": "skillet", "stimulus": "<p id=\"stim\">SKILLET</p>", "conditions": [18, 1200, "v", 18000], "internal_node_id": "0.0-47.0", "trial": 1, "time_elapsed": 425612, "serialpos": 10, "key_press": -1, "wordID": 1316, "type": "PRES_VIS", "trial_index": 65}, "uniqueid": "MTK3740:3K772S5NP9IEIU62FD54NCLQQ2DEHX", "dateTime": 1521216624986}, {"current_trial": 66, "trialdata": {"rt": -1, "trial_type": "single-stim", "word": "hero", "stimulus": "<p id=\"stim\">HERO</p>", "conditions": [18, 1200, "v", 18000], "internal_node_id": "0.0-48.0", "trial": 1, "time_elapsed": 428013, "serialpos": 11, "key_press": -1, "wordID": 705, "type": "PRES_VIS", "trial_index": 66}, "uniqueid": "MTK3740:3K772S5NP9IEIU62FD54NCLQQ2DEHX", "dateTime": 1521216627387}, {"current_trial": 67, "trialdata": {"rt": -1, "trial_type": "single-stim", "word": "playground", "stimulus": "<p id=\"stim\">PLAYGROUND</p>", "conditions": [18, 1200, "v", 18000], "internal_node_id": "0.0-49.0", "trial": 1, "time_elapsed": 430137, "serialpos": 12, "key_press": -1, "wordID": 1086, "type": "PRES_VIS", "trial_index": 67}, "uniqueid": "MTK3740:3K772S5NP9IEIU62FD54NCLQQ2DEHX", "dateTime": 1521216629511}, {"current_trial": 68, "trialdata": {"rt": -1, "trial_type": "single-stim", "word": "canyon", "stimulus": "<p id=\"stim\">CANYON</p>", "conditions": [18, 1200, "v", 18000], "internal_node_id": "0.0-50.0", "trial": 1, "time_elapsed": 432198, "serialpos": 13, "key_press": -1, "wordID": 234, "type": "PRES_VIS", "trial_index": 68}, "uniqueid": "MTK3740:3K772S5NP9IEIU62FD54NCLQQ2DEHX", "dateTime": 1521216631578}, {"current_trial": 69, "trialdata": {"rt": -1, "trial_type": "single-stim", "word": "receipt", "stimulus": "<p id=\"stim\">RECEIPT</p>", "conditions": [18, 1200, "v", 18000], "internal_node_id": "0.0-51.0", "trial": 1, "time_elapsed": 434267, "serialpos": 14, "key_press": -1, "wordID": 1172, "type": "PRES_VIS", "trial_index": 69}, "uniqueid": "MTK3740:3K772S5NP9IEIU62FD54NCLQQ2DEHX", "dateTime": 1521216633641}, {"current_trial": 70, "trialdata": {"rt": -1, "trial_type": "single-stim", "word": "keeper", "stimulus": "<p id=\"stim\">KEEPER</p>", "conditions": [18, 1200, "v", 18000], "internal_node_id": "0.0-52.0", "trial": 1, "time_elapsed": 436567, "serialpos": 15, "key_press": -1, "wordID": 768, "type": "PRES_VIS", "trial_index": 70}, "uniqueid": "MTK3740:3K772S5NP9IEIU62FD54NCLQQ2DEHX", "dateTime": 1521216635941}, {"current_trial": 71, "trialdata": {"rt": -1, "trial_type": "single-stim", "word": "beef", "stimulus": "<p id=\"stim\">BEEF</p>", "conditions": [18, 1200, "v", 18000], "internal_node_id": "0.0-53.0", "trial": 1, "time_elapsed": 438679, "serialpos": 16, "key_press": -1, "wordID": 112, "type": "PRES_VIS", "trial_index": 71}, "uniqueid": "MTK3740:3K772S5NP9IEIU62FD54NCLQQ2DEHX", "dateTime": 1521216638053}, {"current_trial": 72, "trialdata": {"rt": -1, "trial_type": "single-stim", "word": "wrench", "stimulus": "<p id=\"stim\">WRENCH</p>", "conditions": [18, 1200, "v", 18000], "internal_node_id": "0.0-54.0", "trial": 1, "time_elapsed": 440972, "serialpos": 17, "key_press": -1, "wordID": 1624, "type": "PRES_VIS", "trial_index": 72}, "uniqueid": "MTK3740:3K772S5NP9IEIU62FD54NCLQQ2DEHX", "dateTime": 1521216640346}, {"current_trial": 73, "trialdata": {"rt": -1, "trial_type": "single-stim", "stimulus": "", "internal_node_id": "0.0-55.0-0.0", "time_elapsed": 443421, "key_press": -1, "type": "PRE_RECALL_DELAY", "trial_index": 73}, "uniqueid": "MTK3740:3K772S5NP9IEIU62FD54NCLQQ2DEHX", "dateTime": 1521216642795}, {"current_trial": 74, "trialdata": {"rt": -1000, "trial_type": "single-audio", "stimulus": "/static/audio/400Hz.wav", "internal_node_id": "0.0-56.0", "time_elapsed": 443923, "key_press": -1, "type": "PRE_RECALL_ALERT", "trial_index": 74}, "uniqueid": "MTK3740:3K772S5NP9IEIU62FD54NCLQQ2DEHX", "dateTime": 1521216643300}, {"current_trial": 75, "trialdata": {"rt": [4703, 7081, 8824, 9046, 13469, 28873, 31547], "recwords": ["report", "proton", "atom", "", "skillet", "wardrobe", "statue"], "key_times": [2643, 2847, 3279, 3662, 3818, 4183, 4703, 5710, 5865, 6064, 6285, 6398, 6578, 7081, 7780, 8036, 8154, 8368, 8824, 9046, 10048, 10135, 10349, 10580, 11171, 11353, 12207, 12500, 12659, 12814, 13014, 13469, 23534, 23764, 23947, 24458, 24904, 25040, 25467, 25778, 28873, 29773, 29940, 30135, 30319, 30669, 31114, 31547], "trial_type": "free-recall", "conditions": [18, 1200, "v", 18000], "internal_node_id": "0.0-57.0-0.0", "key_presses": [82, 69, 80, 79, 82, 84, 13, 80, 82, 79, 84, 79, 78, 13, 65, 84, 79, 77, 13, 32, 83, 75, 75, 76, 8, 8, 73, 76, 76, 69, 84, 13, 87, 65, 82, 68, 82, 79, 66, 69, 13, 83, 84, 65, 84, 85, 69, 13], "trial": 1, "time_elapsed": 503931, "type": "FREE_RECALL", "trial_index": 75}, "uniqueid": "MTK3740:3K772S5NP9IEIU62FD54NCLQQ2DEHX", "dateTime": 1521216703311}, {"current_trial": 76, "trialdata": {"rt": 3326, "trial_type": "text", "internal_node_id": "0.0-58.0", "time_elapsed": 509266, "key_press": 32, "type": "INSTRUCTIONS", "trial_index": 76}, "uniqueid": "MTK3740:3K772S5NP9IEIU62FD54NCLQQ2DEHX", "dateTime": 1521216708640}, {"current_trial": 77, "trialdata": {"rt": [6567, 11010], "trial_type": "math-distractor", "key_times": [3645, 3828, 5188, 5370, 5536, 5671, 5794, 6160, 6567, 10259, 10682, 11010], "responses": ["16", "17"], "num2": [8, 5, 9], "num3": [5, 8, 4], "conditions": [24, 800, "v", 12000], "internal_node_id": "0.0-59.0", "key_presses": [50, 54, 8, 8, 8, 8, 49, 54, 13, 49, 55, 13], "trial": 2, "time_elapsed": 522268, "type": "DISTRACTOR", "trial_index": 77, "num1": [3, 4, 2]}, "uniqueid": "MTK3740:3K772S5NP9IEIU62FD54NCLQQ2DEHX", "dateTime": 1521216721643}, {"current_trial": 78, "trialdata": {"rt": -1, "trial_type": "single-stim", "stimulus": "<p id=\"stim\">10</p>", "internal_node_id": "0.0-60.0-0.0", "time_elapsed": 525272, "key_press": -1, "trial_index": 78}, "uniqueid": "MTK3740:3K772S5NP9IEIU62FD54NCLQQ2DEHX", "dateTime": 1521216724646}, {"current_trial": 79, "trialdata": {"rt": -1, "trial_type": "single-stim", "stimulus": "<p id=\"stim\">9</p>", "internal_node_id": "0.0-60.0-1.0", "time_elapsed": 526272, "key_press": -1, "trial_index": 79}, "uniqueid": "MTK3740:3K772S5NP9IEIU62FD54NCLQQ2DEHX", "dateTime": 1521216725646}, {"current_trial": 80, "trialdata": {"rt": -1, "trial_type": "single-stim", "stimulus": "<p id=\"stim\">8</p>", "internal_node_id": "0.0-60.0-2.0", "time_elapsed": 527273, "key_press": -1, "trial_index": 80}, "uniqueid": "MTK3740:3K772S5NP9IEIU62FD54NCLQQ2DEHX", "dateTime": 1521216726647}, {"current_trial": 81, "trialdata": {"rt": -1, "trial_type": "single-stim", "stimulus": "<p id=\"stim\">7</p>", "internal_node_id": "0.0-60.0-3.0", "time_elapsed": 528277, "key_press": -1, "trial_index": 81}, "uniqueid": "MTK3740:3K772S5NP9IEIU62FD54NCLQQ2DEHX", "dateTime": 1521216727651}, {"current_trial": 82, "trialdata": {"rt": -1, "trial_type": "single-stim", "stimulus": "<p id=\"stim\">6</p>", "internal_node_id": "0.0-60.0-4.0", "time_elapsed": 529279, "key_press": -1, "trial_index": 82}, "uniqueid": "MTK3740:3K772S5NP9IEIU62FD54NCLQQ2DEHX", "dateTime": 1521216728653}, {"current_trial": 83, "trialdata": {"rt": -1, "trial_type": "single-stim", "stimulus": "<p id=\"stim\">5</p>", "internal_node_id": "0.0-60.0-5.0", "time_elapsed": 530280, "key_press": -1, "trial_index": 83}, "uniqueid": "MTK3740:3K772S5NP9IEIU62FD54NCLQQ2DEHX", "dateTime": 1521216729654}, {"current_trial": 84, "trialdata": {"rt": -1, "trial_type": "single-stim", "stimulus": "<p id=\"stim\">4</p>", "internal_node_id": "0.0-60.0-6.0", "time_elapsed": 531280, "key_press": -1, "trial_index": 84}, "uniqueid": "MTK3740:3K772S5NP9IEIU62FD54NCLQQ2DEHX", "dateTime": 1521216730654}, {"current_trial": 85, "trialdata": {"rt": -1, "trial_type": "single-stim", "stimulus": "<p id=\"stim\">3</p>", "internal_node_id": "0.0-60.0-7.0", "time_elapsed": 532281, "key_press": -1, "trial_index": 85}, "uniqueid": "MTK3740:3K772S5NP9IEIU62FD54NCLQQ2DEHX", "dateTime": 1521216731655}, {"current_trial": 86, "trialdata": {"rt": -1, "trial_type": "single-stim", "stimulus": "<p id=\"stim\">2</p>", "internal_node_id": "0.0-60.0-8.0", "time_elapsed": 533283, "key_press": -1, "trial_index": 86}, "uniqueid": "MTK3740:3K772S5NP9IEIU62FD54NCLQQ2DEHX", "dateTime": 1521216732657}, {"current_trial": 87, "trialdata": {"rt": -1, "trial_type": "single-stim", "stimulus": "<p id=\"stim\">1</p>", "internal_node_id": "0.0-60.0-9.0", "time_elapsed": 534283, "key_press": -1, "trial_index": 87}, "uniqueid": "MTK3740:3K772S5NP9IEIU62FD54NCLQQ2DEHX", "dateTime": 1521216733657}, {"current_trial": 88, "trialdata": {"rt": -1, "trial_type": "single-stim", "stimulus": "<p id=\"stim\">+</p>", "internal_node_id": "0.0-61.0-0.0", "time_elapsed": 535785, "key_press": -1, "type": "FIXATION", "trial_index": 88}, "uniqueid": "MTK3740:3K772S5NP9IEIU62FD54NCLQQ2DEHX", "dateTime": 1521216735159}, {"current_trial": 89, "trialdata": {"rt": -1, "trial_type": "single-stim", "word": "daisy", "stimulus": "<p id=\"stim\">DAISY</p>", "conditions": [24, 800, "v", 12000], "internal_node_id": "0.0-62.0", "trial": 2, "time_elapsed": 536588, "serialpos": 0, "key_press": -1, "wordID": 434, "type": "PRES_VIS", "trial_index": 89}, "uniqueid": "MTK3740:3K772S5NP9IEIU62FD54NCLQQ2DEHX", "dateTime": 1521216735962}, {"current_trial": 90, "trialdata": {"rt": -1, "trial_type": "single-stim", "word": "pudding", "stimulus": "<p id=\"stim\">PUDDING</p>", "conditions": [24, 800, "v", 12000], "internal_node_id": "0.0-63.0", "trial": 2, "time_elapsed": 538384, "serialpos": 1, "key_press": -1, "wordID": 1138, "type": "PRES_VIS", "trial_index": 90}, "uniqueid": "MTK3740:3K772S5NP9IEIU62FD54NCLQQ2DEHX", "dateTime": 1521216737758}, {"current_trial": 91, "trialdata": {"rt": -1, "trial_type": "single-stim", "word": "empire", "stimulus": "<p id=\"stim\">EMPIRE</p>", "conditions": [24, 800, "v", 12000], "internal_node_id": "0.0-64.0", "trial": 2, "time_elapsed": 540334, "serialpos": 2, "key_press": -1, "wordID": 529, "type": "PRES_VIS", "trial_index": 91}, "uniqueid": "MTK3740:3K772S5NP9IEIU62FD54NCLQQ2DEHX", "dateTime": 1521216739708}, {"current_trial": 92, "trialdata": {"rt": -1, "trial_type": "single-stim", "word": "lace", "stimulus": "<p id=\"stim\">LACE</p>", "conditions": [24, 800, "v", 12000], "internal_node_id": "0.0-65.0", "trial": 2, "time_elapsed": 542176, "serialpos": 3, "key_press": -1, "wordID": 791, "type": "PRES_VIS", "trial_index": 92}, "uniqueid": "MTK3740:3K772S5NP9IEIU62FD54NCLQQ2DEHX", "dateTime": 1521216741550}, {"current_trial": 93, "trialdata": {"rt": -1, "trial_type": "single-stim", "word": "parrot", "stimulus": "<p id=\"stim\">PARROT</p>", "conditions": [24, 800, "v", 12000], "internal_node_id": "0.0-66.0", "trial": 2, "time_elapsed": 543840, "serialpos": 4, "key_press": -1, "wordID": 1014, "type": "PRES_VIS", "trial_index": 93}, "uniqueid": "MTK3740:3K772S5NP9IEIU62FD54NCLQQ2DEHX", "dateTime": 1521216743214}, {"current_trial": 94, "trialdata": {"rt": -1, "trial_type": "single-stim", "word": "skirt", "stimulus": "<p id=\"stim\">SKIRT</p>", "conditions": [24, 800, "v", 12000], "internal_node_id": "0.0-67.0", "trial": 2, "time_elapsed": 545763, "serialpos": 5, "key_press": -1, "wordID": 1318, "type": "PRES_VIS", "trial_index": 94}, "uniqueid": "MTK3740:3K772S5NP9IEIU62FD54NCLQQ2DEHX", "dateTime": 1521216745137}, {"current_trial": 95, "trialdata": {"rt": -1, "trial_type": "single-stim", "word": "termite", "stimulus": "<p id=\"stim\">TERMITE</p>", "conditions": [24, 800, "v", 12000], "internal_node_id": "0.0-68.0", "trial": 2, "time_elapsed": 547705, "serialpos": 6, "key_press": -1, "wordID": 1450, "type": "PRES_VIS", "trial_index": 95}, "uniqueid": "MTK3740:3K772S5NP9IEIU62FD54NCLQQ2DEHX", "dateTime": 1521216747079}, {"current_trial": 96, "trialdata": {"rt": -1, "trial_type": "single-stim", "word": "woman", "stimulus": "<p id=\"stim\">WOMAN</p>", "conditions": [24, 800, "v", 12000], "internal_node_id": "0.0-69.0", "trial": 2, "time_elapsed": 549466, "serialpos": 7, "key_press": -1, "wordID": 1619, "type": "PRES_VIS", "trial_index": 96}, "uniqueid": "MTK3740:3K772S5NP9IEIU62FD54NCLQQ2DEHX", "dateTime": 1521216748840}, {"current_trial": 97, "trialdata": {"rt": -1, "trial_type": "single-stim", "word": "dress", "stimulus": "<p id=\"stim\">DRESS</p>", "conditions": [24, 800, "v", 12000], "internal_node_id": "0.0-70.0", "trial": 2, "time_elapsed": 551226, "serialpos": 8, "key_press": -1, "wordID": 494, "type": "PRES_VIS", "trial_index": 97}, "uniqueid": "MTK3740:3K772S5NP9IEIU62FD54NCLQQ2DEHX", "dateTime": 1521216750600}, {"current_trial": 98, "trialdata": {"rt": -1, "trial_type": "single-stim", "word": "chest", "stimulus": "<p id=\"stim\">CHEST</p>", "conditions": [24, 800, "v", 12000], "internal_node_id": "0.0-71.0", "trial": 2, "time_elapsed": 553143, "serialpos": 9, "key_press": -1, "wordID": 294, "type": "PRES_VIS", "trial_index": 98}, "uniqueid": "MTK3740:3K772S5NP9IEIU62FD54NCLQQ2DEHX", "dateTime": 1521216752518}, {"current_trial": 99, "trialdata": {"rt": -1, "trial_type": "single-stim", "word": "forehead", "stimulus": "<p id=\"stim\">FOREHEAD</p>", "conditions": [24, 800, "v", 12000], "internal_node_id": "0.0-72.0", "trial": 2, "time_elapsed": 554838, "serialpos": 10, "key_press": -1, "wordID": 591, "type": "PRES_VIS", "trial_index": 99}, "uniqueid": "MTK3740:3K772S5NP9IEIU62FD54NCLQQ2DEHX", "dateTime": 1521216754212}, {"current_trial": 100, "trialdata": {"rt": -1, "trial_type": "single-stim", "word": "ankle", "stimulus": "<p id=\"stim\">ANKLE</p>", "conditions": [24, 800, "v", 12000], "internal_node_id": "0.0-73.0", "trial": 2, "time_elapsed": 556555, "serialpos": 11, "key_press": -1, "wordID": 23, "type": "PRES_VIS", "trial_index": 100}, "uniqueid": "MTK3740:3K772S5NP9IEIU62FD54NCLQQ2DEHX", "dateTime": 1521216755929}, {"current_trial": 101, "trialdata": {"rt": -1, "trial_type": "single-stim", "word": "sausage", "stimulus": "<p id=\"stim\">SAUSAGE</p>", "conditions": [24, 800, "v", 12000], "internal_node_id": "0.0-74.0", "trial": 2, "time_elapsed": 558404, "serialpos": 12, "key_press": -1, "wordID": 1237, "type": "PRES_VIS", "trial_index": 101}, "uniqueid": "MTK3740:3K772S5NP9IEIU62FD54NCLQQ2DEHX", "dateTime": 1521216757778}, {"current_trial": 102, "trialdata": {"rt": -1, "trial_type": "single-stim", "word": "seal", "stimulus": "<p id=\"stim\">SEAL</p>", "conditions": [24, 800, "v", 12000], "internal_node_id": "0.0-75.0", "trial": 2, "time_elapsed": 560025, "serialpos": 13, "key_press": -1, "wordID": 1261, "type": "PRES_VIS", "trial_index": 102}, "uniqueid": "MTK3740:3K772S5NP9IEIU62FD54NCLQQ2DEHX", "dateTime": 1521216759399}, {"current_trial": 103, "trialdata": {"rt": -1, "trial_type": "single-stim", "word": "bunny", "stimulus": "<p id=\"stim\">BUNNY</p>", "conditions": [24, 800, "v", 12000], "internal_node_id": "0.0-76.0", "trial": 2, "time_elapsed": 561917, "serialpos": 14, "key_press": -1, "wordID": 197, "type": "PRES_VIS", "trial_index": 103}, "uniqueid": "MTK3740:3K772S5NP9IEIU62FD54NCLQQ2DEHX", "dateTime": 1521216761291}, {"current_trial": 104, "trialdata": {"rt": -1, "trial_type": "single-stim", "word": "muffin", "stimulus": "<p id=\"stim\">MUFFIN</p>", "conditions": [24, 800, "v", 12000], "internal_node_id": "0.0-77.0", "trial": 2, "time_elapsed": 563784, "serialpos": 15, "key_press": -1, "wordID": 928, "type": "PRES_VIS", "trial_index": 104}, "uniqueid": "MTK3740:3K772S5NP9IEIU62FD54NCLQQ2DEHX", "dateTime": 1521216763158}, {"current_trial": 105, "trialdata": {"rt": -1, "trial_type": "single-stim", "word": "window", "stimulus": "<p id=\"stim\">WINDOW</p>", "conditions": [24, 800, "v", 12000], "internal_node_id": "0.0-78.0", "trial": 2, "time_elapsed": 565500, "serialpos": 16, "key_press": -1, "wordID": 1610, "type": "PRES_VIS", "trial_index": 105}, "uniqueid": "MTK3740:3K772S5NP9IEIU62FD54NCLQQ2DEHX", "dateTime": 1521216764874}, {"current_trial": 106, "trialdata": {"rt": -1, "trial_type": "single-stim", "word": "marker", "stimulus": "<p id=\"stim\">MARKER</p>", "conditions": [24, 800, "v", 12000], "internal_node_id": "0.0-79.0", "trial": 2, "time_elapsed": 567487, "serialpos": 17, "key_press": -1, "wordID": 869, "type": "PRES_VIS", "trial_index": 106}, "uniqueid": "MTK3740:3K772S5NP9IEIU62FD54NCLQQ2DEHX", "dateTime": 1521216766861}, {"current_trial": 107, "trialdata": {"rt": -1, "trial_type": "single-stim", "word": "frame", "stimulus": "<p id=\"stim\">FRAME</p>", "conditions": [24, 800, "v", 12000], "internal_node_id": "0.0-80.0", "trial": 2, "time_elapsed": 569365, "serialpos": 18, "key_press": -1, "wordID": 599, "type": "PRES_VIS", "trial_index": 107}, "uniqueid": "MTK3740:3K772S5NP9IEIU62FD54NCLQQ2DEHX", "dateTime": 1521216768739}, {"current_trial": 108, "trialdata": {"rt": -1, "trial_type": "single-stim", "word": "diner", "stimulus": "<p id=\"stim\">DINER</p>", "conditions": [24, 800, "v", 12000], "internal_node_id": "0.0-81.0", "trial": 2, "time_elapsed": 571121, "serialpos": 19, "key_press": -1, "wordID": 466, "type": "PRES_VIS", "trial_index": 108}, "uniqueid": "MTK3740:3K772S5NP9IEIU62FD54NCLQQ2DEHX", "dateTime": 1521216770495}, {"current_trial": 109, "trialdata": {"rt": -1, "trial_type": "single-stim", "word": "highway", "stimulus": "<p id=\"stim\">HIGHWAY</p>", "conditions": [24, 800, "v", 12000], "internal_node_id": "0.0-82.0", "trial": 2, "time_elapsed": 573023, "serialpos": 20, "key_press": -1, "wordID": 706, "type": "PRES_VIS", "trial_index": 109}, "uniqueid": "MTK3740:3K772S5NP9IEIU62FD54NCLQQ2DEHX", "dateTime": 1521216772397}, {"current_trial": 110, "trialdata": {"rt": -1, "trial_type": "single-stim", "word": "penguin", "stimulus": "<p id=\"stim\">PENGUIN</p>", "conditions": [24, 800, "v", 12000], "internal_node_id": "0.0-83.0", "trial": 2, "time_elapsed": 574868, "serialpos": 21, "key_press": -1, "wordID": 1043, "type": "PRES_VIS", "trial_index": 110}, "uniqueid": "MTK3740:3K772S5NP9IEIU62FD54NCLQQ2DEHX", "dateTime": 1521216774242}, {"current_trial": 111, "trialdata": {"rt": -1, "trial_type": "single-stim", "word": "clam", "stimulus": "<p id=\"stim\">CLAM</p>", "conditions": [24, 800, "v", 12000], "internal_node_id": "0.0-84.0", "trial": 2, "time_elapsed": 576653, "serialpos": 22, "key_press": -1, "wordID": 314, "type": "PRES_VIS", "trial_index": 111}, "uniqueid": "MTK3740:3K772S5NP9IEIU62FD54NCLQQ2DEHX", "dateTime": 1521216776027}, {"current_trial": 112, "trialdata": {"rt": -1, "trial_type": "single-stim", "word": "scallop", "stimulus": "<p id=\"stim\">SCALLOP</p>", "conditions": [24, 800, "v", 12000], "internal_node_id": "0.0-85.0", "trial": 2, "time_elapsed": 578426, "serialpos": 23, "key_press": -1, "wordID": 1241, "type": "PRES_VIS", "trial_index": 112}, "uniqueid": "MTK3740:3K772S5NP9IEIU62FD54NCLQQ2DEHX", "dateTime": 1521216777800}, {"current_trial": 113, "trialdata": {"rt": -1, "trial_type": "single-stim", "stimulus": "", "internal_node_id": "0.0-86.0-0.0", "time_elapsed": 580551, "key_press": -1, "type": "PRE_RECALL_DELAY", "trial_index": 113}, "uniqueid": "MTK3740:3K772S5NP9IEIU62FD54NCLQQ2DEHX", "dateTime": 1521216779925}, {"current_trial": 114, "trialdata": {"rt": -1000, "trial_type": "single-audio", "stimulus": "/static/audio/400Hz.wav", "internal_node_id": "0.0-87.0", "time_elapsed": 581053, "key_press": -1, "type": "PRE_RECALL_ALERT", "trial_index": 114}, "uniqueid": "MTK3740:3K772S5NP9IEIU62FD54NCLQQ2DEHX", "dateTime": 1521216780427}, {"current_trial": 115, "trialdata": {"rt": [2939, 5815, 9586, 17130, 24367, 27019, 30070], "recwords": ["daisy", "frame", "diner", "scallot", "forehead", "chest", "ankle"], "key_times": [1364, 1520, 1712, 1988, 2427, 2939, 3879, 4085, 4337, 4585, 5302, 5815, 6851, 6985, 7222, 7436, 7795, 9586, 11197, 11709, 11992, 12674, 12840, 13357, 13465, 17130, 22071, 22173, 22304, 22511, 22902, 23011, 23192, 23581, 24367, 25394, 25514, 25694, 25989, 26163, 27019, 28205, 28334, 28812, 29042, 29182, 30070], "trial_type": "free-recall", "conditions": [24, 800, "v", 12000], "internal_node_id": "0.0-88.0-0.0", "key_presses": [68, 65, 73, 83, 89, 13, 70, 82, 65, 77, 69, 13, 68, 73, 78, 69, 82, 13, 83, 67, 65, 76, 76, 79, 84, 13, 70, 79, 82, 69, 72, 69, 65, 68, 13, 67, 72, 69, 83, 84, 13, 65, 78, 75, 76, 69, 13], "trial": 2, "time_elapsed": 641059, "type": "FREE_RECALL", "trial_index": 115}, "uniqueid": "MTK3740:3K772S5NP9IEIU62FD54NCLQQ2DEHX", "dateTime": 1521216840443}, {"current_trial": 116, "trialdata": {"rt": 1951, "trial_type": "text", "internal_node_id": "0.0-89.0", "time_elapsed": 645021, "key_press": 32, "type": "INSTRUCTIONS", "trial_index": 116}, "uniqueid": "MTK3740:3K772S5NP9IEIU62FD54NCLQQ2DEHX", "dateTime": 1521216844395}, {"current_trial": 117, "trialdata": {"rt": [6027, 10453, 14103, 18319, 22377], "trial_type": "math-distractor", "key_times": [5125, 5556, 6027, 9696, 10182, 10453, 13239, 13576, 14103, 17808, 18097, 18319, 21122, 22090, 22377], "responses": ["16", "20", "20", "16", "14"], "num2": [4, 3, 6, 9, 1, 4], "num3": [7, 8, 5, 4, 6, 2], "conditions": [12, 800, "v", 24000], "internal_node_id": "0.0-90.0", "key_presses": [49, 54, 13, 50, 48, 13, 50, 48, 13, 49, 54, 13, 49, 52, 13], "trial": 3, "time_elapsed": 671026, "type": "DISTRACTOR", "trial_index": 117, "num1": [5, 9, 9, 3, 7, 3]}, "uniqueid": "MTK3740:3K772S5NP9IEIU62FD54NCLQQ2DEHX", "dateTime": 1521216870401}, {"current_trial": 118, "trialdata": {"rt": -1, "trial_type": "single-stim", "stimulus": "<p id=\"stim\">10</p>", "internal_node_id": "0.0-91.0-0.0", "time_elapsed": 674028, "key_press": -1, "trial_index": 118}, "uniqueid": "MTK3740:3K772S5NP9IEIU62FD54NCLQQ2DEHX", "dateTime": 1521216873402}, {"current_trial": 119, "trialdata": {"rt": -1, "trial_type": "single-stim", "stimulus": "<p id=\"stim\">9</p>", "internal_node_id": "0.0-91.0-1.0", "time_elapsed": 675031, "key_press": -1, "trial_index": 119}, "uniqueid": "MTK3740:3K772S5NP9IEIU62FD54NCLQQ2DEHX", "dateTime": 1521216874405}, {"current_trial": 120, "trialdata": {"rt": -1, "trial_type": "single-stim", "stimulus": "<p id=\"stim\">8</p>", "internal_node_id": "0.0-91.0-2.0", "time_elapsed": 676034, "key_press": -1, "trial_index": 120}, "uniqueid": "MTK3740:3K772S5NP9IEIU62FD54NCLQQ2DEHX", "dateTime": 1521216875408}, {"current_trial": 121, "trialdata": {"rt": -1, "trial_type": "single-stim", "stimulus": "<p id=\"stim\">7</p>", "internal_node_id": "0.0-91.0-3.0", "time_elapsed": 677036, "key_press": -1, "trial_index": 121}, "uniqueid": "MTK3740:3K772S5NP9IEIU62FD54NCLQQ2DEHX", "dateTime": 1521216876411}, {"current_trial": 122, "trialdata": {"rt": -1, "trial_type": "single-stim", "stimulus": "<p id=\"stim\">6</p>", "internal_node_id": "0.0-91.0-4.0", "time_elapsed": 678038, "key_press": -1, "trial_index": 122}, "uniqueid": "MTK3740:3K772S5NP9IEIU62FD54NCLQQ2DEHX", "dateTime": 1521216877412}, {"current_trial": 123, "trialdata": {"rt": -1, "trial_type": "single-stim", "stimulus": "<p id=\"stim\">5</p>", "internal_node_id": "0.0-91.0-5.0", "time_elapsed": 679040, "key_press": -1, "trial_index": 123}, "uniqueid": "MTK3740:3K772S5NP9IEIU62FD54NCLQQ2DEHX", "dateTime": 1521216878414}, {"current_trial": 124, "trialdata": {"rt": -1, "trial_type": "single-stim", "stimulus": "<p id=\"stim\">4</p>", "internal_node_id": "0.0-91.0-6.0", "time_elapsed": 680042, "key_press": -1, "trial_index": 124}, "uniqueid": "MTK3740:3K772S5NP9IEIU62FD54NCLQQ2DEHX", "dateTime": 1521216879416}, {"current_trial": 125, "trialdata": {"rt": -1, "trial_type": "single-stim", "stimulus": "<p id=\"stim\">3</p>", "internal_node_id": "0.0-91.0-7.0", "time_elapsed": 681043, "key_press": -1, "trial_index": 125}, "uniqueid": "MTK3740:3K772S5NP9IEIU62FD54NCLQQ2DEHX", "dateTime": 1521216880417}, {"current_trial": 126, "trialdata": {"rt": -1, "trial_type": "single-stim", "stimulus": "<p id=\"stim\">2</p>", "internal_node_id": "0.0-91.0-8.0", "time_elapsed": 682043, "key_press": -1, "trial_index": 126}, "uniqueid": "MTK3740:3K772S5NP9IEIU62FD54NCLQQ2DEHX", "dateTime": 1521216881417}, {"current_trial": 127, "trialdata": {"rt": -1, "trial_type": "single-stim", "stimulus": "<p id=\"stim\">1</p>", "internal_node_id": "0.0-91.0-9.0", "time_elapsed": 683048, "key_press": -1, "trial_index": 127}, "uniqueid": "MTK3740:3K772S5NP9IEIU62FD54NCLQQ2DEHX", "dateTime": 1521216882422}, {"current_trial": 128, "trialdata": {"rt": -1, "trial_type": "single-stim", "stimulus": "<p id=\"stim\">+</p>", "internal_node_id": "0.0-92.0-0.0", "time_elapsed": 684549, "key_press": -1, "type": "FIXATION", "trial_index": 128}, "uniqueid": "MTK3740:3K772S5NP9IEIU62FD54NCLQQ2DEHX", "dateTime": 1521216883923}, {"current_trial": 129, "trialdata": {"rt": -1, "trial_type": "single-stim", "word": "cyclone", "stimulus": "<p id=\"stim\">CYCLONE</p>", "conditions": [12, 800, "v", 24000], "internal_node_id": "0.0-93.0", "trial": 3, "time_elapsed": 685352, "serialpos": 0, "key_press": -1, "wordID": 430, "type": "PRES_VIS", "trial_index": 129}, "uniqueid": "MTK3740:3K772S5NP9IEIU62FD54NCLQQ2DEHX", "dateTime": 1521216884726}, {"current_trial": 130, "trialdata": {"rt": -1, "trial_type": "single-stim", "word": "fireplace", "stimulus": "<p id=\"stim\">FIREPLACE</p>", "conditions": [12, 800, "v", 24000], "internal_node_id": "0.0-94.0", "trial": 3, "time_elapsed": 687031, "serialpos": 1, "key_press": -1, "wordID": 569, "type": "PRES_VIS", "trial_index": 130}, "uniqueid": "MTK3740:3K772S5NP9IEIU62FD54NCLQQ2DEHX", "dateTime": 1521216886405}, {"current_trial": 131, "trialdata": {"rt": -1, "trial_type": "single-stim", "word": "princess", "stimulus": "<p id=\"stim\">PRINCESS</p>", "conditions": [12, 800, "v", 24000], "internal_node_id": "0.0-95.0", "trial": 3, "time_elapsed": 688642, "serialpos": 2, "key_press": -1, "wordID": 1124, "type": "PRES_VIS", "trial_index": 131}, "uniqueid": "MTK3740:3K772S5NP9IEIU62FD54NCLQQ2DEHX", "dateTime": 1521216888016}, {"current_trial": 132, "trialdata": {"rt": -1, "trial_type": "single-stim", "word": "lunch", "stimulus": "<p id=\"stim\">LUNCH</p>", "conditions": [12, 800, "v", 24000], "internal_node_id": "0.0-96.0", "trial": 3, "time_elapsed": 690621, "serialpos": 3, "key_press": -1, "wordID": 848, "type": "PRES_VIS", "trial_index": 132}, "uniqueid": "MTK3740:3K772S5NP9IEIU62FD54NCLQQ2DEHX", "dateTime": 1521216889995}, {"current_trial": 133, "trialdata": {"rt": -1, "trial_type": "single-stim", "word": "cobra", "stimulus": "<p id=\"stim\">COBRA</p>", "conditions": [12, 800, "v", 24000], "internal_node_id": "0.0-97.0", "trial": 3, "time_elapsed": 692514, "serialpos": 4, "key_press": -1, "wordID": 335, "type": "PRES_VIS", "trial_index": 133}, "uniqueid": "MTK3740:3K772S5NP9IEIU62FD54NCLQQ2DEHX", "dateTime": 1521216891888}, {"current_trial": 134, "trialdata": {"rt": -1, "trial_type": "single-stim", "word": "swamp", "stimulus": "<p id=\"stim\">SWAMP</p>", "conditions": [12, 800, "v", 24000], "internal_node_id": "0.0-98.0", "trial": 3, "time_elapsed": 694324, "serialpos": 5, "key_press": -1, "wordID": 1415, "type": "PRES_VIS", "trial_index": 134}, "uniqueid": "MTK3740:3K772S5NP9IEIU62FD54NCLQQ2DEHX", "dateTime": 1521216893698}, {"current_trial": 135, "trialdata": {"rt": -1, "trial_type": "single-stim", "word": "orchid", "stimulus": "<p id=\"stim\">ORCHID</p>", "conditions": [12, 800, "v", 24000], "internal_node_id": "0.0-99.0", "trial": 3, "time_elapsed": 696253, "serialpos": 6, "key_press": -1, "wordID": 981, "type": "PRES_VIS", "trial_index": 135}, "uniqueid": "MTK3740:3K772S5NP9IEIU62FD54NCLQQ2DEHX", "dateTime": 1521216895628}, {"current_trial": 136, "trialdata": {"rt": -1, "trial_type": "single-stim", "word": "shrub", "stimulus": "<p id=\"stim\">SHRUB</p>", "conditions": [12, 800, "v", 24000], "internal_node_id": "0.0-100.0", "trial": 3, "time_elapsed": 697951, "serialpos": 7, "key_press": -1, "wordID": 1298, "type": "PRES_VIS", "trial_index": 136}, "uniqueid": "MTK3740:3K772S5NP9IEIU62FD54NCLQQ2DEHX", "dateTime": 1521216897325}, {"current_trial": 137, "trialdata": {"rt": -1, "trial_type": "single-stim", "word": "jello", "stimulus": "<p id=\"stim\">JELLO</p>", "conditions": [12, 800, "v", 24000], "internal_node_id": "0.0-101.0", "trial": 3, "time_elapsed": 699679, "serialpos": 8, "key_press": -1, "wordID": 753, "type": "PRES_VIS", "trial_index": 137}, "uniqueid": "MTK3740:3K772S5NP9IEIU62FD54NCLQQ2DEHX", "dateTime": 1521216899053}, {"current_trial": 138, "trialdata": {"rt": -1, "trial_type": "single-stim", "word": "goblin", "stimulus": "<p id=\"stim\">GOBLIN</p>", "conditions": [12, 800, "v", 24000], "internal_node_id": "0.0-102.0", "trial": 3, "time_elapsed": 701344, "serialpos": 9, "key_press": -1, "wordID": 644, "type": "PRES_VIS", "trial_index": 138}, "uniqueid": "MTK3740:3K772S5NP9IEIU62FD54NCLQQ2DEHX", "dateTime": 1521216900718}, {"current_trial": 139, "trialdata": {"rt": -1, "trial_type": "single-stim", "word": "palace", "stimulus": "<p id=\"stim\">PALACE</p>", "conditions": [12, 800, "v", 24000], "internal_node_id": "0.0-103.0", "trial": 3, "time_elapsed": 703188, "serialpos": 10, "key_press": -1, "wordID": 1005, "type": "PRES_VIS", "trial_index": 139}, "uniqueid": "MTK3740:3K772S5NP9IEIU62FD54NCLQQ2DEHX", "dateTime": 1521216902562}, {"current_trial": 140, "trialdata": {"rt": -1, "trial_type": "single-stim", "word": "supper", "stimulus": "<p id=\"stim\">SUPPER</p>", "conditions": [12, 800, "v", 24000], "internal_node_id": "0.0-104.0", "trial": 3, "time_elapsed": 705016, "serialpos": 11, "key_press": -1, "wordID": 1410, "type": "PRES_VIS", "trial_index": 140}, "uniqueid": "MTK3740:3K772S5NP9IEIU62FD54NCLQQ2DEHX", "dateTime": 1521216904390}, {"current_trial": 141, "trialdata": {"rt": -1, "trial_type": "single-stim", "stimulus": "", "internal_node_id": "0.0-105.0-0.0", "time_elapsed": 707293, "key_press": -1, "type": "PRE_RECALL_DELAY", "trial_index": 141}, "uniqueid": "MTK3740:3K772S5NP9IEIU62FD54NCLQQ2DEHX", "dateTime": 1521216906668}, {"current_trial": 142, "trialdata": {"rt": -1000, "trial_type": "single-audio", "stimulus": "/static/audio/400Hz.wav", "internal_node_id": "0.0-106.0", "time_elapsed": 707796, "key_press": -1, "type": "PRE_RECALL_ALERT", "trial_index": 142}, "uniqueid": "MTK3740:3K772S5NP9IEIU62FD54NCLQQ2DEHX", "dateTime": 1521216907171}, {"current_trial": 143, "trialdata": {"rt": [5372, 8239, 14946, 43460], "recwords": ["princess", "jello", "lunch", "orchid"], "key_times": [2078, 2520, 2623, 2853, 3018, 3248, 3997, 4203, 5372, 7009, 7181, 7343, 7515, 7730, 8239, 12934, 13148, 13400, 13573, 13956, 14946, 41488, 41747, 42056, 42602, 42758, 42946, 43460, 58622, 58995, 59416, 59769, 59967], "trial_type": "free-recall", "conditions": [12, 800, "v", 24000], "internal_node_id": "0.0-107.0-0.0", "key_presses": [80, 82, 73, 78, 67, 69, 83, 83, 13, 74, 69, 76, 76, 79, 13, 76, 85, 78, 67, 72, 13, 79, 82, 67, 72, 73, 68, 13, 67, 89, 67, 76, 79], "trial": 3, "time_elapsed": 767802, "type": "FREE_RECALL", "trial_index": 143}, "uniqueid": "MTK3740:3K772S5NP9IEIU62FD54NCLQQ2DEHX", "dateTime": 1521216967184}, {"current_trial": 144, "trialdata": {"rt": 1649, "trial_type": "text", "internal_node_id": "0.0-108.0", "time_elapsed": 771458, "key_press": 32, "type": "INSTRUCTIONS", "trial_index": 144}, "uniqueid": "MTK3740:3K772S5NP9IEIU62FD54NCLQQ2DEHX", "dateTime": 1521216970833}, {"current_trial": 145, "trialdata": {"rt": [4149, 7959, 12704, 17162, 21699], "trial_type": "math-distractor", "key_times": [3456, 3941, 4149, 7127, 7289, 7959, 12081, 12504, 12704, 16284, 16659, 17162, 21044, 21445, 21699], "responses": ["14", "18", "16", "16", "19"], "num2": [4, 6, 8, 4, 6, 5], "num3": [6, 8, 1, 9, 7, 6], "conditions": [24, 1600, "v", 24000], "internal_node_id": "0.0-109.0", "key_presses": [49, 52, 13, 49, 56, 13, 49, 54, 13, 49, 54, 13, 49, 57, 13], "trial": 4, "time_elapsed": 797464, "type": "DISTRACTOR", "trial_index": 145, "num1": [4, 4, 7, 3, 6, 4]}, "uniqueid": "MTK3740:3K772S5NP9IEIU62FD54NCLQQ2DEHX", "dateTime": 1521216996838}, {"current_trial": 146, "trialdata": {"rt": -1, "trial_type": "single-stim", "stimulus": "<p id=\"stim\">10</p>", "internal_node_id": "0.0-110.0-0.0", "time_elapsed": 800467, "key_press": -1, "trial_index": 146}, "uniqueid": "MTK3740:3K772S5NP9IEIU62FD54NCLQQ2DEHX", "dateTime": 1521216999841}, {"current_trial": 147, "trialdata": {"rt": -1, "trial_type": "single-stim", "stimulus": "<p id=\"stim\">9</p>", "internal_node_id": "0.0-110.0-1.0", "time_elapsed": 801467, "key_press": -1, "trial_index": 147}, "uniqueid": "MTK3740:3K772S5NP9IEIU62FD54NCLQQ2DEHX", "dateTime": 1521217000841}, {"current_trial": 148, "trialdata": {"rt": -1, "trial_type": "single-stim", "stimulus": "<p id=\"stim\">8</p>", "internal_node_id": "0.0-110.0-2.0", "time_elapsed": 802469, "key_press": -1, "trial_index": 148}, "uniqueid": "MTK3740:3K772S5NP9IEIU62FD54NCLQQ2DEHX", "dateTime": 1521217001843}, {"current_trial": 149, "trialdata": {"rt": -1, "trial_type": "single-stim", "stimulus": "<p id=\"stim\">7</p>", "internal_node_id": "0.0-110.0-3.0", "time_elapsed": 803472, "key_press": -1, "trial_index": 149}, "uniqueid": "MTK3740:3K772S5NP9IEIU62FD54NCLQQ2DEHX", "dateTime": 1521217002848}, {"current_trial": 150, "trialdata": {"rt": -1, "trial_type": "single-stim", "stimulus": "<p id=\"stim\">6</p>", "internal_node_id": "0.0-110.0-4.0", "time_elapsed": 804476, "key_press": -1, "trial_index": 150}, "uniqueid": "MTK3740:3K772S5NP9IEIU62FD54NCLQQ2DEHX", "dateTime": 1521217003850}, {"current_trial": 151, "trialdata": {"rt": -1, "trial_type": "single-stim", "stimulus": "<p id=\"stim\">5</p>", "internal_node_id": "0.0-110.0-5.0", "time_elapsed": 805477, "key_press": -1, "trial_index": 151}, "uniqueid": "MTK3740:3K772S5NP9IEIU62FD54NCLQQ2DEHX", "dateTime": 1521217004851}, {"current_trial": 152, "trialdata": {"rt": -1, "trial_type": "single-stim", "stimulus": "<p id=\"stim\">4</p>", "internal_node_id": "0.0-110.0-6.0", "time_elapsed": 806480, "key_press": -1, "trial_index": 152}, "uniqueid": "MTK3740:3K772S5NP9IEIU62FD54NCLQQ2DEHX", "dateTime": 1521217005854}, {"current_trial": 153, "trialdata": {"rt": -1, "trial_type": "single-stim", "stimulus": "<p id=\"stim\">3</p>", "internal_node_id": "0.0-110.0-7.0", "time_elapsed": 807482, "key_press": -1, "trial_index": 153}, "uniqueid": "MTK3740:3K772S5NP9IEIU62FD54NCLQQ2DEHX", "dateTime": 1521217006856}, {"current_trial": 154, "trialdata": {"rt": -1, "trial_type": "single-stim", "stimulus": "<p id=\"stim\">2</p>", "internal_node_id": "0.0-110.0-8.0", "time_elapsed": 808483, "key_press": -1, "trial_index": 154}, "uniqueid": "MTK3740:3K772S5NP9IEIU62FD54NCLQQ2DEHX", "dateTime": 1521217007857}, {"current_trial": 155, "trialdata": {"rt": -1, "trial_type": "single-stim", "stimulus": "<p id=\"stim\">1</p>", "internal_node_id": "0.0-110.0-9.0", "time_elapsed": 809483, "key_press": -1, "trial_index": 155}, "uniqueid": "MTK3740:3K772S5NP9IEIU62FD54NCLQQ2DEHX", "dateTime": 1521217008858}, {"current_trial": 156, "trialdata": {"rt": -1, "trial_type": "single-stim", "stimulus": "<p id=\"stim\">+</p>", "internal_node_id": "0.0-111.0-0.0", "time_elapsed": 810985, "key_press": -1, "type": "FIXATION", "trial_index": 156}, "uniqueid": "MTK3740:3K772S5NP9IEIU62FD54NCLQQ2DEHX", "dateTime": 1521217010359}, {"current_trial": 157, "trialdata": {"rt": -1, "trial_type": "single-stim", "word": "brother", "stimulus": "<p id=\"stim\">BROTHER</p>", "conditions": [24, 1600, "v", 24000], "internal_node_id": "0.0-112.0", "trial": 4, "time_elapsed": 812588, "serialpos": 0, "key_press": -1, "wordID": 178, "type": "PRES_VIS", "trial_index": 157}, "uniqueid": "MTK3740:3K772S5NP9IEIU62FD54NCLQQ2DEHX", "dateTime": 1521217011962}, {"current_trial": 158, "trialdata": {"rt": -1, "trial_type": "single-stim", "word": "sibling", "stimulus": "<p id=\"stim\">SIBLING</p>", "conditions": [24, 1600, "v", 24000], "internal_node_id": "0.0-113.0", "trial": 4, "time_elapsed": 815090, "serialpos": 1, "key_press": -1, "wordID": 1300, "type": "PRES_VIS", "trial_index": 158}, "uniqueid": "MTK3740:3K772S5NP9IEIU62FD54NCLQQ2DEHX", "dateTime": 1521217014464}, {"current_trial": 159, "trialdata": {"rt": -1, "trial_type": "single-stim", "word": "maple", "stimulus": "<p id=\"stim\">MAPLE</p>", "conditions": [24, 1600, "v", 24000], "internal_node_id": "0.0-114.0", "trial": 4, "time_elapsed": 817724, "serialpos": 2, "key_press": -1, "wordID": 865, "type": "PRES_VIS", "trial_index": 159}, "uniqueid": "MTK3740:3K772S5NP9IEIU62FD54NCLQQ2DEHX", "dateTime": 1521217017098}, {"current_trial": 160, "trialdata": {"rt": -1, "trial_type": "single-stim", "word": "velvet", "stimulus": "<p id=\"stim\">VELVET</p>", "conditions": [24, 1600, "v", 24000], "internal_node_id": "0.0-115.0", "trial": 4, "time_elapsed": 820468, "serialpos": 3, "key_press": -1, "wordID": 1554, "type": "PRES_VIS", "trial_index": 160}, "uniqueid": "MTK3740:3K772S5NP9IEIU62FD54NCLQQ2DEHX", "dateTime": 1521217019842}, {"current_trial": 161, "trialdata": {"rt": -1, "trial_type": "single-stim", "word": "mattress", "stimulus": "<p id=\"stim\">MATTRESS</p>", "conditions": [24, 1600, "v", 24000], "internal_node_id": "0.0-116.0", "trial": 4, "time_elapsed": 822945, "serialpos": 4, "key_press": -1, "wordID": 878, "type": "PRES_VIS", "trial_index": 161}, "uniqueid": "MTK3740:3K772S5NP9IEIU62FD54NCLQQ2DEHX", "dateTime": 1521217022319}, {"current_trial": 162, "trialdata": {"rt": -1, "trial_type": "single-stim", "word": "spool", "stimulus": "<p id=\"stim\">SPOOL</p>", "conditions": [24, 1600, "v", 24000], "internal_node_id": "0.0-117.0", "trial": 4, "time_elapsed": 825508, "serialpos": 5, "key_press": -1, "wordID": 1355, "type": "PRES_VIS", "trial_index": 162}, "uniqueid": "MTK3740:3K772S5NP9IEIU62FD54NCLQQ2DEHX", "dateTime": 1521217024882}, {"current_trial": 163, "trialdata": {"rt": -1, "trial_type": "single-stim", "word": "transplant", "stimulus": "<p id=\"stim\">TRANSPLANT</p>", "conditions": [24, 1600, "v", 24000], "internal_node_id": "0.0-118.0", "trial": 4, "time_elapsed": 827950, "serialpos": 6, "key_press": -1, "wordID": 1495, "type": "PRES_VIS", "trial_index": 163}, "uniqueid": "MTK3740:3K772S5NP9IEIU62FD54NCLQQ2DEHX", "dateTime": 1521217027324}, {"current_trial": 164, "trialdata": {"rt": -1, "trial_type": "single-stim", "word": "couch", "stimulus": "<p id=\"stim\">COUCH</p>", "conditions": [24, 1600, "v", 24000], "internal_node_id": "0.0-119.0", "trial": 4, "time_elapsed": 830555, "serialpos": 7, "key_press": -1, "wordID": 385, "type": "PRES_VIS", "trial_index": 164}, "uniqueid": "MTK3740:3K772S5NP9IEIU62FD54NCLQQ2DEHX", "dateTime": 1521217029933}, {"current_trial": 165, "trialdata": {"rt": -1, "trial_type": "single-stim", "word": "item", "stimulus": "<p id=\"stim\">ITEM</p>", "conditions": [24, 1600, "v", 24000], "internal_node_id": "0.0-120.0", "trial": 4, "time_elapsed": 833347, "serialpos": 8, "key_press": -1, "wordID": 745, "type": "PRES_VIS", "trial_index": 165}, "uniqueid": "MTK3740:3K772S5NP9IEIU62FD54NCLQQ2DEHX", "dateTime": 1521217032721}, {"current_trial": 166, "trialdata": {"rt": -1, "trial_type": "single-stim", "word": "smog", "stimulus": "<p id=\"stim\">SMOG</p>", "conditions": [24, 1600, "v", 24000], "internal_node_id": "0.0-121.0", "trial": 4, "time_elapsed": 835825, "serialpos": 9, "key_press": -1, "wordID": 1329, "type": "PRES_VIS", "trial_index": 166}, "uniqueid": "MTK3740:3K772S5NP9IEIU62FD54NCLQQ2DEHX", "dateTime": 1521217035199}, {"current_trial": 167, "trialdata": {"rt": -1, "trial_type": "single-stim", "word": "mop", "stimulus": "<p id=\"stim\">MOP</p>", "conditions": [24, 1600, "v", 24000], "internal_node_id": "0.0-122.0", "trial": 4, "time_elapsed": 838276, "serialpos": 10, "key_press": -1, "wordID": 915, "type": "PRES_VIS", "trial_index": 167}, "uniqueid": "MTK3740:3K772S5NP9IEIU62FD54NCLQQ2DEHX", "dateTime": 1521217037650}, {"current_trial": 168, "trialdata": {"rt": -1, "trial_type": "single-stim", "word": "gazelle", "stimulus": "<p id=\"stim\">GAZELLE</p>", "conditions": [24, 1600, "v", 24000], "internal_node_id": "0.0-123.0", "trial": 4, "time_elapsed": 841037, "serialpos": 11, "key_press": -1, "wordID": 627, "type": "PRES_VIS", "trial_index": 168}, "uniqueid": "MTK3740:3K772S5NP9IEIU62FD54NCLQQ2DEHX", "dateTime": 1521217040411}, {"current_trial": 169, "trialdata": {"rt": -1, "trial_type": "single-stim", "word": "icing", "stimulus": "<p id=\"stim\">ICING</p>", "conditions": [24, 1600, "v", 24000], "internal_node_id": "0.0-124.0", "trial": 4, "time_elapsed": 843819, "serialpos": 12, "key_press": -1, "wordID": 731, "type": "PRES_VIS", "trial_index": 169}, "uniqueid": "MTK3740:3K772S5NP9IEIU62FD54NCLQQ2DEHX", "dateTime": 1521217043193}, {"current_trial": 170, "trialdata": {"rt": -1, "trial_type": "single-stim", "word": "chapel", "stimulus": "<p id=\"stim\">CHAPEL</p>", "conditions": [24, 1600, "v", 24000], "internal_node_id": "0.0-125.0", "trial": 4, "time_elapsed": 846495, "serialpos": 13, "key_press": -1, "wordID": 279, "type": "PRES_VIS", "trial_index": 170}, "uniqueid": "MTK3740:3K772S5NP9IEIU62FD54NCLQQ2DEHX", "dateTime": 1521217045869}, {"current_trial": 171, "trialdata": {"rt": -1, "trial_type": "single-stim", "word": "piano", "stimulus": "<p id=\"stim\">PIANO</p>", "conditions": [24, 1600, "v", 24000], "internal_node_id": "0.0-126.0", "trial": 4, "time_elapsed": 849058, "serialpos": 14, "key_press": -1, "wordID": 1056, "type": "PRES_VIS", "trial_index": 171}, "uniqueid": "MTK3740:3K772S5NP9IEIU62FD54NCLQQ2DEHX", "dateTime": 1521217048432}, {"current_trial": 172, "trialdata": {"rt": -1, "trial_type": "single-stim", "word": "river", "stimulus": "<p id=\"stim\">RIVER</p>", "conditions": [24, 1600, "v", 24000], "internal_node_id": "0.0-127.0", "trial": 4, "time_elapsed": 851473, "serialpos": 15, "key_press": -1, "wordID": 1193, "type": "PRES_VIS", "trial_index": 172}, "uniqueid": "MTK3740:3K772S5NP9IEIU62FD54NCLQQ2DEHX", "dateTime": 1521217050847}, {"current_trial": 173, "trialdata": {"rt": -1, "trial_type": "single-stim", "word": "brook", "stimulus": "<p id=\"stim\">BROOK</p>", "conditions": [24, 1600, "v", 24000], "internal_node_id": "0.0-128.0", "trial": 4, "time_elapsed": 854152, "serialpos": 16, "key_press": -1, "wordID": 176, "type": "PRES_VIS", "trial_index": 173}, "uniqueid": "MTK3740:3K772S5NP9IEIU62FD54NCLQQ2DEHX", "dateTime": 1521217053526}, {"current_trial": 174, "trialdata": {"rt": -1, "trial_type": "single-stim", "word": "compass", "stimulus": "<p id=\"stim\">COMPASS</p>", "conditions": [24, 1600, "v", 24000], "internal_node_id": "0.0-129.0", "trial": 4, "time_elapsed": 856775, "serialpos": 17, "key_press": -1, "wordID": 357, "type": "PRES_VIS", "trial_index": 174}, "uniqueid": "MTK3740:3K772S5NP9IEIU62FD54NCLQQ2DEHX", "dateTime": 1521217056149}, {"current_trial": 175, "trialdata": {"rt": -1, "trial_type": "single-stim", "word": "glove", "stimulus": "<p id=\"stim\">GLOVE</p>", "conditions": [24, 1600, "v", 24000], "internal_node_id": "0.0-130.0", "trial": 4, "time_elapsed": 859323, "serialpos": 18, "key_press": -1, "wordID": 641, "type": "PRES_VIS", "trial_index": 175}, "uniqueid": "MTK3740:3K772S5NP9IEIU62FD54NCLQQ2DEHX", "dateTime": 1521217058698}, {"current_trial": 176, "trialdata": {"rt": -1, "trial_type": "single-stim", "word": "blade", "stimulus": "<p id=\"stim\">BLADE</p>", "conditions": [24, 1600, "v", 24000], "internal_node_id": "0.0-131.0", "trial": 4, "time_elapsed": 861983, "serialpos": 19, "key_press": -1, "wordID": 133, "type": "PRES_VIS", "trial_index": 176}, "uniqueid": "MTK3740:3K772S5NP9IEIU62FD54NCLQQ2DEHX", "dateTime": 1521217061357}, {"current_trial": 177, "trialdata": {"rt": -1, "trial_type": "single-stim", "word": "church", "stimulus": "<p id=\"stim\">CHURCH</p>", "conditions": [24, 1600, "v", 24000], "internal_node_id": "0.0-132.0", "trial": 4, "time_elapsed": 864486, "serialpos": 20, "key_press": -1, "wordID": 306, "type": "PRES_VIS", "trial_index": 177}, "uniqueid": "MTK3740:3K772S5NP9IEIU62FD54NCLQQ2DEHX", "dateTime": 1521217063860}, {"current_trial": 178, "trialdata": {"rt": -1, "trial_type": "single-stim", "word": "rust", "stimulus": "<p id=\"stim\">RUST</p>", "conditions": [24, 1600, "v", 24000], "internal_node_id": "0.0-133.0", "trial": 4, "time_elapsed": 867191, "serialpos": 21, "key_press": -1, "wordID": 1218, "type": "PRES_VIS", "trial_index": 178}, "uniqueid": "MTK3740:3K772S5NP9IEIU62FD54NCLQQ2DEHX", "dateTime": 1521217066565}, {"current_trial": 179, "trialdata": {"rt": -1, "trial_type": "single-stim", "word": "puppy", "stimulus": "<p id=\"stim\">PUPPY</p>", "conditions": [24, 1600, "v", 24000], "internal_node_id": "0.0-134.0", "trial": 4, "time_elapsed": 869877, "serialpos": 22, "key_press": -1, "wordID": 1143, "type": "PRES_VIS", "trial_index": 179}, "uniqueid": "MTK3740:3K772S5NP9IEIU62FD54NCLQQ2DEHX", "dateTime": 1521217069251}, {"current_trial": 180, "trialdata": {"rt": -1, "trial_type": "single-stim", "word": "soda", "stimulus": "<p id=\"stim\">SODA</p>", "conditions": [24, 1600, "v", 24000], "internal_node_id": "0.0-135.0", "trial": 4, "time_elapsed": 872341, "serialpos": 23, "key_press": -1, "wordID": 1340, "type": "PRES_VIS", "trial_index": 180}, "uniqueid": "MTK3740:3K772S5NP9IEIU62FD54NCLQQ2DEHX", "dateTime": 1521217071715}, {"current_trial": 181, "trialdata": {"rt": -1, "trial_type": "single-stim", "stimulus": "", "internal_node_id": "0.0-136.0-0.0", "time_elapsed": 874658, "key_press": -1, "type": "PRE_RECALL_DELAY", "trial_index": 181}, "uniqueid": "MTK3740:3K772S5NP9IEIU62FD54NCLQQ2DEHX", "dateTime": 1521217074032}, {"current_trial": 182, "trialdata": {"rt": -1000, "trial_type": "single-audio", "stimulus": "/static/audio/400Hz.wav", "internal_node_id": "0.0-137.0", "time_elapsed": 875163, "key_press": -1, "type": "PRE_RECALL_ALERT", "trial_index": 182}, "uniqueid": "MTK3740:3K772S5NP9IEIU62FD54NCLQQ2DEHX", "dateTime": 1521217074537}, {"current_trial": 183, "trialdata": {"rt": [4079, 6046, 8359, 10648, 12723, 16507, 19619, 22687, 29819, 42778, 45276, 51699], "recwords": ["puppy", "soda", "church", "chapel", "brook", "brother", "sibling", "river", "icing", "chapel", "church", "item"], "key_times": [1815, 1953, 2493, 3109, 3282, 3512, 4079, 4819, 4945, 5334, 5491, 6046, 6848, 6966, 7204, 7354, 7728, 7847, 8359, 8938, 9056, 9205, 9437, 9699, 9979, 10648, 11508, 11753, 11938, 12103, 12313, 12723, 14369, 14997, 15125, 15299, 15424, 15621, 15844, 16507, 17302, 17422, 17635, 18251, 18411, 18606, 18811, 19619, 21323, 21438, 21627, 21889, 22040, 22687, 27868, 27999, 28192, 28404, 28506, 29819, 40782, 40876, 41120, 41418, 41743, 41844, 42778, 43534, 43645, 44275, 44424, 44758, 44901, 45276, 50889, 51007, 51171, 51403, 51699], "trial_type": "free-recall", "conditions": [24, 1600, "v", 24000], "internal_node_id": "0.0-138.0-0.0", "key_presses": [16, 80, 85, 80, 80, 89, 13, 83, 79, 68, 65, 13, 67, 72, 85, 82, 67, 72, 13, 67, 72, 65, 80, 69, 76, 13, 66, 82, 79, 79, 75, 13, 66, 82, 79, 84, 72, 69, 82, 13, 83, 73, 66, 76, 73, 78, 71, 13, 82, 73, 86, 69, 82, 13, 73, 67, 73, 78, 71, 13, 67, 72, 65, 80, 69, 76, 13, 67, 72, 85, 82, 67, 72, 13, 73, 84, 69, 77, 13], "trial": 4, "time_elapsed": 935167, "type": "FREE_RECALL", "trial_index": 183}, "uniqueid": "MTK3740:3K772S5NP9IEIU62FD54NCLQQ2DEHX", "dateTime": 1521217134552}, {"current_trial": 184, "trialdata": {"rt": 1433, "trial_type": "text", "internal_node_id": "0.0-139.0", "time_elapsed": 938612, "key_press": 32, "type": "INSTRUCTIONS", "trial_index": 184}, "uniqueid": "MTK3740:3K772S5NP9IEIU62FD54NCLQQ2DEHX", "dateTime": 1521217137986}, {"current_trial": 185, "trialdata": {"rt": [5691, 10175], "trial_type": "math-distractor", "key_times": [4757, 5389, 5691, 9399, 9853, 10175], "responses": ["19", "15"], "num2": [8, 1, 6], "num3": [7, 8, 9], "conditions": [24, 1600, "v", 12000], "internal_node_id": "0.0-140.0", "key_presses": [49, 57, 13, 49, 53, 13], "trial": 5, "time_elapsed": 952616, "type": "DISTRACTOR", "trial_index": 185, "num1": [4, 6, 4]}, "uniqueid": "MTK3740:3K772S5NP9IEIU62FD54NCLQQ2DEHX", "dateTime": 1521217151990}, {"current_trial": 186, "trialdata": {"rt": -1, "trial_type": "single-stim", "stimulus": "<p id=\"stim\">10</p>", "internal_node_id": "0.0-141.0-0.0", "time_elapsed": 955618, "key_press": -1, "trial_index": 186}, "uniqueid": "MTK3740:3K772S5NP9IEIU62FD54NCLQQ2DEHX", "dateTime": 1521217154992}, {"current_trial": 187, "trialdata": {"rt": -1, "trial_type": "single-stim", "stimulus": "<p id=\"stim\">9</p>", "internal_node_id": "0.0-141.0-1.0", "time_elapsed": 956622, "key_press": -1, "trial_index": 187}, "uniqueid": "MTK3740:3K772S5NP9IEIU62FD54NCLQQ2DEHX", "dateTime": 1521217155996}, {"current_trial": 188, "trialdata": {"rt": -1, "trial_type": "single-stim", "stimulus": "<p id=\"stim\">8</p>", "internal_node_id": "0.0-141.0-2.0", "time_elapsed": 957623, "key_press": -1, "trial_index": 188}, "uniqueid": "MTK3740:3K772S5NP9IEIU62FD54NCLQQ2DEHX", "dateTime": 1521217156997}, {"current_trial": 189, "trialdata": {"rt": -1, "trial_type": "single-stim", "stimulus": "<p id=\"stim\">7</p>", "internal_node_id": "0.0-141.0-3.0", "time_elapsed": 958628, "key_press": -1, "trial_index": 189}, "uniqueid": "MTK3740:3K772S5NP9IEIU62FD54NCLQQ2DEHX", "dateTime": 1521217158002}, {"current_trial": 190, "trialdata": {"rt": -1, "trial_type": "single-stim", "stimulus": "<p id=\"stim\">6</p>", "internal_node_id": "0.0-141.0-4.0", "time_elapsed": 959631, "key_press": -1, "trial_index": 190}, "uniqueid": "MTK3740:3K772S5NP9IEIU62FD54NCLQQ2DEHX", "dateTime": 1521217159005}, {"current_trial": 191, "trialdata": {"rt": -1, "trial_type": "single-stim", "stimulus": "<p id=\"stim\">5</p>", "internal_node_id": "0.0-141.0-5.0", "time_elapsed": 960634, "key_press": -1, "trial_index": 191}, "uniqueid": "MTK3740:3K772S5NP9IEIU62FD54NCLQQ2DEHX", "dateTime": 1521217160008}, {"current_trial": 192, "trialdata": {"rt": -1, "trial_type": "single-stim", "stimulus": "<p id=\"stim\">4</p>", "internal_node_id": "0.0-141.0-6.0", "time_elapsed": 961635, "key_press": -1, "trial_index": 192}, "uniqueid": "MTK3740:3K772S5NP9IEIU62FD54NCLQQ2DEHX", "dateTime": 1521217161009}, {"current_trial": 193, "trialdata": {"rt": -1, "trial_type": "single-stim", "stimulus": "<p id=\"stim\">3</p>", "internal_node_id": "0.0-141.0-7.0", "time_elapsed": 962637, "key_press": -1, "trial_index": 193}, "uniqueid": "MTK3740:3K772S5NP9IEIU62FD54NCLQQ2DEHX", "dateTime": 1521217162011}, {"current_trial": 194, "trialdata": {"rt": -1, "trial_type": "single-stim", "stimulus": "<p id=\"stim\">2</p>", "internal_node_id": "0.0-141.0-8.0", "time_elapsed": 963641, "key_press": -1, "trial_index": 194}, "uniqueid": "MTK3740:3K772S5NP9IEIU62FD54NCLQQ2DEHX", "dateTime": 1521217163015}, {"current_trial": 195, "trialdata": {"rt": -1, "trial_type": "single-stim", "stimulus": "<p id=\"stim\">1</p>", "internal_node_id": "0.0-141.0-9.0", "time_elapsed": 964643, "key_press": -1, "trial_index": 195}, "uniqueid": "MTK3740:3K772S5NP9IEIU62FD54NCLQQ2DEHX", "dateTime": 1521217164017}, {"current_trial": 196, "trialdata": {"rt": -1, "trial_type": "single-stim", "stimulus": "<p id=\"stim\">+</p>", "internal_node_id": "0.0-142.0-0.0", "time_elapsed": 966145, "key_press": -1, "type": "FIXATION", "trial_index": 196}, "uniqueid": "MTK3740:3K772S5NP9IEIU62FD54NCLQQ2DEHX", "dateTime": 1521217165519}, {"current_trial": 197, "trialdata": {"rt": -1, "trial_type": "single-stim", "word": "scotch", "stimulus": "<p id=\"stim\">SCOTCH</p>", "conditions": [24, 1600, "v", 12000], "internal_node_id": "0.0-143.0", "trial": 5, "time_elapsed": 967748, "serialpos": 0, "key_press": -1, "wordID": 1250, "type": "PRES_VIS", "trial_index": 197}, "uniqueid": "MTK3740:3K772S5NP9IEIU62FD54NCLQQ2DEHX", "dateTime": 1521217167122}, {"current_trial": 198, "trialdata": {"rt": -1, "trial_type": "single-stim", "word": "cigar", "stimulus": "<p id=\"stim\">CIGAR</p>", "conditions": [24, 1600, "v", 12000], "internal_node_id": "0.0-144.0", "trial": 5, "time_elapsed": 970242, "serialpos": 1, "key_press": -1, "wordID": 307, "type": "PRES_VIS", "trial_index": 198}, "uniqueid": "MTK3740:3K772S5NP9IEIU62FD54NCLQQ2DEHX", "dateTime": 1521217169616}, {"current_trial": 199, "trialdata": {"rt": -1, "trial_type": "single-stim", "word": "loft", "stimulus": "<p id=\"stim\">LOFT</p>", "conditions": [24, 1600, "v", 12000], "internal_node_id": "0.0-145.0", "trial": 5, "time_elapsed": 972675, "serialpos": 2, "key_press": -1, "wordID": 839, "type": "PRES_VIS", "trial_index": 199}, "uniqueid": "MTK3740:3K772S5NP9IEIU62FD54NCLQQ2DEHX", "dateTime": 1521217172049}, {"current_trial": 200, "trialdata": {"rt": -1, "trial_type": "single-stim", "word": "breast", "stimulus": "<p id=\"stim\">BREAST</p>", "conditions": [24, 1600, "v", 12000], "internal_node_id": "0.0-146.0", "trial": 5, "time_elapsed": 975310, "serialpos": 3, "key_press": -1, "wordID": 170, "type": "PRES_VIS", "trial_index": 200}, "uniqueid": "MTK3740:3K772S5NP9IEIU62FD54NCLQQ2DEHX", "dateTime": 1521217174684}, {"current_trial": 201, "trialdata": {"rt": -1, "trial_type": "single-stim", "word": "donor", "stimulus": "<p id=\"stim\">DONOR</p>", "conditions": [24, 1600, "v", 12000], "internal_node_id": "0.0-147.0", "trial": 5, "time_elapsed": 977851, "serialpos": 4, "key_press": -1, "wordID": 484, "type": "PRES_VIS", "trial_index": 201}, "uniqueid": "MTK3740:3K772S5NP9IEIU62FD54NCLQQ2DEHX", "dateTime": 1521217177225}, {"current_trial": 202, "trialdata": {"rt": -1, "trial_type": "single-stim", "word": "poison", "stimulus": "<p id=\"stim\">POISON</p>", "conditions": [24, 1600, "v", 12000], "internal_node_id": "0.0-148.0", "trial": 5, "time_elapsed": 980358, "serialpos": 5, "key_press": -1, "wordID": 1095, "type": "PRES_VIS", "trial_index": 202}, "uniqueid": "MTK3740:3K772S5NP9IEIU62FD54NCLQQ2DEHX", "dateTime": 1521217179732}, {"current_trial": 203, "trialdata": {"rt": -1, "trial_type": "single-stim", "word": "dust", "stimulus": "<p id=\"stim\">DUST</p>", "conditions": [24, 1600, "v", 12000], "internal_node_id": "0.0-149.0", "trial": 5, "time_elapsed": 983039, "serialpos": 6, "key_press": -1, "wordID": 507, "type": "PRES_VIS", "trial_index": 203}, "uniqueid": "MTK3740:3K772S5NP9IEIU62FD54NCLQQ2DEHX", "dateTime": 1521217182413}, {"current_trial": 204, "trialdata": {"rt": -1, "trial_type": "single-stim", "word": "brandy", "stimulus": "<p id=\"stim\">BRANDY</p>", "conditions": [24, 1600, "v", 12000], "internal_node_id": "0.0-150.0", "trial": 5, "time_elapsed": 985717, "serialpos": 7, "key_press": -1, "wordID": 168, "type": "PRES_VIS", "trial_index": 204}, "uniqueid": "MTK3740:3K772S5NP9IEIU62FD54NCLQQ2DEHX", "dateTime": 1521217185091}, {"current_trial": 205, "trialdata": {"rt": -1, "trial_type": "single-stim", "word": "valve", "stimulus": "<p id=\"stim\">VALVE</p>", "conditions": [24, 1600, "v", 12000], "internal_node_id": "0.0-151.0", "trial": 5, "time_elapsed": 988424, "serialpos": 8, "key_press": -1, "wordID": 1545, "type": "PRES_VIS", "trial_index": 205}, "uniqueid": "MTK3740:3K772S5NP9IEIU62FD54NCLQQ2DEHX", "dateTime": 1521217187798}, {"current_trial": 206, "trialdata": {"rt": -1, "trial_type": "single-stim", "word": "piston", "stimulus": "<p id=\"stim\">PISTON</p>", "conditions": [24, 1600, "v", 12000], "internal_node_id": "0.0-152.0", "trial": 5, "time_elapsed": 991053, "serialpos": 9, "key_press": -1, "wordID": 1075, "type": "PRES_VIS", "trial_index": 206}, "uniqueid": "MTK3740:3K772S5NP9IEIU62FD54NCLQQ2DEHX", "dateTime": 1521217190429}, {"current_trial": 207, "trialdata": {"rt": -1, "trial_type": "single-stim", "word": "suitcase", "stimulus": "<p id=\"stim\">SUITCASE</p>", "conditions": [24, 1600, "v", 12000], "internal_node_id": "0.0-153.0", "trial": 5, "time_elapsed": 993800, "serialpos": 10, "key_press": -1, "wordID": 1402, "type": "PRES_VIS", "trial_index": 207}, "uniqueid": "MTK3740:3K772S5NP9IEIU62FD54NCLQQ2DEHX", "dateTime": 1521217193174}, {"current_trial": 208, "trialdata": {"rt": -1, "trial_type": "single-stim", "word": "treat", "stimulus": "<p id=\"stim\">TREAT</p>", "conditions": [24, 1600, "v", 12000], "internal_node_id": "0.0-154.0", "trial": 5, "time_elapsed": 996213, "serialpos": 11, "key_press": -1, "wordID": 1500, "type": "PRES_VIS", "trial_index": 208}, "uniqueid": "MTK3740:3K772S5NP9IEIU62FD54NCLQQ2DEHX", "dateTime": 1521217195587}, {"current_trial": 209, "trialdata": {"rt": -1, "trial_type": "single-stim", "word": "toaster", "stimulus": "<p id=\"stim\">TOASTER</p>", "conditions": [24, 1600, "v", 12000], "internal_node_id": "0.0-155.0", "trial": 5, "time_elapsed": 998849, "serialpos": 12, "key_press": -1, "wordID": 1471, "type": "PRES_VIS", "trial_index": 209}, "uniqueid": "MTK3740:3K772S5NP9IEIU62FD54NCLQQ2DEHX", "dateTime": 1521217198223}, {"current_trial": 210, "trialdata": {"rt": -1, "trial_type": "single-stim", "word": "bug", "stimulus": "<p id=\"stim\">BUG</p>", "conditions": [24, 1600, "v", 12000], "internal_node_id": "0.0-156.0", "trial": 5, "time_elapsed": 1001600, "serialpos": 13, "key_press": -1, "wordID": 186, "type": "PRES_VIS", "trial_index": 210}, "uniqueid": "MTK3740:3K772S5NP9IEIU62FD54NCLQQ2DEHX", "dateTime": 1521217200974}, {"current_trial": 211, "trialdata": {"rt": -1, "trial_type": "single-stim", "word": "pistol", "stimulus": "<p id=\"stim\">PISTOL</p>", "conditions": [24, 1600, "v", 12000], "internal_node_id": "0.0-157.0", "trial": 5, "time_elapsed": 1004031, "serialpos": 14, "key_press": -1, "wordID": 1074, "type": "PRES_VIS", "trial_index": 211}, "uniqueid": "MTK3740:3K772S5NP9IEIU62FD54NCLQQ2DEHX", "dateTime": 1521217203405}, {"current_trial": 212, "trialdata": {"rt": -1, "trial_type": "single-stim", "word": "journal", "stimulus": "<p id=\"stim\">JOURNAL</p>", "conditions": [24, 1600, "v", 12000], "internal_node_id": "0.0-158.0", "trial": 5, "time_elapsed": 1006708, "serialpos": 15, "key_press": -1, "wordID": 759, "type": "PRES_VIS", "trial_index": 212}, "uniqueid": "MTK3740:3K772S5NP9IEIU62FD54NCLQQ2DEHX", "dateTime": 1521217206082}, {"current_trial": 213, "trialdata": {"rt": -1, "trial_type": "single-stim", "word": "whiskers", "stimulus": "<p id=\"stim\">WHISKERS</p>", "conditions": [24, 1600, "v", 12000], "internal_node_id": "0.0-159.0", "trial": 5, "time_elapsed": 1009193, "serialpos": 16, "key_press": -1, "wordID": 1604, "type": "PRES_VIS", "trial_index": 213}, "uniqueid": "MTK3740:3K772S5NP9IEIU62FD54NCLQQ2DEHX", "dateTime": 1521217208567}, {"current_trial": 214, "trialdata": {"rt": -1, "trial_type": "single-stim", "word": "shortcake", "stimulus": "<p id=\"stim\">SHORTCAKE</p>", "conditions": [24, 1600, "v", 12000], "internal_node_id": "0.0-160.0", "trial": 5, "time_elapsed": 1011710, "serialpos": 17, "key_press": -1, "wordID": 1291, "type": "PRES_VIS", "trial_index": 214}, "uniqueid": "MTK3740:3K772S5NP9IEIU62FD54NCLQQ2DEHX", "dateTime": 1521217211084}, {"current_trial": 215, "trialdata": {"rt": -1, "trial_type": "single-stim", "word": "virus", "stimulus": "<p id=\"stim\">VIRUS</p>", "conditions": [24, 1600, "v", 12000], "internal_node_id": "0.0-161.0", "trial": 5, "time_elapsed": 1014477, "serialpos": 18, "key_press": -1, "wordID": 1571, "type": "PRES_VIS", "trial_index": 215}, "uniqueid": "MTK3740:3K772S5NP9IEIU62FD54NCLQQ2DEHX", "dateTime": 1521217213851}, {"current_trial": 216, "trialdata": {"rt": -1, "trial_type": "single-stim", "word": "police", "stimulus": "<p id=\"stim\">POLICE</p>", "conditions": [24, 1600, "v", 12000], "internal_node_id": "0.0-162.0", "trial": 5, "time_elapsed": 1016933, "serialpos": 19, "key_press": -1, "wordID": 1097, "type": "PRES_VIS", "trial_index": 216}, "uniqueid": "MTK3740:3K772S5NP9IEIU62FD54NCLQQ2DEHX", "dateTime": 1521217216307}, {"current_trial": 217, "trialdata": {"rt": -1, "trial_type": "single-stim", "word": "patrol", "stimulus": "<p id=\"stim\">PATROL</p>", "conditions": [24, 1600, "v", 12000], "internal_node_id": "0.0-163.0", "trial": 5, "time_elapsed": 1019465, "serialpos": 20, "key_press": -1, "wordID": 1026, "type": "PRES_VIS", "trial_index": 217}, "uniqueid": "MTK3740:3K772S5NP9IEIU62FD54NCLQQ2DEHX", "dateTime": 1521217218839}, {"current_trial": 218, "trialdata": {"rt": -1, "trial_type": "single-stim", "word": "tuba", "stimulus": "<p id=\"stim\">TUBA</p>", "conditions": [24, 1600, "v", 12000], "internal_node_id": "0.0-164.0", "trial": 5, "time_elapsed": 1022128, "serialpos": 21, "key_press": -1, "wordID": 1514, "type": "PRES_VIS", "trial_index": 218}, "uniqueid": "MTK3740:3K772S5NP9IEIU62FD54NCLQQ2DEHX", "dateTime": 1521217221502}, {"current_trial": 219, "trialdata": {"rt": -1, "trial_type": "single-stim", "word": "saddle", "stimulus": "<p id=\"stim\">SADDLE</p>", "conditions": [24, 1600, "v", 12000], "internal_node_id": "0.0-165.0", "trial": 5, "time_elapsed": 1024735, "serialpos": 22, "key_press": -1, "wordID": 1220, "type": "PRES_VIS", "trial_index": 219}, "uniqueid": "MTK3740:3K772S5NP9IEIU62FD54NCLQQ2DEHX", "dateTime": 1521217224109}, {"current_trial": 220, "trialdata": {"rt": -1, "trial_type": "single-stim", "word": "buggy", "stimulus": "<p id=\"stim\">BUGGY</p>", "conditions": [24, 1600, "v", 12000], "internal_node_id": "0.0-166.0", "trial": 5, "time_elapsed": 1027253, "serialpos": 23, "key_press": -1, "wordID": 187, "type": "PRES_VIS", "trial_index": 220}, "uniqueid": "MTK3740:3K772S5NP9IEIU62FD54NCLQQ2DEHX", "dateTime": 1521217226627}, {"current_trial": 221, "trialdata": {"rt": -1, "trial_type": "single-stim", "stimulus": "", "internal_node_id": "0.0-167.0-0.0", "time_elapsed": 1029497, "key_press": -1, "type": "PRE_RECALL_DELAY", "trial_index": 221}, "uniqueid": "MTK3740:3K772S5NP9IEIU62FD54NCLQQ2DEHX", "dateTime": 1521217228871}, {"current_trial": 222, "trialdata": {"rt": -1000, "trial_type": "single-audio", "stimulus": "/static/audio/400Hz.wav", "internal_node_id": "0.0-168.0", "time_elapsed": 1029998, "key_press": -1, "type": "PRE_RECALL_ALERT", "trial_index": 222}, "uniqueid": "MTK3740:3K772S5NP9IEIU62FD54NCLQQ2DEHX", "dateTime": 1521217229372}, {"current_trial": 223, "trialdata": {"rt": [3570, 6237, 9210, 14618, 29899, 49057], "recwords": ["police", "patrol", "tuba", "bug", "pistol", "suitcase"], "key_times": [617, 1923, 2147, 2831, 2934, 3146, 3570, 4167, 4483, 4666, 4912, 5105, 5414, 6237, 7176, 7368, 7821, 8401, 9210, 12945, 13572, 13778, 14618, 26751, 27828, 27928, 28111, 28325, 28579, 29899, 32480, 34221, 34520, 34743, 34862, 35045, 36203, 36704, 36737, 36772, 36804, 36841, 36871, 36906, 36938, 36973, 37007, 37040, 37075, 37107, 46550, 46717, 47053, 47208, 47692, 47906, 48505, 48767, 49057], "trial_type": "free-recall", "conditions": [24, 1600, "v", 12000], "internal_node_id": "0.0-169.0-0.0", "key_presses": [80, 79, 76, 73, 67, 69, 13, 80, 65, 84, 82, 79, 76, 13, 84, 85, 66, 65, 13, 66, 85, 71, 13, 80, 73, 83, 84, 79, 76, 13, 80, 73, 83, 84, 79, 78, 8, 8, 8, 8, 8, 8, 8, 8, 8, 8, 8, 8, 8, 8, 83, 85, 73, 84, 67, 65, 83, 69, 13], "trial": 5, "time_elapsed": 1090001, "type": "FREE_RECALL", "trial_index": 223}, "uniqueid": "MTK3740:3K772S5NP9IEIU62FD54NCLQQ2DEHX", "dateTime": 1521217289386}, {"current_trial": 224, "trialdata": {"rt": 913, "trial_type": "text", "internal_node_id": "0.0-170.0", "time_elapsed": 1092927, "key_press": 32, "type": "INSTRUCTIONS", "trial_index": 224}, "uniqueid": "MTK3740:3K772S5NP9IEIU62FD54NCLQQ2DEHX", "dateTime": 1521217292301}, {"current_trial": 225, "trialdata": {"rt": [4117, 6585, 10114, 12998, 16296, 19257], "trial_type": "math-distractor", "key_times": [3638, 3861, 4117, 6322, 6585, 9661, 9954, 10114, 12752, 12998, 15744, 15931, 16296, 18747, 19073, 19257], "responses": ["17", "9", "13", "8", "17", "13"], "num2": [1, 4, 7, 1, 2, 3, 6], "num3": [8, 1, 4, 3, 8, 9, 7], "conditions": [24, 800, "v", 24000], "internal_node_id": "0.0-171.0", "key_presses": [49, 55, 13, 57, 13, 49, 51, 13, 56, 13, 49, 55, 13, 49, 51, 13], "trial": 6, "time_elapsed": 1118930, "type": "DISTRACTOR", "trial_index": 225, "num1": [8, 4, 2, 4, 7, 1, 9]}, "uniqueid": "MTK3740:3K772S5NP9IEIU62FD54NCLQQ2DEHX", "dateTime": 1521217318305}, {"current_trial": 226, "trialdata": {"rt": -1, "trial_type": "single-stim", "stimulus": "<p id=\"stim\">10</p>", "internal_node_id": "0.0-172.0-0.0", "time_elapsed": 1121931, "key_press": -1, "trial_index": 226}, "uniqueid": "MTK3740:3K772S5NP9IEIU62FD54NCLQQ2DEHX", "dateTime": 1521217321306}, {"current_trial": 227, "trialdata": {"rt": -1, "trial_type": "single-stim", "stimulus": "<p id=\"stim\">9</p>", "internal_node_id": "0.0-172.0-1.0", "time_elapsed": 1122935, "key_press": -1, "trial_index": 227}, "uniqueid": "MTK3740:3K772S5NP9IEIU62FD54NCLQQ2DEHX", "dateTime": 1521217322309}, {"current_trial": 228, "trialdata": {"rt": -1, "trial_type": "single-stim", "stimulus": "<p id=\"stim\">8</p>", "internal_node_id": "0.0-172.0-2.0", "time_elapsed": 1123937, "key_press": -1, "trial_index": 228}, "uniqueid": "MTK3740:3K772S5NP9IEIU62FD54NCLQQ2DEHX", "dateTime": 1521217323311}, {"current_trial": 229, "trialdata": {"rt": -1, "trial_type": "single-stim", "stimulus": "<p id=\"stim\">7</p>", "internal_node_id": "0.0-172.0-3.0", "time_elapsed": 1124938, "key_press": -1, "trial_index": 229}, "uniqueid": "MTK3740:3K772S5NP9IEIU62FD54NCLQQ2DEHX", "dateTime": 1521217324312}, {"current_trial": 230, "trialdata": {"rt": -1, "trial_type": "single-stim", "stimulus": "<p id=\"stim\">6</p>", "internal_node_id": "0.0-172.0-4.0", "time_elapsed": 1125941, "key_press": -1, "trial_index": 230}, "uniqueid": "MTK3740:3K772S5NP9IEIU62FD54NCLQQ2DEHX", "dateTime": 1521217325315}, {"current_trial": 231, "trialdata": {"rt": -1, "trial_type": "single-stim", "stimulus": "<p id=\"stim\">5</p>", "internal_node_id": "0.0-172.0-5.0", "time_elapsed": 1126943, "key_press": -1, "trial_index": 231}, "uniqueid": "MTK3740:3K772S5NP9IEIU62FD54NCLQQ2DEHX", "dateTime": 1521217326317}, {"current_trial": 232, "trialdata": {"rt": -1, "trial_type": "single-stim", "stimulus": "<p id=\"stim\">4</p>", "internal_node_id": "0.0-172.0-6.0", "time_elapsed": 1127944, "key_press": -1, "trial_index": 232}, "uniqueid": "MTK3740:3K772S5NP9IEIU62FD54NCLQQ2DEHX", "dateTime": 1521217327318}, {"current_trial": 233, "trialdata": {"rt": -1, "trial_type": "single-stim", "stimulus": "<p id=\"stim\">3</p>", "internal_node_id": "0.0-172.0-7.0", "time_elapsed": 1128946, "key_press": -1, "trial_index": 233}, "uniqueid": "MTK3740:3K772S5NP9IEIU62FD54NCLQQ2DEHX", "dateTime": 1521217328320}, {"current_trial": 234, "trialdata": {"rt": -1, "trial_type": "single-stim", "stimulus": "<p id=\"stim\">2</p>", "internal_node_id": "0.0-172.0-8.0", "time_elapsed": 1129948, "key_press": -1, "trial_index": 234}, "uniqueid": "MTK3740:3K772S5NP9IEIU62FD54NCLQQ2DEHX", "dateTime": 1521217329322}, {"current_trial": 235, "trialdata": {"rt": -1, "trial_type": "single-stim", "stimulus": "<p id=\"stim\">1</p>", "internal_node_id": "0.0-172.0-9.0", "time_elapsed": 1130949, "key_press": -1, "trial_index": 235}, "uniqueid": "MTK3740:3K772S5NP9IEIU62FD54NCLQQ2DEHX", "dateTime": 1521217330323}, {"current_trial": 236, "trialdata": {"rt": -1, "trial_type": "single-stim", "stimulus": "<p id=\"stim\">+</p>", "internal_node_id": "0.0-173.0-0.0", "time_elapsed": 1132450, "key_press": -1, "type": "FIXATION", "trial_index": 236}, "uniqueid": "MTK3740:3K772S5NP9IEIU62FD54NCLQQ2DEHX", "dateTime": 1521217331824}, {"current_trial": 237, "trialdata": {"rt": -1, "trial_type": "single-stim", "word": "blouse", "stimulus": "<p id=\"stim\">BLOUSE</p>", "conditions": [24, 800, "v", 24000], "internal_node_id": "0.0-174.0", "trial": 6, "time_elapsed": 1133251, "serialpos": 0, "key_press": -1, "wordID": 138, "type": "PRES_VIS", "trial_index": 237}, "uniqueid": "MTK3740:3K772S5NP9IEIU62FD54NCLQQ2DEHX", "dateTime": 1521217332625}, {"current_trial": 238, "trialdata": {"rt": -1, "trial_type": "single-stim", "word": "shovel", "stimulus": "<p id=\"stim\">SHOVEL</p>", "conditions": [24, 800, "v", 24000], "internal_node_id": "0.0-175.0", "trial": 6, "time_elapsed": 1134955, "serialpos": 1, "key_press": -1, "wordID": 1294, "type": "PRES_VIS", "trial_index": 238}, "uniqueid": "MTK3740:3K772S5NP9IEIU62FD54NCLQQ2DEHX", "dateTime": 1521217334329}, {"current_trial": 239, "trialdata": {"rt": -1, "trial_type": "single-stim", "word": "pigeon", "stimulus": "<p id=\"stim\">PIGEON</p>", "conditions": [24, 800, "v", 24000], "internal_node_id": "0.0-176.0", "trial": 6, "time_elapsed": 1136954, "serialpos": 2, "key_press": -1, "wordID": 1064, "type": "PRES_VIS", "trial_index": 239}, "uniqueid": "MTK3740:3K772S5NP9IEIU62FD54NCLQQ2DEHX", "dateTime": 1521217336328}, {"current_trial": 240, "trialdata": {"rt": -1, "trial_type": "single-stim", "word": "tractor", "stimulus": "<p id=\"stim\">TRACTOR</p>", "conditions": [24, 800, "v", 24000], "internal_node_id": "0.0-177.0", "trial": 6, "time_elapsed": 1138778, "serialpos": 3, "key_press": -1, "wordID": 1492, "type": "PRES_VIS", "trial_index": 240}, "uniqueid": "MTK3740:3K772S5NP9IEIU62FD54NCLQQ2DEHX", "dateTime": 1521217338152}, {"current_trial": 241, "trialdata": {"rt": -1, "trial_type": "single-stim", "word": "truck", "stimulus": "<p id=\"stim\">TRUCK</p>", "conditions": [24, 800, "v", 24000], "internal_node_id": "0.0-178.0", "trial": 6, "time_elapsed": 1140486, "serialpos": 4, "key_press": -1, "wordID": 1511, "type": "PRES_VIS", "trial_index": 241}, "uniqueid": "MTK3740:3K772S5NP9IEIU62FD54NCLQQ2DEHX", "dateTime": 1521217339860}, {"current_trial": 242, "trialdata": {"rt": -1, "trial_type": "single-stim", "word": "patient", "stimulus": "<p id=\"stim\">PATIENT</p>", "conditions": [24, 800, "v", 24000], "internal_node_id": "0.0-179.0", "trial": 6, "time_elapsed": 1142150, "serialpos": 5, "key_press": -1, "wordID": 1023, "type": "PRES_VIS", "trial_index": 242}, "uniqueid": "MTK3740:3K772S5NP9IEIU62FD54NCLQQ2DEHX", "dateTime": 1521217341524}, {"current_trial": 243, "trialdata": {"rt": -1, "trial_type": "single-stim", "word": "kleenex", "stimulus": "<p id=\"stim\">KLEENEX</p>", "conditions": [24, 800, "v", 24000], "internal_node_id": "0.0-180.0", "trial": 6, "time_elapsed": 1143985, "serialpos": 6, "key_press": -1, "wordID": 781, "type": "PRES_VIS", "trial_index": 243}, "uniqueid": "MTK3740:3K772S5NP9IEIU62FD54NCLQQ2DEHX", "dateTime": 1521217343359}, {"current_trial": 244, "trialdata": {"rt": -1, "trial_type": "single-stim", "word": "sunset", "stimulus": "<p id=\"stim\">SUNSET</p>", "conditions": [24, 800, "v", 24000], "internal_node_id": "0.0-181.0", "trial": 6, "time_elapsed": 1145633, "serialpos": 7, "key_press": -1, "wordID": 1407, "type": "PRES_VIS", "trial_index": 244}, "uniqueid": "MTK3740:3K772S5NP9IEIU62FD54NCLQQ2DEHX", "dateTime": 1521217345007}, {"current_trial": 245, "trialdata": {"rt": -1, "trial_type": "single-stim", "word": "cod", "stimulus": "<p id=\"stim\">COD</p>", "conditions": [24, 800, "v", 24000], "internal_node_id": "0.0-182.0", "trial": 6, "time_elapsed": 1147501, "serialpos": 8, "key_press": -1, "wordID": 339, "type": "PRES_VIS", "trial_index": 245}, "uniqueid": "MTK3740:3K772S5NP9IEIU62FD54NCLQQ2DEHX", "dateTime": 1521217346875}, {"current_trial": 246, "trialdata": {"rt": -1, "trial_type": "single-stim", "word": "radish", "stimulus": "<p id=\"stim\">RADISH</p>", "conditions": [24, 800, "v", 24000], "internal_node_id": "0.0-183.0", "trial": 6, "time_elapsed": 1149288, "serialpos": 9, "key_press": -1, "wordID": 1157, "type": "PRES_VIS", "trial_index": 246}, "uniqueid": "MTK3740:3K772S5NP9IEIU62FD54NCLQQ2DEHX", "dateTime": 1521217348662}, {"current_trial": 247, "trialdata": {"rt": -1, "trial_type": "single-stim", "word": "nightgown", "stimulus": "<p id=\"stim\">NIGHTGOWN</p>", "conditions": [24, 800, "v", 24000], "internal_node_id": "0.0-184.0", "trial": 6, "time_elapsed": 1150993, "serialpos": 10, "key_press": -1, "wordID": 952, "type": "PRES_VIS", "trial_index": 247}, "uniqueid": "MTK3740:3K772S5NP9IEIU62FD54NCLQQ2DEHX", "dateTime": 1521217350367}, {"current_trial": 248, "trialdata": {"rt": -1, "trial_type": "single-stim", "word": "london", "stimulus": "<p id=\"stim\">LONDON</p>", "conditions": [24, 800, "v", 24000], "internal_node_id": "0.0-185.0", "trial": 6, "time_elapsed": 1152894, "serialpos": 11, "key_press": -1, "wordID": 842, "type": "PRES_VIS", "trial_index": 248}, "uniqueid": "MTK3740:3K772S5NP9IEIU62FD54NCLQQ2DEHX", "dateTime": 1521217352268}, {"current_trial": 249, "trialdata": {"rt": -1, "trial_type": "single-stim", "word": "flower", "stimulus": "<p id=\"stim\">FLOWER</p>", "conditions": [24, 800, "v", 24000], "internal_node_id": "0.0-186.0", "trial": 6, "time_elapsed": 1154637, "serialpos": 12, "key_press": -1, "wordID": 583, "type": "PRES_VIS", "trial_index": 249}, "uniqueid": "MTK3740:3K772S5NP9IEIU62FD54NCLQQ2DEHX", "dateTime": 1521217354011}, {"current_trial": 250, "trialdata": {"rt": -1, "trial_type": "single-stim", "word": "scarecrow", "stimulus": "<p id=\"stim\">SCARECROW</p>", "conditions": [24, 800, "v", 24000], "internal_node_id": "0.0-187.0", "trial": 6, "time_elapsed": 1156500, "serialpos": 13, "key_press": -1, "wordID": 1244, "type": "PRES_VIS", "trial_index": 250}, "uniqueid": "MTK3740:3K772S5NP9IEIU62FD54NCLQQ2DEHX", "dateTime": 1521217355874}, {"current_trial": 251, "trialdata": {"rt": -1, "trial_type": "single-stim", "word": "tunnel", "stimulus": "<p id=\"stim\">TUNNEL</p>", "conditions": [24, 800, "v", 24000], "internal_node_id": "0.0-188.0", "trial": 6, "time_elapsed": 1158256, "serialpos": 14, "key_press": -1, "wordID": 1518, "type": "PRES_VIS", "trial_index": 251}, "uniqueid": "MTK3740:3K772S5NP9IEIU62FD54NCLQQ2DEHX", "dateTime": 1521217357630}, {"current_trial": 252, "trialdata": {"rt": -1, "trial_type": "single-stim", "word": "basement", "stimulus": "<p id=\"stim\">BASEMENT</p>", "conditions": [24, 800, "v", 24000], "internal_node_id": "0.0-189.0", "trial": 6, "time_elapsed": 1160089, "serialpos": 15, "key_press": -1, "wordID": 93, "type": "PRES_VIS", "trial_index": 252}, "uniqueid": "MTK3740:3K772S5NP9IEIU62FD54NCLQQ2DEHX", "dateTime": 1521217359463}, {"current_trial": 253, "trialdata": {"rt": -1, "trial_type": "single-stim", "word": "tombstone", "stimulus": "<p id=\"stim\">TOMBSTONE</p>", "conditions": [24, 800, "v", 24000], "internal_node_id": "0.0-190.0", "trial": 6, "time_elapsed": 1161823, "serialpos": 16, "key_press": -1, "wordID": 1477, "type": "PRES_VIS", "trial_index": 253}, "uniqueid": "MTK3740:3K772S5NP9IEIU62FD54NCLQQ2DEHX", "dateTime": 1521217361197}, {"current_trial": 254, "trialdata": {"rt": -1, "trial_type": "single-stim", "word": "casket", "stimulus": "<p id=\"stim\">CASKET</p>", "conditions": [24, 800, "v", 24000], "internal_node_id": "0.0-191.0", "trial": 6, "time_elapsed": 1163704, "serialpos": 17, "key_press": -1, "wordID": 254, "type": "PRES_VIS", "trial_index": 254}, "uniqueid": "MTK3740:3K772S5NP9IEIU62FD54NCLQQ2DEHX", "dateTime": 1521217363078}, {"current_trial": 255, "trialdata": {"rt": -1, "trial_type": "single-stim", "word": "lizard", "stimulus": "<p id=\"stim\">LIZARD</p>", "conditions": [24, 800, "v", 24000], "internal_node_id": "0.0-192.0", "trial": 6, "time_elapsed": 1165490, "serialpos": 18, "key_press": -1, "wordID": 833, "type": "PRES_VIS", "trial_index": 255}, "uniqueid": "MTK3740:3K772S5NP9IEIU62FD54NCLQQ2DEHX", "dateTime": 1521217364864}, {"current_trial": 256, "trialdata": {"rt": -1, "trial_type": "single-stim", "word": "outdoors", "stimulus": "<p id=\"stim\">OUTDOORS</p>", "conditions": [24, 800, "v", 24000], "internal_node_id": "0.0-193.0", "trial": 6, "time_elapsed": 1167253, "serialpos": 19, "key_press": -1, "wordID": 986, "type": "PRES_VIS", "trial_index": 256}, "uniqueid": "MTK3740:3K772S5NP9IEIU62FD54NCLQQ2DEHX", "dateTime": 1521217366627}, {"current_trial": 257, "trialdata": {"rt": -1, "trial_type": "single-stim", "word": "flask", "stimulus": "<p id=\"stim\">FLASK</p>", "