{"assignmentId": "3IOEN3P9S8QZ14S976JLJ1D6S2J615", "workerId": "MTK3560", "questiondata": {"avail_screen_height": 728, "color_depth": 24, "screen_width": 1366, "pixel_depth": 24, "avail_screen_width": 1366, "screen_height": 768}, "bonus": 0, "hitId": "3DGDV62G7OGCDBUGF4D650I8U01P23", "counterbalance": 1739, "useragent": "Mozilla/5.0 (Windows NT 10.0; Win64; x64) AppleWebKit/537.36 (KHTML, like Gecko) Chrome/58.0.3029.110 Safari/537.36 Edge/16.16299", "eventdata": [{"eventtype": "initialized", "interval": 0, "value": null, "timestamp": 1520790352204}, {"eventtype": "window_resize", "interval": 0, "value": [1366, 651], "timestamp": 1520790352204}, {"eventtype": "focus", "interval": 325, "value": "on", "timestamp": 1520790352529}, {"eventtype": "focus", "interval": 47333, "value": "off", "timestamp": 1520790399862}, {"eventtype": "focus", "interval": 5162, "value": "on", "timestamp": 1520790405024}, {"eventtype": "focus", "interval": 2662, "value": "off", "timestamp": 1520790407686}, {"eventtype": "focus", "interval": 5146, "value": "on", "timestamp": 1520790412832}, {"eventtype": "focus", "interval": 27964, "value": "off", "timestamp": 1520790440796}, {"eventtype": "window_resize", "interval": 468, "value": [800, 555], "timestamp": 1520790441264}, {"eventtype": "focus", "interval": 4717, "value": "on", "timestamp": 1520790445981}, {"eventtype": "window_resize", "interval": 214, "value": [1366, 651], "timestamp": 1520790446195}, {"eventtype": "focus", "interval": 8191, "value": "off", "timestamp": 1520790454386}, {"eventtype": "focus", "interval": 1733, "value": "on", "timestamp": 1520790456119}, {"eventtype": "focus", "interval": 4164, "value": "off", "timestamp": 1520790460283}, {"eventtype": "focus", "interval": 4825, "value": "on", "timestamp": 1520790465108}, {"eventtype": "focus", "interval": 1798, "value": "off", "timestamp": 1520790466906}, {"eventtype": "focus", "interval": 4147, "value": "on", "timestamp": 1520790471053}, {"eventtype": "focus", "interval": 40566, "value": "off", "timestamp": 1520790511619}, {"eventtype": "window_resize", "interval": 415, "value": [800, 555], "timestamp": 1520790512034}, {"eventtype": "focus", "interval": 6226, "value": "on", "timestamp": 1520790518260}, {"eventtype": "focus", "interval": 1848, "value": "off", "timestamp": 1520790520108}, {"eventtype": "window_resize", "interval": 1147, "value": [1086, 555], "timestamp": 1520790521255}, {"eventtype": "focus", "interval": 56, "value": "on", "timestamp": 1520790521311}, {"eventtype": "focus", "interval": 1333, "value": "off", "timestamp": 1520790522644}, {"eventtype": "window_resize", "interval": 668, "value": [1285, 555], "timestamp": 1520790523312}, {"eventtype": "window_resize", "interval": 606, "value": [1332, 555], "timestamp": 1520790523918}, {"eventtype": "focus", "interval": 158, "value": "on", "timestamp": 1520790524076}, {"eventtype": "window_resize", "interval": 125, "value": [1334, 555], "timestamp": 1520790524201}, {"eventtype": "focus", "interval": 3522, "value": "off", "timestamp": 1520790527723}, {"eventtype": "window_resize", "interval": 1246, "value": [1334, 601], "timestamp": 1520790528969}, {"eventtype": "window_resize", "interval": 515, "value": [1334, 605], "timestamp": 1520790529484}, {"eventtype": "focus", "interval": 26, "value": "on", "timestamp": 1520790529510}, {"eventtype": "focus", "interval": 207237, "value": "off", "timestamp": 1520790736747}, {"eventtype": "window_resize", "interval": 865, "value": [1344, 605], "timestamp": 1520790737612}, {"eventtype": "focus", "interval": 7, "value": "on", "timestamp": 1520790737619}, {"eventtype": "focus", "interval": 1090, "value": "off", "timestamp": 1520790738709}, {"eventtype": "focus", "interval": 2116, "value": "on", "timestamp": 1520790740825}, {"eventtype": "window_resize", "interval": 217, "value": [1366, 651], "timestamp": 1520790741042}], "data": [{"current_trial": 0, "trialdata": {"rt": 2324, "trial_type": "text", "internal_node_id": "0.0-0.0", "time_elapsed": 2325, "key_press": 90, "type": "INSTRUCTIONS", "trial_index": 0}, "uniqueid": "MTK3560:3IOEN3P9S8QZ14S976JLJ1D6S2J615", "dateTime": 1520790355048}, {"current_trial": 1, "trialdata": {"rt": 37602, "trial_type": "text", "internal_node_id": "0.0-1.0", "time_elapsed": 39930, "key_press": 90, "type": "INSTRUCTIONS", "trial_index": 1}, "uniqueid": "MTK3560:3IOEN3P9S8QZ14S976JLJ1D6S2J615", "dateTime": 1520790392652}, {"current_trial": 2, "trialdata": {"rt": [151408], "trial_type": "audio-test", "responses": ["ocean"], "internal_node_id": "0.0-2.0", "time_elapsed": 191374, "type": "AUDIO_TEST", "trial_index": 2}, "uniqueid": "MTK3560:3IOEN3P9S8QZ14S976JLJ1D6S2J615", "dateTime": 1520790544095}, {"current_trial": 3, "trialdata": {"rt": [33605], "trial_type": "audio-test", "responses": ["crystal"], "internal_node_id": "0.0-3.0", "time_elapsed": 224985, "type": "AUDIO_TEST", "trial_index": 3}, "uniqueid": "MTK3560:3IOEN3P9S8QZ14S976JLJ1D6S2J615", "dateTime": 1520790577706}, {"current_trial": 4, "trialdata": {"rt": [39787], "trial_type": "audio-test", "responses": ["spice"], "internal_node_id": "0.0-4.0", "time_elapsed": 264777, "type": "AUDIO_TEST", "trial_index": 4}, "uniqueid": "MTK3560:3IOEN3P9S8QZ14S976JLJ1D6S2J615", "dateTime": 1520790617498}, {"current_trial": 5, "trialdata": {"rt": 59659, "trial_type": "survey-text", "responses": "{\"Q0\":\"11:15\",\"Q1\":\"7:00\",\"Q2\":\"4\"}", "internal_node_id": "0.0-5.0", "time_elapsed": 325189, "type": "SLEEP_SURVEY", "trial_index": 5}, "uniqueid": "MTK3560:3IOEN3P9S8QZ14S976JLJ1D6S2J615", "dateTime": 1520790677910}, {"current_trial": 6, "trialdata": {"rt": 181881, "trial_type": "text", "internal_node_id": "0.0-6.0", "time_elapsed": 508086, "key_press": 90, "type": "INSTRUCTIONS", "trial_index": 6}, "uniqueid": "MTK3560:3IOEN3P9S8QZ14S976JLJ1D6S2J615", "dateTime": 1520790860807}, {"current_trial": 7, "trialdata": {"rt": 65610, "trial_type": "text", "internal_node_id": "0.0-7.0", "time_elapsed": 574205, "key_press": 90, "type": "INSTRUCTIONS", "trial_index": 7}, "uniqueid": "MTK3560:3IOEN3P9S8QZ14S976JLJ1D6S2J615", "dateTime": 1520790926927}, {"current_trial": 8, "trialdata": {"rt": 12269, "trial_type": "text", "internal_node_id": "0.0-8.0", "time_elapsed": 586990, "key_press": 90, "type": "INSTRUCTIONS", "trial_index": 8}, "uniqueid": "MTK3560:3IOEN3P9S8QZ14S976JLJ1D6S2J615", "dateTime": 1520790939711}, {"current_trial": 9, "trialdata": {"rt": [3279, 6363, 8826, 11347, 13403, 16971], "trial_type": "math-distractor", "key_times": [2386, 2797, 3279, 5422, 5887, 6363, 8156, 8475, 8826, 10381, 10934, 11347, 12680, 13099, 13403, 16156, 16639, 16971], "responses": ["14", "18", "13", "18", "16", "20"], "num2": [7, 1, 3, 8, 4, 3, 1], "num3": [6, 9, 3, 2, 6, 9, 1], "conditions": [18, 1200, "v", 18000], "internal_node_id": "0.0-9.0", "key_presses": [49, 52, 13, 49, 56, 13, 49, 51, 13, 49, 56, 13, 49, 54, 13, 50, 48, 13], "trial": 0, "time_elapsed": 606031, "type": "DISTRACTOR", "trial_index": 9, "num1": [1, 8, 7, 8, 6, 8, 6]}, "uniqueid": "MTK3560:3IOEN3P9S8QZ14S976JLJ1D6S2J615", "dateTime": 1520790958753}, {"current_trial": 10, "trialdata": {"rt": -1, "trial_type": "single-stim", "stimulus": "<p id=\"stim\">10</p>", "internal_node_id": "0.0-10.0-0.0", "time_elapsed": 609078, "key_press": -1, "trial_index": 10}, "uniqueid": "MTK3560:3IOEN3P9S8QZ14S976JLJ1D6S2J615", "dateTime": 1520790961799}, {"current_trial": 11, "trialdata": {"rt": -1, "trial_type": "single-stim", "stimulus": "<p id=\"stim\">9</p>", "internal_node_id": "0.0-10.0-1.0", "time_elapsed": 610077, "key_press": -1, "trial_index": 11}, "uniqueid": "MTK3560:3IOEN3P9S8QZ14S976JLJ1D6S2J615", "dateTime": 1520790962798}, {"current_trial": 12, "trialdata": {"rt": -1, "trial_type": "single-stim", "stimulus": "<p id=\"stim\">8</p>", "internal_node_id": "0.0-10.0-2.0", "time_elapsed": 611077, "key_press": -1, "trial_index": 12}, "uniqueid": "MTK3560:3IOEN3P9S8QZ14S976JLJ1D6S2J615", "dateTime": 1520790963799}, {"current_trial": 13, "trialdata": {"rt": -1, "trial_type": "single-stim", "stimulus": "<p id=\"stim\">7</p>", "internal_node_id": "0.0-10.0-3.0", "time_elapsed": 612077, "key_press": -1, "trial_index": 13}, "uniqueid": "MTK3560:3IOEN3P9S8QZ14S976JLJ1D6S2J615", "dateTime": 1520790964799}, {"current_trial": 14, "trialdata": {"rt": -1, "trial_type": "single-stim", "stimulus": "<p id=\"stim\">6</p>", "internal_node_id": "0.0-10.0-4.0", "time_elapsed": 613078, "key_press": -1, "trial_index": 14}, "uniqueid": "MTK3560:3IOEN3P9S8QZ14S976JLJ1D6S2J615", "dateTime": 1520790965799}, {"current_trial": 15, "trialdata": {"rt": -1, "trial_type": "single-stim", "stimulus": "<p id=\"stim\">5</p>", "internal_node_id": "0.0-10.0-5.0", "time_elapsed": 614065, "key_press": -1, "trial_index": 15}, "uniqueid": "MTK3560:3IOEN3P9S8QZ14S976JLJ1D6S2J615", "dateTime": 1520790966786}, {"current_trial": 16, "trialdata": {"rt": -1, "trial_type": "single-stim", "stimulus": "<p id=\"stim\">4</p>", "internal_node_id": "0.0-10.0-6.0", "time_elapsed": 615078, "key_press": -1, "trial_index": 16}, "uniqueid": "MTK3560:3IOEN3P9S8QZ14S976JLJ1D6S2J615", "dateTime": 1520790967799}, {"current_trial": 17, "trialdata": {"rt": -1, "trial_type": "single-stim", "stimulus": "<p id=\"stim\">3</p>", "internal_node_id": "0.0-10.0-7.0", "time_elapsed": 616078, "key_press": -1, "trial_index": 17}, "uniqueid": "MTK3560:3IOEN3P9S8QZ14S976JLJ1D6S2J615", "dateTime": 1520790968799}, {"current_trial": 18, "trialdata": {"rt": -1, "trial_type": "single-stim", "stimulus": "<p id=\"stim\">2</p>", "internal_node_id": "0.0-10.0-8.0", "time_elapsed": 617078, "key_press": -1, "trial_index": 18}, "uniqueid": "MTK3560:3IOEN3P9S8QZ14S976JLJ1D6S2J615", "dateTime": 1520790969800}, {"current_trial": 19, "trialdata": {"rt": -1, "trial_type": "single-stim", "stimulus": "<p id=\"stim\">1</p>", "internal_node_id": "0.0-10.0-9.0", "time_elapsed": 618078, "key_press": -1, "trial_index": 19}, "uniqueid": "MTK3560:3IOEN3P9S8QZ14S976JLJ1D6S2J615", "dateTime": 1520790970799}, {"current_trial": 20, "trialdata": {"rt": -1, "trial_type": "single-stim", "stimulus": "<p id=\"stim\">+</p>", "internal_node_id": "0.0-11.0-0.0", "time_elapsed": 619594, "key_press": -1, "type": "FIXATION", "trial_index": 20}, "uniqueid": "MTK3560:3IOEN3P9S8QZ14S976JLJ1D6S2J615", "dateTime": 1520790972315}, {"current_trial": 21, "trialdata": {"rt": -1, "trial_type": "single-stim", "word": "knapsack", "stimulus": "<p id=\"stim\">KNAPSACK</p>", "conditions": [18, 1200, "v", 18000], "internal_node_id": "0.0-12.0", "trial": 0, "time_elapsed": 620797, "serialpos": 0, "key_press": -1, "wordID": 782, "type": "PRES_VIS", "trial_index": 21}, "uniqueid": "MTK3560:3IOEN3P9S8QZ14S976JLJ1D6S2J615", "dateTime": 1520790973518}, {"current_trial": 22, "trialdata": {"rt": -1, "trial_type": "single-stim", "word": "pepper", "stimulus": "<p id=\"stim\">PEPPER</p>", "conditions": [18, 1200, "v", 18000], "internal_node_id": "0.0-13.0", "trial": 0, "time_elapsed": 623015, "serialpos": 1, "key_press": -1, "wordID": 1046, "type": "PRES_VIS", "trial_index": 22}, "uniqueid": "MTK3560:3IOEN3P9S8QZ14S976JLJ1D6S2J615", "dateTime": 1520790975737}, {"current_trial": 23, "trialdata": {"rt": -1, "trial_type": "single-stim", "word": "binder", "stimulus": "<p id=\"stim\">BINDER</p>", "conditions": [18, 1200, "v", 18000], "internal_node_id": "0.0-14.0", "trial": 0, "time_elapsed": 625282, "serialpos": 2, "key_press": -1, "wordID": 126, "type": "PRES_VIS", "trial_index": 23}, "uniqueid": "MTK3560:3IOEN3P9S8QZ14S976JLJ1D6S2J615", "dateTime": 1520790978003}, {"current_trial": 24, "trialdata": {"rt": -1, "trial_type": "single-stim", "word": "bullet", "stimulus": "<p id=\"stim\">BULLET</p>", "conditions": [18, 1200, "v", 18000], "internal_node_id": "0.0-15.0", "trial": 0, "time_elapsed": 627563, "serialpos": 3, "key_press": -1, "wordID": 193, "type": "PRES_VIS", "trial_index": 24}, "uniqueid": "MTK3560:3IOEN3P9S8QZ14S976JLJ1D6S2J615", "dateTime": 1520790980284}, {"current_trial": 25, "trialdata": {"rt": -1, "trial_type": "single-stim", "word": "empire", "stimulus": "<p id=\"stim\">EMPIRE</p>", "conditions": [18, 1200, "v", 18000], "internal_node_id": "0.0-16.0", "trial": 0, "time_elapsed": 629688, "serialpos": 4, "key_press": -1, "wordID": 529, "type": "PRES_VIS", "trial_index": 25}, "uniqueid": "MTK3560:3IOEN3P9S8QZ14S976JLJ1D6S2J615", "dateTime": 1520790982409}, {"current_trial": 26, "trialdata": {"rt": -1, "trial_type": "single-stim", "word": "jello", "stimulus": "<p id=\"stim\">JELLO</p>", "conditions": [18, 1200, "v", 18000], "internal_node_id": "0.0-17.0", "trial": 0, "time_elapsed": 631844, "serialpos": 5, "key_press": -1, "wordID": 753, "type": "PRES_VIS", "trial_index": 26}, "uniqueid": "MTK3560:3IOEN3P9S8QZ14S976JLJ1D6S2J615", "dateTime": 1520790984565}, {"current_trial": 27, "trialdata": {"rt": -1, "trial_type": "single-stim", "word": "tablet", "stimulus": "<p id=\"stim\">TABLET</p>", "conditions": [18, 1200, "v", 18000], "internal_node_id": "0.0-18.0", "trial": 0, "time_elapsed": 634141, "serialpos": 6, "key_press": -1, "wordID": 1426, "type": "PRES_VIS", "trial_index": 27}, "uniqueid": "MTK3560:3IOEN3P9S8QZ14S976JLJ1D6S2J615", "dateTime": 1520790986862}, {"current_trial": 28, "trialdata": {"rt": -1, "trial_type": "single-stim", "word": "burglar", "stimulus": "<p id=\"stim\">BURGLAR</p>", "conditions": [18, 1200, "v", 18000], "internal_node_id": "0.0-19.0", "trial": 0, "time_elapsed": 636266, "serialpos": 7, "key_press": -1, "wordID": 199, "type": "PRES_VIS", "trial_index": 28}, "uniqueid": "MTK3560:3IOEN3P9S8QZ14S976JLJ1D6S2J615", "dateTime": 1520790988987}, {"current_trial": 29, "trialdata": {"rt": -1, "trial_type": "single-stim", "word": "crib", "stimulus": "<p id=\"stim\">CRIB</p>", "conditions": [18, 1200, "v", 18000], "internal_node_id": "0.0-20.0", "trial": 0, "time_elapsed": 638658, "serialpos": 8, "key_press": -1, "wordID": 406, "type": "PRES_VIS", "trial_index": 29}, "uniqueid": "MTK3560:3IOEN3P9S8QZ14S976JLJ1D6S2J615", "dateTime": 1520790991379}, {"current_trial": 30, "trialdata": {"rt": -1, "trial_type": "single-stim", "word": "rifle", "stimulus": "<p id=\"stim\">RIFLE</p>", "conditions": [18, 1200, "v", 18000], "internal_node_id": "0.0-21.0", "trial": 0, "time_elapsed": 640955, "serialpos": 9, "key_press": -1, "wordID": 1191, "type": "PRES_VIS", "trial_index": 30}, "uniqueid": "MTK3560:3IOEN3P9S8QZ14S976JLJ1D6S2J615", "dateTime": 1520790993676}, {"current_trial": 31, "trialdata": {"rt": -1, "trial_type": "single-stim", "word": "backbone", "stimulus": "<p id=\"stim\">BACKBONE</p>", "conditions": [18, 1200, "v", 18000], "internal_node_id": "0.0-22.0", "trial": 0, "time_elapsed": 643024, "serialpos": 10, "key_press": -1, "wordID": 65, "type": "PRES_VIS", "trial_index": 31}, "uniqueid": "MTK3560:3IOEN3P9S8QZ14S976JLJ1D6S2J615", "dateTime": 1520790995745}, {"current_trial": 32, "trialdata": {"rt": -1, "trial_type": "single-stim", "word": "maple", "stimulus": "<p id=\"stim\">MAPLE</p>", "conditions": [18, 1200, "v", 18000], "internal_node_id": "0.0-23.0", "trial": 0, "time_elapsed": 645102, "serialpos": 11, "key_press": -1, "wordID": 865, "type": "PRES_VIS", "trial_index": 32}, "uniqueid": "MTK3560:3IOEN3P9S8QZ14S976JLJ1D6S2J615", "dateTime": 1520790997823}, {"current_trial": 33, "trialdata": {"rt": -1, "trial_type": "single-stim", "word": "velvet", "stimulus": "<p id=\"stim\">VELVET</p>", "conditions": [18, 1200, "v", 18000], "internal_node_id": "0.0-24.0", "trial": 0, "time_elapsed": 647383, "serialpos": 12, "key_press": -1, "wordID": 1554, "type": "PRES_VIS", "trial_index": 33}, "uniqueid": "MTK3560:3IOEN3P9S8QZ14S976JLJ1D6S2J615", "dateTime": 1520791000104}, {"current_trial": 34, "trialdata": {"rt": -1, "trial_type": "single-stim", "word": "trout", "stimulus": "<p id=\"stim\">TROUT</p>", "conditions": [18, 1200, "v", 18000], "internal_node_id": "0.0-25.0", "trial": 0, "time_elapsed": 649680, "serialpos": 13, "key_press": -1, "wordID": 1510, "type": "PRES_VIS", "trial_index": 34}, "uniqueid": "MTK3560:3IOEN3P9S8QZ14S976JLJ1D6S2J615", "dateTime": 1520791002401}, {"current_trial": 35, "trialdata": {"rt": -1, "trial_type": "single-stim", "word": "boyfriend", "stimulus": "<p id=\"stim\">BOYFRIEND</p>", "conditions": [18, 1200, "v", 18000], "internal_node_id": "0.0-26.0", "trial": 0, "time_elapsed": 651727, "serialpos": 14, "key_press": -1, "wordID": 161, "type": "PRES_VIS", "trial_index": 35}, "uniqueid": "MTK3560:3IOEN3P9S8QZ14S976JLJ1D6S2J615", "dateTime": 1520791004448}, {"current_trial": 36, "trialdata": {"rt": -1, "trial_type": "single-stim", "word": "carriage", "stimulus": "<p id=\"stim\">CARRIAGE</p>", "conditions": [18, 1200, "v", 18000], "internal_node_id": "0.0-27.0", "trial": 0, "time_elapsed": 654055, "serialpos": 15, "key_press": -1, "wordID": 247, "type": "PRES_VIS", "trial_index": 36}, "uniqueid": "MTK3560:3IOEN3P9S8QZ14S976JLJ1D6S2J615", "dateTime": 1520791006776}, {"current_trial": 37, "trialdata": {"rt": -1, "trial_type": "single-stim", "word": "gallon", "stimulus": "<p id=\"stim\">GALLON</p>", "conditions": [18, 1200, "v", 18000], "internal_node_id": "0.0-28.0", "trial": 0, "time_elapsed": 656227, "serialpos": 16, "key_press": -1, "wordID": 617, "type": "PRES_VIS", "trial_index": 37}, "uniqueid": "MTK3560:3IOEN3P9S8QZ14S976JLJ1D6S2J615", "dateTime": 1520791008948}, {"current_trial": 38, "trialdata": {"rt": -1, "trial_type": "single-stim", "word": "mars", "stimulus": "<p id=\"stim\">MARS</p>", "conditions": [18, 1200, "v", 18000], "internal_node_id": "0.0-29.0", "trial": 0, "time_elapsed": 658509, "serialpos": 17, "key_press": -1, "wordID": 872, "type": "PRES_VIS", "trial_index": 38}, "uniqueid": "MTK3560:3IOEN3P9S8QZ14S976JLJ1D6S2J615", "dateTime": 1520791011231}, {"current_trial": 39, "trialdata": {"rt": -1, "trial_type": "single-stim", "stimulus": "", "internal_node_id": "0.0-30.0-0.0", "time_elapsed": 660805, "key_press": -1, "type": "PRE_RECALL_DELAY", "trial_index": 39}, "uniqueid": "MTK3560:3IOEN3P9S8QZ14S976JLJ1D6S2J615", "dateTime": 1520791013526}, {"current_trial": 40, "trialdata": {"rt": -1000, "trial_type": "single-audio", "stimulus": "/static/audio/400Hz.wav", "internal_node_id": "0.0-31.0", "time_elapsed": 661525, "key_press": -1, "type": "PRE_RECALL_ALERT", "trial_index": 40}, "uniqueid": "MTK3560:3IOEN3P9S8QZ14S976JLJ1D6S2J615", "dateTime": 1520791014246}, {"current_trial": 41, "trialdata": {"rt": [4180, 9855, 13980, 20498, 22941, 26912, 29121, 34488, 47241, 52090, 55243, 59378], "recwords": ["boyfriend", "carriage", "knapsack", "carriage", "pepper", "maple", "trout", "mars", "backbone", "crib", "rifle", "bullet"], "key_times": [1559, 1789, 2070, 2390, 2598, 2807, 2945, 3126, 3306, 4180, 4826, 5559, 5814, 6067, 6381, 6550, 6710, 6883, 7226, 7527, 9855, 10840, 11078, 11270, 11711, 11975, 12169, 12579, 12828, 13980, 15886, 16259, 16565, 16719, 16875, 16992, 17304, 17561, 20498, 21262, 21485, 21692, 21853, 22006, 22218, 22941, 25062, 25189, 25449, 25689, 25839, 26912, 27517, 27760, 27940, 28102, 28418, 29121, 33271, 33387, 33670, 33910, 34488, 39289, 39392, 39710, 39999, 40370, 40525, 40898, 41030, 42878, 43049, 43742, 45122, 45553, 46138, 46424, 46620, 47241, 50631, 51092, 51271, 51602, 52090, 53347, 53547, 53964, 54236, 54393, 55243, 57340, 57693, 58006, 58163, 58311, 58572, 59378], "trial_type": "free-recall", "conditions": [18, 1200, "v", 18000], "internal_node_id": "0.0-32.0-0.0", "key_presses": [66, 79, 89, 70, 82, 73, 69, 78, 68, 13, 86, 8, 67, 65, 82, 82, 73, 65, 71, 69, 13, 75, 78, 65, 80, 83, 65, 67, 75, 13, 67, 65, 82, 82, 73, 65, 71, 69, 13, 80, 69, 80, 80, 69, 82, 13, 77, 65, 80, 76, 69, 13, 84, 82, 79, 85, 84, 13, 77, 65, 82, 83, 13, 66, 65, 67, 75, 66, 80, 78, 69, 8, 8, 79, 8, 8, 79, 78, 69, 13, 67, 82, 73, 66, 13, 82, 73, 70, 76, 69, 13, 66, 85, 76, 76, 69, 84, 13], "trial": 0, "time_elapsed": 721560, "type": "FREE_RECALL", "trial_index": 41}, "uniqueid": "MTK3560:3IOEN3P9S8QZ14S976JLJ1D6S2J615", "dateTime": 1520791074287}, {"current_trial": 42, "trialdata": {"rt": 2933, "trial_type": "text", "internal_node_id": "0.0-33.0", "time_elapsed": 726520, "key_press": 90, "type": "INSTRUCTIONS", "trial_index": 42}, "uniqueid": "MTK3560:3IOEN3P9S8QZ14S976JLJ1D6S2J615", "dateTime": 1520791079241}, {"current_trial": 43, "trialdata": {"rt": [4495, 8792, 11301, 14635, 16962], "trial_type": "math-distractor", "key_times": [3475, 3833, 4495, 8184, 8329, 8792, 10233, 10691, 11301, 13545, 13913, 14635, 16192, 16543, 16962], "responses": ["17", "22", "18", "15", "15"], "num2": [4, 7, 2, 1, 4, 4], "num3": [4, 9, 9, 6, 8, 1], "conditions": [18, 1200, "v", 18000], "internal_node_id": "0.0-34.0", "key_presses": [49, 55, 13, 50, 50, 13, 49, 56, 13, 49, 53, 13, 49, 53, 13], "trial": 1, "time_elapsed": 746558, "type": "DISTRACTOR", "trial_index": 43, "num1": [9, 6, 7, 8, 3, 4]}, "uniqueid": "MTK3560:3IOEN3P9S8QZ14S976JLJ1D6S2J615", "dateTime": 1520791099279}, {"current_trial": 44, "trialdata": {"rt": -1, "trial_type": "single-stim", "stimulus": "<p id=\"stim\">10</p>", "internal_node_id": "0.0-35.0-0.0", "time_elapsed": 749593, "key_press": -1, "trial_index": 44}, "uniqueid": "MTK3560:3IOEN3P9S8QZ14S976JLJ1D6S2J615", "dateTime": 1520791102314}, {"current_trial": 45, "trialdata": {"rt": -1, "trial_type": "single-stim", "stimulus": "<p id=\"stim\">9</p>", "internal_node_id": "0.0-35.0-1.0", "time_elapsed": 750594, "key_press": -1, "trial_index": 45}, "uniqueid": "MTK3560:3IOEN3P9S8QZ14S976JLJ1D6S2J615", "dateTime": 1520791103315}, {"current_trial": 46, "trialdata": {"rt": -1, "trial_type": "single-stim", "stimulus": "<p id=\"stim\">8</p>", "internal_node_id": "0.0-35.0-2.0", "time_elapsed": 751591, "key_press": -1, "trial_index": 46}, "uniqueid": "MTK3560:3IOEN3P9S8QZ14S976JLJ1D6S2J615", "dateTime": 1520791104312}, {"current_trial": 47, "trialdata": {"rt": -1, "trial_type": "single-stim", "stimulus": "<p id=\"stim\">7</p>", "internal_node_id": "0.0-35.0-3.0", "time_elapsed": 752580, "key_press": -1, "trial_index": 47}, "uniqueid": "MTK3560:3IOEN3P9S8QZ14S976JLJ1D6S2J615", "dateTime": 1520791105301}, {"current_trial": 48, "trialdata": {"rt": -1, "trial_type": "single-stim", "stimulus": "<p id=\"stim\">6</p>", "internal_node_id": "0.0-35.0-4.0", "time_elapsed": 753593, "key_press": -1, "trial_index": 48}, "uniqueid": "MTK3560:3IOEN3P9S8QZ14S976JLJ1D6S2J615", "dateTime": 1520791106314}, {"current_trial": 49, "trialdata": {"rt": -1, "trial_type": "single-stim", "stimulus": "<p id=\"stim\">5</p>", "internal_node_id": "0.0-35.0-5.0", "time_elapsed": 754587, "key_press": -1, "trial_index": 49}, "uniqueid": "MTK3560:3IOEN3P9S8QZ14S976JLJ1D6S2J615", "dateTime": 1520791107309}, {"current_trial": 50, "trialdata": {"rt": -1, "trial_type": "single-stim", "stimulus": "<p id=\"stim\">4</p>", "internal_node_id": "0.0-35.0-6.0", "time_elapsed": 755585, "key_press": -1, "trial_index": 50}, "uniqueid": "MTK3560:3IOEN3P9S8QZ14S976JLJ1D6S2J615", "dateTime": 1520791108307}, {"current_trial": 51, "trialdata": {"rt": -1, "trial_type": "single-stim", "stimulus": "<p id=\"stim\">3</p>", "internal_node_id": "0.0-35.0-7.0", "time_elapsed": 756591, "key_press": -1, "trial_index": 51}, "uniqueid": "MTK3560:3IOEN3P9S8QZ14S976JLJ1D6S2J615", "dateTime": 1520791109313}, {"current_trial": 52, "trialdata": {"rt": -1, "trial_type": "single-stim", "stimulus": "<p id=\"stim\">2</p>", "internal_node_id": "0.0-35.0-8.0", "time_elapsed": 757579, "key_press": -1, "trial_index": 52}, "uniqueid": "MTK3560:3IOEN3P9S8QZ14S976JLJ1D6S2J615", "dateTime": 1520791110300}, {"current_trial": 53, "trialdata": {"rt": -1, "trial_type": "single-stim", "stimulus": "<p id=\"stim\">1</p>", "internal_node_id": "0.0-35.0-9.0", "time_elapsed": 758590, "key_press": -1, "trial_index": 53}, "uniqueid": "MTK3560:3IOEN3P9S8QZ14S976JLJ1D6S2J615", "dateTime": 1520791111312}, {"current_trial": 54, "trialdata": {"rt": -1, "trial_type": "single-stim", "stimulus": "<p id=\"stim\">+</p>", "internal_node_id": "0.0-36.0-0.0", "time_elapsed": 760104, "key_press": -1, "type": "FIXATION", "trial_index": 54}, "uniqueid": "MTK3560:3IOEN3P9S8QZ14S976JLJ1D6S2J615", "dateTime": 1520791112826}, {"current_trial": 55, "trialdata": {"rt": -1, "trial_type": "single-stim", "word": "lumber", "stimulus": "<p id=\"stim\">LUMBER</p>", "conditions": [18, 1200, "v", 18000], "internal_node_id": "0.0-37.0", "trial": 1, "time_elapsed": 761314, "serialpos": 0, "key_press": -1, "wordID": 847, "type": "PRES_VIS", "trial_index": 55}, "uniqueid": "MTK3560:3IOEN3P9S8QZ14S976JLJ1D6S2J615", "dateTime": 1520791114035}, {"current_trial": 56, "trialdata": {"rt": -1, "trial_type": "single-stim", "word": "twig", "stimulus": "<p id=\"stim\">TWIG</p>", "conditions": [18, 1200, "v", 18000], "internal_node_id": "0.0-38.0", "trial": 1, "time_elapsed": 763669, "serialpos": 1, "key_press": -1, "wordID": 1526, "type": "PRES_VIS", "trial_index": 56}, "uniqueid": "MTK3560:3IOEN3P9S8QZ14S976JLJ1D6S2J615", "dateTime": 1520791116390}, {"current_trial": 57, "trialdata": {"rt": -1, "trial_type": "single-stim", "word": "airplane", "stimulus": "<p id=\"stim\">AIRPLANE</p>", "conditions": [18, 1200, "v", 18000], "internal_node_id": "0.0-39.0", "trial": 1, "time_elapsed": 765721, "serialpos": 2, "key_press": -1, "wordID": 11, "type": "PRES_VIS", "trial_index": 57}, "uniqueid": "MTK3560:3IOEN3P9S8QZ14S976JLJ1D6S2J615", "dateTime": 1520791118443}, {"current_trial": 58, "trialdata": {"rt": -1, "trial_type": "single-stim", "word": "space", "stimulus": "<p id=\"stim\">SPACE</p>", "conditions": [18, 1200, "v", 18000], "internal_node_id": "0.0-40.0", "trial": 1, "time_elapsed": 767927, "serialpos": 3, "key_press": -1, "wordID": 1344, "type": "PRES_VIS", "trial_index": 58}, "uniqueid": "MTK3560:3IOEN3P9S8QZ14S976JLJ1D6S2J615", "dateTime": 1520791120648}, {"current_trial": 59, "trialdata": {"rt": -1, "trial_type": "single-stim", "word": "spoon", "stimulus": "<p id=\"stim\">SPOON</p>", "conditions": [18, 1200, "v", 18000], "internal_node_id": "0.0-41.0", "trial": 1, "time_elapsed": 770004, "serialpos": 4, "key_press": -1, "wordID": 1356, "type": "PRES_VIS", "trial_index": 59}, "uniqueid": "MTK3560:3IOEN3P9S8QZ14S976JLJ1D6S2J615", "dateTime": 1520791122726}, {"current_trial": 60, "trialdata": {"rt": -1, "trial_type": "single-stim", "word": "friend", "stimulus": "<p id=\"stim\">FRIEND</p>", "conditions": [18, 1200, "v", 18000], "internal_node_id": "0.0-42.0", "trial": 1, "time_elapsed": 772137, "serialpos": 5, "key_press": -1, "wordID": 605, "type": "PRES_VIS", "trial_index": 60}, "uniqueid": "MTK3560:3IOEN3P9S8QZ14S976JLJ1D6S2J615", "dateTime": 1520791124859}, {"current_trial": 61, "trialdata": {"rt": -1, "trial_type": "single-stim", "word": "beaver", "stimulus": "<p id=\"stim\">BEAVER</p>", "conditions": [18, 1200, "v", 18000], "internal_node_id": "0.0-43.0", "trial": 1, "time_elapsed": 774418, "serialpos": 6, "key_press": -1, "wordID": 108, "type": "PRES_VIS", "trial_index": 61}, "uniqueid": "MTK3560:3IOEN3P9S8QZ14S976JLJ1D6S2J615", "dateTime": 1520791127139}, {"current_trial": 62, "trialdata": {"rt": -1, "trial_type": "single-stim", "word": "plate", "stimulus": "<p id=\"stim\">PLATE</p>", "conditions": [18, 1200, "v", 18000], "internal_node_id": "0.0-44.0", "trial": 1, "time_elapsed": 776734, "serialpos": 7, "key_press": -1, "wordID": 1085, "type": "PRES_VIS", "trial_index": 62}, "uniqueid": "MTK3560:3IOEN3P9S8QZ14S976JLJ1D6S2J615", "dateTime": 1520791129455}, {"current_trial": 63, "trialdata": {"rt": -1, "trial_type": "single-stim", "word": "zebra", "stimulus": "<p id=\"stim\">ZEBRA</p>", "conditions": [18, 1200, "v", 18000], "internal_node_id": "0.0-45.0", "trial": 1, "time_elapsed": 779112, "serialpos": 8, "key_press": -1, "wordID": 1634, "type": "PRES_VIS", "trial_index": 63}, "uniqueid": "MTK3560:3IOEN3P9S8QZ14S976JLJ1D6S2J615", "dateTime": 1520791131833}, {"current_trial": 64, "trialdata": {"rt": -1, "trial_type": "single-stim", "word": "softball", "stimulus": "<p id=\"stim\">SOFTBALL</p>", "conditions": [18, 1200, "v", 18000], "internal_node_id": "0.0-46.0", "trial": 1, "time_elapsed": 781259, "serialpos": 9, "key_press": -1, "wordID": 1342, "type": "PRES_VIS", "trial_index": 64}, "uniqueid": "MTK3560:3IOEN3P9S8QZ14S976JLJ1D6S2J615", "dateTime": 1520791133981}, {"current_trial": 65, "trialdata": {"rt": -1, "trial_type": "single-stim", "word": "parent", "stimulus": "<p id=\"stim\">PARENT</p>", "conditions": [18, 1200, "v", 18000], "internal_node_id": "0.0-47.0", "trial": 1, "time_elapsed": 783367, "serialpos": 10, "key_press": -1, "wordID": 1012, "type": "PRES_VIS", "trial_index": 65}, "uniqueid": "MTK3560:3IOEN3P9S8QZ14S976JLJ1D6S2J615", "dateTime": 1520791136088}, {"current_trial": 66, "trialdata": {"rt": -1, "trial_type": "single-stim", "word": "basement", "stimulus": "<p id=\"stim\">BASEMENT</p>", "conditions": [18, 1200, "v", 18000], "internal_node_id": "0.0-48.0", "trial": 1, "time_elapsed": 785429, "serialpos": 11, "key_press": -1, "wordID": 93, "type": "PRES_VIS", "trial_index": 66}, "uniqueid": "MTK3560:3IOEN3P9S8QZ14S976JLJ1D6S2J615", "dateTime": 1520791138150}, {"current_trial": 67, "trialdata": {"rt": -1, "trial_type": "single-stim", "word": "ox", "stimulus": "<p id=\"stim\">OX</p>", "conditions": [18, 1200, "v", 18000], "internal_node_id": "0.0-49.0", "trial": 1, "time_elapsed": 787617, "serialpos": 12, "key_press": -1, "wordID": 993, "type": "PRES_VIS", "trial_index": 67}, "uniqueid": "MTK3560:3IOEN3P9S8QZ14S976JLJ1D6S2J615", "dateTime": 1520791140339}, {"current_trial": 68, "trialdata": {"rt": -1, "trial_type": "single-stim", "word": "atom", "stimulus": "<p id=\"stim\">ATOM</p>", "conditions": [18, 1200, "v", 18000], "internal_node_id": "0.0-50.0", "trial": 1, "time_elapsed": 789952, "serialpos": 13, "key_press": -1, "wordID": 54, "type": "PRES_VIS", "trial_index": 68}, "uniqueid": "MTK3560:3IOEN3P9S8QZ14S976JLJ1D6S2J615", "dateTime": 1520791142674}, {"current_trial": 69, "trialdata": {"rt": -1, "trial_type": "single-stim", "word": "suspect", "stimulus": "<p id=\"stim\">SUSPECT</p>", "conditions": [18, 1200, "v", 18000], "internal_node_id": "0.0-51.0", "trial": 1, "time_elapsed": 792020, "serialpos": 14, "key_press": -1, "wordID": 1414, "type": "PRES_VIS", "trial_index": 69}, "uniqueid": "MTK3560:3IOEN3P9S8QZ14S976JLJ1D6S2J615", "dateTime": 1520791144741}, {"current_trial": 70, "trialdata": {"rt": -1, "trial_type": "single-stim", "word": "silk", "stimulus": "<p id=\"stim\">SILK</p>", "conditions": [18, 1200, "v", 18000], "internal_node_id": "0.0-52.0", "trial": 1, "time_elapsed": 794105, "serialpos": 15, "key_press": -1, "wordID": 1306, "type": "PRES_VIS", "trial_index": 70}, "uniqueid": "MTK3560:3IOEN3P9S8QZ14S976JLJ1D6S2J615", "dateTime": 1520791146826}, {"current_trial": 71, "trialdata": {"rt": -1, "trial_type": "single-stim", "word": "scarecrow", "stimulus": "<p id=\"stim\">SCARECROW</p>", "conditions": [18, 1200, "v", 18000], "internal_node_id": "0.0-53.0", "trial": 1, "time_elapsed": 796160, "serialpos": 16, "key_press": -1, "wordID": 1244, "type": "PRES_VIS", "trial_index": 71}, "uniqueid": "MTK3560:3IOEN3P9S8QZ14S976JLJ1D6S2J615", "dateTime": 1520791148882}, {"current_trial": 72, "trialdata": {"rt": -1, "trial_type": "single-stim", "word": "powder", "stimulus": "<p id=\"stim\">POWDER</p>", "conditions": [18, 1200, "v", 18000], "internal_node_id": "0.0-54.0", "trial": 1, "time_elapsed": 798399, "serialpos": 17, "key_press": -1, "wordID": 1116, "type": "PRES_VIS", "trial_index": 72}, "uniqueid": "MTK3560:3IOEN3P9S8QZ14S976JLJ1D6S2J615", "dateTime": 1520791151120}, {"current_trial": 73, "trialdata": {"rt": -1, "trial_type": "single-stim", "stimulus": "", "internal_node_id": "0.0-55.0-0.0", "time_elapsed": 800594, "key_press": -1, "type": "PRE_RECALL_DELAY", "trial_index": 73}, "uniqueid": "MTK3560:3IOEN3P9S8QZ14S976JLJ1D6S2J615", "dateTime": 1520791153315}, {"current_trial": 74, "trialdata": {"rt": -1000, "trial_type": "single-audio", "stimulus": "/static/audio/400Hz.wav", "internal_node_id": "0.0-56.0", "time_elapsed": 801106, "key_press": -1, "type": "PRE_RECALL_ALERT", "trial_index": 74}, "uniqueid": "MTK3560:3IOEN3P9S8QZ14S976JLJ1D6S2J615", "dateTime": 1520791153827}, {"current_trial": 75, "trialdata": {"rt": [4825, 7460, 9425, 11924, 14366, 16450, 18786, 26884, 29776, 35282, 40142, 49412], "recwords": ["scarecrow", "powder", "parent", "silk", "suspect", "space", "airplane", "lumber", "twig", "velvet", "zebra", "softball"], "key_times": [1481, 2102, 2345, 2633, 2819, 3363, 3615, 3839, 3999, 4825, 5575, 5773, 6107, 6359, 6567, 6750, 7460, 7954, 8095, 8412, 8636, 8771, 8946, 9425, 9790, 10189, 10437, 11269, 11924, 12424, 12610, 12737, 13069, 13214, 13477, 13800, 14366, 15312, 15475, 15603, 15896, 16140, 16450, 16846, 17104, 17273, 17531, 17764, 17900, 18095, 18293, 18786, 24690, 25255, 25840, 26127, 26423, 26630, 26884, 27556, 28127, 28591, 28907, 29776, 33187, 33443, 33980, 34367, 34637, 34917, 35282, 37951, 38317, 38664, 38921, 39283, 40142, 46167, 46354, 46527, 46775, 47130, 47579, 48273, 48431, 49412, 59959], "trial_type": "free-recall", "conditions": [18, 1200, "v", 18000], "internal_node_id": "0.0-57.0-0.0", "key_presses": [83, 67, 65, 82, 69, 67, 82, 79, 87, 13, 80, 79, 87, 68, 69, 82, 13, 80, 65, 82, 69, 78, 84, 13, 83, 73, 76, 75, 13, 83, 85, 83, 80, 69, 67, 84, 13, 83, 80, 65, 67, 69, 13, 65, 73, 82, 80, 76, 65, 78, 69, 13, 76, 85, 77, 66, 69, 82, 13, 84, 87, 73, 71, 13, 86, 69, 76, 86, 69, 84, 13, 90, 69, 66, 82, 65, 13, 83, 79, 70, 84, 66, 65, 76, 76, 13, 80], "trial": 1, "time_elapsed": 861126, "type": "FREE_RECALL", "trial_index": 75}, "uniqueid": "MTK3560:3IOEN3P9S8QZ14S976JLJ1D6S2J615", "dateTime": 1520791213852}, {"current_trial": 76, "trialdata": {"rt": 3332, "trial_type": "text", "internal_node_id": "0.0-58.0", "time_elapsed": 866469, "key_press": 90, "type": "INSTRUCTIONS", "trial_index": 76}, "uniqueid": "MTK3560:3IOEN3P9S8QZ14S976JLJ1D6S2J615", "dateTime": 1520791219190}, {"current_trial": 77, "trialdata": {"rt": [3623, 7083, 10029, 13158, 16511, 19780, 21878], "trial_type": "math-distractor", "key_times": [2677, 3090, 3623, 6479, 6685, 7083, 9032, 9595, 10029, 12281, 12787, 13158, 15334, 15846, 16511, 18966, 19463, 19780, 21599, 21878], "responses": ["14", "21", "10", "20", "10", "17", "9"], "num2": [8, 8, 5, 4, 3, 6, 2, 8], "num3": [5, 9, 3, 8, 6, 7, 2, 2], "conditions": [24, 800, "v", 24000], "internal_node_id": "0.0-59.0", "key_presses": [49, 52, 13, 50, 49, 13, 49, 48, 13, 50, 48, 13, 49, 48, 13, 49, 55, 13, 57, 13], "trial": 2, "time_elapsed": 891514, "type": "DISTRACTOR", "trial_index": 77, "num1": [1, 4, 2, 8, 1, 4, 5, 4]}, "uniqueid": "MTK3560:3IOEN3P9S8QZ14S976JLJ1D6S2J615", "dateTime": 1520791244235}, {"current_trial": 78, "trialdata": {"rt": -1, "trial_type": "single-stim", "stimulus": "<p id=\"stim\">10</p>", "internal_node_id": "0.0-60.0-0.0", "time_elapsed": 894549, "key_press": -1, "trial_index": 78}, "uniqueid": "MTK3560:3IOEN3P9S8QZ14S976JLJ1D6S2J615", "dateTime": 1520791247271}, {"current_trial": 79, "trialdata": {"rt": -1, "trial_type": "single-stim", "stimulus": "<p id=\"stim\">9</p>", "internal_node_id": "0.0-60.0-1.0", "time_elapsed": 895548, "key_press": -1, "trial_index": 79}, "uniqueid": "MTK3560:3IOEN3P9S8QZ14S976JLJ1D6S2J615", "dateTime": 1520791248269}, {"current_trial": 80, "trialdata": {"rt": -1, "trial_type": "single-stim", "stimulus": "<p id=\"stim\">8</p>", "internal_node_id": "0.0-60.0-2.0", "time_elapsed": 896548, "key_press": -1, "trial_index": 80}, "uniqueid": "MTK3560:3IOEN3P9S8QZ14S976JLJ1D6S2J615", "dateTime": 1520791249270}, {"current_trial": 81, "trialdata": {"rt": -1, "trial_type": "single-stim", "stimulus": "<p id=\"stim\">7</p>", "internal_node_id": "0.0-60.0-3.0", "time_elapsed": 897551, "key_press": -1, "trial_index": 81}, "uniqueid": "MTK3560:3IOEN3P9S8QZ14S976JLJ1D6S2J615", "dateTime": 1520791250272}, {"current_trial": 82, "trialdata": {"rt": -1, "trial_type": "single-stim", "stimulus": "<p id=\"stim\">6</p>", "internal_node_id": "0.0-60.0-4.0", "time_elapsed": 898558, "key_press": -1, "trial_index": 82}, "uniqueid": "MTK3560:3IOEN3P9S8QZ14S976JLJ1D6S2J615", "dateTime": 1520791251279}, {"current_trial": 83, "trialdata": {"rt": -1, "trial_type": "single-stim", "stimulus": "<p id=\"stim\">5</p>", "internal_node_id": "0.0-60.0-5.0", "time_elapsed": 899560, "key_press": -1, "trial_index": 83}, "uniqueid": "MTK3560:3IOEN3P9S8QZ14S976JLJ1D6S2J615", "dateTime": 1520791252282}, {"current_trial": 84, "trialdata": {"rt": -1, "trial_type": "single-stim", "stimulus": "<p id=\"stim\">4</p>", "internal_node_id": "0.0-60.0-6.0", "time_elapsed": 900543, "key_press": -1, "trial_index": 84}, "uniqueid": "MTK3560:3IOEN3P9S8QZ14S976JLJ1D6S2J615", "dateTime": 1520791253264}, {"current_trial": 85, "trialdata": {"rt": -1, "trial_type": "single-stim", "stimulus": "<p id=\"stim\">3</p>", "internal_node_id": "0.0-60.0-7.0", "time_elapsed": 901556, "key_press": -1, "trial_index": 85}, "uniqueid": "MTK3560:3IOEN3P9S8QZ14S976JLJ1D6S2J615", "dateTime": 1520791254278}, {"current_trial": 86, "trialdata": {"rt": -1, "trial_type": "single-stim", "stimulus": "<p id=\"stim\">2</p>", "internal_node_id": "0.0-60.0-8.0", "time_elapsed": 902552, "key_press": -1, "trial_index": 86}, "uniqueid": "MTK3560:3IOEN3P9S8QZ14S976JLJ1D6S2J615", "dateTime": 1520791255274}, {"current_trial": 87, "trialdata": {"rt": -1, "trial_type": "single-stim", "stimulus": "<p id=\"stim\">1</p>", "internal_node_id": "0.0-60.0-9.0", "time_elapsed": 903534, "key_press": -1, "trial_index": 87}, "uniqueid": "MTK3560:3IOEN3P9S8QZ14S976JLJ1D6S2J615", "dateTime": 1520791256255}, {"current_trial": 88, "trialdata": {"rt": -1, "trial_type": "single-stim", "stimulus": "<p id=\"stim\">+</p>", "internal_node_id": "0.0-61.0-0.0", "time_elapsed": 905042, "key_press": -1, "type": "FIXATION", "trial_index": 88}, "uniqueid": "MTK3560:3IOEN3P9S8QZ14S976JLJ1D6S2J615", "dateTime": 1520791257763}, {"current_trial": 89, "trialdata": {"rt": -1, "trial_type": "single-stim", "word": "clam", "stimulus": "<p id=\"stim\">CLAM</p>", "conditions": [24, 800, "v", 24000], "internal_node_id": "0.0-62.0", "trial": 2, "time_elapsed": 905860, "serialpos": 0, "key_press": -1, "wordID": 314, "type": "PRES_VIS", "trial_index": 89}, "uniqueid": "MTK3560:3IOEN3P9S8QZ14S976JLJ1D6S2J615", "dateTime": 1520791258581}, {"current_trial": 90, "trialdata": {"rt": -1, "trial_type": "single-stim", "word": "mildew", "stimulus": "<p id=\"stim\">MILDEW</p>", "conditions": [24, 800, "v", 24000], "internal_node_id": "0.0-63.0", "trial": 2, "time_elapsed": 907862, "serialpos": 1, "key_press": -1, "wordID": 892, "type": "PRES_VIS", "trial_index": 90}, "uniqueid": "MTK3560:3IOEN3P9S8QZ14S976JLJ1D6S2J615", "dateTime": 1520791260584}, {"current_trial": 91, "trialdata": {"rt": -1, "trial_type": "single-stim", "word": "whiskers", "stimulus": "<p id=\"stim\">WHISKERS</p>", "conditions": [24, 800, "v", 24000], "internal_node_id": "0.0-64.0", "trial": 2, "time_elapsed": 909510, "serialpos": 2, "key_press": -1, "wordID": 1604, "type": "PRES_VIS", "trial_index": 91}, "uniqueid": "MTK3560:3IOEN3P9S8QZ14S976JLJ1D6S2J615", "dateTime": 1520791262231}, {"current_trial": 92, "trialdata": {"rt": -1, "trial_type": "single-stim", "word": "flesh", "stimulus": "<p id=\"stim\">FLESH</p>", "conditions": [24, 800, "v", 24000], "internal_node_id": "0.0-65.0", "trial": 2, "time_elapsed": 911177, "serialpos": 3, "key_press": -1, "wordID": 578, "type": "PRES_VIS", "trial_index": 92}, "uniqueid": "MTK3560:3IOEN3P9S8QZ14S976JLJ1D6S2J615", "dateTime": 1520791263898}, {"current_trial": 93, "trialdata": {"rt": -1, "trial_type": "single-stim", "word": "pastry", "stimulus": "<p id=\"stim\">PASTRY</p>", "conditions": [24, 800, "v", 24000], "internal_node_id": "0.0-66.0", "trial": 2, "time_elapsed": 913060, "serialpos": 4, "key_press": -1, "wordID": 1021, "type": "PRES_VIS", "trial_index": 93}, "uniqueid": "MTK3560:3IOEN3P9S8QZ14S976JLJ1D6S2J615", "dateTime": 1520791265781}, {"current_trial": 94, "trialdata": {"rt": -1, "trial_type": "single-stim", "word": "atlas", "stimulus": "<p id=\"stim\">ATLAS</p>", "conditions": [24, 800, "v", 24000], "internal_node_id": "0.0-67.0", "trial": 2, "time_elapsed": 914837, "serialpos": 5, "key_press": -1, "wordID": 52, "type": "PRES_VIS", "trial_index": 94}, "uniqueid": "MTK3560:3IOEN3P9S8QZ14S976JLJ1D6S2J615", "dateTime": 1520791267558}, {"current_trial": 95, "trialdata": {"rt": -1, "trial_type": "single-stim", "word": "dragon", "stimulus": "<p id=\"stim\">DRAGON</p>", "conditions": [24, 800, "v", 24000], "internal_node_id": "0.0-68.0", "trial": 2, "time_elapsed": 916790, "serialpos": 6, "key_press": -1, "wordID": 491, "type": "PRES_VIS", "trial_index": 95}, "uniqueid": "MTK3560:3IOEN3P9S8QZ14S976JLJ1D6S2J615", "dateTime": 1520791269511}, {"current_trial": 96, "trialdata": {"rt": -1, "trial_type": "single-stim", "word": "human", "stimulus": "<p id=\"stim\">HUMAN</p>", "conditions": [24, 800, "v", 24000], "internal_node_id": "0.0-69.0", "trial": 2, "time_elapsed": 918797, "serialpos": 7, "key_press": -1, "wordID": 725, "type": "PRES_VIS", "trial_index": 96}, "uniqueid": "MTK3560:3IOEN3P9S8QZ14S976JLJ1D6S2J615", "dateTime": 1520791271519}, {"current_trial": 97, "trialdata": {"rt": -1, "trial_type": "single-stim", "word": "mattress", "stimulus": "<p id=\"stim\">MATTRESS</p>", "conditions": [24, 800, "v", 24000], "internal_node_id": "0.0-70.0", "trial": 2, "time_elapsed": 920649, "serialpos": 8, "key_press": -1, "wordID": 878, "type": "PRES_VIS", "trial_index": 97}, "uniqueid": "MTK3560:3IOEN3P9S8QZ14S976JLJ1D6S2J615", "dateTime": 1520791273370}, {"current_trial": 98, "trialdata": {"rt": -1, "trial_type": "single-stim", "word": "couch", "stimulus": "<p id=\"stim\">COUCH</p>", "conditions": [24, 800, "v", 24000], "internal_node_id": "0.0-71.0", "trial": 2, "time_elapsed": 922352, "serialpos": 9, "key_press": -1, "wordID": 385, "type": "PRES_VIS", "trial_index": 98}, "uniqueid": "MTK3560:3IOEN3P9S8QZ14S976JLJ1D6S2J615", "dateTime": 1520791275073}, {"current_trial": 99, "trialdata": {"rt": -1, "trial_type": "single-stim", "word": "fungus", "stimulus": "<p id=\"stim\">FUNGUS</p>", "conditions": [24, 800, "v", 24000], "internal_node_id": "0.0-72.0", "trial": 2, "time_elapsed": 923999, "serialpos": 10, "key_press": -1, "wordID": 613, "type": "PRES_VIS", "trial_index": 99}, "uniqueid": "MTK3560:3IOEN3P9S8QZ14S976JLJ1D6S2J615", "dateTime": 1520791276721}, {"current_trial": 100, "trialdata": {"rt": -1, "trial_type": "single-stim", "word": "gangster", "stimulus": "<p id=\"stim\">GANGSTER</p>", "conditions": [24, 800, "v", 24000], "internal_node_id": "0.0-73.0", "trial": 2, "time_elapsed": 925994, "serialpos": 11, "key_press": -1, "wordID": 619, "type": "PRES_VIS", "trial_index": 100}, "uniqueid": "MTK3560:3IOEN3P9S8QZ14S976JLJ1D6S2J615", "dateTime": 1520791278715}, {"current_trial": 101, "trialdata": {"rt": -1, "trial_type": "single-stim", "word": "marsh", "stimulus": "<p id=\"stim\">MARSH</p>", "conditions": [24, 800, "v", 24000], "internal_node_id": "0.0-74.0", "trial": 2, "time_elapsed": 927917, "serialpos": 12, "key_press": -1, "wordID": 873, "type": "PRES_VIS", "trial_index": 101}, "uniqueid": "MTK3560:3IOEN3P9S8QZ14S976JLJ1D6S2J615", "dateTime": 1520791280638}, {"current_trial": 102, "trialdata": {"rt": -1, "trial_type": "single-stim", "word": "brick", "stimulus": "<p id=\"stim\">BRICK</p>", "conditions": [24, 800, "v", 24000], "internal_node_id": "0.0-75.0", "trial": 2, "time_elapsed": 929727, "serialpos": 13, "key_press": -1, "wordID": 171, "type": "PRES_VIS", "trial_index": 102}, "uniqueid": "MTK3560:3IOEN3P9S8QZ14S976JLJ1D6S2J615", "dateTime": 1520791282449}, {"current_trial": 103, "trialdata": {"rt": -1, "trial_type": "single-stim", "word": "penguin", "stimulus": "<p id=\"stim\">PENGUIN</p>", "conditions": [24, 800, "v", 24000], "internal_node_id": "0.0-76.0", "trial": 2, "time_elapsed": 931471, "serialpos": 14, "key_press": -1, "wordID": 1043, "type": "PRES_VIS", "trial_index": 103}, "uniqueid": "MTK3560:3IOEN3P9S8QZ14S976JLJ1D6S2J615", "dateTime": 1520791284193}, {"current_trial": 104, "trialdata": {"rt": -1, "trial_type": "single-stim", "word": "dust", "stimulus": "<p id=\"stim\">DUST</p>", "conditions": [24, 800, "v", 24000], "internal_node_id": "0.0-77.0", "trial": 2, "time_elapsed": 933310, "serialpos": 15, "key_press": -1, "wordID": 507, "type": "PRES_VIS", "trial_index": 104}, "uniqueid": "MTK3560:3IOEN3P9S8QZ14S976JLJ1D6S2J615", "dateTime": 1520791286032}, {"current_trial": 105, "trialdata": {"rt": -1, "trial_type": "single-stim", "word": "salmon", "stimulus": "<p id=\"stim\">SALMON</p>", "conditions": [24, 800, "v", 24000], "internal_node_id": "0.0-78.0", "trial": 2, "time_elapsed": 935135, "serialpos": 16, "key_press": -1, "wordID": 1226, "type": "PRES_VIS", "trial_index": 105}, "uniqueid": "MTK3560:3IOEN3P9S8QZ14S976JLJ1D6S2J615", "dateTime": 1520791287856}, {"current_trial": 106, "trialdata": {"rt": -1, "trial_type": "single-stim", "word": "canal", "stimulus": "<p id=\"stim\">CANAL</p>", "conditions": [24, 800, "v", 24000], "internal_node_id": "0.0-79.0", "trial": 2, "time_elapsed": 936942, "serialpos": 17, "key_press": -1, "wordID": 225, "type": "PRES_VIS", "trial_index": 106}, "uniqueid": "MTK3560:3IOEN3P9S8QZ14S976JLJ1D6S2J615", "dateTime": 1520791289663}, {"current_trial": 107, "trialdata": {"rt": -1, "trial_type": "single-stim", "word": "quail", "stimulus": "<p id=\"stim\">QUAIL</p>", "conditions": [24, 800, "v", 24000], "internal_node_id": "0.0-80.0", "trial": 2, "time_elapsed": 938833, "serialpos": 18, "key_press": -1, "wordID": 1146, "type": "PRES_VIS", "trial_index": 107}, "uniqueid": "MTK3560:3IOEN3P9S8QZ14S976JLJ1D6S2J615", "dateTime": 1520791291555}, {"current_trial": 108, "trialdata": {"rt": -1, "trial_type": "single-stim", "word": "lake", "stimulus": "<p id=\"stim\">LAKE</p>", "conditions": [24, 800, "v", 24000], "internal_node_id": "0.0-81.0", "trial": 2, "time_elapsed": 940513, "serialpos": 19, "key_press": -1, "wordID": 795, "type": "PRES_VIS", "trial_index": 108}, "uniqueid": "MTK3560:3IOEN3P9S8QZ14S976JLJ1D6S2J615", "dateTime": 1520791293235}, {"current_trial": 109, "trialdata": {"rt": -1, "trial_type": "single-stim", "word": "oyster", "stimulus": "<p id=\"stim\">OYSTER</p>", "conditions": [24, 800, "v", 24000], "internal_node_id": "0.0-82.0", "trial": 2, "time_elapsed": 942498, "serialpos": 20, "key_press": -1, "wordID": 994, "type": "PRES_VIS", "trial_index": 109}, "uniqueid": "MTK3560:3IOEN3P9S8QZ14S976JLJ1D6S2J615", "dateTime": 1520791295219}, {"current_trial": 110, "trialdata": {"rt": -1, "trial_type": "single-stim", "word": "robber", "stimulus": "<p id=\"stim\">ROBBER</p>", "conditions": [24, 800, "v", 24000], "internal_node_id": "0.0-83.0", "trial": 2, "time_elapsed": 944456, "serialpos": 21, "key_press": -1, "wordID": 1196, "type": "PRES_VIS", "trial_index": 110}, "uniqueid": "MTK3560:3IOEN3P9S8QZ14S976JLJ1D6S2J615", "dateTime": 1520791297177}, {"current_trial": 111, "trialdata": {"rt": -1, "trial_type": "single-stim", "word": "cashier", "stimulus": "<p id=\"stim\">CASHIER</p>", "conditions": [24, 800, "v", 24000], "internal_node_id": "0.0-84.0", "trial": 2, "time_elapsed": 946128, "serialpos": 22, "key_press": -1, "wordID": 253, "type": "PRES_VIS", "trial_index": 111}, "uniqueid": "MTK3560:3IOEN3P9S8QZ14S976JLJ1D6S2J615", "dateTime": 1520791298850}, {"current_trial": 112, "trialdata": {"rt": -1, "trial_type": "single-stim", "word": "rabbit", "stimulus": "<p id=\"stim\">RABBIT</p>", "conditions": [24, 800, "v", 24000], "internal_node_id": "0.0-85.0", "trial": 2, "time_elapsed": 948096, "serialpos": 23, "key_press": -1, "wordID": 1151, "type": "PRES_VIS", "trial_index": 112}, "uniqueid": "MTK3560:3IOEN3P9S8QZ14S976JLJ1D6S2J615", "dateTime": 1520791300817}, {"current_trial": 113, "trialdata": {"rt": -1, "trial_type": "single-stim", "stimulus": "", "internal_node_id": "0.0-86.0-0.0", "time_elapsed": 950308, "key_press": -1, "type": "PRE_RECALL_DELAY", "trial_index": 113}, "uniqueid": "MTK3560:3IOEN3P9S8QZ14S976JLJ1D6S2J615", "dateTime": 1520791303029}, {"current_trial": 114, "trialdata": {"rt": -1000, "trial_type": "single-audio", "stimulus": "/static/audio/400Hz.wav", "internal_node_id": "0.0-87.0", "time_elapsed": 950812, "key_press": -1, "type": "PRE_RECALL_ALERT", "trial_index": 114}, "uniqueid": "MTK3560:3IOEN3P9S8QZ14S976JLJ1D6S2J615", "dateTime": 1520791303533}, {"current_trial": 115, "trialdata": {"rt": [3803, 6028, 8749, 11636, 17555, 22288, 26498, 30790, 35970, 54924], "recwords": ["rabbit", "clam", "oyster", "burglar", "dust", "mildew", "human", "whiskers", "rabbit", "clam"], "key_times": [1172, 1443, 1921, 2095, 2302, 2541, 3803, 4571, 4730, 4851, 5536, 6028, 6741, 7104, 7368, 7825, 8077, 8286, 8749, 9444, 9607, 9826, 10119, 10614, 10775, 11120, 11636, 16190, 16669, 16809, 17111, 17555, 18082, 18270, 19517, 19697, 19908, 20150, 22288, 25157, 25341, 25612, 25768, 25892, 26498, 28768, 29054, 29229, 29504, 29808, 29964, 30171, 30426, 30790, 33986, 34274, 34604, 34769, 34935, 35147, 35970, 53583, 53800, 53905, 54102, 54924, 59289, 59594, 59861, 60007], "trial_type": "free-recall", "conditions": [24, 800, "v", 24000], "internal_node_id": "0.0-88.0-0.0", "key_presses": [82, 65, 66, 66, 73, 84, 13, 67, 76, 65, 77, 13, 79, 89, 83, 84, 69, 82, 13, 66, 85, 82, 71, 76, 65, 82, 13, 68, 85, 83, 84, 13, 77, 73, 76, 68, 69, 87, 13, 72, 85, 77, 65, 78, 13, 87, 72, 73, 83, 75, 69, 82, 83, 13, 82, 65, 66, 66, 73, 84, 13, 67, 76, 65, 77, 13, 81, 85, 65, 73], "trial": 2, "time_elapsed": 1010833, "type": "FREE_RECALL", "trial_index": 115}, "uniqueid": "MTK3560:3IOEN3P9S8QZ14S976JLJ1D6S2J615", "dateTime": 1520791363561}, {"current_trial": 116, "trialdata": {"rt": 2851, "trial_type": "text", "internal_node_id": "0.0-89.0", "time_elapsed": 1015715, "key_press": 90, "type": "INSTRUCTIONS", "trial_index": 116}, "uniqueid": "MTK3560:3IOEN3P9S8QZ14S976JLJ1D6S2J615", "dateTime": 1520791368436}, {"current_trial": 117, "trialdata": {"rt": [3289, 6710, 8861, 11662], "trial_type": "math-distractor", "key_times": [2354, 2680, 3289, 4929, 5863, 6710, 8624, 8861, 10340, 11219, 11662], "responses": ["10", "19", "8", "16"], "num2": [2, 4, 5, 9, 2], "num3": [6, 7, 1, 6, 7], "conditions": [24, 1600, "v", 12000], "internal_node_id": "0.0-90.0", "key_presses": [49, 48, 13, 49, 57, 13, 56, 13, 49, 54, 13], "trial": 3, "time_elapsed": 1029763, "type": "DISTRACTOR", "trial_index": 117, "num1": [2, 8, 2, 1, 5]}, "uniqueid": "MTK3560:3IOEN3P9S8QZ14S976JLJ1D6S2J615", "dateTime": 1520791382484}, {"current_trial": 118, "trialdata": {"rt": -1, "trial_type": "single-stim", "stimulus": "<p id=\"stim\">10</p>", "internal_node_id": "0.0-91.0-0.0", "time_elapsed": 1032791, "key_press": -1, "trial_index": 118}, "uniqueid": "MTK3560:3IOEN3P9S8QZ14S976JLJ1D6S2J615", "dateTime": 1520791385512}, {"current_trial": 119, "trialdata": {"rt": -1, "trial_type": "single-stim", "stimulus": "<p id=\"stim\">9</p>", "internal_node_id": "0.0-91.0-1.0", "time_elapsed": 1033805, "key_press": -1, "trial_index": 119}, "uniqueid": "MTK3560:3IOEN3P9S8QZ14S976JLJ1D6S2J615", "dateTime": 1520791386527}, {"current_trial": 120, "trialdata": {"rt": -1, "trial_type": "single-stim", "stimulus": "<p id=\"stim\">8</p>", "internal_node_id": "0.0-91.0-2.0", "time_elapsed": 1034798, "key_press": -1, "trial_index": 120}, "uniqueid": "MTK3560:3IOEN3P9S8QZ14S976JLJ1D6S2J615", "dateTime": 1520791387520}, {"current_trial": 121, "trialdata": {"rt": -1, "trial_type": "single-stim", "stimulus": "<p id=\"stim\">7</p>", "internal_node_id": "0.0-91.0-3.0", "time_elapsed": 1035789, "key_press": -1, "trial_index": 121}, "uniqueid": "MTK3560:3IOEN3P9S8QZ14S976JLJ1D6S2J615", "dateTime": 1520791388511}, {"current_trial": 122, "trialdata": {"rt": -1, "trial_type": "single-stim", "stimulus": "<p id=\"stim\">6</p>", "internal_node_id": "0.0-91.0-4.0", "time_elapsed": 1036798, "key_press": -1, "trial_index": 122}, "uniqueid": "MTK3560:3IOEN3P9S8QZ14S976JLJ1D6S2J615", "dateTime": 1520791389519}, {"current_trial": 123, "trialdata": {"rt": -1, "trial_type": "single-stim", "stimulus": "<p id=\"stim\">5</p>", "internal_node_id": "0.0-91.0-5.0", "time_elapsed": 1037808, "key_press": -1, "trial_index": 123}, "uniqueid": "MTK3560:3IOEN3P9S8QZ14S976JLJ1D6S2J615", "dateTime": 1520791390529}, {"current_trial": 124, "trialdata": {"rt": -1, "trial_type": "single-stim", "stimulus": "<p id=\"stim\">4</p>", "internal_node_id": "0.0-91.0-6.0", "time_elapsed": 1038790, "key_press": -1, "trial_index": 124}, "uniqueid": "MTK3560:3IOEN3P9S8QZ14S976JLJ1D6S2J615", "dateTime": 1520791391512}, {"current_trial": 125, "trialdata": {"rt": -1, "trial_type": "single-stim", "stimulus": "<p id=\"stim\">3</p>", "internal_node_id": "0.0-91.0-7.0", "time_elapsed": 1039807, "key_press": -1, "trial_index": 125}, "uniqueid": "MTK3560:3IOEN3P9S8QZ14S976JLJ1D6S2J615", "dateTime": 1520791392529}, {"current_trial": 126, "trialdata": {"rt": -1, "trial_type": "single-stim", "stimulus": "<p id=\"stim\">2</p>", "internal_node_id": "0.0-91.0-8.0", "time_elapsed": 1040804, "key_press": -1, "trial_index": 126}, "uniqueid": "MTK3560:3IOEN3P9S8QZ14S976JLJ1D6S2J615", "dateTime": 1520791393526}, {"current_trial": 127, "trialdata": {"rt": -1, "trial_type": "single-stim", "stimulus": "<p id=\"stim\">1</p>", "internal_node_id": "0.0-91.0-9.0", "time_elapsed": 1041808, "key_press": -1, "trial_index": 127}, "uniqueid": "MTK3560:3IOEN3P9S8QZ14S976JLJ1D6S2J615", "dateTime": 1520791394529}, {"current_trial": 128, "trialdata": {"rt": -1, "trial_type": "single-stim", "stimulus": "<p id=\"stim\">+</p>", "internal_node_id": "0.0-92.0-0.0", "time_elapsed": 1043325, "key_press": -1, "type": "FIXATION", "trial_index": 128}, "uniqueid": "MTK3560:3IOEN3P9S8QZ14S976JLJ1D6S2J615", "dateTime": 1520791396047}, {"current_trial": 129, "trialdata": {"rt": -1, "trial_type": "single-stim", "word": "headband", "stimulus": "<p id=\"stim\">HEADBAND</p>", "conditions": [24, 1600, "v", 12000], "internal_node_id": "0.0-93.0", "trial": 3, "time_elapsed": 1044930, "serialpos": 0, "key_press": -1, "wordID": 695, "type": "PRES_VIS", "trial_index": 129}, "uniqueid": "MTK3560:3IOEN3P9S8QZ14S976JLJ1D6S2J615", "dateTime": 1520791397651}, {"current_trial": 130, "trialdata": {"rt": -1, "trial_type": "single-stim", "word": "poet", "stimulus": "<p id=\"stim\">POET</p>", "conditions": [24, 1600, "v", 12000], "internal_node_id": "0.0-94.0", "trial": 3, "time_elapsed": 1047584, "serialpos": 1, "key_press": -1, "wordID": 1094, "type": "PRES_VIS", "trial_index": 130}, "uniqueid": "MTK3560:3IOEN3P9S8QZ14S976JLJ1D6S2J615", "dateTime": 1520791400305}, {"current_trial": 131, "trialdata": {"rt": -1, "trial_type": "single-stim", "word": "cupboard", "stimulus": "<p id=\"stim\">CUPBOARD</p>", "conditions": [24, 1600, "v", 12000], "internal_node_id": "0.0-95.0", "trial": 3, "time_elapsed": 1050116, "serialpos": 2, "key_press": -1, "wordID": 424, "type": "PRES_VIS", "trial_index": 131}, "uniqueid": "MTK3560:3IOEN3P9S8QZ14S976JLJ1D6S2J615", "dateTime": 1520791402837}, {"current_trial": 132, "trialdata": {"rt": -1, "trial_type": "single-stim", "word": "mammal", "stimulus": "<p id=\"stim\">MAMMAL</p>", "conditions": [24, 1600, "v", 12000], "internal_node_id": "0.0-96.0", "trial": 3, "time_elapsed": 1052628, "serialpos": 3, "key_press": -1, "wordID": 860, "type": "PRES_VIS", "trial_index": 132}, "uniqueid": "MTK3560:3IOEN3P9S8QZ14S976JLJ1D6S2J615", "dateTime": 1520791405350}, {"current_trial": 133, "trialdata": {"rt": -1, "trial_type": "single-stim", "word": "turkey", "stimulus": "<p id=\"stim\">TURKEY</p>", "conditions": [24, 1600, "v", 12000], "internal_node_id": "0.0-97.0", "trial": 3, "time_elapsed": 1055096, "serialpos": 4, "key_press": -1, "wordID": 1519, "type": "PRES_VIS", "trial_index": 133}, "uniqueid": "MTK3560:3IOEN3P9S8QZ14S976JLJ1D6S2J615", "dateTime": 1520791407818}, {"current_trial": 134, "trialdata": {"rt": -1, "trial_type": "single-stim", "word": "pistol", "stimulus": "<p id=\"stim\">PISTOL</p>", "conditions": [24, 1600, "v", 12000], "internal_node_id": "0.0-98.0", "trial": 3, "time_elapsed": 1057706, "serialpos": 5, "key_press": -1, "wordID": 1074, "type": "PRES_VIS", "trial_index": 134}, "uniqueid": "MTK3560:3IOEN3P9S8QZ14S976JLJ1D6S2J615", "dateTime": 1520791410428}, {"current_trial": 135, "trialdata": {"rt": -1, "trial_type": "single-stim", "word": "grill", "stimulus": "<p id=\"stim\">GRILL</p>", "conditions": [24, 1600, "v", 12000], "internal_node_id": "0.0-99.0", "trial": 3, "time_elapsed": 1060469, "serialpos": 6, "key_press": -1, "wordID": 660, "type": "PRES_VIS", "trial_index": 135}, "uniqueid": "MTK3560:3IOEN3P9S8QZ14S976JLJ1D6S2J615", "dateTime": 1520791413190}, {"current_trial": 136, "trialdata": {"rt": -1, "trial_type": "single-stim", "word": "scallop", "stimulus": "<p id=\"stim\">SCALLOP</p>", "conditions": [24, 1600, "v", 12000], "internal_node_id": "0.0-100.0", "trial": 3, "time_elapsed": 1063097, "serialpos": 7, "key_press": -1, "wordID": 1241, "type": "PRES_VIS", "trial_index": 136}, "uniqueid": "MTK3560:3IOEN3P9S8QZ14S976JLJ1D6S2J615", "dateTime": 1520791415819}, {"current_trial": 137, "trialdata": {"rt": -1, "trial_type": "single-stim", "word": "arm", "stimulus": "<p id=\"stim\">ARM</p>", "conditions": [24, 1600, "v", 12000], "internal_node_id": "0.0-101.0", "trial": 3, "time_elapsed": 1065790, "serialpos": 8, "key_press": -1, "wordID": 37, "type": "PRES_VIS", "trial_index": 137}, "uniqueid": "MTK3560:3IOEN3P9S8QZ14S976JLJ1D6S2J615", "dateTime": 1520791418511}, {"current_trial": 138, "trialdata": {"rt": -1, "trial_type": "single-stim", "word": "shoulder", "stimulus": "<p id=\"stim\">SHOULDER</p>", "conditions": [24, 1600, "v", 12000], "internal_node_id": "0.0-102.0", "trial": 3, "time_elapsed": 1068622, "serialpos": 9, "key_press": -1, "wordID": 1293, "type": "PRES_VIS", "trial_index": 138}, "uniqueid": "MTK3560:3IOEN3P9S8QZ14S976JLJ1D6S2J615", "dateTime": 1520791421344}, {"current_trial": 139, "trialdata": {"rt": -1, "trial_type": "single-stim", "word": "dresser", "stimulus": "<p id=\"stim\">DRESSER</p>", "conditions": [24, 1600, "v", 12000], "internal_node_id": "0.0-103.0", "trial": 3, "time_elapsed": 1071251, "serialpos": 10, "key_press": -1, "wordID": 495, "type": "PRES_VIS", "trial_index": 139}, "uniqueid": "MTK3560:3IOEN3P9S8QZ14S976JLJ1D6S2J615", "dateTime": 1520791423972}, {"current_trial": 140, "trialdata": {"rt": -1, "trial_type": "single-stim", "word": "monster", "stimulus": "<p id=\"stim\">MONSTER</p>", "conditions": [24, 1600, "v", 12000], "internal_node_id": "0.0-104.0", "trial": 3, "time_elapsed": 1073967, "serialpos": 11, "key_press": -1, "wordID": 911, "type": "PRES_VIS", "trial_index": 140}, "uniqueid": "MTK3560:3IOEN3P9S8QZ14S976JLJ1D6S2J615", "dateTime": 1520791426688}, {"current_trial": 141, "trialdata": {"rt": -1, "trial_type": "single-stim", "word": "snail", "stimulus": "<p id=\"stim\">SNAIL</p>", "conditions": [24, 1600, "v", 12000], "internal_node_id": "0.0-105.0", "trial": 3, "time_elapsed": 1076577, "serialpos": 12, "key_press": -1, "wordID": 1331, "type": "PRES_VIS", "trial_index": 141}, "uniqueid": "MTK3560:3IOEN3P9S8QZ14S976JLJ1D6S2J615", "dateTime": 1520791429298}, {"current_trial": 142, "trialdata": {"rt": -1, "trial_type": "single-stim", "word": "plaza", "stimulus": "<p id=\"stim\">PLAZA</p>", "conditions": [24, 1600, "v", 12000], "internal_node_id": "0.0-106.0", "trial": 3, "time_elapsed": 1079032, "serialpos": 13, "key_press": -1, "wordID": 1087, "type": "PRES_VIS", "trial_index": 142}, "uniqueid": "MTK3560:3IOEN3P9S8QZ14S976JLJ1D6S2J615", "dateTime": 1520791431754}, {"current_trial": 143, "trialdata": {"rt": -1, "trial_type": "single-stim", "word": "sidewalk", "stimulus": "<p id=\"stim\">SIDEWALK</p>", "conditions": [24, 1600, "v", 12000], "internal_node_id": "0.0-107.0", "trial": 3, "time_elapsed": 1081600, "serialpos": 14, "key_press": -1, "wordID": 1302, "type": "PRES_VIS", "trial_index": 143}, "uniqueid": "MTK3560:3IOEN3P9S8QZ14S976JLJ1D6S2J615", "dateTime": 1520791434321}, {"current_trial": 144, "trialdata": {"rt": -1, "trial_type": "single-stim", "word": "yarn", "stimulus": "<p id=\"stim\">YARN</p>", "conditions": [24, 1600, "v", 12000], "internal_node_id": "0.0-108.0", "trial": 3, "time_elapsed": 1084185, "serialpos": 15, "key_press": -1, "wordID": 1630, "type": "PRES_VIS", "trial_index": 144}, "uniqueid": "MTK3560:3IOEN3P9S8QZ14S976JLJ1D6S2J615", "dateTime": 1520791436906}, {"current_trial": 145, "trialdata": {"rt": -1, "trial_type": "single-stim", "word": "lizard", "stimulus": "<p id=\"stim\">LIZARD</p>", "conditions": [24, 1600, "v", 12000], "internal_node_id": "0.0-109.0", "trial": 3, "time_elapsed": 1086831, "serialpos": 16, "key_press": -1, "wordID": 833, "type": "PRES_VIS", "trial_index": 145}, "uniqueid": "MTK3560:3IOEN3P9S8QZ14S976JLJ1D6S2J615", "dateTime": 1520791439552}, {"current_trial": 146, "trialdata": {"rt": -1, "trial_type": "single-stim", "word": "widow", "stimulus": "<p id=\"stim\">WIDOW</p>", "conditions": [24, 1600, "v", 12000], "internal_node_id": "0.0-110.0", "trial": 3, "time_elapsed": 1089436, "serialpos": 17, "key_press": -1, "wordID": 1607, "type": "PRES_VIS", "trial_index": 146}, "uniqueid": "MTK3560:3IOEN3P9S8QZ14S976JLJ1D6S2J615", "dateTime": 1520791442157}, {"current_trial": 147, "trialdata": {"rt": -1, "trial_type": "single-stim", "word": "rod", "stimulus": "<p id=\"stim\">ROD</p>", "conditions": [24, 1600, "v", 12000], "internal_node_id": "0.0-111.0", "trial": 3, "time_elapsed": 1091965, "serialpos": 18, "key_press": -1, "wordID": 1202, "type": "PRES_VIS", "trial_index": 147}, "uniqueid": "MTK3560:3IOEN3P9S8QZ14S976JLJ1D6S2J615", "dateTime": 1520791444687}, {"current_trial": 148, "trialdata": {"rt": -1, "trial_type": "single-stim", "word": "mask", "stimulus": "<p id=\"stim\">MASK</p>", "conditions": [24, 1600, "v", 12000], "internal_node_id": "0.0-112.0", "trial": 3, "time_elapsed": 1094600, "serialpos": 19, "key_press": -1, "wordID": 875, "type": "PRES_VIS", "trial_index": 148}, "uniqueid": "MTK3560:3IOEN3P9S8QZ14S976JLJ1D6S2J615", "dateTime": 1520791447322}, {"current_trial": 149, "trialdata": {"rt": -1, "trial_type": "single-stim", "word": "belly", "stimulus": "<p id=\"stim\">BELLY</p>", "conditions": [24, 1600, "v", 12000], "internal_node_id": "0.0-113.0", "trial": 3, "time_elapsed": 1097317, "serialpos": 20, "key_press": -1, "wordID": 118, "type": "PRES_VIS", "trial_index": 149}, "uniqueid": "MTK3560:3IOEN3P9S8QZ14S976JLJ1D6S2J615", "dateTime": 1520791450039}, {"current_trial": 150, "trialdata": {"rt": -1, "trial_type": "single-stim", "word": "dorm", "stimulus": "<p id=\"stim\">DORM</p>", "conditions": [24, 1600, "v", 12000], "internal_node_id": "0.0-114.0", "trial": 3, "time_elapsed": 1099836, "serialpos": 21, "key_press": -1, "wordID": 487, "type": "PRES_VIS", "trial_index": 150}, "uniqueid": "MTK3560:3IOEN3P9S8QZ14S976JLJ1D6S2J615", "dateTime": 1520791452557}, {"current_trial": 151, "trialdata": {"rt": -1, "trial_type": "single-stim", "word": "skirt", "stimulus": "<p id=\"stim\">SKIRT</p>", "conditions": [24, 1600, "v", 12000], "internal_node_id": "0.0-115.0", "trial": 3, "time_elapsed": 1102330, "serialpos": 22, "key_press": -1, "wordID": 1318, "type": "PRES_VIS", "trial_index": 151}, "uniqueid": "MTK3560:3IOEN3P9S8QZ14S976JLJ1D6S2J615", "dateTime": 1520791455051}, {"current_trial": 152, "trialdata": {"rt": -1, "trial_type": "single-stim", "word": "parrot", "stimulus": "<p id=\"stim\">PARROT</p>", "conditions": [24, 1600, "v", 12000], "internal_node_id": "0.0-116.0", "trial": 3, "time_elapsed": 1104961, "serialpos": 23, "key_press": -1, "wordID": 1014, "type": "PRES_VIS", "trial_index": 152}, "uniqueid": "MTK3560:3IOEN3P9S8QZ14S976JLJ1D6S2J615", "dateTime": 1520791457682}, {"current_trial": 153, "trialdata": {"rt": -1, "trial_type": "single-stim", "stimulus": "", "internal_node_id": "0.0-117.0-0.0", "time_elapsed": 1107418, "key_press": -1, "type": "PRE_RECALL_DELAY", "trial_index": 153}, "uniqueid": "MTK3560:3IOEN3P9S8QZ14S976JLJ1D6S2J615", "dateTime": 1520791460139}, {"current_trial": 154, "trialdata": {"rt": -1000, "trial_type": "single-audio", "stimulus": "/static/audio/400Hz.wav", "internal_node_id": "0.0-118.0", "time_elapsed": 1107935, "key_press": -1, "type": "PRE_RECALL_ALERT", "trial_index": 154}, "uniqueid": "MTK3560:3IOEN3P9S8QZ14S976JLJ1D6S2J615", "dateTime": 1520791460656}, {"current_trial": 155, "trialdata": {"rt": [3480, 5700, 8209, 12077, 15491, 28543, 32328, 34886, 36962, 43789, 48605, 52385], "recwords": ["parrot", "dorm", "dresser", "monster", "mammal", "mask", "robber", "arm", "shoulder", "cupboard", "plaza", "sidewalk"], "key_times": [1791, 1920, 2262, 2390, 2589, 2761, 3480, 4036, 4189, 4540, 4915, 5700, 6362, 6683, 6878, 7121, 7269, 7524, 7707, 8209, 8813, 8985, 9181, 9473, 9812, 10061, 10277, 12077, 12646, 12754, 14130, 14288, 14495, 14723, 15491, 26918, 27075, 27322, 27609, 28543, 30848, 31020, 31253, 31412, 31719, 31953, 32328, 33402, 33765, 34051, 34886, 35414, 35596, 35750, 35904, 36133, 36271, 36476, 36674, 36962, 40807, 40951, 41848, 42113, 42269, 42471, 42742, 42948, 43789, 47186, 47447, 47611, 47869, 48072, 48605, 49603, 49795, 49902, 50086, 50308, 50488, 50840, 51094, 52385, 58937, 59137, 59394, 59678], "trial_type": "free-recall", "conditions": [24, 1600, "v", 12000], "internal_node_id": "0.0-119.0-0.0", "key_presses": [80, 65, 82, 82, 79, 84, 13, 68, 79, 82, 77, 13, 68, 82, 69, 83, 83, 69, 82, 13, 77, 79, 78, 83, 84, 69, 82, 13, 77, 65, 77, 77, 65, 76, 13, 77, 65, 83, 75, 13, 82, 79, 66, 66, 69, 82, 13, 65, 82, 77, 13, 83, 72, 79, 85, 76, 68, 69, 82, 13, 67, 85, 80, 66, 79, 65, 82, 68, 13, 80, 76, 65, 90, 65, 13, 83, 73, 68, 69, 87, 65, 76, 75, 13, 80, 79, 69, 84], "trial": 3, "time_elapsed": 1167948, "type": "FREE_RECALL", "trial_index": 155}, "uniqueid": "MTK3560:3IOEN3P9S8QZ14S976JLJ1D6S2J615", "dateTime": 1520791520676}, {"current_trial": 156, "trialdata": {"rt": 91, "trial_type": "text", "internal_node_id": "0.0-120.0", "time_elapsed": 1170059, "key_press": 65, "type": "INSTRUCTIONS", "trial_index": 156}, "uniqueid": "MTK3560:3IOEN3P9S8QZ14S976JLJ1D6S2J615", "dateTime": 1520791522781}, {"current_trial": 157, "trialdata": {"rt": [3766, 7111, 9547, 11980, 13887, 17687, 19901, 22565], "trial_type": "math-distractor", "key_times": [2944, 3360, 3766, 6139, 6572, 7111, 8540, 9037, 9547, 11202, 11649, 11980, 13578, 13887, 17085, 17289, 17687, 19270, 19611, 19901, 22084, 22261, 22565], "responses": ["17", "15", "16", "15", "9", "21", "14", "11"], "num2": [4, 2, 2, 8, 1, 4, 8, 4, 4], "num3": [6, 5, 7, 6, 4, 8, 2, 2, 5], "conditions": [12, 800, "v", 24000], "internal_node_id": "0.0-121.0", "key_presses": [49, 55, 13, 49, 53, 13, 49, 54, 13, 49, 53, 13, 57, 13, 50, 49, 13, 49, 52, 13, 49, 49, 13], "trial": 4, "time_elapsed": 1196095, "type": "DISTRACTOR", "trial_index": 157, "num1": [7, 8, 7, 1, 4, 9, 4, 5, 4]}, "uniqueid": "MTK3560:3IOEN3P9S8QZ14S976JLJ1D6S2J615", "dateTime": 1520791548816}, {"current_trial": 158, "trialdata": {"rt": -1, "trial_type": "single-stim", "stimulus": "<p id=\"stim\">10</p>", "internal_node_id": "0.0-122.0-0.0", "time_elapsed": 1199128, "key_press": -1, "trial_index": 158}, "uniqueid": "MTK3560:3IOEN3P9S8QZ14S976JLJ1D6S2J615", "dateTime": 1520791551850}, {"current_trial": 159, "trialdata": {"rt": -1, "trial_type": "single-stim", "stimulus": "<p id=\"stim\">9</p>", "internal_node_id": "0.0-122.0-1.0", "time_elapsed": 1200129, "key_press": -1, "trial_index": 159}, "uniqueid": "MTK3560:3IOEN3P9S8QZ14S976JLJ1D6S2J615", "dateTime": 1520791552850}, {"current_trial": 160, "trialdata": {"rt": -1, "trial_type": "single-stim", "stimulus": "<p id=\"stim\">8</p>", "internal_node_id": "0.0-122.0-2.0", "time_elapsed": 1201131, "key_press": -1, "trial_index": 160}, "uniqueid": "MTK3560:3IOEN3P9S8QZ14S976JLJ1D6S2J615", "dateTime": 1520791553853}, {"current_trial": 161, "trialdata": {"rt": -1, "trial_type": "single-stim", "stimulus": "<p id=\"stim\">7</p>", "internal_node_id": "0.0-122.0-3.0", "time_elapsed": 1202122, "key_press": -1, "trial_index": 161}, "uniqueid": "MTK3560:3IOEN3P9S8QZ14S976JLJ1D6S2J615", "dateTime": 1520791554843}, {"current_trial": 162, "trialdata": {"rt": -1, "trial_type": "single-stim", "stimulus": "<p id=\"stim\">6</p>", "internal_node_id": "0.0-122.0-4.0", "time_elapsed": 1203139, "key_press": -1, "trial_index": 162}, "uniqueid": "MTK3560:3IOEN3P9S8QZ14S976JLJ1D6S2J615", "dateTime": 1520791555860}, {"current_trial": 163, "trialdata": {"rt": -1, "trial_type": "single-stim", "stimulus": "<p id=\"stim\">5</p>", "internal_node_id": "0.0-122.0-5.0", "time_elapsed": 1204134, "key_press": -1, "trial_index": 163}, "uniqueid": "MTK3560:3IOEN3P9S8QZ14S976JLJ1D6S2J615", "dateTime": 1520791556856}, {"current_trial": 164, "trialdata": {"rt": -1, "trial_type": "single-stim", "stimulus": "<p id=\"stim\">4</p>", "internal_node_id": "0.0-122.0-6.0", "time_elapsed": 1205124, "key_press": -1, "trial_index": 164}, "uniqueid": "MTK3560:3IOEN3P9S8QZ14S976JLJ1D6S2J615", "dateTime": 1520791557846}, {"current_trial": 165, "trialdata": {"rt": -1, "trial_type": "single-stim", "stimulus": "<p id=\"stim\">3</p>", "internal_node_id": "0.0-122.0-7.0", "time_elapsed": 1206128, "key_press": -1, "trial_index": 165}, "uniqueid": "MTK3560:3IOEN3P9S8QZ14S976JLJ1D6S2J615", "dateTime": 1520791558850}, {"current_trial": 166, "trialdata": {"rt": -1, "trial_type": "single-stim", "stimulus": "<p id=\"stim\">2</p>", "internal_node_id": "0.0-122.0-8.0", "time_elapsed": 1207132, "key_press": -1, "trial_index": 166}, "uniqueid": "MTK3560:3IOEN3P9S8QZ14S976JLJ1D6S2J615", "dateTime": 1520791559854}, {"current_trial": 167, "trialdata": {"rt": -1, "trial_type": "single-stim", "stimulus": "<p id=\"stim\">1</p>", "internal_node_id": "0.0-122.0-9.0", "time_elapsed": 1208118, "key_press": -1, "trial_index": 167}, "uniqueid": "MTK3560:3IOEN3P9S8QZ14S976JLJ1D6S2J615", "dateTime": 1520791560839}, {"current_trial": 168, "trialdata": {"rt": -1, "trial_type": "single-stim", "stimulus": "<p id=\"stim\">+</p>", "internal_node_id": "0.0-123.0-0.0", "time_elapsed": 1209641, "key_press": -1, "type": "FIXATION", "trial_index": 168}, "uniqueid": "MTK3560:3IOEN3P9S8QZ14S976JLJ1D6S2J615", "dateTime": 1520791562362}, {"current_trial": 169, "trialdata": {"rt": -1, "trial_type": "single-stim", "word": "wrist", "stimulus": "<p id=\"stim\">WRIST</p>", "conditions": [12, 800, "v", 24000], "internal_node_id": "0.0-124.0", "trial": 4, "time_elapsed": 1210469, "serialpos": 0, "key_press": -1, "wordID": 1625, "type": "PRES_VIS", "trial_index": 169}, "uniqueid": "MTK3560:3IOEN3P9S8QZ14S976JLJ1D6S2J615", "dateTime": 1520791563190}, {"current_trial": 170, "trialdata": {"rt": -1, "trial_type": "single-stim", "word": "compass", "stimulus": "<p id=\"stim\">COMPASS</p>", "conditions": [12, 800, "v", 24000], "internal_node_id": "0.0-125.0", "trial": 4, "time_elapsed": 1212189, "serialpos": 1, "key_press": -1, "wordID": 357, "type": "PRES_VIS", "trial_index": 170}, "uniqueid": "MTK3560:3IOEN3P9S8QZ14S976JLJ1D6S2J615", "dateTime": 1520791564910}, {"current_trial": 171, "trialdata": {"rt": -1, "trial_type": "single-stim", "word": "banjo", "stimulus": "<p id=\"stim\">BANJO</p>", "conditions": [12, 800, "v", 24000], "internal_node_id": "0.0-126.0", "trial": 4, "time_elapsed": 1213897, "serialpos": 2, "key_press": -1, "wordID": 81, "type": "PRES_VIS", "trial_index": 171}, "uniqueid": "MTK3560:3IOEN3P9S8QZ14S976JLJ1D6S2J615", "dateTime": 1520791566619}, {"current_trial": 172, "trialdata": {"rt": -1, "trial_type": "single-stim", "word": "donkey", "stimulus": "<p id=\"stim\">DONKEY</p>", "conditions": [12, 800, "v", 24000], "internal_node_id": "0.0-127.0", "trial": 4, "time_elapsed": 1215655, "serialpos": 3, "key_press": -1, "wordID": 483, "type": "PRES_VIS", "trial_index": 172}, "uniqueid": "MTK3560:3IOEN3P9S8QZ14S976JLJ1D6S2J615", "dateTime": 1520791568377}, {"current_trial": 173, "trialdata": {"rt": -1, "trial_type": "single-stim", "word": "ulcer", "stimulus": "<p id=\"stim\">ULCER</p>", "conditions": [12, 800, "v", 24000], "internal_node_id": "0.0-128.0", "trial": 4, "time_elapsed": 1217531, "serialpos": 4, "key_press": -1, "wordID": 1532, "type": "PRES_VIS", "trial_index": 173}, "uniqueid": "MTK3560:3IOEN3P9S8QZ14S976JLJ1D6S2J615", "dateTime": 1520791570253}, {"current_trial": 174, "trialdata": {"rt": -1, "trial_type": "single-stim", "word": "razor", "stimulus": "<p id=\"stim\">RAZOR</p>", "conditions": [12, 800, "v", 24000], "internal_node_id": "0.0-129.0", "trial": 4, "time_elapsed": 1219185, "serialpos": 5, "key_press": -1, "wordID": 1170, "type": "PRES_VIS", "trial_index": 174}, "uniqueid": "MTK3560:3IOEN3P9S8QZ14S976JLJ1D6S2J615", "dateTime": 1520791571906}, {"current_trial": 175, "trialdata": {"rt": -1, "trial_type": "single-stim", "word": "award", "stimulus": "<p id=\"stim\">AWARD</p>", "conditions": [12, 800, "v", 24000], "internal_node_id": "0.0-130.0", "trial": 4, "time_elapsed": 1221018, "serialpos": 6, "key_press": -1, "wordID": 62, "type": "PRES_VIS", "trial_index": 175}, "uniqueid": "MTK3560:3IOEN3P9S8QZ14S976JLJ1D6S2J615", "dateTime": 1520791573740}, {"current_trial": 176, "trialdata": {"rt": -1, "trial_type": "single-stim", "word": "sculpture", "stimulus": "<p id=\"stim\">SCULPTURE</p>", "conditions": [12, 800, "v", 24000], "internal_node_id": "0.0-131.0", "trial": 4, "time_elapsed": 1222822, "serialpos": 7, "key_press": -1, "wordID": 1257, "type": "PRES_VIS", "trial_index": 176}, "uniqueid": "MTK3560:3IOEN3P9S8QZ14S976JLJ1D6S2J615", "dateTime": 1520791575544}, {"current_trial": 177, "trialdata": {"rt": -1, "trial_type": "single-stim", "word": "camel", "stimulus": "<p id=\"stim\">CAMEL</p>", "conditions": [12, 800, "v", 24000], "internal_node_id": "0.0-132.0", "trial": 4, "time_elapsed": 1224482, "serialpos": 8, "key_press": -1, "wordID": 222, "type": "PRES_VIS", "trial_index": 177}, "uniqueid": "MTK3560:3IOEN3P9S8QZ14S976JLJ1D6S2J615", "dateTime": 1520791577203}, {"current_trial": 178, "trialdata": {"rt": -1, "trial_type": "single-stim", "word": "napkin", "stimulus": "<p id=\"stim\">NAPKIN</p>", "conditions": [12, 800, "v", 24000], "internal_node_id": "0.0-133.0", "trial": 4, "time_elapsed": 1226188, "serialpos": 9, "key_press": -1, "wordID": 936, "type": "PRES_VIS", "trial_index": 178}, "uniqueid": "MTK3560:3IOEN3P9S8QZ14S976JLJ1D6S2J615", "dateTime": 1520791578909}, {"current_trial": 179, "trialdata": {"rt": -1, "trial_type": "single-stim", "word": "pecan", "stimulus": "<p id=\"stim\">PECAN</p>", "conditions": [12, 800, "v", 24000], "internal_node_id": "0.0-134.0", "trial": 4, "time_elapsed": 1228051, "serialpos": 10, "key_press": -1, "wordID": 1035, "type": "PRES_VIS", "trial_index": 179}, "uniqueid": "MTK3560:3IOEN3P9S8QZ14S976JLJ1D6S2J615", "dateTime": 1520791580773}, {"current_trial": 180, "trialdata": {"rt": -1, "trial_type": "single-stim", "word": "citrus", "stimulus": "<p id=\"stim\">CITRUS</p>", "conditions": [12, 800, "v", 24000], "internal_node_id": "0.0-135.0", "trial": 4, "time_elapsed": 1230037, "serialpos": 11, "key_press": -1, "wordID": 312, "type": "PRES_VIS", "trial_index": 180}, "uniqueid": "MTK3560:3IOEN3P9S8QZ14S976JLJ1D6S2J615", "dateTime": 1520791582759}, {"current_trial": 181, "trialdata": {"rt": -1, "trial_type": "single-stim", "stimulus": "", "internal_node_id": "0.0-136.0-0.0", "time_elapsed": 1232605, "key_press": -1, "type": "PRE_RECALL_DELAY", "trial_index": 181}, "uniqueid": "MTK3560:3IOEN3P9S8QZ14S976JLJ1D6S2J615", "dateTime": 1520791585327}, {"current_trial": 182, "trialdata": {"rt": -1000, "trial_type": "single-audio", "stimulus": "/static/audio/400Hz.wav", "internal_node_id": "0.0-137.0", "time_elapsed": 1233124, "key_press": -1, "type": "PRE_RECALL_ALERT", "trial_index": 182}, "uniqueid": "MTK3560:3IOEN3P9S8QZ14S976JLJ1D6S2J615", "dateTime": 1520791585846}, {"current_trial": 183, "trialdata": {"rt": [5823, 8619, 11105, 28341], "recwords": ["citrus", "camel", "pecn", "statue"], "key_times": [2305, 2490, 2709, 2926, 3097, 4256, 5823, 6282, 6517, 6725, 6934, 8363, 8619, 9551, 9714, 10158, 10615, 11105, 26495, 26779, 27023, 27319, 27475, 27642, 28341], "trial_type": "free-recall", "conditions": [12, 800, "v", 24000], "internal_node_id": "0.0-138.0-0.0", "key_presses": [67, 73, 84, 82, 85, 83, 13, 67, 65, 77, 69, 76, 13, 80, 69, 67, 78, 13, 83, 84, 65, 84, 85, 69, 13], "trial": 4, "time_elapsed": 1293139, "type": "FREE_RECALL", "trial_index": 183}, "uniqueid": "MTK3560:3IOEN3P9S8QZ14S976JLJ1D6S2J615", "dateTime": 1520791645870}, {"current_trial": 184, "trialdata": {"rt": 151002, "trial_type": "text", "internal_node_id": "0.0-139.0", "time_elapsed": 1446154, "key_press": 90, "type": "INSTRUCTIONS", "trial_index": 184}, "uniqueid": "MTK3560:3IOEN3P9S8QZ14S976JLJ1D6S2J615", "dateTime": 1520791798876}, {"current_trial": 185, "trialdata": {"rt": [5350, 9797, 11408, 15872, 18141, 19895, 21897], "trial_type": "math-distractor", "key_times": [4007, 4376, 5350, 9262, 9482, 9797, 10978, 11202, 11408, 15031, 15394, 15872, 17903, 18141, 19335, 19696, 19895, 21147, 21598, 21897, 23643], "responses": ["15", "23", "12", "13", "7", "14", "14"], "num2": [4, 8, 9, 4, 2, 5, 2, 7], "num3": [6, 6, 2, 2, 2, 5, 4, 2], "conditions": [12, 1600, "v", 24000], "internal_node_id": "0.0-140.0", "key_presses": [49, 53, 13, 50, 51, 13, 49, 50, 13, 49, 51, 13, 55, 13, 49, 52, 13, 49, 52, 13, 49], "trial": 5, "time_elapsed": 1472185, "type": "DISTRACTOR", "trial_index": 185, "num1": [5, 9, 1, 7, 3, 4, 8, 5]}, "uniqueid": "MTK3560:3IOEN3P9S8QZ14S976JLJ1D6S2J615", "dateTime": 1520791824906}, {"current_trial": 186, "trialdata": {"rt": -1, "trial_type": "single-stim", "stimulus": "<p id=\"stim\">10</p>", "internal_node_id": "0.0-141.0-0.0", "time_elapsed": 1475208, "key_press": -1, "trial_index": 186}, "uniqueid": "MTK3560:3IOEN3P9S8QZ14S976JLJ1D6S2J615", "dateTime": 1520791827930}, {"current_trial": 187, "trialdata": {"rt": -1, "trial_type": "single-stim", "stimulus": "<p id=\"stim\">9</p>", "internal_node_id": "0.0-141.0-1.0", "time_elapsed": 1476214, "key_press": -1, "trial_index": 187}, "uniqueid": "MTK3560:3IOEN3P9S8QZ14S976JLJ1D6S2J615", "dateTime": 1520791828936}, {"current_trial": 188, "trialdata": {"rt": -1, "trial_type": "single-stim", "stimulus": "<p id=\"stim\">8</p>", "internal_node_id": "0.0-141.0-2.0", "time_elapsed": 1477199, "key_press": -1, "trial_index": 188}, "uniqueid": "MTK3560:3IOEN3P9S8QZ14S976JLJ1D6S2J615", "dateTime": 1520791829921}, {"current_trial": 189, "trialdata": {"rt": -1, "trial_type": "single-stim", "stimulus": "<p id=\"stim\">7</p>", "internal_node_id": "0.0-141.0-3.0", "time_elapsed": 1478197, "key_press": -1, "trial_index": 189}, "uniqueid": "MTK3560:3IOEN3P9S8QZ14S976JLJ1D6S2J615", "dateTime": 1520791830918}, {"current_trial": 190, "trialdata": {"rt": -1, "trial_type": "single-stim", "stimulus": "<p id=\"stim\">6</p>", "internal_node_id": "0.0-141.0-4.0", "time_elapsed": 1479201, "key_press": -1, "trial_index": 190}, "uniqueid": "MTK3560:3IOEN3P9S8QZ14S976JLJ1D6S2J615", "dateTime": 1520791831923}, {"current_trial": 191, "trialdata": {"rt": -1, "trial_type": "single-stim", "stimulus": "<p id=\"stim\">5</p>", "internal_node_id": "0.0-141.0-5.0", "time_elapsed": 1480219, "key_press": -1, "trial_index": 191}, "uniqueid": "MTK3560:3IOEN3P9S8QZ14S976JLJ1D6S2J615", "dateTime": 1520791832941}, {"current_trial": 192, "trialdata": {"rt": -1, "trial_type": "single-stim", "stimulus": "<p id=\"stim\">4</p>", "internal_node_id": "0.0-141.0-6.0", "time_elapsed": 1481213, "key_press": -1, "trial_index": 192}, "uniqueid": "MTK3560:3IOEN3P9S8QZ14S976JLJ1D6S2J615", "dateTime": 1520791833935}, {"current_trial": 193, "trialdata": {"rt": -1, "trial_type": "single-stim", "stimulus": "<p id=\"stim\">3</p>", "internal_node_id": "0.0-141.0-7.0", "time_elapsed": 1482211, "key_press": -1, "trial_index": 193}, "uniqueid": "MTK3560:3IOEN3P9S8QZ14S976JLJ1D6S2J615", "dateTime": 1520791834932}, {"current_trial": 194, "trialdata": {"rt": -1, "trial_type": "single-stim", "stimulus": "<p id=\"stim\">2</p>", "internal_node_id": "0.0-141.0-8.0", "time_elapsed": 1483200, "key_press": -1, "trial_index": 194}, "uniqueid": "MTK3560:3IOEN3P9S8QZ14S976JLJ1D6S2J615", "dateTime": 1520791835922}, {"current_trial": 195, "trialdata": {"rt": -1, "trial_type": "single-stim", "stimulus": "<p id=\"stim\">1</p>", "internal_node_id": "0.0-141.0-9.0", "time_elapsed": 1484224, "key_press": -1, "trial_index": 195}, "uniqueid": "MTK3560:3IOEN3P9S8QZ14S976JLJ1D6S2J615", "dateTime": 1520791836946}, {"current_trial": 196, "trialdata": {"rt": -1, "trial_type": "single-stim", "stimulus": "<p id=\"stim\">+</p>", "internal_node_id": "0.0-142.0-0.0", "time_elapsed": 1485737, "key_press": -1, "type": "FIXATION", "trial_index": 196}, "uniqueid": "MTK3560:3IOEN3P9S8QZ14S976JLJ1D6S2J615", "dateTime": 1520791838459}, {"current_trial": 197, "trialdata": {"rt": -1, "trial_type": "single-stim", "word": "harp", "stimulus": "<p id=\"stim\">HARP</p>", "conditions": [12, 1600, "v", 24000], "internal_node_id": "0.0-143.0", "trial": 5, "time_elapsed": 1487354, "serialpos": 0, "key_press": -1, "wordID": 688, "type": "PRES_VIS", "trial_index": 197}, "uniqueid": "MTK3560:3IOEN3P9S8QZ14S976JLJ1D6S2J615", "dateTime": 1520791840075}, {"current_trial": 198, "trialdata": {"rt": -1, "trial_type": "single-stim", "word": "switch", "stimulus": "<p id=\"stim\">SWITCH</p>", "conditions": [12, 1600, "v", 24000], "internal_node_id": "0.0-144.0", "trial": 5, "time_elapsed": 1489900, "serialpos": 1, "key_press": -1, "wordID": 1421, "type": "PRES_VIS", "trial_index": 198}, "uniqueid": "MTK3560:3IOEN3P9S8QZ14S976JLJ1D6S2J615", "dateTime": 1520791842621}, {"current_trial": 199, "trialdata": {"rt": -1, "trial_type": "single-stim", "word": "shirt", "stimulus": "<p id=\"stim\">SHIRT</p>", "conditions": [12, 1600, "v", 24000], "internal_node_id": "0.0-145.0", "trial": 5, "time_elapsed": 1492338, "serialpos": 2, "key_press": -1, "wordID": 1286, "type": "PRES_VIS", "trial_index": 199}, "uniqueid": "MTK3560:3IOEN3P9S8QZ14S976JLJ1D6S2J615", "dateTime": 1520791845059}, {"current_trial": 200, "trialdata": {"rt": -1, "trial_type": "single-stim", "word": "leg", "stimulus": "<p id=\"stim\">LEG</p>", "conditions": [12, 1600, "v", 24000], "internal_node_id": "0.0-146.0", "trial": 5, "time_elapsed": 1495150, "serialpos": 3, "key_press": -1, "wordID": 808, "type": "PRES_VIS", "trial_index": 200}, "uniqueid": "MTK3560:3IOEN3P9S8QZ14S976JLJ1D6S2J615", "dateTime": 1520791847872}, {"current_trial": 201, "trialdata": {"rt": -1, "trial_type": "single-stim", "word": "witness", "stimulus": "<p id=\"stim\">WITNESS</p>", "conditions": [12, 1600, "v", 24000], "internal_node_id": "0.0-147.0", "trial": 5, "time_elapsed": 1497899, "serialpos": 4, "key_press": -1, "wordID": 1617, "type": "PRES_VIS", "trial_index": 201}, "uniqueid": "MTK3560:3IOEN3P9S8QZ14S976JLJ1D6S2J615", "dateTime": 1520791850621}, {"current_trial": 202, "trialdata": {"rt": -1, "trial_type": "single-stim", "word": "knife", "stimulus": "<p id=\"stim\">KNIFE</p>", "conditions": [12, 1600, "v", 24000], "internal_node_id": "0.0-148.0", "trial": 5, "time_elapsed": 1500362, "serialpos": 5, "key_press": -1, "wordID": 784, "type": "PRES_VIS", "trial_index": 202}, "uniqueid": "MTK3560:3IOEN3P9S8QZ14S976JLJ1D6S2J615", "dateTime": 1520791853083}, {"current_trial": 203, "trialdata": {"rt": -1, "trial_type": "single-stim", "word": "pocket", "stimulus": "<p id=\"stim\">POCKET</p>", "conditions": [12, 1600, "v", 24000], "internal_node_id": "0.0-149.0", "trial": 5, "time_elapsed": 1503184, "serialpos": 6, "key_press": -1, "wordID": 1092, "type": "PRES_VIS", "trial_index": 203}, "uniqueid": "MTK3560:3IOEN3P9S8QZ14S976JLJ1D6S2J615", "dateTime": 1520791855905}, {"current_trial": 204, "trialdata": {"rt": -1, "trial_type": "single-stim", "word": "cobra", "stimulus": "<p id=\"stim\">COBRA</p>", "conditions": [12, 1600, "v", 24000], "internal_node_id": "0.0-150.0", "trial": 5, "time_elapsed": 1505914, "serialpos": 7, "key_press": -1, "wordID": 335, "type": "PRES_VIS", "trial_index": 204}, "uniqueid": "MTK3560:3IOEN3P9S8QZ14S976JLJ1D6S2J615", "dateTime": 1520791858635}, {"current_trial": 205, "trialdata": {"rt": -1, "trial_type": "single-stim", "word": "puppy", "stimulus": "<p id=\"stim\">PUPPY</p>", "conditions": [12, 1600, "v", 24000], "internal_node_id": "0.0-151.0", "trial": 5, "time_elapsed": 1508727, "serialpos": 8, "key_press": -1, "wordID": 1143, "type": "PRES_VIS", "trial_index": 205}, "uniqueid": "MTK3560:3IOEN3P9S8QZ14S976JLJ1D6S2J615", "dateTime": 1520791861449}, {"current_trial": 206, "trialdata": {"rt": -1, "trial_type": "single-stim", "word": "baby", "stimulus": "<p id=\"stim\">BABY</p>", "conditions": [12, 1600, "v", 24000], "internal_node_id": "0.0-152.0", "trial": 5, "time_elapsed": 1511393, "serialpos": 9, "key_press": -1, "wordID": 63, "type": "PRES_VIS", "trial_index": 206}, "uniqueid": "MTK3560:3IOEN3P9S8QZ14S976JLJ1D6S2J615", "dateTime": 1520791864114}, {"current_trial": 207, "trialdata": {"rt": -1, "trial_type": "single-stim", "word": "sword", "stimulus": "<p id=\"stim\">SWORD</p>", "conditions": [12, 1600, "v", 24000], "internal_node_id": "0.0-153.0", "trial": 5, "time_elapsed": 1513927, "serialpos": 10, "key_press": -1, "wordID": 1422, "type": "PRES_VIS", "trial_index": 207}, "uniqueid": "MTK3560:3IOEN3P9S8QZ14S976JLJ1D6S2J615", "dateTime": 1520791866649}, {"current_trial": 208, "trialdata": {"rt": -1, "trial_type": "single-stim", "word": "patient", "stimulus": "<p id=\"stim\">PATIENT</p>", "conditions": [12, 1600, "v", 24000], "internal_node_id": "0.0-154.0", "trial": 5, "time_elapsed": 1516384, "serialpos": 11, "key_press": -1, "wordID": 1023, "type": "PRES_VIS", "trial_index": 208}, "uniqueid": "MTK3560:3IOEN3P9S8QZ14S976JLJ1D6S2J615", "dateTime": 1520791869106}, {"current_trial": 209, "trialdata": {"rt": -1, "trial_type": "single-stim", "stimulus": "", "internal_node_id": "0.0-155.0-0.0", "time_elapsed": 1518895, "key_press": -1, "type": "PRE_RECALL_DELAY", "trial_index": 209}, "uniqueid": "MTK3560:3IOEN3P9S8QZ14S976JLJ1D6S2J615", "dateTime": 1520791871616}, {"current_trial": 210, "trialdata": {"rt": -1000, "trial_type": "single-audio", "stimulus": "/static/audio/400Hz.wav", "internal_node_id": "0.0-156.0", "time_elapsed": 1519425, "key_press": -1, "type": "PRE_RECALL_ALERT", "trial_index": 210}, "uniqueid": "MTK3560:3IOEN3P9S8QZ14S976JLJ1D6S2J615", "dateTime": 1520791872146}, {"current_trial": 211, "trialdata": {"rt": [4657, 7621, 10354, 13490, 16265, 18425, 21497, 39116, 45565], "recwords": ["harp", "cobra", "baby", "puppy", "harp", "pocket", "knife", "knife", "witness"], "key_times": [1375, 1497, 2020, 3055, 3407, 3967, 4657, 5779, 5951, 6283, 6878, 7180, 7621, 8062, 8396, 8757, 9684, 10354, 11060, 11416, 11927, 12087, 12456, 13490, 14165, 14307, 14928, 15255, 16265, 16729, 16931, 17321, 17501, 17724, 18044, 18425, 19453, 19670, 19879, 20158, 20451, 21497, 37688, 37889, 38119, 38460, 38707, 39116, 44113, 44294, 44478, 44742, 44927, 45151, 45285, 45565, 59816, 60017], "trial_type": "free-recall", "conditions": [12, 1600, "v", 24000], "internal_node_id": "0.0-157.0-0.0", "key_presses": [72, 65, 80, 8, 82, 80, 13, 67, 79, 66, 82, 65, 13, 66, 65, 66, 89, 13, 80, 85, 80, 80, 89, 13, 72, 65, 82, 80, 13, 80, 79, 67, 75, 69, 84, 13, 75, 78, 73, 70, 69, 13, 75, 78, 73, 70, 69, 13, 87, 73, 84, 78, 69, 83, 83, 13, 66, 85], "trial": 5, "time_elapsed": 1579456, "type": "FREE_RECALL", "trial_index": 211}, "uniqueid": "MTK3560:3IOEN3P9S8QZ14S976JLJ1D6S2J615", "dateTime": 1520791932186}, {"current_trial": 212, "trialdata": {"rt": 13427, "trial_type": "text", "internal_node_id": "0.0-158.0", "time_elapsed": 1594904, "key_press": 90, "type": "INSTRUCTIONS", "trial_index": 212}, "uniqueid": "MTK3560:3IOEN3P9S8QZ14S976JLJ1D6S2J615", "dateTime": 1520791947626}, {"current_trial": 213, "trialdata": {"rt": [5214, 8492, 10458], "trial_type": "math-distractor", "key_times": [4470, 4827, 5214, 7535, 8246, 8492, 10199, 10458], "responses": ["14", "20", "9"], "num2": [7, 7, 3, 8], "num3": [6, 9, 5, 9], "conditions": [12, 1600, "v", 12000], "internal_node_id": "0.0-159.0", "key_presses": [49, 52, 13, 50, 48, 13, 57, 13], "trial": 6, "time_elapsed": 1608931, "type": "DISTRACTOR", "trial_index": 213, "num1": [1, 4, 1, 7]}, "uniqueid": "MTK3560:3IOEN3P9S8QZ14S976JLJ1D6S2J615", "dateTime": 1520791961653}, {"current_trial": 214, "trialdata": {"rt": -1, "trial_type": "single-stim", "stimulus": "<p id=\"stim\">10</p>", "internal_node_id": "0.0-160.0-0.0", "time_elapsed": 1611958, "key_press": -1, "trial_index": 214}, "uniqueid": "MTK3560:3IOEN3P9S8QZ14S976JLJ1D6S2J615", "dateTime": 1520791964679}, {"current_trial": 215, "trialdata": {"rt": -1, "trial_type": "single-stim", "stimulus": "<p id=\"stim\">9</p>", "internal_node_id": "0.0-160.0-1.0", "time_elapsed": 1612954, "key_press": -1, "trial_index": 215}, "uniqueid": "MTK3560:3IOEN3P9S8QZ14S976JLJ1D6S2J615", "dateTime": 1520791965676}, {"current_trial": 216, "trialdata": {"rt": -1, "trial_type": "single-stim", "stimulus": "<p id=\"stim\">8</p>", "internal_node_id": "0.0-160.0-2.0", "time_elapsed": 1613964, "key_press": -1, "trial_index": 216}, "uniqueid": "MTK3560:3IOEN3P9S8QZ14S976JLJ1D6S2J615", "dateTime": 1520791966686}, {"current_trial": 217, "trialdata": {"rt": -1, "trial_type": "single-stim", "stimulus": "<p id=\"stim\">7</p>", "internal_node_id": "0.0-160.0-3.0", "time_elapsed": 1614955, "key_press": -1, "trial_index": 217}, "uniqueid": "MTK3560:3IOEN3P9S8QZ14S976JLJ1D6S2J615", "dateTime": 1520791967676}, {"current_trial": 218, "trialdata": {"rt": -1, "trial_type": "single-stim", "stimulus": "<p id=\"stim\">6</p>", "internal_node_id": "0.0-160.0-4.0", "time_elapsed": 1615955, "key_press": -1, "trial_index": 218}, "uniqueid": "MTK3560:3IOEN3P9S8QZ14S976JLJ1D6S2J615", "dateTime": 1520791968677}, {"current_trial": 219, "trialdata": {"rt": -1, "trial_type": "single-stim", "stimulus": "<p id=\"stim\">5</p>", "internal_node_id": "0.0-160.0-5.0", "time_elapsed": 1616955, "key_press": -1, "trial_index": 219}, "uniqueid": "MTK3560:3IOEN3P9S8QZ14S976JLJ1D6S2J615", "dateTime": 1520791969677}, {"current_trial": 220, "trialdata": {"rt": -1, "trial_type": "single-stim", "stimulus": "<p id=\"stim\">4</p>", "internal_node_id": "0.0-160.0-6.0", "time_elapsed": 1617967, "key_press": -1, "trial_index": 220}, "uniqueid": "MTK3560:3IOEN3P9S8QZ14S976JLJ1D6S2J615", "dateTime": 1520791970688}, {"current_trial": 221, "trialdata": {"rt": -1, "trial_type": "single-stim", "stimulus": "<p id=\"stim\">3</p>", "internal_node_id": "0.0-160.0-7.0", "time_elapsed": 1618969, "key_press": -1, "trial_index": 221}, "uniqueid": "MTK3560:3IOEN3P9S8QZ14S976JLJ1D6S2J615", "dateTime": 1520791971690}, {"current_trial": 222, "trialdata": {"rt": -1, "trial_type": "single-stim", "stimulus": "<p id=\"stim\">2</p>", "internal_node_id": "0.0-160.0-8.0", "time_elapsed": 1619971, "key_press": -1, "trial_index": 222}, "uniqueid": "MTK3560:3IOEN3P9S8QZ14S976JLJ1D6S2J615", "dateTime": 1520791972693}, {"current_trial": 223, "trialdata": {"rt": -1, "trial_type": "single-stim", "stimulus": "<p id=\"stim\">1</p>", "internal_node_id": "0.0-160.0-9.0", "time_elapsed": 1620963, "key_press": -1, "trial_index": 223}, "uniqueid": "MTK3560:3IOEN3P9S8QZ14S976JLJ1D6S2J615", "dateTime": 1520791973684}, {"current_trial": 224, "trialdata": {"rt": -1, "trial_type": "single-stim", "stimulus": "<p id=\"stim\">+</p>", "internal_node_id": "0.0-161.0-0.0", "time_elapsed": 1622470, "key_press": -1, "type": "FIXATION", "trial_index": 224}, "uniqueid": "MTK3560:3IOEN3P9S8QZ14S976JLJ1D6S2J615", "dateTime": 1520791975192}, {"current_trial": 225, "trialdata": {"rt": -1, "trial_type": "single-stim", "word": "twister", "stimulus": "<p id=\"stim\">TWISTER</p>", "conditions": [12, 1600, "v", 12000], "internal_node_id": "0.0-162.0", "trial": 6, "time_elapsed": 1624089, "serialpos": 0, "key_press": -1, "wordID": 1529, "type": "PRES_VIS", "trial_index": 225}, "uniqueid": "MTK3560:3IOEN3P9S8QZ14S976JLJ1D6S2J615", "dateTime": 1520791976811}, {"current_trial": 226, "trialdata": {"rt": -1, "trial_type": "single-stim", "word": "barley", "stimulus": "<p id=\"stim\">BARLEY</p>", "conditions": [12, 1600, "v", 12000], "internal_node_id": "0.0-163.0", "trial": 6, "time_elapsed": 1626917, "serialpos": 1, "key_press": -1, "wordID": 87, "type": "PRES_VIS", "trial_index": 226}, "uniqueid": "MTK3560:3IOEN3P9S8QZ14S976JLJ1D6S2J615", "dateTime": 1520791979639}, {"current_trial": 227, "trialdata": {"rt": -1, "trial_type": "single-stim", "word": "sheriff", "stimulus": "<p id=\"stim\">SHERIFF</p>", "conditions": [12, 1600, "v", 12000], "internal_node_id": "0.0-164.0", "trial": 6, "time_elapsed": 1629367, "serialpos": 2, "key_press": -1, "wordID": 1283, "type": "PRES_VIS", "trial_index": 227}, "uniqueid": "MTK3560:3IOEN3P9S8QZ14S976JLJ1D6S2J615", "dateTime": 1520791982089}, {"current_trial": 228, "trialdata": {"rt": -1, "trial_type": "single-stim", "word": "cabbage", "stimulus": "<p id=\"stim\">CABBAGE</p>", "conditions": [12, 1600, "v", 12000], "internal_node_id": "0.0-165.0", "trial": 6, "time_elapsed": 1631989, "serialpos": 3, "key_press": -1, "wordID": 209, "type": "PRES_VIS", "trial_index": 228}, "uniqueid": "MTK3560:3IOEN3P9S8QZ14S976JLJ1D6S2J615", "dateTime": 1520791984710}, {"current_trial": 229, "trialdata": {"rt": -1, "trial_type": "single-stim", "word": "blender", "stimulus": "<p id=\"stim\">BLENDER</p>", "conditions": [12, 1600, "v", 12000], "internal_node_id": "0.0-166.0", "trial": 6, "time_elapsed": 1634489, "serialpos": 4, "key_press": -1, "wordID": 135, "type": "PRES_VIS", "trial_index": 229}, "uniqueid": "MTK3560:3IOEN3P9S8QZ14S976JLJ1D6S2J615", "dateTime": 1520791987211}, {"current_trial": 230, "trialdata": {"rt": -1, "trial_type": "single-stim", "word": "message", "stimulus": "<p id=\"stim\">MESSAGE</p>", "conditions": [12, 1600, "v", 12000], "internal_node_id": "0.0-167.0", "trial": 6, "time_elapsed": 1636923, "serialpos": 5, "key_press": -1, "wordID": 887, "type": "PRES_VIS", "trial_index": 230}, "uniqueid": "MTK3560:3IOEN3P9S8QZ14S976JLJ1D6S2J615", "dateTime": 1520791989644}, {"current_trial": 231, "trialdata": {"rt": -1, "trial_type": "single-stim", "word": "drawing", "stimulus": "<p id=\"stim\">DRAWING</p>", "conditions": [12, 1600, "v", 12000], "internal_node_id": "0.0-168.0", "trial": 6, "time_elapsed": 1639697, "serialpos": 6, "key_press": -1, "wordID": 493, "type": "PRES_VIS", "trial_index": 231}, "uniqueid": "MTK3560:3IOEN3P9S8QZ14S976JLJ1D6S2J615", "dateTime": 1520791992418}, {"current_trial": 232, "trialdata": {"rt": -1, "trial_type": "single-stim", "word": "sausage", "stimulus": "<p id=\"stim\">SAUSAGE</p>", "conditions": [12, 1600, "v", 12000], "internal_node_id": "0.0-169.0", "trial": 6, "time_elapsed": 1642406, "serialpos": 7, "key_press": -1, "wordID": 1237, "type": "PRES_VIS", "trial_index": 232}, "uniqueid": "MTK3560:3IOEN3P9S8QZ14S976JLJ1D6S2J615", "dateTime": 1520791995127}, {"current_trial": 233, "trialdata": {"rt": -1, "trial_type": "single-stim", "word": "wasp", "stimulus": "<p id=\"stim\">WASP</p>", "conditions": [12, 1600, "v", 12000], "internal_node_id": "0.0-170.0", "trial": 6, "time_elapsed": 1645106, "serialpos": 8, "key_press": -1, "wordID": 1592, "type": "PRES_VIS", "trial_index": 233}, "uniqueid": "MTK3560:3IOEN3P9S8QZ14S976JLJ1D6S2J615", "dateTime": 1520791997828}, {"current_trial": 234, "trialdata": {"rt": -1, "trial_type": "single-stim", "word": "spider", "stimulus": "<p id=\"stim\">SPIDER</p>", "conditions": [12, 1600, "v", 12000], "internal_node_id": "0.0-171.0", "trial": 6, "time_elapsed": 1647672, "serialpos": 9, "key_press": -1, "wordID": 1350, "type": "PRES_VIS", "trial_index": 234}, "uniqueid": "MTK3560:3IOEN3P9S8QZ14S976JLJ1D6S2J615", "dateTime": 1520792000394}, {"current_trial": 235, "trialdata": {"rt": -1, "trial_type": "single-stim", "word": "county", "stimulus": "<p id=\"stim\">COUNTY</p>", "conditions": [12, 1600, "v", 12000], "internal_node_id": "0.0-172.0", "trial": 6, "time_elapsed": 1650271, "serialpos": 10, "key_press": -1, "wordID": 388, "type": "PRES_VIS", "trial_index": 235}, "uniqueid": "MTK3560:3IOEN3P9S8QZ14S976JLJ1D6S2J615", "dateTime": 1520792002993}, {"current_trial": 236, "trialdata": {"rt": -1, "trial_type": "single-stim", "word": "garden", "stimulus": "<p id=\"stim\">GARDEN</p>", "conditions": [12, 1600, "v", 12000], "internal_node_id": "0.0-173.0", "trial": 6, "time_elapsed": 1652947, "serialpos": 11, "key_press": -1, "wordID": 622, "type": "PRES_VIS", "trial_index": 236}, "uniqueid": "MTK3560:3IOEN3P9S8QZ14S976JLJ1D6S2J615", "dateTime": 1520792005669}, {"current_trial": 237, "trialdata": {"rt": -1, "trial_type": "single-stim", "stimulus": "", "internal_node_id": "0.0-174.0-0.0", "time_elapsed": 1655232, "key_press": -1, "type": "PRE_RECALL_DELAY", "trial_index": 237}, "uniqueid": "MTK3560:3IOEN3P9S8QZ14S976JLJ1D6S2J615", "dateTime": 1520792007954}, {"current_trial": 238, "trialdata": {"rt": -1000, "trial_type": "single-audio", "stimulus": "/static/audio/400Hz.wav", "internal_node_id": "0.0-175.0", "time_elapsed": 1655751, "key_press": -1, "type": "PRE_RECALL_ALERT", "trial_index": 238}, "uniqueid": "MTK3560:3IOEN3P9S8QZ14S976JLJ1D6S2J615", "dateTime": 1520792008473}, {"current_trial": 239, "trialdata": {"rt": [3881, 6270, 7914, 10561, 16961, 21562, 29354], "recwords": ["garden", "sheriff", "wasp", "rabbit", "sheriff", "county", "stir"], "key_times": [1261, 1399, 1801, 2025, 2275, 3557, 3881, 4542, 4814, 5005, 5177, 5445, 5711, 5865, 6270, 6617, 6818, 7025, 7309, 7914, 8303, 8842, 9299, 9446, 9640, 9836, 10561, 15247, 15389, 15521, 15712, 15896, 16129, 16300, 16961, 19789, 19938, 20124, 20341, 20524, 20705, 21562, 27312, 27960, 28110, 28282, 29354], "trial_type": "free-recall", "conditions": [12, 1600, "v", 12000], "internal_node_id": "0.0-176.0-0.0", "key_presses": [71, 65, 82, 68, 69, 78, 13, 83, 72, 69, 82, 73, 70, 70, 13, 87, 65, 83, 80, 13, 82, 65, 66, 66, 73, 84, 13, 83, 72, 69, 82, 73, 70, 70, 13, 67, 79, 85, 78, 84, 89, 13, 83, 84, 73, 82, 13], "trial": 6, "time_elapsed": 1715784, "type": "FREE_RECALL", "trial_index": 239}, "uniqueid": "MTK3560:3IOEN3P9S8QZ14S976JLJ1D6S2J615", "dateTime": 1520792068521}, {"current_trial": 240, "trialdata": {"rt": 56384, "trial_type": "text", "internal_node_id": "0.0-177.0", "time_elapsed": 1774207, "key_press": 90, "type": "INSTRUCTIONS", "trial_index": 240}, "uniqueid": "MTK3560:3IOEN3P9S8QZ14S976JLJ1D6S2J615", "dateTime": 1520792126929}, {"current_trial": 241, "trialdata": {"rt": [2841, 5616, 7450, 9752, 12344, 14654, 17216, 20017, 22351], "trial_type": "math-distractor", "key_times": [1802, 2410, 2841, 4806, 5257, 5616, 6941, 7151, 7450, 8913, 9458, 9752, 11574, 12056, 12344, 13872, 14373, 14654, 16667, 16919, 17216, 19170, 19759, 20017, 22055, 22351], "responses": ["18", "17", "12", "19", "18", "15", "12", "18", "9"], "num2": [2, 9, 4, 6, 4, 5, 4, 6, 1, 9], "num3": [7, 5, 3, 4, 9, 7, 1, 9, 3, 4], "conditions": [24, 1600, "v", 24000], "internal_node_id": "0.0-178.0", "key_presses": [49, 56, 13, 49, 55, 13, 49, 50, 13, 49, 57, 13, 49, 56, 13, 49, 53, 13, 49, 50, 13, 49, 56, 13, 57, 13], "trial": 7, "time_elapsed": 1800230, "type": "DISTRACTOR", "trial_index": 241, "num1": [9, 3, 5, 9, 5, 3, 7, 3, 5, 9]}, "uniqueid": "MTK3560:3IOEN3P9S8QZ14S976JLJ1D6S2J615", "dateTime": 1520792152951}, {"current_trial": 242, "trialdata": {"rt": -1, "trial_type": "single-stim", "stimulus": "<p id=\"stim\">10</p>", "internal_node_id": "0.0-179.0-0.0", "time_elapsed": 1803241, "key_press": -1, "trial_index": 242}, "uniqueid": "MTK3560:3IOEN3P9S8QZ14S976JLJ1D6S2J615", "dateTime": 1520792155963}, {"current_trial": 243, "trialdata": {"rt": -1, "trial_type": "single-stim", "stimulus": "<p id=\"stim\">9</p>", "internal_node_id": "0.0-179.0-1.0", "time_elapsed": 1804234, "key_press": -1, "trial_index": 243}, "uniqueid": "MTK3560:3IOEN3P9S8QZ14S976JLJ1D6S2J615", "dateTime": 1520792156956}, {"current_trial": 244, "trialdata": {"rt": -1, "trial_type": "single-stim", "stimulus": "<p id=\"stim\">8</p>", "internal_node_id": "0.0-179.0-2.0", "time_elapsed": 1805255, "key_press": -1, "trial_index": 244}, "uniqueid": "MTK3560:3IOEN3P9S8QZ14S976JLJ1D6S2J615", "dateTime": 1520792157977}, {"current_tria