{"assignmentId": "3KKG4CDWKJ53BMRQSV5Z19BBTCU942", "workerId": "MTK3046", "questiondata": {"origin": "United States", "strat-rehearsal": "15", "marital": "Married/Domestic Partnership", "education": "Bachelor's degree", "ethnicity": "Not Hispanic", "color_depth": 24, "distracted": "Yes", "wrote-notes": "Yes", "strat-other": "speaking the words out loud", "screen_width": 1366, "avail_screen_width": 1366, "avail_screen_height": 720, "strat-image": "29", "language": "English", "gender": "Female", "age": "27", "gender_other": "", "race": ["White"], "strat-categorize": "33", "pixel_depth": 24, "strat-spatial": "0", "strat-story": "16", "race_other": "", "screen_height": 768}, "bonus": 0, "hitId": "3J06WJ78HNRYFMPEPQ6GDX41CB7VVR", "counterbalance": 1991, "useragent": "Mozilla/5.0 (X11; CrOS x86_64 10176.68.0) AppleWebKit/537.36 (KHTML, like Gecko) Chrome/64.0.3282.144 Safari/537.36", "eventdata": [{"eventtype": "initialized", "interval": 0, "value": null, "timestamp": 1519678496008}, {"eventtype": "window_resize", "interval": 0, "value": [1366, 656], "timestamp": 1519678496008}, {"eventtype": "focus", "interval": 104051, "value": "off", "timestamp": 1519678600059}, {"eventtype": "focus", "interval": 8, "value": "on", "timestamp": 1519678600067}, {"eventtype": "focus", "interval": 2983, "value": "off", "timestamp": 1519678603050}, {"eventtype": "focus", "interval": 1, "value": "on", "timestamp": 1519678603051}, {"eventtype": "focus", "interval": 3623, "value": "off", "timestamp": 1519678606674}, {"eventtype": "focus", "interval": 0, "value": "on", "timestamp": 1519678606674}, {"eventtype": "focus", "interval": 12921, "value": "off", "timestamp": 1519678619595}, {"eventtype": "focus", "interval": 1, "value": "on", "timestamp": 1519678619596}, {"eventtype": "focus", "interval": 12709, "value": "off", "timestamp": 1519678632305}, {"eventtype": "focus", "interval": 2, "value": "on", "timestamp": 1519678632307}, {"eventtype": "focus", "interval": 5398, "value": "off", "timestamp": 1519678637705}, {"eventtype": "focus", "interval": 2, "value": "on", "timestamp": 1519678637707}, {"eventtype": "focus", "interval": 2935, "value": "off", "timestamp": 1519678640642}, {"eventtype": "focus", "interval": 6, "value": "on", "timestamp": 1519678640648}, {"eventtype": "focus", "interval": 882, "value": "off", "timestamp": 1519678641530}, {"eventtype": "focus", "interval": 117157, "value": "on", "timestamp": 1519678758687}, {"eventtype": "focus", "interval": 10963, "value": "off", "timestamp": 1519678769650}, {"eventtype": "focus", "interval": 2, "value": "on", "timestamp": 1519678769652}, {"eventtype": "focus", "interval": 4534, "value": "off", "timestamp": 1519678774186}, {"eventtype": "focus", "interval": 2, "value": "on", "timestamp": 1519678774188}, {"eventtype": "focus", "interval": 829, "value": "off", "timestamp": 1519678775017}, {"eventtype": "focus", "interval": 4120, "value": "on", "timestamp": 1519678779137}, {"eventtype": "focus", "interval": 1552, "value": "off", "timestamp": 1519678780689}, {"eventtype": "focus", "interval": 6968, "value": "on", "timestamp": 1519678787657}, {"eventtype": "focus", "interval": 1402384, "value": "off", "timestamp": 1519680190041}, {"eventtype": "focus", "interval": 6141, "value": "on", "timestamp": 1519680196182}], "data": [{"current_trial": 0, "trialdata": {"rt": 2032, "trial_type": "text", "internal_node_id": "0.0-0.0", "time_elapsed": 2035, "key_press": 32, "type": "INSTRUCTIONS", "trial_index": 0}, "uniqueid": "MTK3046:3KKG4CDWKJ53BMRQSV5Z19BBTCU942", "dateTime": 1519678498865}, {"current_trial": 1, "trialdata": {"rt": 25822, "trial_type": "text", "internal_node_id": "0.0-1.0", "time_elapsed": 27862, "key_press": 32, "type": "INSTRUCTIONS", "trial_index": 1}, "uniqueid": "MTK3046:3KKG4CDWKJ53BMRQSV5Z19BBTCU942", "dateTime": 1519678524691}, {"current_trial": 2, "trialdata": {"rt": [72371, 76845, 80075, 89555, 105723, 111107, 114363, 243211, 246731, 265411], "trial_type": "audio-test", "responses": ["oh", "o", "open", "up", "uh", "o", "oh", "hope", "ope", "ocean"], "internal_node_id": "0.0-2.0", "time_elapsed": 293343, "type": "AUDIO_TEST", "trial_index": 2}, "uniqueid": "MTK3046:3KKG4CDWKJ53BMRQSV5Z19BBTCU942", "dateTime": 1519678790171}, {"current_trial": 3, "trialdata": {"rt": [7342], "trial_type": "audio-test", "responses": ["crystal"], "internal_node_id": "0.0-3.0", "time_elapsed": 300695, "type": "AUDIO_TEST", "trial_index": 3}, "uniqueid": "MTK3046:3KKG4CDWKJ53BMRQSV5Z19BBTCU942", "dateTime": 1519678797523}, {"current_trial": 4, "trialdata": {"rt": [9000], "trial_type": "audio-test", "responses": ["spice"], "internal_node_id": "0.0-4.0", "time_elapsed": 309705, "type": "AUDIO_TEST", "trial_index": 4}, "uniqueid": "MTK3046:3KKG4CDWKJ53BMRQSV5Z19BBTCU942", "dateTime": 1519678806533}, {"current_trial": 5, "trialdata": {"rt": 26819, "trial_type": "survey-text", "responses": "{\"Q0\":\"12:00\",\"Q1\":\"7:00\",\"Q2\":\"3\"}", "internal_node_id": "0.0-5.0", "time_elapsed": 337279, "type": "SLEEP_SURVEY", "trial_index": 5}, "uniqueid": "MTK3046:3KKG4CDWKJ53BMRQSV5Z19BBTCU942", "dateTime": 1519678834107}, {"current_trial": 6, "trialdata": {"rt": 56438, "trial_type": "text", "internal_node_id": "0.0-6.0", "time_elapsed": 394719, "key_press": 13, "type": "INSTRUCTIONS", "trial_index": 6}, "uniqueid": "MTK3046:3KKG4CDWKJ53BMRQSV5Z19BBTCU942", "dateTime": 1519678891548}, {"current_trial": 7, "trialdata": {"rt": 22982, "trial_type": "text", "internal_node_id": "0.0-7.0", "time_elapsed": 418208, "key_press": 13, "type": "INSTRUCTIONS", "trial_index": 7}, "uniqueid": "MTK3046:3KKG4CDWKJ53BMRQSV5Z19BBTCU942", "dateTime": 1519678915036}, {"current_trial": 8, "trialdata": {"rt": 17376, "trial_type": "text", "internal_node_id": "0.0-8.0", "time_elapsed": 436087, "key_press": 13, "type": "INSTRUCTIONS", "trial_index": 8}, "uniqueid": "MTK3046:3KKG4CDWKJ53BMRQSV5Z19BBTCU942", "dateTime": 1519678932916}, {"current_trial": 9, "trialdata": {"rt": [3473, 10602, 12753, 14657, 16569], "trial_type": "math-distractor", "key_times": [2950, 3178, 3473, 10284, 10378, 10602, 12539, 12753, 14228, 14458, 14657, 16250, 16417, 16569, 17882], "responses": ["17", "21", "6", "17", "20"], "num2": [5, 9, 1, 5, 8, 6], "num3": [8, 4, 2, 9, 3, 1], "conditions": [18, 1200, "v", 18000], "internal_node_id": "0.0-9.0", "key_presses": [97, 103, 13, 98, 97, 13, 102, 13, 97, 103, 13, 98, 96, 13, 97], "trial": 0, "time_elapsed": 455125, "type": "DISTRACTOR", "trial_index": 9, "num1": [4, 8, 3, 3, 9, 4]}, "uniqueid": "MTK3046:3KKG4CDWKJ53BMRQSV5Z19BBTCU942", "dateTime": 1519678951954}, {"current_trial": 10, "trialdata": {"rt": -1, "trial_type": "single-stim", "stimulus": "<p id=\"stim\">10</p>", "internal_node_id": "0.0-10.0-0.0", "time_elapsed": 458132, "key_press": -1, "trial_index": 10}, "uniqueid": "MTK3046:3KKG4CDWKJ53BMRQSV5Z19BBTCU942", "dateTime": 1519678954960}, {"current_trial": 11, "trialdata": {"rt": -1, "trial_type": "single-stim", "stimulus": "<p id=\"stim\">9</p>", "internal_node_id": "0.0-10.0-1.0", "time_elapsed": 459135, "key_press": -1, "trial_index": 11}, "uniqueid": "MTK3046:3KKG4CDWKJ53BMRQSV5Z19BBTCU942", "dateTime": 1519678955964}, {"current_trial": 12, "trialdata": {"rt": -1, "trial_type": "single-stim", "stimulus": "<p id=\"stim\">8</p>", "internal_node_id": "0.0-10.0-2.0", "time_elapsed": 460140, "key_press": -1, "trial_index": 12}, "uniqueid": "MTK3046:3KKG4CDWKJ53BMRQSV5Z19BBTCU942", "dateTime": 1519678956968}, {"current_trial": 13, "trialdata": {"rt": -1, "trial_type": "single-stim", "stimulus": "<p id=\"stim\">7</p>", "internal_node_id": "0.0-10.0-3.0", "time_elapsed": 461142, "key_press": -1, "trial_index": 13}, "uniqueid": "MTK3046:3KKG4CDWKJ53BMRQSV5Z19BBTCU942", "dateTime": 1519678957970}, {"current_trial": 14, "trialdata": {"rt": -1, "trial_type": "single-stim", "stimulus": "<p id=\"stim\">6</p>", "internal_node_id": "0.0-10.0-4.0", "time_elapsed": 462149, "key_press": -1, "trial_index": 14}, "uniqueid": "MTK3046:3KKG4CDWKJ53BMRQSV5Z19BBTCU942", "dateTime": 1519678958977}, {"current_trial": 15, "trialdata": {"rt": -1, "trial_type": "single-stim", "stimulus": "<p id=\"stim\">5</p>", "internal_node_id": "0.0-10.0-5.0", "time_elapsed": 463152, "key_press": -1, "trial_index": 15}, "uniqueid": "MTK3046:3KKG4CDWKJ53BMRQSV5Z19BBTCU942", "dateTime": 1519678959981}, {"current_trial": 16, "trialdata": {"rt": -1, "trial_type": "single-stim", "stimulus": "<p id=\"stim\">4</p>", "internal_node_id": "0.0-10.0-6.0", "time_elapsed": 464160, "key_press": -1, "trial_index": 16}, "uniqueid": "MTK3046:3KKG4CDWKJ53BMRQSV5Z19BBTCU942", "dateTime": 1519678960988}, {"current_trial": 17, "trialdata": {"rt": -1, "trial_type": "single-stim", "stimulus": "<p id=\"stim\">3</p>", "internal_node_id": "0.0-10.0-7.0", "time_elapsed": 465164, "key_press": -1, "trial_index": 17}, "uniqueid": "MTK3046:3KKG4CDWKJ53BMRQSV5Z19BBTCU942", "dateTime": 1519678961993}, {"current_trial": 18, "trialdata": {"rt": -1, "trial_type": "single-stim", "stimulus": "<p id=\"stim\">2</p>", "internal_node_id": "0.0-10.0-8.0", "time_elapsed": 466168, "key_press": -1, "trial_index": 18}, "uniqueid": "MTK3046:3KKG4CDWKJ53BMRQSV5Z19BBTCU942", "dateTime": 1519678962996}, {"current_trial": 19, "trialdata": {"rt": -1, "trial_type": "single-stim", "stimulus": "<p id=\"stim\">1</p>", "internal_node_id": "0.0-10.0-9.0", "time_elapsed": 467174, "key_press": -1, "trial_index": 19}, "uniqueid": "MTK3046:3KKG4CDWKJ53BMRQSV5Z19BBTCU942", "dateTime": 1519678964002}, {"current_trial": 20, "trialdata": {"rt": -1, "trial_type": "single-stim", "stimulus": "<p id=\"stim\">+</p>", "internal_node_id": "0.0-11.0-0.0", "time_elapsed": 468679, "key_press": -1, "type": "FIXATION", "trial_index": 20}, "uniqueid": "MTK3046:3KKG4CDWKJ53BMRQSV5Z19BBTCU942", "dateTime": 1519678965508}, {"current_trial": 21, "trialdata": {"rt": -1, "trial_type": "single-stim", "word": "tile", "stimulus": "<p id=\"stim\">TILE</p>", "conditions": [18, 1200, "v", 18000], "internal_node_id": "0.0-12.0", "trial": 0, "time_elapsed": 469885, "serialpos": 0, "key_press": -1, "wordID": 1467, "type": "PRES_VIS", "trial_index": 21}, "uniqueid": "MTK3046:3KKG4CDWKJ53BMRQSV5Z19BBTCU942", "dateTime": 1519678966713}, {"current_trial": 22, "trialdata": {"rt": -1, "trial_type": "single-stim", "word": "spool", "stimulus": "<p id=\"stim\">SPOOL</p>", "conditions": [18, 1200, "v", 18000], "internal_node_id": "0.0-13.0", "trial": 0, "time_elapsed": 471993, "serialpos": 1, "key_press": -1, "wordID": 1355, "type": "PRES_VIS", "trial_index": 22}, "uniqueid": "MTK3046:3KKG4CDWKJ53BMRQSV5Z19BBTCU942", "dateTime": 1519678968821}, {"current_trial": 23, "trialdata": {"rt": -1, "trial_type": "single-stim", "word": "pudding", "stimulus": "<p id=\"stim\">PUDDING</p>", "conditions": [18, 1200, "v", 18000], "internal_node_id": "0.0-14.0", "trial": 0, "time_elapsed": 474026, "serialpos": 2, "key_press": -1, "wordID": 1138, "type": "PRES_VIS", "trial_index": 23}, "uniqueid": "MTK3046:3KKG4CDWKJ53BMRQSV5Z19BBTCU942", "dateTime": 1519678970855}, {"current_trial": 24, "trialdata": {"rt": -1, "trial_type": "single-stim", "word": "banker", "stimulus": "<p id=\"stim\">BANKER</p>", "conditions": [18, 1200, "v", 18000], "internal_node_id": "0.0-15.0", "trial": 0, "time_elapsed": 476077, "serialpos": 3, "key_press": -1, "wordID": 83, "type": "PRES_VIS", "trial_index": 24}, "uniqueid": "MTK3046:3KKG4CDWKJ53BMRQSV5Z19BBTCU942", "dateTime": 1519678972905}, {"current_trial": 25, "trialdata": {"rt": -1, "trial_type": "single-stim", "word": "shovel", "stimulus": "<p id=\"stim\">SHOVEL</p>", "conditions": [18, 1200, "v", 18000], "internal_node_id": "0.0-16.0", "trial": 0, "time_elapsed": 478263, "serialpos": 4, "key_press": -1, "wordID": 1294, "type": "PRES_VIS", "trial_index": 25}, "uniqueid": "MTK3046:3KKG4CDWKJ53BMRQSV5Z19BBTCU942", "dateTime": 1519678975091}, {"current_trial": 26, "trialdata": {"rt": -1, "trial_type": "single-stim", "word": "fragrance", "stimulus": "<p id=\"stim\">FRAGRANCE</p>", "conditions": [18, 1200, "v", 18000], "internal_node_id": "0.0-17.0", "trial": 0, "time_elapsed": 480376, "serialpos": 5, "key_press": -1, "wordID": 598, "type": "PRES_VIS", "trial_index": 26}, "uniqueid": "MTK3046:3KKG4CDWKJ53BMRQSV5Z19BBTCU942", "dateTime": 1519678977204}, {"current_trial": 27, "trialdata": {"rt": -1, "trial_type": "single-stim", "word": "county", "stimulus": "<p id=\"stim\">COUNTY</p>", "conditions": [18, 1200, "v", 18000], "internal_node_id": "0.0-18.0", "trial": 0, "time_elapsed": 482714, "serialpos": 6, "key_press": -1, "wordID": 388, "type": "PRES_VIS", "trial_index": 27}, "uniqueid": "MTK3046:3KKG4CDWKJ53BMRQSV5Z19BBTCU942", "dateTime": 1519678979542}, {"current_trial": 28, "trialdata": {"rt": -1, "trial_type": "single-stim", "word": "scallop", "stimulus": "<p id=\"stim\">SCALLOP</p>", "conditions": [18, 1200, "v", 18000], "internal_node_id": "0.0-19.0", "trial": 0, "time_elapsed": 485003, "serialpos": 7, "key_press": -1, "wordID": 1241, "type": "PRES_VIS", "trial_index": 28}, "uniqueid": "MTK3046:3KKG4CDWKJ53BMRQSV5Z19BBTCU942", "dateTime": 1519678981831}, {"current_trial": 29, "trialdata": {"rt": -1, "trial_type": "single-stim", "word": "stream", "stimulus": "<p id=\"stim\">STREAM</p>", "conditions": [18, 1200, "v", 18000], "internal_node_id": "0.0-20.0", "trial": 0, "time_elapsed": 487104, "serialpos": 8, "key_press": -1, "wordID": 1391, "type": "PRES_VIS", "trial_index": 29}, "uniqueid": "MTK3046:3KKG4CDWKJ53BMRQSV5Z19BBTCU942", "dateTime": 1519678983932}, {"current_trial": 30, "trialdata": {"rt": -1, "trial_type": "single-stim", "word": "tuba", "stimulus": "<p id=\"stim\">TUBA</p>", "conditions": [18, 1200, "v", 18000], "internal_node_id": "0.0-21.0", "trial": 0, "time_elapsed": 489146, "serialpos": 9, "key_press": -1, "wordID": 1514, "type": "PRES_VIS", "trial_index": 30}, "uniqueid": "MTK3046:3KKG4CDWKJ53BMRQSV5Z19BBTCU942", "dateTime": 1519678985975}, {"current_trial": 31, "trialdata": {"rt": -1, "trial_type": "single-stim", "word": "helmet", "stimulus": "<p id=\"stim\">HELMET</p>", "conditions": [18, 1200, "v", 18000], "internal_node_id": "0.0-22.0", "trial": 0, "time_elapsed": 491432, "serialpos": 10, "key_press": -1, "wordID": 701, "type": "PRES_VIS", "trial_index": 31}, "uniqueid": "MTK3046:3KKG4CDWKJ53BMRQSV5Z19BBTCU942", "dateTime": 1519678988260}, {"current_trial": 32, "trialdata": {"rt": -1, "trial_type": "single-stim", "word": "primate", "stimulus": "<p id=\"stim\">PRIMATE</p>", "conditions": [18, 1200, "v", 18000], "internal_node_id": "0.0-23.0", "trial": 0, "time_elapsed": 493449, "serialpos": 11, "key_press": -1, "wordID": 1122, "type": "PRES_VIS", "trial_index": 32}, "uniqueid": "MTK3046:3KKG4CDWKJ53BMRQSV5Z19BBTCU942", "dateTime": 1519678990279}, {"current_trial": 33, "trialdata": {"rt": -1, "trial_type": "single-stim", "word": "tablet", "stimulus": "<p id=\"stim\">TABLET</p>", "conditions": [18, 1200, "v", 18000], "internal_node_id": "0.0-24.0", "trial": 0, "time_elapsed": 495732, "serialpos": 12, "key_press": -1, "wordID": 1426, "type": "PRES_VIS", "trial_index": 33}, "uniqueid": "MTK3046:3KKG4CDWKJ53BMRQSV5Z19BBTCU942", "dateTime": 1519678992561}, {"current_trial": 34, "trialdata": {"rt": -1, "trial_type": "single-stim", "word": "drug", "stimulus": "<p id=\"stim\">DRUG</p>", "conditions": [18, 1200, "v", 18000], "internal_node_id": "0.0-25.0", "trial": 0, "time_elapsed": 497902, "serialpos": 13, "key_press": -1, "wordID": 500, "type": "PRES_VIS", "trial_index": 34}, "uniqueid": "MTK3046:3KKG4CDWKJ53BMRQSV5Z19BBTCU942", "dateTime": 1519678994730}, {"current_trial": 35, "trialdata": {"rt": -1, "trial_type": "single-stim", "word": "crevice", "stimulus": "<p id=\"stim\">CREVICE</p>", "conditions": [18, 1200, "v", 18000], "internal_node_id": "0.0-26.0", "trial": 0, "time_elapsed": 500081, "serialpos": 14, "key_press": -1, "wordID": 404, "type": "PRES_VIS", "trial_index": 35}, "uniqueid": "MTK3046:3KKG4CDWKJ53BMRQSV5Z19BBTCU942", "dateTime": 1519678996910}, {"current_trial": 36, "trialdata": {"rt": -1, "trial_type": "single-stim", "word": "hatchet", "stimulus": "<p id=\"stim\">HATCHET</p>", "conditions": [18, 1200, "v", 18000], "internal_node_id": "0.0-27.0", "trial": 0, "time_elapsed": 502347, "serialpos": 15, "key_press": -1, "wordID": 690, "type": "PRES_VIS", "trial_index": 36}, "uniqueid": "MTK3046:3KKG4CDWKJ53BMRQSV5Z19BBTCU942", "dateTime": 1519678999176}, {"current_trial": 37, "trialdata": {"rt": -1, "trial_type": "single-stim", "word": "inmate", "stimulus": "<p id=\"stim\">INMATE</p>", "conditions": [18, 1200, "v", 18000], "internal_node_id": "0.0-28.0", "trial": 0, "time_elapsed": 504496, "serialpos": 16, "key_press": -1, "wordID": 737, "type": "PRES_VIS", "trial_index": 37}, "uniqueid": "MTK3046:3KKG4CDWKJ53BMRQSV5Z19BBTCU942", "dateTime": 1519679001325}, {"current_trial": 38, "trialdata": {"rt": -1, "trial_type": "single-stim", "word": "trench", "stimulus": "<p id=\"stim\">TRENCH</p>", "conditions": [18, 1200, "v", 18000], "internal_node_id": "0.0-29.0", "trial": 0, "time_elapsed": 506671, "serialpos": 17, "key_press": -1, "wordID": 1502, "type": "PRES_VIS", "trial_index": 38}, "uniqueid": "MTK3046:3KKG4CDWKJ53BMRQSV5Z19BBTCU942", "dateTime": 1519679003499}, {"current_trial": 39, "trialdata": {"rt": -1, "trial_type": "single-stim", "stimulus": "", "internal_node_id": "0.0-30.0-0.0", "time_elapsed": 509024, "key_press": -1, "type": "PRE_RECALL_DELAY", "trial_index": 39}, "uniqueid": "MTK3046:3KKG4CDWKJ53BMRQSV5Z19BBTCU942", "dateTime": 1519679005852}, {"current_trial": 40, "trialdata": {"rt": -1000, "trial_type": "single-audio", "stimulus": "/static/audio/400Hz.wav", "internal_node_id": "0.0-31.0", "time_elapsed": 509530, "key_press": -1, "type": "PRE_RECALL_ALERT", "trial_index": 40}, "uniqueid": "MTK3046:3KKG4CDWKJ53BMRQSV5Z19BBTCU942", "dateTime": 1519679006358}, {"current_trial": 41, "trialdata": {"rt": [3084, 5117, 6941, 8894, 10318, 12917, 53317], "recwords": ["trench", "spool", "fragrance", "inmate", "hatchet", "tile", "crevice"], "key_times": [1798, 1903, 2117, 2269, 2542, 2845, 2917, 3084, 3933, 4062, 4302, 4518, 4765, 5117, 5374, 5606, 5733, 5933, 6213, 6341, 6477, 6622, 6837, 6941, 7413, 7461, 7677, 7797, 8053, 8213, 8469, 8557, 8613, 8756, 8894, 9429, 9558, 9629, 9861, 9949, 10085, 10213, 10318, 12391, 12525, 12661, 12750, 12917, 52119, 52414, 52494, 52798, 52862, 53037, 53197, 53317], "trial_type": "free-recall", "conditions": [18, 1200, "v", 18000], "internal_node_id": "0.0-32.0-0.0", "key_presses": [16, 84, 82, 69, 78, 67, 72, 13, 83, 80, 79, 79, 76, 13, 70, 82, 65, 71, 82, 65, 78, 67, 69, 13, 73, 78, 65, 77, 8, 8, 77, 65, 84, 69, 13, 72, 65, 84, 67, 72, 69, 84, 13, 84, 73, 76, 69, 13, 67, 82, 69, 86, 73, 67, 69, 13], "trial": 0, "time_elapsed": 569538, "type": "FREE_RECALL", "trial_index": 41}, "uniqueid": "MTK3046:3KKG4CDWKJ53BMRQSV5Z19BBTCU942", "dateTime": 1519679066375}, {"current_trial": 42, "trialdata": {"rt": 2165, "trial_type": "text", "internal_node_id": "0.0-33.0", "time_elapsed": 573715, "key_press": 32, "type": "INSTRUCTIONS", "trial_index": 42}, "uniqueid": "MTK3046:3KKG4CDWKJ53BMRQSV5Z19BBTCU942", "dateTime": 1519679070543}, {"current_trial": 43, "trialdata": {"rt": [5342, 7294, 11919, 13517, 15565, 17742], "trial_type": "math-distractor", "key_times": [4607, 4749, 5342, 7029, 7294, 11143, 11438, 11919, 13262, 13349, 13517, 15188, 15397, 15565, 17309, 17510, 17742], "responses": ["25", "7", "23", "15", "14", "17"], "num2": [7, 3, 5, 7, 6, 7, 3], "num3": [9, 2, 9, 5, 6, 9, 8], "conditions": [18, 1200, "v", 18000], "internal_node_id": "0.0-34.0", "key_presses": [98, 101, 13, 103, 13, 98, 99, 13, 97, 101, 13, 97, 100, 13, 97, 103, 13], "trial": 1, "time_elapsed": 593723, "type": "DISTRACTOR", "trial_index": 43, "num1": [9, 2, 9, 3, 2, 1, 4]}, "uniqueid": "MTK3046:3KKG4CDWKJ53BMRQSV5Z19BBTCU942", "dateTime": 1519679090551}, {"current_trial": 44, "trialdata": {"rt": -1, "trial_type": "single-stim", "stimulus": "<p id=\"stim\">10</p>", "internal_node_id": "0.0-35.0-0.0", "time_elapsed": 596728, "key_press": -1, "trial_index": 44}, "uniqueid": "MTK3046:3KKG4CDWKJ53BMRQSV5Z19BBTCU942", "dateTime": 1519679093556}, {"current_trial": 45, "trialdata": {"rt": -1, "trial_type": "single-stim", "stimulus": "<p id=\"stim\">9</p>", "internal_node_id": "0.0-35.0-1.0", "time_elapsed": 597735, "key_press": -1, "trial_index": 45}, "uniqueid": "MTK3046:3KKG4CDWKJ53BMRQSV5Z19BBTCU942", "dateTime": 1519679094564}, {"current_trial": 46, "trialdata": {"rt": -1, "trial_type": "single-stim", "stimulus": "<p id=\"stim\">8</p>", "internal_node_id": "0.0-35.0-2.0", "time_elapsed": 598739, "key_press": -1, "trial_index": 46}, "uniqueid": "MTK3046:3KKG4CDWKJ53BMRQSV5Z19BBTCU942", "dateTime": 1519679095567}, {"current_trial": 47, "trialdata": {"rt": -1, "trial_type": "single-stim", "stimulus": "<p id=\"stim\">7</p>", "internal_node_id": "0.0-35.0-3.0", "time_elapsed": 599752, "key_press": -1, "trial_index": 47}, "uniqueid": "MTK3046:3KKG4CDWKJ53BMRQSV5Z19BBTCU942", "dateTime": 1519679096580}, {"current_trial": 48, "trialdata": {"rt": -1, "trial_type": "single-stim", "stimulus": "<p id=\"stim\">6</p>", "internal_node_id": "0.0-35.0-4.0", "time_elapsed": 600755, "key_press": -1, "trial_index": 48}, "uniqueid": "MTK3046:3KKG4CDWKJ53BMRQSV5Z19BBTCU942", "dateTime": 1519679097583}, {"current_trial": 49, "trialdata": {"rt": -1, "trial_type": "single-stim", "stimulus": "<p id=\"stim\">5</p>", "internal_node_id": "0.0-35.0-5.0", "time_elapsed": 601759, "key_press": -1, "trial_index": 49}, "uniqueid": "MTK3046:3KKG4CDWKJ53BMRQSV5Z19BBTCU942", "dateTime": 1519679098587}, {"current_trial": 50, "trialdata": {"rt": -1, "trial_type": "single-stim", "stimulus": "<p id=\"stim\">4</p>", "internal_node_id": "0.0-35.0-6.0", "time_elapsed": 602760, "key_press": -1, "trial_index": 50}, "uniqueid": "MTK3046:3KKG4CDWKJ53BMRQSV5Z19BBTCU942", "dateTime": 1519679099589}, {"current_trial": 51, "trialdata": {"rt": -1, "trial_type": "single-stim", "stimulus": "<p id=\"stim\">3</p>", "internal_node_id": "0.0-35.0-7.0", "time_elapsed": 603763, "key_press": -1, "trial_index": 51}, "uniqueid": "MTK3046:3KKG4CDWKJ53BMRQSV5Z19BBTCU942", "dateTime": 1519679100591}, {"current_trial": 52, "trialdata": {"rt": -1, "trial_type": "single-stim", "stimulus": "<p id=\"stim\">2</p>", "internal_node_id": "0.0-35.0-8.0", "time_elapsed": 604766, "key_press": -1, "trial_index": 52}, "uniqueid": "MTK3046:3KKG4CDWKJ53BMRQSV5Z19BBTCU942", "dateTime": 1519679101594}, {"current_trial": 53, "trialdata": {"rt": -1, "trial_type": "single-stim", "stimulus": "<p id=\"stim\">1</p>", "internal_node_id": "0.0-35.0-9.0", "time_elapsed": 605769, "key_press": -1, "trial_index": 53}, "uniqueid": "MTK3046:3KKG4CDWKJ53BMRQSV5Z19BBTCU942", "dateTime": 1519679102598}, {"current_trial": 54, "trialdata": {"rt": -1, "trial_type": "single-stim", "stimulus": "<p id=\"stim\">+</p>", "internal_node_id": "0.0-36.0-0.0", "time_elapsed": 607271, "key_press": -1, "type": "FIXATION", "trial_index": 54}, "uniqueid": "MTK3046:3KKG4CDWKJ53BMRQSV5Z19BBTCU942", "dateTime": 1519679104100}, {"current_trial": 55, "trialdata": {"rt": -1, "trial_type": "single-stim", "word": "paddle", "stimulus": "<p id=\"stim\">PADDLE</p>", "conditions": [18, 1200, "v", 18000], "internal_node_id": "0.0-37.0", "trial": 1, "time_elapsed": 608475, "serialpos": 0, "key_press": -1, "wordID": 999, "type": "PRES_VIS", "trial_index": 55}, "uniqueid": "MTK3046:3KKG4CDWKJ53BMRQSV5Z19BBTCU942", "dateTime": 1519679105303}, {"current_trial": 56, "trialdata": {"rt": -1, "trial_type": "single-stim", "word": "badge", "stimulus": "<p id=\"stim\">BADGE</p>", "conditions": [18, 1200, "v", 18000], "internal_node_id": "0.0-38.0", "trial": 1, "time_elapsed": 610618, "serialpos": 1, "key_press": -1, "wordID": 67, "type": "PRES_VIS", "trial_index": 56}, "uniqueid": "MTK3046:3KKG4CDWKJ53BMRQSV5Z19BBTCU942", "dateTime": 1519679107446}, {"current_trial": 57, "trialdata": {"rt": -1, "trial_type": "single-stim", "word": "compass", "stimulus": "<p id=\"stim\">COMPASS</p>", "conditions": [18, 1200, "v", 18000], "internal_node_id": "0.0-39.0", "trial": 1, "time_elapsed": 612870, "serialpos": 2, "key_press": -1, "wordID": 357, "type": "PRES_VIS", "trial_index": 57}, "uniqueid": "MTK3046:3KKG4CDWKJ53BMRQSV5Z19BBTCU942", "dateTime": 1519679109699}, {"current_trial": 58, "trialdata": {"rt": -1, "trial_type": "single-stim", "word": "friend", "stimulus": "<p id=\"stim\">FRIEND</p>", "conditions": [18, 1200, "v", 18000], "internal_node_id": "0.0-40.0", "trial": 1, "time_elapsed": 615093, "serialpos": 3, "key_press": -1, "wordID": 605, "type": "PRES_VIS", "trial_index": 58}, "uniqueid": "MTK3046:3KKG4CDWKJ53BMRQSV5Z19BBTCU942", "dateTime": 1519679111921}, {"current_trial": 59, "trialdata": {"rt": -1, "trial_type": "single-stim", "word": "rattle", "stimulus": "<p id=\"stim\">RATTLE</p>", "conditions": [18, 1200, "v", 18000], "internal_node_id": "0.0-41.0", "trial": 1, "time_elapsed": 617397, "serialpos": 4, "key_press": -1, "wordID": 1169, "type": "PRES_VIS", "trial_index": 59}, "uniqueid": "MTK3046:3KKG4CDWKJ53BMRQSV5Z19BBTCU942", "dateTime": 1519679114226}, {"current_trial": 60, "trialdata": {"rt": -1, "trial_type": "single-stim", "word": "pimple", "stimulus": "<p id=\"stim\">PIMPLE</p>", "conditions": [18, 1200, "v", 18000], "internal_node_id": "0.0-42.0", "trial": 1, "time_elapsed": 619526, "serialpos": 5, "key_press": -1, "wordID": 1070, "type": "PRES_VIS", "trial_index": 60}, "uniqueid": "MTK3046:3KKG4CDWKJ53BMRQSV5Z19BBTCU942", "dateTime": 1519679116354}, {"current_trial": 61, "trialdata": {"rt": -1, "trial_type": "single-stim", "word": "canyon", "stimulus": "<p id=\"stim\">CANYON</p>", "conditions": [18, 1200, "v", 18000], "internal_node_id": "0.0-43.0", "trial": 1, "time_elapsed": 621693, "serialpos": 6, "key_press": -1, "wordID": 234, "type": "PRES_VIS", "trial_index": 61}, "uniqueid": "MTK3046:3KKG4CDWKJ53BMRQSV5Z19BBTCU942", "dateTime": 1519679118522}, {"current_trial": 62, "trialdata": {"rt": -1, "trial_type": "single-stim", "word": "table", "stimulus": "<p id=\"stim\">TABLE</p>", "conditions": [18, 1200, "v", 18000], "internal_node_id": "0.0-44.0", "trial": 1, "time_elapsed": 624022, "serialpos": 7, "key_press": -1, "wordID": 1425, "type": "PRES_VIS", "trial_index": 62}, "uniqueid": "MTK3046:3KKG4CDWKJ53BMRQSV5Z19BBTCU942", "dateTime": 1519679120850}, {"current_trial": 63, "trialdata": {"rt": -1, "trial_type": "single-stim", "word": "mailman", "stimulus": "<p id=\"stim\">MAILMAN</p>", "conditions": [18, 1200, "v", 18000], "internal_node_id": "0.0-45.0", "trial": 1, "time_elapsed": 626311, "serialpos": 8, "key_press": -1, "wordID": 857, "type": "PRES_VIS", "trial_index": 63}, "uniqueid": "MTK3046:3KKG4CDWKJ53BMRQSV5Z19BBTCU942", "dateTime": 1519679123139}, {"current_trial": 64, "trialdata": {"rt": -1, "trial_type": "single-stim", "word": "switch", "stimulus": "<p id=\"stim\">SWITCH</p>", "conditions": [18, 1200, "v", 18000], "internal_node_id": "0.0-46.0", "trial": 1, "time_elapsed": 628605, "serialpos": 9, "key_press": -1, "wordID": 1421, "type": "PRES_VIS", "trial_index": 64}, "uniqueid": "MTK3046:3KKG4CDWKJ53BMRQSV5Z19BBTCU942", "dateTime": 1519679125434}, {"current_trial": 65, "trialdata": {"rt": -1, "trial_type": "single-stim", "word": "liver", "stimulus": "<p id=\"stim\">LIVER</p>", "conditions": [18, 1200, "v", 18000], "internal_node_id": "0.0-47.0", "trial": 1, "time_elapsed": 630951, "serialpos": 10, "key_press": -1, "wordID": 832, "type": "PRES_VIS", "trial_index": 65}, "uniqueid": "MTK3046:3KKG4CDWKJ53BMRQSV5Z19BBTCU942", "dateTime": 1519679127779}, {"current_trial": 66, "trialdata": {"rt": -1, "trial_type": "single-stim", "word": "highway", "stimulus": "<p id=\"stim\">HIGHWAY</p>", "conditions": [18, 1200, "v", 18000], "internal_node_id": "0.0-48.0", "trial": 1, "time_elapsed": 633329, "serialpos": 11, "key_press": -1, "wordID": 706, "type": "PRES_VIS", "trial_index": 66}, "uniqueid": "MTK3046:3KKG4CDWKJ53BMRQSV5Z19BBTCU942", "dateTime": 1519679130158}, {"current_trial": 67, "trialdata": {"rt": -1, "trial_type": "single-stim", "word": "glove", "stimulus": "<p id=\"stim\">GLOVE</p>", "conditions": [18, 1200, "v", 18000], "internal_node_id": "0.0-49.0", "trial": 1, "time_elapsed": 635532, "serialpos": 12, "key_press": -1, "wordID": 641, "type": "PRES_VIS", "trial_index": 67}, "uniqueid": "MTK3046:3KKG4CDWKJ53BMRQSV5Z19BBTCU942", "dateTime": 1519679132361}, {"current_trial": 68, "trialdata": {"rt": -1, "trial_type": "single-stim", "word": "jury", "stimulus": "<p id=\"stim\">JURY</p>", "conditions": [18, 1200, "v", 18000], "internal_node_id": "0.0-50.0", "trial": 1, "time_elapsed": 637605, "serialpos": 13, "key_press": -1, "wordID": 765, "type": "PRES_VIS", "trial_index": 68}, "uniqueid": "MTK3046:3KKG4CDWKJ53BMRQSV5Z19BBTCU942", "dateTime": 1519679134438}, {"current_trial": 69, "trialdata": {"rt": -1, "trial_type": "single-stim", "word": "snack", "stimulus": "<p id=\"stim\">SNACK</p>", "conditions": [18, 1200, "v", 18000], "internal_node_id": "0.0-51.0", "trial": 1, "time_elapsed": 639783, "serialpos": 14, "key_press": -1, "wordID": 1330, "type": "PRES_VIS", "trial_index": 69}, "uniqueid": "MTK3046:3KKG4CDWKJ53BMRQSV5Z19BBTCU942", "dateTime": 1519679136611}, {"current_trial": 70, "trialdata": {"rt": -1, "trial_type": "single-stim", "word": "nightgown", "stimulus": "<p id=\"stim\">NIGHTGOWN</p>", "conditions": [18, 1200, "v", 18000], "internal_node_id": "0.0-52.0", "trial": 1, "time_elapsed": 641960, "serialpos": 15, "key_press": -1, "wordID": 952, "type": "PRES_VIS", "trial_index": 70}, "uniqueid": "MTK3046:3KKG4CDWKJ53BMRQSV5Z19BBTCU942", "dateTime": 1519679138789}, {"current_trial": 71, "trialdata": {"rt": -1, "trial_type": "single-stim", "word": "cafe", "stimulus": "<p id=\"stim\">CAFE</p>", "conditions": [18, 1200, "v", 18000], "internal_node_id": "0.0-53.0", "trial": 1, "time_elapsed": 644335, "serialpos": 16, "key_press": -1, "wordID": 215, "type": "PRES_VIS", "trial_index": 71}, "uniqueid": "MTK3046:3KKG4CDWKJ53BMRQSV5Z19BBTCU942", "dateTime": 1519679141164}, {"current_trial": 72, "trialdata": {"rt": -1, "trial_type": "single-stim", "word": "chest", "stimulus": "<p id=\"stim\">CHEST</p>", "conditions": [18, 1200, "v", 18000], "internal_node_id": "0.0-54.0", "trial": 1, "time_elapsed": 646421, "serialpos": 17, "key_press": -1, "wordID": 294, "type": "PRES_VIS", "trial_index": 72}, "uniqueid": "MTK3046:3KKG4CDWKJ53BMRQSV5Z19BBTCU942", "dateTime": 1519679143249}, {"current_trial": 73, "trialdata": {"rt": -1, "trial_type": "single-stim", "stimulus": "", "internal_node_id": "0.0-55.0-0.0", "time_elapsed": 648517, "key_press": -1, "type": "PRE_RECALL_DELAY", "trial_index": 73}, "uniqueid": "MTK3046:3KKG4CDWKJ53BMRQSV5Z19BBTCU942", "dateTime": 1519679145345}, {"current_trial": 74, "trialdata": {"rt": -1000, "trial_type": "single-audio", "stimulus": "/static/audio/400Hz.wav", "internal_node_id": "0.0-56.0", "time_elapsed": 649020, "key_press": -1, "type": "PRE_RECALL_ALERT", "trial_index": 74}, "uniqueid": "MTK3046:3KKG4CDWKJ53BMRQSV5Z19BBTCU942", "dateTime": 1519679145848}, {"current_trial": 75, "trialdata": {"rt": [3117, 4805, 6078, 7035, 9933, 12237, 20886, 29862, 37477], "recwords": ["cafe", "highway", "chest", "paddl", "paddle", "river", "highway", "friend", "river"], "key_times": [1109, 1397, 1662, 1845, 3117, 3470, 3582, 3725, 3797, 3933, 4110, 4261, 4805, 5189, 5293, 5429, 5573, 5709, 6078, 6413, 6565, 6749, 6877, 7029, 7035, 7109, 8230, 8878, 9013, 9245, 9438, 9573, 9757, 9933, 11511, 11582, 11782, 12061, 12141, 12237, 19750, 19797, 19942, 20029, 20246, 20453, 20470, 20886, 29063, 29278, 29381, 29493, 29582, 29726, 29862, 36920, 37045, 37189, 37334, 37438, 37477], "trial_type": "free-recall", "conditions": [18, 1200, "v", 18000], "internal_node_id": "0.0-57.0-0.0", "key_presses": [67, 65, 70, 69, 13, 72, 73, 71, 72, 87, 65, 89, 13, 67, 72, 69, 83, 84, 13, 80, 65, 68, 68, 76, 186, 69, 8, 80, 65, 68, 68, 76, 69, 13, 82, 73, 86, 69, 82, 13, 72, 73, 71, 72, 87, 65, 89, 13, 70, 82, 73, 69, 78, 68, 13, 82, 73, 86, 69, 82, 13], "trial": 1, "time_elapsed": 709026, "type": "FREE_RECALL", "trial_index": 75}, "uniqueid": "MTK3046:3KKG4CDWKJ53BMRQSV5Z19BBTCU942", "dateTime": 1519679205867}, {"current_trial": 76, "trialdata": {"rt": 2847, "trial_type": "text", "internal_node_id": "0.0-58.0", "time_elapsed": 713888, "key_press": 32, "type": "INSTRUCTIONS", "trial_index": 76}, "uniqueid": "MTK3046:3KKG4CDWKJ53BMRQSV5Z19BBTCU942", "dateTime": 1519679210716}, {"current_trial": 77, "trialdata": {"rt": [2472, 4247, 6655, 8264, 11600, 16127, 17479, 18935, 21354, 23104], "trial_type": "math-distractor", "key_times": [2072, 2240, 2472, 3959, 4063, 4247, 6336, 6455, 6655, 7903, 8064, 8264, 11237, 11407, 11600, 15720, 15880, 16127, 17183, 17279, 17479, 18687, 18935, 21031, 21111, 21354, 22712, 22911, 23104], "responses": ["19", "15", "15", "11", "20", "15", "15", "6", "16", "14"], "num2": [5, 2, 8, 9, 6, 6, 1, 1, 7, 3, 8], "num3": [6, 7, 6, 2, 6, 8, 7, 1, 1, 4, 7], "conditions": [24, 800, "v", 24000], "internal_node_id": "0.0-59.0", "key_presses": [97, 105, 13, 97, 101, 13, 97, 101, 13, 97, 97, 13, 98, 96, 13, 97, 101, 13, 97, 101, 13, 102, 13, 97, 102, 13, 97, 100, 13], "trial": 2, "time_elapsed": 738897, "type": "DISTRACTOR", "trial_index": 77, "num1": [8, 6, 1, 1, 8, 1, 7, 4, 8, 7, 1]}, "uniqueid": "MTK3046:3KKG4CDWKJ53BMRQSV5Z19BBTCU942", "dateTime": 1519679235725}, {"current_trial": 78, "trialdata": {"rt": -1, "trial_type": "single-stim", "stimulus": "<p id=\"stim\">10</p>", "internal_node_id": "0.0-60.0-0.0", "time_elapsed": 741900, "key_press": -1, "trial_index": 78}, "uniqueid": "MTK3046:3KKG4CDWKJ53BMRQSV5Z19BBTCU942", "dateTime": 1519679238728}, {"current_trial": 79, "trialdata": {"rt": -1, "trial_type": "single-stim", "stimulus": "<p id=\"stim\">9</p>", "internal_node_id": "0.0-60.0-1.0", "time_elapsed": 742902, "key_press": -1, "trial_index": 79}, "uniqueid": "MTK3046:3KKG4CDWKJ53BMRQSV5Z19BBTCU942", "dateTime": 1519679239731}, {"current_trial": 80, "trialdata": {"rt": -1, "trial_type": "single-stim", "stimulus": "<p id=\"stim\">8</p>", "internal_node_id": "0.0-60.0-2.0", "time_elapsed": 743905, "key_press": -1, "trial_index": 80}, "uniqueid": "MTK3046:3KKG4CDWKJ53BMRQSV5Z19BBTCU942", "dateTime": 1519679240733}, {"current_trial": 81, "trialdata": {"rt": -1, "trial_type": "single-stim", "stimulus": "<p id=\"stim\">7</p>", "internal_node_id": "0.0-60.0-3.0", "time_elapsed": 744908, "key_press": -1, "trial_index": 81}, "uniqueid": "MTK3046:3KKG4CDWKJ53BMRQSV5Z19BBTCU942", "dateTime": 1519679241736}, {"current_trial": 82, "trialdata": {"rt": -1, "trial_type": "single-stim", "stimulus": "<p id=\"stim\">6</p>", "internal_node_id": "0.0-60.0-4.0", "time_elapsed": 745912, "key_press": -1, "trial_index": 82}, "uniqueid": "MTK3046:3KKG4CDWKJ53BMRQSV5Z19BBTCU942", "dateTime": 1519679242740}, {"current_trial": 83, "trialdata": {"rt": -1, "trial_type": "single-stim", "stimulus": "<p id=\"stim\">5</p>", "internal_node_id": "0.0-60.0-5.0", "time_elapsed": 746914, "key_press": -1, "trial_index": 83}, "uniqueid": "MTK3046:3KKG4CDWKJ53BMRQSV5Z19BBTCU942", "dateTime": 1519679243743}, {"current_trial": 84, "trialdata": {"rt": -1, "trial_type": "single-stim", "stimulus": "<p id=\"stim\">4</p>", "internal_node_id": "0.0-60.0-6.0", "time_elapsed": 747916, "key_press": -1, "trial_index": 84}, "uniqueid": "MTK3046:3KKG4CDWKJ53BMRQSV5Z19BBTCU942", "dateTime": 1519679244744}, {"current_trial": 85, "trialdata": {"rt": -1, "trial_type": "single-stim", "stimulus": "<p id=\"stim\">3</p>", "internal_node_id": "0.0-60.0-7.0", "time_elapsed": 748918, "key_press": -1, "trial_index": 85}, "uniqueid": "MTK3046:3KKG4CDWKJ53BMRQSV5Z19BBTCU942", "dateTime": 1519679245747}, {"current_trial": 86, "trialdata": {"rt": -1, "trial_type": "single-stim", "stimulus": "<p id=\"stim\">2</p>", "internal_node_id": "0.0-60.0-8.0", "time_elapsed": 749923, "key_press": -1, "trial_index": 86}, "uniqueid": "MTK3046:3KKG4CDWKJ53BMRQSV5Z19BBTCU942", "dateTime": 1519679246751}, {"current_trial": 87, "trialdata": {"rt": -1, "trial_type": "single-stim", "stimulus": "<p id=\"stim\">1</p>", "internal_node_id": "0.0-60.0-9.0", "time_elapsed": 750927, "key_press": -1, "trial_index": 87}, "uniqueid": "MTK3046:3KKG4CDWKJ53BMRQSV5Z19BBTCU942", "dateTime": 1519679247756}, {"current_trial": 88, "trialdata": {"rt": -1, "trial_type": "single-stim", "stimulus": "<p id=\"stim\">+</p>", "internal_node_id": "0.0-61.0-0.0", "time_elapsed": 752432, "key_press": -1, "type": "FIXATION", "trial_index": 88}, "uniqueid": "MTK3046:3KKG4CDWKJ53BMRQSV5Z19BBTCU942", "dateTime": 1519679249260}, {"current_trial": 89, "trialdata": {"rt": -1, "trial_type": "single-stim", "word": "clothes", "stimulus": "<p id=\"stim\">CLOTHES</p>", "conditions": [24, 800, "v", 24000], "internal_node_id": "0.0-62.0", "trial": 2, "time_elapsed": 753236, "serialpos": 0, "key_press": -1, "wordID": 326, "type": "PRES_VIS", "trial_index": 89}, "uniqueid": "MTK3046:3KKG4CDWKJ53BMRQSV5Z19BBTCU942", "dateTime": 1519679250064}, {"current_trial": 90, "trialdata": {"rt": -1, "trial_type": "single-stim", "word": "wardrobe", "stimulus": "<p id=\"stim\">WARDROBE</p>", "conditions": [24, 800, "v", 24000], "internal_node_id": "0.0-63.0", "trial": 2, "time_elapsed": 754971, "serialpos": 1, "key_press": -1, "wordID": 1586, "type": "PRES_VIS", "trial_index": 90}, "uniqueid": "MTK3046:3KKG4CDWKJ53BMRQSV5Z19BBTCU942", "dateTime": 1519679251799}, {"current_trial": 91, "trialdata": {"rt": -1, "trial_type": "single-stim", "word": "piston", "stimulus": "<p id=\"stim\">PISTON</p>", "conditions": [24, 800, "v", 24000], "internal_node_id": "0.0-64.0", "trial": 2, "time_elapsed": 756759, "serialpos": 2, "key_press": -1, "wordID": 1075, "type": "PRES_VIS", "trial_index": 91}, "uniqueid": "MTK3046:3KKG4CDWKJ53BMRQSV5Z19BBTCU942", "dateTime": 1519679253587}, {"current_trial": 92, "trialdata": {"rt": -1, "trial_type": "single-stim", "word": "climber", "stimulus": "<p id=\"stim\">CLIMBER</p>", "conditions": [24, 800, "v", 24000], "internal_node_id": "0.0-65.0", "trial": 2, "time_elapsed": 758402, "serialpos": 3, "key_press": -1, "wordID": 322, "type": "PRES_VIS", "trial_index": 92}, "uniqueid": "MTK3046:3KKG4CDWKJ53BMRQSV5Z19BBTCU942", "dateTime": 1519679255231}, {"current_trial": 93, "trialdata": {"rt": -1, "trial_type": "single-stim", "word": "bison", "stimulus": "<p id=\"stim\">BISON</p>", "conditions": [24, 800, "v", 24000], "internal_node_id": "0.0-66.0", "trial": 2, "time_elapsed": 760037, "serialpos": 4, "key_press": -1, "wordID": 130, "type": "PRES_VIS", "trial_index": 93}, "uniqueid": "MTK3046:3KKG4CDWKJ53BMRQSV5Z19BBTCU942", "dateTime": 1519679256865}, {"current_trial": 94, "trialdata": {"rt": -1, "trial_type": "single-stim", "word": "notebook", "stimulus": "<p id=\"stim\">NOTEBOOK</p>", "conditions": [24, 800, "v", 24000], "internal_node_id": "0.0-67.0", "trial": 2, "time_elapsed": 761774, "serialpos": 5, "key_press": -1, "wordID": 958, "type": "PRES_VIS", "trial_index": 94}, "uniqueid": "MTK3046:3KKG4CDWKJ53BMRQSV5Z19BBTCU942", "dateTime": 1519679258602}, {"current_trial": 95, "trialdata": {"rt": -1, "trial_type": "single-stim", "word": "breast", "stimulus": "<p id=\"stim\">BREAST</p>", "conditions": [24, 800, "v", 24000], "internal_node_id": "0.0-68.0", "trial": 2, "time_elapsed": 763538, "serialpos": 6, "key_press": -1, "wordID": 170, "type": "PRES_VIS", "trial_index": 95}, "uniqueid": "MTK3046:3KKG4CDWKJ53BMRQSV5Z19BBTCU942", "dateTime": 1519679260366}, {"current_trial": 96, "trialdata": {"rt": -1, "trial_type": "single-stim", "word": "valve", "stimulus": "<p id=\"stim\">VALVE</p>", "conditions": [24, 800, "v", 24000], "internal_node_id": "0.0-69.0", "trial": 2, "time_elapsed": 765424, "serialpos": 7, "key_press": -1, "wordID": 1545, "type": "PRES_VIS", "trial_index": 96}, "uniqueid": "MTK3046:3KKG4CDWKJ53BMRQSV5Z19BBTCU942", "dateTime": 1519679262253}, {"current_trial": 97, "trialdata": {"rt": -1, "trial_type": "single-stim", "word": "guitar", "stimulus": "<p id=\"stim\">GUITAR</p>", "conditions": [24, 800, "v", 24000], "internal_node_id": "0.0-70.0", "trial": 2, "time_elapsed": 767278, "serialpos": 8, "key_press": -1, "wordID": 669, "type": "PRES_VIS", "trial_index": 97}, "uniqueid": "MTK3046:3KKG4CDWKJ53BMRQSV5Z19BBTCU942", "dateTime": 1519679264106}, {"current_trial": 98, "trialdata": {"rt": -1, "trial_type": "single-stim", "word": "chipmunk", "stimulus": "<p id=\"stim\">CHIPMUNK</p>", "conditions": [24, 800, "v", 24000], "internal_node_id": "0.0-71.0", "trial": 2, "time_elapsed": 769180, "serialpos": 9, "key_press": -1, "wordID": 303, "type": "PRES_VIS", "trial_index": 98}, "uniqueid": "MTK3046:3KKG4CDWKJ53BMRQSV5Z19BBTCU942", "dateTime": 1519679266008}, {"current_trial": 99, "trialdata": {"rt": -1, "trial_type": "single-stim", "word": "summit", "stimulus": "<p id=\"stim\">SUMMIT</p>", "conditions": [24, 800, "v", 24000], "internal_node_id": "0.0-72.0", "trial": 2, "time_elapsed": 771113, "serialpos": 10, "key_press": -1, "wordID": 1404, "type": "PRES_VIS", "trial_index": 99}, "uniqueid": "MTK3046:3KKG4CDWKJ53BMRQSV5Z19BBTCU942", "dateTime": 1519679267942}, {"current_trial": 100, "trialdata": {"rt": -1, "trial_type": "single-stim", "word": "necklace", "stimulus": "<p id=\"stim\">NECKLACE</p>", "conditions": [24, 800, "v", 24000], "internal_node_id": "0.0-73.0", "trial": 2, "time_elapsed": 772858, "serialpos": 11, "key_press": -1, "wordID": 939, "type": "PRES_VIS", "trial_index": 100}, "uniqueid": "MTK3046:3KKG4CDWKJ53BMRQSV5Z19BBTCU942", "dateTime": 1519679269686}, {"current_trial": 101, "trialdata": {"rt": -1, "trial_type": "single-stim", "word": "partner", "stimulus": "<p id=\"stim\">PARTNER</p>", "conditions": [24, 800, "v", 24000], "internal_node_id": "0.0-74.0", "trial": 2, "time_elapsed": 774827, "serialpos": 12, "key_press": -1, "wordID": 1016, "type": "PRES_VIS", "trial_index": 101}, "uniqueid": "MTK3046:3KKG4CDWKJ53BMRQSV5Z19BBTCU942", "dateTime": 1519679271657}, {"current_trial": 102, "trialdata": {"rt": -1, "trial_type": "single-stim", "word": "bathtub", "stimulus": "<p id=\"stim\">BATHTUB</p>", "conditions": [24, 800, "v", 24000], "internal_node_id": "0.0-75.0", "trial": 2, "time_elapsed": 776519, "serialpos": 13, "key_press": -1, "wordID": 99, "type": "PRES_VIS", "trial_index": 102}, "uniqueid": "MTK3046:3KKG4CDWKJ53BMRQSV5Z19BBTCU942", "dateTime": 1519679273348}, {"current_trial": 103, "trialdata": {"rt": -1, "trial_type": "single-stim", "word": "snail", "stimulus": "<p id=\"stim\">SNAIL</p>", "conditions": [24, 800, "v", 24000], "internal_node_id": "0.0-76.0", "trial": 2, "time_elapsed": 778422, "serialpos": 14, "key_press": -1, "wordID": 1331, "type": "PRES_VIS", "trial_index": 103}, "uniqueid": "MTK3046:3KKG4CDWKJ53BMRQSV5Z19BBTCU942", "dateTime": 1519679275250}, {"current_trial": 104, "trialdata": {"rt": -1, "trial_type": "single-stim", "word": "skirt", "stimulus": "<p id=\"stim\">SKIRT</p>", "conditions": [24, 800, "v", 24000], "internal_node_id": "0.0-77.0", "trial": 2, "time_elapsed": 780178, "serialpos": 15, "key_press": -1, "wordID": 1318, "type": "PRES_VIS", "trial_index": 104}, "uniqueid": "MTK3046:3KKG4CDWKJ53BMRQSV5Z19BBTCU942", "dateTime": 1519679277006}, {"current_trial": 105, "trialdata": {"rt": -1, "trial_type": "single-stim", "word": "dresser", "stimulus": "<p id=\"stim\">DRESSER</p>", "conditions": [24, 800, "v", 24000], "internal_node_id": "0.0-78.0", "trial": 2, "time_elapsed": 782098, "serialpos": 16, "key_press": -1, "wordID": 495, "type": "PRES_VIS", "trial_index": 105}, "uniqueid": "MTK3046:3KKG4CDWKJ53BMRQSV5Z19BBTCU942", "dateTime": 1519679278926}, {"current_trial": 106, "trialdata": {"rt": -1, "trial_type": "single-stim", "word": "pork", "stimulus": "<p id=\"stim\">PORK</p>", "conditions": [24, 800, "v", 24000], "internal_node_id": "0.0-79.0", "trial": 2, "time_elapsed": 784009, "serialpos": 17, "key_press": -1, "wordID": 1107, "type": "PRES_VIS", "trial_index": 106}, "uniqueid": "MTK3046:3KKG4CDWKJ53BMRQSV5Z19BBTCU942", "dateTime": 1519679280837}, {"current_trial": 107, "trialdata": {"rt": -1, "trial_type": "single-stim", "word": "brandy", "stimulus": "<p id=\"stim\">BRANDY</p>", "conditions": [24, 800, "v", 24000], "internal_node_id": "0.0-80.0", "trial": 2, "time_elapsed": 785907, "serialpos": 18, "key_press": -1, "wordID": 168, "type": "PRES_VIS", "trial_index": 107}, "uniqueid": "MTK3046:3KKG4CDWKJ53BMRQSV5Z19BBTCU942", "dateTime": 1519679282735}, {"current_trial": 108, "trialdata": {"rt": -1, "trial_type": "single-stim", "word": "kitchen", "stimulus": "<p id=\"stim\">KITCHEN</p>", "conditions": [24, 800, "v", 24000], "internal_node_id": "0.0-81.0", "trial": 2, "time_elapsed": 787709, "serialpos": 19, "key_press": -1, "wordID": 777, "type": "PRES_VIS", "trial_index": 108}, "uniqueid": "MTK3046:3KKG4CDWKJ53BMRQSV5Z19BBTCU942", "dateTime": 1519679284537}, {"current_trial": 109, "trialdata": {"rt": -1, "trial_type": "single-stim", "word": "cook", "stimulus": "<p id=\"stim\">COOK</p>", "conditions": [24, 800, "v", 24000], "internal_node_id": "0.0-82.0", "trial": 2, "time_elapsed": 789559, "serialpos": 20, "key_press": -1, "wordID": 371, "type": "PRES_VIS", "trial_index": 109}, "uniqueid": "MTK3046:3KKG4CDWKJ53BMRQSV5Z19BBTCU942", "dateTime": 1519679286388}, {"current_trial": 110, "trialdata": {"rt": -1, "trial_type": "single-stim", "word": "boyfriend", "stimulus": "<p id=\"stim\">BOYFRIEND</p>", "conditions": [24, 800, "v", 24000], "internal_node_id": "0.0-83.0", "trial": 2, "time_elapsed": 791538, "serialpos": 21, "key_press": -1, "wordID": 161, "type": "PRES_VIS", "trial_index": 110}, "uniqueid": "MTK3046:3KKG4CDWKJ53BMRQSV5Z19BBTCU942", "dateTime": 1519679288366}, {"current_trial": 111, "trialdata": {"rt": -1, "trial_type": "single-stim", "word": "lava", "stimulus": "<p id=\"stim\">LAVA</p>", "conditions": [24, 800, "v", 24000], "internal_node_id": "0.0-84.0", "trial": 2, "time_elapsed": 793150, "serialpos": 22, "key_press": -1, "wordID": 803, "type": "PRES_VIS", "trial_index": 111}, "uniqueid": "MTK3046:3KKG4CDWKJ53BMRQSV5Z19BBTCU942", "dateTime": 1519679289978}, {"current_trial": 112, "trialdata": {"rt": -1, "trial_type": "single-stim", "word": "scotch", "stimulus": "<p id=\"stim\">SCOTCH</p>", "conditions": [24, 800, "v", 24000], "internal_node_id": "0.0-85.0", "trial": 2, "time_elapsed": 795076, "serialpos": 23, "key_press": -1, "wordID": 1250, "type": "PRES_VIS", "trial_index": 112}, "uniqueid": "MTK3046:3KKG4CDWKJ53BMRQSV5Z19BBTCU942", "dateTime": 1519679291904}, {"current_trial": 113, "trialdata": {"rt": -1, "trial_type": "single-stim", "stimulus": "", "internal_node_id": "0.0-86.0-0.0", "time_elapsed": 797521, "key_press": -1, "type": "PRE_RECALL_DELAY", "trial_index": 113}, "uniqueid": "MTK3046:3KKG4CDWKJ53BMRQSV5Z19BBTCU942", "dateTime": 1519679294349}, {"current_trial": 114, "trialdata": {"rt": -1000, "trial_type": "single-audio", "stimulus": "/static/audio/400Hz.wav", "internal_node_id": "0.0-87.0", "time_elapsed": 798024, "key_press": -1, "type": "PRE_RECALL_ALERT", "trial_index": 114}, "uniqueid": "MTK3046:3KKG4CDWKJ53BMRQSV5Z19BBTCU942", "dateTime": 1519679294853}, {"current_trial": 115, "trialdata": {"rt": [2560, 3945, 5936, 8256, 9832, 18040, 23456, 34440, 37649], "recwords": ["scotch", "lava", "boyfriend", "kitchen", "cook", "breast", "liver", "friend", "spatula"], "key_times": [825, 1592, 1744, 1904, 2264, 2356, 2560, 3096, 3249, 3656, 3784, 3945, 4200, 4440, 4728, 4944, 5120, 5281, 5417, 5616, 5785, 5936, 7192, 7424, 7520, 7752, 7800, 8024, 8112, 8256, 9224, 9353, 9481, 9665, 9832, 17082, 17312, 17441, 17568, 17737, 17889, 18040, 22818, 23016, 23121, 23321, 23360, 23456, 33483, 33768, 33872, 34072, 34194, 34344, 34440, 36434, 36616, 36760, 37000, 37209, 37361, 37457, 37649], "trial_type": "free-recall", "conditions": [24, 800, "v", 24000], "internal_node_id": "0.0-88.0-0.0", "key_presses": [83, 67, 79, 84, 67, 72, 13, 76, 65, 86, 65, 13, 66, 79, 89, 70, 82, 73, 69, 78, 68, 13, 75, 73, 84, 67, 72, 69, 78, 32, 67, 79, 79, 75, 13, 66, 82, 69, 65, 83, 84, 13, 76, 73, 86, 69, 82, 13, 70, 82, 73, 69, 78, 68, 13, 83, 80, 65, 84, 85, 76, 65, 13], "trial": 2, "time_elapsed": 858031, "type": "FREE_RECALL", "trial_index": 115}, "uniqueid": "MTK3046:3KKG4CDWKJ53BMRQSV5Z19BBTCU942", "dateTime": 1519679354871}, {"current_trial": 116, "trialdata": {"rt": 1768, "trial_type": "text", "internal_node_id": "0.0-89.0", "time_elapsed": 861815, "key_press": 32, "type": "INSTRUCTIONS", "trial_index": 116}, "uniqueid": "MTK3046:3KKG4CDWKJ53BMRQSV5Z19BBTCU942", "dateTime": 1519679358643}, {"current_trial": 117, "trialdata": {"rt": [2659, 4283, 5570, 10691], "trial_type": "math-distractor", "key_times": [2388, 2516, 2659, 3876, 4050, 4283, 5331, 5570, 10352, 10530, 10691], "responses": ["20", "15", "9", "14"], "num2": [8, 6, 7, 7, 6], "num3": [5, 7, 1, 2, 7], "conditions": [24, 1600, "v", 12000], "internal_node_id": "0.0-90.0", "key_presses": [98, 96, 13, 97, 101, 13, 105, 13, 97, 100, 13], "trial": 3, "time_elapsed": 875819, "type": "DISTRACTOR", "trial_index": 117, "num1": [7, 2, 1, 5, 6]}, "uniqueid": "MTK3046:3KKG4CDWKJ53BMRQSV5Z19BBTCU942", "dateTime": 1519679372647}, {"current_trial": 118, "trialdata": {"rt": -1, "trial_type": "single-stim", "stimulus": "<p id=\"stim\">10</p>", "internal_node_id": "0.0-91.0-0.0", "time_elapsed": 878822, "key_press": -1, "trial_index": 118}, "uniqueid": "MTK3046:3KKG4CDWKJ53BMRQSV5Z19BBTCU942", "dateTime": 1519679375650}, {"current_trial": 119, "trialdata": {"rt": -1, "trial_type": "single-stim", "stimulus": "<p id=\"stim\">9</p>", "internal_node_id": "0.0-91.0-1.0", "time_elapsed": 879824, "key_press": -1, "trial_index": 119}, "uniqueid": "MTK3046:3KKG4CDWKJ53BMRQSV5Z19BBTCU942", "dateTime": 1519679376653}, {"current_trial": 120, "trialdata": {"rt": -1, "trial_type": "single-stim", "stimulus": "<p id=\"stim\">8</p>", "internal_node_id": "0.0-91.0-2.0", "time_elapsed": 880827, "key_press": -1, "trial_index": 120}, "uniqueid": "MTK3046:3KKG4CDWKJ53BMRQSV5Z19BBTCU942", "dateTime": 1519679377656}, {"current_trial": 121, "trialdata": {"rt": -1, "trial_type": "single-stim", "stimulus": "<p id=\"stim\">7</p>", "internal_node_id": "0.0-91.0-3.0", "time_elapsed": 881830, "key_press": -1, "trial_index": 121}, "uniqueid": "MTK3046:3KKG4CDWKJ53BMRQSV5Z19BBTCU942", "dateTime": 1519679378658}, {"current_trial": 122, "trialdata": {"rt": -1, "trial_type": "single-stim", "stimulus": "<p id=\"stim\">6</p>", "internal_node_id": "0.0-91.0-4.0", "time_elapsed": 882831, "key_press": -1, "trial_index": 122}, "uniqueid": "MTK3046:3KKG4CDWKJ53BMRQSV5Z19BBTCU942", "dateTime": 1519679379660}, {"current_trial": 123, "trialdata": {"rt": -1, "trial_type": "single-stim", "stimulus": "<p id=\"stim\">5</p>", "internal_node_id": "0.0-91.0-5.0", "time_elapsed": 883833, "key_press": -1, "trial_index": 123}, "uniqueid": "MTK3046:3KKG4CDWKJ53BMRQSV5Z19BBTCU942", "dateTime": 1519679380661}, {"current_trial": 124, "trialdata": {"rt": -1, "trial_type": "single-stim", "stimulus": "<p id=\"stim\">4</p>", "internal_node_id": "0.0-91.0-6.0", "time_elapsed": 884836, "key_press": -1, "trial_index": 124}, "uniqueid": "MTK3046:3KKG4CDWKJ53BMRQSV5Z19BBTCU942", "dateTime": 1519679381664}, {"current_trial": 125, "trialdata": {"rt": -1, "trial_type": "single-stim", "stimulus": "<p id=\"stim\">3</p>", "internal_node_id": "0.0-91.0-7.0", "time_elapsed": 885838, "key_press": -1, "trial_index": 125}, "uniqueid": "MTK3046:3KKG4CDWKJ53BMRQSV5Z19BBTCU942", "dateTime": 1519679382666}, {"current_trial": 126, "trialdata": {"rt": -1, "trial_type": "single-stim", "stimulus": "<p id=\"stim\">2</p>", "internal_node_id": "0.0-91.0-8.0", "time_elapsed": 886839, "key_press": -1, "trial_index": 126}, "uniqueid": "MTK3046:3KKG4CDWKJ53BMRQSV5Z19BBTCU942", "dateTime": 1519679383668}, {"current_trial": 127, "trialdata": {"rt": -1, "trial_type": "single-stim", "stimulus": "<p id=\"stim\">1</p>", "internal_node_id": "0.0-91.0-9.0", "time_elapsed": 887842, "key_press": -1, "trial_index": 127}, "uniqueid": "MTK3046:3KKG4CDWKJ53BMRQSV5Z19BBTCU942", "dateTime": 1519679384671}, {"current_trial": 128, "trialdata": {"rt": -1, "trial_type": "single-stim", "stimulus": "<p id=\"stim\">+</p>", "internal_node_id": "0.0-92.0-0.0", "time_elapsed": 889344, "key_press": -1, "type": "FIXATION", "trial_index": 128}, "uniqueid": "MTK3046:3KKG4CDWKJ53BMRQSV5Z19BBTCU942", "dateTime": 1519679386173}, {"current_trial": 129, "trialdata": {"rt": -1, "trial_type": "single-stim", "word": "stove", "stimulus": "<p id=\"stim\">STOVE</p>", "conditions": [24, 1600, "v", 12000], "internal_node_id": "0.0-93.0", "trial": 3, "time_elapsed": 890949, "serialpos": 0, "key_press": -1, "wordID": 1387, "type": "PRES_VIS", "trial_index": 129}, "uniqueid": "MTK3046:3KKG4CDWKJ53BMRQSV5Z19BBTCU942", "dateTime": 1519679387777}, {"current_trial": 130, "trialdata": {"rt": -1, "trial_type": "single-stim", "word": "football", "stimulus": "<p id=\"stim\">FOOTBALL</p>", "conditions": [24, 1600, "v", 12000], "internal_node_id": "0.0-94.0", "trial": 3, "time_elapsed": 893372, "serialpos": 1, "key_press": -1, "wordID": 590, "type": "PRES_VIS", "trial_index": 130}, "uniqueid": "MTK3046:3KKG4CDWKJ53BMRQSV5Z19BBTCU942", "dateTime": 1519679390201}, {"current_trial": 131, "trialdata": {"rt": -1, "trial_type": "single-stim", "word": "fungus", "stimulus": "<p id=\"stim\">FUNGUS</p>", "conditions": [24, 1600, "v", 12000], "internal_node_id": "0.0-95.0", "trial": 3, "time_elapsed": 896084, "serialpos": 2, "key_press": -1, "wordID": 613, "type": "PRES_VIS", "trial_index": 131}, "uniqueid": "MTK3046:3KKG4CDWKJ53BMRQSV5Z19BBTCU942", "dateTime": 1519679392912}, {"current_trial": 132, "trialdata": {"rt": -1, "trial_type": "single-stim", "word": "drink", "stimulus": "<p id=\"stim\">DRINK</p>", "conditions": [24, 1600, "v", 12000], "internal_node_id": "0.0-96.0", "trial": 3, "time_elapsed": 898738, "serialpos": 3, "key_press": -1, "wordID": 497, "type": "PRES_VIS", "trial_index": 132}, "uniqueid": "MTK3046:3KKG4CDWKJ53BMRQSV5Z19BBTCU942", "dateTime": 1519679395567}, {"current_trial": 133, "trialdata": {"rt": -1, "trial_type": "single-stim", "word": "author", "stimulus": "<p id=\"stim\">AUTHOR</p>", "conditions": [24, 1600, "v", 12000], "internal_node_id": "0.0-97.0", "trial": 3, "time_elapsed": 901155, "serialpos": 4, "key_press": -1, "wordID": 60, "type": "PRES_VIS", "trial_index": 133}, "uniqueid": "MTK3046:3KKG4CDWKJ53BMRQSV5Z19BBTCU942", "dateTime": 1519679397983}, {"current_trial": 134, "trialdata": {"rt": -1, "trial_type": "single-stim", "word": "survey", "stimulus": "<p id=\"stim\">SURVEY</p>", "conditions": [24, 1600, "v", 12000], "internal_node_id": "0.0-98.0", "trial": 3, "time_elapsed": 903715, "serialpos": 5, "key_press": -1, "wordID": 1413, "type": "PRES_VIS", "trial_index": 134}, "uniqueid": "MTK3046:3KKG4CDWKJ53BMRQSV5Z19BBTCU942", "dateTime": 1519679400543}, {"current_trial": 135, "trialdata": {"rt": -1, "trial_type": "single-stim", "word": "report", "stimulus": "<p id=\"stim\">REPORT</p>", "conditions": [24, 1600, "v", 12000], "internal_node_id": "0.0-99.0", "trial": 3, "time_elapsed": 906331, "serialpos": 6, "key_press": -1, "wordID": 1183, "type": "PRES_VIS", "trial_index": 135}, "uniqueid": "MTK3046:3KKG4CDWKJ53BMRQSV5Z19BBTCU942", "dateTime": 1519679403160}, {"current_trial": 136, "trialdata": {"rt": -1, "trial_type": "single-stim", "word": "cocoon", "stimulus": "<p id=\"stim\">COCOON</p>", "conditions": [24, 1600, "v", 12000], "internal_node_id": "0.0-100.0", "trial": 3, "time_elapsed": 909089, "serialpos": 7, "key_press": -1, "wordID": 338, "type": "PRES_VIS", "trial_index": 136}, "uniqueid": "MTK3046:3KKG4CDWKJ53BMRQSV5Z19BBTCU942", "dateTime": 1519679405917}, {"current_trial": 137, "trialdata": {"rt": -1, "trial_type": "single-stim", "word": "flesh", "stimulus": "<p id=\"stim\">FLESH</p>", "conditions": [24, 1600, "v", 12000], "internal_node_id": "0.0-101.0", "trial": 3, "time_elapsed": 911520, "serialpos": 8, "key_press": -1, "wordID": 578, "type": "PRES_VIS", "trial_index": 137}, "uniqueid": "MTK3046:3KKG4CDWKJ53BMRQSV5Z19BBTCU942", "dateTime": 1519679408349}, {"current_trial": 138, "trialdata": {"rt": -1, "trial_type": "single-stim", "word": "lady", "stimulus": "<p id=\"stim\">LADY</p>", "conditions": [24, 1600, "v", 12000], "internal_node_id": "0.0-102.0", "trial": 3, "time_elapsed": 914304, "serialpos": 9, "key_press": -1, "wordID": 793, "type": "PRES_VIS", "trial_index": 138}, "uniqueid": "MTK3046:3KKG4CDWKJ53BMRQSV5Z19BBTCU942", "dateTime": 1519679411132}, {"current_trial": 139, "trialdata": {"rt": -1, "trial_type": "single-stim", "word": "donor", "stimulus": "<p id=\"stim\">DONOR</p>", "conditions": [24, 1600, "v", 12000], "internal_node_id": "0.0-103.0", "trial": 3, "time_elapsed": 916759, "serialpos": 10, "key_press": -1, "wordID": 484, "type": "PRES_VIS", "trial_index": 139}, "uniqueid": "MTK3046:3KKG4CDWKJ53BMRQSV5Z19BBTCU942", "dateTime": 1519679413587}, {"current_trial": 140, "trialdata": {"rt": -1, "trial_type": "single-stim", "word": "fireplace", "stimulus": "<p id=\"stim\">FIREPLACE</p>", "conditions": [24, 1600, "v", 12000], "internal_node_id": "0.0-104.0", "trial": 3, "time_elapsed": 919288, "serialpos": 11, "key_press": -1, "wordID": 569, "type": "PRES_VIS", "trial_index": 140}, "uniqueid": "MTK3046:3KKG4CDWKJ53BMRQSV5Z19BBTCU942", "dateTime": 1519679416116}, {"current_trial": 141, "trialdata": {"rt": -1, "trial_type": "single-stim", "word": "bank", "stimulus": "<p id=\"stim\">BANK</p>", "conditions": [24, 1600, "v", 12000], "internal_node_id": "0.0-105.0", "trial": 3, "time_elapsed": 921782, "serialpos": 12, "key_press": -1, "wordID": 82, "type": "PRES_VIS", "trial_index": 141}, "uniqueid": "MTK3046:3KKG4CDWKJ53BMRQSV5Z19BBTCU942", "dateTime": 1519679418610}, {"current_trial": 142, "trialdata": {"rt": -1, "trial_type": "single-stim", "word": "orchid", "stimulus": "<p id=\"stim\">ORCHID</p>", "conditions": [24, 1600, "v", 12000], "internal_node_id": "0.0-106.0", "trial": 3, "time_elapsed": 924232, "serialpos": 13, "key_press": -1, "wordID": 981, "type": "PRES_VIS", "trial_index": 142}, "uniqueid": "MTK3046:3KKG4CDWKJ53BMRQSV5Z19BBTCU942", "dateTime": 1519679421060}, {"current_trial": 143, "trialdata": {"rt": -1, "trial_type": "single-stim", "word": "monster", "stimulus": "<p id=\"stim\">MONSTER</p>", "conditions": [24, 1600, "v", 12000], "internal_node_id": "0.0-107.0", "trial": 3, "time_elapsed": 926877, "serialpos": 14, "key_press": -1, "wordID": 911, "type": "PRES_VIS", "trial_index": 143}, "uniqueid": "MTK3046:3KKG4CDWKJ53BMRQSV5Z19BBTCU942", "dateTime": 1519679423705}, {"current_trial": 144, "trialdata": {"rt": -1, "trial_type": "single-stim", "word": "rooster", "stimulus": "<p id=\"stim\">ROOSTER</p>", "conditions": [24, 1600, "v", 12000], "internal_node_id": "0.0-108.0", "trial": 3, "time_elapsed": 929550, "serialpos": 15, "key_press": -1, "wordID": 1208, "type": "PRES_VIS", "trial_index": 144}, "uniqueid": "MTK3046:3KKG4CDWKJ53BMRQSV5Z19BBTCU942", "dateTime": 1519679426378}, {"current_trial": 145, "trialdata": {"rt": -1, "trial_type": "single-stim", "word": "uncle", "stimulus": "<p id=\"stim\">UNCLE</p>", "conditions": [24, 1600, "v", 12000], "internal_node_id": "0.0-109.0", "trial": 3, "time_elapsed": 932301, "serialpos": 16, "key_press": -1, "wordID": 1535, "type": "PRES_VIS", "trial_index": 145}, "uniqueid": "MTK3046:3KKG4CDWKJ53BMRQSV5Z19BBTCU942", "dateTime": 1519679429130}, {"current_trial": 146, "trialdata": {"rt": -1, "trial_type": "single-stim", "word": "widow", "stimulus": "<p id=\"stim\">WIDOW</p>", "conditions": [24, 1600, "v", 12000], "internal_node_id": "0.0-110.0", "trial": 3, "time_elapsed": 934829, "serialpos": 17, "key_press": -1, "wordID": 1607, "type": "PRES_VIS", "trial_index": 146}, "uniqueid": "MTK3046:3KKG4CDWKJ53BMRQSV5Z19BBTCU942", "dateTime": 1519679431657}, {"current_trial": 147, "trialdata": {"rt": -1, "trial_type": "single-stim", "word": "garden", "stimulus": "<p id=\"stim\">GARDEN</p>", "conditions": [24, 1600, "v", 12000], "internal_node_id": "0.0-111.0", "trial": 3, "time_elapsed": 937462, "serialpos": 18, "key_press": -1, "wordID": 622, "type": "PRES_VIS", "trial_index": 147}, "uniqueid": "MTK3046:3KKG4CDWKJ53BMRQSV5Z19BBTCU942", "dateTime": 1519679434290}, {"current_trial": 148, "trialdata": {"rt": -1, "trial_type": "single-stim", "word": "beaker", "stimulus": "<p id=\"stim\">BEAKER</p>", "conditions": [24, 1600, "v", 12000], "internal_node_id": "0.0-112.0", "trial": 3, "time_elapsed": 940165, "serialpos": 19, "key_press": -1, "wordID": 103, "type": "PRES_VIS", "trial_index": 148}, "uniqueid": "MTK3046:3KKG4CDWKJ53BMRQSV5Z19BBTCU942", "dateTime": 1519679436993}, {"current_trial": 149, "trialdata": {"rt": -1, "trial_type": "single-stim", "word": "chemist", "stimulus": "<p id=\"stim\">CHEMIST</p>", "conditions": [24, 1600, "v", 12000], "internal_node_id": "0.0-113.0", "trial": 3, "time_elapsed": 942789, "serialpos": 20, "key_press": -1, "wordID": 291, "type": "PRES_VIS", "trial_index": 149}, "uniqueid": "MTK3046:3KKG4CDWKJ53BMRQSV5Z19BBTCU942", "dateTime": 1519679439617}, {"current_trial": 150, "trialdata": {"rt": -1, "trial_type": "single-stim", "word": "glass", "stimulus": "<p id=\"stim\">GLASS</p>", "conditions": [24, 1600, "v", 12000], "internal_node_id": "0.0-114.0", "trial": 3, "time_elapsed": 945248, "serialpos": 21, "key_press": -1, "wordID": 638, "type": "PRES_VIS", "trial_index": 150}, "uniqueid": "MTK3046:3KKG4CDWKJ53BMRQSV5Z19BBTCU942", "dateTime": 1519679442076}, {"current_trial": 151, "trialdata": {"rt": -1, "trial_type": "single-stim", "word": "jelly", "stimulus": "<p id=\"stim\">JELLY</p>", "conditions": [24, 1600, "v", 12000], "internal_node_id": "0.0-115.0", "trial": 3, "time_elapsed": 947824, "serialpos": 22, "key_press": -1, "wordID": 754, "type": "PRES_VIS", "trial_index": 151}, "uniqueid": "MTK3046:3KKG4CDWKJ53BMRQSV5Z19BBTCU942", "dateTime": 1519679444652}, {"current_trial": 152, "trialdata": {"rt": -1, "trial_type": "single-stim", "word": "venus", "stimulus": "<p id=\"stim\">VENUS</p>", "conditions": [24, 1600, "v", 12000], "internal_node_id": "0.0-116.0", "trial": 3, "time_elapsed": 950233, "serialpos": 23, "key_press": -1, "wordID": 1556, "type": "PRES_VIS", "trial_index": 152}, "uniqueid": "MTK3046:3KKG4CDWKJ53BMRQSV5Z19BBTCU942", "dateTime": 1519679447062}, {"current_trial": 153, "trialdata": {"rt": -1, "trial_type": "single-stim", "stimulus": "", "internal_node_id": "0.0-117.0-0.0", "time_elapsed": 952384, "key_press": -1, "type": "PRE_RECALL_DELAY", "trial_index": 153}, "uniqueid": "MTK3046:3KKG4CDWKJ53BMRQSV5Z19BBTCU942", "dateTime": 1519679449215}, {"current_trial": 154, "trialdata": {"rt": -1000, "trial_type": "single-audio", "stimulus": "/static/audio/400Hz.wav", "internal_node_id": "0.0-118.0", "time_elapsed": 952889, "key_press": -1, "type": "PRE_RECALL_ALERT", "trial_index": 154}, "uniqueid": "MTK3046:3KKG4CDWKJ53BMRQSV5Z19BBTCU942", "dateTime": 1519679449717}, {"current_trial": 155, "trialdata": {"rt": [3031, 4335, 6704, 7760, 8815, 19528, 30855, 34360], "recwords": ["venus", "jelly", "chemist", "beaker", "glass", "woodpecker", "football", "fungus"], "key_times": [691, 927, 1064, 2695, 2832, 3031, 3583, 3703, 3815, 3983, 4160, 4335, 5705, 5783, 5952, 6072, 6327, 6447, 6608, 6704, 6967, 7176, 7312, 7439, 7575, 7607, 7760, 7975, 8200, 8336, 8519, 8656, 8815, 17937, 18015, 18231, 18375, 18560, 18688, 19056, 19168, 19367, 19439, 19528, 29441, 29639, 29839, 29959, 30184, 30351, 30471, 30647, 30855, 33407, 33600, 33823, 33968, 34096, 34247, 34360], "trial_type": "free-recall", "conditions": [24, 1600, "v", 12000], "internal_node_id": "0.0-119.0-0.0", "key_presses": [86, 69, 78, 85, 83, 13, 74, 69, 76, 76, 89, 13, 67, 72, 69, 77, 73, 83, 84, 13, 66, 69, 65, 75, 69, 82, 13, 71, 76, 65, 83, 83, 13, 87, 79, 79, 68, 80, 69, 67, 75, 69, 82, 13, 70, 79, 79, 84, 66, 65, 76, 76, 13, 70, 85, 78, 71, 85, 83, 13], "trial": 3, "time_elapsed": 1012895, "type": "FREE_RECALL", "trial_index": 155}, "uniqueid": "MTK3046:3KKG4CDWKJ53BMRQSV5Z19BBTCU942", "dateTime": 1519679509731}, {"current_trial": 156, "trialdata": {"rt": 2695, "trial_type": "text", "internal_node_id": "0.0-120.0", "time_elapsed": 1017602, "key_press": 32, "type": "INSTRUCTIONS", "trial_index": 156}, "uniqueid": "MTK3046:3KKG4CDWKJ53BMRQSV5Z19BBTCU942", "dateTime": 1519679514430}, {"current_trial": 157, "trialdata": {"rt": [2636, 4155, 7140, 8772, 11812, 14548, 17036, 19364, 20948, 23587], "trial_type": "math-distractor", "key_times": [2332, 2491, 2636, 3908, 4012, 4155, 6780, 6908, 7140, 8373, 8612, 8772, 11468, 11643, 11812, 14220, 14307, 14548, 16668, 16859, 17036, 19055, 19172, 19364, 20678, 20779, 20948, 23195, 23427, 23587], "responses": ["20", "11", "16", "13", "22", "23", "14", "13", "11", "20"], "num2": [6, 4, 4, 6, 9, 5, 5, 2, 5, 4, 3], "num3": [8, 2, 4, 2, 4, 8, 1, 7, 4, 9, 9], "conditions": [12, 800, "v", 24000], "internal_node_id": "0.0-121.0", "key_presses": [98, 96, 13, 97, 97, 13, 97, 102, 13, 97, 99, 13, 98, 98, 13, 98, 99, 13, 97, 100, 13, 97, 99, 13, 97, 97, 13, 98, 96, 13], "trial": 4, "time_elapsed": 1043613, "type": "DISTRACTOR", "trial_index": 157, "num1": [6, 5, 8, 5, 9, 9, 8, 4, 2, 7, 8]}, "uniqueid": "MTK3046:3KKG4CDWKJ53BMRQSV5Z19BBTCU942", "dateTime": 1519679540441}, {"current_trial": 158, "trialdata": {"rt": -1, "trial_type": "single-stim", "stimulus": "<p id=\"stim\">10</p>", "internal_node_id": "0.0-122.0-0.0", "time_elapsed": 1046620, "key_press": -1, "trial_index": 158}, "uniqueid": "MTK3046:3KKG4CDWKJ53BMRQSV5Z19BBTCU942", "dateTime": 1519679543449}, {"current_trial": 159, "trialdata": {"rt": -1, "trial_type": "single-stim", "stimulus": "<p id=\"stim\">9</p>", "internal_node_id": "0.0-122.0-1.0", "time_elapsed": 1047625, "key_press": -1, "trial_index": 159}, "uniqueid": "MTK3046:3KKG4CDWKJ53BMRQSV5Z19BBTCU942", "dateTime": 1519679544455}, {"current_trial": 160, "trialdata": {"rt": -1, "trial_type": "single-stim", "stimulus": "<p id=\"stim\">8</p>", "internal_node_id": "0.0-122.0-2.0", "time_elapsed": 1048631, "key_press": -1, "trial_index": 160}, "uniqueid": "MTK3046:3KKG4CDWKJ53BMRQSV5Z19BBTCU942", "dateTime": 1519679545459}, {"current_trial": 161, "trialdata": {"rt": -1, "trial_type": "single-stim", "stimulus": "<p id=\"stim\">7</p>", "internal_node_id": "0.0-122.0-3.0", "time_elapsed": 1049636, "key_press": -1, "trial_index": 161}, "uniqueid": "MTK3046:3KKG4CDWKJ53BMRQSV5Z19BBTCU942", "dateTime": 1519679546464}, {"current_trial": 162, "trialdata": {"rt": -1, "trial_type": "single-stim", "stimulus": "<p id=\"stim\">6</p>", "internal_node_id": "0.0-122.0-4.0", "time_elapsed": 1050642, "key_press": -1, "trial_index": 162}, "uniqueid": "MTK3046:3KKG4CDWKJ53BMRQSV5Z19BBTCU942", "dateTime": 1519679547471}, {"current_trial": 163, "trialdata": {"rt": -1, "trial_type": "single-stim", "stimulus": "<p id=\"stim\">5</p>", "internal_node_id": "0.0-122.0-5.0", "time_elapsed": 1051650, "key_press": -1, "trial_index": 163}, "uniqueid": "MTK3046:3KKG4CDWKJ53BMRQSV5Z19BBTCU942", "dateTime": 1519679548478}, {"current_trial": 164, "trialdata": {"rt": -1, "trial_type": "single-stim", "stimulus": "<p id=\"stim\">4</p>", "internal_node_id": "0.0-122.0-6.0", "time_elapsed": 1052656, "key_press": -1, "trial_index": 164}, "uniqueid": "MTK3046:3KKG4CDWKJ53BMRQSV5Z19BBTCU942", "dateTime": 1519679549487}, {"current_trial": 165, "trialdata": {"rt": -1, "trial_type": "single-stim", "stimulus": "<p id=\"stim\">3</p>", "internal_node_id": "0.0-122.0-7.0", "time_elapsed": 1053664, "key_press": -1, "trial_index": 165}, "uniqueid": "MTK3046:3KKG4CDWKJ53BMRQSV5Z19BBTCU942", "dateTime": 1519679550492}, {"current_trial": 166, "trialdata": {"rt": -1, "trial_type": "single-stim", "stimulus": "<p id=\"stim\">2</p>", "internal_node_id": "0.0-122.0-8.0", "time_elapsed": 1054668, "key_press": -1, "trial_index": 166}, "uniqueid": "MTK3046:3KKG4CDWKJ53BMRQSV5Z19BBTCU942", "dateTime": 1519679551496}, {"current_trial": 167, "trialdata": {"rt": -1, "trial_type": "single-stim", "stimulus": "<p id=\"stim\">1</p>", "internal_node_id": "0.0-122.0-9.0", "time_elapsed": 1055672, "key_press": -1, "trial_index": 167}, "uniqueid": "MTK3046:3KKG4CDWKJ53BMRQSV5Z19BBTCU942", "dateTime": 1519679552501}, {"current_trial": 168, "trialdata": {"rt": -1, "trial_type": "single-stim", "stimulus": "<p id=\"stim\">+</p>", "internal_node_id": "0.0-123.0-0.0", "time_elapsed": 1057177, "key_press": -1, "type": "FIXATION", "trial_index": 168}, "uniqueid": "MTK3046:3KKG4CDWKJ53BMRQSV5Z19BBTCU942", "dateTime": 1519679554006}, {"current_trial": 169, "trialdata": {"rt": -1, "trial_type": "single-stim", "word": "sister", "stimulus": "<p id=\"stim\">SISTER</p>", "conditions": [12, 800, "v", 24000], "internal_node_id": "0.0-124.0", "trial": 4, "time_elapsed": 1057981, "serialpos": 0, "key_press": -1, "wordID": 1311, "type": "PRES_VIS", "trial_index": 169}, "uniqueid": "MTK3046:3KKG4CDWKJ53BMRQSV5Z19BBTCU942", "dateTime": 1519679554809}, {"current_trial": 170, "trialdata": {"rt": -1, "trial_type": "single-stim", "word": "parsley", "stimulus": "<p id=\"stim\">PARSLEY</p>", "conditions": [12, 800, "v", 24000], "internal_node_id": "0.0-125.0", "trial": 4, "time_elapsed": 1059916, "serialpos": 1, "key_press": -1, "wordID": 1015, "type": "PRES_VIS", "trial_index": 170}, "uniqueid": "MTK3046:3KKG4CDWKJ53BMRQSV5Z19BBTCU942", "dateTime": 1519679556744}, {"current_trial": 171, "trialdata": {"rt": -1, "trial_type": "single-stim", "word": "body", "stimulus": "<p id=\"stim\">BODY</p>", "conditions": [12, 800, "v", 24000], "internal_node_id": "0.0-126.0", "trial": 4, "time_elapsed": 1061679, "serialpos": 2, "key_press": -1, "wordID": 144, "type": "PRES_VIS", "trial_index": 171}, "uniqueid": "MTK3046:3KKG4CDWKJ53BMRQSV5Z19BBTCU942", "dateTime": 1519679558507}, {"current_trial": 172, "trialdata": {"rt": -1, "trial_type": "single-stim", "word": "daughter", "stimulus": "<p id=\"stim\">DAUGHTER</p>", "conditions": [12, 800, "v", 24000], "internal_node_id": "0.0-127.0", "trial": 4, "time_elapsed": 1063627, "serialpos": 3, "key_press": -1, "wordID": 441, "type": "PRES_VIS", "trial_index": 172}, "uniqueid": "MTK3046:3KKG4CDWKJ53BMRQSV5Z19BBTCU942", "dateTime": 1519679560455}, {"current_trial": 173, "trialdata": {"rt": -1, "trial_type": "single-stim", "word": "racket", "stimulus": "<p id=\"stim\">RACKET</p>", "conditions": [12, 800, "v", 24000], "internal_node_id": "0.0-128.0", "trial": 4, "time_elapsed": 1065291, "serialpos": 4, "key_press": -1, "wordID": 1154, "type": "PRES_VIS", "trial_index": 173}, "uniqueid": "MTK3046:3KKG4CDWKJ53BMRQSV5Z19BBTCU942", "dateTime": 1519679562119}, {"current_trial": 174, "trialdata": {"rt": -1, "trial_type": "single-stim", "word": "grave", "stimulus": "<p id=\"stim\">GRAVE</p>", "conditions": [12, 800, "v", 24000], "internal_node_id": "0.0-129.0", "trial": 4, "time_elapsed": 1067068, "serialpos": 5, "key_press": -1, "wordID": 657, "type": "PRES_VIS", "trial_index": 174}, "uniqueid": "MTK3046:3KKG4CDWKJ53BMRQSV5Z19BBTCU942", "dateTime": 1519679563897}, {"current_trial": 175, "trialdata": {"rt": -1, "trial_type": "single-stim", "word": "swamp", "stimulus": "<p id=\"stim\">SWAMP</p>", "conditions": [12, 800, "v", 24000], "internal_node_id": "0.0-130.0", "trial": 4, "time_elapsed": 1068856, "serialpos": 6, "key_press": -1, "wordID": 1415, "type": "PRES_VIS", "trial_index": 175}, "uniqueid": "MTK3046:3KKG4CDWKJ53BMRQSV5Z19BBTCU942", "dateTime": 1519679565684}, {"current_trial": 176, "trialdata": {"rt": -1, "trial_type": "single-stim", "word": "ketchup", "stimulus": "<p id=\"stim\">KETCHUP</p>", "conditions": [12, 800, "v", 24000], "internal_node_id": "0.0-131.0", "trial": 4, "time_elapsed": 1070645, "serialpos": 7, "key_press": -1, "wordID": 770, "type": "PRES_VIS", "trial_index": 176}, "uniqueid": "MTK3046:3KKG4CDWKJ53BMRQSV5Z19BBTCU942", "dateTime": 1519679567473}, {"current_trial": 177, "trialdata": {"rt": -1, "trial_type": "single-stim", "word": "juggler", "stimulus": "<p id=\"stim\">JUGGLER</p>", "conditions": [12, 800, "v", 24000], "internal_node_id": "0.0-132.0", "trial": 4, "time_elapsed": 1072638, "serialpos": 8, "key_press": -1, "wordID": 762, "type": "PRES_VIS", "trial_index": 177}, "uniqueid": "MTK3046:3KKG4CDWKJ53BMRQSV5Z19BBTCU942", "dateTime": 1519679569466}, {"current_trial": 178, "trialdata": {"rt": -1, "trial_type": "single-stim", "word": "flask", "stimulus": "<p id=\"stim\">FLASK</p>", "conditions": [12, 800, "v", 24000], "internal_node_id": "0.0-133.0", "trial": 4, "time_elapsed": 1074289, "serialpos": 9, "key_press": -1, "wordID": 575, "type": "PRES_VIS", "trial_index": 178}, "uniqueid": "MTK3046:3KKG4CDWKJ53BMRQSV5Z19BBTCU942", "dateTime": 1519679571118}, {"current_trial": 179, "trialdata": {"rt": -1, "trial_type": "single-stim", "word": "student", "stimulus": "<p id=\"stim\">STUDENT</p>", "conditions": [12, 800, "v", 24000], "internal_node_id": "0.0-134.0", "trial": 4, "time_elapsed": 1076246, "serialpos": 10, "key_press": -1, "wordID": 1394, "type": "PRES_VIS", "trial_index": 179}, "uniqueid": "MTK3046:3KKG4CDWKJ53BMRQSV5Z19BBTCU942", "dateTime": 1519679573075}, {"current_trial": 180, "trialdata": {"rt": -1, "trial_type": "single-stim", "word": "college", "stimulus": "<p id=\"stim\">COLLEGE</p>", "conditions": [12, 800, "v", 24000], "internal_node_id": "0.0-135.0", "trial": 4, "time_elapsed": 1078170, "serialpos": 11, "key_press": -1, "wordID": 345, "type": "PRES_VIS", "trial_index": 180}, "uniqueid": "MTK3046:3KKG4CDWKJ53BMRQSV5Z19BBTCU942", "dateTime": 1519679574999}, {"current_trial": 181, "trialdata": {"rt": -1, "trial_type": "single-stim", "stimulus": "", "internal_node_id": "0.0-136.0-0.0", "time_elapsed": 1080353, "key_press": -1, "type": "PRE_RECALL_DELAY", "trial_index": 181}, "uniqueid": "MTK3046:3KKG4CDWKJ53BMRQSV5Z19BBTCU942", "dateTime": 1519679577181}, {"current_trial": 182, "trialdata": {"rt": -1000, "trial_type": "single-audio", "stimulus": "/static/audio/400Hz.wav", "internal_node_id": "0.0-137.0", "time_elapsed": 1080855, "key_press": -1, "type": "PRE_RECALL_ALERT", "trial_index": 182}, "uniqueid": "MTK3046:3KKG4CDWKJ53BMRQSV5Z19BBTCU942", "dateTime": 1519679577683}, {"current_trial": 183, "trialdata": {"rt": [1963, 3843, 5316, 9675, 10683, 12572, 29179, 54100], "recwords": ["flask", "student", "college", "parsley", "sister", "daughter", "student", "flask"], "key_times": [1221, 1387, 1507, 1619, 1788, 1963, 2619, 2813, 2980, 3132, 3339, 3420, 3547, 3843, 4387, 4491, 4700, 4819, 4900, 5059, 5220, 5316, 8420, 8571, 8627, 8875, 9180, 9323, 9499, 9675, 9884, 10035, 10164, 10316, 10459, 10524, 10683, 11349, 11516, 11675, 11795, 11956, 12205, 12387, 12444, 12572, 28205, 28372, 28475, 28700, 28884, 28972, 29099, 29179, 53532, 53668, 53700, 53813, 53899, 54100], "trial_type": "free-recall", "conditions": [12, 800, "v", 24000], "internal_node_id": "0.0-138.0-0.0", "key_presses": [70, 76, 65, 83, 75, 32, 83, 84, 85, 68, 69, 78, 84, 13, 67, 79, 76, 76, 69, 71, 69, 13, 80, 65, 82, 83, 76, 69, 89, 13, 83, 73, 83, 84, 69, 82, 13, 68, 65, 85, 71, 72, 84, 69, 82, 13, 83, 84, 85, 68, 69, 78, 84, 13, 70, 76, 65, 83, 75, 13], "trial": 4, "time_elapsed": 1140860, "type": "FREE_RECALL", "trial_index": 183}, "uniqueid": "MTK3046:3KKG4CDWKJ53BMRQSV5Z19BBTCU942", "dateTime": 1519679637694}, {"current_trial": 184, "trialdata": {"rt": 787, "trial_type": "text", "internal_node_id": "0.0-139.0", "time_elapsed": 1143658, "key_press": 32, "type": "INSTRUCTIONS", "trial_index": 184}, "uniqueid": "MTK3046:3KKG4CDWKJ53BMRQSV5Z19BBTCU942", "dateTime": 1519679640486}, {"current_trial": 185, "trialdata": {"rt": [4221, 6462, 10640, 12767, 12870, 15095, 17262, 19054, 21998], "trial_type": "math-distractor", "key_times": [4016, 4221, 6126, 6238, 6462, 10231, 10270, 10640, 12174, 12182, 12767, 12870, 14761, 14918, 15095, 16895, 17054, 17262, 18622, 18854, 19054, 21662, 21782, 21998, 23776], "responses": ["8", "19", "13", "12", "", "15", "12", "19", "20"], "num2": [2, 6, 2, 4, 6, 1, 3, 8, 2, 8], "num3": [1, 8, 4, 4, 7, 5, 5, 3, 9, 8], "conditions": [12, 800, "v", 24000], "internal_node_id": "0.0-140.0", "key_presses": [104, 13, 97, 105, 13, 97, 99, 13, 97, 98, 13, 13, 97, 101, 13, 97, 98, 13, 97, 105, 13, 98, 96, 13, 97], "trial": 5, "time_elapsed": 1169665, "type": "DISTRACTOR", "trial_index": 185, "num1": [5, 5, 7, 4, 7, 9, 4, 8, 9, 2]}, "uniqueid": "MTK3046:3KKG4CDWKJ53BMRQSV5Z19BBTCU942", "dateTime": 1519679666494}, {"current_trial": 186, "trialdata": {"rt": -1, "trial_type": "single-stim", "stimulus": "<p id=\"stim\">10</p>", "internal_node_id": "0.0-141.0-0.0", "time_elapsed": 1172675, "key_press": -1, "trial_index": 186}, "uniqueid": "MTK3046:3KKG4CDWKJ53BMRQSV5Z19BBTCU942", "dateTime": 1519679669504}, {"current_trial": 187, "trialdata": {"rt": -1, "trial_type": "single-stim", "stimulus": "<p id=\"stim\">9</p>", "internal_node_id": "0.0-141.0-1.0", "time_elapsed": 1173680, "key_press": -1, "trial_index": 187}, "uniqueid": "MTK3046:3KKG4CDWKJ53BMRQSV5Z19BBTCU942", "dateTime": 1519679670508}, {"current_trial": 188, "trialdata": {"rt": -1, "trial_type": "single-stim", "stimulus": "<p id=\"stim\">8</p>", "internal_node_id": "0.0-141.0-2.0", "time_elapsed": 1174685, "key_press": -1, "trial_index": 188}, "uniqueid": "MTK3046:3KKG4CDWKJ53BMRQSV5Z19BBTCU942", "dateTime": 1519679671513}, {"current_trial": 189, "trialdata": {"rt": -1, "trial_type": "single-stim", "stimulus": "<p id=\"stim\">7</p>", "internal_node_id": "0.0-141.0-3.0", "time_elapsed": 1175690, "key_press": -1, "trial_index": 189}, "uniqueid": "MTK3046:3KKG4CDWKJ53BMRQSV5Z19BBTCU942", "dateTime": 1519679672519}, {"current_trial": 190, "trialdata": {"rt": -1, "trial_type": "single-stim", "stimulus": "<p id=\"stim\">6</p>", "internal_node_id": "0.0-141.0-4.0", "time_elapsed": 1176696, "key_press": -1, "trial_index": 190}, "uniqueid": "MTK3046:3KKG4CDWKJ53BMRQSV5Z19BBTCU942", "dateTime": 1519679673524}, {"current_trial": 191, "trialdata": {"rt": -1, "trial_type": "single-stim", "stimulus": "<p id=\"stim\">5</p>", "internal_node_id": "0.0-141.0-5.0", "time_elapsed": 1177700, "key_press": -1, "trial_index": 191}, "uniqueid": "MTK3046:3KKG4CDWKJ53BMRQSV5Z19BBTCU942", "dateTime": 1519679674529}, {"current_trial": 192, "trialdata": {"rt": -1, "trial_type": "single-stim", "stimulus": "<p id=\"stim\">4</p>", "internal_node_id": "0.0-141.0-6.0", "time_elapsed": 1178704, "key_press": -1, "trial_index": 192}, "uniqueid": "MTK3046:3KKG4CDWKJ53BMRQSV5Z19BBTCU942", "dateTime": 1519679675533}, {"current_trial": 193, "trialdata": {"rt": -1, "trial_type": "single-stim", "stimulus": "<p id=\"stim\">3</p>", "internal_node_id": "0.0-141.0-7.0", "time_elapsed": 1179709, "key_press": -1, "trial_index": 193}, "uniqueid": "MTK3046:3KKG4CDWKJ53BMRQSV5Z19BBTCU942", "dateTime": 1519679676538}, {"current_trial": 194, "trialdata": {"rt": -1, "trial_type": "single-stim", "stimulus": "<p id=\"stim\">2</p>", "internal_node_id": "0.0-141.0-8.0", "time_elapsed": 1180714, "key_press": -1, "trial_index": 194}, "uniqueid": "MTK3046:3KKG4CDWKJ53BMRQSV5Z19BBTCU942", "dateTime": 1519679677543}, {"current_trial": 195, "trialdata": {"rt": -1, "trial_type": "single-stim", "stimulus": "<p id=\"stim\">1</p>", "internal_node_id": "0.0-141.0-9.0", "time_elapsed": 1181719, "key_press": -1, "trial_index": 195}, "uniqueid": "MTK3046:3KKG4CDWKJ53BMRQSV5Z19BBTCU942", "dateTime": 1519679678547}, {"current_trial": 196, "trialdata": {"rt": -1, "trial_type": "single-stim", "stimulus": "<p id=\"stim\">+</p>", "internal_node_id": "0.0-142.0-0.0", "time_elapsed": 1183226, "key_press": -1, "type": "FIXATION", "trial_index": 196}, "uniqueid": "MTK3046:3KKG4CDWKJ53BMRQSV5Z19BBTCU942", "dateTime": 1519679680054}, {"current_trial": 197, "trialdata": {"rt": -1, "trial_type": "single-stim", "word": "dustpan", "stimulus": "<p id=\"stim\">DUSTPAN</p>", "conditions": [12, 800, "v", 24000], "internal_node_id": "0.0-143.0", "trial": 5, "time_elapsed": 1184030, "serialpos": 0, "key_press": -1, "wordID": 508, "type": "PRES_VIS", "trial_index": 197}, "uniqueid": "MTK3046:3KKG4CDWKJ53BMRQSV5Z19BBTCU942", "dateTime": 1519679680858}, {"current_trial": 198, "trialdata": {"rt": -1, "trial_type": "single-stim", "word": "lapel", "stimulus": "<p id=\"stim\">LAPEL</p>", "conditions": [12, 800, "v", 24000], "internal_node_id": "0.0-144.0", "trial": 5, "time_elapsed": 1185916, "serialpos": 1, "key_press": -1, "wordID": 799, "type": "PRES_VIS", "trial_index": 198}, "uniqueid": "MTK3046:3KKG4CDWKJ53BMRQSV5Z19BBTCU942", "dateTime": 1519679682744}, {"current_trial": 199, "trialdata": {"rt": -1, "trial_type": "single-stim", "word": "shorts", "stimulus": "<p id=\"stim\">SHORTS</p>", "conditions": [12, 800, "v", 24000], "internal_node_id": "0.0-145.0", "trial": 5, "time_elapsed": 1187787, "serialpos": 2, "key_press": -1, "wordID": 1292, "type": "PRES_VIS", "trial_index": 199}, "uniqueid": "MTK3046:3KKG4CDWKJ53BMRQSV5Z19BBTCU942", "dateTime": 1519679684616}, {"current_trial": 200, "trialdata": {"rt": -1, "trial_type": "single-stim", "word": "stone", "stimulus": "<p id=\"stim\">STONE</p>", "conditions": [12, 800, "v", 24000], "internal_node_id": "0.0-146.0", "trial": 5, "time_elapsed": 1189723, "serialpos": 3, "key_press": -1, "wordID": 1384, "type": "PRES_VIS", "trial_index": 200}, "uniqueid": "MTK3046:3KKG4CDWKJ53BMRQSV5Z19BBTCU942", "dateTime": 1519679686551}, {"current_trial": 201, "trialdata": {"rt": -1, "trial_type": "single-stim", "word": "arm", "stimulus": "<p id=\"stim\">ARM</p>", "conditions": [12, 800, "v", 24000], "internal_node_id": "0.0-147.0", "trial": 5, "time_elapsed": 1191385, "serialpos": 4, "key_press": -1, "wordID": 37, "type": "PRES_VIS", "trial_index": 201}, "uniqueid": "MTK3046:3KKG4CDWKJ53BMRQSV5Z19BBTCU942", "dateTime": 1519679688214}, {"current_trial": 202, "trialdata": {"rt": -1, "trial_type": "single-stim", "word": "cigar", "stimulus": "<p id=\"stim\">CIGAR</p>", "conditions": [12, 800, "v", 24000], "internal_node_id": "0.0-148.0", "trial": 5, "time_elapsed": 1193357, "serialpos": 5, "key_press": -1, "wordID": 307, "type": "PRES_VIS", "trial_index": 202}, "uniqueid": "MTK3046:3KKG4CDWKJ53BMRQSV5Z19BBTCU942", "dateTime": 1519679690185}, {"current_trial": 203, "trialdata": {"rt": -1, "trial_type": "single-stim", "word": "possum", "stimulus": "<p id=\"stim\">POSSUM</p>", "conditions": [12, 800, "v", 24000], "internal_node_id": "0.0-149.0", "trial": 5, "time_elapsed": 1195352, "serialpos": 6, "key_press": -1, "wordID": 1111, "type": "PRES_VIS", "trial_index": 203}, "uniqueid": "MTK3046:3KKG4CDWKJ53BMRQSV5Z19BBTCU942", "dateTime": 1519679692181}, {"current_trial": 204, "trialdata": {"rt": -1, "trial_type": "single-stim", "word": "panther", "stimulus": "<p id=\"stim\">PANTHER</p>", "conditions": [12, 800, "v", 24000], "internal_node_id": "0.0-150.0", "trial": 5, "time_elapsed": 1197271, "serialpos": 7, "key_press": -1, "wordID": 1008, "type": "PRES_VIS", "trial_index": 204}, "uniqueid": "MTK3046:3KKG4CDWKJ53BMRQSV5Z19BBTCU942", "dateTime": 1519679694099}, {"current_trial": 205, "trialdata": {"rt": -1, "trial_type": "single-stim", "word": "empire", "stimulus": "<p id=\"stim\">EMPIRE</p>", "conditions": [12, 800, "v", 24000], "internal_node_id": "0.0-151.0", "trial": 5, "time_elapsed": 1199009, "serialpos": 8, "key_press": -1, "wordID": 529, "type": "PRES_VIS", "trial_index": 205}, "uniqueid": "MTK3046:3KKG4CDWKJ53BMRQSV5Z19BBTCU942", "dateTime": 1519679695837}, {"current_trial": 206, "trialdata": {"rt": -1, "trial_type": "single-stim", "word": "lipstick", "stimulus": "<p id=\"stim\">LIPSTICK</p>", "conditions": [12, 800, "v", 24000], "internal_node_id": "0.0-152.0", "trial": 5, "time_elapsed": 1200732, "serialpos": 9, "key_press": -1, "wordID": 828, "type": "PRES_VIS", "trial_index": 206}, "uniqueid": "MTK3046:3KKG4CDWKJ53BMRQSV5Z19BBTCU942", "dateTime": 1519679697561}, {"current_trial": 207, "trialdata": {"rt": -1, "trial_type": "single-stim", "word": "garlic", "stimulus": "<p id=\"stim\">GARLIC</p>", "conditions": [12, 800, "v", 24000], "internal_node_id": "0.0-153.0", "trial": 5, "time_elapsed": 1202502, "serialpos": 10, "key_press": -1, "wordID": 623, "type": "PRES_VIS", "trial_index": 207}, "uniqueid": "MTK3046:3KKG4CDWKJ53BMRQSV5Z19BBTCU942", "dateTime": 1519679699330}, {"current_trial": 208, "trialdata": {"rt": -1, "trial_type": "single-stim", "word": "brick", "stimulus": "<p id=\"stim\">BRICK</p>", "conditions": [12, 800, "v", 24000], "internal_node_id": "0.0-154.0", "trial": 5, "time_elapsed": 1204290, "serialpos": 11, "key_press": -1, "wordID": 171, "type": "PRES_VIS", "trial_index": 208}, "uniqueid": "MTK3046:3KKG4CDWKJ53BMRQSV5Z19BBTCU942", "dateTime": 1519679701118}, {"current_trial": 209, "trialdata": {"rt": -1, "trial_type": "single-stim", "stimulus": "", "internal_node_id": "0.0-155.0-0.0", "time_elapsed": 1206489, "key_press": -1, "type": "PRE_RECALL_DELAY", "trial_index": 209}, "uniqueid": "MTK3046:3KKG4CDWKJ53BMRQSV5Z19BBTCU942", "dateTime": 1519679703317}, {"current_trial": 210, "trialdata": {"rt": -1000, "trial_type": "single-audio", "stimulus": "/static/audio/400Hz.wav", "internal_node_id": "0.0-156.0", "time_elapsed": 1206992, "key_press": -1, "type": "PRE_RECALL_ALERT", "trial_index": 210}, "uniqueid": "MTK3046:3KKG4CDWKJ53BMRQSV5Z19BBTCU942", "dateTime": 1519679703821}, {"current_trial": 211, "trialdata": {"rt": [3865, 5073, 6169, 7778, 9106, 13185, 15913], "recwords": ["lipstick", "garlic", "brick", "dustpan", "lapel", "stick", "shorts"], "key_times": [2507, 2738, 2897, 3113, 3329, 3434, 3585, 3665, 3865, 4194, 4329, 4545, 4666, 4762, 4922, 5073, 5426, 5634, 5714, 5897, 5993, 6169, 6721, 6866, 6985, 7097, 7242, 7442, 7587, 7778, 8146, 8409, 8571, 8714, 8882, 9106, 12354, 12522, 12722, 12866, 12977, 13185, 15178, 15282, 15370, 15507, 15667, 15817, 15913], "trial_type": "free-recall", "conditions": [12, 800, "v", 24000], "internal_node_id": "0.0-157.0-0.0", "key_presses": [76, 73, 80, 83, 84, 73, 67, 75, 13, 71, 65, 82, 76, 73, 67, 13, 66, 82, 73, 67, 75, 13, 68, 85, 83, 84, 80, 65, 78, 13, 76, 65, 80, 69, 76, 13, 83, 84, 73, 67, 75, 13, 83, 72, 79, 82, 84, 83, 13], "trial": 5, "time_elapsed": 1266998, "type": "FREE_RECALL", "trial_index": 211}, "uniqueid": "MTK3046:3KKG4CDWKJ53BMRQSV5Z19BBTCU942", "dateTime": 1519679763831}, {"current_trial": 212, "trialdata": {"rt": 1220, "trial_type": "text", "internal_node_id": "0.0-158.0", "time_elapsed": 1270224, "key_press": 32, "type": "INSTRUCTIONS", "trial_index": 212}, "uniqueid": "MTK3046:3KKG4CDWKJ53BMRQSV5Z19BBTCU942", "dateTime": 1519679767052}, {"current_trial": 213, "trialdata": {"rt": [1706, 3442, 5466, 7602, 10818], "trial_type": "math-distractor", "key_times": [1499, 1706, 3090, 3201, 3442, 5178, 5314, 5466, 7339, 7409, 7602, 10518, 10650, 10818], "responses": ["8", "12", "20", "15", "22"], "num2": [3, 5, 4, 3, 8, 2], "num3": [2, 2, 9, 4, 6, 7], "conditions": [24, 1600, "v", 12000], "internal_node_id": "0.0-159.0", "key_presses": [104, 13, 97, 98, 13, 98, 96, 13, 97, 101, 13, 98, 98, 13], "trial": 6, "time_elapsed": 1284237, "type": "DISTRACTOR", "trial_index": 213, "num1": [3, 5, 7, 8, 8, 3]}, "uniqueid": "MTK3046:3KKG4CDWKJ53BMRQSV5Z19BBTCU942", "dateTime": 1519679781066}, {"current_trial": 214, "trialdata": {"rt": -1, "trial_type": "single-stim", "stimulus": "<p id=\"stim\">10</p>", "internal_node_id": "0.0-160.0-0.0", "time_elapsed": 1287243, "key_press": -1, "trial_index": 214}, "uniqueid": "MTK3046:3KKG4CDWKJ53BMRQSV5Z19BBTCU942", "dateTime": 1519679784072}, {"current_trial": 215, "trialdata": {"rt": -1, "trial_type": "single-stim", "stimulus": "<p id=\"stim\">9</p>", "internal_node_id": "0.0-160.0-1.0", "time_elapsed": 1288247, "key_press": -1, "trial_index": 215}, "uniqueid": "MTK3046:3KKG4CDWKJ53BMRQSV5Z19BBTCU942", "dateTime": 1519679785077}, {"current_trial": 216, "trialdata": {"rt": -1, "trial_type": "single-stim", "stimulus": "<p id=\"stim\">8</p>", "internal_node_id": "0.0-160.0-2.0", "time_elapsed": 1289256, "key_press": -1, "trial_index": 216}, "uniqueid": "MTK3046:3KKG4CDWKJ53BMRQSV5Z19BBTCU942", "dateTime": 1519679786085}, {"current_trial": 217, "trialdata": {"rt": -1, "trial_type": "single-stim", "stimulus": "<p id=\"stim\">7</p>", "internal_node_id": "0.0-160.0-3.0", "time_elapsed": 1290260, "key_press": -1, "trial_index": 217}, "uniqueid": "MTK3046:3KKG4CDWKJ53BMRQSV5Z19BBTCU942", "dateTime": 1519679787089}, {"current_trial": 218, "trialdata": {"rt": -1, "trial_type": "single-stim", "stimulus": "<p id=\"stim\">6</p>", "internal_node_id": "0.0-160.0-4.0", "time_elapsed": 1291265, "key_press": -1, "trial_index": 218}, "uniqueid": "MTK3046:3KKG4CDWKJ53BMRQSV5Z19BBTCU942", "dateTime": 1519679788093}, {"current_trial": 219, "trialdata": {"rt": -1, "trial_type": "single-stim", "stimulus": "<p id=\"stim\">5</p>", "internal_node_id": "0.0-160.0-5.0", "time_elapsed": 1292269, "key_press": -1, "trial_index": 219}, "uniqueid": "MTK3046:3KKG4CDWKJ53BMRQSV5Z19BBTCU942", "dateTime": 1519679789097}, {"current_trial": 220, "trialdata": {"rt": -1, "trial_type": "single-stim", "stimulus": "<p id=\"stim\">4</p>", "internal_node_id": "0.0-160.0-6.0", "time_elapsed": 1293273, "key_press": -1, "trial_index": 220}, "uniqueid": "MTK3046:3KKG4CDWKJ53BMRQSV5Z19BBTCU942", "dateTime": 1519679790102}, {"current_trial": 221, "trialdata": {"rt": -1, "trial_type": "single-stim", "stimulus": "<p id=\"stim\">3</p>", "internal_node_id": "0.0-160.0-7.0", "time_elapsed": 1294278, "key_press": -1, "trial_index": 221}, "uniqueid": "MTK3046:3KKG4CDWKJ53BMRQSV5Z19BBTCU942", "dateTime": 1519679791107}, {"current_trial": 222, "trialdata": {"rt": -1, "trial_type": "single-stim", "stimulus": "<p id=\"stim\">2</p>", "internal_node_id": "0.0-160.0-8.0", "time_elapsed": 1295283, "key_press": -1, "trial_index": 222}, "uniqueid": "MTK3046:3KKG4CDWKJ53BMRQSV5Z19BBTCU942", "dateTime": 1519679792112}, {"current_trial": 223, "trialdata": {"rt": -1, "trial_type": "single-stim", "stimulus": "<p id=\"stim\">1</p>", "internal_node_id": "0.0-160.0-9.0", "time_elapsed": 1296287, "key_press": -1, "trial_index": 223}, "uniqueid": "MTK3046:3KKG4CDWKJ53BMRQSV5Z19BBTCU942", "dateTime": 1519679793115}, {"current_trial": 224, "trialdata": {"rt": -1, "trial_type": "single-stim", "stimulus": "<p id=\"stim\">+</p>", "internal_node_id": "0.0-161.0-0.0", "time_elapsed": 1297790, "key_press": -1, "type": "FIXATION", "trial_index": 224}, "uniqueid": "MTK3046:3KKG4CDWKJ53BMRQSV5Z19BBTCU942", "dateTime": 1519679794618}, {"current_trial": 225, "trialdata": {"rt": -1, "trial_type": "single-stim", "word": "creature", "stimulus": "<p id=\"stim\">CREATURE</p>", "conditions": [24, 1600, "v", 12000], "internal_node_id": "0.0-162.0", "trial": 6, "time_elapsed": 1299393, "serialpos": 0, "key_press": -1, "wordID": 402, "type": "PRES_VIS", "trial_index": 225}, "uniqueid": "MTK3046:3KKG4CDWKJ53BMRQSV5Z19BBTCU942", "dateTime": 1519679796222}, {"current_trial": 226, "trialdata": {"rt": -1, "trial_type": "single-stim", "word": "omelet", "stimulus": "<p id=\"stim\">OMELET</p>", "conditions": [24, 1600, "v", 12000], "internal_node_id": "0.0-163.0", "trial": 6, "time_elapsed": 1301951, "serialpos": 1, "key_press": -1, "wordID": 975, "type": "PRES_VIS", "trial_index": 226}, "uniqueid": "MTK3046:3KKG4CDWKJ53BMRQSV5Z19BBTCU942", "dateTime": 1519679798779}, {"current_trial": 227, "trialdata": {"rt": -1, "trial_type": "single-stim", "word": "staple", "stimulus": "<p id=\"stim\">STAPLE</p>", "conditions": [24, 1600, "v", 12000], "internal_node_id": "0.0-164.0", "trial": 6, "time_elapsed": 1304674, "serialpos": 2, "key_press": -1, "wordID": 1370, "type": "PRES_VIS", "trial_index": 227}, "uniqueid": "MTK3046:3KKG4CDWKJ53BMRQSV5Z19BBTCU942", "dateTime": 1519679801502}, {"current_trial": 228, "trialdata": {"rt": -1, "trial_type": "single-stim", "word": "costume", "stimulus": "<p id=\"stim\">COSTUME</p>", "conditions": [24, 1600, "v", 12000], "internal_node_id": "0.0-165.0", "trial": 6, "time_elapsed": 1307413, "serialpos": 3, "key_press": -1, "wordID": 382, "type": "PRES_VIS", "trial_index": 228}, "uniqueid": "MTK3046:3KKG4CDWKJ53BMRQSV5Z19BBTCU942", "dateTime": 1519679804241}, {"current_trial": 229, "trialdata": {"rt": -1, "trial_type": "single-stim", "word": "scarecrow", "stimulus": "<p id=\"stim\">SCARECROW</p>", "conditions": [24, 1600, "v", 12000], "internal_node_id": "0.0-166.0", "trial": 6, "time_elapsed": 1310197, "serialpos": 4, "key_press": -1, "wordID": 1244, "type": "PRES_VIS", "trial_index": 229}, "uniqueid": "MTK3046:3KKG4CDWKJ53BMRQSV5Z19BBTCU942", "dateTime": 1519679807025}, {"current_trial": 230, "trialdata": {"rt": -1, "trial_type": "single-stim", "word": "bacon", "stimulus": "<p id=\"stim\">BACON</p>", "conditions": [24, 1600, "v", 12000], "internal_node_id": "0.0-167.0", "trial": 6, "time_elapsed": 1312926, "serialpos": 5, "key_press": -1, "wordID": 66, "type": "PRES_VIS", "trial_index": 230}, "uniqueid": "MTK3046:3KKG4CDWKJ53BMRQSV5Z19BBTCU942", "dateTime": 1519679809754}, {"current_trial": 231, "trialdata": {"rt": -1, "trial_type": "single-stim", "word": "shark", "stimulus": "<p id=\"stim\">SHARK</p>", "conditions": [24, 1600, "v", 12000], "internal_node_id": "0.0-168.0", "trial": 6, "time_elapsed": 1315640, "serialpos": 6, "key_press": -1, "wordID": 1274, "type": "PRES_VIS", "trial_index": 231}, "uniqueid": "MTK3046:3KKG4CDWKJ53BMRQSV5Z19BBTCU942", "dateTime": 1519679812468}, {"current_trial": 232, "trialdata": {"rt": -1, "trial_type": "single-stim", "word": "sculpture", "stimulus": "<p id=\"stim\">SCULPTURE</p>", "conditions": [24, 1600, "v", 12000], "internal_node_id": "0.0-169.0", "trial": 6, "time_elapsed": 1318396, "serialpos": 7, "key_press": -1, "wordID": 1257, "type": "PRES_VIS", "trial_index": 232}, "uniqueid": "MTK3046:3KKG4CDWKJ53BMRQSV5Z19BBTCU942", "dateTime": 1519679815224}, {"current_trial": 233, "trialdata": {"rt": -1, "trial_type": "single-stim", "word": "plaid", "stimulus": "<p id=\"stim\">PLAID</p>", "conditions": [24, 1600, "v", 12000], "internal_node_id": "0.0-170.0", "trial": 6, "time_elapsed": 1321096, "serialpos": 8, "key_press": -1, "wordID": 1079, "type": "PRES_VIS", "trial_index": 233}, "uniqueid": "MTK3046:3KKG4CDWKJ53BMRQSV5Z19BBTCU942", "dateTime": 1519679817925}, {"current_trial": 234, "trialdata": {"rt": -1, "trial_type": "single-stim", "word": "mask", "stimulus": "<p id=\"stim\">MASK</p>", "conditions": [24, 1600, "v", 12000], "internal_node_id": "0.0-171.0", "trial": 6, "time_elapsed": 1323801, "serialpos": 9, "key_press": -1, "wordID": 875, "type": "PRES_VIS", "trial_index": 234}, "uniqueid": "MTK3046:3KKG4CDWKJ53BMRQSV5Z19BBTCU942", "dateTime": 1519679820629}, {"current_trial": 235, "trialdata": {"rt": -1, "trial_type": "single-stim", "word": "robber", "stimulus": "<p id=\"stim\">ROBBER</p>", "conditions": [24, 1600, "v", 12000], "internal_node_id": "0.0-172.0", "trial": 6, "time_elapsed": 1326357, "serialpos": 10, "key_press": -1, "wordID": 1196, "type": "PRES_VIS", "trial_index": 235}, "uniqueid": "MTK3046:3KKG4CDWKJ53BMRQSV5Z19BBTCU942", "dateTime": 1519679823185}, {"current_trial": 236, "trialdata": {"rt": -1, "trial_type": "single-stim", "word": "sunrise", "stimulus": "<p id=\"stim\">SUNRISE</p>", "conditions": [24, 1600, "v", 12000], "internal_node_id": "0.0-173.0", "trial": 6, "time_elapsed": 1329067, "serialpos": 11, "key_press": -1, "wordID": 1406, "type": "PRES_VIS", "trial_index": 236}, "uniqueid": "MTK3046:3KKG4CDWKJ53BMRQSV5Z19BBTCU942", "dateTime": 1519679825896}, {"current_trial": 237, "trialdata": {"rt": -1, "trial_type": "single-stim", "word": "shoulder", "stimulus": "<p id=\"stim\">SHOULDER</p>", "conditions": [24, 1600, "v", 12000], "internal_node_id": "0.0-174.0", "trial": 6, "time_elapsed": 1331840, "serialpos": 12, "key_press": -1, "wordID": 1293, "type": "PRES_VIS", "trial_index": 237}, "uniqueid": "MTK3046:3KKG4CDWKJ53BMRQSV5Z19BBTCU942", "dateTime": 1519679828668}, {"current_trial": 238, "trialdata": {"rt": -1, "trial_type": "single-stim", "word": "bucket", "stimulus": "<p id=\"stim\">BUCKET</p>", "conditions": [24, 1600, "v", 12000], "internal_node_id": "0.0-175.0", "trial": 6, "time_elapsed": 1334479, "serialpos": 13, "key_press": -1, "wordID": 183, "type": "PRES_VIS", "trial_index": 238}, "uniqueid": "MTK3046:3KKG4CDWKJ53BMRQSV5Z19BBTCU942", "dateTime": 1519679831307}, {"current_trial": 239, "trialdata": {"rt": -1, "trial_type": "single-stim", "word": "custard", "stimulus": "<p id=\"stim\">CUSTARD</p>", "conditions": [24, 1600, "v", 12000], "internal_node_id": "0.0-176.0", "trial": 6, "time_elapsed": 1337170, "serialpos": 14, "key_press": -1, "wordID": 428, "type": "PRES_VIS", "trial_index": 239}, "uniqueid": "MTK3046:3KKG4CDWKJ53BMRQSV5Z19BBTCU942", "dateTime": 1519679833998}, {"current_trial": 240, "trialdata": {"rt": -1, "trial_type": "single-stim", "word": "record", "stimulus": "<p id=\"stim\">RECORD</p>", "conditions": [24, 1600, "v", 12000], "internal_node_id": "0.0-177.0", "trial": 6, "time_elapsed": 1339677, "serialpos": 15, "key_press": -1, "wordID": 1175, "type": "PRES_VIS", "trial_index": 240}, "uniqueid": "MTK3046:3KKG4CDWKJ53BMRQSV5Z19BBTCU942", "dateTime": 1519679836505}, {"current_trial": 241, "trialdata": {"rt": -1, "trial_type": "single-stim", "word": "buggy", "stimulus": "<p id=\"stim\">BUGGY</p>", "conditions": [24, 1600, "v", 12000], "internal_node_id": "0.0-178.0", "trial": 6, "time_elapsed": 1342414, "serialpos": 16, "key_press": -1, "wordID": 187, "type": "PRES_VIS", "trial_index": 241}, "uniqueid": "MTK3046:3KKG4CDWKJ53BMRQSV5Z19BBTCU942", "dateTime": 1519679839242}, {"current_trial": 242, "trialdata": {"rt": -1, "trial_type": "single-stim", "word": "france", "stimulus": "<p id=\"stim\">FRANCE</p>", "conditions": [24, 1600, "v", 12000], "internal_node_id": "0.0-179.0", "trial": 6, "time_elapsed": 1344877, "serialpos": 17, "key_press": -1, "wordID": 600, "type": "PRES_VIS", "trial_index": 242}, "uniqueid": "MTK3046:3KKG4CDWKJ53BMRQSV5Z19BBTCU942", "dateTime": 1519679841706}, {"current_trial": 243, "trialdata": {"rt": -1, "trial_type": "single-stim", "word": "london", "stimulus": "<p id=\"stim\">LONDON</p>", "conditions": [24, 1600, "v", 12000], "internal_node_id": "0.0-180.0", "trial": 6, "time_elapsed": 1347612, "serialpos": 18, "key_press": -1, "wordID": 842, "type": "PRES_VIS", "trial_index": 243}, "uniqueid": "MTK3046:3KKG4CDWKJ53BMRQSV5Z19BBTCU942", "dateTime": 1519679844441}, {"current_trial": 244, "trialdata": {"rt": -1, "trial_type": "single-stim", "word": "jungle", "stimulus": "<p id=\"stim\">JUNGLE</p>", "conditions": [24, 1600, "v", 12000], "internal_node_id": "0.0-181.0", "trial": 6, "time_elapsed": 1350352, "serialpos": 19, "key_press": -1, "wordID": 763, "type": "PRES_VIS", "trial_index": 244}, "uniqueid": "MTK3046:3KKG4CDWKJ53BMRQSV5Z19BBTCU942", "dateTime": 1519679847180}, {"current_trial": 245, "trialdata": {"rt": -1, "trial_type": "single-stim", "word": "temple", "stimulus": "<p id=\"stim\">TEMPLE</p>", "conditions": [24, 1600, "v", 12000], "internal_node_id": "0.0-182.0", "trial": 6, "time_elapsed": 1353150, "serialpos": 20, "key_press": -1, "wordID": 1447, "type": "PRES_VIS", "trial_index": 245}, "uniqueid": "MTK3046:3KKG4CDWKJ53BMRQSV5Z19BBTCU942", "dateTime": 1519679849979}, {"current_trial": 246, "trialdata": {"rt": -1, "trial_type": "single-stim", "word": "worker", "stimulus": "<p id=\"stim\">WORKER</p>", "conditions": [24, 1600, "v", 12000], "internal_node_id": "0.0-183.0", "trial": 6, "time_elapsed": 1355878, "serialpos": 21, "key_press": -1, "wordID": 1620, "type": "PRES_VIS", "trial_index": 246}, "uniqueid": "MTK3046:3KKG4CDWKJ53BMRQSV5Z19BBTCU942", "dateTime": 1519679852706}, {"current_trial": 247, "trialdata": {"rt": -1, "trial_type": "single-stim", "word": "pastry", "stimulus": "<p id=\"stim\">PASTRY</p>", "conditions": [24, 1600, "v", 12000], "internal_node_id": "0.0-184.0", "trial": 6, "time_elapsed": 1358356, "serialpos": 22, "key_press": -1, "wordID": 1021, "type": "PRES_VIS", "trial_index": 247}, "uniqueid": "MTK3046:3KKG4CDWKJ53BMRQSV5Z19BBTCU942", "dateTime": 1519679855185}, {"current_trial": 248, "trialdata": {"rt": -1, "trial_type": "single-stim", "word": "bug", "stimulus": "<p id=\"stim\">BUG</p>", "conditio