{"assignmentId": "3ZR9AIQJUCGLFS3DSZM68YAIRLI40U", "workerId": "MTK3651", "questiondata": {"origin": "Peru", "strat-rehearsal": "96", "marital": "Married/Domestic Partnership", "education": "Bachelor's degree", "ethnicity": "Hispanic", "color_depth": 24, "distracted": "No", "wrote-notes": "No", "strat-other": "", "screen_width": 1680, "avail_screen_width": 1680, "avail_screen_height": 1010, "strat-image": "60", "language": "Spanish", "gender": "Male", "age": "43", "gender_other": "", "race": ["Other"], "strat-categorize": "98", "pixel_depth": 24, "strat-spatial": "0", "strat-story": "1", "race_other": "Mixed Latino", "screen_height": 1050}, "bonus": 0, "hitId": "3PCPFX4U40XHEH773C72PO2781IFQW", "counterbalance": 1076, "useragent": "Mozilla/5.0 (Windows NT 6.1; Win64; x64) AppleWebKit/537.36 (KHTML, like Gecko) Chrome/64.0.3282.186 Safari/537.36", "eventdata": [{"eventtype": "initialized", "interval": 0, "value": null, "timestamp": 1520877676512}, {"eventtype": "window_resize", "interval": 0, "value": [1680, 960], "timestamp": 1520877676512}, {"eventtype": "window_resize", "interval": 35068, "value": [1680, 1004], "timestamp": 1520877711580}, {"eventtype": "focus", "interval": 683478, "value": "off", "timestamp": 1520878395058}, {"eventtype": "focus", "interval": 8825, "value": "on", "timestamp": 1520878403883}, {"eventtype": "focus", "interval": 146221, "value": "off", "timestamp": 1520878550104}, {"eventtype": "focus", "interval": 18936, "value": "on", "timestamp": 1520878569040}, {"eventtype": "focus", "interval": 248776, "value": "off", "timestamp": 1520878817816}, {"eventtype": "focus", "interval": 11771, "value": "on", "timestamp": 1520878829587}, {"eventtype": "focus", "interval": 1025285, "value": "off", "timestamp": 1520879854872}, {"eventtype": "focus", "interval": 33432, "value": "on", "timestamp": 1520879888304}, {"eventtype": "focus", "interval": 315151, "value": "off", "timestamp": 1520880203455}, {"eventtype": "focus", "interval": 6633, "value": "on", "timestamp": 1520880210088}, {"eventtype": "focus", "interval": 177255, "value": "off", "timestamp": 1520880387343}, {"eventtype": "focus", "interval": 26506, "value": "on", "timestamp": 1520880413849}, {"eventtype": "focus", "interval": 78014, "value": "off", "timestamp": 1520880491863}, {"eventtype": "focus", "interval": 18528, "value": "on", "timestamp": 1520880510391}, {"eventtype": "window_resize", "interval": 216781, "value": [1680, 960], "timestamp": 1520880727172}, {"eventtype": "window_resize", "interval": 2816, "value": [1680, 1004], "timestamp": 1520880729988}, {"eventtype": "window_resize", "interval": 1468, "value": [1680, 941], "timestamp": 1520880731456}, {"eventtype": "window_resize", "interval": 3844, "value": [1680, 960], "timestamp": 1520880735300}, {"eventtype": "focus", "interval": 274532, "value": "off", "timestamp": 1520881009832}, {"eventtype": "focus", "interval": 8545, "value": "on", "timestamp": 1520881018377}], "data": [{"current_trial": 0, "trialdata": {"rt": 2488, "trial_type": "text", "internal_node_id": "0.0-0.0", "time_elapsed": 2492, "key_press": 32, "type": "INSTRUCTIONS", "trial_index": 0}, "uniqueid": "MTK3651:3ZR9AIQJUCGLFS3DSZM68YAIRLI40U", "dateTime": 1520877683395}, {"current_trial": 1, "trialdata": {"rt": 13982, "trial_type": "text", "internal_node_id": "0.0-1.0", "time_elapsed": 16477, "key_press": 32, "type": "INSTRUCTIONS", "trial_index": 1}, "uniqueid": "MTK3651:3ZR9AIQJUCGLFS3DSZM68YAIRLI40U", "dateTime": 1520877697378}, {"current_trial": 2, "trialdata": {"rt": [16119], "trial_type": "audio-test", "responses": ["ocean"], "internal_node_id": "0.0-2.0", "time_elapsed": 32613, "type": "AUDIO_TEST", "trial_index": 2}, "uniqueid": "MTK3651:3ZR9AIQJUCGLFS3DSZM68YAIRLI40U", "dateTime": 1520877713514}, {"current_trial": 3, "trialdata": {"rt": [9482], "trial_type": "audio-test", "responses": ["crystal"], "internal_node_id": "0.0-3.0", "time_elapsed": 42102, "type": "AUDIO_TEST", "trial_index": 3}, "uniqueid": "MTK3651:3ZR9AIQJUCGLFS3DSZM68YAIRLI40U", "dateTime": 1520877723003}, {"current_trial": 4, "trialdata": {"rt": [7401], "trial_type": "audio-test", "responses": ["spice"], "internal_node_id": "0.0-4.0", "time_elapsed": 49508, "type": "AUDIO_TEST", "trial_index": 4}, "uniqueid": "MTK3651:3ZR9AIQJUCGLFS3DSZM68YAIRLI40U", "dateTime": 1520877730409}, {"current_trial": 5, "trialdata": {"rt": 32665, "trial_type": "survey-text", "responses": "{\"Q0\":\"11:30 PM\",\"Q1\":\"7:30 AM\",\"Q2\":\"4\"}", "internal_node_id": "0.0-5.0", "time_elapsed": 82926, "type": "SLEEP_SURVEY", "trial_index": 5}, "uniqueid": "MTK3651:3ZR9AIQJUCGLFS3DSZM68YAIRLI40U", "dateTime": 1520877763827}, {"current_trial": 6, "trialdata": {"rt": 62388, "trial_type": "text", "internal_node_id": "0.0-6.0", "time_elapsed": 146317, "key_press": 32, "type": "INSTRUCTIONS", "trial_index": 6}, "uniqueid": "MTK3651:3ZR9AIQJUCGLFS3DSZM68YAIRLI40U", "dateTime": 1520877827218}, {"current_trial": 7, "trialdata": {"rt": 16738, "trial_type": "text", "internal_node_id": "0.0-7.0", "time_elapsed": 163556, "key_press": 32, "type": "INSTRUCTIONS", "trial_index": 7}, "uniqueid": "MTK3651:3ZR9AIQJUCGLFS3DSZM68YAIRLI40U", "dateTime": 1520877844457}, {"current_trial": 8, "trialdata": {"rt": 16554, "trial_type": "text", "internal_node_id": "0.0-8.0", "time_elapsed": 180612, "key_press": 32, "type": "INSTRUCTIONS", "trial_index": 8}, "uniqueid": "MTK3651:3ZR9AIQJUCGLFS3DSZM68YAIRLI40U", "dateTime": 1520877861513}, {"current_trial": 9, "trialdata": {"rt": [3994, 6042, 8058, 11625, 14738, 16602], "trial_type": "math-distractor", "key_times": [3122, 3330, 3994, 5770, 6042, 7866, 8058, 10426, 10810, 11625, 14178, 14457, 14738, 16122, 16418, 16602, 17769], "responses": ["11", "8", "6", "18", "23", "14"], "num2": [2, 6, 1, 7, 6, 7, 1], "num3": [3, 1, 2, 2, 9, 3, 9], "conditions": [18, 1200, "a", 18000], "internal_node_id": "0.0-9.0", "key_presses": [49, 49, 13, 56, 13, 54, 13, 49, 56, 13, 50, 51, 13, 49, 52, 13, 49], "trial": 0, "time_elapsed": 199620, "type": "DISTRACTOR", "trial_index": 9, "num1": [6, 1, 3, 9, 8, 4, 9]}, "uniqueid": "MTK3651:3ZR9AIQJUCGLFS3DSZM68YAIRLI40U", "dateTime": 1520877880521}, {"current_trial": 10, "trialdata": {"rt": -1, "trial_type": "single-stim", "stimulus": "<p id=\"stim\">10</p>", "internal_node_id": "0.0-10.0-0.0", "time_elapsed": 202623, "key_press": -1, "trial_index": 10}, "uniqueid": "MTK3651:3ZR9AIQJUCGLFS3DSZM68YAIRLI40U", "dateTime": 1520877883524}, {"current_trial": 11, "trialdata": {"rt": -1, "trial_type": "single-stim", "stimulus": "<p id=\"stim\">9</p>", "internal_node_id": "0.0-10.0-1.0", "time_elapsed": 203625, "key_press": -1, "trial_index": 11}, "uniqueid": "MTK3651:3ZR9AIQJUCGLFS3DSZM68YAIRLI40U", "dateTime": 1520877884526}, {"current_trial": 12, "trialdata": {"rt": -1, "trial_type": "single-stim", "stimulus": "<p id=\"stim\">8</p>", "internal_node_id": "0.0-10.0-2.0", "time_elapsed": 204625, "key_press": -1, "trial_index": 12}, "uniqueid": "MTK3651:3ZR9AIQJUCGLFS3DSZM68YAIRLI40U", "dateTime": 1520877885526}, {"current_trial": 13, "trialdata": {"rt": -1, "trial_type": "single-stim", "stimulus": "<p id=\"stim\">7</p>", "internal_node_id": "0.0-10.0-3.0", "time_elapsed": 205627, "key_press": -1, "trial_index": 13}, "uniqueid": "MTK3651:3ZR9AIQJUCGLFS3DSZM68YAIRLI40U", "dateTime": 1520877886528}, {"current_trial": 14, "trialdata": {"rt": -1, "trial_type": "single-stim", "stimulus": "<p id=\"stim\">6</p>", "internal_node_id": "0.0-10.0-4.0", "time_elapsed": 206628, "key_press": -1, "trial_index": 14}, "uniqueid": "MTK3651:3ZR9AIQJUCGLFS3DSZM68YAIRLI40U", "dateTime": 1520877887529}, {"current_trial": 15, "trialdata": {"rt": -1, "trial_type": "single-stim", "stimulus": "<p id=\"stim\">5</p>", "internal_node_id": "0.0-10.0-5.0", "time_elapsed": 207629, "key_press": -1, "trial_index": 15}, "uniqueid": "MTK3651:3ZR9AIQJUCGLFS3DSZM68YAIRLI40U", "dateTime": 1520877888530}, {"current_trial": 16, "trialdata": {"rt": -1, "trial_type": "single-stim", "stimulus": "<p id=\"stim\">4</p>", "internal_node_id": "0.0-10.0-6.0", "time_elapsed": 208629, "key_press": -1, "trial_index": 16}, "uniqueid": "MTK3651:3ZR9AIQJUCGLFS3DSZM68YAIRLI40U", "dateTime": 1520877889530}, {"current_trial": 17, "trialdata": {"rt": -1, "trial_type": "single-stim", "stimulus": "<p id=\"stim\">3</p>", "internal_node_id": "0.0-10.0-7.0", "time_elapsed": 209632, "key_press": -1, "trial_index": 17}, "uniqueid": "MTK3651:3ZR9AIQJUCGLFS3DSZM68YAIRLI40U", "dateTime": 1520877890533}, {"current_trial": 18, "trialdata": {"rt": -1, "trial_type": "single-stim", "stimulus": "<p id=\"stim\">2</p>", "internal_node_id": "0.0-10.0-8.0", "time_elapsed": 210633, "key_press": -1, "trial_index": 18}, "uniqueid": "MTK3651:3ZR9AIQJUCGLFS3DSZM68YAIRLI40U", "dateTime": 1520877891534}, {"current_trial": 19, "trialdata": {"rt": -1, "trial_type": "single-stim", "stimulus": "<p id=\"stim\">1</p>", "internal_node_id": "0.0-10.0-9.0", "time_elapsed": 211633, "key_press": -1, "trial_index": 19}, "uniqueid": "MTK3651:3ZR9AIQJUCGLFS3DSZM68YAIRLI40U", "dateTime": 1520877892535}, {"current_trial": 20, "trialdata": {"rt": -1, "trial_type": "single-stim", "stimulus": "<p id=\"stim\">+</p>", "internal_node_id": "0.0-11.0-0.0", "time_elapsed": 213134, "key_press": -1, "type": "FIXATION", "trial_index": 20}, "uniqueid": "MTK3651:3ZR9AIQJUCGLFS3DSZM68YAIRLI40U", "dateTime": 1520877894036}, {"current_trial": 21, "trialdata": {"rt": -1000, "trial_type": "single-audio", "word": "crab", "stimulus": "/static/audio/wordpool/CRAB.wav", "conditions": [18, 1200, "a", 18000], "internal_node_id": "0.0-12.0", "trial": 0, "time_elapsed": 215428, "serialpos": 0, "key_press": -1, "wordID": 396, "type": "PRES_AUD", "trial_index": 21}, "uniqueid": "MTK3651:3ZR9AIQJUCGLFS3DSZM68YAIRLI40U", "dateTime": 1520877896329}, {"current_trial": 22, "trialdata": {"rt": -1000, "trial_type": "single-audio", "word": "transplant", "stimulus": "/static/audio/wordpool/TRANSPLANT.wav", "conditions": [18, 1200, "a", 18000], "internal_node_id": "0.0-13.0", "trial": 0, "time_elapsed": 217575, "serialpos": 1, "key_press": -1, "wordID": 1495, "type": "PRES_AUD", "trial_index": 22}, "uniqueid": "MTK3651:3ZR9AIQJUCGLFS3DSZM68YAIRLI40U", "dateTime": 1520877898476}, {"current_trial": 23, "trialdata": {"rt": -1000, "trial_type": "single-audio", "word": "queen", "stimulus": "/static/audio/wordpool/QUEEN.wav", "conditions": [18, 1200, "a", 18000], "internal_node_id": "0.0-14.0", "trial": 0, "time_elapsed": 219829, "serialpos": 2, "key_press": -1, "wordID": 1148, "type": "PRES_AUD", "trial_index": 23}, "uniqueid": "MTK3651:3ZR9AIQJUCGLFS3DSZM68YAIRLI40U", "dateTime": 1520877900731}, {"current_trial": 24, "trialdata": {"rt": -1000, "trial_type": "single-audio", "word": "hood", "stimulus": "/static/audio/wordpool/HOOD.wav", "conditions": [18, 1200, "a", 18000], "internal_node_id": "0.0-15.0", "trial": 0, "time_elapsed": 221901, "serialpos": 3, "key_press": -1, "wordID": 713, "type": "PRES_AUD", "trial_index": 24}, "uniqueid": "MTK3651:3ZR9AIQJUCGLFS3DSZM68YAIRLI40U", "dateTime": 1520877902802}, {"current_trial": 25, "trialdata": {"rt": -1000, "trial_type": "single-audio", "word": "coin", "stimulus": "/static/audio/wordpool/COIN.wav", "conditions": [18, 1200, "a", 18000], "internal_node_id": "0.0-16.0", "trial": 0, "time_elapsed": 224224, "serialpos": 4, "key_press": -1, "wordID": 342, "type": "PRES_AUD", "trial_index": 25}, "uniqueid": "MTK3651:3ZR9AIQJUCGLFS3DSZM68YAIRLI40U", "dateTime": 1520877905125}, {"current_trial": 26, "trialdata": {"rt": -1000, "trial_type": "single-audio", "word": "virus", "stimulus": "/static/audio/wordpool/VIRUS.wav", "conditions": [18, 1200, "a", 18000], "internal_node_id": "0.0-17.0", "trial": 0, "time_elapsed": 226588, "serialpos": 5, "key_press": -1, "wordID": 1571, "type": "PRES_AUD", "trial_index": 26}, "uniqueid": "MTK3651:3ZR9AIQJUCGLFS3DSZM68YAIRLI40U", "dateTime": 1520877907489}, {"current_trial": 27, "trialdata": {"rt": -1000, "trial_type": "single-audio", "word": "taxi", "stimulus": "/static/audio/wordpool/TAXI.wav", "conditions": [18, 1200, "a", 18000], "internal_node_id": "0.0-18.0", "trial": 0, "time_elapsed": 228788, "serialpos": 6, "key_press": -1, "wordID": 1437, "type": "PRES_AUD", "trial_index": 27}, "uniqueid": "MTK3651:3ZR9AIQJUCGLFS3DSZM68YAIRLI40U", "dateTime": 1520877909689}, {"current_trial": 28, "trialdata": {"rt": -1000, "trial_type": "single-audio", "word": "treat", "stimulus": "/static/audio/wordpool/TREAT.wav", "conditions": [18, 1200, "a", 18000], "internal_node_id": "0.0-19.0", "trial": 0, "time_elapsed": 230849, "serialpos": 7, "key_press": -1, "wordID": 1500, "type": "PRES_AUD", "trial_index": 28}, "uniqueid": "MTK3651:3ZR9AIQJUCGLFS3DSZM68YAIRLI40U", "dateTime": 1520877911750}, {"current_trial": 29, "trialdata": {"rt": -1000, "trial_type": "single-audio", "word": "statue", "stimulus": "/static/audio/wordpool/STATUE.wav", "conditions": [18, 1200, "a", 18000], "internal_node_id": "0.0-20.0", "trial": 0, "time_elapsed": 232994, "serialpos": 8, "key_press": -1, "wordID": 1373, "type": "PRES_AUD", "trial_index": 29}, "uniqueid": "MTK3651:3ZR9AIQJUCGLFS3DSZM68YAIRLI40U", "dateTime": 1520877913895}, {"current_trial": 30, "trialdata": {"rt": -1000, "trial_type": "single-audio", "word": "kitchen", "stimulus": "/static/audio/wordpool/KITCHEN.wav", "conditions": [18, 1200, "a", 18000], "internal_node_id": "0.0-21.0", "trial": 0, "time_elapsed": 235044, "serialpos": 9, "key_press": -1, "wordID": 777, "type": "PRES_AUD", "trial_index": 30}, "uniqueid": "MTK3651:3ZR9AIQJUCGLFS3DSZM68YAIRLI40U", "dateTime": 1520877915945}, {"current_trial": 31, "trialdata": {"rt": -1000, "trial_type": "single-audio", "word": "quarter", "stimulus": "/static/audio/wordpool/QUARTER.wav", "conditions": [18, 1200, "a", 18000], "internal_node_id": "0.0-22.0", "trial": 0, "time_elapsed": 237301, "serialpos": 10, "key_press": -1, "wordID": 1147, "type": "PRES_AUD", "trial_index": 31}, "uniqueid": "MTK3651:3ZR9AIQJUCGLFS3DSZM68YAIRLI40U", "dateTime": 1520877918202}, {"current_trial": 32, "trialdata": {"rt": -1000, "trial_type": "single-audio", "word": "clam", "stimulus": "/static/audio/wordpool/CLAM.wav", "conditions": [18, 1200, "a", 18000], "internal_node_id": "0.0-23.0", "trial": 0, "time_elapsed": 239616, "serialpos": 11, "key_press": -1, "wordID": 314, "type": "PRES_AUD", "trial_index": 32}, "uniqueid": "MTK3651:3ZR9AIQJUCGLFS3DSZM68YAIRLI40U", "dateTime": 1520877920517}, {"current_trial": 33, "trialdata": {"rt": -1000, "trial_type": "single-audio", "word": "swamp", "stimulus": "/static/audio/wordpool/SWAMP.wav", "conditions": [18, 1200, "a", 18000], "internal_node_id": "0.0-24.0", "trial": 0, "time_elapsed": 241711, "serialpos": 12, "key_press": -1, "wordID": 1415, "type": "PRES_AUD", "trial_index": 33}, "uniqueid": "MTK3651:3ZR9AIQJUCGLFS3DSZM68YAIRLI40U", "dateTime": 1520877922612}, {"current_trial": 34, "trialdata": {"rt": -1000, "trial_type": "single-audio", "word": "blender", "stimulus": "/static/audio/wordpool/BLENDER.wav", "conditions": [18, 1200, "a", 18000], "internal_node_id": "0.0-25.0", "trial": 0, "time_elapsed": 243747, "serialpos": 13, "key_press": -1, "wordID": 135, "type": "PRES_AUD", "trial_index": 34}, "uniqueid": "MTK3651:3ZR9AIQJUCGLFS3DSZM68YAIRLI40U", "dateTime": 1520877924649}, {"current_trial": 35, "trialdata": {"rt": -1000, "trial_type": "single-audio", "word": "glass", "stimulus": "/static/audio/wordpool/GLASS.wav", "conditions": [18, 1200, "a", 18000], "internal_node_id": "0.0-26.0", "trial": 0, "time_elapsed": 245977, "serialpos": 14, "key_press": -1, "wordID": 638, "type": "PRES_AUD", "trial_index": 35}, "uniqueid": "MTK3651:3ZR9AIQJUCGLFS3DSZM68YAIRLI40U", "dateTime": 1520877926878}, {"current_trial": 36, "trialdata": {"rt": -1000, "trial_type": "single-audio", "word": "stallion", "stimulus": "/static/audio/wordpool/STALLION.wav", "conditions": [18, 1200, "a", 18000], "internal_node_id": "0.0-27.0", "trial": 0, "time_elapsed": 248313, "serialpos": 15, "key_press": -1, "wordID": 1368, "type": "PRES_AUD", "trial_index": 36}, "uniqueid": "MTK3651:3ZR9AIQJUCGLFS3DSZM68YAIRLI40U", "dateTime": 1520877929215}, {"current_trial": 37, "trialdata": {"rt": -1000, "trial_type": "single-audio", "word": "omelet", "stimulus": "/static/audio/wordpool/OMELET.wav", "conditions": [18, 1200, "a", 18000], "internal_node_id": "0.0-28.0", "trial": 0, "time_elapsed": 250684, "serialpos": 16, "key_press": -1, "wordID": 975, "type": "PRES_AUD", "trial_index": 37}, "uniqueid": "MTK3651:3ZR9AIQJUCGLFS3DSZM68YAIRLI40U", "dateTime": 1520877931586}, {"current_trial": 38, "trialdata": {"rt": -1000, "trial_type": "single-audio", "word": "slime", "stimulus": "/static/audio/wordpool/SLIME.wav", "conditions": [18, 1200, "a", 18000], "internal_node_id": "0.0-29.0", "trial": 0, "time_elapsed": 252847, "serialpos": 17, "key_press": -1, "wordID": 1326, "type": "PRES_AUD", "trial_index": 38}, "uniqueid": "MTK3651:3ZR9AIQJUCGLFS3DSZM68YAIRLI40U", "dateTime": 1520877933749}, {"current_trial": 39, "trialdata": {"rt": -1, "trial_type": "single-stim", "stimulus": "", "internal_node_id": "0.0-30.0-0.0", "time_elapsed": 254190, "key_press": -1, "type": "PRE_RECALL_DELAY", "trial_index": 39}, "uniqueid": "MTK3651:3ZR9AIQJUCGLFS3DSZM68YAIRLI40U", "dateTime": 1520877935091}, {"current_trial": 40, "trialdata": {"rt": -1000, "trial_type": "single-audio", "stimulus": "/static/audio/400Hz.wav", "internal_node_id": "0.0-31.0", "time_elapsed": 254690, "key_press": -1, "type": "PRE_RECALL_ALERT", "trial_index": 40}, "uniqueid": "MTK3651:3ZR9AIQJUCGLFS3DSZM68YAIRLI40U", "dateTime": 1520877935591}, {"current_trial": 41, "trialdata": {"rt": [4207, 8558, 13999, 20223, 27430, 36326, 56951], "recwords": ["coin", "clam", "virus", "omellete", "kitchen", "crab", "quarter"], "key_times": [2928, 2998, 3231, 3350, 4207, 6758, 6999, 7238, 7447, 8558, 12046, 12239, 12494, 12655, 12919, 13999, 17942, 18430, 18622, 19062, 19238, 19358, 19534, 19718, 20223, 25551, 25726, 25903, 26359, 26550, 26742, 26886, 27430, 34854, 35118, 35390, 35743, 36326, 55040, 55503, 55678, 56055, 56294, 56510, 56607, 56951], "trial_type": "free-recall", "conditions": [18, 1200, "a", 18000], "internal_node_id": "0.0-32.0-0.0", "key_presses": [67, 79, 73, 78, 13, 67, 76, 65, 77, 13, 86, 73, 82, 85, 83, 13, 79, 77, 69, 76, 76, 69, 84, 69, 13, 75, 73, 84, 67, 72, 69, 78, 13, 67, 82, 65, 66, 13, 81, 85, 65, 82, 84, 69, 82, 13], "trial": 0, "time_elapsed": 314695, "type": "FREE_RECALL", "trial_index": 41}, "uniqueid": "MTK3651:3ZR9AIQJUCGLFS3DSZM68YAIRLI40U", "dateTime": 1520877995599}, {"current_trial": 42, "trialdata": {"rt": 3217, "trial_type": "text", "internal_node_id": "0.0-33.0", "time_elapsed": 319917, "key_press": 32, "type": "INSTRUCTIONS", "trial_index": 42}, "uniqueid": "MTK3651:3ZR9AIQJUCGLFS3DSZM68YAIRLI40U", "dateTime": 1520878000818}, {"current_trial": 43, "trialdata": {"rt": [2700, 4844, 7325, 9812, 12868, 16284, 17900], "trial_type": "math-distractor", "key_times": [1932, 2109, 2700, 4114, 4620, 4844, 6549, 6980, 7325, 9509, 9812, 12036, 12620, 12868, 15693, 16100, 16284, 17516, 17732, 17900], "responses": ["10", "13", "18", "7", "18", "23", "11"], "num2": [3, 4, 8, 2, 5, 8, 7, 3], "num3": [1, 4, 8, 3, 4, 8, 1, 2], "conditions": [18, 1200, "a", 18000], "internal_node_id": "0.0-34.0", "key_presses": [49, 48, 13, 49, 51, 13, 49, 56, 13, 55, 13, 49, 56, 13, 50, 51, 13, 49, 49, 13], "trial": 1, "time_elapsed": 339920, "type": "DISTRACTOR", "trial_index": 43, "num1": [6, 5, 2, 2, 9, 7, 3, 9]}, "uniqueid": "MTK3651:3ZR9AIQJUCGLFS3DSZM68YAIRLI40U", "dateTime": 1520878020821}, {"current_trial": 44, "trialdata": {"rt": -1, "trial_type": "single-stim", "stimulus": "<p id=\"stim\">10</p>", "internal_node_id": "0.0-35.0-0.0", "time_elapsed": 342922, "key_press": -1, "trial_index": 44}, "uniqueid": "MTK3651:3ZR9AIQJUCGLFS3DSZM68YAIRLI40U", "dateTime": 1520878023823}, {"current_trial": 45, "trialdata": {"rt": -1, "trial_type": "single-stim", "stimulus": "<p id=\"stim\">9</p>", "internal_node_id": "0.0-35.0-1.0", "time_elapsed": 343923, "key_press": -1, "trial_index": 45}, "uniqueid": "MTK3651:3ZR9AIQJUCGLFS3DSZM68YAIRLI40U", "dateTime": 1520878024824}, {"current_trial": 46, "trialdata": {"rt": -1, "trial_type": "single-stim", "stimulus": "<p id=\"stim\">8</p>", "internal_node_id": "0.0-35.0-2.0", "time_elapsed": 344924, "key_press": -1, "trial_index": 46}, "uniqueid": "MTK3651:3ZR9AIQJUCGLFS3DSZM68YAIRLI40U", "dateTime": 1520878025825}, {"current_trial": 47, "trialdata": {"rt": -1, "trial_type": "single-stim", "stimulus": "<p id=\"stim\">7</p>", "internal_node_id": "0.0-35.0-3.0", "time_elapsed": 345925, "key_press": -1, "trial_index": 47}, "uniqueid": "MTK3651:3ZR9AIQJUCGLFS3DSZM68YAIRLI40U", "dateTime": 1520878026826}, {"current_trial": 48, "trialdata": {"rt": -1, "trial_type": "single-stim", "stimulus": "<p id=\"stim\">6</p>", "internal_node_id": "0.0-35.0-4.0", "time_elapsed": 346926, "key_press": -1, "trial_index": 48}, "uniqueid": "MTK3651:3ZR9AIQJUCGLFS3DSZM68YAIRLI40U", "dateTime": 1520878027827}, {"current_trial": 49, "trialdata": {"rt": -1, "trial_type": "single-stim", "stimulus": "<p id=\"stim\">5</p>", "internal_node_id": "0.0-35.0-5.0", "time_elapsed": 347927, "key_press": -1, "trial_index": 49}, "uniqueid": "MTK3651:3ZR9AIQJUCGLFS3DSZM68YAIRLI40U", "dateTime": 1520878028828}, {"current_trial": 50, "trialdata": {"rt": -1, "trial_type": "single-stim", "stimulus": "<p id=\"stim\">4</p>", "internal_node_id": "0.0-35.0-6.0", "time_elapsed": 348928, "key_press": -1, "trial_index": 50}, "uniqueid": "MTK3651:3ZR9AIQJUCGLFS3DSZM68YAIRLI40U", "dateTime": 1520878029829}, {"current_trial": 51, "trialdata": {"rt": -1, "trial_type": "single-stim", "stimulus": "<p id=\"stim\">3</p>", "internal_node_id": "0.0-35.0-7.0", "time_elapsed": 349929, "key_press": -1, "trial_index": 51}, "uniqueid": "MTK3651:3ZR9AIQJUCGLFS3DSZM68YAIRLI40U", "dateTime": 1520878030830}, {"current_trial": 52, "trialdata": {"rt": -1, "trial_type": "single-stim", "stimulus": "<p id=\"stim\">2</p>", "internal_node_id": "0.0-35.0-8.0", "time_elapsed": 350930, "key_press": -1, "trial_index": 52}, "uniqueid": "MTK3651:3ZR9AIQJUCGLFS3DSZM68YAIRLI40U", "dateTime": 1520878031831}, {"current_trial": 53, "trialdata": {"rt": -1, "trial_type": "single-stim", "stimulus": "<p id=\"stim\">1</p>", "internal_node_id": "0.0-35.0-9.0", "time_elapsed": 351931, "key_press": -1, "trial_index": 53}, "uniqueid": "MTK3651:3ZR9AIQJUCGLFS3DSZM68YAIRLI40U", "dateTime": 1520878032832}, {"current_trial": 54, "trialdata": {"rt": -1, "trial_type": "single-stim", "stimulus": "<p id=\"stim\">+</p>", "internal_node_id": "0.0-36.0-0.0", "time_elapsed": 353433, "key_press": -1, "type": "FIXATION", "trial_index": 54}, "uniqueid": "MTK3651:3ZR9AIQJUCGLFS3DSZM68YAIRLI40U", "dateTime": 1520878034334}, {"current_trial": 55, "trialdata": {"rt": -1000, "trial_type": "single-audio", "word": "foot", "stimulus": "/static/audio/wordpool/FOOT.wav", "conditions": [18, 1200, "a", 18000], "internal_node_id": "0.0-37.0", "trial": 1, "time_elapsed": 355494, "serialpos": 0, "key_press": -1, "wordID": 589, "type": "PRES_AUD", "trial_index": 55}, "uniqueid": "MTK3651:3ZR9AIQJUCGLFS3DSZM68YAIRLI40U", "dateTime": 1520878036395}, {"current_trial": 56, "trialdata": {"rt": -1000, "trial_type": "single-audio", "word": "canal", "stimulus": "/static/audio/wordpool/CANAL.wav", "conditions": [18, 1200, "a", 18000], "internal_node_id": "0.0-38.0", "trial": 1, "time_elapsed": 357761, "serialpos": 1, "key_press": -1, "wordID": 225, "type": "PRES_AUD", "trial_index": 56}, "uniqueid": "MTK3651:3ZR9AIQJUCGLFS3DSZM68YAIRLI40U", "dateTime": 1520878038663}, {"current_trial": 57, "trialdata": {"rt": -1000, "trial_type": "single-audio", "word": "tutu", "stimulus": "/static/audio/wordpool/TUTU.wav", "conditions": [18, 1200, "a", 18000], "internal_node_id": "0.0-39.0", "trial": 1, "time_elapsed": 359992, "serialpos": 2, "key_press": -1, "wordID": 1523, "type": "PRES_AUD", "trial_index": 57}, "uniqueid": "MTK3651:3ZR9AIQJUCGLFS3DSZM68YAIRLI40U", "dateTime": 1520878040893}, {"current_trial": 58, "trialdata": {"rt": -1000, "trial_type": "single-audio", "word": "wife", "stimulus": "/static/audio/wordpool/WIFE.wav", "conditions": [18, 1200, "a", 18000], "internal_node_id": "0.0-40.0", "trial": 1, "time_elapsed": 362276, "serialpos": 3, "key_press": -1, "wordID": 1608, "type": "PRES_AUD", "trial_index": 58}, "uniqueid": "MTK3651:3ZR9AIQJUCGLFS3DSZM68YAIRLI40U", "dateTime": 1520878043177}, {"current_trial": 59, "trialdata": {"rt": -1000, "trial_type": "single-audio", "word": "receipt", "stimulus": "/static/audio/wordpool/RECEIPT.wav", "conditions": [18, 1200, "a", 18000], "internal_node_id": "0.0-41.0", "trial": 1, "time_elapsed": 364651, "serialpos": 4, "key_press": -1, "wordID": 1172, "type": "PRES_AUD", "trial_index": 59}, "uniqueid": "MTK3651:3ZR9AIQJUCGLFS3DSZM68YAIRLI40U", "dateTime": 1520878045552}, {"current_trial": 60, "trialdata": {"rt": -1000, "trial_type": "single-audio", "word": "fleet", "stimulus": "/static/audio/wordpool/FLEET.wav", "conditions": [18, 1200, "a", 18000], "internal_node_id": "0.0-42.0", "trial": 1, "time_elapsed": 366836, "serialpos": 5, "key_press": -1, "wordID": 577, "type": "PRES_AUD", "trial_index": 60}, "uniqueid": "MTK3651:3ZR9AIQJUCGLFS3DSZM68YAIRLI40U", "dateTime": 1520878047737}, {"current_trial": 61, "trialdata": {"rt": -1000, "trial_type": "single-audio", "word": "poison", "stimulus": "/static/audio/wordpool/POISON.wav", "conditions": [18, 1200, "a", 18000], "internal_node_id": "0.0-43.0", "trial": 1, "time_elapsed": 369018, "serialpos": 6, "key_press": -1, "wordID": 1095, "type": "PRES_AUD", "trial_index": 61}, "uniqueid": "MTK3651:3ZR9AIQJUCGLFS3DSZM68YAIRLI40U", "dateTime": 1520878049919}, {"current_trial": 62, "trialdata": {"rt": -1000, "trial_type": "single-audio", "word": "juggler", "stimulus": "/static/audio/wordpool/JUGGLER.wav", "conditions": [18, 1200, "a", 18000], "internal_node_id": "0.0-44.0", "trial": 1, "time_elapsed": 371036, "serialpos": 7, "key_press": -1, "wordID": 762, "type": "PRES_AUD", "trial_index": 62}, "uniqueid": "MTK3651:3ZR9AIQJUCGLFS3DSZM68YAIRLI40U", "dateTime": 1520878051937}, {"current_trial": 63, "trialdata": {"rt": -1000, "trial_type": "single-audio", "word": "widow", "stimulus": "/static/audio/wordpool/WIDOW.wav", "conditions": [18, 1200, "a", 18000], "internal_node_id": "0.0-45.0", "trial": 1, "time_elapsed": 373393, "serialpos": 8, "key_press": -1, "wordID": 1607, "type": "PRES_AUD", "trial_index": 63}, "uniqueid": "MTK3651:3ZR9AIQJUCGLFS3DSZM68YAIRLI40U", "dateTime": 1520878054295}, {"current_trial": 64, "trialdata": {"rt": -1000, "trial_type": "single-audio", "word": "flute", "stimulus": "/static/audio/wordpool/FLUTE.wav", "conditions": [18, 1200, "a", 18000], "internal_node_id": "0.0-46.0", "trial": 1, "time_elapsed": 375602, "serialpos": 9, "key_press": -1, "wordID": 584, "type": "PRES_AUD", "trial_index": 64}, "uniqueid": "MTK3651:3ZR9AIQJUCGLFS3DSZM68YAIRLI40U", "dateTime": 1520878056503}, {"current_trial": 65, "trialdata": {"rt": -1000, "trial_type": "single-audio", "word": "puppy", "stimulus": "/static/audio/wordpool/PUPPY.wav", "conditions": [18, 1200, "a", 18000], "internal_node_id": "0.0-47.0", "trial": 1, "time_elapsed": 377857, "serialpos": 10, "key_press": -1, "wordID": 1143, "type": "PRES_AUD", "trial_index": 65}, "uniqueid": "MTK3651:3ZR9AIQJUCGLFS3DSZM68YAIRLI40U", "dateTime": 1520878058758}, {"current_trial": 66, "trialdata": {"rt": -1000, "trial_type": "single-audio", "word": "journal", "stimulus": "/static/audio/wordpool/JOURNAL.wav", "conditions": [18, 1200, "a", 18000], "internal_node_id": "0.0-48.0", "trial": 1, "time_elapsed": 380104, "serialpos": 11, "key_press": -1, "wordID": 759, "type": "PRES_AUD", "trial_index": 66}, "uniqueid": "MTK3651:3ZR9AIQJUCGLFS3DSZM68YAIRLI40U", "dateTime": 1520878061005}, {"current_trial": 67, "trialdata": {"rt": -1000, "trial_type": "single-audio", "word": "iceberg", "stimulus": "/static/audio/wordpool/ICEBERG.wav", "conditions": [18, 1200, "a", 18000], "internal_node_id": "0.0-49.0", "trial": 1, "time_elapsed": 382211, "serialpos": 12, "key_press": -1, "wordID": 730, "type": "PRES_AUD", "trial_index": 67}, "uniqueid": "MTK3651:3ZR9AIQJUCGLFS3DSZM68YAIRLI40U", "dateTime": 1520878063112}, {"current_trial": 68, "trialdata": {"rt": -1000, "trial_type": "single-audio", "word": "clothes", "stimulus": "/static/audio/wordpool/CLOTHES.wav", "conditions": [18, 1200, "a", 18000], "internal_node_id": "0.0-50.0", "trial": 1, "time_elapsed": 384466, "serialpos": 13, "key_press": -1, "wordID": 326, "type": "PRES_AUD", "trial_index": 68}, "uniqueid": "MTK3651:3ZR9AIQJUCGLFS3DSZM68YAIRLI40U", "dateTime": 1520878065369}, {"current_trial": 69, "trialdata": {"rt": -1000, "trial_type": "single-audio", "word": "shovel", "stimulus": "/static/audio/wordpool/SHOVEL.wav", "conditions": [18, 1200, "a", 18000], "internal_node_id": "0.0-51.0", "trial": 1, "time_elapsed": 386720, "serialpos": 14, "key_press": -1, "wordID": 1294, "type": "PRES_AUD", "trial_index": 69}, "uniqueid": "MTK3651:3ZR9AIQJUCGLFS3DSZM68YAIRLI40U", "dateTime": 1520878067621}, {"current_trial": 70, "trialdata": {"rt": -1000, "trial_type": "single-audio", "word": "helmet", "stimulus": "/static/audio/wordpool/HELMET.wav", "conditions": [18, 1200, "a", 18000], "internal_node_id": "0.0-52.0", "trial": 1, "time_elapsed": 389056, "serialpos": 15, "key_press": -1, "wordID": 701, "type": "PRES_AUD", "trial_index": 70}, "uniqueid": "MTK3651:3ZR9AIQJUCGLFS3DSZM68YAIRLI40U", "dateTime": 1520878069957}, {"current_trial": 71, "trialdata": {"rt": -1000, "trial_type": "single-audio", "word": "crevice", "stimulus": "/static/audio/wordpool/CREVICE.wav", "conditions": [18, 1200, "a", 18000], "internal_node_id": "0.0-53.0", "trial": 1, "time_elapsed": 391328, "serialpos": 16, "key_press": -1, "wordID": 404, "type": "PRES_AUD", "trial_index": 71}, "uniqueid": "MTK3651:3ZR9AIQJUCGLFS3DSZM68YAIRLI40U", "dateTime": 1520878072229}, {"current_trial": 72, "trialdata": {"rt": -1000, "trial_type": "single-audio", "word": "brook", "stimulus": "/static/audio/wordpool/BROOK.wav", "conditions": [18, 1200, "a", 18000], "internal_node_id": "0.0-54.0", "trial": 1, "time_elapsed": 393535, "serialpos": 17, "key_press": -1, "wordID": 176, "type": "PRES_AUD", "trial_index": 72}, "uniqueid": "MTK3651:3ZR9AIQJUCGLFS3DSZM68YAIRLI40U", "dateTime": 1520878074436}, {"current_trial": 73, "trialdata": {"rt": -1, "trial_type": "single-stim", "stimulus": "", "internal_node_id": "0.0-55.0-0.0", "time_elapsed": 394911, "key_press": -1, "type": "PRE_RECALL_DELAY", "trial_index": 73}, "uniqueid": "MTK3651:3ZR9AIQJUCGLFS3DSZM68YAIRLI40U", "dateTime": 1520878075813}, {"current_trial": 74, "trialdata": {"rt": -1000, "trial_type": "single-audio", "stimulus": "/static/audio/400Hz.wav", "internal_node_id": "0.0-56.0", "time_elapsed": 395412, "key_press": -1, "type": "PRE_RECALL_ALERT", "trial_index": 74}, "uniqueid": "MTK3651:3ZR9AIQJUCGLFS3DSZM68YAIRLI40U", "dateTime": 1520878076313}, {"current_trial": 75, "trialdata": {"rt": [5093, 9325, 12997, 19264, 27821, 47334], "recwords": ["puppy", "iceberg", "canal", "flute", "foot", "receipt"], "key_times": [3343, 3590, 3893, 4053, 4814, 5093, 6582, 6942, 7053, 7349, 7557, 7693, 7950, 9325, 10893, 11045, 11974, 12502, 12821, 12997, 17286, 17605, 17877, 18141, 18342, 19264, 27102, 27478, 27629, 27733, 27821, 45951, 46078, 46294, 46446, 46791, 47022, 47174, 47334], "trial_type": "free-recall", "conditions": [18, 1200, "a", 18000], "internal_node_id": "0.0-57.0-0.0", "key_presses": [80, 85, 80, 80, 89, 13, 73, 67, 69, 66, 69, 82, 71, 13, 67, 65, 78, 65, 76, 13, 70, 76, 85, 84, 69, 13, 70, 79, 79, 84, 13, 82, 69, 67, 69, 73, 80, 84, 13], "trial": 1, "time_elapsed": 455416, "type": "FREE_RECALL", "trial_index": 75}, "uniqueid": "MTK3651:3ZR9AIQJUCGLFS3DSZM68YAIRLI40U", "dateTime": 1520878136321}, {"current_trial": 76, "trialdata": {"rt": 8351, "trial_type": "text", "internal_node_id": "0.0-58.0", "time_elapsed": 465772, "key_press": 32, "type": "INSTRUCTIONS", "trial_index": 76}, "uniqueid": "MTK3651:3ZR9AIQJUCGLFS3DSZM68YAIRLI40U", "dateTime": 1520878146673}, {"current_trial": 77, "trialdata": {"rt": [2781, 4878, 7485, 10181], "trial_type": "math-distractor", "key_times": [2405, 2581, 2781, 3989, 4630, 4878, 6574, 7157, 7485, 9374, 9941, 10181], "responses": ["21", "16", "21", "16"], "num2": [5, 8, 8, 9, 8], "num3": [8, 4, 6, 4, 9], "conditions": [24, 1600, "a", 12000], "internal_node_id": "0.0-59.0", "key_presses": [50, 49, 13, 49, 54, 13, 50, 49, 13, 49, 54, 13], "trial": 2, "time_elapsed": 478774, "type": "DISTRACTOR", "trial_index": 77, "num1": [7, 4, 7, 3, 7]}, "uniqueid": "MTK3651:3ZR9AIQJUCGLFS3DSZM68YAIRLI40U", "dateTime": 1520878159675}, {"current_trial": 78, "trialdata": {"rt": -1, "trial_type": "single-stim", "stimulus": "<p id=\"stim\">10</p>", "internal_node_id": "0.0-60.0-0.0", "time_elapsed": 481776, "key_press": -1, "trial_index": 78}, "uniqueid": "MTK3651:3ZR9AIQJUCGLFS3DSZM68YAIRLI40U", "dateTime": 1520878162677}, {"current_trial": 79, "trialdata": {"rt": -1, "trial_type": "single-stim", "stimulus": "<p id=\"stim\">9</p>", "internal_node_id": "0.0-60.0-1.0", "time_elapsed": 482777, "key_press": -1, "trial_index": 79}, "uniqueid": "MTK3651:3ZR9AIQJUCGLFS3DSZM68YAIRLI40U", "dateTime": 1520878163678}, {"current_trial": 80, "trialdata": {"rt": -1, "trial_type": "single-stim", "stimulus": "<p id=\"stim\">8</p>", "internal_node_id": "0.0-60.0-2.0", "time_elapsed": 483779, "key_press": -1, "trial_index": 80}, "uniqueid": "MTK3651:3ZR9AIQJUCGLFS3DSZM68YAIRLI40U", "dateTime": 1520878164680}, {"current_trial": 81, "trialdata": {"rt": -1, "trial_type": "single-stim", "stimulus": "<p id=\"stim\">7</p>", "internal_node_id": "0.0-60.0-3.0", "time_elapsed": 484780, "key_press": -1, "trial_index": 81}, "uniqueid": "MTK3651:3ZR9AIQJUCGLFS3DSZM68YAIRLI40U", "dateTime": 1520878165681}, {"current_trial": 82, "trialdata": {"rt": -1, "trial_type": "single-stim", "stimulus": "<p id=\"stim\">6</p>", "internal_node_id": "0.0-60.0-4.0", "time_elapsed": 485781, "key_press": -1, "trial_index": 82}, "uniqueid": "MTK3651:3ZR9AIQJUCGLFS3DSZM68YAIRLI40U", "dateTime": 1520878166682}, {"current_trial": 83, "trialdata": {"rt": -1, "trial_type": "single-stim", "stimulus": "<p id=\"stim\">5</p>", "internal_node_id": "0.0-60.0-5.0", "time_elapsed": 486782, "key_press": -1, "trial_index": 83}, "uniqueid": "MTK3651:3ZR9AIQJUCGLFS3DSZM68YAIRLI40U", "dateTime": 1520878167683}, {"current_trial": 84, "trialdata": {"rt": -1, "trial_type": "single-stim", "stimulus": "<p id=\"stim\">4</p>", "internal_node_id": "0.0-60.0-6.0", "time_elapsed": 487783, "key_press": -1, "trial_index": 84}, "uniqueid": "MTK3651:3ZR9AIQJUCGLFS3DSZM68YAIRLI40U", "dateTime": 1520878168684}, {"current_trial": 85, "trialdata": {"rt": -1, "trial_type": "single-stim", "stimulus": "<p id=\"stim\">3</p>", "internal_node_id": "0.0-60.0-7.0", "time_elapsed": 488785, "key_press": -1, "trial_index": 85}, "uniqueid": "MTK3651:3ZR9AIQJUCGLFS3DSZM68YAIRLI40U", "dateTime": 1520878169686}, {"current_trial": 86, "trialdata": {"rt": -1, "trial_type": "single-stim", "stimulus": "<p id=\"stim\">2</p>", "internal_node_id": "0.0-60.0-8.0", "time_elapsed": 489785, "key_press": -1, "trial_index": 86}, "uniqueid": "MTK3651:3ZR9AIQJUCGLFS3DSZM68YAIRLI40U", "dateTime": 1520878170687}, {"current_trial": 87, "trialdata": {"rt": -1, "trial_type": "single-stim", "stimulus": "<p id=\"stim\">1</p>", "internal_node_id": "0.0-60.0-9.0", "time_elapsed": 490786, "key_press": -1, "trial_index": 87}, "uniqueid": "MTK3651:3ZR9AIQJUCGLFS3DSZM68YAIRLI40U", "dateTime": 1520878171688}, {"current_trial": 88, "trialdata": {"rt": -1, "trial_type": "single-stim", "stimulus": "<p id=\"stim\">+</p>", "internal_node_id": "0.0-61.0-0.0", "time_elapsed": 492287, "key_press": -1, "type": "FIXATION", "trial_index": 88}, "uniqueid": "MTK3651:3ZR9AIQJUCGLFS3DSZM68YAIRLI40U", "dateTime": 1520878173188}, {"current_trial": 89, "trialdata": {"rt": -1000, "trial_type": "single-audio", "word": "flag", "stimulus": "/static/audio/wordpool/FLAG.wav", "conditions": [24, 1600, "a", 12000], "internal_node_id": "0.0-62.0", "trial": 2, "time_elapsed": 494843, "serialpos": 0, "key_press": -1, "wordID": 572, "type": "PRES_AUD", "trial_index": 89}, "uniqueid": "MTK3651:3ZR9AIQJUCGLFS3DSZM68YAIRLI40U", "dateTime": 1520878175744}, {"current_trial": 90, "trialdata": {"rt": -1000, "trial_type": "single-audio", "word": "dentist", "stimulus": "/static/audio/wordpool/DENTIST.wav", "conditions": [24, 1600, "a", 12000], "internal_node_id": "0.0-63.0", "trial": 2, "time_elapsed": 497451, "serialpos": 1, "key_press": -1, "wordID": 446, "type": "PRES_AUD", "trial_index": 90}, "uniqueid": "MTK3651:3ZR9AIQJUCGLFS3DSZM68YAIRLI40U", "dateTime": 1520878178352}, {"current_trial": 91, "trialdata": {"rt": -1000, "trial_type": "single-audio", "word": "salt", "stimulus": "/static/audio/wordpool/SALT.wav", "conditions": [24, 1600, "a", 12000], "internal_node_id": "0.0-64.0", "trial": 2, "time_elapsed": 500042, "serialpos": 2, "key_press": -1, "wordID": 1228, "type": "PRES_AUD", "trial_index": 91}, "uniqueid": "MTK3651:3ZR9AIQJUCGLFS3DSZM68YAIRLI40U", "dateTime": 1520878180943}, {"current_trial": 92, "trialdata": {"rt": -1000, "trial_type": "single-audio", "word": "beef", "stimulus": "/static/audio/wordpool/BEEF.wav", "conditions": [24, 1600, "a", 12000], "internal_node_id": "0.0-65.0", "trial": 2, "time_elapsed": 502826, "serialpos": 3, "key_press": -1, "wordID": 112, "type": "PRES_AUD", "trial_index": 92}, "uniqueid": "MTK3651:3ZR9AIQJUCGLFS3DSZM68YAIRLI40U", "dateTime": 1520878183727}, {"current_trial": 93, "trialdata": {"rt": -1000, "trial_type": "single-audio", "word": "match", "stimulus": "/static/audio/wordpool/MATCH.wav", "conditions": [24, 1600, "a", 12000], "internal_node_id": "0.0-66.0", "trial": 2, "time_elapsed": 505573, "serialpos": 4, "key_press": -1, "wordID": 877, "type": "PRES_AUD", "trial_index": 93}, "uniqueid": "MTK3651:3ZR9AIQJUCGLFS3DSZM68YAIRLI40U", "dateTime": 1520878186474}, {"current_trial": 94, "trialdata": {"rt": -1000, "trial_type": "single-audio", "word": "ox", "stimulus": "/static/audio/wordpool/OX.wav", "conditions": [24, 1600, "a", 12000], "internal_node_id": "0.0-67.0", "trial": 2, "time_elapsed": 508100, "serialpos": 5, "key_press": -1, "wordID": 993, "type": "PRES_AUD", "trial_index": 94}, "uniqueid": "MTK3651:3ZR9AIQJUCGLFS3DSZM68YAIRLI40U", "dateTime": 1520878189001}, {"current_trial": 95, "trialdata": {"rt": -1000, "trial_type": "single-audio", "word": "cattle", "stimulus": "/static/audio/wordpool/CATTLE.wav", "conditions": [24, 1600, "a", 12000], "internal_node_id": "0.0-68.0", "trial": 2, "time_elapsed": 510737, "serialpos": 6, "key_press": -1, "wordID": 260, "type": "PRES_AUD", "trial_index": 95}, "uniqueid": "MTK3651:3ZR9AIQJUCGLFS3DSZM68YAIRLI40U", "dateTime": 1520878191639}, {"current_trial": 96, "trialdata": {"rt": -1000, "trial_type": "single-audio", "word": "lunch", "stimulus": "/static/audio/wordpool/LUNCH.wav", "conditions": [24, 1600, "a", 12000], "internal_node_id": "0.0-69.0", "trial": 2, "time_elapsed": 513186, "serialpos": 7, "key_press": -1, "wordID": 848, "type": "PRES_AUD", "trial_index": 96}, "uniqueid": "MTK3651:3ZR9AIQJUCGLFS3DSZM68YAIRLI40U", "dateTime": 1520878194088}, {"current_trial": 97, "trialdata": {"rt": -1000, "trial_type": "single-audio", "word": "supper", "stimulus": "/static/audio/wordpool/SUPPER.wav", "conditions": [24, 1600, "a", 12000], "internal_node_id": "0.0-70.0", "trial": 2, "time_elapsed": 515626, "serialpos": 8, "key_press": -1, "wordID": 1410, "type": "PRES_AUD", "trial_index": 97}, "uniqueid": "MTK3651:3ZR9AIQJUCGLFS3DSZM68YAIRLI40U", "dateTime": 1520878196527}, {"current_trial": 98, "trialdata": {"rt": -1000, "trial_type": "single-audio", "word": "elbow", "stimulus": "/static/audio/wordpool/ELBOW.wav", "conditions": [24, 1600, "a", 12000], "internal_node_id": "0.0-71.0", "trial": 2, "time_elapsed": 518035, "serialpos": 9, "key_press": -1, "wordID": 519, "type": "PRES_AUD", "trial_index": 98}, "uniqueid": "MTK3651:3ZR9AIQJUCGLFS3DSZM68YAIRLI40U", "dateTime": 1520878198936}, {"current_trial": 99, "trialdata": {"rt": -1000, "trial_type": "single-audio", "word": "jury", "stimulus": "/static/audio/wordpool/JURY.wav", "conditions": [24, 1600, "a", 12000], "internal_node_id": "0.0-72.0", "trial": 2, "time_elapsed": 520739, "serialpos": 10, "key_press": -1, "wordID": 765, "type": "PRES_AUD", "trial_index": 99}, "uniqueid": "MTK3651:3ZR9AIQJUCGLFS3DSZM68YAIRLI40U", "dateTime": 1520878201640}, {"current_trial": 100, "trialdata": {"rt": -1000, "trial_type": "single-audio", "word": "robber", "stimulus": "/static/audio/wordpool/ROBBER.wav", "conditions": [24, 1600, "a", 12000], "internal_node_id": "0.0-73.0", "trial": 2, "time_elapsed": 523185, "serialpos": 11, "key_press": -1, "wordID": 1196, "type": "PRES_AUD", "trial_index": 100}, "uniqueid": "MTK3651:3ZR9AIQJUCGLFS3DSZM68YAIRLI40U", "dateTime": 1520878204086}, {"current_trial": 101, "trialdata": {"rt": -1000, "trial_type": "single-audio", "word": "clock", "stimulus": "/static/audio/wordpool/CLOCK.wav", "conditions": [24, 1600, "a", 12000], "internal_node_id": "0.0-74.0", "trial": 2, "time_elapsed": 525616, "serialpos": 12, "key_press": -1, "wordID": 324, "type": "PRES_AUD", "trial_index": 101}, "uniqueid": "MTK3651:3ZR9AIQJUCGLFS3DSZM68YAIRLI40U", "dateTime": 1520878206517}, {"current_trial": 102, "trialdata": {"rt": -1000, "trial_type": "single-audio", "word": "whistle", "stimulus": "/static/audio/wordpool/WHISTLE.wav", "conditions": [24, 1600, "a", 12000], "internal_node_id": "0.0-75.0", "trial": 2, "time_elapsed": 528326, "serialpos": 13, "key_press": -1, "wordID": 1605, "type": "PRES_AUD", "trial_index": 102}, "uniqueid": "MTK3651:3ZR9AIQJUCGLFS3DSZM68YAIRLI40U", "dateTime": 1520878209227}, {"current_trial": 103, "trialdata": {"rt": -1000, "trial_type": "single-audio", "word": "lover", "stimulus": "/static/audio/wordpool/LOVER.wav", "conditions": [24, 1600, "a", 12000], "internal_node_id": "0.0-76.0", "trial": 2, "time_elapsed": 531032, "serialpos": 14, "key_press": -1, "wordID": 845, "type": "PRES_AUD", "trial_index": 103}, "uniqueid": "MTK3651:3ZR9AIQJUCGLFS3DSZM68YAIRLI40U", "dateTime": 1520878211933}, {"current_trial": 104, "trialdata": {"rt": -1000, "trial_type": "single-audio", "word": "woman", "stimulus": "/static/audio/wordpool/WOMAN.wav", "conditions": [24, 1600, "a", 12000], "internal_node_id": "0.0-77.0", "trial": 2, "time_elapsed": 533698, "serialpos": 15, "key_press": -1, "wordID": 1619, "type": "PRES_AUD", "trial_index": 104}, "uniqueid": "MTK3651:3ZR9AIQJUCGLFS3DSZM68YAIRLI40U", "dateTime": 1520878214599}, {"current_trial": 105, "trialdata": {"rt": -1000, "trial_type": "single-audio", "word": "victim", "stimulus": "/static/audio/wordpool/VICTIM.wav", "conditions": [24, 1600, "a", 12000], "internal_node_id": "0.0-78.0", "trial": 2, "time_elapsed": 536421, "serialpos": 16, "key_press": -1, "wordID": 1561, "type": "PRES_AUD", "trial_index": 105}, "uniqueid": "MTK3651:3ZR9AIQJUCGLFS3DSZM68YAIRLI40U", "dateTime": 1520878217322}, {"current_trial": 106, "trialdata": {"rt": -1000, "trial_type": "single-audio", "word": "pork", "stimulus": "/static/audio/wordpool/PORK.wav", "conditions": [24, 1600, "a", 12000], "internal_node_id": "0.0-79.0", "trial": 2, "time_elapsed": 539006, "serialpos": 17, "key_press": -1, "wordID": 1107, "type": "PRES_AUD", "trial_index": 106}, "uniqueid": "MTK3651:3ZR9AIQJUCGLFS3DSZM68YAIRLI40U", "dateTime": 1520878219907}, {"current_trial": 107, "trialdata": {"rt": -1000, "trial_type": "single-audio", "word": "army", "stimulus": "/static/audio/wordpool/ARMY.wav", "conditions": [24, 1600, "a", 12000], "internal_node_id": "0.0-80.0", "trial": 2, "time_elapsed": 541634, "serialpos": 18, "key_press": -1, "wordID": 38, "type": "PRES_AUD", "trial_index": 107}, "uniqueid": "MTK3651:3ZR9AIQJUCGLFS3DSZM68YAIRLI40U", "dateTime": 1520878222535}, {"current_trial": 108, "trialdata": {"rt": -1000, "trial_type": "single-audio", "word": "washer", "stimulus": "/static/audio/wordpool/WASHER.wav", "conditions": [24, 1600, "a", 12000], "internal_node_id": "0.0-81.0", "trial": 2, "time_elapsed": 544379, "serialpos": 19, "key_press": -1, "wordID": 1591, "type": "PRES_AUD", "trial_index": 108}, "uniqueid": "MTK3651:3ZR9AIQJUCGLFS3DSZM68YAIRLI40U", "dateTime": 1520878225280}, {"current_trial": 109, "trialdata": {"rt": -1000, "trial_type": "single-audio", "word": "partner", "stimulus": "/static/audio/wordpool/PARTNER.wav", "conditions": [24, 1600, "a", 12000], "internal_node_id": "0.0-82.0", "trial": 2, "time_elapsed": 546870, "serialpos": 20, "key_press": -1, "wordID": 1016, "type": "PRES_AUD", "trial_index": 109}, "uniqueid": "MTK3651:3ZR9AIQJUCGLFS3DSZM68YAIRLI40U", "dateTime": 1520878227772}, {"current_trial": 110, "trialdata": {"rt": -1000, "trial_type": "single-audio", "word": "bacon", "stimulus": "/static/audio/wordpool/BACON.wav", "conditions": [24, 1600, "a", 12000], "internal_node_id": "0.0-83.0", "trial": 2, "time_elapsed": 549403, "serialpos": 21, "key_press": -1, "wordID": 66, "type": "PRES_AUD", "trial_index": 110}, "uniqueid": "MTK3651:3ZR9AIQJUCGLFS3DSZM68YAIRLI40U", "dateTime": 1520878230304}, {"current_trial": 111, "trialdata": {"rt": -1000, "trial_type": "single-audio", "word": "author", "stimulus": "/static/audio/wordpool/AUTHOR.wav", "conditions": [24, 1600, "a", 12000], "internal_node_id": "0.0-84.0", "trial": 2, "time_elapsed": 551914, "serialpos": 22, "key_press": -1, "wordID": 60, "type": "PRES_AUD", "trial_index": 111}, "uniqueid": "MTK3651:3ZR9AIQJUCGLFS3DSZM68YAIRLI40U", "dateTime": 1520878232815}, {"current_trial": 112, "trialdata": {"rt": -1000, "trial_type": "single-audio", "word": "seal", "stimulus": "/static/audio/wordpool/SEAL.wav", "conditions": [24, 1600, "a", 12000], "internal_node_id": "0.0-85.0", "trial": 2, "time_elapsed": 554389, "serialpos": 23, "key_press": -1, "wordID": 1261, "type": "PRES_AUD", "trial_index": 112}, "uniqueid": "MTK3651:3ZR9AIQJUCGLFS3DSZM68YAIRLI40U", "dateTime": 1520878235290}, {"current_trial": 113, "trialdata": {"rt": -1, "trial_type": "single-stim", "stimulus": "", "internal_node_id": "0.0-86.0-0.0", "time_elapsed": 555641, "key_press": -1, "type": "PRE_RECALL_DELAY", "trial_index": 113}, "uniqueid": "MTK3651:3ZR9AIQJUCGLFS3DSZM68YAIRLI40U", "dateTime": 1520878236542}, {"current_trial": 114, "trialdata": {"rt": -1000, "trial_type": "single-audio", "stimulus": "/static/audio/400Hz.wav", "internal_node_id": "0.0-87.0", "time_elapsed": 556142, "key_press": -1, "type": "PRE_RECALL_ALERT", "trial_index": 114}, "uniqueid": "MTK3651:3ZR9AIQJUCGLFS3DSZM68YAIRLI40U", "dateTime": 1520878237043}, {"current_trial": 115, "trialdata": {"rt": [3299, 4907, 7099, 9331, 14531, 19459, 23866, 42683], "recwords": ["author", "seal", "women", "victim", "flag", "dentist", "lunch", "lunch"], "key_times": [1508, 1907, 2412, 2491, 2907, 3066, 3299, 3931, 4187, 4395, 4579, 4907, 5595, 5835, 6059, 6427, 6731, 7099, 7739, 8051, 8307, 8658, 8795, 8995, 9331, 12475, 12891, 13539, 14179, 14531, 17875, 18050, 18227, 18443, 18699, 18843, 19051, 19459, 22499, 22811, 23243, 23451, 23578, 23866, 41699, 41971, 42186, 42306, 42426, 42683], "trial_type": "free-recall", "conditions": [24, 1600, "a", 12000], "internal_node_id": "0.0-88.0-0.0", "key_presses": [65, 85, 84, 72, 79, 82, 13, 83, 69, 65, 76, 13, 87, 79, 77, 69, 78, 13, 86, 73, 67, 84, 73, 77, 13, 70, 76, 65, 71, 13, 68, 69, 78, 84, 73, 83, 84, 13, 76, 85, 78, 67, 72, 13, 76, 85, 78, 67, 72, 13], "trial": 2, "time_elapsed": 616146, "type": "FREE_RECALL", "trial_index": 115}, "uniqueid": "MTK3651:3ZR9AIQJUCGLFS3DSZM68YAIRLI40U", "dateTime": 1520878297050}, {"current_trial": 116, "trialdata": {"rt": 2814, "trial_type": "text", "internal_node_id": "0.0-89.0", "time_elapsed": 620964, "key_press": 32, "type": "INSTRUCTIONS", "trial_index": 116}, "uniqueid": "MTK3651:3ZR9AIQJUCGLFS3DSZM68YAIRLI40U", "dateTime": 1520878301865}, {"current_trial": 117, "trialdata": {"rt": [4509, 6221, 8253, 10229], "trial_type": "math-distractor", "key_times": [3229, 3901, 4509, 6021, 6221, 7757, 7925, 8253, 9837, 10053, 10229], "responses": ["17", "6", "19", "22"], "num2": [1, 1, 6, 9, 8], "num3": [9, 3, 7, 8, 9], "conditions": [12, 1600, "a", 12000], "internal_node_id": "0.0-90.0", "key_presses": [49, 55, 13, 54, 13, 49, 57, 13, 50, 50, 13], "trial": 3, "time_elapsed": 634967, "type": "DISTRACTOR", "trial_index": 117, "num1": [7, 2, 6, 5, 8]}, "uniqueid": "MTK3651:3ZR9AIQJUCGLFS3DSZM68YAIRLI40U", "dateTime": 1520878315868}, {"current_trial": 118, "trialdata": {"rt": -1, "trial_type": "single-stim", "stimulus": "<p id=\"stim\">10</p>", "internal_node_id": "0.0-91.0-0.0", "time_elapsed": 637969, "key_press": -1, "trial_index": 118}, "uniqueid": "MTK3651:3ZR9AIQJUCGLFS3DSZM68YAIRLI40U", "dateTime": 1520878318870}, {"current_trial": 119, "trialdata": {"rt": -1, "trial_type": "single-stim", "stimulus": "<p id=\"stim\">9</p>", "internal_node_id": "0.0-91.0-1.0", "time_elapsed": 638969, "key_press": -1, "trial_index": 119}, "uniqueid": "MTK3651:3ZR9AIQJUCGLFS3DSZM68YAIRLI40U", "dateTime": 1520878319870}, {"current_trial": 120, "trialdata": {"rt": -1, "trial_type": "single-stim", "stimulus": "<p id=\"stim\">8</p>", "internal_node_id": "0.0-91.0-2.0", "time_elapsed": 639970, "key_press": -1, "trial_index": 120}, "uniqueid": "MTK3651:3ZR9AIQJUCGLFS3DSZM68YAIRLI40U", "dateTime": 1520878320871}, {"current_trial": 121, "trialdata": {"rt": -1, "trial_type": "single-stim", "stimulus": "<p id=\"stim\">7</p>", "internal_node_id": "0.0-91.0-3.0", "time_elapsed": 640971, "key_press": -1, "trial_index": 121}, "uniqueid": "MTK3651:3ZR9AIQJUCGLFS3DSZM68YAIRLI40U", "dateTime": 1520878321872}, {"current_trial": 122, "trialdata": {"rt": -1, "trial_type": "single-stim", "stimulus": "<p id=\"stim\">6</p>", "internal_node_id": "0.0-91.0-4.0", "time_elapsed": 641973, "key_press": -1, "trial_index": 122}, "uniqueid": "MTK3651:3ZR9AIQJUCGLFS3DSZM68YAIRLI40U", "dateTime": 1520878322874}, {"current_trial": 123, "trialdata": {"rt": -1, "trial_type": "single-stim", "stimulus": "<p id=\"stim\">5</p>", "internal_node_id": "0.0-91.0-5.0", "time_elapsed": 642973, "key_press": -1, "trial_index": 123}, "uniqueid": "MTK3651:3ZR9AIQJUCGLFS3DSZM68YAIRLI40U", "dateTime": 1520878323874}, {"current_trial": 124, "trialdata": {"rt": -1, "trial_type": "single-stim", "stimulus": "<p id=\"stim\">4</p>", "internal_node_id": "0.0-91.0-6.0", "time_elapsed": 643974, "key_press": -1, "trial_index": 124}, "uniqueid": "MTK3651:3ZR9AIQJUCGLFS3DSZM68YAIRLI40U", "dateTime": 1520878324875}, {"current_trial": 125, "trialdata": {"rt": -1, "trial_type": "single-stim", "stimulus": "<p id=\"stim\">3</p>", "internal_node_id": "0.0-91.0-7.0", "time_elapsed": 644975, "key_press": -1, "trial_index": 125}, "uniqueid": "MTK3651:3ZR9AIQJUCGLFS3DSZM68YAIRLI40U", "dateTime": 1520878325877}, {"current_trial": 126, "trialdata": {"rt": -1, "trial_type": "single-stim", "stimulus": "<p id=\"stim\">2</p>", "internal_node_id": "0.0-91.0-8.0", "time_elapsed": 645977, "key_press": -1, "trial_index": 126}, "uniqueid": "MTK3651:3ZR9AIQJUCGLFS3DSZM68YAIRLI40U", "dateTime": 1520878326878}, {"current_trial": 127, "trialdata": {"rt": -1, "trial_type": "single-stim", "stimulus": "<p id=\"stim\">1</p>", "internal_node_id": "0.0-91.0-9.0", "time_elapsed": 646978, "key_press": -1, "trial_index": 127}, "uniqueid": "MTK3651:3ZR9AIQJUCGLFS3DSZM68YAIRLI40U", "dateTime": 1520878327879}, {"current_trial": 128, "trialdata": {"rt": -1, "trial_type": "single-stim", "stimulus": "<p id=\"stim\">+</p>", "internal_node_id": "0.0-92.0-0.0", "time_elapsed": 648479, "key_press": -1, "type": "FIXATION", "trial_index": 128}, "uniqueid": "MTK3651:3ZR9AIQJUCGLFS3DSZM68YAIRLI40U", "dateTime": 1520878329380}, {"current_trial": 129, "trialdata": {"rt": -1000, "trial_type": "single-audio", "word": "skillet", "stimulus": "/static/audio/wordpool/SKILLET.wav", "conditions": [12, 1600, "a", 12000], "internal_node_id": "0.0-93.0", "trial": 3, "time_elapsed": 651196, "serialpos": 0, "key_press": -1, "wordID": 1316, "type": "PRES_AUD", "trial_index": 129}, "uniqueid": "MTK3651:3ZR9AIQJUCGLFS3DSZM68YAIRLI40U", "dateTime": 1520878332097}, {"current_trial": 130, "trialdata": {"rt": -1000, "trial_type": "single-audio", "word": "teacher", "stimulus": "/static/audio/wordpool/TEACHER.wav", "conditions": [12, 1600, "a", 12000], "internal_node_id": "0.0-94.0", "trial": 3, "time_elapsed": 653666, "serialpos": 1, "key_press": -1, "wordID": 1439, "type": "PRES_AUD", "trial_index": 130}, "uniqueid": "MTK3651:3ZR9AIQJUCGLFS3DSZM68YAIRLI40U", "dateTime": 1520878334568}, {"current_trial": 131, "trialdata": {"rt": -1000, "trial_type": "single-audio", "word": "student", "stimulus": "/static/audio/wordpool/STUDENT.wav", "conditions": [12, 1600, "a", 12000], "internal_node_id": "0.0-95.0", "trial": 3, "time_elapsed": 656364, "serialpos": 2, "key_press": -1, "wordID": 1394, "type": "PRES_AUD", "trial_index": 131}, "uniqueid": "MTK3651:3ZR9AIQJUCGLFS3DSZM68YAIRLI40U", "dateTime": 1520878337265}, {"current_trial": 132, "trialdata": {"rt": -1000, "trial_type": "single-audio", "word": "subway", "stimulus": "/static/audio/wordpool/SUBWAY.wav", "conditions": [12, 1600, "a", 12000], "internal_node_id": "0.0-96.0", "trial": 3, "time_elapsed": 658886, "serialpos": 3, "key_press": -1, "wordID": 1399, "type": "PRES_AUD", "trial_index": 132}, "uniqueid": "MTK3651:3ZR9AIQJUCGLFS3DSZM68YAIRLI40U", "dateTime": 1520878339787}, {"current_trial": 133, "trialdata": {"rt": -1000, "trial_type": "single-audio", "word": "pigeon", "stimulus": "/static/audio/wordpool/PIGEON.wav", "conditions": [12, 1600, "a", 12000], "internal_node_id": "0.0-97.0", "trial": 3, "time_elapsed": 661563, "serialpos": 4, "key_press": -1, "wordID": 1064, "type": "PRES_AUD", "trial_index": 133}, "uniqueid": "MTK3651:3ZR9AIQJUCGLFS3DSZM68YAIRLI40U", "dateTime": 1520878342465}, {"current_trial": 134, "trialdata": {"rt": -1000, "trial_type": "single-audio", "word": "laser", "stimulus": "/static/audio/wordpool/LASER.wav", "conditions": [12, 1600, "a", 12000], "internal_node_id": "0.0-98.0", "trial": 3, "time_elapsed": 664183, "serialpos": 5, "key_press": -1, "wordID": 800, "type": "PRES_AUD", "trial_index": 134}, "uniqueid": "MTK3651:3ZR9AIQJUCGLFS3DSZM68YAIRLI40U", "dateTime": 1520878345084}, {"current_trial": 135, "trialdata": {"rt": -1000, "trial_type": "single-audio", "word": "robin", "stimulus": "/static/audio/wordpool/ROBIN.wav", "conditions": [12, 1600, "a", 12000], "internal_node_id": "0.0-99.0", "trial": 3, "time_elapsed": 666898, "serialpos": 6, "key_press": -1, "wordID": 1198, "type": "PRES_AUD", "trial_index": 135}, "uniqueid": "MTK3651:3ZR9AIQJUCGLFS3DSZM68YAIRLI40U", "dateTime": 1520878347799}, {"current_trial": 136, "trialdata": {"rt": -1000, "trial_type": "single-audio", "word": "leopard", "stimulus": "/static/audio/wordpool/LEOPARD.wav", "conditions": [12, 1600, "a", 12000], "internal_node_id": "0.0-100.0", "trial": 3, "time_elapsed": 669590, "serialpos": 7, "key_press": -1, "wordID": 811, "type": "PRES_AUD", "trial_index": 136}, "uniqueid": "MTK3651:3ZR9AIQJUCGLFS3DSZM68YAIRLI40U", "dateTime": 1520878350491}, {"current_trial": 137, "trialdata": {"rt": -1000, "trial_type": "single-audio", "word": "typist", "stimulus": "/static/audio/wordpool/TYPIST.wav", "conditions": [12, 1600, "a", 12000], "internal_node_id": "0.0-101.0", "trial": 3, "time_elapsed": 672087, "serialpos": 8, "key_press": -1, "wordID": 1531, "type": "PRES_AUD", "trial_index": 137}, "uniqueid": "MTK3651:3ZR9AIQJUCGLFS3DSZM68YAIRLI40U", "dateTime": 1520878352988}, {"current_trial": 138, "trialdata": {"rt": -1000, "trial_type": "single-audio", "word": "mailman", "stimulus": "/static/audio/wordpool/MAILMAN.wav", "conditions": [12, 1600, "a", 12000], "internal_node_id": "0.0-102.0", "trial": 3, "time_elapsed": 674772, "serialpos": 9, "key_press": -1, "wordID": 857, "type": "PRES_AUD", "trial_index": 138}, "uniqueid": "MTK3651:3ZR9AIQJUCGLFS3DSZM68YAIRLI40U", "dateTime": 1520878355673}, {"current_trial": 139, "trialdata": {"rt": -1000, "trial_type": "single-audio", "word": "chipmunk", "stimulus": "/static/audio/wordpool/CHIPMUNK.wav", "conditions": [12, 1600, "a", 12000], "internal_node_id": "0.0-103.0", "trial": 3, "time_elapsed": 677408, "serialpos": 10, "key_press": -1, "wordID": 303, "type": "PRES_AUD", "trial_index": 139}, "uniqueid": "MTK3651:3ZR9AIQJUCGLFS3DSZM68YAIRLI40U", "dateTime": 1520878358309}, {"current_trial": 140, "trialdata": {"rt": -1000, "trial_type": "single-audio", "word": "zebra", "stimulus": "/static/audio/wordpool/ZEBRA.wav", "conditions": [12, 1600, "a", 12000], "internal_node_id": "0.0-104.0", "trial": 3, "time_elapsed": 680077, "serialpos": 11, "key_press": -1, "wordID": 1634, "type": "PRES_AUD", "trial_index": 140}, "uniqueid": "MTK3651:3ZR9AIQJUCGLFS3DSZM68YAIRLI40U", "dateTime": 1520878360979}, {"current_trial": 141, "trialdata": {"rt": -1, "trial_type": "single-stim", "stimulus": "", "internal_node_id": "0.0-105.0-0.0", "time_elapsed": 681279, "key_press": -1, "type": "PRE_RECALL_DELAY", "trial_index": 141}, "uniqueid": "MTK3651:3ZR9AIQJUCGLFS3DSZM68YAIRLI40U", "dateTime": 1520878362181}, {"current_trial": 142, "trialdata": {"rt": -1000, "trial_type": "single-audio", "stimulus": "/static/audio/400Hz.wav", "internal_node_id": "0.0-106.0", "time_elapsed": 681781, "key_press": -1, "type": "PRE_RECALL_ALERT", "trial_index": 142}, "uniqueid": "MTK3651:3ZR9AIQJUCGLFS3DSZM68YAIRLI40U", "dateTime": 1520878362682}, {"current_trial": 143, "trialdata": {"rt": [5717, 9109, 13117, 18708, 21500, 25629], "recwords": ["teacher", "student", "zebra", "chipmonk", "laset", "pigeon"], "key_times": [2982, 3157, 3462, 4029, 4237, 4349, 4445, 5717, 6820, 7580, 7749, 8085, 8165, 8429, 8677, 9109, 10685, 11173, 11573, 12269, 12621, 13117, 13821, 14165, 14636, 14940, 15325, 15501, 15653, 15973, 15980, 17533, 18708, 19628, 19812, 19916, 20268, 21164, 21500, 24021, 24301, 24613, 24822, 24996, 25293, 25629], "trial_type": "free-recall", "conditions": [12, 1600, "a", 12000], "internal_node_id": "0.0-107.0-0.0", "key_presses": [84, 69, 65, 67, 72, 69, 82, 13, 83, 84, 85, 68, 69, 78, 84, 13, 90, 69, 66, 82, 65, 13, 67, 72, 73, 80, 77, 79, 78, 75, 76, 8, 13, 76, 65, 83, 69, 84, 13, 80, 73, 71, 69, 79, 78, 13], "trial": 3, "time_elapsed": 741782, "type": "FREE_RECALL", "trial_index": 143}, "uniqueid": "MTK3651:3ZR9AIQJUCGLFS3DSZM68YAIRLI40U", "dateTime": 1520878422685}, {"current_trial": 144, "trialdata": {"rt": 1480, "trial_type": "text", "internal_node_id": "0.0-108.0", "time_elapsed": 745265, "key_press": 32, "type": "INSTRUCTIONS", "trial_index": 144}, "uniqueid": "MTK3651:3ZR9AIQJUCGLFS3DSZM68YAIRLI40U", "dateTime": 1520878426166}, {"current_trial": 145, "trialdata": {"rt": [2086, 4357, 6094, 7805, 9741, 11453], "trial_type": "math-distractor", "key_times": [1629, 1790, 2086, 3613, 4069, 4357, 5541, 5862, 6094, 7166, 7630, 7805, 8901, 9461, 9741, 10934, 11221, 11453], "responses": ["18", "17", "10", "15", "17", "18"], "num2": [8, 9, 1, 7, 5, 9, 2], "num3": [1, 6, 5, 4, 4, 2, 6], "conditions": [24, 800, "a", 12000], "internal_node_id": "0.0-109.0", "key_presses": [49, 56, 13, 49, 55, 13, 49, 48, 13, 49, 53, 13, 49, 55, 13, 49, 56, 13], "trial": 4, "time_elapsed": 759268, "type": "DISTRACTOR", "trial_index": 145, "num1": [9, 2, 4, 4, 8, 7, 9]}, "uniqueid": "MTK3651:3ZR9AIQJUCGLFS3DSZM68YAIRLI40U", "dateTime": 1520878440169}, {"current_trial": 146, "trialdata": {"rt": -1, "trial_type": "single-stim", "stimulus": "<p id=\"stim\">10</p>", "internal_node_id": "0.0-110.0-0.0", "time_elapsed": 762270, "key_press": -1, "trial_index": 146}, "uniqueid": "MTK3651:3ZR9AIQJUCGLFS3DSZM68YAIRLI40U", "dateTime": 1520878443171}, {"current_trial": 147, "trialdata": {"rt": -1, "trial_type": "single-stim", "stimulus": "<p id=\"stim\">9</p>", "internal_node_id": "0.0-110.0-1.0", "time_elapsed": 763271, "key_press": -1, "trial_index": 147}, "uniqueid": "MTK3651:3ZR9AIQJUCGLFS3DSZM68YAIRLI40U", "dateTime": 1520878444172}, {"current_trial": 148, "trialdata": {"rt": -1, "trial_type": "single-stim", "stimulus": "<p id=\"stim\">8</p>", "internal_node_id": "0.0-110.0-2.0", "time_elapsed": 764272, "key_press": -1, "trial_index": 148}, "uniqueid": "MTK3651:3ZR9AIQJUCGLFS3DSZM68YAIRLI40U", "dateTime": 1520878445173}, {"current_trial": 149, "trialdata": {"rt": -1, "trial_type": "single-stim", "stimulus": "<p id=\"stim\">7</p>", "internal_node_id": "0.0-110.0-3.0", "time_elapsed": 765273, "key_press": -1, "trial_index": 149}, "uniqueid": "MTK3651:3ZR9AIQJUCGLFS3DSZM68YAIRLI40U", "dateTime": 1520878446174}, {"current_trial": 150, "trialdata": {"rt": -1, "trial_type": "single-stim", "stimulus": "<p id=\"stim\">6</p>", "internal_node_id": "0.0-110.0-4.0", "time_elapsed": 766274, "key_press": -1, "trial_index": 150}, "uniqueid": "MTK3651:3ZR9AIQJUCGLFS3DSZM68YAIRLI40U", "dateTime": 1520878447175}, {"current_trial": 151, "trialdata": {"rt": -1, "trial_type": "single-stim", "stimulus": "<p id=\"stim\">5</p>", "internal_node_id": "0.0-110.0-5.0", "time_elapsed": 767275, "key_press": -1, "trial_index": 151}, "uniqueid": "MTK3651:3ZR9AIQJUCGLFS3DSZM68YAIRLI40U", "dateTime": 1520878448176}, {"current_trial": 152, "trialdata": {"rt": -1, "trial_type": "single-stim", "stimulus": "<p id=\"stim\">4</p>", "internal_node_id": "0.0-110.0-6.0", "time_elapsed": 768276, "key_press": -1, "trial_index": 152}, "uniqueid": "MTK3651:3ZR9AIQJUCGLFS3DSZM68YAIRLI40U", "dateTime": 1520878449177}, {"current_trial": 153, "trialdata": {"rt": -1, "trial_type": "single-stim", "stimulus": "<p id=\"stim\">3</p>", "internal_node_id": "0.0-110.0-7.0", "time_elapsed": 769277, "key_press": -1, "trial_index": 153}, "uniqueid": "MTK3651:3ZR9AIQJUCGLFS3DSZM68YAIRLI40U", "dateTime": 1520878450178}, {"current_trial": 154, "trialdata": {"rt": -1, "trial_type": "single-stim", "stimulus": "<p id=\"stim\">2</p>", "internal_node_id": "0.0-110.0-8.0", "time_elapsed": 770278, "key_press": -1, "trial_index": 154}, "uniqueid": "MTK3651:3ZR9AIQJUCGLFS3DSZM68YAIRLI40U", "dateTime": 1520878451179}, {"current_trial": 155, "trialdata": {"rt": -1, "trial_type": "single-stim", "stimulus": "<p id=\"stim\">1</p>", "internal_node_id": "0.0-110.0-9.0", "time_elapsed": 771280, "key_press": -1, "trial_index": 155}, "uniqueid": "MTK3651:3ZR9AIQJUCGLFS3DSZM68YAIRLI40U", "dateTime": 1520878452181}, {"current_trial": 156, "trialdata": {"rt": -1, "trial_type": "single-stim", "stimulus": "<p id=\"stim\">+</p>", "internal_node_id": "0.0-111.0-0.0", "time_elapsed": 772781, "key_press": -1, "type": "FIXATION", "trial_index": 156}, "uniqueid": "MTK3651:3ZR9AIQJUCGLFS3DSZM68YAIRLI40U", "dateTime": 1520878453682}, {"current_trial": 157, "trialdata": {"rt": -1000, "trial_type": "single-audio", "word": "perfume", "stimulus": "/static/audio/wordpool/PERFUME.wav", "conditions": [24, 800, "a", 12000], "internal_node_id": "0.0-112.0", "trial": 4, "time_elapsed": 774642, "serialpos": 0, "key_press": -1, "wordID": 1048, "type": "PRES_AUD", "trial_index": 157}, "uniqueid": "MTK3651:3ZR9AIQJUCGLFS3DSZM68YAIRLI40U", "dateTime": 1520878455543}, {"current_trial": 158, "trialdata": {"rt": -1000, "trial_type": "single-audio", "word": "fragrance", "stimulus": "/static/audio/wordpool/FRAGRANCE.wav", "conditions": [24, 800, "a", 12000], "internal_node_id": "0.0-113.0", "trial": 4, "time_elapsed": 776392, "serialpos": 1, "key_press": -1, "wordID": 598, "type": "PRES_AUD", "trial_index": 158}, "uniqueid": "MTK3651:3ZR9AIQJUCGLFS3DSZM68YAIRLI40U", "dateTime": 1520878457293}, {"current_trial": 159, "trialdata": {"rt": -1000, "trial_type": "single-audio", "word": "braces", "stimulus": "/static/audio/wordpool/BRACES.wav", "conditions": [24, 800, "a", 12000], "internal_node_id": "0.0-114.0", "trial": 4, "time_elapsed": 778306, "serialpos": 2, "key_press": -1, "wordID": 163, "type": "PRES_AUD", "trial_index": 159}, "uniqueid": "MTK3651:3ZR9AIQJUCGLFS3DSZM68YAIRLI40U", "dateTime": 1520878459207}, {"current_trial": 160, "trialdata": {"rt": -1000, "trial_type": "single-audio", "word": "beaker", "stimulus": "/static/audio/wordpool/BEAKER.wav", "conditions": [24, 800, "a", 12000], "internal_node_id": "0.0-115.0", "trial": 4, "time_elapsed": 780021, "serialpos": 3, "key_press": -1, "wordID": 103, "type": "PRES_AUD", "trial_index": 160}, "uniqueid": "MTK3651:3ZR9AIQJUCGLFS3DSZM68YAIRLI40U", "dateTime": 1520878460922}, {"current_trial": 161, "trialdata": {"rt": -1000, "trial_type": "single-audio", "word": "climber", "stimulus": "/static/audio/wordpool/CLIMBER.wav", "conditions": [24, 800, "a", 12000], "internal_node_id": "0.0-116.0", "trial": 4, "time_elapsed": 781690, "serialpos": 4, "key_press": -1, "wordID": 322, "type": "PRES_AUD", "trial_index": 161}, "uniqueid": "MTK3651:3ZR9AIQJUCGLFS3DSZM68YAIRLI40U", "dateTime": 1520878462591}, {"current_trial": 162, "trialdata": {"rt": -1000, "trial_type": "single-audio", "word": "crater", "stimulus": "/static/audio/wordpool/CRATER.wav", "conditions": [24, 800, "a", 12000], "internal_node_id": "0.0-117.0", "trial": 4, "time_elapsed": 783648, "serialpos": 5, "key_press": -1, "wordID": 399, "type": "PRES_AUD", "trial_index": 162}, "uniqueid": "MTK3651:3ZR9AIQJUCGLFS3DSZM68YAIRLI40U", "dateTime": 1520878464549}, {"current_trial": 163, "trialdata": {"rt": -1000, "trial_type": "single-audio", "word": "world", "stimulus": "/static/audio/wordpool/WORLD.wav", "conditions": [24, 800, "a", 12000], "internal_node_id": "0.0-118.0", "trial": 4, "time_elapsed": 785493, "serialpos": 6, "key_press": -1, "wordID": 1621, "type": "PRES_AUD", "trial_index": 163}, "uniqueid": "MTK3651:3ZR9AIQJUCGLFS3DSZM68YAIRLI40U", "dateTime": 1520878466395}, {"current_trial": 164, "trialdata": {"rt": -1000, "trial_type": "single-audio", "word": "bathtub", "stimulus": "/static/audio/wordpool/BATHTUB.wav", "conditions": [24, 800, "a", 12000], "internal_node_id": "0.0-119.0", "trial": 4, "time_elapsed": 787355, "serialpos": 7, "key_press": -1, "wordID": 99, "type": "PRES_AUD", "trial_index": 164}, "uniqueid": "MTK3651:3ZR9AIQJUCGLFS3DSZM68YAIRLI40U", "dateTime": 1520878468256}, {"current_trial": 165, "trialdata": {"rt": -1000, "trial_type": "single-audio", "word": "yarn", "stimulus": "/static/audio/wordpool/YARN.wav", "conditions": [24, 800, "a", 12000], "internal_node_id": "0.0-120.0", "trial": 4, "time_elapsed": 789173, "serialpos": 8, "key_press": -1, "wordID": 1630, "type": "PRES_AUD", "trial_index": 165}, "uniqueid": "MTK3651:3ZR9AIQJUCGLFS3DSZM68YAIRLI40U", "dateTime": 1520878470074}, {"current_trial": 166, "trialdata": {"rt": -1000, "trial_type": "single-audio", "word": "cod", "stimulus": "/static/audio/wordpool/COD.wav", "conditions": [24, 800, "a", 12000], "internal_node_id": "0.0-121.0", "trial": 4, "time_elapsed": 790992, "serialpos": 9, "key_press": -1, "wordID": 339, "type": "PRES_AUD", "trial_index": 166}, "uniqueid": "MTK3651:3ZR9AIQJUCGLFS3DSZM68YAIRLI40U", "dateTime": 1520878471893}, {"current_trial": 167, "trialdata": {"rt": -1000, "trial_type": "single-audio", "word": "globe", "stimulus": "/static/audio/wordpool/GLOBE.wav", "conditions": [24, 800, "a", 12000], "internal_node_id": "0.0-122.0", "trial": 4, "time_elapsed": 792893, "serialpos": 10, "key_press": -1, "wordID": 640, "type": "PRES_AUD", "trial_index": 167}, "uniqueid": "MTK3651:3ZR9AIQJUCGLFS3DSZM68YAIRLI40U", "dateTime": 1520878473794}, {"current_trial": 168, "trialdata": {"rt": -1000, "trial_type": "single-audio", "word": "leg", "stimulus": "/static/audio/wordpool/LEG.wav", "conditions": [24, 800, "a", 12000], "internal_node_id": "0.0-123.0", "trial": 4, "time_elapsed": 794649, "serialpos": 11, "key_press": -1, "wordID": 808, "type": "PRES_AUD", "trial_index": 168}, "uniqueid": "MTK3651:3ZR9AIQJUCGLFS3DSZM68YAIRLI40U", "dateTime": 1520878475550}, {"current_trial": 169, "trialdata": {"rt": -1000, "trial_type": "single-audio", "word": "spool", "stimulus": "/static/audio/wordpool/SPOOL.wav", "conditions": [24, 800, "a", 12000], "internal_node_id": "0.0-124.0", "trial": 4, "time_elapsed": 796335, "serialpos": 12, "key_press": -1, "wordID": 1355, "type": "PRES_AUD", "trial_index": 169}, "uniqueid": "MTK3651:3ZR9AIQJUCGLFS3DSZM68YAIRLI40U", "dateTime": 1520878477236}, {"current_trial": 170, "trialdata": {"rt": -1000, "trial_type": "single-audio", "word": "crutch", "stimulus": "/static/audio/wordpool/CRUTCH.wav", "conditions": [24, 800, "a", 12000], "internal_node_id": "0.0-125.0", "trial": 4, "time_elapsed": 798185, "serialpos": 13, "key_press": -1, "wordID": 416, "type": "PRES_AUD", "trial_index": 170}, "uniqueid": "MTK3651:3ZR9AIQJUCGLFS3DSZM68YAIRLI40U", "dateTime": 1520878479086}, {"current_trial": 171, "trialdata": {"rt": -1000, "trial_type": "single-audio", "word": "popcorn", "stimulus": "/static/audio/wordpool/POPCORN.wav", "conditions": [24, 800, "a", 12000], "internal_node_id": "0.0-126.0", "trial": 4, "time_elapsed": 799817, "serialpos": 14, "key_press": -1, "wordID": 1103, "type": "PRES_AUD", "trial_index": 171}, "uniqueid": "MTK3651:3ZR9AIQJUCGLFS3DSZM68YAIRLI40U", "dateTime": 1520878480718}, {"current_trial": 172, "trialdata": {"rt": -1000, "trial_type": "single-audio", "word": "toaster", "stimulus": "/static/audio/wordpool/TOASTER.wav", "conditions": [24, 800, "a", 12000], "internal_node_id": "0.0-127.0", "trial": 4, "time_elapsed": 801533, "serialpos": 15, "key_press": -1, "wordID": 1471, "type": "PRES_AUD", "trial_index": 172}, "uniqueid": "MTK3651:3ZR9AIQJUCGLFS3DSZM68YAIRLI40U", "dateTime": 1520878482434}, {"current_trial": 173, "trialdata": {"rt": -1000, "trial_type": "single-audio", "word": "cricket", "stimulus": "/static/audio/wordpool/CRICKET.wav", "conditions": [24, 800, "a", 12000], "internal_node_id": "0.0-128.0", "trial": 4, "time_elapsed": 803336, "serialpos": 16, "key_press": -1, "wordID": 407, "type": "PRES_AUD", "trial_index": 173}, "uniqueid": "MTK3651:3ZR9AIQJUCGLFS3DSZM68YAIRLI40U", "dateTime": 1520878484237}, {"current_trial": 174, "trialdata": {"rt": -1000, "trial_type": "single-audio", "word": "tourist", "stimulus": "/static/audio/wordpool/TOURIST.wav", "conditions": [24, 800, "a", 12000], "internal_node_id": "0.0-129.0", "trial": 4, "time_elapsed": 805230, "serialpos": 17, "key_press": -1, "wordID": 1487, "type": "PRES_AUD", "trial_index": 174}, "uniqueid": "MTK3651:3ZR9AIQJUCGLFS3DSZM68YAIRLI40U", "dateTime": 1520878486131}, {"current_trial": 175, "trialdata": {"rt": -1000, "trial_type": "single-audio", "word": "bank", "stimulus": "/static/audio/wordpool/BANK.wav", "conditions": [24, 800, "a", 12000], "internal_node_id": "0.0-130.0", "trial": 4, "time_elapsed": 807036, "serialpos": 18, "key_press": -1, "wordID": 82, "type": "PRES_AUD", "trial_index": 175}, "uniqueid": "MTK3651:3ZR9AIQJUCGLFS3DSZM68YAIRLI40U", "dateTime": 1520878487938}, {"current_trial": 176, "trialdata": {"rt": -1000, "trial_type": "single-audio", "word": "husband", "stimulus": "/static/audio/wordpool/HUSBAND.wav", "conditions": [24, 800, "a", 12000], "internal_node_id": "0.0-131.0", "trial": 4, "time_elapsed": 808721, "serialpos": 19, "key_press": -1, "wordID": 727, "type": "PRES_AUD", "trial_index": 176}, "uniqueid": "MTK3651:3ZR9AIQJUCGLFS3DSZM68YAIRLI40U", "dateTime": 1520878489622}, {"current_trial": 177, "trialdata": {"rt": -1000, "trial_type": "single-audio", "word": "sunrise", "stimulus": "/static/audio/wordpool/SUNRISE.wav", "conditions": [24, 800, "a", 12000], "internal_node_id": "0.0-132.0", "trial": 4, "time_elapsed": 810328, "serialpos": 20, "key_press": -1, "wordID": 1406, "type": "PRES_AUD", "trial_index": 177}, "uniqueid": "MTK3651:3ZR9AIQJUCGLFS3DSZM68YAIRLI40U", "dateTime": 1520878491229}, {"current_trial": 178, "trialdata": {"rt": -1000, "trial_type": "single-audio", "word": "sunset", "stimulus": "/static/audio/wordpool/SUNSET.wav", "conditions": [24, 800, "a", 12000], "internal_node_id": "0.0-133.0", "trial": 4, "time_elapsed": 812024, "serialpos": 21, "key_press": -1, "wordID": 1407, "type": "PRES_AUD", "trial_index": 178}, "uniqueid": "MTK3651:3ZR9AIQJUCGLFS3DSZM68YAIRLI40U", "dateTime": 1520878492925}, {"current_trial": 179, "trialdata": {"rt": -1000, "trial_type": "single-audio", "word": "grape", "stimulus": "/static/audio/wordpool/GRAPE.wav", "conditions": [24, 800, "a", 12000], "internal_node_id": "0.0-134.0", "trial": 4, "time_elapsed": 813984, "serialpos": 22, "key_press": -1, "wordID": 653, "type": "PRES_AUD", "trial_index": 179}, "uniqueid": "MTK3651:3ZR9AIQJUCGLFS3DSZM68YAIRLI40U", "dateTime": 1520878494885}, {"current_trial": 180, "trialdata": {"rt": -1000, "trial_type": "single-audio", "word": "spouse", "stimulus": "/static/audio/wordpool/SPOUSE.wav", "conditions": [24, 800, "a", 12000], "internal_node_id": "0.0-135.0", "trial": 4, "time_elapsed": 815849, "serialpos": 23, "key_press": -1, "wordID": 1357, "type": "PRES_AUD", "trial_index": 180}, "uniqueid": "MTK3651:3ZR9AIQJUCGLFS3DSZM68YAIRLI40U", "dateTime": 1520878496750}, {"current_trial": 181, "trialdata": {"rt": -1, "trial_type": "single-stim", "stimulus": "", "internal_node_id": "0.0-136.0-0.0", "time_elapsed": 817114, "key_press": -1, "type": "PRE_RECALL_DELAY", "trial_index": 181}, "uniqueid": "MTK3651:3ZR9AIQJUCGLFS3DSZM68YAIRLI40U", "dateTime": 1520878498015}, {"current_trial": 182, "trialdata": {"rt": -1000, "trial_type": "single-audio", "stimulus": "/static/audio/400Hz.wav", "internal_node_id": "0.0-137.0", "time_elapsed": 817615, "key_press": -1, "type": "PRE_RECALL_ALERT", "trial_index": 182}, "uniqueid": "MTK3651:3ZR9AIQJUCGLFS3DSZM68YAIRLI40U", "dateTime": 1520878498516}, {"current_trial": 183, "trialdata": {"rt": [6879, 9575, 14399, 19823, 22750, 34383, 45559], "recwords": ["spouse", "sunrise", "sunset", "popcorn", "globe", "cricket", "bathtub"], "key_times": [4488, 4735, 5599, 5942, 6359, 6647, 6879, 7927, 8119, 8335, 8694, 8879, 9079, 9327, 9575, 10246, 10671, 10967, 11159, 11374, 11671, 14399, 17991, 18126, 18343, 18807, 19014, 19182, 19535, 19823, 21439, 21807, 21998, 22127, 22358, 22750, 32928, 33135, 33552, 33751, 33896, 34039, 34247, 34383, 40415, 40719, 40991, 41135, 41407, 42783, 43216, 45559], "trial_type": "free-recall", "conditions": [24, 800, "a", 12000], "internal_node_id": "0.0-138.0-0.0", "key_presses": [83, 80, 79, 85, 83, 69, 13, 83, 85, 78, 82, 73, 83, 69, 13, 83, 85, 78, 83, 69, 84, 13, 80, 79, 80, 67, 79, 82, 78, 13, 71, 76, 79, 66, 69, 13, 67, 82, 73, 67, 75, 69, 84, 13, 66, 65, 84, 72, 84, 85, 66, 13], "trial": 4, "time_elapsed": 877618, "type": "FREE_RECALL", "trial_index": 183}, "uniqueid": "MTK3651:3ZR9AIQJUCGLFS3DSZM68YAIRLI40U", "dateTime": 1520878558523}, {"current_trial": 184, "trialdata": {"rt": 11153, "trial_type": "text", "internal_node_id": "0.0-139.0", "time_elapsed": 890776, "key_press": 32, "type": "INSTRUCTIONS", "trial_index": 184}, "uniqueid": "MTK3651:3ZR9AIQJUCGLFS3DSZM68YAIRLI40U", "dateTime": 1520878571677}, {"current_trial": 185, "trialdata": {"rt": [1950, 5494, 8198, 10142, 14064, 17160, 19199, 20879, 22799], "trial_type": "math-distractor", "key_times": [1479, 1654, 1950, 5062, 5214, 5494, 7478, 7870, 8198, 9358, 9950, 10142, 13111, 13768, 14064, 16575, 16999, 17160, 18624, 18903, 19199, 20455, 20655, 20879, 22312, 22527, 22799, 23792], "responses": ["10", "20", "14", "15", "15", "13", "19", "11", "10"], "num2": [4, 4, 4, 3, 4, 6, 7, 3, 5, 8], "num3": [3, 8, 9, 3, 9, 4, 6, 3, 1, 1], "conditions": [12, 1600, "a", 24000], "internal_node_id": "0.0-140.0", "key_presses": [49, 48, 13, 50, 48, 13, 49, 52, 13, 49, 53, 13, 49, 53, 13, 49, 51, 13, 49, 57, 13, 49, 49, 13, 49, 48, 13, 49], "trial": 5, "time_elapsed": 916780, "type": "DISTRACTOR", "trial_index": 185, "num1": [3, 8, 1, 9, 2, 3, 6, 5, 4, 8]}, "uniqueid": "MTK3651:3ZR9AIQJUCGLFS3DSZM68YAIRLI40U", "dateTime": 1520878597681}, {"current_trial": 186, "trialdata": {"rt": -1, "trial_type": "single-stim", "stimulus": "<p id=\"stim\">10</p>", "internal_node_id": "0.0-141.0-0.0", "time_elapsed": 919782, "key_press": -1, "trial_index": 186}, "uniqueid": "MTK3651:3ZR9AIQJUCGLFS3DSZM68YAIRLI40U", "dateTime": 1520878600683}, {"current_trial": 187, "trialdata": {"rt": -1, "trial_type": "single-stim", "stimulus": "<p id=\"stim\">9</p>", "internal_node_id": "0.0-141.0-1.0", "time_elapsed": 920783, "key_press": -1, "trial_index": 187}, "uniqueid": "MTK3651:3ZR9AIQJUCGLFS3DSZM68YAIRLI40U", "dateTime": 1520878601684}, {"current_trial": 188, "trialdata": {"rt": -1, "trial_type": "single-stim", "stimulus": "<p id=\"stim\">8</p>", "internal_node_id": "0.0-141.0-2.0", "time_elapsed": 921784, "key_press": -1, "trial_index": 188}, "uniqueid": "MTK3651:3ZR9AIQJUCGLFS3DSZM68YAIRLI40U", "dateTime": 1520878602685}, {"current_trial": 189, "trialdata": {"rt": -1, "trial_type": "single-stim", "stimulus": "<p id=\"stim\">7</p>", "internal_node_id": "0.0-141.0-3.0", "time_elapsed": 922785, "key_press": -1, "trial_index": 189}, "uniqueid": "MTK3651:3ZR9AIQJUCGLFS3DSZM68YAIRLI40U", "dateTime": 1520878603686}, {"current_trial": 190, "trialdata": {"rt": -1, "trial_type": "single-stim", "stimulus": "<p id=\"stim\">6</p>", "internal_node_id": "0.0-141.0-4.0", "time_elapsed": 923786, "key_press": -1, "trial_index": 190}, "uniqueid": "MTK3651:3ZR9AIQJUCGLFS3DSZM68YAIRLI40U", "dateTime": 1520878604688}, {"current_trial": 191, "trialdata": {"rt": -1, "trial_type": "single-stim", "stimulus": "<p id=\"stim\">5</p>", "internal_node_id": "0.0-141.0-5.0", "time_elapsed": 924787, "key_press": -1, "trial_index": 191}, "uniqueid": "MTK3651:3ZR9AIQJUCGLFS3DSZM68YAIRLI40U", "dateTime": 1520878605689}, {"current_trial": 192, "trialdata": {"rt": -1, "trial_type": "single-stim", "stimulus": "<p id=\"stim\">4</p>", "internal_node_id": "0.0-141.0-6.0", "time_elapsed": 925788, "key_press": -1, "trial_index": 192}, "uniqueid": "MTK3651:3ZR9AIQJUCGLFS3DSZM68YAIRLI40U", "dateTime": 1520878606689}, {"current_trial": 193, "trialdata": {"rt": -1, "trial_type": "single-stim", "stimulus": "<p id=\"stim\">3</p>", "internal_node_id": "0.0-141.0-7.0", "time_elapsed": 926789, "key_press": -1, "trial_index": 193}, "uniqueid": "MTK3651:3ZR9AIQJUCGLFS3DSZM68YAIRLI40U", "dateTime": 1520878607690}, {"current_trial": 194, "trialdata": {"rt": -1, "trial_type": "single-stim", "stimulus": "<p id=\"stim\">2</p>", "internal_node_id": "0.0-141.0-8.0", "time_elapsed": 927792, "key_press": -1, "trial_index": 194}, "uniqueid": "MTK3651:3ZR9AIQJUCGLFS3DSZM68YAIRLI40U", "dateTime": 1520878608693}, {"current_trial": 195, "trialdata": {"rt": -1, "trial_type": "single-stim", "stimulus": "<p id=\"stim\">1</p>", "internal_node_id": "0.0-141.0-9.0", "time_elapsed": 928792, "key_press": -1, "trial_index": 195}, "uniqueid": "MTK3651:3ZR9AIQJUCGLFS3DSZM68YAIRLI40U", "dateTime": 1520878609693}, {"current_trial": 196, "trialdata": {"rt": -1, "trial_type": "single-stim", "stimulus": "<p id=\"stim\">+</p>", "internal_node_id": "0.0-142.0-0.0", "time_elapsed": 930293, "key_press": -1, "type": "FIXATION", "trial_index": 196}, "uniqueid": "MTK3651:3ZR9AIQJUCGLFS3DSZM68YAIRLI40U", "dateTime": 1520878611194}, {"current_trial": 197, "trialdata": {"rt": -1000, "trial_type": "single-audio", "word": "office", "stimulus": "/static/audio/wordpool/OFFICE.wav", "conditions": [12, 1600, "a", 24000], "internal_node_id": "0.0-143.0", "trial": 5, "time_elapsed": 932796, "serialpos": 0, "key_press": -1, "wordID": 971, "type": "PRES_AUD", "trial_index": 197}, "uniqueid": "MTK3651:3ZR9AIQJUCGLFS3DSZM68YAIRLI40U", "dateTime": 1520878613697}, {"current_trial": 198, "trialdata": {"rt": -1000, "trial_type": "single-audio", "word": "tractor", "stimulus": "/static/audio/wordpool/TRACTOR.wav", "conditions": [12, 1600, "a", 24000], "internal_node_id": "0.0-144.0", "trial": 5, "time_elapsed": 935529, "serialpos": 1, "key_press": -1, "wordID": 1492, "type": "PRES_AUD", "trial_index": 198}, "uniqueid": "MTK3651:3ZR9AIQJUCGLFS3DSZM68YAIRLI40U", "dateTime": 1520878616430}, {"current_trial": 199, "trialdata": {"rt": -1000, "trial_type": "single-audio", "word": "bullet", "stimulus": "/static/audio/wordpool/BULLET.wav", "conditions": [12, 1600, "a", 24000], "internal_node_id": "0.0-145.0", "trial": 5, "time_elapsed": 937984, "serialpos": 2, "key_press": -1, "wordID": 193, "type": "PRES_AUD", "trial_index": 199}, "uniqueid": "MTK3651:3ZR9AIQJUCGLFS3DSZM68YAIRLI40U", "dateTime": 1520878618885}, {"current_trial": 200, "trialdata": {"rt": -1000, "trial_type": "single-audio", "word": "padding", "stimulus": "/static/audio/wordpool/PADDING.wav", "conditions": [12, 1600, "a", 24000], "internal_node_id": "0.0-146.0", "trial": 5, "time_elapsed": 940769, "serialpos": 3, "key_press": -1, "wordID": 998, "type": "PRES_AUD", "trial_index": 200}, "uniqueid": "MTK3651:3ZR9AIQJUCGLFS3DSZM68YAIRLI40U", "dateTime": 1520878621670}, {"current_trial": 201, "trialdata": {"rt": -1000, "trial_type": "single-audio", "word": "rattle", "stimulus": "/static/audio/wordpool/RATTLE.wav", "conditions": [12, 1600, "a", 24000], "internal_node_id": "0.0-147.0", "trial": 5, "time_elapsed": 943462, "serialpos": 4, "key_press": -1, "wordID": 1169, "type": "PRES_AUD", "trial_index": 201}, "uniqueid": "MTK3651:3ZR9AIQJUCGLFS3DSZM68YAIRLI40U", "dateTime": 1520878624363}, {"current_trial": 202, "trialdata": {"rt": -1000, "trial_type": "single-audio", "word": "truck", "stimulus": "/static/audio/wordpool/TRUCK.wav", "conditions": [12, 1600, "a", 24000], "internal_node_id": "0.0-148.0", "trial": 5, "time_elapsed": 945864, "serialpos": 5, "key_press": -1, "wordID": 1511, "type": "PRES_AUD", "trial_index": 202}, "uniqueid": "MTK3651:3ZR9AIQJUCGLFS3DSZM68YAIRLI40U", "dateTime": 1520878626765}, {"current_trial": 203, "trialdata": {"rt": -1000, "trial_type": "single-audio", "word": "dresser", "stimulus": "/static/audio/wordpool/DRESSER.wav", "conditions": [12, 1600, "a", 24000], "internal_node_id": "0.0-149.0", "trial": 5, "time_elapsed": 948289, "serialpos": 6, "key_press": -1, "wordID": 495, "type": "PRES_AUD", "trial_index": 203}, "uniqueid": "MTK3651:3ZR9AIQJUCGLFS3DSZM68YAIRLI40U", "dateTime": 1520878629190}, {"current_trial": 204, "trialdata": {"rt": -1000, "trial_type": "single-audio", "word": "cupboard", "stimulus": "/static/audio/wordpool/CUPBOARD.wav", "conditions": [12, 1600, "a", 24000], "internal_node_id": "0.0-150.0", "trial": 5, "time_elapsed": 950775, "serialpos": 7, "key_press": -1, "wordID": 424, "type": "PRES_AUD", "trial_index": 204}, "uniqueid": "MTK3651:3ZR9AIQJUCGLFS3DSZM68YAIRLI40U", "dateTime": 1520878631676}, {"current_trial": 205, "trialdata": {"rt": -1000, "trial_type": "single-audio", "word": "nurse", "stimulus": "/static/audio/wordpool/NURSE.wav", "conditions": [12, 1600, "a", 24000], "internal_node_id": "0.0-151.0", "trial": 5, "time_elapsed": 953446, "serialpos": 8, "key_press": -1, "wordID": 962, "type": "PRES_AUD", "trial_index": 205}, "uniqueid": "MTK3651:3ZR9AIQJUCGLFS3DSZM68YAIRLI40U", "dateTime": 1520878634347}, {"current_trial": 206, "trialdata": {"rt": -1000, "trial_type": "single-audio", "word": "summit", "stimulus": "/static/audio/wordpool/SUMMIT.wav", "conditions": [12, 1600, "a", 24000], "internal_node_id": "0.0-152.0", "trial": 5, "time_elapsed": 956033, "serialpos": 9, "key_press": -1, "wordID": 1404, "type": "PRES_AUD", "trial_index": 206}, "uniqueid": "MTK3651:3ZR9AIQJUCGLFS3DSZM68YAIRLI40U", "dateTime": 1520878636934}, {"current_trial": 207, "trialdata": {"rt": -1000, "trial_type": "single-audio", "word": "mildew", "stimulus": "/static/audio/wordpool/MILDEW.wav", "conditions": [12, 1600, "a", 24000], "internal_node_id": "0.0-153.0", "trial": 5, "time_elapsed": 958803, "serialpos": 10, "key_press": -1, "wordID": 892, "type": "PRES_AUD", "trial_index": 207}, "uniqueid": "MTK3651:3ZR9AIQJUCGLFS3DSZM68YAIRLI40U", "dateTime": 1520878639704}, {"current_trial": 208, "trialdata": {"rt": -1000, "trial_type": "single-audio", "word": "piston", "stimulus": "/static/audio/wordpool/PISTON.wav", "conditions": [12, 1600, "a", 24000], "internal_node_id": "0.0-154.0", "trial": 5, "time_elapsed": 961529, "serialpos": 11, "key_press": -1, "wordID": 1075, "type": "PRES_AUD", "trial_index": 208}, "uniqueid": "MTK3651:3ZR9AIQJUCGLFS3DSZM68YAIRLI40U", "dateTime": 1520878642430}, {"current_trial": 209, "trialdata": {"rt": -1, "trial_type": "single-stim", "stimulus": "", "internal_node_id": "0.0-155.0-0.0", "time_elapsed": 962846, "key_press": -1, "type": "PRE_RECALL_DELAY", "trial_index": 209}, "uniqueid": "MTK3651:3ZR9AIQJUCGLFS3DSZM68YAIRLI40U", "dateTime": 1520878643747}, {"current_trial": 210, "trialdata": {"rt": -1000, "trial_type": "single-audio", "stimulus": "/static/audio/400Hz.wav", "internal_node_id": "0.0-156.0", "time_elapsed": 963347, "key_press": -1, "type": "PRE_RECALL_ALERT", "trial_index": 210}, "uniqueid": "MTK3651:3ZR9AIQJUCGLFS3DSZM68YAIRLI40U", "dateTime": 1520878644248}, {"current_trial": 211, "trialdata": {"rt": [3316, 6324, 8900, 13764, 18356, 26291], "recwords": ["summit", "piston", "mildew", "office", "truck", "bullet"], "key_times": [1517, 1805, 2053, 2228, 2404, 2612, 3316, 4141, 4589, 4917, 5229, 5428, 5724, 6324, 7276, 7540, 7804, 8148, 8333, 8612, 8900, 12797, 13092, 13268, 13388, 13516, 13668, 13764, 17076, 17252, 17500, 17820, 18100, 18356, 24917, 25076, 25452, 25612, 25788, 25956, 26291], "trial_type": "free-recall", "conditions": [12, 1600, "a", 24000], "internal_node_id": "0.0-157.0-0.0", "key_presses": [83, 85, 77, 77, 73, 84, 13, 80, 73, 83, 84, 79, 78, 13, 77, 73, 76, 68, 69, 87, 13, 79, 70, 70, 73, 67, 69, 13, 84, 82, 85, 67, 75, 13, 66, 85, 76, 76, 69, 84, 13], "trial": 5, "time_elapsed": 1023350, "type": "FREE_RECALL", "trial_index": 211}, "uniqueid": "MTK3651:3ZR9AIQJUCGLFS3DSZM68YAIRLI40U", "dateTime": 1520878704255}, {"current_trial": 212, "trialdata": {"rt": 2181, "trial_type": "text", "internal_node_id": "0.0-158.0", "time_elapsed": 1027538, "key_press": 32, "type": "INSTRUCTIONS", "trial_index": 212}, "uniqueid": "MTK3651:3ZR9AIQJUCGLFS3DSZM68YAIRLI40U", "dateTime": 1520878708440}, {"current_trial": 213, "trialdata": {"rt": [3629, 7020, 9804, 11676], "trial_type": "math-distractor", "key_times": [3117, 3316, 3629, 6381, 6837, 7020, 9533, 9804, 11517, 11676], "responses": ["20", "17", "8", "7"], "num2": [9, 4, 2, 3, 4], "num3": [8, 9, 2, 2, 2], "conditions": [24, 800, "a", 12000], "internal_node_id": "0.0-159.0", "key_presses": [50, 48, 13, 49, 55, 13, 56, 13, 55, 13], "trial": 6, "time_elapsed": 1041542, "type": "DISTRACTOR", "trial_index": 213, "num1": [3, 3, 4, 2, 8]}, "uniqueid": "MTK3651:3ZR9AIQJUCGLFS3DSZM68YAIRLI40U", "dateTime": 1520878722443}, {"current_trial": 214, "trialdata": {"rt": -1, "trial_type": "single-stim", "stimulus": "<p id=\"stim\">10</p>", "internal_node_id": "0.0-160.0-0.0", "time_elapsed": 1044543, "key_press": -1, "trial_index": 214}, "uniqueid": "MTK3651:3ZR9AIQJUCGLFS3DSZM68YAIRLI40U", "dateTime": 1520878725444}, {"current_trial": 215, "trialdata": {"rt": -1, "trial_type": "single-stim", "stimulus": "<p id=\"stim\">9</p>", "internal_node_id": "0.0-160.0-1.0", "time_elapsed": 1045545, "key_press": -1, "trial_index": 215}, "uniqueid": "MTK3651:3ZR9AIQJUCGLFS3DSZM68YAIRLI40U", "dateTime": 1520878726446}, {"current_trial": 216, "trialdata": {"rt": -1, "trial_type": "single-stim", "stimulus": "<p id=\"stim\">8</p>", "internal_node_id": "0.0-160.0-2.0", "time_elapsed": 1046545, "key_press": -1, "trial_index": 216}, "uniqueid": "MTK3651:3ZR9AIQJUCGLFS3DSZM68YAIRLI40U", "dateTime": 1520878727446}, {"current_trial": 217, "trialdata": {"rt": -1, "trial_type": "single-stim", "stimulus": "<p id=\"stim\">7</p>", "internal_node_id": "0.0-160.0-3.0", "time_elapsed": 1047546, "key_press": -1, "trial_index": 217}, "uniqueid": "MTK3651:3ZR9AIQJUCGLFS3DSZM68YAIRLI40U", "dateTime": 1520878728447}, {"current_trial": 218, "trialdata": {"rt": -1, "trial_type": "single-stim", "stimulus": "<p id=\"stim\">6</p>", "internal_node_id": "0.0-160.0-4.0", "time_elapsed": 1048548, "key_press": -1, "trial_index": 218}, "uniqueid": "MTK3651:3ZR9AIQJUCGLFS3DSZM68YAIRLI40U", "dateTime": 1520878729449}, {"current_trial": 219, "trialdata": {"rt": -1, "trial_type": "single-stim", "stimulus": "<p id=\"stim\">5</p>", "internal_node_id": "0.0-160.0-5.0", "time_elapsed": 1049548, "key_press": -1, "trial_index": 219}, "uniqueid": "MTK3651:3ZR9AIQJUCGLFS3DSZM68YAIRLI40U", "dateTime": 1520878730450}, {"current_trial": 220, "trialdata": {"rt": -1, "trial_type": "single-stim", "stimulus": "<p id=\"stim\">4</p>", "internal_node_id": "0.0-160.0-6.0", "time_elapsed": 1050550, "key_press": -1, "trial_index": 220}, "uniqueid": "MTK3651:3ZR9AIQJUCGLFS3DSZM68YAIRLI40U", "dateTime": 1520878731451}, {"current_trial": 221, "trialdata": {"rt": -1, "trial_type": "single-stim", "stimulus": "<p id=\"stim\">3</p>", "internal_node_id": "0.0-160.0-7.0", "time_elapsed": 1051550, "key_press": -1, "trial_index": 221}, "uniqueid": "MTK3651:3ZR9AIQJUCGLFS3DSZM68YAIRLI40U", "dateTime": 1520878732451}, {"current_trial": 222, "trialdata": {"rt": -1, "trial_type": "single-stim", "stimulus": "<p id=\"stim\">2</p>", "internal_node_id": "0.0-160.0-8.0", "time_elapsed": 1052552, "key_press": -1, "trial_index": 222}, "uniqueid": "MTK3651:3ZR9AIQJUCGLFS3DSZM68YAIRLI40U", "dateTime": 1520878733453}, {"current_trial": 223, "trialdata": {"rt": -1, "trial_type": "single-stim", "stimulus": "<p id=\"stim\">1</p>", "internal_node_id": "0.0-160.0-9.0", "time_elapsed": 1053553, "key_press": -1, "trial_index": 223}, "uniqueid": "MTK3651:3ZR9AIQJUCGLFS3DSZM68YAIRLI40U", "dateTime": 1520878734454}, {"current_trial": 224, "trialdata": {"rt": -1, "trial_type": "single-stim", "stimulus": "<p id=\"stim\">+</p>", "internal_node_id": "0.0-161.0-0.0", "time_elapsed": 1055054, "key_press": -1, "type": "FIXATION", "trial_index": 224}, "uniqueid": "MTK3651:3ZR9AIQJUCGLFS3DSZM68YAIRLI40U", "dateTime": 1520878735955}, {"current_trial": 225, "trialdata": {"rt": -1000, "trial_type": "single-audio", "word": "airport", "stimulus": "/static/audio/wordpool/AIRPORT.wav", "conditions": [24, 800, "a", 12000], "internal_node_id": "0.0-162.0", "trial": 6, "time_elapsed": 1057050, "serialpos": 0, "key_press": -1, "wordID": 12, "type": "PRES_AUD", "trial_index": 225}, "uniqueid": "MTK3651:3ZR9AIQJUCGLFS3DSZM68YAIRLI40U", "dateTime": 1520878737951}, {"current_trial": 226, "trialdata": {"rt": -1000, "trial_type": "single-audio", "word": "knapsack", "stimulus": "/static/audio/wordpool/KNAPSACK.wav", "conditions": [24, 800, "a", 12000], "internal_node_id": "0.0-163.0", "trial": 6, "time_elapsed": 1058946, "serialpos": 1, "key_press": -1, "wordID": 782, "type": "PRES_AUD", "trial_index": 226}, "uniqueid": "MTK3651:3ZR9AIQJUCGLFS3DSZM68YAIRLI40U", "dateTime": 1520878739847}, {"current_trial": 227, "trialdata": {"rt": -1000, "trial_type": "single-audio", "word": "motel", "stimulus": "/static/audio/wordpool/MOTEL.wav", "conditions": [24, 800, "a", 12000], "internal_node_id": "0.0-164.0", "trial": 6, "time_elapsed": 1060617, "serialpos": 2, "key_press": -1, "wordID": 918, "type": "PRES_AUD", "trial_index": 227}, "uniqueid": "MTK3651:3ZR9AIQJUCGLFS3DSZM68YAIRLI40U", "dateTime": 1520878741518}, {"current_trial": 228, "trialdata": {"rt": -1000, "trial_type": "single-audio", "word": "cowboy", "stimulus": "/static/audio/wordpool/COWBOY.wav", "conditions": [24, 800, "a", 12000], "internal_node_id": "0.0-165.0", "trial": 6, "time_elapsed": 1062268, "serialpos": 3, "key_press": -1, "wordID": 394, "type": "PRES_AUD", "trial_index": 228}, "uniqueid": "MTK3651:3ZR9AIQJUCGLFS3DSZM68YAIRLI40U", "dateTime": 1520878743170}, {"current_trial": 229, "trialdata": {"rt": -1000, "trial_type": "single-audio", "word": "friend", "stimulus": "/static/audio/wordpool/FRIEND.wav", "conditions": [24, 800, "a", 12000], "internal_node_id": "0.0-166.0", "trial": 6, "time_elapsed": 1064170, "serialpos": 4, "key_press": -1, "wordID": 605, "type": "PRES_AUD", "trial_index": 229}, "uniqueid": "MTK3651:3ZR9AIQJUCGLFS3DSZM68YAIRLI40U", "dateTime": 1520878745071}, {"current_trial": 230, "trialdata": {"rt": -1000, "trial_type": "single-audio", "word": "wasp", "stimulus": "/static/audio/wordpool/WASP.wav", "conditions": [24, 800, "a", 12000], "internal_node_id": "0.0-167.0", "trial": 6, "time_elapsed": 1065905, "serialpos": 5, "key_press": -1, "wordID": 1592, "type": "PRES_AUD", "trial_index": 230}, "uniqueid": "MTK3651:3ZR9AIQJUCGLFS3DSZM68YAIRLI40U", "dateTime": 1520878746807}, {"current_trial": 231, "trialdata": {"rt": -1000, "trial_type": "single-audio", "word": "hornet", "stimulus": "/static/audio/wordpool/HORNET.wav", "conditions": [24, 800, "a", 12000], "internal_node_id": "0.0-168.0", "trial": 6, "time_elapsed": 1067641, "serialpos": 6, "key_press": -1, "wordID": 717, "type": "PRES_AUD", "trial_index": 231}, "uniqueid": "MTK3651:3ZR9AIQJUCGLFS3DSZM68YAIRLI40U", "dateTime": 1520878748542}, {"current_trial": 232, "trialdata": {"rt": -1000, "trial_type": "single-audio", "word": "sword", "stimulus": "/static/audio/wordpool/SWORD.wav", "conditions": [24, 800, "a", 12000], "internal_node_id": "0.0-169.0", "trial": 6, "time_elapsed": 1069343, "serialpos": 7, "key_press": -1, "wordID": 1422, "type": "PRES_AUD", "trial_index": 232}, "uniqueid": "MTK3651:3ZR9AIQJUCGLFS3DSZM68YAIRLI40U", "dateTime": 1520878750245}, {"current_trial": 233, "trialdata": {"rt": -1000, "trial_type": "single-audio", "word": "sponge", "stimulus": "/static/audio/wordpool/SPONGE.wav", "conditions": [24, 800, "a", 12000], "internal_node_id": "0.0-170.0", "trial": 6, "time_elapsed": 1070957, "serialpos": 8, "key_press": -1, "wordID": 1354, "type": "PRES_AUD", "trial_index": 233}, "uniqueid": "MTK3651:3ZR9AIQJUCGLFS3DSZM68YAIRLI40U", "dateTime": 1520878751858}, {"current_trial": 234, "trialdata": {"rt": -1000, "trial_type": "single-audio", "word": "boyfriend", "stimulus": "/static/audio/wordpool/BOYFRIEND.wav", "conditions": [24, 800, "a", 12000], "internal_node_id": "0.0-171.0", "trial": 6, "time_elapsed": 1072929, "serialpos": 9, "key_press": -1, "wordID": 161, "type": "PRES_AUD", "trial_index": 234}, "uniqueid": "MTK3651:3ZR9AIQJUCGLFS3DSZM68YAIRLI40U", "dateTime": 1520878753830}, {"current_trial": 235, "trialdata": {"rt": -1000, "trial_type": "single-audio", "word": "cobra", "stimulus": "/static/audio/wordpool/COBRA.wav", "conditions": [24, 800, "a", 12000], "internal_node_id": "0.0-172.0", "trial": 6, "time_elapsed": 1074706, "serialpos": 10, "key_press": -1, "wordID": 335, "type": "PRES_AUD", "trial_index": 235}, "uniqueid": "MTK3651:3ZR9AIQJUCGLFS3DSZM68YAIRLI40U", "dateTime": 1520878755607}, {"current_trial": 236, "trialdata": {"rt": -1000, "trial_type": "single-audio", "word": "lumber", "stimulus": "/static/audio/wordpool/LUMBER.wav", "conditions": [24, 800, "a", 12000], "internal_node_id": "0.0-173.0", "trial": 6, "time_elapsed": 1076703, "serialpos": 11, "key_press": -1, "wordID": 847, "type": "PRES_AUD", "trial_index": 236}, "uniqueid": "MTK3651:3ZR9AIQJUCGLFS3DSZM68YAIRLI40U", "dateTime": 1520878757605}, {"current_trial": 237, "trialdata": {"rt": -1000, "trial_type": "single-audio", "word": "actress", "stimulus": "/static/audio/wordpool/ACTRESS.wav", "conditions": [24, 800, "a", 12000], "internal_node_id": "0.0-174.0", "trial": 6, "time_elapsed": 1078541, "serialpos": 12, "key_press": -1, "wordID": 5, "type": "PRES_AUD", "trial_index": 237}, "uniqueid": "MTK3651:3ZR9AIQJUCGLFS3DSZM68YAIRLI40U", "dateTime": 1520878759442}, {"current_trial": 238, "trialdata": {"rt": -1000, "trial_type": "single-audio", "word": "hero", "stimulus": "/static/audio/wordpool/HERO.wav", "conditions": [24, 800, "a", 12000], "internal_node_id": "0.0-175.0", "trial": 6, "time_elapsed": 1080395, "serialpos": 13, "key_press": -1, "wordID": 705, "type": "PRES_AUD", "trial_index": 238}, "uniqueid": "MTK3651:3ZR9AIQJUCGLFS3DSZM68YAIRLI40U", "dateTime": 1520878761296}, {"current_trial": 239, "trialdata": {"rt": -1000, "trial_type": "single-audio", "word": "snake", "stimulus": "/static/audio/wordpool/SNAKE.wav", "conditions": [24, 800, "a", 12000], "internal_node_id": "0.0-176.0", "trial": 6, "time_elapsed": 1082270, "serialpos": 14, "key_press": -1, "wordID": 1332, "type": "PRES_AUD", "trial_index": 239}, "uniqueid": "MTK3651:3ZR9AIQJUCGLFS3DSZM68YAIRLI40U", "dateTime": 1520878763171}, {"current_trial": 240, "trialdata": {"rt": -1000, "trial_type": "single-audio", "word": "human", "stimulus": "/static/audio/wordpool/HUMAN.wav", "conditions": [24, 800, "a", 12000], "internal_node_id": "0.0-177.0", "trial": 6, "time_elapsed": 1084050, "serialpos": 15, "key_press": -1, "wordID": 725, "type": "PRES_AUD", "trial_index": 240}, "uniqueid": "MTK3651:3ZR9AIQJUCGLFS3DSZM68YAIRLI40U", "dateTime": 1520878764951}, {"current_trial": 241, "trialdata": {"rt": -1000, "trial_type": "single-audio", "word": "drill", "stimulus": "/static/audio/wordpool/DRILL.wav", "conditions": [24, 800, "a", 12000], "internal_node_id": "0.0-178.0", "trial": 6, "time_elapsed": 1085698, "serialpos": 16, "key_press": -1, "wordID": 496, "type": "PRES_AUD", "trial_index": 241}, "uniqueid": "MTK3651:3ZR9AIQJUCGLFS3DSZM68YAIRLI40U", "dateTime": 1520878766599}, {"current_trial": 242, "trialdata": {"rt": -1000, "trial_type": "single-audio", "word": "cabbage", "stimulus": "/static/audio/wordpool/CABBAGE.wav", "conditions": [24, 800, "a", 12000], "internal_node_id": "0.0-179.0", "trial": 6, "time_elapsed": 1087678, "serialpos": 17, "key_press": -1, "wordID": 209, "type": "PRES_AUD", "trial_index": 242}, "uniqueid": "MTK3651:3ZR9AIQJUCGLFS3DSZM68YAIRLI40U", "dateTime": 1520878768579}, {"current_trial": 243, "trialdata": {"rt": -1000, "trial_type": "single-audio", "word": "patrol", "stimulus": "/static/audio/wordpool/PATROL.wav", "conditions": [24, 800, "a", 12000], "internal_node_id": "0.0-180.0", "trial": 6, "time_elapsed": 1089640, "serialpos": 18, "key_press": -1, "wordID": 1026, "type": "PRES_AUD", "trial_index": 243}, "uniqueid": "MTK3651:3ZR9AIQJUCGLFS3DSZM68YAIRLI40U", "dateTime": 1520878770541}, {"current_trial": 244, "trialdata": {"rt": -1000, "trial_type": "single-audio", "word": "police", "stimulus": "/static/audio/wordpool/POLICE.wav", "conditions": [24, 800, "a", 12000], "internal_node_id": "0.0-181.0", "trial": 6, "time_elapsed": 1091635, "serialpos": 19, "key_press": -1, "wordID": 1097, "type": "PRES_AUD", "trial_index": 244}, "uniqueid": "MTK3651:3ZR9AIQJUCGLFS3DSZM68YAIRLI40U", "dateTime": 1520878772536}, {"current_trial": 245, "trialdata": {"rt": -1000, "trial_type": "single-audio", "word": "cousin", "stimulus": "/static/audio/wordpool/COUSIN.wav", "conditions": [24, 800, "a", 12000], "internal_node_id": "0.0-182.0", "trial": 6, "time_elapsed": 1093324, "serialpos": 20, "key_press": -1, "wordID": 391, "type": "PRES_AUD", "trial_index": 245}, "uniqueid": "MTK3651:3ZR9AIQJUCGLFS3DSZM68YAIRLI40U", "dateTime": 1520878774226}, {"current_trial": 246, "trialdata": {"rt": -1000, "trial_type": "single-audio", "word": "lettuce", "stimulus": "/static/audio/wordpool/LETTUCE.wav", "conditions": [24, 800, "a", 12000], "internal_node_id": "0.0-183.0", "trial": 6, "time_elapsed": 1095199, "serialpos": 21, "key_press": -1, "wordID": 813, "type": "PRES_AUD", "trial_index": 246}, "uniqueid": "MTK3651:3ZR9AIQJUCGLFS3DSZM68YAIRLI40U", "dateTime": 1520878776100}, {"current_trial": 247, "trialdata": {"rt": -1000, "trial_type": "single-audio", "word": "scalpel", "stimulus": "/static/audio/wordpool/SCALPEL.wav", "conditions": [24, 800, "a", 12000], "internal_node_id": "0.0-184.0", "trial": 6, "time_elapsed": 1097083, "serialpos": 22, "key_press": -1, "wordID": 1242, "type": "PRES_AUD", "trial_index": 247}, "uniqueid": "MTK3651:3ZR9AIQJUCGLFS3DSZM68YAIRLI40U", "dateTime": 1520878777984}, {"current_trial": 248, "trialdata": {"rt": -1000, "trial_type": "single-audio", "word": "vagrant", "stimulus": "/static/audio/wordpool/VAGRANT.wav", "conditions": [24, 800, "a", 12000], "internal_node_id": "0.0-185.0", "trial": 6, "time_elapsed": 1098780, "serialpos": 23, "key_press": -1, "wordID": 1543, "type": "PRES_AUD", "trial_index": 248}, "uniqueid": "MTK3651:3ZR9AIQJUCGLFS3DSZM68YAIRLI40U", "dateTime": 1520878779681}, {"current_trial": 249, "trialdata": {"rt": -1, "trial_type": "single-stim", "stimulus":