{"assignmentId": "39K0FND3AIMXKVQ1Q5JVJY3VMR2MA7", "workerId": "MTK3494", "questiondata": {"origin": "United States", "strat-rehearsal": "29", "marital": "Married/Domestic Partnership", "education": "High school diploma", "ethnicity": "Not Hispanic", "color_depth": 24, "distracted": "Yes", "wrote-notes": "No", "strat-other": "I spoke them out loud", "screen_width": 1920, "avail_screen_width": 1920, "avail_screen_height": 1050, "strat-image": "65", "language": "English", "gender": "Male", "age": "24", "gender_other": "", "race": ["American Indian/Alaskan Native", "White"], "strat-categorize": "79", "pixel_depth": 24, "strat-spatial": "66", "strat-story": "47", "race_other": "", "screen_height": 1080}, "bonus": 0, "hitId": "3WGCNLZJKFFWZT9URRMX0NREOAI1DG", "counterbalance": 1087, "useragent": "Mozilla/5.0 (Windows NT 10.0; Win64; x64) AppleWebKit/537.36 (KHTML, like Gecko) Chrome/58.0.3029.110 Safari/537.36 Edge/16.16299", "eventdata": [{"eventtype": "initialized", "interval": 0, "value": null, "timestamp": 1520618621680}, {"eventtype": "window_resize", "interval": 0, "value": [1920, 973], "timestamp": 1520618621680}, {"eventtype": "focus", "interval": 211, "value": "on", "timestamp": 1520618621891}, {"eventtype": "focus", "interval": 5369, "value": "off", "timestamp": 1520618627260}, {"eventtype": "focus", "interval": 4915, "value": "on", "timestamp": 1520618632175}, {"eventtype": "focus", "interval": 578564, "value": "off", "timestamp": 1520619210739}, {"eventtype": "focus", "interval": 1630, "value": "on", "timestamp": 1520619212369}, {"eventtype": "focus", "interval": 370983, "value": "off", "timestamp": 1520619583352}, {"eventtype": "focus", "interval": 3861, "value": "on", "timestamp": 1520619587213}, {"eventtype": "focus", "interval": 164356, "value": "off", "timestamp": 1520619751569}, {"eventtype": "focus", "interval": 2877, "value": "on", "timestamp": 1520619754446}, {"eventtype": "focus", "interval": 426190, "value": "off", "timestamp": 1520620180636}, {"eventtype": "focus", "interval": 2263, "value": "on", "timestamp": 1520620182899}, {"eventtype": "focus", "interval": 1000712, "value": "off", "timestamp": 1520621183611}, {"eventtype": "focus", "interval": 4022, "value": "on", "timestamp": 1520621187633}, {"eventtype": "focus", "interval": 675940, "value": "off", "timestamp": 1520621863573}, {"eventtype": "focus", "interval": 2811, "value": "on", "timestamp": 1520621866384}], "data": [{"current_trial": 0, "trialdata": {"rt": 3471, "trial_type": "text", "internal_node_id": "0.0-0.0", "time_elapsed": 3473, "key_press": 32, "type": "INSTRUCTIONS", "trial_index": 0}, "uniqueid": "MTK3494:39K0FND3AIMXKVQ1Q5JVJY3VMR2MA7", "dateTime": 1520618625625}, {"current_trial": 1, "trialdata": {"rt": 15751, "trial_type": "text", "internal_node_id": "0.0-1.0", "time_elapsed": 19226, "key_press": 175, "type": "INSTRUCTIONS", "trial_index": 1}, "uniqueid": "MTK3494:39K0FND3AIMXKVQ1Q5JVJY3VMR2MA7", "dateTime": 1520618641378}, {"current_trial": 2, "trialdata": {"rt": [28384], "trial_type": "audio-test", "responses": ["ocean"], "internal_node_id": "0.0-2.0", "time_elapsed": 47616, "type": "AUDIO_TEST", "trial_index": 2}, "uniqueid": "MTK3494:39K0FND3AIMXKVQ1Q5JVJY3VMR2MA7", "dateTime": 1520618669768}, {"current_trial": 3, "trialdata": {"rt": [8153], "trial_type": "audio-test", "responses": ["crystal"], "internal_node_id": "0.0-3.0", "time_elapsed": 55774, "type": "AUDIO_TEST", "trial_index": 3}, "uniqueid": "MTK3494:39K0FND3AIMXKVQ1Q5JVJY3VMR2MA7", "dateTime": 1520618677926}, {"current_trial": 4, "trialdata": {"rt": [6028], "trial_type": "audio-test", "responses": ["spice"], "internal_node_id": "0.0-4.0", "time_elapsed": 61807, "type": "AUDIO_TEST", "trial_index": 4}, "uniqueid": "MTK3494:39K0FND3AIMXKVQ1Q5JVJY3VMR2MA7", "dateTime": 1520618683959}, {"current_trial": 5, "trialdata": {"rt": 79259, "trial_type": "survey-text", "responses": "{\"Q0\":\"1:45 A.M.\",\"Q1\":\"9:00 A.M.\",\"Q2\":\"2\"}", "internal_node_id": "0.0-5.0", "time_elapsed": 141832, "type": "SLEEP_SURVEY", "trial_index": 5}, "uniqueid": "MTK3494:39K0FND3AIMXKVQ1Q5JVJY3VMR2MA7", "dateTime": 1520618763984}, {"current_trial": 6, "trialdata": {"rt": 48198, "trial_type": "text", "internal_node_id": "0.0-6.0", "time_elapsed": 191048, "key_press": 32, "type": "INSTRUCTIONS", "trial_index": 6}, "uniqueid": "MTK3494:39K0FND3AIMXKVQ1Q5JVJY3VMR2MA7", "dateTime": 1520618813200}, {"current_trial": 7, "trialdata": {"rt": 27093, "trial_type": "text", "internal_node_id": "0.0-7.0", "time_elapsed": 218654, "key_press": 32, "type": "INSTRUCTIONS", "trial_index": 7}, "uniqueid": "MTK3494:39K0FND3AIMXKVQ1Q5JVJY3VMR2MA7", "dateTime": 1520618840807}, {"current_trial": 8, "trialdata": {"rt": 57616, "trial_type": "text", "internal_node_id": "0.0-8.0", "time_elapsed": 276783, "key_press": 32, "type": "INSTRUCTIONS", "trial_index": 8}, "uniqueid": "MTK3494:39K0FND3AIMXKVQ1Q5JVJY3VMR2MA7", "dateTime": 1520618898935}, {"current_trial": 9, "trialdata": {"rt": [5164, 9228, 17284], "trial_type": "math-distractor", "key_times": [4150, 4349, 5164, 8342, 8550, 9228, 16254, 16557, 17284], "responses": ["15", "14", "16"], "num2": [9, 6, 7, 9], "num3": [5, 4, 7, 3], "conditions": [18, 1200, "v", 18000], "internal_node_id": "0.0-9.0", "key_presses": [49, 53, 13, 49, 52, 13, 49, 54, 13], "trial": 0, "time_elapsed": 295819, "type": "DISTRACTOR", "trial_index": 9, "num1": [1, 1, 2, 8]}, "uniqueid": "MTK3494:39K0FND3AIMXKVQ1Q5JVJY3VMR2MA7", "dateTime": 1520618917971}, {"current_trial": 10, "trialdata": {"rt": -1, "trial_type": "single-stim", "stimulus": "<p id=\"stim\">10</p>", "internal_node_id": "0.0-10.0-0.0", "time_elapsed": 298837, "key_press": -1, "trial_index": 10}, "uniqueid": "MTK3494:39K0FND3AIMXKVQ1Q5JVJY3VMR2MA7", "dateTime": 1520618920989}, {"current_trial": 11, "trialdata": {"rt": -1, "trial_type": "single-stim", "stimulus": "<p id=\"stim\">9</p>", "internal_node_id": "0.0-10.0-1.0", "time_elapsed": 299846, "key_press": -1, "trial_index": 11}, "uniqueid": "MTK3494:39K0FND3AIMXKVQ1Q5JVJY3VMR2MA7", "dateTime": 1520618921998}, {"current_trial": 12, "trialdata": {"rt": -1, "trial_type": "single-stim", "stimulus": "<p id=\"stim\">8</p>", "internal_node_id": "0.0-10.0-2.0", "time_elapsed": 300846, "key_press": -1, "trial_index": 12}, "uniqueid": "MTK3494:39K0FND3AIMXKVQ1Q5JVJY3VMR2MA7", "dateTime": 1520618922999}, {"current_trial": 13, "trialdata": {"rt": -1, "trial_type": "single-stim", "stimulus": "<p id=\"stim\">7</p>", "internal_node_id": "0.0-10.0-3.0", "time_elapsed": 301826, "key_press": -1, "trial_index": 13}, "uniqueid": "MTK3494:39K0FND3AIMXKVQ1Q5JVJY3VMR2MA7", "dateTime": 1520618923979}, {"current_trial": 14, "trialdata": {"rt": -1, "trial_type": "single-stim", "stimulus": "<p id=\"stim\">6</p>", "internal_node_id": "0.0-10.0-4.0", "time_elapsed": 302828, "key_press": -1, "trial_index": 14}, "uniqueid": "MTK3494:39K0FND3AIMXKVQ1Q5JVJY3VMR2MA7", "dateTime": 1520618924980}, {"current_trial": 15, "trialdata": {"rt": -1, "trial_type": "single-stim", "stimulus": "<p id=\"stim\">5</p>", "internal_node_id": "0.0-10.0-5.0", "time_elapsed": 303851, "key_press": -1, "trial_index": 15}, "uniqueid": "MTK3494:39K0FND3AIMXKVQ1Q5JVJY3VMR2MA7", "dateTime": 1520618926003}, {"current_trial": 16, "trialdata": {"rt": -1, "trial_type": "single-stim", "stimulus": "<p id=\"stim\">4</p>", "internal_node_id": "0.0-10.0-6.0", "time_elapsed": 304832, "key_press": -1, "trial_index": 16}, "uniqueid": "MTK3494:39K0FND3AIMXKVQ1Q5JVJY3VMR2MA7", "dateTime": 1520618926984}, {"current_trial": 17, "trialdata": {"rt": -1, "trial_type": "single-stim", "stimulus": "<p id=\"stim\">3</p>", "internal_node_id": "0.0-10.0-7.0", "time_elapsed": 305831, "key_press": -1, "trial_index": 17}, "uniqueid": "MTK3494:39K0FND3AIMXKVQ1Q5JVJY3VMR2MA7", "dateTime": 1520618927983}, {"current_trial": 18, "trialdata": {"rt": -1, "trial_type": "single-stim", "stimulus": "<p id=\"stim\">2</p>", "internal_node_id": "0.0-10.0-8.0", "time_elapsed": 306837, "key_press": -1, "trial_index": 18}, "uniqueid": "MTK3494:39K0FND3AIMXKVQ1Q5JVJY3VMR2MA7", "dateTime": 1520618928989}, {"current_trial": 19, "trialdata": {"rt": -1, "trial_type": "single-stim", "stimulus": "<p id=\"stim\">1</p>", "internal_node_id": "0.0-10.0-9.0", "time_elapsed": 307837, "key_press": -1, "trial_index": 19}, "uniqueid": "MTK3494:39K0FND3AIMXKVQ1Q5JVJY3VMR2MA7", "dateTime": 1520618929989}, {"current_trial": 20, "trialdata": {"rt": -1, "trial_type": "single-stim", "stimulus": "<p id=\"stim\">+</p>", "internal_node_id": "0.0-11.0-0.0", "time_elapsed": 309357, "key_press": -1, "type": "FIXATION", "trial_index": 20}, "uniqueid": "MTK3494:39K0FND3AIMXKVQ1Q5JVJY3VMR2MA7", "dateTime": 1520618931509}, {"current_trial": 21, "trialdata": {"rt": -1, "trial_type": "single-stim", "word": "box", "stimulus": "<p id=\"stim\">BOX</p>", "conditions": [18, 1200, "v", 18000], "internal_node_id": "0.0-12.0", "trial": 0, "time_elapsed": 310574, "serialpos": 0, "key_press": -1, "wordID": 158, "type": "PRES_VIS", "trial_index": 21}, "uniqueid": "MTK3494:39K0FND3AIMXKVQ1Q5JVJY3VMR2MA7", "dateTime": 1520618932727}, {"current_trial": 22, "trialdata": {"rt": -1, "trial_type": "single-stim", "word": "backbone", "stimulus": "<p id=\"stim\">BACKBONE</p>", "conditions": [18, 1200, "v", 18000], "internal_node_id": "0.0-13.0", "trial": 0, "time_elapsed": 312807, "serialpos": 1, "key_press": -1, "wordID": 65, "type": "PRES_VIS", "trial_index": 22}, "uniqueid": "MTK3494:39K0FND3AIMXKVQ1Q5JVJY3VMR2MA7", "dateTime": 1520618934959}, {"current_trial": 23, "trialdata": {"rt": -1, "trial_type": "single-stim", "word": "vagrant", "stimulus": "<p id=\"stim\">VAGRANT</p>", "conditions": [18, 1200, "v", 18000], "internal_node_id": "0.0-14.0", "trial": 0, "time_elapsed": 315025, "serialpos": 2, "key_press": -1, "wordID": 1543, "type": "PRES_VIS", "trial_index": 23}, "uniqueid": "MTK3494:39K0FND3AIMXKVQ1Q5JVJY3VMR2MA7", "dateTime": 1520618937177}, {"current_trial": 24, "trialdata": {"rt": -1, "trial_type": "single-stim", "word": "buggy", "stimulus": "<p id=\"stim\">BUGGY</p>", "conditions": [18, 1200, "v", 18000], "internal_node_id": "0.0-15.0", "trial": 0, "time_elapsed": 317214, "serialpos": 3, "key_press": -1, "wordID": 187, "type": "PRES_VIS", "trial_index": 24}, "uniqueid": "MTK3494:39K0FND3AIMXKVQ1Q5JVJY3VMR2MA7", "dateTime": 1520618939366}, {"current_trial": 25, "trialdata": {"rt": -1, "trial_type": "single-stim", "word": "label", "stimulus": "<p id=\"stim\">LABEL</p>", "conditions": [18, 1200, "v", 18000], "internal_node_id": "0.0-16.0", "trial": 0, "time_elapsed": 319537, "serialpos": 4, "key_press": -1, "wordID": 789, "type": "PRES_VIS", "trial_index": 25}, "uniqueid": "MTK3494:39K0FND3AIMXKVQ1Q5JVJY3VMR2MA7", "dateTime": 1520618941689}, {"current_trial": 26, "trialdata": {"rt": -1, "trial_type": "single-stim", "word": "camel", "stimulus": "<p id=\"stim\">CAMEL</p>", "conditions": [18, 1200, "v", 18000], "internal_node_id": "0.0-17.0", "trial": 0, "time_elapsed": 321789, "serialpos": 5, "key_press": -1, "wordID": 222, "type": "PRES_VIS", "trial_index": 26}, "uniqueid": "MTK3494:39K0FND3AIMXKVQ1Q5JVJY3VMR2MA7", "dateTime": 1520618943941}, {"current_trial": 27, "trialdata": {"rt": -1, "trial_type": "single-stim", "word": "cocktail", "stimulus": "<p id=\"stim\">COCKTAIL</p>", "conditions": [18, 1200, "v", 18000], "internal_node_id": "0.0-18.0", "trial": 0, "time_elapsed": 323922, "serialpos": 6, "key_press": -1, "wordID": 337, "type": "PRES_VIS", "trial_index": 27}, "uniqueid": "MTK3494:39K0FND3AIMXKVQ1Q5JVJY3VMR2MA7", "dateTime": 1520618946075}, {"current_trial": 28, "trialdata": {"rt": -1, "trial_type": "single-stim", "word": "church", "stimulus": "<p id=\"stim\">CHURCH</p>", "conditions": [18, 1200, "v", 18000], "internal_node_id": "0.0-19.0", "trial": 0, "time_elapsed": 326126, "serialpos": 7, "key_press": -1, "wordID": 306, "type": "PRES_VIS", "trial_index": 28}, "uniqueid": "MTK3494:39K0FND3AIMXKVQ1Q5JVJY3VMR2MA7", "dateTime": 1520618948278}, {"current_trial": 29, "trialdata": {"rt": -1, "trial_type": "single-stim", "word": "orchid", "stimulus": "<p id=\"stim\">ORCHID</p>", "conditions": [18, 1200, "v", 18000], "internal_node_id": "0.0-20.0", "trial": 0, "time_elapsed": 328483, "serialpos": 8, "key_press": -1, "wordID": 981, "type": "PRES_VIS", "trial_index": 29}, "uniqueid": "MTK3494:39K0FND3AIMXKVQ1Q5JVJY3VMR2MA7", "dateTime": 1520618950635}, {"current_trial": 30, "trialdata": {"rt": -1, "trial_type": "single-stim", "word": "crib", "stimulus": "<p id=\"stim\">CRIB</p>", "conditions": [18, 1200, "v", 18000], "internal_node_id": "0.0-21.0", "trial": 0, "time_elapsed": 330703, "serialpos": 9, "key_press": -1, "wordID": 406, "type": "PRES_VIS", "trial_index": 30}, "uniqueid": "MTK3494:39K0FND3AIMXKVQ1Q5JVJY3VMR2MA7", "dateTime": 1520618952855}, {"current_trial": 31, "trialdata": {"rt": -1, "trial_type": "single-stim", "word": "lace", "stimulus": "<p id=\"stim\">LACE</p>", "conditions": [18, 1200, "v", 18000], "internal_node_id": "0.0-22.0", "trial": 0, "time_elapsed": 333133, "serialpos": 10, "key_press": -1, "wordID": 791, "type": "PRES_VIS", "trial_index": 31}, "uniqueid": "MTK3494:39K0FND3AIMXKVQ1Q5JVJY3VMR2MA7", "dateTime": 1520618955285}, {"current_trial": 32, "trialdata": {"rt": -1, "trial_type": "single-stim", "word": "carrot", "stimulus": "<p id=\"stim\">CARROT</p>", "conditions": [18, 1200, "v", 18000], "internal_node_id": "0.0-23.0", "trial": 0, "time_elapsed": 335253, "serialpos": 11, "key_press": -1, "wordID": 248, "type": "PRES_VIS", "trial_index": 32}, "uniqueid": "MTK3494:39K0FND3AIMXKVQ1Q5JVJY3VMR2MA7", "dateTime": 1520618957405}, {"current_trial": 33, "trialdata": {"rt": -1, "trial_type": "single-stim", "word": "contract", "stimulus": "<p id=\"stim\">CONTRACT</p>", "conditions": [18, 1200, "v", 18000], "internal_node_id": "0.0-24.0", "trial": 0, "time_elapsed": 337537, "serialpos": 12, "key_press": -1, "wordID": 367, "type": "PRES_VIS", "trial_index": 33}, "uniqueid": "MTK3494:39K0FND3AIMXKVQ1Q5JVJY3VMR2MA7", "dateTime": 1520618959689}, {"current_trial": 34, "trialdata": {"rt": -1, "trial_type": "single-stim", "word": "piston", "stimulus": "<p id=\"stim\">PISTON</p>", "conditions": [18, 1200, "v", 18000], "internal_node_id": "0.0-25.0", "trial": 0, "time_elapsed": 339796, "serialpos": 13, "key_press": -1, "wordID": 1075, "type": "PRES_VIS", "trial_index": 34}, "uniqueid": "MTK3494:39K0FND3AIMXKVQ1Q5JVJY3VMR2MA7", "dateTime": 1520618961948}, {"current_trial": 35, "trialdata": {"rt": -1, "trial_type": "single-stim", "word": "mildew", "stimulus": "<p id=\"stim\">MILDEW</p>", "conditions": [18, 1200, "v", 18000], "internal_node_id": "0.0-26.0", "trial": 0, "time_elapsed": 342199, "serialpos": 14, "key_press": -1, "wordID": 892, "type": "PRES_VIS", "trial_index": 35}, "uniqueid": "MTK3494:39K0FND3AIMXKVQ1Q5JVJY3VMR2MA7", "dateTime": 1520618964351}, {"current_trial": 36, "trialdata": {"rt": -1, "trial_type": "single-stim", "word": "banjo", "stimulus": "<p id=\"stim\">BANJO</p>", "conditions": [18, 1200, "v", 18000], "internal_node_id": "0.0-27.0", "trial": 0, "time_elapsed": 344316, "serialpos": 15, "key_press": -1, "wordID": 81, "type": "PRES_VIS", "trial_index": 36}, "uniqueid": "MTK3494:39K0FND3AIMXKVQ1Q5JVJY3VMR2MA7", "dateTime": 1520618966468}, {"current_trial": 37, "trialdata": {"rt": -1, "trial_type": "single-stim", "word": "scotch", "stimulus": "<p id=\"stim\">SCOTCH</p>", "conditions": [18, 1200, "v", 18000], "internal_node_id": "0.0-28.0", "trial": 0, "time_elapsed": 346403, "serialpos": 16, "key_press": -1, "wordID": 1250, "type": "PRES_VIS", "trial_index": 37}, "uniqueid": "MTK3494:39K0FND3AIMXKVQ1Q5JVJY3VMR2MA7", "dateTime": 1520618968555}, {"current_trial": 38, "trialdata": {"rt": -1, "trial_type": "single-stim", "word": "friend", "stimulus": "<p id=\"stim\">FRIEND</p>", "conditions": [18, 1200, "v", 18000], "internal_node_id": "0.0-29.0", "trial": 0, "time_elapsed": 348653, "serialpos": 17, "key_press": -1, "wordID": 605, "type": "PRES_VIS", "trial_index": 38}, "uniqueid": "MTK3494:39K0FND3AIMXKVQ1Q5JVJY3VMR2MA7", "dateTime": 1520618970806}, {"current_trial": 39, "trialdata": {"rt": -1, "trial_type": "single-stim", "stimulus": "", "internal_node_id": "0.0-30.0-0.0", "time_elapsed": 351009, "key_press": -1, "type": "PRE_RECALL_DELAY", "trial_index": 39}, "uniqueid": "MTK3494:39K0FND3AIMXKVQ1Q5JVJY3VMR2MA7", "dateTime": 1520618973161}, {"current_trial": 40, "trialdata": {"rt": -1000, "trial_type": "single-audio", "stimulus": "/static/audio/400Hz.wav", "internal_node_id": "0.0-31.0", "time_elapsed": 351581, "key_press": -1, "type": "PRE_RECALL_ALERT", "trial_index": 40}, "uniqueid": "MTK3494:39K0FND3AIMXKVQ1Q5JVJY3VMR2MA7", "dateTime": 1520618973733}, {"current_trial": 41, "trialdata": {"rt": [2391, 4615, 8127, 10671, 15656, 25017, 31095, 35023, 49056, 55984], "recwords": ["friend", "scotch", "mildew", "freind", "vagrant", "orchid", "cocktail", "mildew", "+", ""], "key_times": [1473, 1624, 1792, 1887, 2064, 2152, 2391, 3304, 3569, 3823, 4008, 4264, 4404, 4615, 5232, 5451, 5913, 6231, 7040, 7184, 7376, 7544, 7720, 7888, 8127, 8912, 9129, 10082, 10167, 10360, 10496, 10671, 14409, 14600, 14801, 14969, 15160, 15312, 15448, 15656, 22577, 22768, 23016, 23129, 23256, 24833, 25017, 29681, 29776, 29904, 30023, 30392, 30592, 30697, 30888, 31095, 33865, 34048, 34248, 34384, 34616, 34816, 35023, 48074, 48488, 49056, 55984], "trial_type": "free-recall", "conditions": [18, 1200, "v", 18000], "internal_node_id": "0.0-32.0-0.0", "key_presses": [70, 82, 73, 69, 78, 68, 13, 83, 67, 79, 84, 67, 72, 13, 77, 73, 8, 8, 77, 73, 76, 68, 69, 87, 13, 70, 82, 69, 73, 78, 68, 13, 86, 65, 71, 82, 65, 78, 84, 13, 79, 82, 67, 72, 73, 68, 13, 67, 79, 67, 75, 84, 65, 73, 76, 13, 77, 73, 76, 68, 69, 87, 13, 16, 187, 13, 13], "trial": 0, "time_elapsed": 411602, "type": "FREE_RECALL", "trial_index": 41}, "uniqueid": "MTK3494:39K0FND3AIMXKVQ1Q5JVJY3VMR2MA7", "dateTime": 1520619033756}, {"current_trial": 42, "trialdata": {"rt": 2965, "trial_type": "text", "internal_node_id": "0.0-33.0", "time_elapsed": 416592, "key_press": 13, "type": "INSTRUCTIONS", "trial_index": 42}, "uniqueid": "MTK3494:39K0FND3AIMXKVQ1Q5JVJY3VMR2MA7", "dateTime": 1520619038744}, {"current_trial": 43, "trialdata": {"rt": [3504, 6696, 9089, 11561, 16224], "trial_type": "math-distractor", "key_times": [3042, 3209, 3504, 6306, 6449, 6696, 8650, 8793, 9089, 11307, 11561, 15819, 15977, 16224], "responses": ["18", "19", "17", "9", "17"], "num2": [9, 6, 1, 5, 4, 8], "num3": [8, 7, 7, 1, 6, 7], "conditions": [18, 1200, "v", 18000], "internal_node_id": "0.0-34.0", "key_presses": [49, 56, 13, 49, 57, 13, 49, 55, 13, 57, 13, 49, 55, 13], "trial": 1, "time_elapsed": 436610, "type": "DISTRACTOR", "trial_index": 43, "num1": [1, 6, 9, 3, 7, 8]}, "uniqueid": "MTK3494:39K0FND3AIMXKVQ1Q5JVJY3VMR2MA7", "dateTime": 1520619058763}, {"current_trial": 44, "trialdata": {"rt": -1, "trial_type": "single-stim", "stimulus": "<p id=\"stim\">10</p>", "internal_node_id": "0.0-35.0-0.0", "time_elapsed": 439637, "key_press": -1, "trial_index": 44}, "uniqueid": "MTK3494:39K0FND3AIMXKVQ1Q5JVJY3VMR2MA7", "dateTime": 1520619061789}, {"current_trial": 45, "trialdata": {"rt": -1, "trial_type": "single-stim", "stimulus": "<p id=\"stim\">9</p>", "internal_node_id": "0.0-35.0-1.0", "time_elapsed": 440651, "key_press": -1, "trial_index": 45}, "uniqueid": "MTK3494:39K0FND3AIMXKVQ1Q5JVJY3VMR2MA7", "dateTime": 1520619062804}, {"current_trial": 46, "trialdata": {"rt": -1, "trial_type": "single-stim", "stimulus": "<p id=\"stim\">8</p>", "internal_node_id": "0.0-35.0-2.0", "time_elapsed": 441650, "key_press": -1, "trial_index": 46}, "uniqueid": "MTK3494:39K0FND3AIMXKVQ1Q5JVJY3VMR2MA7", "dateTime": 1520619063802}, {"current_trial": 47, "trialdata": {"rt": -1, "trial_type": "single-stim", "stimulus": "<p id=\"stim\">7</p>", "internal_node_id": "0.0-35.0-3.0", "time_elapsed": 442648, "key_press": -1, "trial_index": 47}, "uniqueid": "MTK3494:39K0FND3AIMXKVQ1Q5JVJY3VMR2MA7", "dateTime": 1520619064801}, {"current_trial": 48, "trialdata": {"rt": -1, "trial_type": "single-stim", "stimulus": "<p id=\"stim\">6</p>", "internal_node_id": "0.0-35.0-4.0", "time_elapsed": 443662, "key_press": -1, "trial_index": 48}, "uniqueid": "MTK3494:39K0FND3AIMXKVQ1Q5JVJY3VMR2MA7", "dateTime": 1520619065814}, {"current_trial": 49, "trialdata": {"rt": -1, "trial_type": "single-stim", "stimulus": "<p id=\"stim\">5</p>", "internal_node_id": "0.0-35.0-5.0", "time_elapsed": 444662, "key_press": -1, "trial_index": 49}, "uniqueid": "MTK3494:39K0FND3AIMXKVQ1Q5JVJY3VMR2MA7", "dateTime": 1520619066814}, {"current_trial": 50, "trialdata": {"rt": -1, "trial_type": "single-stim", "stimulus": "<p id=\"stim\">4</p>", "internal_node_id": "0.0-35.0-6.0", "time_elapsed": 445661, "key_press": -1, "trial_index": 50}, "uniqueid": "MTK3494:39K0FND3AIMXKVQ1Q5JVJY3VMR2MA7", "dateTime": 1520619067814}, {"current_trial": 51, "trialdata": {"rt": -1, "trial_type": "single-stim", "stimulus": "<p id=\"stim\">3</p>", "internal_node_id": "0.0-35.0-7.0", "time_elapsed": 446660, "key_press": -1, "trial_index": 51}, "uniqueid": "MTK3494:39K0FND3AIMXKVQ1Q5JVJY3VMR2MA7", "dateTime": 1520619068812}, {"current_trial": 52, "trialdata": {"rt": -1, "trial_type": "single-stim", "stimulus": "<p id=\"stim\">2</p>", "internal_node_id": "0.0-35.0-8.0", "time_elapsed": 447653, "key_press": -1, "trial_index": 52}, "uniqueid": "MTK3494:39K0FND3AIMXKVQ1Q5JVJY3VMR2MA7", "dateTime": 1520619069805}, {"current_trial": 53, "trialdata": {"rt": -1, "trial_type": "single-stim", "stimulus": "<p id=\"stim\">1</p>", "internal_node_id": "0.0-35.0-9.0", "time_elapsed": 448637, "key_press": -1, "trial_index": 53}, "uniqueid": "MTK3494:39K0FND3AIMXKVQ1Q5JVJY3VMR2MA7", "dateTime": 1520619070789}, {"current_trial": 54, "trialdata": {"rt": -1, "trial_type": "single-stim", "stimulus": "<p id=\"stim\">+</p>", "internal_node_id": "0.0-36.0-0.0", "time_elapsed": 450144, "key_press": -1, "type": "FIXATION", "trial_index": 54}, "uniqueid": "MTK3494:39K0FND3AIMXKVQ1Q5JVJY3VMR2MA7", "dateTime": 1520619072296}, {"current_trial": 55, "trialdata": {"rt": -1, "trial_type": "single-stim", "word": "wife", "stimulus": "<p id=\"stim\">WIFE</p>", "conditions": [18, 1200, "v", 18000], "internal_node_id": "0.0-37.0", "trial": 1, "time_elapsed": 451353, "serialpos": 0, "key_press": -1, "wordID": 1608, "type": "PRES_VIS", "trial_index": 55}, "uniqueid": "MTK3494:39K0FND3AIMXKVQ1Q5JVJY3VMR2MA7", "dateTime": 1520619073506}, {"current_trial": 56, "trialdata": {"rt": -1, "trial_type": "single-stim", "word": "daughter", "stimulus": "<p id=\"stim\">DAUGHTER</p>", "conditions": [18, 1200, "v", 18000], "internal_node_id": "0.0-38.0", "trial": 1, "time_elapsed": 453740, "serialpos": 1, "key_press": -1, "wordID": 441, "type": "PRES_VIS", "trial_index": 56}, "uniqueid": "MTK3494:39K0FND3AIMXKVQ1Q5JVJY3VMR2MA7", "dateTime": 1520619075892}, {"current_trial": 57, "trialdata": {"rt": -1, "trial_type": "single-stim", "word": "victim", "stimulus": "<p id=\"stim\">VICTIM</p>", "conditions": [18, 1200, "v", 18000], "internal_node_id": "0.0-39.0", "trial": 1, "time_elapsed": 455876, "serialpos": 2, "key_press": -1, "wordID": 1561, "type": "PRES_VIS", "trial_index": 57}, "uniqueid": "MTK3494:39K0FND3AIMXKVQ1Q5JVJY3VMR2MA7", "dateTime": 1520619078028}, {"current_trial": 58, "trialdata": {"rt": -1, "trial_type": "single-stim", "word": "novel", "stimulus": "<p id=\"stim\">NOVEL</p>", "conditions": [18, 1200, "v", 18000], "internal_node_id": "0.0-40.0", "trial": 1, "time_elapsed": 458237, "serialpos": 3, "key_press": -1, "wordID": 959, "type": "PRES_VIS", "trial_index": 58}, "uniqueid": "MTK3494:39K0FND3AIMXKVQ1Q5JVJY3VMR2MA7", "dateTime": 1520619080389}, {"current_trial": 59, "trialdata": {"rt": -1, "trial_type": "single-stim", "word": "dress", "stimulus": "<p id=\"stim\">DRESS</p>", "conditions": [18, 1200, "v", 18000], "internal_node_id": "0.0-41.0", "trial": 1, "time_elapsed": 460495, "serialpos": 4, "key_press": -1, "wordID": 494, "type": "PRES_VIS", "trial_index": 59}, "uniqueid": "MTK3494:39K0FND3AIMXKVQ1Q5JVJY3VMR2MA7", "dateTime": 1520619082648}, {"current_trial": 60, "trialdata": {"rt": -1, "trial_type": "single-stim", "word": "clothes", "stimulus": "<p id=\"stim\">CLOTHES</p>", "conditions": [18, 1200, "v", 18000], "internal_node_id": "0.0-42.0", "trial": 1, "time_elapsed": 462586, "serialpos": 5, "key_press": -1, "wordID": 326, "type": "PRES_VIS", "trial_index": 60}, "uniqueid": "MTK3494:39K0FND3AIMXKVQ1Q5JVJY3VMR2MA7", "dateTime": 1520619084738}, {"current_trial": 61, "trialdata": {"rt": -1, "trial_type": "single-stim", "word": "toaster", "stimulus": "<p id=\"stim\">TOASTER</p>", "conditions": [18, 1200, "v", 18000], "internal_node_id": "0.0-43.0", "trial": 1, "time_elapsed": 464786, "serialpos": 6, "key_press": -1, "wordID": 1471, "type": "PRES_VIS", "trial_index": 61}, "uniqueid": "MTK3494:39K0FND3AIMXKVQ1Q5JVJY3VMR2MA7", "dateTime": 1520619086938}, {"current_trial": 62, "trialdata": {"rt": -1, "trial_type": "single-stim", "word": "patrol", "stimulus": "<p id=\"stim\">PATROL</p>", "conditions": [18, 1200, "v", 18000], "internal_node_id": "0.0-44.0", "trial": 1, "time_elapsed": 467072, "serialpos": 7, "key_press": -1, "wordID": 1026, "type": "PRES_VIS", "trial_index": 62}, "uniqueid": "MTK3494:39K0FND3AIMXKVQ1Q5JVJY3VMR2MA7", "dateTime": 1520619089224}, {"current_trial": 63, "trialdata": {"rt": -1, "trial_type": "single-stim", "word": "valley", "stimulus": "<p id=\"stim\">VALLEY</p>", "conditions": [18, 1200, "v", 18000], "internal_node_id": "0.0-45.0", "trial": 1, "time_elapsed": 469353, "serialpos": 8, "key_press": -1, "wordID": 1544, "type": "PRES_VIS", "trial_index": 63}, "uniqueid": "MTK3494:39K0FND3AIMXKVQ1Q5JVJY3VMR2MA7", "dateTime": 1520619091506}, {"current_trial": 64, "trialdata": {"rt": -1, "trial_type": "single-stim", "word": "flute", "stimulus": "<p id=\"stim\">FLUTE</p>", "conditions": [18, 1200, "v", 18000], "internal_node_id": "0.0-46.0", "trial": 1, "time_elapsed": 471487, "serialpos": 9, "key_press": -1, "wordID": 584, "type": "PRES_VIS", "trial_index": 64}, "uniqueid": "MTK3494:39K0FND3AIMXKVQ1Q5JVJY3VMR2MA7", "dateTime": 1520619093639}, {"current_trial": 65, "trialdata": {"rt": -1, "trial_type": "single-stim", "word": "binder", "stimulus": "<p id=\"stim\">BINDER</p>", "conditions": [18, 1200, "v", 18000], "internal_node_id": "0.0-47.0", "trial": 1, "time_elapsed": 473749, "serialpos": 10, "key_press": -1, "wordID": 126, "type": "PRES_VIS", "trial_index": 65}, "uniqueid": "MTK3494:39K0FND3AIMXKVQ1Q5JVJY3VMR2MA7", "dateTime": 1520619095901}, {"current_trial": 66, "trialdata": {"rt": -1, "trial_type": "single-stim", "word": "asia", "stimulus": "<p id=\"stim\">ASIA</p>", "conditions": [18, 1200, "v", 18000], "internal_node_id": "0.0-48.0", "trial": 1, "time_elapsed": 476072, "serialpos": 11, "key_press": -1, "wordID": 45, "type": "PRES_VIS", "trial_index": 66}, "uniqueid": "MTK3494:39K0FND3AIMXKVQ1Q5JVJY3VMR2MA7", "dateTime": 1520619098224}, {"current_trial": 67, "trialdata": {"rt": -1, "trial_type": "single-stim", "word": "hound", "stimulus": "<p id=\"stim\">HOUND</p>", "conditions": [18, 1200, "v", 18000], "internal_node_id": "0.0-49.0", "trial": 1, "time_elapsed": 478485, "serialpos": 12, "key_press": -1, "wordID": 723, "type": "PRES_VIS", "trial_index": 67}, "uniqueid": "MTK3494:39K0FND3AIMXKVQ1Q5JVJY3VMR2MA7", "dateTime": 1520619100637}, {"current_trial": 68, "trialdata": {"rt": -1, "trial_type": "single-stim", "word": "tribe", "stimulus": "<p id=\"stim\">TRIBE</p>", "conditions": [18, 1200, "v", 18000], "internal_node_id": "0.0-50.0", "trial": 1, "time_elapsed": 480896, "serialpos": 13, "key_press": -1, "wordID": 1504, "type": "PRES_VIS", "trial_index": 68}, "uniqueid": "MTK3494:39K0FND3AIMXKVQ1Q5JVJY3VMR2MA7", "dateTime": 1520619103048}, {"current_trial": 69, "trialdata": {"rt": -1, "trial_type": "single-stim", "word": "seafood", "stimulus": "<p id=\"stim\">SEAFOOD</p>", "conditions": [18, 1200, "v", 18000], "internal_node_id": "0.0-51.0", "trial": 1, "time_elapsed": 483120, "serialpos": 14, "key_press": -1, "wordID": 1259, "type": "PRES_VIS", "trial_index": 69}, "uniqueid": "MTK3494:39K0FND3AIMXKVQ1Q5JVJY3VMR2MA7", "dateTime": 1520619105272}, {"current_trial": 70, "trialdata": {"rt": -1, "trial_type": "single-stim", "word": "bathtub", "stimulus": "<p id=\"stim\">BATHTUB</p>", "conditions": [18, 1200, "v", 18000], "internal_node_id": "0.0-52.0", "trial": 1, "time_elapsed": 485182, "serialpos": 15, "key_press": -1, "wordID": 99, "type": "PRES_VIS", "trial_index": 70}, "uniqueid": "MTK3494:39K0FND3AIMXKVQ1Q5JVJY3VMR2MA7", "dateTime": 1520619107334}, {"current_trial": 71, "trialdata": {"rt": -1, "trial_type": "single-stim", "word": "police", "stimulus": "<p id=\"stim\">POLICE</p>", "conditions": [18, 1200, "v", 18000], "internal_node_id": "0.0-53.0", "trial": 1, "time_elapsed": 487427, "serialpos": 16, "key_press": -1, "wordID": 1097, "type": "PRES_VIS", "trial_index": 71}, "uniqueid": "MTK3494:39K0FND3AIMXKVQ1Q5JVJY3VMR2MA7", "dateTime": 1520619109579}, {"current_trial": 72, "trialdata": {"rt": -1, "trial_type": "single-stim", "word": "cloud", "stimulus": "<p id=\"stim\">CLOUD</p>", "conditions": [18, 1200, "v", 18000], "internal_node_id": "0.0-54.0", "trial": 1, "time_elapsed": 489639, "serialpos": 17, "key_press": -1, "wordID": 327, "type": "PRES_VIS", "trial_index": 72}, "uniqueid": "MTK3494:39K0FND3AIMXKVQ1Q5JVJY3VMR2MA7", "dateTime": 1520619111791}, {"current_trial": 73, "trialdata": {"rt": -1, "trial_type": "single-stim", "stimulus": "", "internal_node_id": "0.0-55.0-0.0", "time_elapsed": 491958, "key_press": -1, "type": "PRE_RECALL_DELAY", "trial_index": 73}, "uniqueid": "MTK3494:39K0FND3AIMXKVQ1Q5JVJY3VMR2MA7", "dateTime": 1520619114110}, {"current_trial": 74, "trialdata": {"rt": -1000, "trial_type": "single-audio", "stimulus": "/static/audio/400Hz.wav", "internal_node_id": "0.0-56.0", "time_elapsed": 492465, "key_press": -1, "type": "PRE_RECALL_ALERT", "trial_index": 74}, "uniqueid": "MTK3494:39K0FND3AIMXKVQ1Q5JVJY3VMR2MA7", "dateTime": 1520619114617}, {"current_trial": 75, "trialdata": {"rt": [2826, 4426, 5642, 7219, 21212, 26844, 42036, 48282, 52962], "recwords": ["cloud", "police", "wife", "daughter", "victem", "toaster", "+", "novel", "seafood"], "key_times": [2013, 2119, 2299, 2458, 2603, 2826, 3355, 3546, 3746, 3923, 4085, 4210, 4426, 4979, 5067, 5242, 5418, 5642, 5988, 6164, 6276, 6435, 6538, 6700, 6858, 7018, 7219, 8876, 8986, 9115, 9355, 9603, 9787, 10338, 10506, 10853, 14332, 14611, 14843, 15483, 15634, 16212, 16395, 16906, 17081, 17235, 17386, 17563, 18018, 19019, 19635, 20091, 20204, 20403, 20611, 20803, 20987, 21212, 24788, 24914, 25035, 25235, 25426, 25595, 25779, 26844, 40797, 41098, 42036, 47332, 47499, 47699, 47858, 48043, 48282, 51420, 51587, 51779, 52116, 52331, 52522, 52682, 52962], "trial_type": "free-recall", "conditions": [18, 1200, "v", 18000], "internal_node_id": "0.0-57.0-0.0", "key_presses": [67, 76, 79, 85, 68, 13, 80, 79, 76, 73, 67, 69, 13, 87, 73, 70, 69, 13, 68, 65, 85, 71, 72, 84, 69, 82, 13, 86, 73, 67, 84, 69, 77, 8, 8, 8, 84, 69, 77, 8, 8, 79, 77, 8, 8, 8, 8, 8, 8, 84, 8, 86, 73, 67, 84, 69, 77, 13, 84, 79, 65, 83, 84, 69, 82, 13, 16, 187, 13, 78, 79, 86, 69, 76, 13, 83, 69, 65, 70, 79, 79, 68, 13], "trial": 1, "time_elapsed": 552488, "type": "FREE_RECALL", "trial_index": 75}, "uniqueid": "MTK3494:39K0FND3AIMXKVQ1Q5JVJY3VMR2MA7", "dateTime": 1520619174642}, {"current_trial": 76, "trialdata": {"rt": 3591, "trial_type": "text", "internal_node_id": "0.0-58.0", "time_elapsed": 558095, "key_press": 13, "type": "INSTRUCTIONS", "trial_index": 76}, "uniqueid": "MTK3494:39K0FND3AIMXKVQ1Q5JVJY3VMR2MA7", "dateTime": 1520619180247}, {"current_trial": 77, "trialdata": {"rt": [3933, 6884, 9261, 12526, 14958, 18228, 20862, 23813], "trial_type": "math-distractor", "key_times": [3591, 3774, 3933, 6535, 6656, 6884, 8656, 9055, 9261, 12126, 12285, 12526, 14255, 14582, 14958, 17799, 17982, 18228, 20223, 20622, 20862, 23423, 23541, 23813], "responses": ["12", "17", "13", "17", "10", "16", "15", "20"], "num2": [1, 5, 3, 3, 3, 6, 5, 7, 2], "num3": [6, 9, 3, 5, 4, 2, 1, 9, 6], "conditions": [12, 1600, "v", 24000], "internal_node_id": "0.0-59.0", "key_presses": [49, 50, 13, 49, 55, 13, 49, 51, 13, 49, 55, 13, 49, 48, 13, 49, 54, 13, 49, 53, 13, 50, 48, 13], "trial": 2, "time_elapsed": 583122, "type": "DISTRACTOR", "trial_index": 77, "num1": [5, 3, 7, 9, 3, 8, 9, 4, 5]}, "uniqueid": "MTK3494:39K0FND3AIMXKVQ1Q5JVJY3VMR2MA7", "dateTime": 1520619205274}, {"current_trial": 78, "trialdata": {"rt": -1, "trial_type": "single-stim", "stimulus": "<p id=\"stim\">10</p>", "internal_node_id": "0.0-60.0-0.0", "time_elapsed": 586153, "key_press": -1, "trial_index": 78}, "uniqueid": "MTK3494:39K0FND3AIMXKVQ1Q5JVJY3VMR2MA7", "dateTime": 1520619208306}, {"current_trial": 79, "trialdata": {"rt": -1, "trial_type": "single-stim", "stimulus": "<p id=\"stim\">9</p>", "internal_node_id": "0.0-60.0-1.0", "time_elapsed": 587142, "key_press": -1, "trial_index": 79}, "uniqueid": "MTK3494:39K0FND3AIMXKVQ1Q5JVJY3VMR2MA7", "dateTime": 1520619209294}, {"current_trial": 80, "trialdata": {"rt": -1, "trial_type": "single-stim", "stimulus": "<p id=\"stim\">8</p>", "internal_node_id": "0.0-60.0-2.0", "time_elapsed": 588154, "key_press": -1, "trial_index": 80}, "uniqueid": "MTK3494:39K0FND3AIMXKVQ1Q5JVJY3VMR2MA7", "dateTime": 1520619210306}, {"current_trial": 81, "trialdata": {"rt": -1, "trial_type": "single-stim", "stimulus": "<p id=\"stim\">7</p>", "internal_node_id": "0.0-60.0-3.0", "time_elapsed": 589154, "key_press": -1, "trial_index": 81}, "uniqueid": "MTK3494:39K0FND3AIMXKVQ1Q5JVJY3VMR2MA7", "dateTime": 1520619211306}, {"current_trial": 82, "trialdata": {"rt": -1, "trial_type": "single-stim", "stimulus": "<p id=\"stim\">6</p>", "internal_node_id": "0.0-60.0-4.0", "time_elapsed": 590153, "key_press": -1, "trial_index": 82}, "uniqueid": "MTK3494:39K0FND3AIMXKVQ1Q5JVJY3VMR2MA7", "dateTime": 1520619212305}, {"current_trial": 83, "trialdata": {"rt": -1, "trial_type": "single-stim", "stimulus": "<p id=\"stim\">5</p>", "internal_node_id": "0.0-60.0-5.0", "time_elapsed": 591153, "key_press": -1, "trial_index": 83}, "uniqueid": "MTK3494:39K0FND3AIMXKVQ1Q5JVJY3VMR2MA7", "dateTime": 1520619213305}, {"current_trial": 84, "trialdata": {"rt": -1, "trial_type": "single-stim", "stimulus": "<p id=\"stim\">4</p>", "internal_node_id": "0.0-60.0-6.0", "time_elapsed": 592152, "key_press": -1, "trial_index": 84}, "uniqueid": "MTK3494:39K0FND3AIMXKVQ1Q5JVJY3VMR2MA7", "dateTime": 1520619214304}, {"current_trial": 85, "trialdata": {"rt": -1, "trial_type": "single-stim", "stimulus": "<p id=\"stim\">3</p>", "internal_node_id": "0.0-60.0-7.0", "time_elapsed": 593152, "key_press": -1, "trial_index": 85}, "uniqueid": "MTK3494:39K0FND3AIMXKVQ1Q5JVJY3VMR2MA7", "dateTime": 1520619215304}, {"current_trial": 86, "trialdata": {"rt": -1, "trial_type": "single-stim", "stimulus": "<p id=\"stim\">2</p>", "internal_node_id": "0.0-60.0-8.0", "time_elapsed": 594151, "key_press": -1, "trial_index": 86}, "uniqueid": "MTK3494:39K0FND3AIMXKVQ1Q5JVJY3VMR2MA7", "dateTime": 1520619216303}, {"current_trial": 87, "trialdata": {"rt": -1, "trial_type": "single-stim", "stimulus": "<p id=\"stim\">1</p>", "internal_node_id": "0.0-60.0-9.0", "time_elapsed": 595147, "key_press": -1, "trial_index": 87}, "uniqueid": "MTK3494:39K0FND3AIMXKVQ1Q5JVJY3VMR2MA7", "dateTime": 1520619217299}, {"current_trial": 88, "trialdata": {"rt": -1, "trial_type": "single-stim", "stimulus": "<p id=\"stim\">+</p>", "internal_node_id": "0.0-61.0-0.0", "time_elapsed": 596668, "key_press": -1, "type": "FIXATION", "trial_index": 88}, "uniqueid": "MTK3494:39K0FND3AIMXKVQ1Q5JVJY3VMR2MA7", "dateTime": 1520619218820}, {"current_trial": 89, "trialdata": {"rt": -1, "trial_type": "single-stim", "word": "nurse", "stimulus": "<p id=\"stim\">NURSE</p>", "conditions": [12, 1600, "v", 24000], "internal_node_id": "0.0-62.0", "trial": 2, "time_elapsed": 598280, "serialpos": 0, "key_press": -1, "wordID": 962, "type": "PRES_VIS", "trial_index": 89}, "uniqueid": "MTK3494:39K0FND3AIMXKVQ1Q5JVJY3VMR2MA7", "dateTime": 1520619220432}, {"current_trial": 90, "trialdata": {"rt": -1, "trial_type": "single-stim", "word": "forehead", "stimulus": "<p id=\"stim\">FOREHEAD</p>", "conditions": [12, 1600, "v", 24000], "internal_node_id": "0.0-63.0", "trial": 2, "time_elapsed": 600817, "serialpos": 1, "key_press": -1, "wordID": 591, "type": "PRES_VIS", "trial_index": 90}, "uniqueid": "MTK3494:39K0FND3AIMXKVQ1Q5JVJY3VMR2MA7", "dateTime": 1520619222969}, {"current_trial": 91, "trialdata": {"rt": -1, "trial_type": "single-stim", "word": "chest", "stimulus": "<p id=\"stim\">CHEST</p>", "conditions": [12, 1600, "v", 24000], "internal_node_id": "0.0-64.0", "trial": 2, "time_elapsed": 603580, "serialpos": 2, "key_press": -1, "wordID": 294, "type": "PRES_VIS", "trial_index": 91}, "uniqueid": "MTK3494:39K0FND3AIMXKVQ1Q5JVJY3VMR2MA7", "dateTime": 1520619225732}, {"current_trial": 92, "trialdata": {"rt": -1, "trial_type": "single-stim", "word": "gallon", "stimulus": "<p id=\"stim\">GALLON</p>", "conditions": [12, 1600, "v", 24000], "internal_node_id": "0.0-65.0", "trial": 2, "time_elapsed": 606289, "serialpos": 3, "key_press": -1, "wordID": 617, "type": "PRES_VIS", "trial_index": 92}, "uniqueid": "MTK3494:39K0FND3AIMXKVQ1Q5JVJY3VMR2MA7", "dateTime": 1520619228442}, {"current_trial": 93, "trialdata": {"rt": -1, "trial_type": "single-stim", "word": "cod", "stimulus": "<p id=\"stim\">COD</p>", "conditions": [12, 1600, "v", 24000], "internal_node_id": "0.0-66.0", "trial": 2, "time_elapsed": 609041, "serialpos": 4, "key_press": -1, "wordID": 339, "type": "PRES_VIS", "trial_index": 93}, "uniqueid": "MTK3494:39K0FND3AIMXKVQ1Q5JVJY3VMR2MA7", "dateTime": 1520619231193}, {"current_trial": 94, "trialdata": {"rt": -1, "trial_type": "single-stim", "word": "apron", "stimulus": "<p id=\"stim\">APRON</p>", "conditions": [12, 1600, "v", 24000], "internal_node_id": "0.0-67.0", "trial": 2, "time_elapsed": 611729, "serialpos": 5, "key_press": -1, "wordID": 34, "type": "PRES_VIS", "trial_index": 94}, "uniqueid": "MTK3494:39K0FND3AIMXKVQ1Q5JVJY3VMR2MA7", "dateTime": 1520619233881}, {"current_trial": 95, "trialdata": {"rt": -1, "trial_type": "single-stim", "word": "ankle", "stimulus": "<p id=\"stim\">ANKLE</p>", "conditions": [12, 1600, "v", 24000], "internal_node_id": "0.0-68.0", "trial": 2, "time_elapsed": 614170, "serialpos": 6, "key_press": -1, "wordID": 23, "type": "PRES_VIS", "trial_index": 95}, "uniqueid": "MTK3494:39K0FND3AIMXKVQ1Q5JVJY3VMR2MA7", "dateTime": 1520619236322}, {"current_trial": 96, "trialdata": {"rt": -1, "trial_type": "single-stim", "word": "barrel", "stimulus": "<p id=\"stim\">BARREL</p>", "conditions": [12, 1600, "v", 24000], "internal_node_id": "0.0-69.0", "trial": 2, "time_elapsed": 616868, "serialpos": 7, "key_press": -1, "wordID": 90, "type": "PRES_VIS", "trial_index": 96}, "uniqueid": "MTK3494:39K0FND3AIMXKVQ1Q5JVJY3VMR2MA7", "dateTime": 1520619239020}, {"current_trial": 97, "trialdata": {"rt": -1, "trial_type": "single-stim", "word": "expert", "stimulus": "<p id=\"stim\">EXPERT</p>", "conditions": [12, 1600, "v", 24000], "internal_node_id": "0.0-70.0", "trial": 2, "time_elapsed": 619552, "serialpos": 8, "key_press": -1, "wordID": 542, "type": "PRES_VIS", "trial_index": 97}, "uniqueid": "MTK3494:39K0FND3AIMXKVQ1Q5JVJY3VMR2MA7", "dateTime": 1520619241704}, {"current_trial": 98, "trialdata": {"rt": -1, "trial_type": "single-stim", "word": "poet", "stimulus": "<p id=\"stim\">POET</p>", "conditions": [12, 1600, "v", 24000], "internal_node_id": "0.0-71.0", "trial": 2, "time_elapsed": 622225, "serialpos": 9, "key_press": -1, "wordID": 1094, "type": "PRES_VIS", "trial_index": 98}, "uniqueid": "MTK3494:39K0FND3AIMXKVQ1Q5JVJY3VMR2MA7", "dateTime": 1520619244377}, {"current_trial": 99, "trialdata": {"rt": -1, "trial_type": "single-stim", "word": "knife", "stimulus": "<p id=\"stim\">KNIFE</p>", "conditions": [12, 1600, "v", 24000], "internal_node_id": "0.0-72.0", "trial": 2, "time_elapsed": 624990, "serialpos": 10, "key_press": -1, "wordID": 784, "type": "PRES_VIS", "trial_index": 99}, "uniqueid": "MTK3494:39K0FND3AIMXKVQ1Q5JVJY3VMR2MA7", "dateTime": 1520619247142}, {"current_trial": 100, "trialdata": {"rt": -1, "trial_type": "single-stim", "word": "honey", "stimulus": "<p id=\"stim\">HONEY</p>", "conditions": [12, 1600, "v", 24000], "internal_node_id": "0.0-73.0", "trial": 2, "time_elapsed": 627734, "serialpos": 11, "key_press": -1, "wordID": 712, "type": "PRES_VIS", "trial_index": 100}, "uniqueid": "MTK3494:39K0FND3AIMXKVQ1Q5JVJY3VMR2MA7", "dateTime": 1520619249886}, {"current_trial": 101, "trialdata": {"rt": -1, "trial_type": "single-stim", "stimulus": "", "internal_node_id": "0.0-74.0-0.0", "time_elapsed": 629882, "key_press": -1, "type": "PRE_RECALL_DELAY", "trial_index": 101}, "uniqueid": "MTK3494:39K0FND3AIMXKVQ1Q5JVJY3VMR2MA7", "dateTime": 1520619252034}, {"current_trial": 102, "trialdata": {"rt": -1000, "trial_type": "single-audio", "stimulus": "/static/audio/400Hz.wav", "internal_node_id": "0.0-75.0", "time_elapsed": 630404, "key_press": -1, "type": "PRE_RECALL_ALERT", "trial_index": 102}, "uniqueid": "MTK3494:39K0FND3AIMXKVQ1Q5JVJY3VMR2MA7", "dateTime": 1520619252556}, {"current_trial": 103, "trialdata": {"rt": [2294, 6775, 8512, 10743, 20320, 32151, 39560], "recwords": ["+", "nurse", "honey", "expert", "cod", "gallon", "food"], "key_times": [1554, 1791, 2294, 2879, 3008, 3328, 3536, 3776, 3936, 4585, 4728, 4919, 5070, 5303, 5872, 6064, 6256, 6407, 6560, 6775, 7753, 7816, 8024, 8152, 8264, 8512, 9368, 9632, 9848, 10009, 10207, 10399, 10743, 19728, 19876, 20040, 20320, 30945, 31192, 31416, 31550, 31720, 31936, 32151, 38881, 39064, 39223, 39360, 39560], "trial_type": "free-recall", "conditions": [12, 1600, "v", 24000], "internal_node_id": "0.0-76.0-0.0", "key_presses": [16, 187, 13, 16, 78, 85, 82, 83, 69, 8, 8, 8, 8, 8, 78, 85, 82, 83, 69, 13, 72, 79, 78, 69, 89, 13, 69, 88, 80, 69, 82, 84, 13, 67, 79, 68, 13, 71, 65, 76, 76, 79, 78, 13, 70, 79, 79, 68, 13], "trial": 2, "time_elapsed": 690428, "type": "FREE_RECALL", "trial_index": 103}, "uniqueid": "MTK3494:39K0FND3AIMXKVQ1Q5JVJY3VMR2MA7", "dateTime": 1520619312583}, {"current_trial": 104, "trialdata": {"rt": 2138, "trial_type": "text", "internal_node_id": "0.0-77.0", "time_elapsed": 694590, "key_press": 13, "type": "INSTRUCTIONS", "trial_index": 104}, "uniqueid": "MTK3494:39K0FND3AIMXKVQ1Q5JVJY3VMR2MA7", "dateTime": 1520619316742}, {"current_trial": 105, "trialdata": {"rt": [3672, 7312, 9730, 13681, 17177, 19904, 22792], "trial_type": "math-distractor", "key_times": [3033, 3345, 3672, 6794, 7065, 7312, 9098, 9520, 9730, 13026, 13505, 13681, 16762, 16912, 17177, 19258, 19728, 19904, 22178, 22600, 22792], "responses": ["16", "13", "18", "16", "22", "17", "20"], "num2": [7, 2, 9, 4, 8, 4, 3, 1], "num3": [6, 6, 8, 3, 7, 8, 9, 8], "conditions": [12, 1600, "v", 24000], "internal_node_id": "0.0-78.0", "key_presses": [49, 54, 13, 49, 51, 13, 49, 56, 13, 49, 54, 13, 50, 50, 13, 49, 55, 13, 50, 48, 13], "trial": 3, "time_elapsed": 720618, "type": "DISTRACTOR", "trial_index": 105, "num1": [3, 5, 1, 9, 7, 5, 8, 4]}, "uniqueid": "MTK3494:39K0FND3AIMXKVQ1Q5JVJY3VMR2MA7", "dateTime": 1520619342770}, {"current_trial": 106, "trialdata": {"rt": -1, "trial_type": "single-stim", "stimulus": "<p id=\"stim\">10</p>", "internal_node_id": "0.0-79.0-0.0", "time_elapsed": 723660, "key_press": -1, "trial_index": 106}, "uniqueid": "MTK3494:39K0FND3AIMXKVQ1Q5JVJY3VMR2MA7", "dateTime": 1520619345812}, {"current_trial": 107, "trialdata": {"rt": -1, "trial_type": "single-stim", "stimulus": "<p id=\"stim\">9</p>", "internal_node_id": "0.0-79.0-1.0", "time_elapsed": 724641, "key_press": -1, "trial_index": 107}, "uniqueid": "MTK3494:39K0FND3AIMXKVQ1Q5JVJY3VMR2MA7", "dateTime": 1520619346793}, {"current_trial": 108, "trialdata": {"rt": -1, "trial_type": "single-stim", "stimulus": "<p id=\"stim\">8</p>", "internal_node_id": "0.0-79.0-2.0", "time_elapsed": 725657, "key_press": -1, "trial_index": 108}, "uniqueid": "MTK3494:39K0FND3AIMXKVQ1Q5JVJY3VMR2MA7", "dateTime": 1520619347810}, {"current_trial": 109, "trialdata": {"rt": -1, "trial_type": "single-stim", "stimulus": "<p id=\"stim\">7</p>", "internal_node_id": "0.0-79.0-3.0", "time_elapsed": 726655, "key_press": -1, "trial_index": 109}, "uniqueid": "MTK3494:39K0FND3AIMXKVQ1Q5JVJY3VMR2MA7", "dateTime": 1520619348807}, {"current_trial": 110, "trialdata": {"rt": -1, "trial_type": "single-stim", "stimulus": "<p id=\"stim\">6</p>", "internal_node_id": "0.0-79.0-4.0", "time_elapsed": 727652, "key_press": -1, "trial_index": 110}, "uniqueid": "MTK3494:39K0FND3AIMXKVQ1Q5JVJY3VMR2MA7", "dateTime": 1520619349805}, {"current_trial": 111, "trialdata": {"rt": -1, "trial_type": "single-stim", "stimulus": "<p id=\"stim\">5</p>", "internal_node_id": "0.0-79.0-5.0", "time_elapsed": 728650, "key_press": -1, "trial_index": 111}, "uniqueid": "MTK3494:39K0FND3AIMXKVQ1Q5JVJY3VMR2MA7", "dateTime": 1520619350802}, {"current_trial": 112, "trialdata": {"rt": -1, "trial_type": "single-stim", "stimulus": "<p id=\"stim\">4</p>", "internal_node_id": "0.0-79.0-6.0", "time_elapsed": 729665, "key_press": -1, "trial_index": 112}, "uniqueid": "MTK3494:39K0FND3AIMXKVQ1Q5JVJY3VMR2MA7", "dateTime": 1520619351817}, {"current_trial": 113, "trialdata": {"rt": -1, "trial_type": "single-stim", "stimulus": "<p id=\"stim\">3</p>", "internal_node_id": "0.0-79.0-7.0", "time_elapsed": 730663, "key_press": -1, "trial_index": 113}, "uniqueid": "MTK3494:39K0FND3AIMXKVQ1Q5JVJY3VMR2MA7", "dateTime": 1520619352815}, {"current_trial": 114, "trialdata": {"rt": -1, "trial_type": "single-stim", "stimulus": "<p id=\"stim\">2</p>", "internal_node_id": "0.0-79.0-8.0", "time_elapsed": 731654, "key_press": -1, "trial_index": 114}, "uniqueid": "MTK3494:39K0FND3AIMXKVQ1Q5JVJY3VMR2MA7", "dateTime": 1520619353806}, {"current_trial": 115, "trialdata": {"rt": -1, "trial_type": "single-stim", "stimulus": "<p id=\"stim\">1</p>", "internal_node_id": "0.0-79.0-9.0", "time_elapsed": 732661, "key_press": -1, "trial_index": 115}, "uniqueid": "MTK3494:39K0FND3AIMXKVQ1Q5JVJY3VMR2MA7", "dateTime": 1520619354813}, {"current_trial": 116, "trialdata": {"rt": -1, "trial_type": "single-stim", "stimulus": "<p id=\"stim\">+</p>", "internal_node_id": "0.0-80.0-0.0", "time_elapsed": 734179, "key_press": -1, "type": "FIXATION", "trial_index": 116}, "uniqueid": "MTK3494:39K0FND3AIMXKVQ1Q5JVJY3VMR2MA7", "dateTime": 1520619356332}, {"current_trial": 117, "trialdata": {"rt": -1, "trial_type": "single-stim", "word": "garlic", "stimulus": "<p id=\"stim\">GARLIC</p>", "conditions": [12, 1600, "v", 24000], "internal_node_id": "0.0-81.0", "trial": 3, "time_elapsed": 735788, "serialpos": 0, "key_press": -1, "wordID": 623, "type": "PRES_VIS", "trial_index": 117}, "uniqueid": "MTK3494:39K0FND3AIMXKVQ1Q5JVJY3VMR2MA7", "dateTime": 1520619357941}, {"current_trial": 118, "trialdata": {"rt": -1, "trial_type": "single-stim", "word": "ointment", "stimulus": "<p id=\"stim\">OINTMENT</p>", "conditions": [12, 1600, "v", 24000], "internal_node_id": "0.0-82.0", "trial": 3, "time_elapsed": 738462, "serialpos": 1, "key_press": -1, "wordID": 973, "type": "PRES_VIS", "trial_index": 118}, "uniqueid": "MTK3494:39K0FND3AIMXKVQ1Q5JVJY3VMR2MA7", "dateTime": 1520619360614}, {"current_trial": 119, "trialdata": {"rt": -1, "trial_type": "single-stim", "word": "convict", "stimulus": "<p id=\"stim\">CONVICT</p>", "conditions": [12, 1600, "v", 24000], "internal_node_id": "0.0-83.0", "trial": 3, "time_elapsed": 741187, "serialpos": 2, "key_press": -1, "wordID": 370, "type": "PRES_VIS", "trial_index": 119}, "uniqueid": "MTK3494:39K0FND3AIMXKVQ1Q5JVJY3VMR2MA7", "dateTime": 1520619363339}, {"current_trial": 120, "trialdata": {"rt": -1, "trial_type": "single-stim", "word": "padding", "stimulus": "<p id=\"stim\">PADDING</p>", "conditions": [12, 1600, "v", 24000], "internal_node_id": "0.0-84.0", "trial": 3, "time_elapsed": 743853, "serialpos": 3, "key_press": -1, "wordID": 998, "type": "PRES_VIS", "trial_index": 120}, "uniqueid": "MTK3494:39K0FND3AIMXKVQ1Q5JVJY3VMR2MA7", "dateTime": 1520619366006}, {"current_trial": 121, "trialdata": {"rt": -1, "trial_type": "single-stim", "word": "umpire", "stimulus": "<p id=\"stim\">UMPIRE</p>", "conditions": [12, 1600, "v", 24000], "internal_node_id": "0.0-85.0", "trial": 3, "time_elapsed": 746320, "serialpos": 4, "key_press": -1, "wordID": 1534, "type": "PRES_VIS", "trial_index": 121}, "uniqueid": "MTK3494:39K0FND3AIMXKVQ1Q5JVJY3VMR2MA7", "dateTime": 1520619368472}, {"current_trial": 122, "trialdata": {"rt": -1, "trial_type": "single-stim", "word": "scallop", "stimulus": "<p id=\"stim\">SCALLOP</p>", "conditions": [12, 1600, "v", 24000], "internal_node_id": "0.0-86.0", "trial": 3, "time_elapsed": 749009, "serialpos": 5, "key_press": -1, "wordID": 1241, "type": "PRES_VIS", "trial_index": 122}, "uniqueid": "MTK3494:39K0FND3AIMXKVQ1Q5JVJY3VMR2MA7", "dateTime": 1520619371162}, {"current_trial": 123, "trialdata": {"rt": -1, "trial_type": "single-stim", "word": "cellar", "stimulus": "<p id=\"stim\">CELLAR</p>", "conditions": [12, 1600, "v", 24000], "internal_node_id": "0.0-87.0", "trial": 3, "time_elapsed": 751741, "serialpos": 6, "key_press": -1, "wordID": 266, "type": "PRES_VIS", "trial_index": 123}, "uniqueid": "MTK3494:39K0FND3AIMXKVQ1Q5JVJY3VMR2MA7", "dateTime": 1520619373894}, {"current_trial": 124, "trialdata": {"rt": -1, "trial_type": "single-stim", "word": "basement", "stimulus": "<p id=\"stim\">BASEMENT</p>", "conditions": [12, 1600, "v", 24000], "internal_node_id": "0.0-88.0", "trial": 3, "time_elapsed": 754246, "serialpos": 7, "key_press": -1, "wordID": 93, "type": "PRES_VIS", "trial_index": 124}, "uniqueid": "MTK3494:39K0FND3AIMXKVQ1Q5JVJY3VMR2MA7", "dateTime": 1520619376398}, {"current_trial": 125, "trialdata": {"rt": -1, "trial_type": "single-stim", "word": "rabbit", "stimulus": "<p id=\"stim\">RABBIT</p>", "conditions": [12, 1600, "v", 24000], "internal_node_id": "0.0-89.0", "trial": 3, "time_elapsed": 756915, "serialpos": 8, "key_press": -1, "wordID": 1151, "type": "PRES_VIS", "trial_index": 125}, "uniqueid": "MTK3494:39K0FND3AIMXKVQ1Q5JVJY3VMR2MA7", "dateTime": 1520619379067}, {"current_trial": 126, "trialdata": {"rt": -1, "trial_type": "single-stim", "word": "clam", "stimulus": "<p id=\"stim\">CLAM</p>", "conditions": [12, 1600, "v", 24000], "internal_node_id": "0.0-90.0", "trial": 3, "time_elapsed": 759556, "serialpos": 9, "key_press": -1, "wordID": 314, "type": "PRES_VIS", "trial_index": 126}, "uniqueid": "MTK3494:39K0FND3AIMXKVQ1Q5JVJY3VMR2MA7", "dateTime": 1520619381709}, {"current_trial": 127, "trialdata": {"rt": -1, "trial_type": "single-stim", "word": "canal", "stimulus": "<p id=\"stim\">CANAL</p>", "conditions": [12, 1600, "v", 24000], "internal_node_id": "0.0-91.0", "trial": 3, "time_elapsed": 762016, "serialpos": 10, "key_press": -1, "wordID": 225, "type": "PRES_VIS", "trial_index": 127}, "uniqueid": "MTK3494:39K0FND3AIMXKVQ1Q5JVJY3VMR2MA7", "dateTime": 1520619384168}, {"current_trial": 128, "trialdata": {"rt": -1, "trial_type": "single-stim", "word": "statue", "stimulus": "<p id=\"stim\">STATUE</p>", "conditions": [12, 1600, "v", 24000], "internal_node_id": "0.0-92.0", "trial": 3, "time_elapsed": 764455, "serialpos": 11, "key_press": -1, "wordID": 1373, "type": "PRES_VIS", "trial_index": 128}, "uniqueid": "MTK3494:39K0FND3AIMXKVQ1Q5JVJY3VMR2MA7", "dateTime": 1520619386607}, {"current_trial": 129, "trialdata": {"rt": -1, "trial_type": "single-stim", "stimulus": "", "internal_node_id": "0.0-93.0-0.0", "time_elapsed": 766838, "key_press": -1, "type": "PRE_RECALL_DELAY", "trial_index": 129}, "uniqueid": "MTK3494:39K0FND3AIMXKVQ1Q5JVJY3VMR2MA7", "dateTime": 1520619388990}, {"current_trial": 130, "trialdata": {"rt": -1000, "trial_type": "single-audio", "stimulus": "/static/audio/400Hz.wav", "internal_node_id": "0.0-94.0", "time_elapsed": 767360, "key_press": -1, "type": "PRE_RECALL_ALERT", "trial_index": 130}, "uniqueid": "MTK3494:39K0FND3AIMXKVQ1Q5JVJY3VMR2MA7", "dateTime": 1520619389512}, {"current_trial": 131, "trialdata": {"rt": [3389, 4651, 5956, 9483, 35020, 43643, 47139], "recwords": ["statue", "clam", "+", "ointement", "convict", "padding", "umpire"], "key_times": [1709, 1972, 2116, 2300, 2875, 3060, 3389, 3852, 3979, 4099, 4260, 4651, 5147, 5539, 5956, 8005, 8203, 8380, 8484, 8683, 8795, 8915, 9060, 9219, 9483, 33781, 33924, 34099, 34237, 34411, 34547, 34812, 35020, 41997, 42181, 42588, 42731, 42851, 43027, 43340, 43643, 44213, 45428, 45628, 45843, 46069, 46348, 46538, 46804, 47139], "trial_type": "free-recall", "conditions": [12, 1600, "v", 24000], "internal_node_id": "0.0-95.0-0.0", "key_presses": [83, 84, 65, 84, 85, 69, 13, 67, 76, 65, 77, 13, 16, 187, 13, 79, 73, 78, 84, 69, 77, 69, 78, 84, 13, 67, 79, 78, 86, 73, 67, 84, 13, 80, 65, 68, 68, 73, 78, 71, 13, 85, 77, 80, 73, 69, 8, 82, 69, 13], "trial": 3, "time_elapsed": 827381, "type": "FREE_RECALL", "trial_index": 131}, "uniqueid": "MTK3494:39K0FND3AIMXKVQ1Q5JVJY3VMR2MA7", "dateTime": 1520619449536}, {"current_trial": 132, "trialdata": {"rt": 5779, "trial_type": "text", "internal_node_id": "0.0-96.0", "time_elapsed": 835182, "key_press": 13, "type": "INSTRUCTIONS", "trial_index": 132}, "uniqueid": "MTK3494:39K0FND3AIMXKVQ1Q5JVJY3VMR2MA7", "dateTime": 1520619457334}, {"current_trial": 133, "trialdata": {"rt": [4584, 8024, 11249], "trial_type": "math-distractor", "key_times": [4114, 4280, 4584, 7362, 7855, 8024, 10841, 11072, 11249], "responses": ["17", "15", "13"], "num2": [7, 2, 1, 1], "num3": [2, 4, 3, 2], "conditions": [24, 800, "v", 12000], "internal_node_id": "0.0-97.0", "key_presses": [49, 55, 13, 49, 53, 13, 49, 51, 13], "trial": 4, "time_elapsed": 849210, "type": "DISTRACTOR", "trial_index": 133, "num1": [8, 9, 9, 8]}, "uniqueid": "MTK3494:39K0FND3AIMXKVQ1Q5JVJY3VMR2MA7", "dateTime": 1520619471362}, {"current_trial": 134, "trialdata": {"rt": -1, "trial_type": "single-stim", "stimulus": "<p id=\"stim\">10</p>", "internal_node_id": "0.0-98.0-0.0", "time_elapsed": 852237, "key_press": -1, "trial_index": 134}, "uniqueid": "MTK3494:39K0FND3AIMXKVQ1Q5JVJY3VMR2MA7", "dateTime": 1520619474389}, {"current_trial": 135, "trialdata": {"rt": -1, "trial_type": "single-stim", "stimulus": "<p id=\"stim\">9</p>", "internal_node_id": "0.0-98.0-1.0", "time_elapsed": 853249, "key_press": -1, "trial_index": 135}, "uniqueid": "MTK3494:39K0FND3AIMXKVQ1Q5JVJY3VMR2MA7", "dateTime": 1520619475401}, {"current_trial": 136, "trialdata": {"rt": -1, "trial_type": "single-stim", "stimulus": "<p id=\"stim\">8</p>", "internal_node_id": "0.0-98.0-2.0", "time_elapsed": 854246, "key_press": -1, "trial_index": 136}, "uniqueid": "MTK3494:39K0FND3AIMXKVQ1Q5JVJY3VMR2MA7", "dateTime": 1520619476399}, {"current_trial": 137, "trialdata": {"rt": -1, "trial_type": "single-stim", "stimulus": "<p id=\"stim\">7</p>", "internal_node_id": "0.0-98.0-3.0", "time_elapsed": 855258, "key_press": -1, "trial_index": 137}, "uniqueid": "MTK3494:39K0FND3AIMXKVQ1Q5JVJY3VMR2MA7", "dateTime": 1520619477410}, {"current_trial": 138, "trialdata": {"rt": -1, "trial_type": "single-stim", "stimulus": "<p id=\"stim\">6</p>", "internal_node_id": "0.0-98.0-4.0", "time_elapsed": 856253, "key_press": -1, "trial_index": 138}, "uniqueid": "MTK3494:39K0FND3AIMXKVQ1Q5JVJY3VMR2MA7", "dateTime": 1520619478405}, {"current_trial": 139, "trialdata": {"rt": -1, "trial_type": "single-stim", "stimulus": "<p id=\"stim\">5</p>", "internal_node_id": "0.0-98.0-5.0", "time_elapsed": 857252, "key_press": -1, "trial_index": 139}, "uniqueid": "MTK3494:39K0FND3AIMXKVQ1Q5JVJY3VMR2MA7", "dateTime": 1520619479404}, {"current_trial": 140, "trialdata": {"rt": -1, "trial_type": "single-stim", "stimulus": "<p id=\"stim\">4</p>", "internal_node_id": "0.0-98.0-6.0", "time_elapsed": 858262, "key_press": -1, "trial_index": 140}, "uniqueid": "MTK3494:39K0FND3AIMXKVQ1Q5JVJY3VMR2MA7", "dateTime": 1520619480414}, {"current_trial": 141, "trialdata": {"rt": -1, "trial_type": "single-stim", "stimulus": "<p id=\"stim\">3</p>", "internal_node_id": "0.0-98.0-7.0", "time_elapsed": 859261, "key_press": -1, "trial_index": 141}, "uniqueid": "MTK3494:39K0FND3AIMXKVQ1Q5JVJY3VMR2MA7", "dateTime": 1520619481413}, {"current_trial": 142, "trialdata": {"rt": -1, "trial_type": "single-stim", "stimulus": "<p id=\"stim\">2</p>", "internal_node_id": "0.0-98.0-8.0", "time_elapsed": 860261, "key_press": -1, "trial_index": 142}, "uniqueid": "MTK3494:39K0FND3AIMXKVQ1Q5JVJY3VMR2MA7", "dateTime": 1520619482413}, {"current_trial": 143, "trialdata": {"rt": -1, "trial_type": "single-stim", "stimulus": "<p id=\"stim\">1</p>", "internal_node_id": "0.0-98.0-9.0", "time_elapsed": 861254, "key_press": -1, "trial_index": 143}, "uniqueid": "MTK3494:39K0FND3AIMXKVQ1Q5JVJY3VMR2MA7", "dateTime": 1520619483406}, {"current_trial": 144, "trialdata": {"rt": -1, "trial_type": "single-stim", "stimulus": "<p id=\"stim\">+</p>", "internal_node_id": "0.0-99.0-0.0", "time_elapsed": 862764, "key_press": -1, "type": "FIXATION", "trial_index": 144}, "uniqueid": "MTK3494:39K0FND3AIMXKVQ1Q5JVJY3VMR2MA7", "dateTime": 1520619484917}, {"current_trial": 145, "trialdata": {"rt": -1, "trial_type": "single-stim", "word": "doughnut", "stimulus": "<p id=\"stim\">DOUGHNUT</p>", "conditions": [24, 800, "v", 12000], "internal_node_id": "0.0-100.0", "trial": 4, "time_elapsed": 863581, "serialpos": 0, "key_press": -1, "wordID": 489, "type": "PRES_VIS", "trial_index": 145}, "uniqueid": "MTK3494:39K0FND3AIMXKVQ1Q5JVJY3VMR2MA7", "dateTime": 1520619485733}, {"current_trial": 146, "trialdata": {"rt": -1, "trial_type": "single-stim", "word": "lover", "stimulus": "<p id=\"stim\">LOVER</p>", "conditions": [24, 800, "v", 12000], "internal_node_id": "0.0-101.0", "trial": 4, "time_elapsed": 865391, "serialpos": 1, "key_press": -1, "wordID": 845, "type": "PRES_VIS", "trial_index": 146}, "uniqueid": "MTK3494:39K0FND3AIMXKVQ1Q5JVJY3VMR2MA7", "dateTime": 1520619487543}, {"current_trial": 147, "trialdata": {"rt": -1, "trial_type": "single-stim", "word": "motel", "stimulus": "<p id=\"stim\">MOTEL</p>", "conditions": [24, 800, "v", 12000], "internal_node_id": "0.0-102.0", "trial": 4, "time_elapsed": 867292, "serialpos": 2, "key_press": -1, "wordID": 918, "type": "PRES_VIS", "trial_index": 147}, "uniqueid": "MTK3494:39K0FND3AIMXKVQ1Q5JVJY3VMR2MA7", "dateTime": 1520619489444}, {"current_trial": 148, "trialdata": {"rt": -1, "trial_type": "single-stim", "word": "highway", "stimulus": "<p id=\"stim\">HIGHWAY</p>", "conditions": [24, 800, "v", 12000], "internal_node_id": "0.0-103.0", "trial": 4, "time_elapsed": 869273, "serialpos": 3, "key_press": -1, "wordID": 706, "type": "PRES_VIS", "trial_index": 148}, "uniqueid": "MTK3494:39K0FND3AIMXKVQ1Q5JVJY3VMR2MA7", "dateTime": 1520619491426}, {"current_trial": 149, "trialdata": {"rt": -1, "trial_type": "single-stim", "word": "napkin", "stimulus": "<p id=\"stim\">NAPKIN</p>", "conditions": [24, 800, "v", 12000], "internal_node_id": "0.0-104.0", "trial": 4, "time_elapsed": 870982, "serialpos": 4, "key_press": -1, "wordID": 936, "type": "PRES_VIS", "trial_index": 149}, "uniqueid": "MTK3494:39K0FND3AIMXKVQ1Q5JVJY3VMR2MA7", "dateTime": 1520619493134}, {"current_trial": 150, "trialdata": {"rt": -1, "trial_type": "single-stim", "word": "pastry", "stimulus": "<p id=\"stim\">PASTRY</p>", "conditions": [24, 800, "v", 12000], "internal_node_id": "0.0-105.0", "trial": 4, "time_elapsed": 872934, "serialpos": 5, "key_press": -1, "wordID": 1021, "type": "PRES_VIS", "trial_index": 150}, "uniqueid": "MTK3494:39K0FND3AIMXKVQ1Q5JVJY3VMR2MA7", "dateTime": 1520619495087}, {"current_trial": 151, "trialdata": {"rt": -1, "trial_type": "single-stim", "word": "gift", "stimulus": "<p id=\"stim\">GIFT</p>", "conditions": [24, 800, "v", 12000], "internal_node_id": "0.0-106.0", "trial": 4, "time_elapsed": 874576, "serialpos": 6, "key_press": -1, "wordID": 634, "type": "PRES_VIS", "trial_index": 151}, "uniqueid": "MTK3494:39K0FND3AIMXKVQ1Q5JVJY3VMR2MA7", "dateTime": 1520619496728}, {"current_trial": 152, "trialdata": {"rt": -1, "trial_type": "single-stim", "word": "hiker", "stimulus": "<p id=\"stim\">HIKER</p>", "conditions": [24, 800, "v", 12000], "internal_node_id": "0.0-107.0", "trial": 4, "time_elapsed": 876232, "serialpos": 7, "key_press": -1, "wordID": 707, "type": "PRES_VIS", "trial_index": 152}, "uniqueid": "MTK3494:39K0FND3AIMXKVQ1Q5JVJY3VMR2MA7", "dateTime": 1520619498385}, {"current_trial": 153, "trialdata": {"rt": -1, "trial_type": "single-stim", "word": "peach", "stimulus": "<p id=\"stim\">PEACH</p>", "conditions": [24, 800, "v", 12000], "internal_node_id": "0.0-108.0", "trial": 4, "time_elapsed": 878029, "serialpos": 8, "key_press": -1, "wordID": 1030, "type": "PRES_VIS", "trial_index": 153}, "uniqueid": "MTK3494:39K0FND3AIMXKVQ1Q5JVJY3VMR2MA7", "dateTime": 1520619500181}, {"current_trial": 154, "trialdata": {"rt": -1, "trial_type": "single-stim", "word": "world", "stimulus": "<p id=\"stim\">WORLD</p>", "conditions": [24, 800, "v", 12000], "internal_node_id": "0.0-109.0", "trial": 4, "time_elapsed": 879933, "serialpos": 9, "key_press": -1, "wordID": 1621, "type": "PRES_VIS", "trial_index": 154}, "uniqueid": "MTK3494:39K0FND3AIMXKVQ1Q5JVJY3VMR2MA7", "dateTime": 1520619502085}, {"current_trial": 155, "trialdata": {"rt": -1, "trial_type": "single-stim", "word": "country", "stimulus": "<p id=\"stim\">COUNTRY</p>", "conditions": [24, 800, "v", 12000], "internal_node_id": "0.0-110.0", "trial": 4, "time_elapsed": 881836, "serialpos": 10, "key_press": -1, "wordID": 387, "type": "PRES_VIS", "trial_index": 155}, "uniqueid": "MTK3494:39K0FND3AIMXKVQ1Q5JVJY3VMR2MA7", "dateTime": 1520619503988}, {"current_trial": 156, "trialdata": {"rt": -1, "trial_type": "single-stim", "word": "transplant", "stimulus": "<p id=\"stim\">TRANSPLANT</p>", "conditions": [24, 800, "v", 12000], "internal_node_id": "0.0-111.0", "trial": 4, "time_elapsed": 883818, "serialpos": 11, "key_press": -1, "wordID": 1495, "type": "PRES_VIS", "trial_index": 156}, "uniqueid": "MTK3494:39K0FND3AIMXKVQ1Q5JVJY3VMR2MA7", "dateTime": 1520619505970}, {"current_trial": 157, "trialdata": {"rt": -1, "trial_type": "single-stim", "word": "plate", "stimulus": "<p id=\"stim\">PLATE</p>", "conditions": [24, 800, "v", 12000], "internal_node_id": "0.0-112.0", "trial": 4, "time_elapsed": 885620, "serialpos": 12, "key_press": -1, "wordID": 1085, "type": "PRES_VIS", "trial_index": 157}, "uniqueid": "MTK3494:39K0FND3AIMXKVQ1Q5JVJY3VMR2MA7", "dateTime": 1520619507772}, {"current_trial": 158, "trialdata": {"rt": -1, "trial_type": "single-stim", "word": "flag", "stimulus": "<p id=\"stim\">FLAG</p>", "conditions": [24, 800, "v", 12000], "internal_node_id": "0.0-113.0", "trial": 4, "time_elapsed": 887271, "serialpos": 13, "key_press": -1, "wordID": 572, "type": "PRES_VIS", "trial_index": 158}, "uniqueid": "MTK3494:39K0FND3AIMXKVQ1Q5JVJY3VMR2MA7", "dateTime": 1520619509423}, {"current_trial": 159, "trialdata": {"rt": -1, "trial_type": "single-stim", "word": "cross", "stimulus": "<p id=\"stim\">CROSS</p>", "conditions": [24, 800, "v", 12000], "internal_node_id": "0.0-114.0", "trial": 4, "time_elapsed": 889178, "serialpos": 14, "key_press": -1, "wordID": 412, "type": "PRES_VIS", "trial_index": 159}, "uniqueid": "MTK3494:39K0FND3AIMXKVQ1Q5JVJY3VMR2MA7", "dateTime": 1520619511331}, {"current_trial": 160, "trialdata": {"rt": -1, "trial_type": "single-stim", "word": "beef", "stimulus": "<p id=\"stim\">BEEF</p>", "conditions": [24, 800, "v", 12000], "internal_node_id": "0.0-115.0", "trial": 4, "time_elapsed": 890920, "serialpos": 15, "key_press": -1, "wordID": 112, "type": "PRES_VIS", "trial_index": 160}, "uniqueid": "MTK3494:39K0FND3AIMXKVQ1Q5JVJY3VMR2MA7", "dateTime": 1520619513072}, {"current_trial": 161, "trialdata": {"rt": -1, "trial_type": "single-stim", "word": "missile", "stimulus": "<p id=\"stim\">MISSILE</p>", "conditions": [24, 800, "v", 12000], "internal_node_id": "0.0-116.0", "trial": 4, "time_elapsed": 892772, "serialpos": 16, "key_press": -1, "wordID": 899, "type": "PRES_VIS", "trial_index": 161}, "uniqueid": "MTK3494:39K0FND3AIMXKVQ1Q5JVJY3VMR2MA7", "dateTime": 1520619514924}, {"current_trial": 162, "trialdata": {"rt": -1, "trial_type": "single-stim", "word": "monster", "stimulus": "<p id=\"stim\">MONSTER</p>", "conditions": [24, 800, "v", 12000], "internal_node_id": "0.0-117.0", "trial": 4, "time_elapsed": 894751, "serialpos": 17, "key_press": -1, "wordID": 911, "type": "PRES_VIS", "trial_index": 162}, "uniqueid": "MTK3494:39K0FND3AIMXKVQ1Q5JVJY3VMR2MA7", "dateTime": 1520619516903}, {"current_trial": 163, "trialdata": {"rt": -1, "trial_type": "single-stim", "word": "creature", "stimulus": "<p id=\"stim\">CREATURE</p>", "conditions": [24, 800, "v", 12000], "internal_node_id": "0.0-118.0", "trial": 4, "time_elapsed": 896737, "serialpos": 18, "key_press": -1, "wordID": 402, "type": "PRES_VIS", "trial_index": 163}, "uniqueid": "MTK3494:39K0FND3AIMXKVQ1Q5JVJY3VMR2MA7", "dateTime": 1520619518889}, {"current_trial": 164, "trialdata": {"rt": -1, "trial_type": "single-stim", "word": "liver", "stimulus": "<p id=\"stim\">LIVER</p>", "conditions": [24, 800, "v", 12000], "internal_node_id": "0.0-119.0", "trial": 4, "time_elapsed": 898418, "serialpos": 19, "key_press": -1, "wordID": 832, "type": "PRES_VIS", "trial_index": 164}, "uniqueid": "MTK3494:39K0FND3AIMXKVQ1Q5JVJY3VMR2MA7", "dateTime": 1520619520570}, {"current_trial": 165, "trialdata": {"rt": -1, "trial_type": "single-stim", "word": "brook", "stimulus": "<p id=\"stim\">BROOK</p>", "conditions": [24, 800, "v", 12000], "internal_node_id": "0.0-120.0", "trial": 4, "time_elapsed": 900334, "serialpos": 20, "key_press": -1, "wordID": 176, "type": "PRES_VIS", "trial_index": 165}, "uniqueid": "MTK3494:39K0FND3AIMXKVQ1Q5JVJY3VMR2MA7", "dateTime": 1520619522486}, {"current_trial": 166, "trialdata": {"rt": -1, "trial_type": "single-stim", "word": "cookbook", "stimulus": "<p id=\"stim\">COOKBOOK</p>", "conditions": [24, 800, "v", 12000], "internal_node_id": "0.0-121.0", "trial": 4, "time_elapsed": 902315, "serialpos": 21, "key_press": -1, "wordID": 372, "type": "PRES_VIS", "trial_index": 166}, "uniqueid": "MTK3494:39K0FND3AIMXKVQ1Q5JVJY3VMR2MA7", "dateTime": 1520619524467}, {"current_trial": 167, "trialdata": {"rt": -1, "trial_type": "single-stim", "word": "marrow", "stimulus": "<p id=\"stim\">MARROW</p>", "conditions": [24, 800, "v", 12000], "internal_node_id": "0.0-122.0", "trial": 4, "time_elapsed": 903959, "serialpos": 22, "key_press": -1, "wordID": 871, "type": "PRES_VIS", "trial_index": 167}, "uniqueid": "MTK3494:39K0FND3AIMXKVQ1Q5JVJY3VMR2MA7", "dateTime": 1520619526112}, {"current_trial": 168, "trialdata": {"rt": -1, "trial_type": "single-stim", "word": "mister", "stimulus": "<p id=\"stim\">MISTER</p>", "conditions": [24, 800, "v", 12000], "internal_node_id": "0.0-123.0", "trial": 4, "time_elapsed": 905618, "serialpos": 23, "key_press": -1, "wordID": 900, "type": "PRES_VIS", "trial_index": 168}, "uniqueid": "MTK3494:39K0FND3AIMXKVQ1Q5JVJY3VMR2MA7", "dateTime": 1520619527771}, {"current_trial": 169, "trialdata": {"rt": -1, "trial_type": "single-stim", "stimulus": "", "internal_node_id": "0.0-124.0-0.0", "time_elapsed": 908087, "key_press": -1, "type": "PRE_RECALL_DELAY", "trial_index": 169}, "uniqueid": "MTK3494:39K0FND3AIMXKVQ1Q5JVJY3VMR2MA7", "dateTime": 1520619530239}, {"current_trial": 170, "trialdata": {"rt": -1000, "trial_type": "single-audio", "stimulus": "/static/audio/400Hz.wav", "internal_node_id": "0.0-125.0", "time_elapsed": 908604, "key_press": -1, "type": "PRE_RECALL_ALERT", "trial_index": 170}, "uniqueid": "MTK3494:39K0FND3AIMXKVQ1Q5JVJY3VMR2MA7", "dateTime": 1520619530756}, {"current_trial": 171, "trialdata": {"rt": [4026, 6567, 8383, 11129, 15656, 19497, 26408, 29680, 31320, 32544, 34569], "recwords": ["mister", "cookbook", "monster", "creature", "marrow", "book", "motel", "beef", "country", "lover", "partner"], "key_times": [1618, 1882, 2399, 2864, 3040, 3216, 3384, 3529, 3769, 4026, 4425, 4536, 4703, 4977, 5560, 5705, 5873, 6033, 6567, 7097, 7241, 7440, 7561, 7761, 7921, 8088, 8383, 9200, 9417, 9599, 9761, 10025, 10208, 10377, 10674, 11129, 14625, 14816, 15064, 15183, 15311, 15472, 15656, 17697, 18033, 18232, 19184, 19497, 25449, 25593, 25840, 25991, 26168, 26408, 28954, 29161, 29320, 29528, 29680, 30072, 30175, 30344, 30537, 30649, 30848, 31033, 31320, 31824, 31993, 32110, 32248, 32368, 32544, 32992, 33128, 33281, 33480, 33696, 33872, 34289, 34569], "trial_type": "free-recall", "conditions": [24, 800, "v", 12000], "internal_node_id": "0.0-126.0-0.0", "key_presses": [16, 77, 8, 77, 73, 83, 84, 69, 82, 13, 67, 79, 79, 75, 66, 79, 79, 75, 13, 77, 79, 78, 83, 84, 69, 82, 13, 67, 82, 69, 65, 84, 85, 82, 69, 13, 77, 65, 82, 82, 79, 87, 13, 66, 79, 79, 75, 13, 77, 79, 84, 69, 76, 13, 66, 69, 69, 70, 13, 67, 79, 85, 78, 84, 82, 89, 13, 76, 79, 86, 69, 82, 13, 80, 65, 82, 84, 78, 69, 82, 13], "trial": 4, "time_elapsed": 968625, "type": "FREE_RECALL", "trial_index": 171}, "uniqueid": "MTK3494:39K0FND3AIMXKVQ1Q5JVJY3VMR2MA7", "dateTime": 1520619590781}, {"current_trial": 172, "trialdata": {"rt": 1665, "trial_type": "text", "internal_node_id": "0.0-127.0", "time_elapsed": 972319, "key_press": 13, "type": "INSTRUCTIONS", "trial_index": 172}, "uniqueid": "MTK3494:39K0FND3AIMXKVQ1Q5JVJY3VMR2MA7", "dateTime": 1520619594471}, {"current_trial": 173, "trialdata": {"rt": [3324, 6554, 9099, 11201, 15603, 19323, 21876], "trial_type": "math-distractor", "key_times": [2973, 3099, 3324, 6198, 6364, 6554, 8666, 8875, 9099, 10682, 11009, 11201, 15173, 15412, 15603, 18685, 19076, 19323, 21644, 21876, 23892], "responses": ["10", "11", "14", "13", "20", "17", "7"], "num2": [1, 2, 2, 9, 9, 6, 4, 7], "num3": [6, 7, 9, 3, 8, 4, 1, 2], "conditions": [24, 1600, "v", 24000], "internal_node_id": "0.0-128.0", "key_presses": [49, 48, 13, 49, 49, 13, 49, 52, 13, 49, 51, 13, 50, 48, 13, 49, 55, 13, 55, 13, 49], "trial": 5, "time_elapsed": 998354, "type": "DISTRACTOR", "trial_index": 173, "num1": [3, 2, 3, 1, 3, 7, 2, 4]}, "uniqueid": "MTK3494:39K0FND3AIMXKVQ1Q5JVJY3VMR2MA7", "dateTime": 1520619620506}, {"current_trial": 174, "trialdata": {"rt": -1, "trial_type": "single-stim", "stimulus": "<p id=\"stim\">10</p>", "internal_node_id": "0.0-129.0-0.0", "time_elapsed": 1001372, "key_press": -1, "trial_index": 174}, "uniqueid": "MTK3494:39K0FND3AIMXKVQ1Q5JVJY3VMR2MA7", "dateTime": 1520619623524}, {"current_trial": 175, "trialdata": {"rt": -1, "trial_type": "single-stim", "stimulus": "<p id=\"stim\">9</p>", "internal_node_id": "0.0-129.0-1.0", "time_elapsed": 1002369, "key_press": -1, "trial_index": 175}, "uniqueid": "MTK3494:39K0FND3AIMXKVQ1Q5JVJY3VMR2MA7", "dateTime": 1520619624522}, {"current_trial": 176, "trialdata": {"rt": -1, "trial_type": "single-stim", "stimulus": "<p id=\"stim\">8</p>", "internal_node_id": "0.0-129.0-2.0", "time_elapsed": 1003382, "key_press": -1, "trial_index": 176}, "uniqueid": "MTK3494:39K0FND3AIMXKVQ1Q5JVJY3VMR2MA7", "dateTime": 1520619625534}, {"current_trial": 177, "trialdata": {"rt": -1, "trial_type": "single-stim", "stimulus": "<p id=\"stim\">7</p>", "internal_node_id": "0.0-129.0-3.0", "time_elapsed": 1004379, "key_press": -1, "trial_index": 177}, "uniqueid": "MTK3494:39K0FND3AIMXKVQ1Q5JVJY3VMR2MA7", "dateTime": 1520619626532}, {"current_trial": 178, "trialdata": {"rt": -1, "trial_type": "single-stim", "stimulus": "<p id=\"stim\">6</p>", "internal_node_id": "0.0-129.0-4.0", "time_elapsed": 1005376, "key_press": -1, "trial_index": 178}, "uniqueid": "MTK3494:39K0FND3AIMXKVQ1Q5JVJY3VMR2MA7", "dateTime": 1520619627528}, {"current_trial": 179, "trialdata": {"rt": -1, "trial_type": "single-stim", "stimulus": "<p id=\"stim\">5</p>", "internal_node_id": "0.0-129.0-5.0", "time_elapsed": 1006374, "key_press": -1, "trial_index": 179}, "uniqueid": "MTK3494:39K0FND3AIMXKVQ1Q5JVJY3VMR2MA7", "dateTime": 1520619628526}, {"current_trial": 180, "trialdata": {"rt": -1, "trial_type": "single-stim", "stimulus": "<p id=\"stim\">4</p>", "internal_node_id": "0.0-129.0-6.0", "time_elapsed": 1007387, "key_press": -1, "trial_index": 180}, "uniqueid": "MTK3494:39K0FND3AIMXKVQ1Q5JVJY3VMR2MA7", "dateTime": 1520619629539}, {"current_trial": 181, "trialdata": {"rt": -1, "trial_type": "single-stim", "stimulus": "<p id=\"stim\">3</p>", "internal_node_id": "0.0-129.0-7.0", "time_elapsed": 1008387, "key_press": -1, "trial_index": 181}, "uniqueid": "MTK3494:39K0FND3AIMXKVQ1Q5JVJY3VMR2MA7", "dateTime": 1520619630539}, {"current_trial": 182, "trialdata": {"rt": -1, "trial_type": "single-stim", "stimulus": "<p id=\"stim\">2</p>", "internal_node_id": "0.0-129.0-8.0", "time_elapsed": 1009370, "key_press": -1, "trial_index": 182}, "uniqueid": "MTK3494:39K0FND3AIMXKVQ1Q5JVJY3VMR2MA7", "dateTime": 1520619631522}, {"current_trial": 183, "trialdata": {"rt": -1, "trial_type": "single-stim", "stimulus": "<p id=\"stim\">1</p>", "internal_node_id": "0.0-129.0-9.0", "time_elapsed": 1010383, "key_press": -1, "trial_index": 183}, "uniqueid": "MTK3494:39K0FND3AIMXKVQ1Q5JVJY3VMR2MA7", "dateTime": 1520619632535}, {"current_trial": 184, "trialdata": {"rt": -1, "trial_type": "single-stim", "stimulus": "<p id=\"stim\">+</p>", "internal_node_id": "0.0-130.0-0.0", "time_elapsed": 1011900, "key_press": -1, "type": "FIXATION", "trial_index": 184}, "uniqueid": "MTK3494:39K0FND3AIMXKVQ1Q5JVJY3VMR2MA7", "dateTime": 1520619634052}, {"current_trial": 185, "trialdata": {"rt": -1, "trial_type": "single-stim", "word": "nightgown", "stimulus": "<p id=\"stim\">NIGHTGOWN</p>", "conditions": [24, 1600, "v", 24000], "internal_node_id": "0.0-131.0", "trial": 5, "time_elapsed": 1013523, "serialpos": 0, "key_press": -1, "wordID": 952, "type": "PRES_VIS", "trial_index": 185}, "uniqueid": "MTK3494:39K0FND3AIMXKVQ1Q5JVJY3VMR2MA7", "dateTime": 1520619635675}, {"current_trial": 186, "trialdata": {"rt": -1, "trial_type": "single-stim", "word": "picnic", "stimulus": "<p id=\"stim\">PICNIC</p>", "conditions": [24, 1600, "v", 24000], "internal_node_id": "0.0-132.0", "trial": 5, "time_elapsed": 1016132, "serialpos": 1, "key_press": -1, "wordID": 1059, "type": "PRES_VIS", "trial_index": 186}, "uniqueid": "MTK3494:39K0FND3AIMXKVQ1Q5JVJY3VMR2MA7", "dateTime": 1520619638284}, {"current_trial": 187, "trialdata": {"rt": -1, "trial_type": "single-stim", "word": "tortoise", "stimulus": "<p id=\"stim\">TORTOISE</p>", "conditions": [24, 1600, "v", 24000], "internal_node_id": "0.0-133.0", "trial": 5, "time_elapsed": 1018589, "serialpos": 2, "key_press": -1, "wordID": 1485, "type": "PRES_VIS", "trial_index": 187}, "uniqueid": "MTK3494:39K0FND3AIMXKVQ1Q5JVJY3VMR2MA7", "dateTime": 1520619640741}, {"current_trial": 188, "trialdata": {"rt": -1, "trial_type": "single-stim", "word": "sandwich", "stimulus": "<p id=\"stim\">SANDWICH</p>", "conditions": [24, 1600, "v", 24000], "internal_node_id": "0.0-134.0", "trial": 5, "time_elapsed": 1021412, "serialpos": 3, "key_press": -1, "wordID": 1231, "type": "PRES_VIS", "trial_index": 188}, "uniqueid": "MTK3494:39K0FND3AIMXKVQ1Q5JVJY3VMR2MA7", "dateTime": 1520619643564}, {"current_trial": 189, "trialdata": {"rt": -1, "trial_type": "single-stim", "word": "tombstone", "stimulus": "<p id=\"stim\">TOMBSTONE</p>", "conditions": [24, 1600, "v", 24000], "internal_node_id": "0.0-135.0", "trial": 5, "time_elapsed": 1024172, "serialpos": 4, "key_press": -1, "wordID": 1477, "type": "PRES_VIS", "trial_index": 189}, "uniqueid": "MTK3494:39K0FND3AIMXKVQ1Q5JVJY3VMR2MA7", "dateTime": 1520619646324}, {"current_trial": 190, "trialdata": {"rt": -1, "trial_type": "single-stim", "word": "omelet", "stimulus": "<p id=\"stim\">OMELET</p>", "conditions": [24, 1600, "v", 24000], "internal_node_id": "0.0-136.0", "trial": 5, "time_elapsed": 1026737, "serialpos": 5, "key_press": -1, "wordID": 975, "type": "PRES_VIS", "trial_index": 190}, "uniqueid": "MTK3494:39K0FND3AIMXKVQ1Q5JVJY3VMR2MA7", "dateTime": 1520619648889}, {"current_trial": 191, "trialdata": {"rt": -1, "trial_type": "single-stim", "word": "hornet", "stimulus": "<p id=\"stim\">HORNET</p>", "conditions": [24, 1600, "v", 24000], "internal_node_id": "0.0-137.0", "trial": 5, "time_elapsed": 1029442, "serialpos": 6, "key_press": -1, "wordID": 717, "type": "PRES_VIS", "trial_index": 191}, "uniqueid": "MTK3494:39K0FND3AIMXKVQ1Q5JVJY3VMR2MA7", "dateTime": 1520619651594}, {"current_trial": 192, "trialdata": {"rt": -1, "trial_type": "single-stim", "word": "salad", "stimulus": "<p id=\"stim\">SALAD</p>", "conditions": [24, 1600, "v", 24000], "internal_node_id": "0.0-138.0", "trial": 5, "time_elapsed": 1032110, "serialpos": 7, "key_press": -1, "wordID": 1223, "type": "PRES_VIS", "trial_index": 192}, "uniqueid": "MTK3494:39K0FND3AIMXKVQ1Q5JVJY3VMR2MA7", "dateTime": 1520619654262}, {"current_trial": 193, "trialdata": {"rt": -1, "trial_type": "single-stim", "word": "patient", "stimulus": "<p id=\"stim\">PATIENT</p>", "conditions": [24, 1600, "v", 24000], "internal_node_id": "0.0-139.0", "trial": 5, "time_elapsed": 1034732, "serialpos": 8, "key_press": -1, "wordID": 1023, "type": "PRES_VIS", "trial_index": 193}, "uniqueid": "MTK3494:39K0FND3AIMXKVQ1Q5JVJY3VMR2MA7", "dateTime": 1520619656885}, {"current_trial": 194, "trialdata": {"rt": -1, "trial_type": "single-stim", "word": "helmet", "stimulus": "<p id=\"stim\">HELMET</p>", "conditions": [24, 1600, "v", 24000], "internal_node_id": "0.0-140.0", "trial": 5, "time_elapsed": 1037219, "serialpos": 9, "key_press": -1, "wordID": 701, "type": "PRES_VIS", "trial_index": 194}, "uniqueid": "MTK3494:39K0FND3AIMXKVQ1Q5JVJY3VMR2MA7", "dateTime": 1520619659371}, {"current_trial": 195, "trialdata": {"rt": -1, "trial_type": "single-stim", "word": "cashier", "stimulus": "<p id=\"stim\">CASHIER</p>", "conditions": [24, 1600, "v", 24000], "internal_node_id": "0.0-141.0", "trial": 5, "time_elapsed": 1039937, "serialpos": 10, "key_press": -1, "wordID": 253, "type": "PRES_VIS", "trial_index": 195}, "uniqueid": "MTK3494:39K0FND3AIMXKVQ1Q5JVJY3VMR2MA7", "dateTime": 1520619662089}, {"current_trial": 196, "trialdata": {"rt": -1, "trial_type": "single-stim", "word": "robber", "stimulus": "<p id=\"stim\">ROBBER</p>", "conditions": [24, 1600, "v", 24000], "internal_node_id": "0.0-142.0", "trial": 5, "time_elapsed": 1042406, "serialpos": 11, "key_press": -1, "wordID": 1196, "type": "PRES_VIS", "trial_index": 196}, "uniqueid": "MTK3494:39K0FND3AIMXKVQ1Q5JVJY3VMR2MA7", "dateTime": 1520619664558}, {"current_trial": 197, "trialdata": {"rt": -1, "trial_type": "single-stim", "word": "bug", "stimulus": "<p id=\"stim\">BUG</p>", "conditions": [24, 1600, "v", 24000], "internal_node_id": "0.0-143.0", "trial": 5, "time_elapsed": 1045197, "serialpos": 12, "key_press": -1, "wordID": 186, "type": "PRES_VIS", "trial_index": 197}, "uniqueid": "MTK3494:39K0FND3AIMXKVQ1Q5JVJY3VMR2MA7", "dateTime": 1520619667350}, {"current_trial": 198, "trialdata": {"rt": -1, "trial_type": "single-stim", "word": "snack", "stimulus": "<p id=\"stim\">SNACK</p>", "conditions": [24, 1600, "v", 24000], "internal_node_id": "0.0-144.0", "trial": 5, "time_elapsed": 1047806, "serialpos": 13, "key_press": -1, "wordID": 1330, "type": "PRES_VIS", "trial_index": 198}, "uniqueid": "MTK3494:39K0FND3AIMXKVQ1Q5JVJY3VMR2MA7", "dateTime": 1520619669958}, {"current_trial": 199, "trialdata": {"rt": -1, "trial_type": "single-stim", "word": "smog", "stimulus": "<p id=\"stim\">SMOG</p>", "conditions": [24, 1600, "v", 24000], "internal_node_id": "0.0-145.0", "trial": 5, "time_elapsed": 1050521, "serialpos": 14, "key_press": -1, "wordID": 1329, "type": "PRES_VIS", "trial_index": 199}, "uniqueid": "MTK3494:39K0FND3AIMXKVQ1Q5JVJY3VMR2MA7", "dateTime": 1520619672673}, {"current_trial": 200, "trialdata": {"rt": -1, "trial_type": "single-stim", "word": "virus", "stimulus": "<p id=\"stim\">VIRUS</p>", "conditions": [24, 1600, "v", 24000], "internal_node_id": "0.0-146.0", "trial": 5, "time_elapsed": 1053242, "serialpos": 15, "key_press": -1, "wordID": 1571, "type": "PRES_VIS", "trial_index": 200}, "uniqueid": "MTK3494:39K0FND3AIMXKVQ1Q5JVJY3VMR2MA7", "dateTime": 1520619675394}, {"current_trial": 201, "trialdata": {"rt": -1, "trial_type": "single-stim", "word": "termite", "stimulus": "<p id=\"stim\">TERMITE</p>", "conditions": [24, 1600, "v", 24000], "internal_node_id": "0.0-147.0", "trial": 5, "time_elapsed": 1055884, "serialpos": 16, "key_press": -1, "wordID": 1450, "type": "PRES_VIS", "trial_index": 201}, "uniqueid": "MTK3494:39K0FND3AIMXKVQ1Q5JVJY3VMR2MA7", "dateTime": 1520619678036}, {"current_trial": 202, "trialdata": {"rt": -1, "trial_type": "single-stim", "word": "star", "stimulus": "<p id=\"stim\">STAR</p>", "conditions": [24, 1600, "v", 24000], "internal_node_id": "0.0-148.0", "trial": 5, "time_elapsed": 1058314, "serialpos": 17, "key_press": -1, "wordID": 1372, "type": "PRES_VIS", "trial_index": 202}, "uniqueid": "MTK3494:39K0FND3AIMXKVQ1Q5JVJY3VMR2MA7", "dateTime": 1520619680466}, {"current_trial": 203, "trialdata": {"rt": -1, "trial_type": "single-stim", "word": "suitcase", "stimulus": "<p id=\"stim\">SUITCASE</p>", "conditions": [24, 1600, "v", 24000], "internal_node_id": "0.0-149.0", "trial": 5, "time_elapsed": 1061137, "serialpos": 18, "key_press": -1, "wordID": 1402, "type": "PRES_VIS", "trial_index": 203}, "uniqueid": "MTK3494:39K0FND3AIMXKVQ1Q5JVJY3VMR2MA7", "dateTime": 1520619683289}, {"current_trial": 204, "trialdata": {"rt": -1, "trial_type": "single-stim", "word": "seagull", "stimulus": "<p id=\"stim\">SEAGULL</p>", "conditions": [24, 1600, "v", 24000], "internal_node_id": "0.0-150.0", "trial": 5, "time_elapsed": 1063962, "serialpos": 19, "key_press": -1, "wordID": 1260, "type": "PRES_VIS", "trial_index": 204}, "uniqueid": "MTK3494:39K0FND3AIMXKVQ1Q5JVJY3VMR2MA7", "dateTime": 1520619686115}, {"current_trial": 205, "trialdata": {"rt": -1, "trial_type": "single-stim", "word": "ozone", "stimulus": "<p id=\"stim\">OZONE</p>", "conditions": [24, 1600, "v", 24000], "internal_node_id": "0.0-151.0", "trial": 5, "time_elapsed": 1066540, "serialpos": 20, "key_press": -1, "wordID": 995, "type": "PRES_VIS", "trial_index": 205}, "uniqueid": "MTK3494:39K0FND3AIMXKVQ1Q5JVJY3VMR2MA7", "dateTime": 1520619688692}, {"current_trial": 206, "trialdata": {"rt": -1, "trial_type": "single-stim", "word": "wrist", "stimulus": "<p id=\"stim\">WRIST</p>", "conditions": [24, 1600, "v", 24000], "internal_node_id": "0.0-152.0", "trial": 5, "time_elapsed": 1069085, "serialpos": 21, "key_press": -1, "wordID": 1625, "type": "PRES_VIS", "trial_index": 206}, "uniqueid": "MTK3494:39K0FND3AIMXKVQ1Q5JVJY3VMR2MA7", "dateTime": 1520619691237}, {"current_trial": 207, "trialdata": {"rt": -1, "trial_type": "single-stim", "word": "shoulder", "stimulus": "<p id=\"stim\">SHOULDER</p>", "conditions": [24, 1600, "v", 24000], "internal_node_id": "0.0-153.0", "trial": 5, "time_elapsed": 1071815, "serialpos": 22, "key_press": -1, "wordID": 1293, "type": "PRES_VIS", "trial_index": 207}, "uniqueid": "MTK3494:39K0FND3AIMXKVQ1Q5JVJY3VMR2MA7", "dateTime": 1520619693967}, {"current_trial": 208, "trialdata": {"rt": -1, "trial_type": "single-stim", "word": "parrot", "stimulus": "<p id=\"stim\">PARROT</p>", "conditions": [24, 1600, "v", 24000], "internal_node_id": "0.0-154.0", "trial": 5, "time_elapsed": 1074563, "serialpos": 23, "key_press": -1, "wordID": 1014, "type": "PRES_VIS", "trial_index": 208}, "uniqueid": "MTK3494:39K0FND3AIMXKVQ1Q5JVJY3VMR2MA7", "dateTime": 1520619696715}, {"current_trial": 209, "trialdata": {"rt": -1, "trial_type": "single-stim", "stimulus": "", "internal_node_id": "0.0-155.0-0.0", "time_elapsed": 1077145, "key_press": -1, "type": "PRE_RECALL_DELAY", "trial_index": 209}, "uniqueid": "MTK3494:39K0FND3AIMXKVQ1Q5JVJY3VMR2MA7", "dateTime": 1520619699297}, {"current_trial": 210, "trialdata": {"rt": -1000, "trial_type": "single-audio", "stimulus": "/static/audio/400Hz.wav", "internal_node_id": "0.0-156.0", "time_elapsed": 1077653, "key_press": -1, "type": "PRE_RECALL_ALERT", "trial_index": 210}, "uniqueid": "MTK3494:39K0FND3AIMXKVQ1Q5JVJY3VMR2MA7", "dateTime": 1520619699806}, {"current_trial": 211, "trialdata": {"rt": [2542, 3958, 5853, 7877, 12077, 13950, 29021, 36700], "recwords": ["parrot", "ozone", "termite", "star", "robber", "cashier", "patient", "virus"], "key_times": [1118, 1325, 1653, 1796, 1935, 2134, 2542, 3039, 3206, 3357, 3558, 3757, 3958, 4469, 4614, 4782, 5054, 5270, 5493, 5637, 5853, 7157, 7334, 7486, 7637, 7877, 10998, 11101, 11348, 11509, 11710, 11909, 12077, 12461, 12629, 12821, 12997, 13446, 13607, 13797, 13950, 27302, 27493, 27703, 28230, 28381, 28557, 28765, 29021, 35952, 36086, 36237, 36366, 36503, 36700], "trial_type": "free-recall", "conditions": [24, 1600, "v", 24000], "internal_node_id": "0.0-157.0-0.0", "key_presses": [80, 65, 82, 82, 79, 84, 13, 79, 90, 79, 78, 69, 13, 84, 69, 82, 77, 73, 84, 69, 13, 83, 84, 65, 82, 13, 82, 79, 66, 66, 69, 82, 13, 67, 65, 83, 72, 73, 69, 82, 13, 80, 65, 84, 73, 69, 78, 84, 13, 86, 73, 82, 85, 83, 13], "trial": 5, "time_elapsed": 1137671, "type": "FREE_RECALL", "trial_index": 211}, "uniqueid": "MTK3494:39K0FND3AIMXKVQ1Q5JVJY3VMR2MA7", "dateTime": 1520619759827}, {"current_trial": 212, "trialdata": {"rt": 1819, "trial_type": "text", "internal_node_id": "0.0-158.0", "time_elapsed": 1141503, "key_press": 13, "type": "INSTRUCTIONS", "trial_index": 212}, "uniqueid": "MTK3494:39K0FND3AIMXKVQ1Q5JVJY3VMR2MA7", "dateTime": 1520619763655}, {"current_trial": 213, "trialdata": {"rt": [4499, 6851, 9715], "trial_type": "math-distractor", "key_times": [3412, 3603, 4499, 6283, 6635, 6851, 9221, 9492, 9715], "responses": ["13", "15", "16"], "num2": [1, 3, 3, 5], "num3": [8, 9, 7, 4], "conditions": [12, 1600, "v", 12000], "internal_node_id": "0.0-159.0", "key_presses": [49, 51, 13, 49, 53, 13, 49, 54, 13], "trial": 6, "time_elapsed": 1155535, "type": "DISTRACTOR", "trial_index": 213, "num1": [4, 3, 6, 8]}, "uniqueid": "MTK3494:39K0FND3AIMXKVQ1Q5JVJY3VMR2MA7", "dateTime": 1520619777687}, {"current_trial": 214, "trialdata": {"rt": -1, "trial_type": "single-stim", "stimulus": "<p id=\"stim\">10</p>", "internal_node_id": "0.0-160.0-0.0", "time_elapsed": 1158559, "key_press": -1, "trial_index": 214}, "uniqueid": "MTK3494:39K0FND3AIMXKVQ1Q5JVJY3VMR2MA7", "dateTime": 1520619780711}, {"current_trial": 215, "trialdata": {"rt": -1, "trial_type": "single-stim", "stimulus": "<p id=\"stim\">9</p>", "internal_node_id": "0.0-160.0-1.0", "time_elapsed": 1159557, "key_press": -1, "trial_index": 215}, "uniqueid": "MTK3494:39K0FND3AIMXKVQ1Q5JVJY3VMR2MA7", "dateTime": 1520619781709}, {"current_trial": 216, "trialdata": {"rt": -1, "trial_type": "single-stim", "stimulus": "<p id=\"stim\">8</p>", "internal_node_id": "0.0-160.0-2.0", "time_elapsed": 1160571, "key_press": -1, "trial_index": 216}, "uniqueid": "MTK3494:39K0FND3AIMXKVQ1Q5JVJY3VMR2MA7", "dateTime": 1520619782724}, {"current_trial": 217, "trialdata": {"rt": -1, "trial_type": "single-stim", "stimulus": "<p id=\"stim\">7</p>", "internal_node_id": "0.0-160.0-3.0", "time_elapsed": 1161566, "key_press": -1, "trial_index": 217}, "uniqueid": "MTK3494:39K0FND3AIMXKVQ1Q5JVJY3VMR2MA7", "dateTime": 1520619783718}, {"current_trial": 218, "trialdata": {"rt": -1, "trial_type": "single-stim", "stimulus": "<p id=\"stim\">6</p>", "internal_node_id": "0.0-160.0-4.0", "time_elapsed": 1162579, "key_press": -1, "trial_index": 218}, "uniqueid": "MTK3494:39K0FND3AIMXKVQ1Q5JVJY3VMR2MA7", "dateTime": 1520619784732}, {"current_trial": 219, "trialdata": {"rt": -1, "trial_type": "single-stim", "stimulus": "<p id=\"stim\">5</p>", "internal_node_id": "0.0-160.0-5.0", "time_elapsed": 1163579, "key_press": -1, "trial_index": 219}, "uniqueid": "MTK3494:39K0FND3AIMXKVQ1Q5JVJY3VMR2MA7", "dateTime": 1520619785731}, {"current_trial": 220, "trialdata": {"rt": -1, "trial_type": "single-stim", "stimulus": "<p id=\"stim\">4</p>", "internal_node_id": "0.0-160.0-6.0", "time_elapsed": 1164576, "key_press": -1, "trial_index": 220}, "uniqueid": "MTK3494:39K0FND3AIMXKVQ1Q5JVJY3VMR2MA7", "dateTime": 1520619786729}, {"current_trial": 221, "trialdata": {"rt": -1, "trial_type": "single-stim", "stimulus": "<p id=\"stim\">3</p>", "internal_node_id": "0.0-160.0-7.0", "time_elapsed": 1165573, "key_press": -1, "trial_index": 221}, "uniqueid": "MTK3494:39K0FND3AIMXKVQ1Q5JVJY3VMR2MA7", "dateTime": 1520619787725}, {"current_trial": 222, "trialdata": {"rt": -1, "trial_type": "single-stim", "stimulus": "<p id=\"stim\">2</p>", "internal_node_id": "0.0-160.0-8.0", "time_elapsed": 1166571, "key_press": -1, "trial_index": 222}, "uniqueid": "MTK3494:39K0FND3AIMXKVQ1Q5JVJY3VMR2MA7", "dateTime": 1520619788723}, {"current_trial": 223, "trialdata": {"rt": -1, "trial_type": "single-stim", "stimulus": "<p id=\"stim\">1</p>", "internal_node_id": "0.0-160.0-9.0", "time_elapsed": 1167564, "key_press": -1, "trial_index": 223}, "uniqueid": "MTK3494:39K0FND3AIMXKVQ1Q5JVJY3VMR2MA7", "dateTime": 1520619789716}, {"current_trial": 224, "trialdata": {"rt": -1, "trial_type": "single-stim", "stimulus": "<p id=\"stim\">+</p>", "internal_node_id": "0.0-161.0-0.0", "time_elapsed": 1169087, "key_press": -1, "type": "FIXATION", "trial_index": 224}, "uniqueid": "MTK3494:39K0FND3AIMXKVQ1Q5JVJY3VMR2MA7", "dateTime": 1520619791239}, {"current_trial": 225, "trialdata": {"rt": -1, "trial_type": "single-stim", "word": "summit", "stimulus": "<p id=\"stim\">SUMMIT</p>", "conditions": [12, 1600, "v", 12000], "internal_node_id": "0.0-162.0", "trial": 6, "time_elapsed": 1170697, "serialpos": 0, "key_press": -1, "wordID": 1404, "type": "PRES_VIS", "trial_index": 225}, "uniqueid": "MTK3494:39K0FND3AIMXKVQ1Q5JVJY3VMR2MA7", "dateTime": 1520619792849}, {"current_trial": 226, "trialdata": {"rt": -1, "trial_type": "single-stim", "word": "teacher", "stimulus": "<p id=\"stim\">TEACHER</p>", "conditions": [12, 1600, "v", 12000], "internal_node_id": "0.0-163.0", "trial": 6, "time_elapsed": 1173195, "serialpos": 1, "key_press": -1, "wordID": 1439, "type": "PRES_VIS", "trial_index": 226}, "uniqueid": "MTK3494:39K0FND3AIMXKVQ1Q5JVJY3VMR2MA7", "dateTime": 1520619795347}, {"current_trial": 227, "trialdata": {"rt": -1, "trial_type": "single-stim", "word": "candy", "stimulus": "<p id=\"stim\">CANDY</p>", "conditions": [12, 1600, "v", 12000], "internal_node_id": "0.0-164.0", "trial": 6, "time_elapsed": 1175760, "serialpos": 2, "key_press": -1, "wordID": 229, "type": "PRES_VIS", "trial_index": 227}, "uniqueid": "MTK3494:39K0FND3AIMXKVQ1Q5JVJY3VMR2MA7", "dateTime": 1520619797913}, {"current_trial": 228, "trialdata": {"rt": -1, "trial_type": "single-stim", "word": "bucket", "stimulus": "<p id=\"stim\">BUCKET</p>", "conditions": [12, 1600, "v", 12000], "internal_node_id": "0.0-165.0", "trial": 6, "time_elapsed": 1178220, "serialpos": 3, "key_press": -1, "wordID": 183, "type": "PRES_VIS", "trial_index": 228}, "uniqueid": "MTK3494:39K0FND3AIMXKVQ1Q5JVJY3VMR2MA7", "dateTime": 1520619800372}, {"current_trial": 229, "trialdata": {"rt": -1, "trial_type": "single-stim", "word": "breast", "stimulus": "<p id=\"stim\">BREAST</p>", "conditions": [12, 1600, "v", 12000], "internal_node_id": "0.0-166.0", "trial": 6, "time_elapsed": 1180982, "serialpos": 4, "key_press": -1, "wordID": 170, "type": "PRES_VIS", "trial_index": 229}, "uniqueid": "MTK3494:39K0FND3AIMXKVQ1Q5JVJY3VMR2MA7", "dateTime": 1520619803134}, {"current_trial": 230, "trialdata": {"rt": -1, "trial_type": "single-stim", "word": "survey", "stimulus": "<p id=\"stim\">SURVEY</p>", "conditions": [12, 1600, "v", 12000], "internal_node_id": "0.0-167.0", "trial": 6, "time_elapsed": 1183455, "serialpos": 5, "key_press": -1, "wordID": 1413, "type": "PRES_VIS", "trial_index": 230}, "uniqueid": "MTK3494:39K0FND3AIMXKVQ1Q5JVJY3VMR2MA7", "dateTime": 1520619805608}, {"current_trial": 231, "trialdata": {"rt": -1, "trial_type": "single-stim", "word": "student", "stimulus": "<p id=\"stim\">STUDENT</p>", "conditions": [12, 1600, "v", 12000], "internal_node_id": "0.0-168.0", "trial": 6, "time_elapsed": 1185912, "serialpos": 6, "key_press": -1, "wordID": 1394, "type": "PRES_VIS", "trial_index": 231}, "uniqueid": "MTK3494:39K0FND3AIMXKVQ1Q5JVJY3VMR2MA7", "dateTime": 1520619808065}, {"current_trial": 232, "trialdata": {"rt": -1, "trial_type": "single-stim", "word": "hero", "stimulus": "<p id=\"stim\">HERO</p>", "conditions": [12, 1600, "v", 12000], "internal_node_id": "0.0-169.0", "trial": 6, "time_elapsed": 1188662, "serialpos": 7, "key_press": -1, "wordID": 705, "type": "PRES_VIS", "trial_index": 232}, "uniqueid": "MTK3494:39K0FND3AIMXKVQ1Q5JVJY3VMR2MA7", "dateTime": 1520619810814}, {"current_trial": 233, "trialdata": {"rt": -1, "trial_type": "single-stim", "word": "whiskers", "stimulus": "<p id=\"stim\">WHISKERS</p>", "conditions": [12, 1600, "v", 12000], "internal_node_id": "0.0-170.0", "trial": 6, "time_elapsed": 1191100, "serialpos": 8, "key_press": -1, "wordID": 1604, "type": "PRES_VIS", "trial_index": 233}, "uniqueid": "MTK3494:39K0FND3AIMXKVQ1Q5JVJY3VMR2MA7", "dateTime": 1520619813253}, {"current_trial": 234, "trialdata": {"rt": -1, "trial_type": "single-stim", "word": "fragrance", "stimulus": "<p id=\"stim\">FRAGRANCE</p>", "conditions": [12, 1600, "v", 12000], "internal_node_id": "0.0-171.0", "trial": 6, "time_elapsed": 1193711, "serialpos": 9, "key_press": -1, "wordID": 598, "type": "PRES_VIS", "trial_index": 234}, "uniqueid": "MTK3494:39K0FND3AIMXKVQ1Q5JVJY3VMR2MA7", "dateTime": 1520619815864}, {"current_trial": 235, "trialdata": {"rt": -1, "trial_type": "single-stim", "word": "perfume", "stimulus": "<p id=\"stim\">PERFUME</p>", "conditions": [12, 1600, "v", 12000], "internal_node_id": "0.0-172.0", "trial": 6, "time_elapsed": 1196398, "serialpos": 10, "key_press": -1, "wordID": 1048, "type": "PRES_VIS", "trial_index": 235}, "uniqueid": "MTK3494:39K0FND3AIMXKVQ1Q5JVJY3VMR2MA7", "dateTime": 1520619818550}, {"current_trial": 236, "trialdata": {"rt": -1, "trial_type": "single-stim", "word": "film", "stimulus": "<p id=\"stim\">FILM</p>", "conditions": [12, 1600, "v", 12000], "internal_node_id": "0.0-173.0", "trial": 6, "time_elapsed": 1199164, "serialpos": 11, "key_press": -1, "wordID": 564, "type": "PRES_VIS", "trial_index": 236}, "uniqueid": "MTK3494:39K0FND3AIMXKVQ1Q5JVJY3VMR2MA7", "dateTime": 1520619821316}, {"current_trial": 237, "trialdata": {"rt": -1, "trial_type": "single-stim", "stimulus": "", "internal_node_id": "0.0-174.0-0.0", "time_elapsed": 1201301, "key_press": -1, "type": "PRE_RECALL_DELAY", "trial_index": 237}, "uniqueid": "MTK3494:39K0FND3AIMXKVQ1Q5JVJY3VMR2MA7", "dateTime": 1520619823453}, {"current_trial": 238, "trialdata": {"rt": -1000, "trial_type": "single-audio", "stimulus": "/static/audio/400Hz.wav", "internal_node_id": "0.0-175.0", "time_elapsed": 1201823, "key_press": -1, "type": "PRE_RECALL_ALERT", "trial_index": 238}, "uniqueid": "MTK3494:39K0FND3AIMXKVQ1Q5JVJY3VMR2MA7", "dateTime": 1520619823975}, {"current_trial": 239, "trialdata": {"rt": [2275, 4115, 6276, 8364, 10651, 30435], "recwords": ["film", "perfume", "fragrance", "student", "breast", "summit"], "key_times": [1406, 1477, 1692, 1884, 2275, 2748, 2867, 3013, 3236, 3356, 3571, 3867, 4115, 4434, 4603, 4795, 4988, 5204, 5404, 5604, 5924, 6100, 6276, 6580, 6733, 6870, 7053, 7510, 7732, 7876, 7996, 8131, 8364, 9364, 9653, 9812, 9963, 10204, 10396, 10651, 29038, 29212, 29477, 29644, 29812, 29956, 30435], "trial_type": "free-recall", "conditions": [12, 1600, "v", 12000], "internal_node_id": "0.0-176.0-0.0", "key_presses": [70, 73, 76, 77, 13, 80, 69, 82, 70, 85, 77, 69, 13, 70, 82, 65, 71, 82, 65, 78, 67, 69, 13, 83, 84, 85, 84, 8, 68, 69, 78, 84, 13, 66, 82, 69, 65, 83, 84, 13, 83, 85, 77, 77, 73, 84, 13], "trial": 6, "time_elapsed": 1261846, "type": "FREE_RECALL", "trial_index": 239}, "uniqueid": "MTK3494:39K0FND3AIMXKVQ1Q5JVJY3VMR2MA7", "dateTime": 1520619884002}, {"current_trial": 240, "trialdata": {"rt": 830, "trial_type": "text", "internal_node_id": "0.0-177.0", "time_elapsed": 1264702, "key_press": 13, "type": "INSTRUCTIONS", "trial_index": 240}, "uniqueid": "MTK3494:39K0FND3AIMXKVQ1Q5JVJY3VMR2MA7", "dateTime": 1520619886855}, {"current_trial": 241, "trialdata": {"rt": [2897, 5929, 9609], "trial_type": "math-distractor", "key_times": [2466, 2833, 2897, 5547, 5721, 5929, 9019, 9418, 9609, 11810, 11984], "responses": ["14", "13", "17"], "num2": [1, 2, 6, 8], "num3": [7, 4, 4, 5], "conditions": [12, 1600, "v", 12000], "internal_node_id": "0.0-178.0", "key_presses": [49, 52, 13, 49, 51, 13, 49, 55, 13, 50, 49], "trial": 7, "time_elapsed": 1278721, "type": "DISTRACTOR", "trial_index": 241, "num1": [6, 7, 7, 8]}, "uniqueid": "MTK3494:39K0FND3AIMXKVQ1Q5JVJY3VMR2MA7", "dateTime": 1520619900873}, {"current_trial": 242, "trialdata": {"rt": -1, "trial_type": "single-stim", "stimulus": "<p id=\"stim\">10</p>", "internal_node_id": "0.0-179.0-0.0", "time_elapsed": 1281744, "key_press": -1, "trial_index": 242}, "uniqueid": "MTK3494:39K0FND3AIMXKVQ1Q5JVJY3VMR2MA7", "dateTime": 1520619903896}, {"current_trial": 243, "trialdata": {"rt": -1, "trial_type": "single-stim", "stimulus": "<p id=\"stim\">9</p>", "internal_node_id": "0.0-179.0-1.0", "time_elapsed": 1282745, "key_press": -1, "trial_index": 243}, "uniqueid": "MTK3494:39K0FND3AIMXKVQ1Q5JVJY3VMR2MA7", "dateTime": 1520619904897}, {"current_trial": 244, "trialdata": {"rt": -1, "trial_type": "single-stim", "stimulus": "<p id=\"stim\">8</p>", "internal_node_id": "0.0-179.0-2.0", "time_elapsed": 1283740, "key_press": -1, "trial_index": 244}, "uniqueid": "MTK3494:39K0FND3AIMXKVQ1Q5JVJY3VMR2MA7", "dateTime": 1520619905892}, {"current_trial": 245, "trialdata": {"rt": -1, "trial_type": "single-stim", "stimulus": "<p id=\"stim\">7</p>", "internal_node_id": "0.0-179.0-3.0", "time_elapsed": 1284755, "key_press": -1, "trial_index": 245}, "uniqueid": "MTK3494:39K0FND3AIMXKVQ1Q5JVJY3VMR2MA7", "dateTime": 1520619906907}, {"current_trial": 246, "trialdata": {"rt": -1, "trial_type": "single-stim", "stimulus": "<p id=\"stim\">6</p>", "internal_node_id": "0.0-179.0-4.0", "time_elapsed": 1285754, "key_press": -1, "trial_index": 246}, "uniqueid": "MTK3494:39K0FND3AIMXKVQ1Q5JVJY3VMR2MA7", "dateTime": 1520619907906}, {"current_trial": 247, "trialdata": {"rt": -1, "trial_type": "single-stim", "stimulus": "<p id=\"stim\">5</p>", "internal_node_id": "0.0-179.0-5.0", "time_elapsed": 1286754, "key_press": -1, "trial_index": 247}, "uniqueid": "MTK3494:39K0FND3AIMXKVQ1Q5JVJY3VMR2MA7", "dateTime": 1520619908906}, {"current_trial": 248, "trialdata": {"rt": -1, "trial_type": "single-stim", "stimulus": "<p id=\"stim\">4</p>", "internal_node_id": "0.0-179.0-6.0", "time_elapsed": 1287734, "key_press": -1, "trial_index": 248}, "uniqueid": "MTK3494:39K0FND3AIMXKVQ1Q5JVJY3VMR2MA7", "dateTime": 1520619909886}, {"current_trial": 249, "trialdata": {"rt": -1, "trial_type": "single-stim", "stimulus": "<p id=\"stim\">3</p>", "internal_node_id": "0.0-179.0-7.0", "time_elapsed": 1288750, "key_press": -1, "trial_index": 249}, "uniqueid": "MTK3494:39K0FND3AIMXKVQ1Q5JVJY3VMR2MA7", "dateTime": 1520619910902}, {"current_trial": 250, "trialdata": {"rt": -1, "trial_type": "single-stim", "stimulus": "<p id=\"stim\">2</p>", "internal_node_id": "0.0-179.0-8.0", "time_elapsed": 1289748, "key_press": -1, "trial_index": 250}, "uniqueid": "MTK3494:39K0FND3AIMXKVQ1Q5JVJY3VMR2MA7", "dateTime": 1520619911900}, {"current_trial": 251, "trialdata": {"rt": -1, "trial_type": "single-stim", "stimulus": "<p id=\"stim\">1</p>", "internal_node_id": "0.0-179.0-9.0", "time_elapsed": 1290747, "key_press": -1, "trial_index": 251}, "uniqueid": "MTK3494:39K0FND3AIMXKVQ1Q5JVJY3VMR2MA7", "dateTime": 1520619912899}, {"current_trial": 252, "trialdata": {"rt": -1, "trial_type": "single-stim", "stimulus": "<p id=\"stim\">+</p>", "internal_node_id": "0.0-180.0-0.0", "time_elapsed": 1292267, "key_press": -1, "type": "FIXATION", "trial_index": 252}, "uniqueid": "MTK3494:39K0FND3AIMXKVQ1Q5JVJY3VMR2MA7", "dateTime": 1520619914419}, {"current_trial": 253, "trialdata": {"rt": -1, "trial_type": "single-stim", "word": "quail", "stimulus": "<p id=\"stim\">QUAIL</p>", "conditions": [12, 1600, "v", 12000], "internal_node_id": "0.0-181.0", "trial": 7, "time_elapsed": 1293882, "serialpos": 0, "key_press":