{"assignmentId": "3R2PKQ87NXFCQD9Z2TB80WREYTUMIL", "workerId": "MTK3029", "questiondata": {"avail_screen_height": 860, "color_depth": 24, "screen_width": 1600, "pixel_depth": 24, "avail_screen_width": 1600, "screen_height": 900}, "bonus": 0, "hitId": "3JHB4BPSFKG8D7GU0Q7AFSGW4RD9QZ", "counterbalance": 223, "useragent": "Mozilla/5.0 (Windows NT 6.3; Win64; x64; rv:58.0) Gecko/20100101 Firefox/58.0", "eventdata": [{"eventtype": "initialized", "interval": 0, "value": null, "timestamp": 1519669052464}, {"eventtype": "window_resize", "interval": 0, "value": [1600, 786], "timestamp": 1519669052464}, {"eventtype": "focus", "interval": 37709, "value": "off", "timestamp": 1519669090173}, {"eventtype": "focus", "interval": 10864, "value": "on", "timestamp": 1519669101037}, {"eventtype": "focus", "interval": 43149, "value": "off", "timestamp": 1519669144186}, {"eventtype": "focus", "interval": 347897, "value": "on", "timestamp": 1519669492083}, {"eventtype": "focus", "interval": 972598, "value": "off", "timestamp": 1519670464681}, {"eventtype": "focus", "interval": 9171, "value": "on", "timestamp": 1519670473852}, {"eventtype": "focus", "interval": 298744, "value": "off", "timestamp": 1519670772596}, {"eventtype": "focus", "interval": 1101, "value": "on", "timestamp": 1519670773697}, {"eventtype": "focus", "interval": 412912, "value": "off", "timestamp": 1519671186609}, {"eventtype": "focus", "interval": 3821, "value": "on", "timestamp": 1519671190430}, {"eventtype": "focus", "interval": 1027, "value": "off", "timestamp": 1519671191457}, {"eventtype": "focus", "interval": 831, "value": "on", "timestamp": 1519671192288}, {"eventtype": "focus", "interval": 293044, "value": "off", "timestamp": 1519671485332}, {"eventtype": "focus", "interval": 2829, "value": "on", "timestamp": 1519671488161}], "data": [{"current_trial": 0, "trialdata": {"rt": 1714, "trial_type": "text", "internal_node_id": "0.0-0.0", "time_elapsed": 1724, "key_press": 32, "type": "INSTRUCTIONS", "trial_index": 0}, "uniqueid": "MTK3029:3R2PKQ87NXFCQD9Z2TB80WREYTUMIL", "dateTime": 1519669056990}, {"current_trial": 1, "trialdata": {"rt": 12850, "trial_type": "text", "internal_node_id": "0.0-1.0", "time_elapsed": 14583, "key_press": 13, "type": "INSTRUCTIONS", "trial_index": 1}, "uniqueid": "MTK3029:3R2PKQ87NXFCQD9Z2TB80WREYTUMIL", "dateTime": 1519669069848}, {"current_trial": 2, "trialdata": {"rt": [4945], "trial_type": "audio-test", "responses": ["ocean"], "internal_node_id": "0.0-2.0", "time_elapsed": 20038, "type": "AUDIO_TEST", "trial_index": 2}, "uniqueid": "MTK3029:3R2PKQ87NXFCQD9Z2TB80WREYTUMIL", "dateTime": 1519669075304}, {"current_trial": 3, "trialdata": {"rt": [8800], "trial_type": "audio-test", "responses": ["crystal"], "internal_node_id": "0.0-3.0", "time_elapsed": 28933, "type": "AUDIO_TEST", "trial_index": 3}, "uniqueid": "MTK3029:3R2PKQ87NXFCQD9Z2TB80WREYTUMIL", "dateTime": 1519669084197}, {"current_trial": 4, "trialdata": {"rt": [3880], "trial_type": "audio-test", "responses": ["spice"], "internal_node_id": "0.0-4.0", "time_elapsed": 32917, "type": "AUDIO_TEST", "trial_index": 4}, "uniqueid": "MTK3029:3R2PKQ87NXFCQD9Z2TB80WREYTUMIL", "dateTime": 1519669088183}, {"current_trial": 5, "trialdata": {"rt": 31695, "trial_type": "survey-text", "responses": "{\"Q0\":\"12:00 am\",\"Q1\":\"5:30 am\",\"Q2\":\"4\"}", "internal_node_id": "0.0-5.0", "time_elapsed": 65418, "type": "SLEEP_SURVEY", "trial_index": 5}, "uniqueid": "MTK3029:3R2PKQ87NXFCQD9Z2TB80WREYTUMIL", "dateTime": 1519669120683}, {"current_trial": 6, "trialdata": {"rt": 19678, "trial_type": "text", "internal_node_id": "0.0-6.0", "time_elapsed": 86105, "key_press": 32, "type": "INSTRUCTIONS", "trial_index": 6}, "uniqueid": "MTK3029:3R2PKQ87NXFCQD9Z2TB80WREYTUMIL", "dateTime": 1519669141371}, {"current_trial": 7, "trialdata": {"rt": 352816, "trial_type": "text", "internal_node_id": "0.0-7.0", "time_elapsed": 439430, "key_press": 13, "type": "INSTRUCTIONS", "trial_index": 7}, "uniqueid": "MTK3029:3R2PKQ87NXFCQD9Z2TB80WREYTUMIL", "dateTime": 1519669494696}, {"current_trial": 8, "trialdata": {"rt": 10650, "trial_type": "text", "internal_node_id": "0.0-8.0", "time_elapsed": 450591, "key_press": 13, "type": "INSTRUCTIONS", "trial_index": 8}, "uniqueid": "MTK3029:3R2PKQ87NXFCQD9Z2TB80WREYTUMIL", "dateTime": 1519669505857}, {"current_trial": 9, "trialdata": {"rt": [3514, 5570, 7947, 9788, 12994, 15379, 17186], "trial_type": "math-distractor", "key_times": [3108, 3197, 3514, 5162, 5370, 5570, 7516, 7690, 7947, 9355, 9562, 9788, 12698, 12842, 12994, 14946, 15154, 15379, 16938, 17186], "responses": ["16", "14", "19", "18", "22", "16", "9"], "num2": [6, 2, 6, 8, 4, 6, 5, 6], "num3": [1, 4, 4, 8, 9, 7, 1, 4], "conditions": [18, 1200, "v", 18000], "internal_node_id": "0.0-9.0", "key_presses": [97, 102, 13, 97, 100, 13, 97, 105, 13, 97, 104, 13, 98, 98, 13, 97, 102, 13, 105, 13], "trial": 0, "time_elapsed": 469614, "type": "DISTRACTOR", "trial_index": 9, "num1": [9, 8, 9, 2, 9, 3, 3, 5]}, "uniqueid": "MTK3029:3R2PKQ87NXFCQD9Z2TB80WREYTUMIL", "dateTime": 1519669524878}, {"current_trial": 10, "trialdata": {"rt": -1, "trial_type": "single-stim", "stimulus": "<p id=\"stim\">10</p>", "internal_node_id": "0.0-10.0-0.0", "time_elapsed": 472621, "key_press": -1, "trial_index": 10}, "uniqueid": "MTK3029:3R2PKQ87NXFCQD9Z2TB80WREYTUMIL", "dateTime": 1519669527885}, {"current_trial": 11, "trialdata": {"rt": -1, "trial_type": "single-stim", "stimulus": "<p id=\"stim\">9</p>", "internal_node_id": "0.0-10.0-1.0", "time_elapsed": 473631, "key_press": -1, "trial_index": 11}, "uniqueid": "MTK3029:3R2PKQ87NXFCQD9Z2TB80WREYTUMIL", "dateTime": 1519669528896}, {"current_trial": 12, "trialdata": {"rt": -1, "trial_type": "single-stim", "stimulus": "<p id=\"stim\">8</p>", "internal_node_id": "0.0-10.0-2.0", "time_elapsed": 474636, "key_press": -1, "trial_index": 12}, "uniqueid": "MTK3029:3R2PKQ87NXFCQD9Z2TB80WREYTUMIL", "dateTime": 1519669529901}, {"current_trial": 13, "trialdata": {"rt": -1, "trial_type": "single-stim", "stimulus": "<p id=\"stim\">7</p>", "internal_node_id": "0.0-10.0-3.0", "time_elapsed": 475640, "key_press": -1, "trial_index": 13}, "uniqueid": "MTK3029:3R2PKQ87NXFCQD9Z2TB80WREYTUMIL", "dateTime": 1519669530904}, {"current_trial": 14, "trialdata": {"rt": -1, "trial_type": "single-stim", "stimulus": "<p id=\"stim\">6</p>", "internal_node_id": "0.0-10.0-4.0", "time_elapsed": 476643, "key_press": -1, "trial_index": 14}, "uniqueid": "MTK3029:3R2PKQ87NXFCQD9Z2TB80WREYTUMIL", "dateTime": 1519669531907}, {"current_trial": 15, "trialdata": {"rt": -1, "trial_type": "single-stim", "stimulus": "<p id=\"stim\">5</p>", "internal_node_id": "0.0-10.0-5.0", "time_elapsed": 477646, "key_press": -1, "trial_index": 15}, "uniqueid": "MTK3029:3R2PKQ87NXFCQD9Z2TB80WREYTUMIL", "dateTime": 1519669532910}, {"current_trial": 16, "trialdata": {"rt": -1, "trial_type": "single-stim", "stimulus": "<p id=\"stim\">4</p>", "internal_node_id": "0.0-10.0-6.0", "time_elapsed": 478650, "key_press": -1, "trial_index": 16}, "uniqueid": "MTK3029:3R2PKQ87NXFCQD9Z2TB80WREYTUMIL", "dateTime": 1519669533914}, {"current_trial": 17, "trialdata": {"rt": -1, "trial_type": "single-stim", "stimulus": "<p id=\"stim\">3</p>", "internal_node_id": "0.0-10.0-7.0", "time_elapsed": 479655, "key_press": -1, "trial_index": 17}, "uniqueid": "MTK3029:3R2PKQ87NXFCQD9Z2TB80WREYTUMIL", "dateTime": 1519669534921}, {"current_trial": 18, "trialdata": {"rt": -1, "trial_type": "single-stim", "stimulus": "<p id=\"stim\">2</p>", "internal_node_id": "0.0-10.0-8.0", "time_elapsed": 480660, "key_press": -1, "trial_index": 18}, "uniqueid": "MTK3029:3R2PKQ87NXFCQD9Z2TB80WREYTUMIL", "dateTime": 1519669535925}, {"current_trial": 19, "trialdata": {"rt": -1, "trial_type": "single-stim", "stimulus": "<p id=\"stim\">1</p>", "internal_node_id": "0.0-10.0-9.0", "time_elapsed": 481664, "key_press": -1, "trial_index": 19}, "uniqueid": "MTK3029:3R2PKQ87NXFCQD9Z2TB80WREYTUMIL", "dateTime": 1519669536928}, {"current_trial": 20, "trialdata": {"rt": -1, "trial_type": "single-stim", "stimulus": "<p id=\"stim\">+</p>", "internal_node_id": "0.0-11.0-0.0", "time_elapsed": 483169, "key_press": -1, "type": "FIXATION", "trial_index": 20}, "uniqueid": "MTK3029:3R2PKQ87NXFCQD9Z2TB80WREYTUMIL", "dateTime": 1519669538433}, {"current_trial": 21, "trialdata": {"rt": -1, "trial_type": "single-stim", "word": "clock", "stimulus": "<p id=\"stim\">CLOCK</p>", "conditions": [18, 1200, "v", 18000], "internal_node_id": "0.0-12.0", "trial": 0, "time_elapsed": 484371, "serialpos": 0, "key_press": -1, "wordID": 324, "type": "PRES_VIS", "trial_index": 21}, "uniqueid": "MTK3029:3R2PKQ87NXFCQD9Z2TB80WREYTUMIL", "dateTime": 1519669539637}, {"current_trial": 22, "trialdata": {"rt": -1, "trial_type": "single-stim", "word": "brandy", "stimulus": "<p id=\"stim\">BRANDY</p>", "conditions": [18, 1200, "v", 18000], "internal_node_id": "0.0-13.0", "trial": 0, "time_elapsed": 486394, "serialpos": 1, "key_press": -1, "wordID": 168, "type": "PRES_VIS", "trial_index": 22}, "uniqueid": "MTK3029:3R2PKQ87NXFCQD9Z2TB80WREYTUMIL", "dateTime": 1519669541659}, {"current_trial": 23, "trialdata": {"rt": -1, "trial_type": "single-stim", "word": "blueprint", "stimulus": "<p id=\"stim\">BLUEPRINT</p>", "conditions": [18, 1200, "v", 18000], "internal_node_id": "0.0-14.0", "trial": 0, "time_elapsed": 488510, "serialpos": 2, "key_press": -1, "wordID": 141, "type": "PRES_VIS", "trial_index": 23}, "uniqueid": "MTK3029:3R2PKQ87NXFCQD9Z2TB80WREYTUMIL", "dateTime": 1519669543775}, {"current_trial": 24, "trialdata": {"rt": -1, "trial_type": "single-stim", "word": "basement", "stimulus": "<p id=\"stim\">BASEMENT</p>", "conditions": [18, 1200, "v", 18000], "internal_node_id": "0.0-15.0", "trial": 0, "time_elapsed": 490520, "serialpos": 3, "key_press": -1, "wordID": 93, "type": "PRES_VIS", "trial_index": 24}, "uniqueid": "MTK3029:3R2PKQ87NXFCQD9Z2TB80WREYTUMIL", "dateTime": 1519669545785}, {"current_trial": 25, "trialdata": {"rt": -1, "trial_type": "single-stim", "word": "girl", "stimulus": "<p id=\"stim\">GIRL</p>", "conditions": [18, 1200, "v", 18000], "internal_node_id": "0.0-16.0", "trial": 0, "time_elapsed": 492917, "serialpos": 4, "key_press": -1, "wordID": 636, "type": "PRES_VIS", "trial_index": 25}, "uniqueid": "MTK3029:3R2PKQ87NXFCQD9Z2TB80WREYTUMIL", "dateTime": 1519669548181}, {"current_trial": 26, "trialdata": {"rt": -1, "trial_type": "single-stim", "word": "scarf", "stimulus": "<p id=\"stim\">SCARF</p>", "conditions": [18, 1200, "v", 18000], "internal_node_id": "0.0-17.0", "trial": 0, "time_elapsed": 495303, "serialpos": 5, "key_press": -1, "wordID": 1245, "type": "PRES_VIS", "trial_index": 26}, "uniqueid": "MTK3029:3R2PKQ87NXFCQD9Z2TB80WREYTUMIL", "dateTime": 1519669550567}, {"current_trial": 27, "trialdata": {"rt": -1, "trial_type": "single-stim", "word": "hero", "stimulus": "<p id=\"stim\">HERO</p>", "conditions": [18, 1200, "v", 18000], "internal_node_id": "0.0-18.0", "trial": 0, "time_elapsed": 497483, "serialpos": 6, "key_press": -1, "wordID": 705, "type": "PRES_VIS", "trial_index": 27}, "uniqueid": "MTK3029:3R2PKQ87NXFCQD9Z2TB80WREYTUMIL", "dateTime": 1519669552748}, {"current_trial": 28, "trialdata": {"rt": -1, "trial_type": "single-stim", "word": "bison", "stimulus": "<p id=\"stim\">BISON</p>", "conditions": [18, 1200, "v", 18000], "internal_node_id": "0.0-19.0", "trial": 0, "time_elapsed": 499680, "serialpos": 7, "key_press": -1, "wordID": 130, "type": "PRES_VIS", "trial_index": 28}, "uniqueid": "MTK3029:3R2PKQ87NXFCQD9Z2TB80WREYTUMIL", "dateTime": 1519669554944}, {"current_trial": 29, "trialdata": {"rt": -1, "trial_type": "single-stim", "word": "slope", "stimulus": "<p id=\"stim\">SLOPE</p>", "conditions": [18, 1200, "v", 18000], "internal_node_id": "0.0-20.0", "trial": 0, "time_elapsed": 501721, "serialpos": 8, "key_press": -1, "wordID": 1327, "type": "PRES_VIS", "trial_index": 29}, "uniqueid": "MTK3029:3R2PKQ87NXFCQD9Z2TB80WREYTUMIL", "dateTime": 1519669556986}, {"current_trial": 30, "trialdata": {"rt": -1, "trial_type": "single-stim", "word": "sponge", "stimulus": "<p id=\"stim\">SPONGE</p>", "conditions": [18, 1200, "v", 18000], "internal_node_id": "0.0-21.0", "trial": 0, "time_elapsed": 503897, "serialpos": 9, "key_press": -1, "wordID": 1354, "type": "PRES_VIS", "trial_index": 30}, "uniqueid": "MTK3029:3R2PKQ87NXFCQD9Z2TB80WREYTUMIL", "dateTime": 1519669559161}, {"current_trial": 31, "trialdata": {"rt": -1, "trial_type": "single-stim", "word": "pigment", "stimulus": "<p id=\"stim\">PIGMENT</p>", "conditions": [18, 1200, "v", 18000], "internal_node_id": "0.0-22.0", "trial": 0, "time_elapsed": 506030, "serialpos": 10, "key_press": -1, "wordID": 1065, "type": "PRES_VIS", "trial_index": 31}, "uniqueid": "MTK3029:3R2PKQ87NXFCQD9Z2TB80WREYTUMIL", "dateTime": 1519669561294}, {"current_trial": 32, "trialdata": {"rt": -1, "trial_type": "single-stim", "word": "island", "stimulus": "<p id=\"stim\">ISLAND</p>", "conditions": [18, 1200, "v", 18000], "internal_node_id": "0.0-23.0", "trial": 0, "time_elapsed": 508209, "serialpos": 11, "key_press": -1, "wordID": 744, "type": "PRES_VIS", "trial_index": 32}, "uniqueid": "MTK3029:3R2PKQ87NXFCQD9Z2TB80WREYTUMIL", "dateTime": 1519669563473}, {"current_trial": 33, "trialdata": {"rt": -1, "trial_type": "single-stim", "word": "silk", "stimulus": "<p id=\"stim\">SILK</p>", "conditions": [18, 1200, "v", 18000], "internal_node_id": "0.0-24.0", "trial": 0, "time_elapsed": 510593, "serialpos": 12, "key_press": -1, "wordID": 1306, "type": "PRES_VIS", "trial_index": 33}, "uniqueid": "MTK3029:3R2PKQ87NXFCQD9Z2TB80WREYTUMIL", "dateTime": 1519669565857}, {"current_trial": 34, "trialdata": {"rt": -1, "trial_type": "single-stim", "word": "zipper", "stimulus": "<p id=\"stim\">ZIPPER</p>", "conditions": [18, 1200, "v", 18000], "internal_node_id": "0.0-25.0", "trial": 0, "time_elapsed": 512770, "serialpos": 13, "key_press": -1, "wordID": 1635, "type": "PRES_VIS", "trial_index": 34}, "uniqueid": "MTK3029:3R2PKQ87NXFCQD9Z2TB80WREYTUMIL", "dateTime": 1519669568034}, {"current_trial": 35, "trialdata": {"rt": -1, "trial_type": "single-stim", "word": "dolphin", "stimulus": "<p id=\"stim\">DOLPHIN</p>", "conditions": [18, 1200, "v", 18000], "internal_node_id": "0.0-26.0", "trial": 0, "time_elapsed": 514794, "serialpos": 14, "key_press": -1, "wordID": 482, "type": "PRES_VIS", "trial_index": 35}, "uniqueid": "MTK3029:3R2PKQ87NXFCQD9Z2TB80WREYTUMIL", "dateTime": 1519669570058}, {"current_trial": 36, "trialdata": {"rt": -1, "trial_type": "single-stim", "word": "mask", "stimulus": "<p id=\"stim\">MASK</p>", "conditions": [18, 1200, "v", 18000], "internal_node_id": "0.0-27.0", "trial": 0, "time_elapsed": 516807, "serialpos": 15, "key_press": -1, "wordID": 875, "type": "PRES_VIS", "trial_index": 36}, "uniqueid": "MTK3029:3R2PKQ87NXFCQD9Z2TB80WREYTUMIL", "dateTime": 1519669572071}, {"current_trial": 37, "trialdata": {"rt": -1, "trial_type": "single-stim", "word": "bureau", "stimulus": "<p id=\"stim\">BUREAU</p>", "conditions": [18, 1200, "v", 18000], "internal_node_id": "0.0-28.0", "trial": 0, "time_elapsed": 519172, "serialpos": 16, "key_press": -1, "wordID": 198, "type": "PRES_VIS", "trial_index": 37}, "uniqueid": "MTK3029:3R2PKQ87NXFCQD9Z2TB80WREYTUMIL", "dateTime": 1519669574437}, {"current_trial": 38, "trialdata": {"rt": -1, "trial_type": "single-stim", "word": "soda", "stimulus": "<p id=\"stim\">SODA</p>", "conditions": [18, 1200, "v", 18000], "internal_node_id": "0.0-29.0", "trial": 0, "time_elapsed": 521312, "serialpos": 17, "key_press": -1, "wordID": 1340, "type": "PRES_VIS", "trial_index": 38}, "uniqueid": "MTK3029:3R2PKQ87NXFCQD9Z2TB80WREYTUMIL", "dateTime": 1519669576576}, {"current_trial": 39, "trialdata": {"rt": -1, "trial_type": "single-stim", "stimulus": "", "internal_node_id": "0.0-30.0-0.0", "time_elapsed": 523380, "key_press": -1, "type": "PRE_RECALL_DELAY", "trial_index": 39}, "uniqueid": "MTK3029:3R2PKQ87NXFCQD9Z2TB80WREYTUMIL", "dateTime": 1519669578645}, {"current_trial": 40, "trialdata": {"rt": -1000, "trial_type": "single-audio", "stimulus": "/static/audio/400Hz.wav", "internal_node_id": "0.0-31.0", "time_elapsed": 523887, "key_press": -1, "type": "PRE_RECALL_ALERT", "trial_index": 40}, "uniqueid": "MTK3029:3R2PKQ87NXFCQD9Z2TB80WREYTUMIL", "dateTime": 1519669579151}, {"current_trial": 41, "trialdata": {"rt": [3405, 5455, 7445, 7549, 11509, 13637, 24493, 29005, 34558, 43662, 44661, 58976], "recwords": ["block", "city", "silk", "", "bureu", "button", "girl", "clock", "soft", "", "", "sponge"], "key_times": [1375, 1628, 1796, 1877, 1984, 3405, 4573, 4717, 4925, 4997, 5455, 6621, 6757, 6925, 7180, 7445, 7549, 9300, 9765, 9957, 10269, 10549, 11509, 12477, 12717, 12822, 12941, 13125, 13220, 13637, 23317, 23456, 23592, 23670, 24493, 28285, 28373, 28558, 28669, 28725, 29005, 33040, 33109, 33589, 33901, 34558, 43662, 44661, 57926, 58062, 58182, 58416, 58590, 58698, 58976], "trial_type": "free-recall", "conditions": [18, 1200, "v", 18000], "internal_node_id": "0.0-32.0-0.0", "key_presses": [66, 76, 79, 67, 75, 188, 67, 73, 84, 89, 188, 83, 73, 76, 75, 188, 32, 66, 85, 82, 69, 85, 188, 66, 85, 84, 84, 79, 78, 188, 71, 73, 82, 76, 188, 67, 76, 79, 67, 75, 188, 83, 79, 70, 84, 188, 188, 13, 83, 80, 79, 78, 71, 69, 13], "trial": 0, "time_elapsed": 583905, "type": "FREE_RECALL", "trial_index": 41}, "uniqueid": "MTK3029:3R2PKQ87NXFCQD9Z2TB80WREYTUMIL", "dateTime": 1519669639189}, {"current_trial": 42, "trialdata": {"rt": 2723, "trial_type": "text", "internal_node_id": "0.0-33.0", "time_elapsed": 588656, "key_press": 13, "type": "INSTRUCTIONS", "trial_index": 42}, "uniqueid": "MTK3029:3R2PKQ87NXFCQD9Z2TB80WREYTUMIL", "dateTime": 1519669643920}, {"current_trial": 43, "trialdata": {"rt": [3302, 5390, 10590, 12574, 15198], "trial_type": "math-distractor", "key_times": [2918, 3118, 3302, 5062, 5125, 5390, 8878, 9165, 9405, 10286, 10590, 12358, 12574, 14493, 15198, 17518, 17782], "responses": ["15", "12", "18", "7", "7"], "num2": [9, 8, 4, 4, 4, 7], "num3": [4, 3, 5, 2, 2, 2], "conditions": [18, 1200, "v", 18000], "internal_node_id": "0.0-34.0", "key_presses": [97, 101, 13, 97, 98, 13, 97, 104, 107, 8, 13, 103, 13, 103, 13, 97, 103], "trial": 1, "time_elapsed": 608669, "type": "DISTRACTOR", "trial_index": 43, "num1": [2, 1, 9, 1, 1, 8]}, "uniqueid": "MTK3029:3R2PKQ87NXFCQD9Z2TB80WREYTUMIL", "dateTime": 1519669663934}, {"current_trial": 44, "trialdata": {"rt": -1, "trial_type": "single-stim", "stimulus": "<p id=\"stim\">10</p>", "internal_node_id": "0.0-35.0-0.0", "time_elapsed": 611674, "key_press": -1, "trial_index": 44}, "uniqueid": "MTK3029:3R2PKQ87NXFCQD9Z2TB80WREYTUMIL", "dateTime": 1519669666939}, {"current_trial": 45, "trialdata": {"rt": -1, "trial_type": "single-stim", "stimulus": "<p id=\"stim\">9</p>", "internal_node_id": "0.0-35.0-1.0", "time_elapsed": 612676, "key_press": -1, "trial_index": 45}, "uniqueid": "MTK3029:3R2PKQ87NXFCQD9Z2TB80WREYTUMIL", "dateTime": 1519669667940}, {"current_trial": 46, "trialdata": {"rt": -1, "trial_type": "single-stim", "stimulus": "<p id=\"stim\">8</p>", "internal_node_id": "0.0-35.0-2.0", "time_elapsed": 613679, "key_press": -1, "trial_index": 46}, "uniqueid": "MTK3029:3R2PKQ87NXFCQD9Z2TB80WREYTUMIL", "dateTime": 1519669668944}, {"current_trial": 47, "trialdata": {"rt": -1, "trial_type": "single-stim", "stimulus": "<p id=\"stim\">7</p>", "internal_node_id": "0.0-35.0-3.0", "time_elapsed": 614683, "key_press": -1, "trial_index": 47}, "uniqueid": "MTK3029:3R2PKQ87NXFCQD9Z2TB80WREYTUMIL", "dateTime": 1519669669948}, {"current_trial": 48, "trialdata": {"rt": -1, "trial_type": "single-stim", "stimulus": "<p id=\"stim\">6</p>", "internal_node_id": "0.0-35.0-4.0", "time_elapsed": 615685, "key_press": -1, "trial_index": 48}, "uniqueid": "MTK3029:3R2PKQ87NXFCQD9Z2TB80WREYTUMIL", "dateTime": 1519669670950}, {"current_trial": 49, "trialdata": {"rt": -1, "trial_type": "single-stim", "stimulus": "<p id=\"stim\">5</p>", "internal_node_id": "0.0-35.0-5.0", "time_elapsed": 616687, "key_press": -1, "trial_index": 49}, "uniqueid": "MTK3029:3R2PKQ87NXFCQD9Z2TB80WREYTUMIL", "dateTime": 1519669671952}, {"current_trial": 50, "trialdata": {"rt": -1, "trial_type": "single-stim", "stimulus": "<p id=\"stim\">4</p>", "internal_node_id": "0.0-35.0-6.0", "time_elapsed": 617692, "key_press": -1, "trial_index": 50}, "uniqueid": "MTK3029:3R2PKQ87NXFCQD9Z2TB80WREYTUMIL", "dateTime": 1519669672957}, {"current_trial": 51, "trialdata": {"rt": -1, "trial_type": "single-stim", "stimulus": "<p id=\"stim\">3</p>", "internal_node_id": "0.0-35.0-7.0", "time_elapsed": 618695, "key_press": -1, "trial_index": 51}, "uniqueid": "MTK3029:3R2PKQ87NXFCQD9Z2TB80WREYTUMIL", "dateTime": 1519669673959}, {"current_trial": 52, "trialdata": {"rt": -1, "trial_type": "single-stim", "stimulus": "<p id=\"stim\">2</p>", "internal_node_id": "0.0-35.0-8.0", "time_elapsed": 619698, "key_press": -1, "trial_index": 52}, "uniqueid": "MTK3029:3R2PKQ87NXFCQD9Z2TB80WREYTUMIL", "dateTime": 1519669674962}, {"current_trial": 53, "trialdata": {"rt": -1, "trial_type": "single-stim", "stimulus": "<p id=\"stim\">1</p>", "internal_node_id": "0.0-35.0-9.0", "time_elapsed": 620703, "key_press": -1, "trial_index": 53}, "uniqueid": "MTK3029:3R2PKQ87NXFCQD9Z2TB80WREYTUMIL", "dateTime": 1519669675968}, {"current_trial": 54, "trialdata": {"rt": -1, "trial_type": "single-stim", "stimulus": "<p id=\"stim\">+</p>", "internal_node_id": "0.0-36.0-0.0", "time_elapsed": 622206, "key_press": -1, "type": "FIXATION", "trial_index": 54}, "uniqueid": "MTK3029:3R2PKQ87NXFCQD9Z2TB80WREYTUMIL", "dateTime": 1519669677470}, {"current_trial": 55, "trialdata": {"rt": -1, "trial_type": "single-stim", "word": "friend", "stimulus": "<p id=\"stim\">FRIEND</p>", "conditions": [18, 1200, "v", 18000], "internal_node_id": "0.0-37.0", "trial": 1, "time_elapsed": 623408, "serialpos": 0, "key_press": -1, "wordID": 605, "type": "PRES_VIS", "trial_index": 55}, "uniqueid": "MTK3029:3R2PKQ87NXFCQD9Z2TB80WREYTUMIL", "dateTime": 1519669678673}, {"current_trial": 56, "trialdata": {"rt": -1, "trial_type": "single-stim", "word": "whistle", "stimulus": "<p id=\"stim\">WHISTLE</p>", "conditions": [18, 1200, "v", 18000], "internal_node_id": "0.0-38.0", "trial": 1, "time_elapsed": 625545, "serialpos": 1, "key_press": -1, "wordID": 1605, "type": "PRES_VIS", "trial_index": 56}, "uniqueid": "MTK3029:3R2PKQ87NXFCQD9Z2TB80WREYTUMIL", "dateTime": 1519669680809}, {"current_trial": 57, "trialdata": {"rt": -1, "trial_type": "single-stim", "word": "laser", "stimulus": "<p id=\"stim\">LASER</p>", "conditions": [18, 1200, "v", 18000], "internal_node_id": "0.0-39.0", "trial": 1, "time_elapsed": 627638, "serialpos": 2, "key_press": -1, "wordID": 800, "type": "PRES_VIS", "trial_index": 57}, "uniqueid": "MTK3029:3R2PKQ87NXFCQD9Z2TB80WREYTUMIL", "dateTime": 1519669682902}, {"current_trial": 58, "trialdata": {"rt": -1, "trial_type": "single-stim", "word": "hook", "stimulus": "<p id=\"stim\">HOOK</p>", "conditions": [18, 1200, "v", 18000], "internal_node_id": "0.0-40.0", "trial": 1, "time_elapsed": 629840, "serialpos": 3, "key_press": -1, "wordID": 714, "type": "PRES_VIS", "trial_index": 58}, "uniqueid": "MTK3029:3R2PKQ87NXFCQD9Z2TB80WREYTUMIL", "dateTime": 1519669685104}, {"current_trial": 59, "trialdata": {"rt": -1, "trial_type": "single-stim", "word": "pork", "stimulus": "<p id=\"stim\">PORK</p>", "conditions": [18, 1200, "v", 18000], "internal_node_id": "0.0-41.0", "trial": 1, "time_elapsed": 632237, "serialpos": 4, "key_press": -1, "wordID": 1107, "type": "PRES_VIS", "trial_index": 59}, "uniqueid": "MTK3029:3R2PKQ87NXFCQD9Z2TB80WREYTUMIL", "dateTime": 1519669687501}, {"current_trial": 60, "trialdata": {"rt": -1, "trial_type": "single-stim", "word": "hornet", "stimulus": "<p id=\"stim\">HORNET</p>", "conditions": [18, 1200, "v", 18000], "internal_node_id": "0.0-42.0", "trial": 1, "time_elapsed": 634639, "serialpos": 5, "key_press": -1, "wordID": 717, "type": "PRES_VIS", "trial_index": 60}, "uniqueid": "MTK3029:3R2PKQ87NXFCQD9Z2TB80WREYTUMIL", "dateTime": 1519669689903}, {"current_trial": 61, "trialdata": {"rt": -1, "trial_type": "single-stim", "word": "blender", "stimulus": "<p id=\"stim\">BLENDER</p>", "conditions": [18, 1200, "v", 18000], "internal_node_id": "0.0-43.0", "trial": 1, "time_elapsed": 637028, "serialpos": 6, "key_press": -1, "wordID": 135, "type": "PRES_VIS", "trial_index": 61}, "uniqueid": "MTK3029:3R2PKQ87NXFCQD9Z2TB80WREYTUMIL", "dateTime": 1519669692293}, {"current_trial": 62, "trialdata": {"rt": -1, "trial_type": "single-stim", "word": "driver", "stimulus": "<p id=\"stim\">DRIVER</p>", "conditions": [18, 1200, "v", 18000], "internal_node_id": "0.0-44.0", "trial": 1, "time_elapsed": 639430, "serialpos": 7, "key_press": -1, "wordID": 498, "type": "PRES_VIS", "trial_index": 62}, "uniqueid": "MTK3029:3R2PKQ87NXFCQD9Z2TB80WREYTUMIL", "dateTime": 1519669694695}, {"current_trial": 63, "trialdata": {"rt": -1, "trial_type": "single-stim", "word": "ointment", "stimulus": "<p id=\"stim\">OINTMENT</p>", "conditions": [18, 1200, "v", 18000], "internal_node_id": "0.0-45.0", "trial": 1, "time_elapsed": 641540, "serialpos": 8, "key_press": -1, "wordID": 973, "type": "PRES_VIS", "trial_index": 63}, "uniqueid": "MTK3029:3R2PKQ87NXFCQD9Z2TB80WREYTUMIL", "dateTime": 1519669696805}, {"current_trial": 64, "trialdata": {"rt": -1, "trial_type": "single-stim", "word": "ground", "stimulus": "<p id=\"stim\">GROUND</p>", "conditions": [18, 1200, "v", 18000], "internal_node_id": "0.0-46.0", "trial": 1, "time_elapsed": 643915, "serialpos": 9, "key_press": -1, "wordID": 665, "type": "PRES_VIS", "trial_index": 64}, "uniqueid": "MTK3029:3R2PKQ87NXFCQD9Z2TB80WREYTUMIL", "dateTime": 1519669699179}, {"current_trial": 65, "trialdata": {"rt": -1, "trial_type": "single-stim", "word": "dentist", "stimulus": "<p id=\"stim\">DENTIST</p>", "conditions": [18, 1200, "v", 18000], "internal_node_id": "0.0-47.0", "trial": 1, "time_elapsed": 646005, "serialpos": 10, "key_press": -1, "wordID": 446, "type": "PRES_VIS", "trial_index": 65}, "uniqueid": "MTK3029:3R2PKQ87NXFCQD9Z2TB80WREYTUMIL", "dateTime": 1519669701269}, {"current_trial": 66, "trialdata": {"rt": -1, "trial_type": "single-stim", "word": "brook", "stimulus": "<p id=\"stim\">BROOK</p>", "conditions": [18, 1200, "v", 18000], "internal_node_id": "0.0-48.0", "trial": 1, "time_elapsed": 648170, "serialpos": 11, "key_press": -1, "wordID": 176, "type": "PRES_VIS", "trial_index": 66}, "uniqueid": "MTK3029:3R2PKQ87NXFCQD9Z2TB80WREYTUMIL", "dateTime": 1519669703434}, {"current_trial": 67, "trialdata": {"rt": -1, "trial_type": "single-stim", "word": "tunnel", "stimulus": "<p id=\"stim\">TUNNEL</p>", "conditions": [18, 1200, "v", 18000], "internal_node_id": "0.0-49.0", "trial": 1, "time_elapsed": 650281, "serialpos": 12, "key_press": -1, "wordID": 1518, "type": "PRES_VIS", "trial_index": 67}, "uniqueid": "MTK3029:3R2PKQ87NXFCQD9Z2TB80WREYTUMIL", "dateTime": 1519669705545}, {"current_trial": 68, "trialdata": {"rt": -1, "trial_type": "single-stim", "word": "beaver", "stimulus": "<p id=\"stim\">BEAVER</p>", "conditions": [18, 1200, "v", 18000], "internal_node_id": "0.0-50.0", "trial": 1, "time_elapsed": 652471, "serialpos": 13, "key_press": -1, "wordID": 108, "type": "PRES_VIS", "trial_index": 68}, "uniqueid": "MTK3029:3R2PKQ87NXFCQD9Z2TB80WREYTUMIL", "dateTime": 1519669707735}, {"current_trial": 69, "trialdata": {"rt": -1, "trial_type": "single-stim", "word": "switch", "stimulus": "<p id=\"stim\">SWITCH</p>", "conditions": [18, 1200, "v", 18000], "internal_node_id": "0.0-51.0", "trial": 1, "time_elapsed": 654765, "serialpos": 14, "key_press": -1, "wordID": 1421, "type": "PRES_VIS", "trial_index": 69}, "uniqueid": "MTK3029:3R2PKQ87NXFCQD9Z2TB80WREYTUMIL", "dateTime": 1519669710029}, {"current_trial": 70, "trialdata": {"rt": -1, "trial_type": "single-stim", "word": "diver", "stimulus": "<p id=\"stim\">DIVER</p>", "conditions": [18, 1200, "v", 18000], "internal_node_id": "0.0-52.0", "trial": 1, "time_elapsed": 657074, "serialpos": 15, "key_press": -1, "wordID": 475, "type": "PRES_VIS", "trial_index": 70}, "uniqueid": "MTK3029:3R2PKQ87NXFCQD9Z2TB80WREYTUMIL", "dateTime": 1519669712339}, {"current_trial": 71, "trialdata": {"rt": -1, "trial_type": "single-stim", "word": "woman", "stimulus": "<p id=\"stim\">WOMAN</p>", "conditions": [18, 1200, "v", 18000], "internal_node_id": "0.0-53.0", "trial": 1, "time_elapsed": 659341, "serialpos": 16, "key_press": -1, "wordID": 1619, "type": "PRES_VIS", "trial_index": 71}, "uniqueid": "MTK3029:3R2PKQ87NXFCQD9Z2TB80WREYTUMIL", "dateTime": 1519669714605}, {"current_trial": 72, "trialdata": {"rt": -1, "trial_type": "single-stim", "word": "suitcase", "stimulus": "<p id=\"stim\">SUITCASE</p>", "conditions": [18, 1200, "v", 18000], "internal_node_id": "0.0-54.0", "trial": 1, "time_elapsed": 661664, "serialpos": 17, "key_press": -1, "wordID": 1402, "type": "PRES_VIS", "trial_index": 72}, "uniqueid": "MTK3029:3R2PKQ87NXFCQD9Z2TB80WREYTUMIL", "dateTime": 1519669716928}, {"current_trial": 73, "trialdata": {"rt": -1, "trial_type": "single-stim", "stimulus": "", "internal_node_id": "0.0-55.0-0.0", "time_elapsed": 664088, "key_press": -1, "type": "PRE_RECALL_DELAY", "trial_index": 73}, "uniqueid": "MTK3029:3R2PKQ87NXFCQD9Z2TB80WREYTUMIL", "dateTime": 1519669719352}, {"current_trial": 74, "trialdata": {"rt": -1000, "trial_type": "single-audio", "stimulus": "/static/audio/400Hz.wav", "internal_node_id": "0.0-56.0", "time_elapsed": 664591, "key_press": -1, "type": "PRE_RECALL_ALERT", "trial_index": 74}, "uniqueid": "MTK3029:3R2PKQ87NXFCQD9Z2TB80WREYTUMIL", "dateTime": 1519669719856}, {"current_trial": 75, "trialdata": {"rt": [2715, 3692, 4787, 6499, 10771, 17148, 36604, 37412, 37788, 37972, 52861], "recwords": ["suitcase", "friend", "hook", "castle", "hook", "suitcase", "", "", "", "", "burner"], "key_times": [940, 1110, 1191, 1519, 1747, 1815, 1960, 2244, 2715, 3011, 3099, 3179, 3299, 3411, 3493, 3692, 4043, 4251, 4379, 4579, 4787, 5595, 5683, 5819, 6043, 6147, 6245, 6499, 9923, 10139, 10268, 10427, 10771, 15838, 16083, 16171, 16371, 16612, 16683, 16812, 17003, 17148, 36604, 37412, 37788, 37972, 50629, 50852, 51060, 51933, 52116, 52301, 52596, 52678, 52861], "trial_type": "free-recall", "conditions": [18, 1200, "v", 18000], "internal_node_id": "0.0-57.0-0.0", "key_presses": [83, 85, 73, 84, 67, 65, 83, 69, 13, 70, 82, 73, 69, 78, 68, 13, 72, 79, 79, 75, 13, 67, 65, 83, 84, 76, 69, 13, 72, 79, 79, 75, 13, 83, 85, 73, 84, 67, 65, 83, 69, 13, 13, 13, 13, 13, 66, 85, 78, 8, 82, 78, 69, 82, 13], "trial": 1, "time_elapsed": 724601, "type": "FREE_RECALL", "trial_index": 75}, "uniqueid": "MTK3029:3R2PKQ87NXFCQD9Z2TB80WREYTUMIL", "dateTime": 1519669779875}, {"current_trial": 76, "trialdata": {"rt": 4559, "trial_type": "text", "internal_node_id": "0.0-58.0", "time_elapsed": 731173, "key_press": 13, "type": "INSTRUCTIONS", "trial_index": 76}, "uniqueid": "MTK3029:3R2PKQ87NXFCQD9Z2TB80WREYTUMIL", "dateTime": 1519669786437}, {"current_trial": 77, "trialdata": {"rt": [4034, 7918, 10182, 13513, 17290, 20342, 22327], "trial_type": "math-distractor", "key_times": [2671, 3286, 3695, 3774, 4034, 7478, 7702, 7918, 9862, 9991, 10182, 13190, 13271, 13513, 15968, 16054, 16767, 17065, 17290, 19758, 20097, 20342, 21902, 22097, 22327], "responses": ["21", "15", "20", "21", "13", "14", "15"], "num2": [4, 6, 9, 8, 2, 6, 5, 2], "num3": [8, 2, 9, 6, 4, 5, 7, 3], "conditions": [12, 800, "v", 24000], "internal_node_id": "0.0-59.0", "key_presses": [97, 8, 98, 97, 13, 97, 101, 13, 98, 96, 13, 98, 97, 13, 97, 98, 8, 99, 13, 97, 100, 13, 97, 101, 13], "trial": 2, "time_elapsed": 756185, "type": "DISTRACTOR", "trial_index": 77, "num1": [9, 7, 2, 7, 7, 3, 3, 4]}, "uniqueid": "MTK3029:3R2PKQ87NXFCQD9Z2TB80WREYTUMIL", "dateTime": 1519669811449}, {"current_trial": 78, "trialdata": {"rt": -1, "trial_type": "single-stim", "stimulus": "<p id=\"stim\">10</p>", "internal_node_id": "0.0-60.0-0.0", "time_elapsed": 759190, "key_press": -1, "trial_index": 78}, "uniqueid": "MTK3029:3R2PKQ87NXFCQD9Z2TB80WREYTUMIL", "dateTime": 1519669814454}, {"current_trial": 79, "trialdata": {"rt": -1, "trial_type": "single-stim", "stimulus": "<p id=\"stim\">9</p>", "internal_node_id": "0.0-60.0-1.0", "time_elapsed": 760192, "key_press": -1, "trial_index": 79}, "uniqueid": "MTK3029:3R2PKQ87NXFCQD9Z2TB80WREYTUMIL", "dateTime": 1519669815457}, {"current_trial": 80, "trialdata": {"rt": -1, "trial_type": "single-stim", "stimulus": "<p id=\"stim\">8</p>", "internal_node_id": "0.0-60.0-2.0", "time_elapsed": 761194, "key_press": -1, "trial_index": 80}, "uniqueid": "MTK3029:3R2PKQ87NXFCQD9Z2TB80WREYTUMIL", "dateTime": 1519669816458}, {"current_trial": 81, "trialdata": {"rt": -1, "trial_type": "single-stim", "stimulus": "<p id=\"stim\">7</p>", "internal_node_id": "0.0-60.0-3.0", "time_elapsed": 762198, "key_press": -1, "trial_index": 81}, "uniqueid": "MTK3029:3R2PKQ87NXFCQD9Z2TB80WREYTUMIL", "dateTime": 1519669817462}, {"current_trial": 82, "trialdata": {"rt": -1, "trial_type": "single-stim", "stimulus": "<p id=\"stim\">6</p>", "internal_node_id": "0.0-60.0-4.0", "time_elapsed": 763200, "key_press": -1, "trial_index": 82}, "uniqueid": "MTK3029:3R2PKQ87NXFCQD9Z2TB80WREYTUMIL", "dateTime": 1519669818464}, {"current_trial": 83, "trialdata": {"rt": -1, "trial_type": "single-stim", "stimulus": "<p id=\"stim\">5</p>", "internal_node_id": "0.0-60.0-5.0", "time_elapsed": 764203, "key_press": -1, "trial_index": 83}, "uniqueid": "MTK3029:3R2PKQ87NXFCQD9Z2TB80WREYTUMIL", "dateTime": 1519669819467}, {"current_trial": 84, "trialdata": {"rt": -1, "trial_type": "single-stim", "stimulus": "<p id=\"stim\">4</p>", "internal_node_id": "0.0-60.0-6.0", "time_elapsed": 765207, "key_press": -1, "trial_index": 84}, "uniqueid": "MTK3029:3R2PKQ87NXFCQD9Z2TB80WREYTUMIL", "dateTime": 1519669820471}, {"current_trial": 85, "trialdata": {"rt": -1, "trial_type": "single-stim", "stimulus": "<p id=\"stim\">3</p>", "internal_node_id": "0.0-60.0-7.0", "time_elapsed": 766210, "key_press": -1, "trial_index": 85}, "uniqueid": "MTK3029:3R2PKQ87NXFCQD9Z2TB80WREYTUMIL", "dateTime": 1519669821474}, {"current_trial": 86, "trialdata": {"rt": -1, "trial_type": "single-stim", "stimulus": "<p id=\"stim\">2</p>", "internal_node_id": "0.0-60.0-8.0", "time_elapsed": 767212, "key_press": -1, "trial_index": 86}, "uniqueid": "MTK3029:3R2PKQ87NXFCQD9Z2TB80WREYTUMIL", "dateTime": 1519669822477}, {"current_trial": 87, "trialdata": {"rt": -1, "trial_type": "single-stim", "stimulus": "<p id=\"stim\">1</p>", "internal_node_id": "0.0-60.0-9.0", "time_elapsed": 768221, "key_press": -1, "trial_index": 87}, "uniqueid": "MTK3029:3R2PKQ87NXFCQD9Z2TB80WREYTUMIL", "dateTime": 1519669823486}, {"current_trial": 88, "trialdata": {"rt": -1, "trial_type": "single-stim", "stimulus": "<p id=\"stim\">+</p>", "internal_node_id": "0.0-61.0-0.0", "time_elapsed": 769729, "key_press": -1, "type": "FIXATION", "trial_index": 88}, "uniqueid": "MTK3029:3R2PKQ87NXFCQD9Z2TB80WREYTUMIL", "dateTime": 1519669824993}, {"current_trial": 89, "trialdata": {"rt": -1, "trial_type": "single-stim", "word": "salmon", "stimulus": "<p id=\"stim\">SALMON</p>", "conditions": [12, 800, "v", 24000], "internal_node_id": "0.0-62.0", "trial": 2, "time_elapsed": 770531, "serialpos": 0, "key_press": -1, "wordID": 1226, "type": "PRES_VIS", "trial_index": 89}, "uniqueid": "MTK3029:3R2PKQ87NXFCQD9Z2TB80WREYTUMIL", "dateTime": 1519669825796}, {"current_trial": 90, "trialdata": {"rt": -1, "trial_type": "single-stim", "word": "wardrobe", "stimulus": "<p id=\"stim\">WARDROBE</p>", "conditions": [12, 800, "v", 24000], "internal_node_id": "0.0-63.0", "trial": 2, "time_elapsed": 772184, "serialpos": 1, "key_press": -1, "wordID": 1586, "type": "PRES_VIS", "trial_index": 90}, "uniqueid": "MTK3029:3R2PKQ87NXFCQD9Z2TB80WREYTUMIL", "dateTime": 1519669827448}, {"current_trial": 91, "trialdata": {"rt": -1, "trial_type": "single-stim", "word": "fragrance", "stimulus": "<p id=\"stim\">FRAGRANCE</p>", "conditions": [12, 800, "v", 24000], "internal_node_id": "0.0-64.0", "trial": 2, "time_elapsed": 773934, "serialpos": 2, "key_press": -1, "wordID": 598, "type": "PRES_VIS", "trial_index": 91}, "uniqueid": "MTK3029:3R2PKQ87NXFCQD9Z2TB80WREYTUMIL", "dateTime": 1519669829199}, {"current_trial": 92, "trialdata": {"rt": -1, "trial_type": "single-stim", "word": "princess", "stimulus": "<p id=\"stim\">PRINCESS</p>", "conditions": [12, 800, "v", 24000], "internal_node_id": "0.0-65.0", "trial": 2, "time_elapsed": 775828, "serialpos": 3, "key_press": -1, "wordID": 1124, "type": "PRES_VIS", "trial_index": 92}, "uniqueid": "MTK3029:3R2PKQ87NXFCQD9Z2TB80WREYTUMIL", "dateTime": 1519669831093}, {"current_trial": 93, "trialdata": {"rt": -1, "trial_type": "single-stim", "word": "sister", "stimulus": "<p id=\"stim\">SISTER</p>", "conditions": [12, 800, "v", 24000], "internal_node_id": "0.0-66.0", "trial": 2, "time_elapsed": 777779, "serialpos": 4, "key_press": -1, "wordID": 1311, "type": "PRES_VIS", "trial_index": 93}, "uniqueid": "MTK3029:3R2PKQ87NXFCQD9Z2TB80WREYTUMIL", "dateTime": 1519669833043}, {"current_trial": 94, "trialdata": {"rt": -1, "trial_type": "single-stim", "word": "uncle", "stimulus": "<p id=\"stim\">UNCLE</p>", "conditions": [12, 800, "v", 24000], "internal_node_id": "0.0-67.0", "trial": 2, "time_elapsed": 779535, "serialpos": 5, "key_press": -1, "wordID": 1535, "type": "PRES_VIS", "trial_index": 94}, "uniqueid": "MTK3029:3R2PKQ87NXFCQD9Z2TB80WREYTUMIL", "dateTime": 1519669834800}, {"current_trial": 95, "trialdata": {"rt": -1, "trial_type": "single-stim", "word": "queen", "stimulus": "<p id=\"stim\">QUEEN</p>", "conditions": [12, 800, "v", 24000], "internal_node_id": "0.0-68.0", "trial": 2, "time_elapsed": 781304, "serialpos": 6, "key_press": -1, "wordID": 1148, "type": "PRES_VIS", "trial_index": 95}, "uniqueid": "MTK3029:3R2PKQ87NXFCQD9Z2TB80WREYTUMIL", "dateTime": 1519669836568}, {"current_trial": 96, "trialdata": {"rt": -1, "trial_type": "single-stim", "word": "pudding", "stimulus": "<p id=\"stim\">PUDDING</p>", "conditions": [12, 800, "v", 24000], "internal_node_id": "0.0-69.0", "trial": 2, "time_elapsed": 783232, "serialpos": 7, "key_press": -1, "wordID": 1138, "type": "PRES_VIS", "trial_index": 96}, "uniqueid": "MTK3029:3R2PKQ87NXFCQD9Z2TB80WREYTUMIL", "dateTime": 1519669838496}, {"current_trial": 97, "trialdata": {"rt": -1, "trial_type": "single-stim", "word": "climber", "stimulus": "<p id=\"stim\">CLIMBER</p>", "conditions": [12, 800, "v", 24000], "internal_node_id": "0.0-70.0", "trial": 2, "time_elapsed": 785030, "serialpos": 8, "key_press": -1, "wordID": 322, "type": "PRES_VIS", "trial_index": 97}, "uniqueid": "MTK3029:3R2PKQ87NXFCQD9Z2TB80WREYTUMIL", "dateTime": 1519669840295}, {"current_trial": 98, "trialdata": {"rt": -1, "trial_type": "single-stim", "word": "headband", "stimulus": "<p id=\"stim\">HEADBAND</p>", "conditions": [12, 800, "v", 24000], "internal_node_id": "0.0-71.0", "trial": 2, "time_elapsed": 786713, "serialpos": 9, "key_press": -1, "wordID": 695, "type": "PRES_VIS", "trial_index": 98}, "uniqueid": "MTK3029:3R2PKQ87NXFCQD9Z2TB80WREYTUMIL", "dateTime": 1519669841977}, {"current_trial": 99, "trialdata": {"rt": -1, "trial_type": "single-stim", "word": "crayon", "stimulus": "<p id=\"stim\">CRAYON</p>", "conditions": [12, 800, "v", 24000], "internal_node_id": "0.0-72.0", "trial": 2, "time_elapsed": 788632, "serialpos": 10, "key_press": -1, "wordID": 400, "type": "PRES_VIS", "trial_index": 99}, "uniqueid": "MTK3029:3R2PKQ87NXFCQD9Z2TB80WREYTUMIL", "dateTime": 1519669843897}, {"current_trial": 100, "trialdata": {"rt": -1, "trial_type": "single-stim", "word": "salad", "stimulus": "<p id=\"stim\">SALAD</p>", "conditions": [12, 800, "v", 24000], "internal_node_id": "0.0-73.0", "trial": 2, "time_elapsed": 790259, "serialpos": 11, "key_press": -1, "wordID": 1223, "type": "PRES_VIS", "trial_index": 100}, "uniqueid": "MTK3029:3R2PKQ87NXFCQD9Z2TB80WREYTUMIL", "dateTime": 1519669845524}, {"current_trial": 101, "trialdata": {"rt": -1, "trial_type": "single-stim", "stimulus": "", "internal_node_id": "0.0-74.0-0.0", "time_elapsed": 792860, "key_press": -1, "type": "PRE_RECALL_DELAY", "trial_index": 101}, "uniqueid": "MTK3029:3R2PKQ87NXFCQD9Z2TB80WREYTUMIL", "dateTime": 1519669848124}, {"current_trial": 102, "trialdata": {"rt": -1000, "trial_type": "single-audio", "stimulus": "/static/audio/400Hz.wav", "internal_node_id": "0.0-75.0", "time_elapsed": 793363, "key_press": -1, "type": "PRE_RECALL_ALERT", "trial_index": 102}, "uniqueid": "MTK3029:3R2PKQ87NXFCQD9Z2TB80WREYTUMIL", "dateTime": 1519669848628}, {"current_trial": 103, "trialdata": {"rt": [1399, 3131, 4427, 7674, 11387, 16451, 59271], "recwords": ["salad", "headband", "sister", "uncle", "suitcase", "tunnel", ""], "key_times": [622, 719, 869, 987, 1158, 1399, 1804, 1891, 2011, 2150, 2427, 2611, 2739, 3008, 3131, 3354, 3483, 3571, 3939, 4083, 4219, 4427, 5036, 5266, 5754, 5875, 6074, 6460, 6604, 6724, 6875, 7027, 7187, 7674, 10067, 10307, 10363, 10563, 10797, 10876, 10971, 11171, 11387, 15227, 15388, 15611, 15723, 15875, 16027, 16451, 59271], "trial_type": "free-recall", "conditions": [12, 800, "v", 24000], "internal_node_id": "0.0-76.0-0.0", "key_presses": [83, 65, 76, 65, 68, 13, 72, 69, 65, 68, 66, 65, 78, 68, 13, 83, 73, 83, 84, 69, 82, 13, 85, 78, 68, 76, 69, 8, 8, 8, 67, 76, 69, 13, 83, 85, 73, 84, 67, 65, 83, 69, 13, 84, 85, 78, 78, 69, 76, 13, 13], "trial": 2, "time_elapsed": 853380, "type": "FREE_RECALL", "trial_index": 103}, "uniqueid": "MTK3029:3R2PKQ87NXFCQD9Z2TB80WREYTUMIL", "dateTime": 1519669908664}, {"current_trial": 104, "trialdata": {"rt": 1790, "trial_type": "text", "internal_node_id": "0.0-77.0", "time_elapsed": 857192, "key_press": 13, "type": "INSTRUCTIONS", "trial_index": 104}, "uniqueid": "MTK3029:3R2PKQ87NXFCQD9Z2TB80WREYTUMIL", "dateTime": 1519669912456}, {"current_trial": 105, "trialdata": {"rt": [1712, 4472, 7999, 11280, 13912, 16024, 18000, 22192], "trial_type": "math-distractor", "key_times": [1327, 1463, 1712, 4136, 4232, 4472, 7567, 7760, 7999, 10370, 10736, 11280, 13488, 13712, 13912, 15568, 15792, 16024, 17680, 17744, 18000, 20824, 21032, 21680, 21992, 22192, 23640, 23832], "responses": ["15", "12", "18", "13", "17", "17", "12", "13"], "num2": [5, 1, 6, 3, 8, 8, 3, 8, 5], "num3": [3, 8, 9, 1, 5, 1, 3, 5, 1], "conditions": [24, 800, "v", 24000], "internal_node_id": "0.0-78.0", "key_presses": [97, 101, 13, 97, 98, 13, 97, 104, 13, 97, 99, 13, 97, 103, 13, 97, 103, 13, 97, 98, 13, 97, 101, 8, 99, 13, 97, 101], "trial": 3, "time_elapsed": 883202, "type": "DISTRACTOR", "trial_index": 105, "num1": [7, 3, 3, 9, 4, 8, 6, 3, 9]}, "uniqueid": "MTK3029:3R2PKQ87NXFCQD9Z2TB80WREYTUMIL", "dateTime": 1519669938467}, {"current_trial": 106, "trialdata": {"rt": -1, "trial_type": "single-stim", "stimulus": "<p id=\"stim\">10</p>", "internal_node_id": "0.0-79.0-0.0", "time_elapsed": 886263, "key_press": -1, "trial_index": 106}, "uniqueid": "MTK3029:3R2PKQ87NXFCQD9Z2TB80WREYTUMIL", "dateTime": 1519669941527}, {"current_trial": 107, "trialdata": {"rt": -1, "trial_type": "single-stim", "stimulus": "<p id=\"stim\">9</p>", "internal_node_id": "0.0-79.0-1.0", "time_elapsed": 887266, "key_press": -1, "trial_index": 107}, "uniqueid": "MTK3029:3R2PKQ87NXFCQD9Z2TB80WREYTUMIL", "dateTime": 1519669942531}, {"current_trial": 108, "trialdata": {"rt": -1, "trial_type": "single-stim", "stimulus": "<p id=\"stim\">8</p>", "internal_node_id": "0.0-79.0-2.0", "time_elapsed": 888283, "key_press": -1, "trial_index": 108}, "uniqueid": "MTK3029:3R2PKQ87NXFCQD9Z2TB80WREYTUMIL", "dateTime": 1519669943548}, {"current_trial": 109, "trialdata": {"rt": -1, "trial_type": "single-stim", "stimulus": "<p id=\"stim\">7</p>", "internal_node_id": "0.0-79.0-3.0", "time_elapsed": 889292, "key_press": -1, "trial_index": 109}, "uniqueid": "MTK3029:3R2PKQ87NXFCQD9Z2TB80WREYTUMIL", "dateTime": 1519669944557}, {"current_trial": 110, "trialdata": {"rt": -1, "trial_type": "single-stim", "stimulus": "<p id=\"stim\">6</p>", "internal_node_id": "0.0-79.0-4.0", "time_elapsed": 890295, "key_press": -1, "trial_index": 110}, "uniqueid": "MTK3029:3R2PKQ87NXFCQD9Z2TB80WREYTUMIL", "dateTime": 1519669945559}, {"current_trial": 111, "trialdata": {"rt": -1, "trial_type": "single-stim", "stimulus": "<p id=\"stim\">5</p>", "internal_node_id": "0.0-79.0-5.0", "time_elapsed": 891303, "key_press": -1, "trial_index": 111}, "uniqueid": "MTK3029:3R2PKQ87NXFCQD9Z2TB80WREYTUMIL", "dateTime": 1519669946568}, {"current_trial": 112, "trialdata": {"rt": -1, "trial_type": "single-stim", "stimulus": "<p id=\"stim\">4</p>", "internal_node_id": "0.0-79.0-6.0", "time_elapsed": 892308, "key_press": -1, "trial_index": 112}, "uniqueid": "MTK3029:3R2PKQ87NXFCQD9Z2TB80WREYTUMIL", "dateTime": 1519669947572}, {"current_trial": 113, "trialdata": {"rt": -1, "trial_type": "single-stim", "stimulus": "<p id=\"stim\">3</p>", "internal_node_id": "0.0-79.0-7.0", "time_elapsed": 893311, "key_press": -1, "trial_index": 113}, "uniqueid": "MTK3029:3R2PKQ87NXFCQD9Z2TB80WREYTUMIL", "dateTime": 1519669948576}, {"current_trial": 114, "trialdata": {"rt": -1, "trial_type": "single-stim", "stimulus": "<p id=\"stim\">2</p>", "internal_node_id": "0.0-79.0-8.0", "time_elapsed": 894323, "key_press": -1, "trial_index": 114}, "uniqueid": "MTK3029:3R2PKQ87NXFCQD9Z2TB80WREYTUMIL", "dateTime": 1519669949588}, {"current_trial": 115, "trialdata": {"rt": -1, "trial_type": "single-stim", "stimulus": "<p id=\"stim\">1</p>", "internal_node_id": "0.0-79.0-9.0", "time_elapsed": 895327, "key_press": -1, "trial_index": 115}, "uniqueid": "MTK3029:3R2PKQ87NXFCQD9Z2TB80WREYTUMIL", "dateTime": 1519669950592}, {"current_trial": 116, "trialdata": {"rt": -1, "trial_type": "single-stim", "stimulus": "<p id=\"stim\">+</p>", "internal_node_id": "0.0-80.0-0.0", "time_elapsed": 896831, "key_press": -1, "type": "FIXATION", "trial_index": 116}, "uniqueid": "MTK3029:3R2PKQ87NXFCQD9Z2TB80WREYTUMIL", "dateTime": 1519669952096}, {"current_trial": 117, "trialdata": {"rt": -1, "trial_type": "single-stim", "word": "custard", "stimulus": "<p id=\"stim\">CUSTARD</p>", "conditions": [24, 800, "v", 24000], "internal_node_id": "0.0-81.0", "trial": 3, "time_elapsed": 897635, "serialpos": 0, "key_press": -1, "wordID": 428, "type": "PRES_VIS", "trial_index": 117}, "uniqueid": "MTK3029:3R2PKQ87NXFCQD9Z2TB80WREYTUMIL", "dateTime": 1519669952900}, {"current_trial": 118, "trialdata": {"rt": -1, "trial_type": "single-stim", "word": "liver", "stimulus": "<p id=\"stim\">LIVER</p>", "conditions": [24, 800, "v", 24000], "internal_node_id": "0.0-82.0", "trial": 3, "time_elapsed": 899340, "serialpos": 1, "key_press": -1, "wordID": 832, "type": "PRES_VIS", "trial_index": 118}, "uniqueid": "MTK3029:3R2PKQ87NXFCQD9Z2TB80WREYTUMIL", "dateTime": 1519669954605}, {"current_trial": 119, "trialdata": {"rt": -1, "trial_type": "single-stim", "word": "gymnast", "stimulus": "<p id=\"stim\">GYMNAST</p>", "conditions": [24, 800, "v", 24000], "internal_node_id": "0.0-83.0", "trial": 3, "time_elapsed": 901042, "serialpos": 2, "key_press": -1, "wordID": 674, "type": "PRES_VIS", "trial_index": 119}, "uniqueid": "MTK3029:3R2PKQ87NXFCQD9Z2TB80WREYTUMIL", "dateTime": 1519669956306}, {"current_trial": 120, "trialdata": {"rt": -1, "trial_type": "single-stim", "word": "dorm", "stimulus": "<p id=\"stim\">DORM</p>", "conditions": [24, 800, "v", 24000], "internal_node_id": "0.0-84.0", "trial": 3, "time_elapsed": 902906, "serialpos": 3, "key_press": -1, "wordID": 487, "type": "PRES_VIS", "trial_index": 120}, "uniqueid": "MTK3029:3R2PKQ87NXFCQD9Z2TB80WREYTUMIL", "dateTime": 1519669958170}, {"current_trial": 121, "trialdata": {"rt": -1, "trial_type": "single-stim", "word": "jelly", "stimulus": "<p id=\"stim\">JELLY</p>", "conditions": [24, 800, "v", 24000], "internal_node_id": "0.0-85.0", "trial": 3, "time_elapsed": 904658, "serialpos": 4, "key_press": -1, "wordID": 754, "type": "PRES_VIS", "trial_index": 121}, "uniqueid": "MTK3029:3R2PKQ87NXFCQD9Z2TB80WREYTUMIL", "dateTime": 1519669959922}, {"current_trial": 122, "trialdata": {"rt": -1, "trial_type": "single-stim", "word": "pigeon", "stimulus": "<p id=\"stim\">PIGEON</p>", "conditions": [24, 800, "v", 24000], "internal_node_id": "0.0-86.0", "trial": 3, "time_elapsed": 906347, "serialpos": 5, "key_press": -1, "wordID": 1064, "type": "PRES_VIS", "trial_index": 122}, "uniqueid": "MTK3029:3R2PKQ87NXFCQD9Z2TB80WREYTUMIL", "dateTime": 1519669961611}, {"current_trial": 123, "trialdata": {"rt": -1, "trial_type": "single-stim", "word": "virus", "stimulus": "<p id=\"stim\">VIRUS</p>", "conditions": [24, 800, "v", 24000], "internal_node_id": "0.0-87.0", "trial": 3, "time_elapsed": 908216, "serialpos": 6, "key_press": -1, "wordID": 1571, "type": "PRES_VIS", "trial_index": 123}, "uniqueid": "MTK3029:3R2PKQ87NXFCQD9Z2TB80WREYTUMIL", "dateTime": 1519669963481}, {"current_trial": 124, "trialdata": {"rt": -1, "trial_type": "single-stim", "word": "cottage", "stimulus": "<p id=\"stim\">COTTAGE</p>", "conditions": [24, 800, "v", 24000], "internal_node_id": "0.0-88.0", "trial": 3, "time_elapsed": 909985, "serialpos": 7, "key_press": -1, "wordID": 383, "type": "PRES_VIS", "trial_index": 124}, "uniqueid": "MTK3029:3R2PKQ87NXFCQD9Z2TB80WREYTUMIL", "dateTime": 1519669965249}, {"current_trial": 125, "trialdata": {"rt": -1, "trial_type": "single-stim", "word": "valley", "stimulus": "<p id=\"stim\">VALLEY</p>", "conditions": [24, 800, "v", 24000], "internal_node_id": "0.0-89.0", "trial": 3, "time_elapsed": 911707, "serialpos": 8, "key_press": -1, "wordID": 1544, "type": "PRES_VIS", "trial_index": 125}, "uniqueid": "MTK3029:3R2PKQ87NXFCQD9Z2TB80WREYTUMIL", "dateTime": 1519669966972}, {"current_trial": 126, "trialdata": {"rt": -1, "trial_type": "single-stim", "word": "swimmer", "stimulus": "<p id=\"stim\">SWIMMER</p>", "conditions": [24, 800, "v", 24000], "internal_node_id": "0.0-90.0", "trial": 3, "time_elapsed": 913523, "serialpos": 9, "key_press": -1, "wordID": 1419, "type": "PRES_VIS", "trial_index": 126}, "uniqueid": "MTK3029:3R2PKQ87NXFCQD9Z2TB80WREYTUMIL", "dateTime": 1519669968787}, {"current_trial": 127, "trialdata": {"rt": -1, "trial_type": "single-stim", "word": "pimple", "stimulus": "<p id=\"stim\">PIMPLE</p>", "conditions": [24, 800, "v", 24000], "internal_node_id": "0.0-91.0", "trial": 3, "time_elapsed": 915134, "serialpos": 10, "key_press": -1, "wordID": 1070, "type": "PRES_VIS", "trial_index": 127}, "uniqueid": "MTK3029:3R2PKQ87NXFCQD9Z2TB80WREYTUMIL", "dateTime": 1519669970399}, {"current_trial": 128, "trialdata": {"rt": -1, "trial_type": "single-stim", "word": "freckle", "stimulus": "<p id=\"stim\">FRECKLE</p>", "conditions": [24, 800, "v", 24000], "internal_node_id": "0.0-92.0", "trial": 3, "time_elapsed": 916905, "serialpos": 11, "key_press": -1, "wordID": 601, "type": "PRES_VIS", "trial_index": 128}, "uniqueid": "MTK3029:3R2PKQ87NXFCQD9Z2TB80WREYTUMIL", "dateTime": 1519669972169}, {"current_trial": 129, "trialdata": {"rt": -1, "trial_type": "single-stim", "word": "window", "stimulus": "<p id=\"stim\">WINDOW</p>", "conditions": [24, 800, "v", 24000], "internal_node_id": "0.0-93.0", "trial": 3, "time_elapsed": 918625, "serialpos": 12, "key_press": -1, "wordID": 1610, "type": "PRES_VIS", "trial_index": 129}, "uniqueid": "MTK3029:3R2PKQ87NXFCQD9Z2TB80WREYTUMIL", "dateTime": 1519669973890}, {"current_trial": 130, "trialdata": {"rt": -1, "trial_type": "single-stim", "word": "cabbage", "stimulus": "<p id=\"stim\">CABBAGE</p>", "conditions": [24, 800, "v", 24000], "internal_node_id": "0.0-94.0", "trial": 3, "time_elapsed": 920427, "serialpos": 13, "key_press": -1, "wordID": 209, "type": "PRES_VIS", "trial_index": 130}, "uniqueid": "MTK3029:3R2PKQ87NXFCQD9Z2TB80WREYTUMIL", "dateTime": 1519669975691}, {"current_trial": 131, "trialdata": {"rt": -1, "trial_type": "single-stim", "word": "coffee", "stimulus": "<p id=\"stim\">COFFEE</p>", "conditions": [24, 800, "v", 24000], "internal_node_id": "0.0-95.0", "trial": 3, "time_elapsed": 922406, "serialpos": 14, "key_press": -1, "wordID": 340, "type": "PRES_VIS", "trial_index": 131}, "uniqueid": "MTK3029:3R2PKQ87NXFCQD9Z2TB80WREYTUMIL", "dateTime": 1519669977670}, {"current_trial": 132, "trialdata": {"rt": -1, "trial_type": "single-stim", "word": "rooster", "stimulus": "<p id=\"stim\">ROOSTER</p>", "conditions": [24, 800, "v", 24000], "internal_node_id": "0.0-96.0", "trial": 3, "time_elapsed": 924374, "serialpos": 15, "key_press": -1, "wordID": 1208, "type": "PRES_VIS", "trial_index": 132}, "uniqueid": "MTK3029:3R2PKQ87NXFCQD9Z2TB80WREYTUMIL", "dateTime": 1519669979639}, {"current_trial": 133, "trialdata": {"rt": -1, "trial_type": "single-stim", "word": "sunrise", "stimulus": "<p id=\"stim\">SUNRISE</p>", "conditions": [24, 800, "v", 24000], "internal_node_id": "0.0-97.0", "trial": 3, "time_elapsed": 926139, "serialpos": 16, "key_press": -1, "wordID": 1406, "type": "PRES_VIS", "trial_index": 133}, "uniqueid": "MTK3029:3R2PKQ87NXFCQD9Z2TB80WREYTUMIL", "dateTime": 1519669981403}, {"current_trial": 134, "trialdata": {"rt": -1, "trial_type": "single-stim", "word": "sunset", "stimulus": "<p id=\"stim\">SUNSET</p>", "conditions": [24, 800, "v", 24000], "internal_node_id": "0.0-98.0", "trial": 3, "time_elapsed": 928082, "serialpos": 17, "key_press": -1, "wordID": 1407, "type": "PRES_VIS", "trial_index": 134}, "uniqueid": "MTK3029:3R2PKQ87NXFCQD9Z2TB80WREYTUMIL", "dateTime": 1519669983346}, {"current_trial": 135, "trialdata": {"rt": -1, "trial_type": "single-stim", "word": "rabbit", "stimulus": "<p id=\"stim\">RABBIT</p>", "conditions": [24, 800, "v", 24000], "internal_node_id": "0.0-99.0", "trial": 3, "time_elapsed": 929922, "serialpos": 18, "key_press": -1, "wordID": 1151, "type": "PRES_VIS", "trial_index": 135}, "uniqueid": "MTK3029:3R2PKQ87NXFCQD9Z2TB80WREYTUMIL", "dateTime": 1519669985187}, {"current_trial": 136, "trialdata": {"rt": -1, "trial_type": "single-stim", "word": "sticker", "stimulus": "<p id=\"stim\">STICKER</p>", "conditions": [24, 800, "v", 24000], "internal_node_id": "0.0-100.0", "trial": 3, "time_elapsed": 931777, "serialpos": 19, "key_press": -1, "wordID": 1381, "type": "PRES_VIS", "trial_index": 136}, "uniqueid": "MTK3029:3R2PKQ87NXFCQD9Z2TB80WREYTUMIL", "dateTime": 1519669987042}, {"current_trial": 137, "trialdata": {"rt": -1, "trial_type": "single-stim", "word": "fireplace", "stimulus": "<p id=\"stim\">FIREPLACE</p>", "conditions": [24, 800, "v", 24000], "internal_node_id": "0.0-101.0", "trial": 3, "time_elapsed": 933760, "serialpos": 20, "key_press": -1, "wordID": 569, "type": "PRES_VIS", "trial_index": 137}, "uniqueid": "MTK3029:3R2PKQ87NXFCQD9Z2TB80WREYTUMIL", "dateTime": 1519669989025}, {"current_trial": 138, "trialdata": {"rt": -1, "trial_type": "single-stim", "word": "keeper", "stimulus": "<p id=\"stim\">KEEPER</p>", "conditions": [24, 800, "v", 24000], "internal_node_id": "0.0-102.0", "trial": 3, "time_elapsed": 935377, "serialpos": 21, "key_press": -1, "wordID": 768, "type": "PRES_VIS", "trial_index": 138}, "uniqueid": "MTK3029:3R2PKQ87NXFCQD9Z2TB80WREYTUMIL", "dateTime": 1519669990642}, {"current_trial": 139, "trialdata": {"rt": -1, "trial_type": "single-stim", "word": "pepper", "stimulus": "<p id=\"stim\">PEPPER</p>", "conditions": [24, 800, "v", 24000], "internal_node_id": "0.0-103.0", "trial": 3, "time_elapsed": 937033, "serialpos": 22, "key_press": -1, "wordID": 1046, "type": "PRES_VIS", "trial_index": 139}, "uniqueid": "MTK3029:3R2PKQ87NXFCQD9Z2TB80WREYTUMIL", "dateTime": 1519669992297}, {"current_trial": 140, "trialdata": {"rt": -1, "trial_type": "single-stim", "word": "partner", "stimulus": "<p id=\"stim\">PARTNER</p>", "conditions": [24, 800, "v", 24000], "internal_node_id": "0.0-104.0", "trial": 3, "time_elapsed": 938895, "serialpos": 23, "key_press": -1, "wordID": 1016, "type": "PRES_VIS", "trial_index": 140}, "uniqueid": "MTK3029:3R2PKQ87NXFCQD9Z2TB80WREYTUMIL", "dateTime": 1519669994160}, {"current_trial": 141, "trialdata": {"rt": -1, "trial_type": "single-stim", "stimulus": "", "internal_node_id": "0.0-105.0-0.0", "time_elapsed": 941055, "key_press": -1, "type": "PRE_RECALL_DELAY", "trial_index": 141}, "uniqueid": "MTK3029:3R2PKQ87NXFCQD9Z2TB80WREYTUMIL", "dateTime": 1519669996320}, {"current_trial": 142, "trialdata": {"rt": -1000, "trial_type": "single-audio", "stimulus": "/static/audio/400Hz.wav", "internal_node_id": "0.0-106.0", "time_elapsed": 941558, "key_press": -1, "type": "PRE_RECALL_ALERT", "trial_index": 142}, "uniqueid": "MTK3029:3R2PKQ87NXFCQD9Z2TB80WREYTUMIL", "dateTime": 1519669996823}, {"current_trial": 143, "trialdata": {"rt": [2364, 3789, 6389, 8005, 10469, 12558, 13905, 16989, 19589, 23861, 24189, 47302], "recwords": ["pepper", "rabbit", "sunset", "sunrise", "pepper", "liver", "dorm", "virus", "swimmer", "", "", ""], "key_times": [1344, 1558, 1663, 1749, 1862, 1959, 2364, 2801, 2900, 3036, 3158, 3333, 3532, 3789, 4332, 4709, 5084, 5333, 5532, 5973, 6167, 6252, 6389, 6580, 6820, 7013, 7285, 7477, 7644, 7844, 8005, 8836, 8965, 9324, 9621, 9829, 9909, 10469, 11413, 11612, 11676, 11777, 12389, 12558, 12909, 13045, 13333, 13453, 13905, 15789, 15998, 16173, 16669, 16853, 16989, 18189, 18389, 18541, 18805, 18933, 19093, 19181, 19589, 23861, 24189, 47302], "trial_type": "free-recall", "conditions": [24, 800, "v", 24000], "internal_node_id": "0.0-107.0-0.0", "key_presses": [80, 69, 80, 80, 69, 82, 13, 82, 65, 66, 66, 73, 84, 13, 82, 8, 83, 85, 78, 83, 69, 84, 13, 83, 85, 78, 82, 73, 83, 69, 13, 80, 69, 80, 80, 69, 82, 13, 76, 73, 86, 69, 82, 13, 68, 79, 82, 77, 13, 86, 73, 82, 85, 83, 32, 83, 87, 73, 77, 77, 69, 82, 13, 13, 13, 13], "trial": 3, "time_elapsed": 1001570, "type": "FREE_RECALL", "trial_index": 143}, "uniqueid": "MTK3029:3R2PKQ87NXFCQD9Z2TB80WREYTUMIL", "dateTime": 1519670056843}, {"current_trial": 144, "trialdata": {"rt": 866, "trial_type": "text", "internal_node_id": "0.0-108.0", "time_elapsed": 1004452, "key_press": 13, "type": "INSTRUCTIONS", "trial_index": 144}, "uniqueid": "MTK3029:3R2PKQ87NXFCQD9Z2TB80WREYTUMIL", "dateTime": 1519670059716}, {"current_trial": 145, "trialdata": {"rt": [2309, 5358, 7878, 9230, 10903], "trial_type": "math-distractor", "key_times": [1774, 2054, 2309, 4782, 5118, 5358, 7454, 7686, 7878, 9038, 9230, 10542, 10726, 10903], "responses": ["16", "26", "19", "4", "14"], "num2": [4, 9, 3, 1, 4, 9], "num3": [8, 8, 8, 2, 2, 5], "conditions": [24, 1600, "v", 12000], "internal_node_id": "0.0-109.0", "key_presses": [97, 102, 13, 98, 102, 13, 97, 105, 13, 100, 13, 97, 100, 13], "trial": 4, "time_elapsed": 1018548, "type": "DISTRACTOR", "trial_index": 145, "num1": [4, 8, 8, 1, 8, 6]}, "uniqueid": "MTK3029:3R2PKQ87NXFCQD9Z2TB80WREYTUMIL", "dateTime": 1519670073813}, {"current_trial": 146, "trialdata": {"rt": -1, "trial_type": "single-stim", "stimulus": "<p id=\"stim\">10</p>", "internal_node_id": "0.0-110.0-0.0", "time_elapsed": 1021581, "key_press": -1, "trial_index": 146}, "uniqueid": "MTK3029:3R2PKQ87NXFCQD9Z2TB80WREYTUMIL", "dateTime": 1519670076845}, {"current_trial": 147, "trialdata": {"rt": -1, "trial_type": "single-stim", "stimulus": "<p id=\"stim\">9</p>", "internal_node_id": "0.0-110.0-1.0", "time_elapsed": 1022585, "key_press": -1, "trial_index": 147}, "uniqueid": "MTK3029:3R2PKQ87NXFCQD9Z2TB80WREYTUMIL", "dateTime": 1519670077849}, {"current_trial": 148, "trialdata": {"rt": -1, "trial_type": "single-stim", "stimulus": "<p id=\"stim\">8</p>", "internal_node_id": "0.0-110.0-2.0", "time_elapsed": 1023587, "key_press": -1, "trial_index": 148}, "uniqueid": "MTK3029:3R2PKQ87NXFCQD9Z2TB80WREYTUMIL", "dateTime": 1519670078852}, {"current_trial": 149, "trialdata": {"rt": -1, "trial_type": "single-stim", "stimulus": "<p id=\"stim\">7</p>", "internal_node_id": "0.0-110.0-3.0", "time_elapsed": 1024589, "key_press": -1, "trial_index": 149}, "uniqueid": "MTK3029:3R2PKQ87NXFCQD9Z2TB80WREYTUMIL", "dateTime": 1519670079854}, {"current_trial": 150, "trialdata": {"rt": -1, "trial_type": "single-stim", "stimulus": "<p id=\"stim\">6</p>", "internal_node_id": "0.0-110.0-4.0", "time_elapsed": 1025591, "key_press": -1, "trial_index": 150}, "uniqueid": "MTK3029:3R2PKQ87NXFCQD9Z2TB80WREYTUMIL", "dateTime": 1519670080856}, {"current_trial": 151, "trialdata": {"rt": -1, "trial_type": "single-stim", "stimulus": "<p id=\"stim\">5</p>", "internal_node_id": "0.0-110.0-5.0", "time_elapsed": 1026595, "key_press": -1, "trial_index": 151}, "uniqueid": "MTK3029:3R2PKQ87NXFCQD9Z2TB80WREYTUMIL", "dateTime": 1519670081859}, {"current_trial": 152, "trialdata": {"rt": -1, "trial_type": "single-stim", "stimulus": "<p id=\"stim\">4</p>", "internal_node_id": "0.0-110.0-6.0", "time_elapsed": 1027598, "key_press": -1, "trial_index": 152}, "uniqueid": "MTK3029:3R2PKQ87NXFCQD9Z2TB80WREYTUMIL", "dateTime": 1519670082863}, {"current_trial": 153, "trialdata": {"rt": -1, "trial_type": "single-stim", "stimulus": "<p id=\"stim\">3</p>", "internal_node_id": "0.0-110.0-7.0", "time_elapsed": 1028602, "key_press": -1, "trial_index": 153}, "uniqueid": "MTK3029:3R2PKQ87NXFCQD9Z2TB80WREYTUMIL", "dateTime": 1519670083866}, {"current_trial": 154, "trialdata": {"rt": -1, "trial_type": "single-stim", "stimulus": "<p id=\"stim\">2</p>", "internal_node_id": "0.0-110.0-8.0", "time_elapsed": 1029617, "key_press": -1, "trial_index": 154}, "uniqueid": "MTK3029:3R2PKQ87NXFCQD9Z2TB80WREYTUMIL", "dateTime": 1519670084882}, {"current_trial": 155, "trialdata": {"rt": -1, "trial_type": "single-stim", "stimulus": "<p id=\"stim\">1</p>", "internal_node_id": "0.0-110.0-9.0", "time_elapsed": 1030619, "key_press": -1, "trial_index": 155}, "uniqueid": "MTK3029:3R2PKQ87NXFCQD9Z2TB80WREYTUMIL", "dateTime": 1519670085884}, {"current_trial": 156, "trialdata": {"rt": -1, "trial_type": "single-stim", "stimulus": "<p id=\"stim\">+</p>", "internal_node_id": "0.0-111.0-0.0", "time_elapsed": 1032121, "key_press": -1, "type": "FIXATION", "trial_index": 156}, "uniqueid": "MTK3029:3R2PKQ87NXFCQD9Z2TB80WREYTUMIL", "dateTime": 1519670087386}, {"current_trial": 157, "trialdata": {"rt": -1, "trial_type": "single-stim", "word": "plaza", "stimulus": "<p id=\"stim\">PLAZA</p>", "conditions": [24, 1600, "v", 12000], "internal_node_id": "0.0-112.0", "trial": 4, "time_elapsed": 1033725, "serialpos": 0, "key_press": -1, "wordID": 1087, "type": "PRES_VIS", "trial_index": 157}, "uniqueid": "MTK3029:3R2PKQ87NXFCQD9Z2TB80WREYTUMIL", "dateTime": 1519670088990}, {"current_trial": 158, "trialdata": {"rt": -1, "trial_type": "single-stim", "word": "tractor", "stimulus": "<p id=\"stim\">TRACTOR</p>", "conditions": [24, 1600, "v", 12000], "internal_node_id": "0.0-113.0", "trial": 4, "time_elapsed": 1036392, "serialpos": 1, "key_press": -1, "wordID": 1492, "type": "PRES_VIS", "trial_index": 158}, "uniqueid": "MTK3029:3R2PKQ87NXFCQD9Z2TB80WREYTUMIL", "dateTime": 1519670091656}, {"current_trial": 159, "trialdata": {"rt": -1, "trial_type": "single-stim", "word": "tweezers", "stimulus": "<p id=\"stim\">TWEEZERS</p>", "conditions": [24, 1600, "v", 12000], "internal_node_id": "0.0-114.0", "trial": 4, "time_elapsed": 1038862, "serialpos": 2, "key_press": -1, "wordID": 1525, "type": "PRES_VIS", "trial_index": 159}, "uniqueid": "MTK3029:3R2PKQ87NXFCQD9Z2TB80WREYTUMIL", "dateTime": 1519670094126}, {"current_trial": 160, "trialdata": {"rt": -1, "trial_type": "single-stim", "word": "pliers", "stimulus": "<p id=\"stim\">PLIERS</p>", "conditions": [24, 1600, "v", 12000], "internal_node_id": "0.0-115.0", "trial": 4, "time_elapsed": 1041348, "serialpos": 3, "key_press": -1, "wordID": 1088, "type": "PRES_VIS", "trial_index": 160}, "uniqueid": "MTK3029:3R2PKQ87NXFCQD9Z2TB80WREYTUMIL", "dateTime": 1519670096612}, {"current_trial": 161, "trialdata": {"rt": -1, "trial_type": "single-stim", "word": "staple", "stimulus": "<p id=\"stim\">STAPLE</p>", "conditions": [24, 1600, "v", 12000], "internal_node_id": "0.0-116.0", "trial": 4, "time_elapsed": 1043945, "serialpos": 4, "key_press": -1, "wordID": 1370, "type": "PRES_VIS", "trial_index": 161}, "uniqueid": "MTK3029:3R2PKQ87NXFCQD9Z2TB80WREYTUMIL", "dateTime": 1519670099209}, {"current_trial": 162, "trialdata": {"rt": -1, "trial_type": "single-stim", "word": "muffin", "stimulus": "<p id=\"stim\">MUFFIN</p>", "conditions": [24, 1600, "v", 12000], "internal_node_id": "0.0-117.0", "trial": 4, "time_elapsed": 1046606, "serialpos": 5, "key_press": -1, "wordID": 928, "type": "PRES_VIS", "trial_index": 162}, "uniqueid": "MTK3029:3R2PKQ87NXFCQD9Z2TB80WREYTUMIL", "dateTime": 1519670101871}, {"current_trial": 163, "trialdata": {"rt": -1, "trial_type": "single-stim", "word": "hood", "stimulus": "<p id=\"stim\">HOOD</p>", "conditions": [24, 1600, "v", 12000], "internal_node_id": "0.0-118.0", "trial": 4, "time_elapsed": 1049096, "serialpos": 6, "key_press": -1, "wordID": 713, "type": "PRES_VIS", "trial_index": 163}, "uniqueid": "MTK3029:3R2PKQ87NXFCQD9Z2TB80WREYTUMIL", "dateTime": 1519670104360}, {"current_trial": 164, "trialdata": {"rt": -1, "trial_type": "single-stim", "word": "crib", "stimulus": "<p id=\"stim\">CRIB</p>", "conditions": [24, 1600, "v", 12000], "internal_node_id": "0.0-119.0", "trial": 4, "time_elapsed": 1051600, "serialpos": 7, "key_press": -1, "wordID": 406, "type": "PRES_VIS", "trial_index": 164}, "uniqueid": "MTK3029:3R2PKQ87NXFCQD9Z2TB80WREYTUMIL", "dateTime": 1519670106864}, {"current_trial": 165, "trialdata": {"rt": -1, "trial_type": "single-stim", "word": "crutch", "stimulus": "<p id=\"stim\">CRUTCH</p>", "conditions": [24, 1600, "v", 12000], "internal_node_id": "0.0-120.0", "trial": 4, "time_elapsed": 1054227, "serialpos": 8, "key_press": -1, "wordID": 416, "type": "PRES_VIS", "trial_index": 165}, "uniqueid": "MTK3029:3R2PKQ87NXFCQD9Z2TB80WREYTUMIL", "dateTime": 1519670109492}, {"current_trial": 166, "trialdata": {"rt": -1, "trial_type": "single-stim", "word": "mummy", "stimulus": "<p id=\"stim\">MUMMY</p>", "conditions": [24, 1600, "v", 12000], "internal_node_id": "0.0-121.0", "trial": 4, "time_elapsed": 1056909, "serialpos": 9, "key_press": -1, "wordID": 931, "type": "PRES_VIS", "trial_index": 166}, "uniqueid": "MTK3029:3R2PKQ87NXFCQD9Z2TB80WREYTUMIL", "dateTime": 1519670112174}, {"current_trial": 167, "trialdata": {"rt": -1, "trial_type": "single-stim", "word": "sidewalk", "stimulus": "<p id=\"stim\">SIDEWALK</p>", "conditions": [24, 1600, "v", 12000], "internal_node_id": "0.0-122.0", "trial": 4, "time_elapsed": 1059610, "serialpos": 10, "key_press": -1, "wordID": 1302, "type": "PRES_VIS", "trial_index": 167}, "uniqueid": "MTK3029:3R2PKQ87NXFCQD9Z2TB80WREYTUMIL", "dateTime": 1519670114875}, {"current_trial": 168, "trialdata": {"rt": -1, "trial_type": "single-stim", "word": "lettuce", "stimulus": "<p id=\"stim\">LETTUCE</p>", "conditions": [24, 1600, "v", 12000], "internal_node_id": "0.0-123.0", "trial": 4, "time_elapsed": 1062407, "serialpos": 11, "key_press": -1, "wordID": 813, "type": "PRES_VIS", "trial_index": 168}, "uniqueid": "MTK3029:3R2PKQ87NXFCQD9Z2TB80WREYTUMIL", "dateTime": 1519670117671}, {"current_trial": 169, "trialdata": {"rt": -1, "trial_type": "single-stim", "word": "radish", "stimulus": "<p id=\"stim\">RADISH</p>", "conditions": [24, 1600, "v", 12000], "internal_node_id": "0.0-124.0", "trial": 4, "time_elapsed": 1065022, "serialpos": 12, "key_press": -1, "wordID": 1157, "type": "PRES_VIS", "trial_index": 169}, "uniqueid": "MTK3029:3R2PKQ87NXFCQD9Z2TB80WREYTUMIL", "dateTime": 1519670120286}, {"current_trial": 170, "trialdata": {"rt": -1, "trial_type": "single-stim", "word": "actor", "stimulus": "<p id=\"stim\">ACTOR</p>", "conditions": [24, 1600, "v", 12000], "internal_node_id": "0.0-125.0", "trial": 4, "time_elapsed": 1067898, "serialpos": 13, "key_press": -1, "wordID": 4, "type": "PRES_VIS", "trial_index": 170}, "uniqueid": "MTK3029:3R2PKQ87NXFCQD9Z2TB80WREYTUMIL", "dateTime": 1519670123162}, {"current_trial": 171, "trialdata": {"rt": -1, "trial_type": "single-stim", "word": "actress", "stimulus": "<p id=\"stim\">ACTRESS</p>", "conditions": [24, 1600, "v", 12000], "internal_node_id": "0.0-126.0", "trial": 4, "time_elapsed": 1070509, "serialpos": 14, "key_press": -1, "wordID": 5, "type": "PRES_VIS", "trial_index": 171}, "uniqueid": "MTK3029:3R2PKQ87NXFCQD9Z2TB80WREYTUMIL", "dateTime": 1519670125774}, {"current_trial": 172, "trialdata": {"rt": -1, "trial_type": "single-stim", "word": "donkey", "stimulus": "<p id=\"stim\">DONKEY</p>", "conditions": [24, 1600, "v", 12000], "internal_node_id": "0.0-127.0", "trial": 4, "time_elapsed": 1073190, "serialpos": 15, "key_press": -1, "wordID": 483, "type": "PRES_VIS", "trial_index": 172}, "uniqueid": "MTK3029:3R2PKQ87NXFCQD9Z2TB80WREYTUMIL", "dateTime": 1519670128454}, {"current_trial": 173, "trialdata": {"rt": -1, "trial_type": "single-stim", "word": "palace", "stimulus": "<p id=\"stim\">PALACE</p>", "conditions": [24, 1600, "v", 12000], "internal_node_id": "0.0-128.0", "trial": 4, "time_elapsed": 1075811, "serialpos": 16, "key_press": -1, "wordID": 1005, "type": "PRES_VIS", "trial_index": 173}, "uniqueid": "MTK3029:3R2PKQ87NXFCQD9Z2TB80WREYTUMIL", "dateTime": 1519670131076}, {"current_trial": 174, "trialdata": {"rt": -1, "trial_type": "single-stim", "word": "onion", "stimulus": "<p id=\"stim\">ONION</p>", "conditions": [24, 1600, "v", 12000], "internal_node_id": "0.0-129.0", "trial": 4, "time_elapsed": 1078526, "serialpos": 17, "key_press": -1, "wordID": 976, "type": "PRES_VIS", "trial_index": 174}, "uniqueid": "MTK3029:3R2PKQ87NXFCQD9Z2TB80WREYTUMIL", "dateTime": 1519670133790}, {"current_trial": 175, "trialdata": {"rt": -1, "trial_type": "single-stim", "word": "mister", "stimulus": "<p id=\"stim\">MISTER</p>", "conditions": [24, 1600, "v", 12000], "internal_node_id": "0.0-130.0", "trial": 4, "time_elapsed": 1081093, "serialpos": 18, "key_press": -1, "wordID": 900, "type": "PRES_VIS", "trial_index": 175}, "uniqueid": "MTK3029:3R2PKQ87NXFCQD9Z2TB80WREYTUMIL", "dateTime": 1519670136357}, {"current_trial": 176, "trialdata": {"rt": -1, "trial_type": "single-stim", "word": "napkin", "stimulus": "<p id=\"stim\">NAPKIN</p>", "conditions": [24, 1600, "v", 12000], "internal_node_id": "0.0-131.0", "trial": 4, "time_elapsed": 1083786, "serialpos": 19, "key_press": -1, "wordID": 936, "type": "PRES_VIS", "trial_index": 176}, "uniqueid": "MTK3029:3R2PKQ87NXFCQD9Z2TB80WREYTUMIL", "dateTime": 1519670139051}, {"current_trial": 177, "trialdata": {"rt": -1, "trial_type": "single-stim", "word": "bubble", "stimulus": "<p id=\"stim\">BUBBLE</p>", "conditions": [24, 1600, "v", 12000], "internal_node_id": "0.0-132.0", "trial": 4, "time_elapsed": 1086588, "serialpos": 20, "key_press": -1, "wordID": 182, "type": "PRES_VIS", "trial_index": 177}, "uniqueid": "MTK3029:3R2PKQ87NXFCQD9Z2TB80WREYTUMIL", "dateTime": 1519670141853}, {"current_trial": 178, "trialdata": {"rt": -1, "trial_type": "single-stim", "word": "turnip", "stimulus": "<p id=\"stim\">TURNIP</p>", "conditions": [24, 1600, "v", 12000], "internal_node_id": "0.0-133.0", "trial": 4, "time_elapsed": 1089384, "serialpos": 21, "key_press": -1, "wordID": 1520, "type": "PRES_VIS", "trial_index": 178}, "uniqueid": "MTK3029:3R2PKQ87NXFCQD9Z2TB80WREYTUMIL", "dateTime": 1519670144648}, {"current_trial": 179, "trialdata": {"rt": -1, "trial_type": "single-stim", "word": "tortoise", "stimulus": "<p id=\"stim\">TORTOISE</p>", "conditions": [24, 1600, "v", 12000], "internal_node_id": "0.0-134.0", "trial": 4, "time_elapsed": 1092184, "serialpos": 22, "key_press": -1, "wordID": 1485, "type": "PRES_VIS", "trial_index": 179}, "uniqueid": "MTK3029:3R2PKQ87NXFCQD9Z2TB80WREYTUMIL", "dateTime": 1519670147448}, {"current_trial": 180, "trialdata": {"rt": -1, "trial_type": "single-stim", "word": "softball", "stimulus": "<p id=\"stim\">SOFTBALL</p>", "conditions": [24, 1600, "v", 12000], "internal_node_id": "0.0-135.0", "trial": 4, "time_elapsed": 1094810, "serialpos": 23, "key_press": -1, "wordID": 1342, "type": "PRES_VIS", "trial_index": 180}, "uniqueid": "MTK3029:3R2PKQ87NXFCQD9Z2TB80WREYTUMIL", "dateTime": 1519670150074}, {"current_trial": 181, "trialdata": {"rt": -1, "trial_type": "single-stim", "stimulus": "", "internal_node_id": "0.0-136.0-0.0", "time_elapsed": 1097168, "key_press": -1, "type": "PRE_RECALL_DELAY", "trial_index": 181}, "uniqueid": "MTK3029:3R2PKQ87NXFCQD9Z2TB80WREYTUMIL", "dateTime": 1519670152433}, {"current_trial": 182, "trialdata": {"rt": -1000, "trial_type": "single-audio", "stimulus": "/static/audio/400Hz.wav", "internal_node_id": "0.0-137.0", "time_elapsed": 1097671, "key_press": -1, "type": "PRE_RECALL_ALERT", "trial_index": 182}, "uniqueid": "MTK3029:3R2PKQ87NXFCQD9Z2TB80WREYTUMIL", "dateTime": 1519670152936}, {"current_trial": 183, "trialdata": {"rt": [2980, 5241, 9032, 16601, 21137, 22985, 32065, 34129, 49314], "recwords": ["softball", "turnip", "plaza", "staple", "hood", "muffin", "softball", "", ""], "key_times": [771, 1532, 1673, 1888, 2336, 2473, 2585, 2721, 2980, 3313, 3481, 3577, 4081, 4441, 4608, 5241, 7929, 8033, 8136, 8496, 8641, 9032, 14689, 15105, 15249, 15489, 15617, 16345, 16601, 20489, 20713, 20817, 20962, 21137, 21649, 21865, 22060, 22202, 22297, 22497, 22985, 30321, 30497, 30897, 31113, 31481, 31609, 31721, 31849, 32065, 34129, 49314], "trial_type": "free-recall", "conditions": [24, 1600, "v", 12000], "internal_node_id": "0.0-138.0-0.0", "key_presses": [83, 79, 70, 84, 66, 65, 76, 76, 13, 84, 85, 82, 78, 73, 80, 13, 80, 76, 65, 90, 65, 13, 83, 84, 65, 80, 76, 69, 13, 72, 79, 79, 68, 13, 77, 85, 70, 70, 73, 78, 13, 83, 79, 70, 84, 66, 65, 76, 76, 13, 13, 13], "trial": 4, "time_elapsed": 1157703, "type": "FREE_RECALL", "trial_index": 183}, "uniqueid": "MTK3029:3R2PKQ87NXFCQD9Z2TB80WREYTUMIL", "dateTime": 1519670212979}, {"current_trial": 184, "trialdata": {"rt": 1115, "trial_type": "text", "internal_node_id": "0.0-139.0", "time_elapsed": 1160833, "key_press": 13, "type": "INSTRUCTIONS", "trial_index": 184}, "uniqueid": "MTK3029:3R2PKQ87NXFCQD9Z2TB80WREYTUMIL", "dateTime": 1519670216097}, {"current_trial": 185, "trialdata": {"rt": [2177, 6154, 8705], "trial_type": "math-distractor", "key_times": [1817, 1993, 2177, 3961, 4609, 5073, 5714, 6154, 8322, 8537, 8705, 11922], "responses": ["15", "15", "15"], "num2": [1, 7, 4, 1], "num3": [8, 4, 8, 6], "conditions": [24, 800, "v", 12000], "internal_node_id": "0.0-140.0", "key_presses": [97, 101, 13, 100, 8, 97, 101, 13, 97, 101, 13, 97], "trial": 5, "time_elapsed": 1174844, "type": "DISTRACTOR", "trial_index": 185, "num1": [4, 4, 3, 3]}, "uniqueid": "MTK3029:3R2PKQ87NXFCQD9Z2TB80WREYTUMIL", "dateTime": 1519670230109}, {"current_trial": 186, "trialdata": {"rt": -1, "trial_type": "single-stim", "stimulus": "<p id=\"stim\">10</p>", "internal_node_id": "0.0-141.0-0.0", "time_elapsed": 1177849, "key_press": -1, "trial_index": 186}, "uniqueid": "MTK3029:3R2PKQ87NXFCQD9Z2TB80WREYTUMIL", "dateTime": 1519670233114}, {"current_trial": 187, "trialdata": {"rt": -1, "trial_type": "single-stim", "stimulus": "<p id=\"stim\">9</p>", "internal_node_id": "0.0-141.0-1.0", "time_elapsed": 1178851, "key_press": -1, "trial_index": 187}, "uniqueid": "MTK3029:3R2PKQ87NXFCQD9Z2TB80WREYTUMIL", "dateTime": 1519670234116}, {"current_trial": 188, "trialdata": {"rt": -1, "trial_type": "single-stim", "stimulus": "<p id=\"stim\">8</p>", "internal_node_id": "0.0-141.0-2.0", "time_elapsed": 1179855, "key_press": -1, "trial_index": 188}, "uniqueid": "MTK3029:3R2PKQ87NXFCQD9Z2TB80WREYTUMIL", "dateTime": 1519670235119}, {"current_trial": 189, "trialdata": {"rt": -1, "trial_type": "single-stim", "stimulus": "<p id=\"stim\">7</p>", "internal_node_id": "0.0-141.0-3.0", "time_elapsed": 1180857, "key_press": -1, "trial_index": 189}, "uniqueid": "MTK3029:3R2PKQ87NXFCQD9Z2TB80WREYTUMIL", "dateTime": 1519670236122}, {"current_trial": 190, "trialdata": {"rt": -1, "trial_type": "single-stim", "stimulus": "<p id=\"stim\">6</p>", "internal_node_id": "0.0-141.0-4.0", "time_elapsed": 1181860, "key_press": -1, "trial_index": 190}, "uniqueid": "MTK3029:3R2PKQ87NXFCQD9Z2TB80WREYTUMIL", "dateTime": 1519670237125}, {"current_trial": 191, "trialdata": {"rt": -1, "trial_type": "single-stim", "stimulus": "<p id=\"stim\">5</p>", "internal_node_id": "0.0-141.0-5.0", "time_elapsed": 1182884, "key_press": -1, "trial_index": 191}, "uniqueid": "MTK3029:3R2PKQ87NXFCQD9Z2TB80WREYTUMIL", "dateTime": 1519670238148}, {"current_trial": 192, "trialdata": {"rt": -1, "trial_type": "single-stim", "stimulus": "<p id=\"stim\">4</p>", "internal_node_id": "0.0-141.0-6.0", "time_elapsed": 1183890, "key_press": -1, "trial_index": 192}, "uniqueid": "MTK3029:3R2PKQ87NXFCQD9Z2TB80WREYTUMIL", "dateTime": 1519670239155}, {"current_trial": 193, "trialdata": {"rt": -1, "trial_type": "single-stim", "stimulus": "<p id=\"stim\">3</p>", "internal_node_id": "0.0-141.0-7.0", "time_elapsed": 1184893, "key_press": -1, "trial_index": 193}, "uniqueid": "MTK3029:3R2PKQ87NXFCQD9Z2TB80WREYTUMIL", "dateTime": 1519670240158}, {"current_trial": 194, "trialdata": {"rt": -1, "trial_type": "single-stim", "stimulus": "<p id=\"stim\">2</p>", "internal_node_id": "0.0-141.0-8.0", "time_elapsed": 1185896, "key_press": -1, "trial_index": 194}, "uniqueid": "MTK3029:3R2PKQ87NXFCQD9Z2TB80WREYTUMIL", "dateTime": 1519670241160}, {"current_trial": 195, "trialdata": {"rt": -1, "trial_type": "single-stim", "stimulus": "<p id=\"stim\">1</p>", "internal_node_id": "0.0-141.0-9.0", "time_elapsed": 1186898, "key_press": -1, "trial_index": 195}, "uniqueid": "MTK3029:3R2PKQ87NXFCQD9Z2TB80WREYTUMIL", "dateTime": 1519670242163}, {"current_trial": 196, "trialdata": {"rt": -1, "trial_type": "single-stim", "stimulus": "<p id=\"stim\">+</p>", "internal_node_id": "0.0-142.0-0.0", "time_elapsed": 1188402, "key_press": -1, "type": "FIXATION", "trial_index": 196}, "uniqueid": "MTK3029:3R2PKQ87NXFCQD9Z2TB80WREYTUMIL", "dateTime": 1519670243666}, {"current_trial": 197, "trialdata": {"rt": -1, "trial_type": "single-stim", "word": "diner", "stimulus": "<p id=\"stim\">DINER</p>", "conditions": [24, 800, "v", 12000], "internal_node_id": "0.0-143.0", "trial": 5, "time_elapsed": 1189205, "serialpos": 0, "key_press": -1, "wordID": 466, "type": "PRES_VIS", "trial_index": 197}, "uniqueid": "MTK3029:3R2PKQ87NXFCQD9Z2TB80WREYTUMIL", "dateTime": 1519670244469}, {"current_trial": 198, "trialdata": {"rt": -1, "trial_type": "single-stim", "word": "termite", "stimulus": "<p id=\"stim\">TERMITE</p>", "conditions": [24, 800, "v", 12000], "internal_node_id": "0.0-144.0", "trial": 5, "time_elapsed": 1191204, "serialpos": 1, "key_press": -1, "wordID": 1450, "type": "PRES_VIS", "trial_index": 198}, "uniqueid": "MTK3029:3R2PKQ87NXFCQD9Z2TB80WREYTUMIL", "dateTime": 1519670246468}, {"current_trial": 199, "trialdata": {"rt": -1, "trial_type": "single-stim", "word": "fungus", "stimulus": "<p id=\"stim\">FUNGUS</p>", "conditions": [24, 800, "v", 12000], "internal_node_id": "0.0-145.0", "trial": 5, "time_elapsed": 1193008, "serialpos": 2, "key_press": -1, "wordID": 613, "type": "PRES_VIS", "trial_index": 199}, "uniqueid": "MTK3029:3R2PKQ87NXFCQD9Z2TB80WREYTUMIL", "dateTime": 1519670248273}, {"current_trial": 200, "trialdata": {"rt": -1, "trial_type": "single-stim", "word": "suspect", "stimulus": "<p id=\"stim\">SUSPECT</p>", "conditions": [24, 800, "v", 12000], "internal_node_id": "0.0-146.0", "trial": 5, "time_elapsed": 1194825, "serialpos": 3, "key_press": -1, "wordID": 1414, "type": "PRES_VIS", "trial_index": 200}, "uniqueid": "MTK3029:3R2PKQ87NXFCQD9Z2TB80WREYTUMIL", "dateTime": 1519670250090}, {"current_trial": 201, "trialdata": {"rt": -1, "trial_type": "single-stim", "word": "bank", "stimulus": "<p id=\"stim\">BANK</p>", "conditions": [24, 800, "v", 12000], "internal_node_id": "0.0-147.0", "trial": 5, "time_elapsed": 1196697, "serialpos": 4, "key_press": -1, "wordID": 82, "type": "PRES_VIS", "trial_index": 201}, "uniqueid": "MTK3029:3R2PKQ87NXFCQD9Z2TB80WREYTUMIL", "dateTime": 1519670251961}, {"current_trial": 202, "trialdata": {"rt": -1, "trial_type": "single-stim", "word": "breast", "stimulus": "<p id=\"stim\">BREAST</p>", "conditions": [24, 800, "v", 12000], "internal_node_id": "0.0-148.0", "trial": 5, "time_elapsed": 1198507, "serialpos": 5, "key_press": -1, "wordID": 170, "type": "PRES_VIS", "trial_index": 202}, "uniqueid": "MTK3029:3R2PKQ87NXFCQD9Z2TB80WREYTUMIL", "dateTime": 1519670253771}, {"current_trial": 203, "trialdata": {"rt": -1, "trial_type": "single-stim", "word": "rocket", "stimulus": "<p id=\"stim\">ROCKET</p>", "conditions": [24, 800, "v", 12000], "internal_node_id": "0.0-149.0", "trial": 5, "time_elapsed": 1200117, "serialpos": 6, "key_press": -1, "wordID": 1201, "type": "PRES_VIS", "trial_index": 203}, "uniqueid": "MTK3029:3R2PKQ87NXFCQD9Z2TB80WREYTUMIL", "dateTime": 1519670255382}, {"current_trial": 204, "trialdata": {"rt": -1, "trial_type": "single-stim", "word": "monster", "stimulus": "<p id=\"stim\">MONSTER</p>", "conditions": [24, 800, "v", 12000], "internal_node_id": "0.0-150.0", "trial": 5, "time_elapsed": 1201893, "serialpos": 7, "key_press": -1, "wordID": 911, "type": "PRES_VIS", "trial_index": 204}, "uniqueid": "MTK3029:3R2PKQ87NXFCQD9Z2TB80WREYTUMIL", "dateTime": 1519670257157}, {"current_trial": 205, "trialdata": {"rt": -1, "trial_type": "single-stim", "word": "pluto", "stimulus": "<p id=\"stim\">PLUTO</p>", "conditions": [24, 800, "v", 12000], "internal_node_id": "0.0-151.0", "trial": 5, "time_elapsed": 1203862, "serialpos": 8, "key_press": -1, "wordID": 1091, "type": "PRES_VIS", "trial_index": 205}, "uniqueid": "MTK3029:3R2PKQ87NXFCQD9Z2TB80WREYTUMIL", "dateTime": 1519670259127}, {"current_trial": 206, "trialdata": {"rt": -1, "trial_type": "single-stim", "word": "spouse", "stimulus": "<p id=\"stim\">SPOUSE</p>", "conditions": [24, 800, "v", 12000], "internal_node_id": "0.0-152.0", "trial": 5, "time_elapsed": 1205889, "serialpos": 9, "key_press": -1, "wordID": 1357, "type": "PRES_VIS", "trial_index": 206}, "uniqueid": "MTK3029:3R2PKQ87NXFCQD9Z2TB80WREYTUMIL", "dateTime": 1519670261153}, {"current_trial": 207, "trialdata": {"rt": -1, "trial_type": "single-stim", "word": "balloon", "stimulus": "<p id=\"stim\">BALLOON</p>", "conditions": [24, 800, "v", 12000], "internal_node_id": "0.0-153.0", "trial": 5, "time_elapsed": 1207595, "serialpos": 10, "key_press": -1, "wordID": 74, "type": "PRES_VIS", "trial_index": 207}, "uniqueid": "MTK3029:3R2PKQ87NXFCQD9Z2TB80WREYTUMIL", "dateTime": 1519670262859}, {"current_trial": 208, "trialdata": {"rt": -1, "trial_type": "single-stim", "word": "sandwich", "stimulus": "<p id=\"stim\">SANDWICH</p>", "conditions": [24, 800, "v", 12000], "internal_node_id": "0.0-154.0", "trial": 5, "time_elapsed": 1209449, "serialpos": 11, "key_press": -1, "wordID": 1231, "type": "PRES_VIS", "trial_index": 208}, "uniqueid": "MTK3029:3R2PKQ87NXFCQD9Z2TB80WREYTUMIL", "dateTime": 1519670264713}, {"current_trial": 209, "trialdata": {"rt": -1, "trial_type": "single-stim", "word": "picture", "stimulus": "<p id=\"stim\">PICTURE</p>", "conditions": [24, 800, "v", 12000], "internal_node_id": "0.0-155.0", "trial": 5, "time_elapsed": 1211334, "serialpos": 12, "key_press": -1, "wordID": 1060, "type": "PRES_VIS", "trial_index": 209}, "uniqueid": "MTK3029:3R2PKQ87NXFCQD9Z2TB80WREYTUMIL", "dateTime": 1519670266599}, {"current_trial": 210, "trialdata": {"rt": -1, "trial_type": "single-stim", "word": "panther", "stimulus": "<p id=\"stim\">PANTHER</p>", "conditions": [24, 800, "v", 12000], "internal_node_id": "0.0-156.0", "trial": 5, "time_elapsed": 1213299, "serialpos": 13, "key_press": -1, "wordID": 1008, "type": "PRES_VIS", "trial_index": 210}, "uniqueid": "MTK3029:3R2PKQ87NXFCQD9Z2TB80WREYTUMIL", "dateTime": 1519670268564}, {"current_trial": 211, "trialdata": {"rt": -1, "trial_type": "single-stim", "word": "banjo", "stimulus": "<p id=\"stim\">BANJO</p>", "conditions": [24, 800, "v", 12000], "internal_node_id": "0.0-157.0", "trial": 5, "time_elapsed": 1215293, "serialpos": 14, "key_press": -1, "wordID": 81, "type": "PRES_VIS", "trial_index": 211}, "uniqueid": "MTK3029:3R2PKQ87NXFCQD9Z2TB80WREYTUMIL", "dateTime": 1519670270558}, {"current_trial": 212, "trialdata": {"rt": -1, "trial_type": "single-stim", "word": "message", "stimulus": "<p id=\"stim\">MESSAGE</p>", "conditions": [24, 800, "v", 12000], "internal_node_id": "0.0-158.0", "trial": 5, "time_elapsed": 1217196, "serialpos": 15, "key_press": -1, "wordID": 887, "type": "PRES_VIS", "trial_index": 212}, "uniqueid": "MTK3029:3R2PKQ87NXFCQD9Z2TB80WREYTUMIL", "dateTime": 1519670272460}, {"current_trial": 213, "trialdata": {"rt": -1, "trial_type": "single-stim", "word": "sketch", "stimulus": "<p id=\"stim\">SKETCH</p>", "conditions": [24, 800, "v", 12000], "internal_node_id": "0.0-159.0", "trial": 5, "time_elapsed": 1218976, "serialpos": 16, "key_press": -1, "wordID": 1314, "type": "PRES_VIS", "trial_index": 213}, "uniqueid": "MTK3029:3R2PKQ87NXFCQD9Z2TB80WREYTUMIL", "dateTime": 1519670274241}, {"current_trial": 214, "trialdata": {"rt": -1, "trial_type": "single-stim", "word": "mop", "stimulus": "<p id=\"stim\">MOP</p>", "conditions": [24, 800, "v", 12000], "internal_node_id": "0.0-160.0", "trial": 5, "time_elapsed": 1220773, "serialpos": 17, "key_press": -1, "wordID": 915, "type": "PRES_VIS", "trial_index": 214}, "uniqueid": "MTK3029:3R2PKQ87NXFCQD9Z2TB80WREYTUMIL", "dateTime": 1519670276037}, {"current_trial": 215, "trialdata": {"rt": -1, "trial_type": "single-stim", "word": "lizard", "stimulus": "<p id=\"stim\">LIZARD</p>", "conditions": [24, 800, "v", 12000], "internal_node_id": "0.0-161.0", "trial": 5, "time_elapsed": 1222844, "serialpos": 18, "key_press": -1, "wordID": 833, "type": "PRES_VIS", "trial_index": 215}, "uniqueid": "MTK3029:3R2PKQ87NXFCQD9Z2TB80WREYTUMIL", "dateTime": 1519670278109}, {"current_trial": 216, "trialdata": {"rt": -1, "trial_type": "single-stim", "word": "parrot", "stimulus": "<p id=\"stim\">PARROT</p>", "conditions": [24, 800, "v", 12000], "internal_node_id": "0.0-162.0", "trial": 5, "time_elapsed": 1224644, "serialpos": 19, "key_press": -1, "wordID": 1014, "type": "PRES_VIS", "trial_index": 216}, "uniqueid": "MTK3029:3R2PKQ87NXFCQD9Z2TB80WREYTUMIL", "dateTime": 1519670279909}, {"current_trial": 217, "trialdata": {"rt": -1, "trial_type": "single-stim", "word": "padding", "stimulus": "<p id=\"stim\">PADDING</p>", "conditions": [24, 800, "v", 12000], "internal_node_id": "0.0-163.0", "trial": 5, "time_elapsed": 1226669, "serialpos": 20, "key_press": -1, "wordID": 998, "type": "PRES_VIS", "trial_index": 217}, "uniqueid": "MTK3029:3R2PKQ87NXFCQD9Z2TB80WREYTUMIL", "dateTime": 1519670281933}, {"current_trial": 218, "trialdata": {"rt": -1, "trial_type": "single-stim", "word": "blouse", "stimulus": "<p id=\"stim\">BLOUSE</p>", "conditions": [24, 800, "v", 12000], "internal_node_id": "0.0-164.0", "trial": 5, "time_elapsed": 1228552, "serialpos": 21, "key_press": -1, "wordID": 138, "type": "PRES_VIS", "trial_index": 218}, "uniqueid": "MTK3029:3R2PKQ87NXFCQD9Z2TB80WREYTUMIL", "dateTime": 1519670283817}, {"current_trial": 219, "trialdata": {"rt": -1, "trial_type": "single-stim", "word": "snake", "stimulus": "<p id=\"stim\">SNAKE</p>", "conditions": [24, 800, "v", 12000], "internal_node_id": "0.0-165.0", "trial": 5, "time_elapsed": 1230173, "serialpos": 22, "key_press": -1, "wordID": 1332, "type": "PRES_VIS", "trial_index": 219}, "uniqueid": "MTK3029:3R2PKQ87NXFCQD9Z2TB80WREYTUMIL", "dateTime": 1519670285438}, {"current_trial": 220, "trialdata": {"rt": -1, "trial_type": "single-stim", "word": "fox", "stimulus": "<p id=\"stim\">FOX</p>", "conditions": [24, 800, "v", 12000], "internal_node_id": "0.0-166.0", "trial": 5, "time_elapsed": 1232071, "serialpos": 23, "key_press": -1, "wordID": 597, "type": "PRES_VIS", "trial_index": 220}, "uniqueid": "MTK3029:3R2PKQ87NXFCQD9Z2TB80WREYTUMIL", "dateTime": 1519670287335}, {"current_trial": 221, "trialdata": {"rt": -1, "trial_type": "single-stim", "stimulus": "", "internal_node_id": "0.0-167.0-0.0", "time_elapsed": 1234390, "key_press": -1, "type": "PRE_RECALL_DELAY", "trial_index": 221}, "uniqueid": "MTK3029:3R2PKQ87NXFCQD9Z2TB80WREYTUMIL", "dateTime": 1519670289655}, {"current_trial": 222, "trialdata": {"rt": -1000, "trial_type": "single-audio", "stimulus": "/static/audio/400Hz.wav", "internal_node_id": "0.0-168.0", "time_elapsed": 1234893, "key_press": -1, "type": "PRE_RECALL_ALERT", "trial_index": 222}, "uniqueid": "MTK3029:3R2PKQ87NXFCQD9Z2TB80WREYTUMIL", "dateTime": 1519670290157}, {"current_trial": 223, "trialdata": {"rt": [2151, 3456, 4639, 8743, 20559, 45135], "recwords": ["message", "padding", "snake", "plaza", "breast", "snake"], "key_times": [216, 344, 642, 992, 1075, 1203, 1434, 1607, 1759, 2151, 2463, 2594, 2798, 2930, 3056, 3127, 3232, 3456, 3783, 3895, 4023, 4198, 4375, 4639, 7951, 8070, 8167, 8358, 8537, 8743, 16263, 16767, 19479, 19735, 19831, 19959, 20215, 20384, 20559, 44464, 44568, 44719, 44808, 44951, 45135, 47831, 47968, 48153, 48168, 48240, 48328, 48768, 48872, 48984, 49472, 49608, 49728, 49848], "trial_type": "free-recall", "conditions": [24, 800, "v", 12000], "internal_node_id": "0.0-169.0-0.0", "key_presses": [77, 69, 68, 8, 83, 83, 65, 71, 69, 13, 80, 65, 68, 68, 73, 78, 71, 13, 83, 78, 65, 75, 69, 13, 80, 76, 65, 90, 65, 13, 83, 8, 66, 82, 69, 65, 83, 84, 13, 83, 78, 65, 75, 69, 13, 86, 73, 80, 219, 69, 82, 8, 8, 8, 8, 8, 8, 8], "trial": 5, "time_elapsed": 1294904, "type": "FREE_RECALL", "trial_index": 223}, "uniqueid": "MTK3029:3R2PKQ87NXFCQD9Z2TB80WREYTUMIL", "dateTime": 1519670350181}, {"current_trial": 224, "trialdata": {"rt": 1877, "trial_type": "text", "internal_node_id": "0.0-170.0", "time_elapsed": 1298797, "key_press": 13, "type": "INSTRUCTIONS", "trial_index": 224}, "uniqueid": "MTK3029:3R2PKQ87NXFCQD9Z2TB80WREYTUMIL", "dateTime": 1519670354062}, {"current_trial": 225, "trialdata": {"rt": [2277, 4117, 5925, 8181, 10493], "trial_type": "math-distractor", "key_times": [1941, 2101, 2277, 3677, 3901, 4117, 5581, 5693, 5925, 7709, 7974, 8181, 10141, 10246, 10493, 11710, 11958], "responses": ["14", "18", "11", "17", "12"], "num2": [2, 8, 2, 9, 6, 9], "num3": [6, 7, 7, 4, 1, 8], "conditions": [12, 800, "v", 12000], "internal_node_id": "0.0-171.0", "key_presses": [97, 100, 13, 97, 104, 13, 97, 97, 13, 97, 103, 13, 97, 98, 13, 97, 104], "trial": 6, "time_elapsed": 1312811, "type": "DISTRACTOR", "trial_index": 225, "num1": [6, 3, 2, 4, 5, 1]}, "uniqueid": "MTK3029:3R2PKQ87NXFCQD9Z2TB80WREYTUMIL", "dateTime": 1519670368075}, {"current_trial": 226, "trialdata": {"rt": -1, "trial_type": "single-stim", "stimulus": "<p id=\"stim\">10</p>", "internal_node_id": "0.0-172.0-0.0", "time_elapsed": 1315814, "key_press": -1, "trial_index": 226}, "uniqueid": "MTK3029:3R2PKQ87NXFCQD9Z2TB80WREYTUMIL", "dateTime": 1519670371079}, {"current_trial": 227, "trialdata": {"rt": -1, "trial_type": "single-stim", "stimulus": "<p id=\"stim\">9</p>", "internal_node_id": "0.0-172.0-1.0", "time_elapsed": 1316817, "key_press": -1, "trial_index": 227}, "uniqueid": "MTK3029:3R2PKQ87NXFCQD9Z2TB80WREYTUMIL", "dateTime": 1519670372081}, {"current_trial": 228, "trialdata": {"rt": -1, "trial_type": "single-stim", "stimulus": "<p id=\"stim\">8</p>", "internal_node_id": "0.0-172.0-2.0", "time_elapsed": 1317819, "key_press": -1, "trial_index": 228}, "uniqueid": "MTK3029:3R2PKQ87NXFCQD9Z2TB80WREYTUMIL", "dateTime": 1519670373083}, {"current_trial": 229, "trialdata": {"rt": -1, "trial_type": "single-stim", "stimulus": "<p id=\"stim\">7</p>", "internal_node_id": "0.0-172.0-3.0", "time_elapsed": 1318822, "key_press": -1, "trial_index": 229}, "uniqueid": "MTK3029:3R2PKQ87NXFCQD9Z2TB80WREYTUMIL", "dateTime": 1519670374087}, {"current_trial": 230, "trialdata": {"rt": -1, "trial_type": "single-stim", "stimulus": "<p id=\"stim\">6</p>", "internal_node_id": "0.0-172.0-4.0", "time_elapsed": 1319824, "key_press": -1, "trial_index": 230}, "uniqueid": "MTK3029:3R2PKQ87NXFCQD9Z2TB80WREYTUMIL", "dateTime": 1519670375089}, {"current_trial": 231, "trialdata": {"rt": -1, "trial_type": "single-stim", "stimulus": "<p id=\"stim\">5</p>", "internal_node_id": "0.0-172.0-5.0", "time_elapsed": 1320827, "key_press": -1, "trial_index": 231}, "uniqueid": "MTK3029:3R2PKQ87NXFCQD9Z2TB80WREYTUMIL", "dateTime": 1519670376091}, {"current_trial": 232, "trialdata": {"rt": -1, "trial_type": "single-stim", "stimulus": "<p id=\"stim\">4</p>", "internal_node_id": "0.0-172.0-6.0", "time_elapsed": 1321830, "key_press": -1, "trial_index": 232}, "uniqueid": "MTK3029:3R2PKQ87NXFCQD9Z2TB80WREYTUMIL", "dateTime": 1519670377094}, {"current_trial": 233, "trialdata": {"rt": -1, "trial_type": "single-stim", "stimulus": "<p id=\"stim\">3</p>", "internal_node_id": "0.0-172.0-7.0", "time_elapsed": 1322832, "key_press": -1, "trial_index": 233}, "uniqueid": "MTK3029:3R2PKQ87NXFCQD9Z2TB80WREYTUMIL", "dateTime": 1519670378097}, {"current_trial": 234, "trialdata": {"rt": -1, "trial_type": "single-stim", "stimulus": "<p id=\"stim\">2</p>", "internal_node_id": "0.0-172.0-8.0", "time_elapsed": 1323835, "key_press": -1, "trial_index": 234}, "uniqueid": "MTK3029:3R2PKQ87NXFCQD9Z2TB80WREYTUMIL", "dateTime": 1519670379099}, {"current_trial": 235, "trialdata": {"rt": -1, "trial_type": "single-stim", "stimulus": "<p id=\"stim\">1</p>", "internal_node_id": "0.0-172.0-9.0", "time_elapsed": 1324837, "key_press": -1, "trial_index": 235}, "uniqueid": "MTK3029:3R2PKQ87NXFCQD9Z2TB80WREYTUMIL", "dateTime": 1519670380102}, {"current_trial": 236, "trialdata": {"rt": -1, "trial_type": "single-stim", "stimulus": "<p id=\"stim\">+</p>", "internal_node_id": "0.0-173.0-0.0", "time_elapsed": 1326339, "key_press": -1, "type": "FIXATION", "trial_index": 236}, "uniqueid": "MTK3029:3R2PKQ87NXFCQD9Z2TB80WREYTUMIL", "dateTime": 1519670381604}, {"current_trial": 237, "trialdata": {"rt": -1, "trial_type": "single-stim", "word": "nurse", "stimulus": "<p id=\"stim\">NURSE</p>", "conditions": [12, 800, "v", 12000], "internal_node_id": "0.0-174.0", "trial": 6, "time_elapsed": 1327144, "serialpos": 0, "key_press": -1, "wordID": 962, "type": "PRES_VIS", "trial_index": 237}, "uniqueid": "MTK3029:3R2PKQ87NXFCQD9Z2TB80WREYTUMIL", "dateTime": 1519670382408}, {"current_trial": 238, "trialdata": {"rt": -1, "trial_type": "single-stim", "word": "patient", "stimulus": "<p id=\"stim\">PATIENT</p>", "conditions": [12, 800, "v", 12000], "internal_node_id": "0.0-175.0", "trial": 6, "time_elapsed": 1329112, "serialpos": 1, "key_press": -1, "wordID": 1023, "type": "PRES_VIS", "trial_index": 238}, "uniqueid": "MTK3029:3R2PKQ87NXFCQD9Z2TB80WREYTUMIL", "dateTime": 1519670384377}, {"current_trial": 239, "trialdata": {"rt": -1, "trial_type": "single-stim", "word": "table", "stimulus": "<p id=\"stim\">TABLE</p>", "conditions": [12, 800, "v", 12000], "internal_node_id": "0.0-176.0", "trial": 6, "time_elapsed": 1330883, "serialpos": 2, "key_press": -1, "wordID": 1425, "type": "PRES_VIS", "trial_index": 239}, "uniqueid": "MTK3029:3R2PKQ87NXFCQD9Z2TB80WREYTUMIL", "dateTime": 1519670386148}, {"current_trial": 240, "trialdata": {"rt": -1, "trial_type": "single-stim", "word": "knife", "stimulus": "<p id=\"stim\">KNIFE</p>", "conditions": [12, 800, "v", 12000], "internal_node_id": "0.0-177.0", "trial": 6, "time_elapsed": 1332842, "serialpos": 3, "key_press": -1, "wordID": 784, "type": "PRES_VIS", "trial_index": 240}, "uniqueid": "MTK3029:3R2PKQ87NXFCQD9Z2TB80WREYTUMIL", "dateTime": 1519670388107}, {"current_trial": 241, "trialdata": {"rt": -1, "trial_type": "single-stim", "word": "spool", "stimulus": "<p id=\"stim\">SPOOL</p>", "conditions": [12, 800, "v", 12000], "internal_node_id": "0.0-178.0", "trial": 6, "time_elapsed": 1334617, "serialpos": 4, "key_press": -1, "wordID": 1355, "type": "PRES_VIS", "trial_index": 241}, "uniqueid": "MTK3029:3R2PKQ87NXFCQD9Z2TB80WREYTUMIL", "dateTime": 1519670389881}, {"current_trial": 242, "trialdata": {"rt": -1, "trial_type": "single-stim", "word": "bacon", "stimulus": "<p id=\"stim\">BACON</p>", "conditions": [12, 800, "v", 12000], "internal_node_id": "0.0-179.0", "trial": 6, "time_elapsed": 1336393, "serialpos": 5, "key_press": -1, "wordID": 66, "type": "PRES_VIS", "trial_index": 242}, "uniqueid": "MTK3029:3R2PKQ87NXFCQD9Z2TB80WREYTUMIL", "dateTime": 1519670391657}, {"current_trial": 243, "trialdata": {"rt": -1, "trial_type": "single-stim", "word": "pistol", "stimulus": "<p id=\"stim\">PISTOL</p>", "conditions": [12, 800, "v", 12000], "internal_node_id": "0.0-180.0", "trial": 6, "time_elapsed": 1338210, "serialpos": 6, "key_press": -1, "wordID": 1074, "type": "PRES_VIS", "trial_index": 243}, "uniqueid": "MTK3029:3R2PKQ87NXFCQD9Z2TB80WREYTUMIL", "dateTime": 1519670393475}, {"current_trial": 244, "trialdata": {"rt": -1, "trial_type": "single-stim", "word": "lamp", "stimulus": "<p id=\"stim\">LAMP</p>", "conditions": [12, 800, "v", 12000], "internal_node_id": "0.0-181.0", "trial": 6, "time_elapsed": 1340027, "serialpos": 7, "key_press": -1, "wordID": 797, "type": "PRES_VIS", "trial_index": 244}, "uniqueid": "MTK3029:3R2PKQ87NXFCQD9Z2TB80WREYTUMIL", "dateTime": 1519670395292}, {"current_trial": 245, "trialdata": {"rt": -1, "trial_type": "single-stim", "word": "hostess", "stimulus": "<p id=\"stim\">HOSTESS</p>", "conditions": [12, 800, "v", 12000], "internal_node_id": "0.0-182.0", "trial": 6, "time_elapsed": 1341926, "serialpos": 8, "key_press": -1, "wordID": 722, "type": "PRES_VIS", "trial_index": 245}, "uniqueid": "MTK3029:3R2PKQ87NXFCQD9Z2TB80WREYTUMIL", "dateTime": 1519670397190}, {"current_trial": 246, "trialdata": {"rt": -1, "trial_type": "single-stim", "word": "item", "stimulus": "<p id=\"stim\">ITEM</p>", "conditions": [12, 800, "v", 12000], "internal_node_id": "0.0-183.0", "trial": 6, "time_elapsed": 1343627, "serialpos": 9, "key_press": -1, "wordID": 745, "type": "PRES_VIS", "trial_index": 246}, "uniqueid": "MTK3029:3R2PKQ87NXFCQD9Z2TB80WREYTUMIL", "dateTime": 1519670398892}, {"current_trial": 247, "trialdata": {"rt": -1, "trial_type": "single-stim", "word": "sausage", "stimulus": "<p id=\"stim\">SAUSAGE</p>", "conditions": [12, 800, "v", 12000], "internal_node_id": "0.0-184.0", "trial": 6, "time_elapsed": 1345377, "serialpos": 10, "key_press": -1, "wordID": 1237, "type": "PRES_VIS", "trial_index": 247}, "uniqueid": "MTK3029:3R2PKQ87NXFCQD9Z2TB80WREYTUMIL", "dateTime": 1519670400642}, {"current_trial": 248, "trialdata": {"rt": -1, "trial_type": "single-stim", "word": "carrot", "stimulus": "<p id=\"stim\">CARROT</p>", "conditions": [12, 800, "v", 12000], "internal_node_id": "0.0-185.0", "trial": 6, "time_elapsed": 1347138, "serialpos": 11, "key_press": -1, "wordID": 248, "type": "PRES_VIS", "trial_index": 248}, "uniqueid": "MTK3029:3R2PKQ87NXFCQD9Z2TB80WREYTUMIL", "dateTime": 1519670402403}, {"current_trial": 249, "trialdata": {"rt": -1, "trial_type": "single-stim", "stimulus": "", "internal_node_id": "0.0-186.0-0.0", "time_elapsed": 1349524, "key_press": -1, "type": "PRE_RECALL_DELAY", "trial_index": 249}, "uniqueid": "MTK3029:3R2PKQ87NXFCQD9Z2TB80WREYTUMIL", "dateTime": 1519670404788}, {"current_trial": 250, "trialdata": {"rt": -1000, "trial_type": "single-audio", "stimulus": "/static/audio/400Hz.wav", "internal_node_id": "0.0-187.0", "time_elapsed": 1350059, "key_press": -1, "type": "PRE_RECALL_ALERT", "trial_index": 250}, "uniqueid": "MTK3029:3R2PKQ87NXFCQD9Z2TB80WREYTUMIL", "dateTime": 1519670405324}, {"current_trial": 251, "trialdata": {"rt": [3116, 4421, 7853, 9701, 10788, 15181, 39894, 49110, 51238], "recwords": ["carrot", "knife", "pistol", "nurse", "table", "item", "", "patient", ""], "key_times": [738, 821, 1186, 1793, 1859, 1941, 2224, 2952, 3116, 3556, 3716, 3956, 4173, 4276, 4421, 4813, 5029, 5165, 5396, 6421, 7093, 7853, 8373, 8788, 9157, 9413, 9533, 9701, 9926, 10053, 10213, 10429, 10597, 10788, 13741, 13950, 14037, 14317, 15181, 39894, 47646, 47742, 48070, 48231, 48470, 48622, 48918, 49110, 51238], "trial_type": "free-recall", "conditions": [12, 800, "v", 12000], "internal_node_id": "0.0-188.0-0.0", "key_presses": [67, 65, 79, 8, 82, 82, 79, 84, 13, 75, 78, 73, 70, 69, 13, 80, 73, 83, 84, 79, 76, 13, 78, 85, 82, 83, 69, 13, 84, 65, 66, 76, 69, 32, 73, 84, 69, 77, 13, 13, 80, 65, 84, 73, 69, 78, 84, 13, 13], "trial": 6, "time_elapsed": 1410068, "type": "FREE_RECALL", "trial_index": 251}, "uniqueid": "MTK3029:3R2PKQ87NXFCQD9Z2TB80WREYTUMIL", "dateTime": 1519670465343}, {"current_trial": 252, "trialdata": {"rt": 8031, "trial_typ