{"assignmentId": "30LSNF239V2MJ956SBSOLNDGT11I25", "workerId": "MTK3647", "questiondata": {"avail_screen_height": 720, "color_depth": 24, "screen_width": 1366, "pixel_depth": 24, "avail_screen_width": 1366, "screen_height": 768}, "bonus": 0, "hitId": "34ZTTGSNJXV1SDYDY2V2S9EKOGXHQY", "counterbalance": 472, "useragent": "Mozilla/5.0 (X11; CrOS x86_64 10032.86.0) AppleWebKit/537.36 (KHTML, like Gecko) Chrome/63.0.3239.140 Safari/537.36", "eventdata": [{"eventtype": "initialized", "interval": 0, "value": null, "timestamp": 1520876376032}, {"eventtype": "window_resize", "interval": 0, "value": [1366, 656], "timestamp": 1520876376032}], "data": [{"current_trial": 0, "trialdata": {"rt": 139017, "trial_type": "text", "internal_node_id": "0.0-0.0", "time_elapsed": 139027, "key_press": 74, "type": "INSTRUCTIONS", "trial_index": 0}, "uniqueid": "MTK3647:30LSNF239V2MJ956SBSOLNDGT11I25", "dateTime": 1520876536377}, {"current_trial": 1, "trialdata": {"rt": 9405, "trial_type": "text", "internal_node_id": "0.0-1.0", "time_elapsed": 148440, "key_press": 75, "type": "INSTRUCTIONS", "trial_index": 1}, "uniqueid": "MTK3647:30LSNF239V2MJ956SBSOLNDGT11I25", "dateTime": 1520876545787}, {"current_trial": 2, "trialdata": {"rt": [14551], "trial_type": "audio-test", "responses": ["ocean"], "internal_node_id": "0.0-2.0", "time_elapsed": 163063, "type": "AUDIO_TEST", "trial_index": 2}, "uniqueid": "MTK3647:30LSNF239V2MJ956SBSOLNDGT11I25", "dateTime": 1520876560411}, {"current_trial": 3, "trialdata": {"rt": [5240], "trial_type": "audio-test", "responses": ["crystal"], "internal_node_id": "0.0-3.0", "time_elapsed": 168321, "type": "AUDIO_TEST", "trial_index": 3}, "uniqueid": "MTK3647:30LSNF239V2MJ956SBSOLNDGT11I25", "dateTime": 1520876565669}, {"current_trial": 4, "trialdata": {"rt": [8545], "trial_type": "audio-test", "responses": ["spice"], "internal_node_id": "0.0-4.0", "time_elapsed": 176879, "type": "AUDIO_TEST", "trial_index": 4}, "uniqueid": "MTK3647:30LSNF239V2MJ956SBSOLNDGT11I25", "dateTime": 1520876574227}, {"current_trial": 5, "trialdata": {"rt": 13319, "trial_type": "survey-text", "responses": "{\"Q0\":\"10:00PM\",\"Q1\":\"8:00AM\",\"Q2\":\"5\"}", "internal_node_id": "0.0-5.0", "time_elapsed": 190955, "type": "SLEEP_SURVEY", "trial_index": 5}, "uniqueid": "MTK3647:30LSNF239V2MJ956SBSOLNDGT11I25", "dateTime": 1520876588303}, {"current_trial": 6, "trialdata": {"rt": 10657, "trial_type": "text", "internal_node_id": "0.0-6.0", "time_elapsed": 202618, "key_press": 32, "type": "INSTRUCTIONS", "trial_index": 6}, "uniqueid": "MTK3647:30LSNF239V2MJ956SBSOLNDGT11I25", "dateTime": 1520876599965}, {"current_trial": 7, "trialdata": {"rt": 11271, "trial_type": "text", "internal_node_id": "0.0-7.0", "time_elapsed": 214392, "key_press": 32, "type": "INSTRUCTIONS", "trial_index": 7}, "uniqueid": "MTK3647:30LSNF239V2MJ956SBSOLNDGT11I25", "dateTime": 1520876611739}, {"current_trial": 8, "trialdata": {"rt": 9943, "trial_type": "text", "internal_node_id": "0.0-8.0", "time_elapsed": 224838, "key_press": 32, "type": "INSTRUCTIONS", "trial_index": 8}, "uniqueid": "MTK3647:30LSNF239V2MJ956SBSOLNDGT11I25", "dateTime": 1520876622185}, {"current_trial": 9, "trialdata": {"rt": [5346, 10961, 14882], "trial_type": "math-distractor", "key_times": [3734, 3907, 4319, 5346, 9392, 9513, 10961, 13232, 14286, 14882], "responses": ["11 ", "13", "15"], "num2": [6, 6, 6, 5], "num3": [1, 3, 3, 9], "conditions": [18, 1200, "a", 18000], "internal_node_id": "0.0-9.0", "key_presses": [49, 49, 32, 13, 49, 51, 13, 49, 53, 13], "trial": 0, "time_elapsed": 243884, "type": "DISTRACTOR", "trial_index": 9, "num1": [4, 4, 6, 1]}, "uniqueid": "MTK3647:30LSNF239V2MJ956SBSOLNDGT11I25", "dateTime": 1520876641232}, {"current_trial": 10, "trialdata": {"rt": -1, "trial_type": "single-stim", "stimulus": "<p id=\"stim\">10</p>", "internal_node_id": "0.0-10.0-0.0", "time_elapsed": 246892, "key_press": -1, "trial_index": 10}, "uniqueid": "MTK3647:30LSNF239V2MJ956SBSOLNDGT11I25", "dateTime": 1520876644240}, {"current_trial": 11, "trialdata": {"rt": -1, "trial_type": "single-stim", "stimulus": "<p id=\"stim\">9</p>", "internal_node_id": "0.0-10.0-1.0", "time_elapsed": 247896, "key_press": -1, "trial_index": 11}, "uniqueid": "MTK3647:30LSNF239V2MJ956SBSOLNDGT11I25", "dateTime": 1520876645243}, {"current_trial": 12, "trialdata": {"rt": -1, "trial_type": "single-stim", "stimulus": "<p id=\"stim\">8</p>", "internal_node_id": "0.0-10.0-2.0", "time_elapsed": 248899, "key_press": -1, "trial_index": 12}, "uniqueid": "MTK3647:30LSNF239V2MJ956SBSOLNDGT11I25", "dateTime": 1520876646246}, {"current_trial": 13, "trialdata": {"rt": -1, "trial_type": "single-stim", "stimulus": "<p id=\"stim\">7</p>", "internal_node_id": "0.0-10.0-3.0", "time_elapsed": 249905, "key_press": -1, "trial_index": 13}, "uniqueid": "MTK3647:30LSNF239V2MJ956SBSOLNDGT11I25", "dateTime": 1520876647252}, {"current_trial": 14, "trialdata": {"rt": -1, "trial_type": "single-stim", "stimulus": "<p id=\"stim\">6</p>", "internal_node_id": "0.0-10.0-4.0", "time_elapsed": 250911, "key_press": -1, "trial_index": 14}, "uniqueid": "MTK3647:30LSNF239V2MJ956SBSOLNDGT11I25", "dateTime": 1520876648259}, {"current_trial": 15, "trialdata": {"rt": -1, "trial_type": "single-stim", "stimulus": "<p id=\"stim\">5</p>", "internal_node_id": "0.0-10.0-5.0", "time_elapsed": 251917, "key_press": -1, "trial_index": 15}, "uniqueid": "MTK3647:30LSNF239V2MJ956SBSOLNDGT11I25", "dateTime": 1520876649264}, {"current_trial": 16, "trialdata": {"rt": -1, "trial_type": "single-stim", "stimulus": "<p id=\"stim\">4</p>", "internal_node_id": "0.0-10.0-6.0", "time_elapsed": 252920, "key_press": -1, "trial_index": 16}, "uniqueid": "MTK3647:30LSNF239V2MJ956SBSOLNDGT11I25", "dateTime": 1520876650268}, {"current_trial": 17, "trialdata": {"rt": -1, "trial_type": "single-stim", "stimulus": "<p id=\"stim\">3</p>", "internal_node_id": "0.0-10.0-7.0", "time_elapsed": 253930, "key_press": -1, "trial_index": 17}, "uniqueid": "MTK3647:30LSNF239V2MJ956SBSOLNDGT11I25", "dateTime": 1520876651277}, {"current_trial": 18, "trialdata": {"rt": -1, "trial_type": "single-stim", "stimulus": "<p id=\"stim\">2</p>", "internal_node_id": "0.0-10.0-8.0", "time_elapsed": 254936, "key_press": -1, "trial_index": 18}, "uniqueid": "MTK3647:30LSNF239V2MJ956SBSOLNDGT11I25", "dateTime": 1520876652283}, {"current_trial": 19, "trialdata": {"rt": -1, "trial_type": "single-stim", "stimulus": "<p id=\"stim\">1</p>", "internal_node_id": "0.0-10.0-9.0", "time_elapsed": 255940, "key_press": -1, "trial_index": 19}, "uniqueid": "MTK3647:30LSNF239V2MJ956SBSOLNDGT11I25", "dateTime": 1520876653287}, {"current_trial": 20, "trialdata": {"rt": -1, "trial_type": "single-stim", "stimulus": "<p id=\"stim\">+</p>", "internal_node_id": "0.0-11.0-0.0", "time_elapsed": 257445, "key_press": -1, "type": "FIXATION", "trial_index": 20}, "uniqueid": "MTK3647:30LSNF239V2MJ956SBSOLNDGT11I25", "dateTime": 1520876654793}, {"current_trial": 21, "trialdata": {"rt": -1000, "trial_type": "single-audio", "word": "stone", "stimulus": "/static/audio/wordpool/STONE.wav", "conditions": [18, 1200, "a", 18000], "internal_node_id": "0.0-12.0", "trial": 0, "time_elapsed": 259665, "serialpos": 0, "key_press": -1, "wordID": 1384, "type": "PRES_AUD", "trial_index": 21}, "uniqueid": "MTK3647:30LSNF239V2MJ956SBSOLNDGT11I25", "dateTime": 1520876657013}, {"current_trial": 22, "trialdata": {"rt": -1000, "trial_type": "single-audio", "word": "wife", "stimulus": "/static/audio/wordpool/WIFE.wav", "conditions": [18, 1200, "a", 18000], "internal_node_id": "0.0-13.0", "trial": 0, "time_elapsed": 261767, "serialpos": 1, "key_press": -1, "wordID": 1608, "type": "PRES_AUD", "trial_index": 22}, "uniqueid": "MTK3647:30LSNF239V2MJ956SBSOLNDGT11I25", "dateTime": 1520876659114}, {"current_trial": 23, "trialdata": {"rt": -1000, "trial_type": "single-audio", "word": "mustard", "stimulus": "/static/audio/wordpool/MUSTARD.wav", "conditions": [18, 1200, "a", 18000], "internal_node_id": "0.0-14.0", "trial": 0, "time_elapsed": 264104, "serialpos": 2, "key_press": -1, "wordID": 934, "type": "PRES_AUD", "trial_index": 23}, "uniqueid": "MTK3647:30LSNF239V2MJ956SBSOLNDGT11I25", "dateTime": 1520876661454}, {"current_trial": 24, "trialdata": {"rt": -1000, "trial_type": "single-audio", "word": "leader", "stimulus": "/static/audio/wordpool/LEADER.wav", "conditions": [18, 1200, "a", 18000], "internal_node_id": "0.0-15.0", "trial": 0, "time_elapsed": 266151, "serialpos": 3, "key_press": -1, "wordID": 806, "type": "PRES_AUD", "trial_index": 24}, "uniqueid": "MTK3647:30LSNF239V2MJ956SBSOLNDGT11I25", "dateTime": 1520876663498}, {"current_trial": 25, "trialdata": {"rt": -1000, "trial_type": "single-audio", "word": "jello", "stimulus": "/static/audio/wordpool/JELLO.wav", "conditions": [18, 1200, "a", 18000], "internal_node_id": "0.0-16.0", "trial": 0, "time_elapsed": 268441, "serialpos": 4, "key_press": -1, "wordID": 753, "type": "PRES_AUD", "trial_index": 25}, "uniqueid": "MTK3647:30LSNF239V2MJ956SBSOLNDGT11I25", "dateTime": 1520876665788}, {"current_trial": 26, "trialdata": {"rt": -1000, "trial_type": "single-audio", "word": "flower", "stimulus": "/static/audio/wordpool/FLOWER.wav", "conditions": [18, 1200, "a", 18000], "internal_node_id": "0.0-17.0", "trial": 0, "time_elapsed": 270597, "serialpos": 5, "key_press": -1, "wordID": 583, "type": "PRES_AUD", "trial_index": 26}, "uniqueid": "MTK3647:30LSNF239V2MJ956SBSOLNDGT11I25", "dateTime": 1520876667945}, {"current_trial": 27, "trialdata": {"rt": -1000, "trial_type": "single-audio", "word": "thief", "stimulus": "/static/audio/wordpool/THIEF.wav", "conditions": [18, 1200, "a", 18000], "internal_node_id": "0.0-18.0", "trial": 0, "time_elapsed": 272630, "serialpos": 6, "key_press": -1, "wordID": 1455, "type": "PRES_AUD", "trial_index": 27}, "uniqueid": "MTK3647:30LSNF239V2MJ956SBSOLNDGT11I25", "dateTime": 1520876669977}, {"current_trial": 28, "trialdata": {"rt": -1000, "trial_type": "single-audio", "word": "mars", "stimulus": "/static/audio/wordpool/MARS.wav", "conditions": [18, 1200, "a", 18000], "internal_node_id": "0.0-19.0", "trial": 0, "time_elapsed": 274769, "serialpos": 7, "key_press": -1, "wordID": 872, "type": "PRES_AUD", "trial_index": 28}, "uniqueid": "MTK3647:30LSNF239V2MJ956SBSOLNDGT11I25", "dateTime": 1520876672116}, {"current_trial": 29, "trialdata": {"rt": -1000, "trial_type": "single-audio", "word": "supper", "stimulus": "/static/audio/wordpool/SUPPER.wav", "conditions": [18, 1200, "a", 18000], "internal_node_id": "0.0-20.0", "trial": 0, "time_elapsed": 277137, "serialpos": 8, "key_press": -1, "wordID": 1410, "type": "PRES_AUD", "trial_index": 29}, "uniqueid": "MTK3647:30LSNF239V2MJ956SBSOLNDGT11I25", "dateTime": 1520876674484}, {"current_trial": 30, "trialdata": {"rt": -1000, "trial_type": "single-audio", "word": "film", "stimulus": "/static/audio/wordpool/FILM.wav", "conditions": [18, 1200, "a", 18000], "internal_node_id": "0.0-21.0", "trial": 0, "time_elapsed": 279197, "serialpos": 9, "key_press": -1, "wordID": 564, "type": "PRES_AUD", "trial_index": 30}, "uniqueid": "MTK3647:30LSNF239V2MJ956SBSOLNDGT11I25", "dateTime": 1520876676544}, {"current_trial": 31, "trialdata": {"rt": -1000, "trial_type": "single-audio", "word": "sculpture", "stimulus": "/static/audio/wordpool/SCULPTURE.wav", "conditions": [18, 1200, "a", 18000], "internal_node_id": "0.0-22.0", "trial": 0, "time_elapsed": 281449, "serialpos": 10, "key_press": -1, "wordID": 1257, "type": "PRES_AUD", "trial_index": 31}, "uniqueid": "MTK3647:30LSNF239V2MJ956SBSOLNDGT11I25", "dateTime": 1520876678797}, {"current_trial": 32, "trialdata": {"rt": -1000, "trial_type": "single-audio", "word": "chapel", "stimulus": "/static/audio/wordpool/CHAPEL.wav", "conditions": [18, 1200, "a", 18000], "internal_node_id": "0.0-23.0", "trial": 0, "time_elapsed": 283700, "serialpos": 11, "key_press": -1, "wordID": 279, "type": "PRES_AUD", "trial_index": 32}, "uniqueid": "MTK3647:30LSNF239V2MJ956SBSOLNDGT11I25", "dateTime": 1520876681047}, {"current_trial": 33, "trialdata": {"rt": -1000, "trial_type": "single-audio", "word": "stove", "stimulus": "/static/audio/wordpool/STOVE.wav", "conditions": [18, 1200, "a", 18000], "internal_node_id": "0.0-24.0", "trial": 0, "time_elapsed": 286012, "serialpos": 12, "key_press": -1, "wordID": 1387, "type": "PRES_AUD", "trial_index": 33}, "uniqueid": "MTK3647:30LSNF239V2MJ956SBSOLNDGT11I25", "dateTime": 1520876683359}, {"current_trial": 34, "trialdata": {"rt": -1000, "trial_type": "single-audio", "word": "pilot", "stimulus": "/static/audio/wordpool/PILOT.wav", "conditions": [18, 1200, "a", 18000], "internal_node_id": "0.0-25.0", "trial": 0, "time_elapsed": 288296, "serialpos": 13, "key_press": -1, "wordID": 1069, "type": "PRES_AUD", "trial_index": 34}, "uniqueid": "MTK3647:30LSNF239V2MJ956SBSOLNDGT11I25", "dateTime": 1520876685643}, {"current_trial": 35, "trialdata": {"rt": -1000, "trial_type": "single-audio", "word": "icing", "stimulus": "/static/audio/wordpool/ICING.wav", "conditions": [18, 1200, "a", 18000], "internal_node_id": "0.0-26.0", "trial": 0, "time_elapsed": 290429, "serialpos": 14, "key_press": -1, "wordID": 731, "type": "PRES_AUD", "trial_index": 35}, "uniqueid": "MTK3647:30LSNF239V2MJ956SBSOLNDGT11I25", "dateTime": 1520876687776}, {"current_trial": 36, "trialdata": {"rt": -1000, "trial_type": "single-audio", "word": "poet", "stimulus": "/static/audio/wordpool/POET.wav", "conditions": [18, 1200, "a", 18000], "internal_node_id": "0.0-27.0", "trial": 0, "time_elapsed": 292804, "serialpos": 15, "key_press": -1, "wordID": 1094, "type": "PRES_AUD", "trial_index": 36}, "uniqueid": "MTK3647:30LSNF239V2MJ956SBSOLNDGT11I25", "dateTime": 1520876690152}, {"current_trial": 37, "trialdata": {"rt": -1000, "trial_type": "single-audio", "word": "onion", "stimulus": "/static/audio/wordpool/ONION.wav", "conditions": [18, 1200, "a", 18000], "internal_node_id": "0.0-28.0", "trial": 0, "time_elapsed": 294872, "serialpos": 16, "key_press": -1, "wordID": 976, "type": "PRES_AUD", "trial_index": 37}, "uniqueid": "MTK3647:30LSNF239V2MJ956SBSOLNDGT11I25", "dateTime": 1520876692219}, {"current_trial": 38, "trialdata": {"rt": -1000, "trial_type": "single-audio", "word": "omelet", "stimulus": "/static/audio/wordpool/OMELET.wav", "conditions": [18, 1200, "a", 18000], "internal_node_id": "0.0-29.0", "trial": 0, "time_elapsed": 297171, "serialpos": 17, "key_press": -1, "wordID": 975, "type": "PRES_AUD", "trial_index": 38}, "uniqueid": "MTK3647:30LSNF239V2MJ956SBSOLNDGT11I25", "dateTime": 1520876694519}, {"current_trial": 39, "trialdata": {"rt": -1, "trial_type": "single-stim", "stimulus": "", "internal_node_id": "0.0-30.0-0.0", "time_elapsed": 298558, "key_press": -1, "type": "PRE_RECALL_DELAY", "trial_index": 39}, "uniqueid": "MTK3647:30LSNF239V2MJ956SBSOLNDGT11I25", "dateTime": 1520876695906}, {"current_trial": 40, "trialdata": {"rt": -1000, "trial_type": "single-audio", "stimulus": "/static/audio/400Hz.wav", "internal_node_id": "0.0-31.0", "time_elapsed": 299060, "key_press": -1, "type": "PRE_RECALL_ALERT", "trial_index": 40}, "uniqueid": "MTK3647:30LSNF239V2MJ956SBSOLNDGT11I25", "dateTime": 1520876696408}, {"current_trial": 41, "trialdata": {"rt": [4459, 7082, 8803, 12932, 16602, 23040], "recwords": ["spice", "flower", "film", "mustard", "", "spice"], "key_times": [3444, 3547, 3711, 3861, 4001, 4459, 6009, 6110, 6289, 6360, 6459, 6566, 7082, 7562, 7759, 8020, 8217, 8803, 11680, 11852, 11960, 12046, 12243, 12351, 12569, 12932, 16602, 22395, 22517, 22640, 22730, 22828, 23040, 27697, 28371, 28497, 28605, 28735, 29411, 29599, 29770, 29939, 30084, 30238], "trial_type": "free-recall", "conditions": [18, 1200, "a", 18000], "internal_node_id": "0.0-32.0-0.0", "key_presses": [83, 80, 73, 67, 69, 13, 70, 76, 79, 87, 69, 82, 13, 70, 73, 76, 77, 13, 77, 85, 83, 84, 65, 82, 68, 13, 13, 83, 80, 73, 67, 69, 13, 69, 76, 66, 79, 87, 8, 8, 8, 8, 8, 8], "trial": 0, "time_elapsed": 359071, "type": "FREE_RECALL", "trial_index": 41}, "uniqueid": "MTK3647:30LSNF239V2MJ956SBSOLNDGT11I25", "dateTime": 1520876756429}, {"current_trial": 42, "trialdata": {"rt": 1955, "trial_type": "text", "internal_node_id": "0.0-33.0", "time_elapsed": 363044, "key_press": 32, "type": "INSTRUCTIONS", "trial_index": 42}, "uniqueid": "MTK3647:30LSNF239V2MJ956SBSOLNDGT11I25", "dateTime": 1520876760391}, {"current_trial": 43, "trialdata": {"rt": [6364, 9779, 14093, 17887], "trial_type": "math-distractor", "key_times": [4980, 5371, 6364, 9169, 9549, 9779, 13502, 13889, 14093, 17247, 17655, 17887], "responses": ["20", "16", "17", "18"], "num2": [7, 9, 8, 9, 8], "num3": [8, 3, 3, 7, 3], "conditions": [18, 1200, "a", 18000], "internal_node_id": "0.0-34.0", "key_presses": [50, 48, 13, 49, 54, 13, 49, 55, 13, 49, 56, 13], "trial": 1, "time_elapsed": 383052, "type": "DISTRACTOR", "trial_index": 43, "num1": [5, 4, 6, 2, 1]}, "uniqueid": "MTK3647:30LSNF239V2MJ956SBSOLNDGT11I25", "dateTime": 1520876780400}, {"current_trial": 44, "trialdata": {"rt": -1, "trial_type": "single-stim", "stimulus": "<p id=\"stim\">10</p>", "internal_node_id": "0.0-35.0-0.0", "time_elapsed": 386058, "key_press": -1, "trial_index": 44}, "uniqueid": "MTK3647:30LSNF239V2MJ956SBSOLNDGT11I25", "dateTime": 1520876783406}, {"current_trial": 45, "trialdata": {"rt": -1, "trial_type": "single-stim", "stimulus": "<p id=\"stim\">9</p>", "internal_node_id": "0.0-35.0-1.0", "time_elapsed": 387063, "key_press": -1, "trial_index": 45}, "uniqueid": "MTK3647:30LSNF239V2MJ956SBSOLNDGT11I25", "dateTime": 1520876784410}, {"current_trial": 46, "trialdata": {"rt": -1, "trial_type": "single-stim", "stimulus": "<p id=\"stim\">8</p>", "internal_node_id": "0.0-35.0-2.0", "time_elapsed": 388066, "key_press": -1, "trial_index": 46}, "uniqueid": "MTK3647:30LSNF239V2MJ956SBSOLNDGT11I25", "dateTime": 1520876785414}, {"current_trial": 47, "trialdata": {"rt": -1, "trial_type": "single-stim", "stimulus": "<p id=\"stim\">7</p>", "internal_node_id": "0.0-35.0-3.0", "time_elapsed": 389070, "key_press": -1, "trial_index": 47}, "uniqueid": "MTK3647:30LSNF239V2MJ956SBSOLNDGT11I25", "dateTime": 1520876786418}, {"current_trial": 48, "trialdata": {"rt": -1, "trial_type": "single-stim", "stimulus": "<p id=\"stim\">6</p>", "internal_node_id": "0.0-35.0-4.0", "time_elapsed": 390076, "key_press": -1, "trial_index": 48}, "uniqueid": "MTK3647:30LSNF239V2MJ956SBSOLNDGT11I25", "dateTime": 1520876787424}, {"current_trial": 49, "trialdata": {"rt": -1, "trial_type": "single-stim", "stimulus": "<p id=\"stim\">5</p>", "internal_node_id": "0.0-35.0-5.0", "time_elapsed": 391079, "key_press": -1, "trial_index": 49}, "uniqueid": "MTK3647:30LSNF239V2MJ956SBSOLNDGT11I25", "dateTime": 1520876788426}, {"current_trial": 50, "trialdata": {"rt": -1, "trial_type": "single-stim", "stimulus": "<p id=\"stim\">4</p>", "internal_node_id": "0.0-35.0-6.0", "time_elapsed": 392082, "key_press": -1, "trial_index": 50}, "uniqueid": "MTK3647:30LSNF239V2MJ956SBSOLNDGT11I25", "dateTime": 1520876789429}, {"current_trial": 51, "trialdata": {"rt": -1, "trial_type": "single-stim", "stimulus": "<p id=\"stim\">3</p>", "internal_node_id": "0.0-35.0-7.0", "time_elapsed": 393086, "key_press": -1, "trial_index": 51}, "uniqueid": "MTK3647:30LSNF239V2MJ956SBSOLNDGT11I25", "dateTime": 1520876790434}, {"current_trial": 52, "trialdata": {"rt": -1, "trial_type": "single-stim", "stimulus": "<p id=\"stim\">2</p>", "internal_node_id": "0.0-35.0-8.0", "time_elapsed": 394094, "key_press": -1, "trial_index": 52}, "uniqueid": "MTK3647:30LSNF239V2MJ956SBSOLNDGT11I25", "dateTime": 1520876791441}, {"current_trial": 53, "trialdata": {"rt": -1, "trial_type": "single-stim", "stimulus": "<p id=\"stim\">1</p>", "internal_node_id": "0.0-35.0-9.0", "time_elapsed": 395099, "key_press": -1, "trial_index": 53}, "uniqueid": "MTK3647:30LSNF239V2MJ956SBSOLNDGT11I25", "dateTime": 1520876792446}, {"current_trial": 54, "trialdata": {"rt": -1, "trial_type": "single-stim", "stimulus": "<p id=\"stim\">+</p>", "internal_node_id": "0.0-36.0-0.0", "time_elapsed": 396605, "key_press": -1, "type": "FIXATION", "trial_index": 54}, "uniqueid": "MTK3647:30LSNF239V2MJ956SBSOLNDGT11I25", "dateTime": 1520876793953}, {"current_trial": 55, "trialdata": {"rt": -1000, "trial_type": "single-audio", "word": "sparrow", "stimulus": "/static/audio/wordpool/SPARROW.wav", "conditions": [18, 1200, "a", 18000], "internal_node_id": "0.0-37.0", "trial": 1, "time_elapsed": 398914, "serialpos": 0, "key_press": -1, "wordID": 1346, "type": "PRES_AUD", "trial_index": 55}, "uniqueid": "MTK3647:30LSNF239V2MJ956SBSOLNDGT11I25", "dateTime": 1520876796261}, {"current_trial": 56, "trialdata": {"rt": -1000, "trial_type": "single-audio", "word": "vagrant", "stimulus": "/static/audio/wordpool/VAGRANT.wav", "conditions": [18, 1200, "a", 18000], "internal_node_id": "0.0-38.0", "trial": 1, "time_elapsed": 401298, "serialpos": 1, "key_press": -1, "wordID": 1543, "type": "PRES_AUD", "trial_index": 56}, "uniqueid": "MTK3647:30LSNF239V2MJ956SBSOLNDGT11I25", "dateTime": 1520876798645}, {"current_trial": 57, "trialdata": {"rt": -1000, "trial_type": "single-audio", "word": "pistol", "stimulus": "/static/audio/wordpool/PISTOL.wav", "conditions": [18, 1200, "a", 18000], "internal_node_id": "0.0-39.0", "trial": 1, "time_elapsed": 403354, "serialpos": 2, "key_press": -1, "wordID": 1074, "type": "PRES_AUD", "trial_index": 57}, "uniqueid": "MTK3647:30LSNF239V2MJ956SBSOLNDGT11I25", "dateTime": 1520876800701}, {"current_trial": 58, "trialdata": {"rt": -1000, "trial_type": "single-audio", "word": "football", "stimulus": "/static/audio/wordpool/FOOTBALL.wav", "conditions": [18, 1200, "a", 18000], "internal_node_id": "0.0-40.0", "trial": 1, "time_elapsed": 405750, "serialpos": 3, "key_press": -1, "wordID": 590, "type": "PRES_AUD", "trial_index": 58}, "uniqueid": "MTK3647:30LSNF239V2MJ956SBSOLNDGT11I25", "dateTime": 1520876803098}, {"current_trial": 59, "trialdata": {"rt": -1000, "trial_type": "single-audio", "word": "lipstick", "stimulus": "/static/audio/wordpool/LIPSTICK.wav", "conditions": [18, 1200, "a", 18000], "internal_node_id": "0.0-41.0", "trial": 1, "time_elapsed": 407946, "serialpos": 4, "key_press": -1, "wordID": 828, "type": "PRES_AUD", "trial_index": 59}, "uniqueid": "MTK3647:30LSNF239V2MJ956SBSOLNDGT11I25", "dateTime": 1520876805294}, {"current_trial": 60, "trialdata": {"rt": -1000, "trial_type": "single-audio", "word": "marsh", "stimulus": "/static/audio/wordpool/MARSH.wav", "conditions": [18, 1200, "a", 18000], "internal_node_id": "0.0-42.0", "trial": 1, "time_elapsed": 409981, "serialpos": 5, "key_press": -1, "wordID": 873, "type": "PRES_AUD", "trial_index": 60}, "uniqueid": "MTK3647:30LSNF239V2MJ956SBSOLNDGT11I25", "dateTime": 1520876807328}, {"current_trial": 61, "trialdata": {"rt": -1000, "trial_type": "single-audio", "word": "princess", "stimulus": "/static/audio/wordpool/PRINCESS.wav", "conditions": [18, 1200, "a", 18000], "internal_node_id": "0.0-43.0", "trial": 1, "time_elapsed": 411993, "serialpos": 6, "key_press": -1, "wordID": 1124, "type": "PRES_AUD", "trial_index": 61}, "uniqueid": "MTK3647:30LSNF239V2MJ956SBSOLNDGT11I25", "dateTime": 1520876809341}, {"current_trial": 62, "trialdata": {"rt": -1000, "trial_type": "single-audio", "word": "cafe", "stimulus": "/static/audio/wordpool/CAFE.wav", "conditions": [18, 1200, "a", 18000], "internal_node_id": "0.0-44.0", "trial": 1, "time_elapsed": 414286, "serialpos": 7, "key_press": -1, "wordID": 215, "type": "PRES_AUD", "trial_index": 62}, "uniqueid": "MTK3647:30LSNF239V2MJ956SBSOLNDGT11I25", "dateTime": 1520876811634}, {"current_trial": 63, "trialdata": {"rt": -1000, "trial_type": "single-audio", "word": "label", "stimulus": "/static/audio/wordpool/LABEL.wav", "conditions": [18, 1200, "a", 18000], "internal_node_id": "0.0-45.0", "trial": 1, "time_elapsed": 416336, "serialpos": 8, "key_press": -1, "wordID": 789, "type": "PRES_AUD", "trial_index": 63}, "uniqueid": "MTK3647:30LSNF239V2MJ956SBSOLNDGT11I25", "dateTime": 1520876813683}, {"current_trial": 64, "trialdata": {"rt": -1000, "trial_type": "single-audio", "word": "grill", "stimulus": "/static/audio/wordpool/GRILL.wav", "conditions": [18, 1200, "a", 18000], "internal_node_id": "0.0-46.0", "trial": 1, "time_elapsed": 418425, "serialpos": 9, "key_press": -1, "wordID": 660, "type": "PRES_AUD", "trial_index": 64}, "uniqueid": "MTK3647:30LSNF239V2MJ956SBSOLNDGT11I25", "dateTime": 1520876815773}, {"current_trial": 65, "trialdata": {"rt": -1000, "trial_type": "single-audio", "word": "quarter", "stimulus": "/static/audio/wordpool/QUARTER.wav", "conditions": [18, 1200, "a", 18000], "internal_node_id": "0.0-47.0", "trial": 1, "time_elapsed": 420826, "serialpos": 10, "key_press": -1, "wordID": 1147, "type": "PRES_AUD", "trial_index": 65}, "uniqueid": "MTK3647:30LSNF239V2MJ956SBSOLNDGT11I25", "dateTime": 1520876818173}, {"current_trial": 66, "trialdata": {"rt": -1000, "trial_type": "single-audio", "word": "jungle", "stimulus": "/static/audio/wordpool/JUNGLE.wav", "conditions": [18, 1200, "a", 18000], "internal_node_id": "0.0-48.0", "trial": 1, "time_elapsed": 422835, "serialpos": 11, "key_press": -1, "wordID": 763, "type": "PRES_AUD", "trial_index": 66}, "uniqueid": "MTK3647:30LSNF239V2MJ956SBSOLNDGT11I25", "dateTime": 1520876820183}, {"current_trial": 67, "trialdata": {"rt": -1000, "trial_type": "single-audio", "word": "pecan", "stimulus": "/static/audio/wordpool/PECAN.wav", "conditions": [18, 1200, "a", 18000], "internal_node_id": "0.0-49.0", "trial": 1, "time_elapsed": 424927, "serialpos": 12, "key_press": -1, "wordID": 1035, "type": "PRES_AUD", "trial_index": 67}, "uniqueid": "MTK3647:30LSNF239V2MJ956SBSOLNDGT11I25", "dateTime": 1520876822274}, {"current_trial": 68, "trialdata": {"rt": -1000, "trial_type": "single-audio", "word": "scarf", "stimulus": "/static/audio/wordpool/SCARF.wav", "conditions": [18, 1200, "a", 18000], "internal_node_id": "0.0-50.0", "trial": 1, "time_elapsed": 427322, "serialpos": 13, "key_press": -1, "wordID": 1245, "type": "PRES_AUD", "trial_index": 68}, "uniqueid": "MTK3647:30LSNF239V2MJ956SBSOLNDGT11I25", "dateTime": 1520876824679}, {"current_trial": 69, "trialdata": {"rt": -1000, "trial_type": "single-audio", "word": "jury", "stimulus": "/static/audio/wordpool/JURY.wav", "conditions": [18, 1200, "a", 18000], "internal_node_id": "0.0-51.0", "trial": 1, "time_elapsed": 429522, "serialpos": 14, "key_press": -1, "wordID": 765, "type": "PRES_AUD", "trial_index": 69}, "uniqueid": "MTK3647:30LSNF239V2MJ956SBSOLNDGT11I25", "dateTime": 1520876826869}, {"current_trial": 70, "trialdata": {"rt": -1000, "trial_type": "single-audio", "word": "rooster", "stimulus": "/static/audio/wordpool/ROOSTER.wav", "conditions": [18, 1200, "a", 18000], "internal_node_id": "0.0-52.0", "trial": 1, "time_elapsed": 431712, "serialpos": 15, "key_press": -1, "wordID": 1208, "type": "PRES_AUD", "trial_index": 70}, "uniqueid": "MTK3647:30LSNF239V2MJ956SBSOLNDGT11I25", "dateTime": 1520876829059}, {"current_trial": 71, "trialdata": {"rt": -1000, "trial_type": "single-audio", "word": "cocoon", "stimulus": "/static/audio/wordpool/COCOON.wav", "conditions": [18, 1200, "a", 18000], "internal_node_id": "0.0-53.0", "trial": 1, "time_elapsed": 433754, "serialpos": 16, "key_press": -1, "wordID": 338, "type": "PRES_AUD", "trial_index": 71}, "uniqueid": "MTK3647:30LSNF239V2MJ956SBSOLNDGT11I25", "dateTime": 1520876831101}, {"current_trial": 72, "trialdata": {"rt": -1000, "trial_type": "single-audio", "word": "proton", "stimulus": "/static/audio/wordpool/PROTON.wav", "conditions": [18, 1200, "a", 18000], "internal_node_id": "0.0-54.0", "trial": 1, "time_elapsed": 436133, "serialpos": 17, "key_press": -1, "wordID": 1131, "type": "PRES_AUD", "trial_index": 72}, "uniqueid": "MTK3647:30LSNF239V2MJ956SBSOLNDGT11I25", "dateTime": 1520876833480}, {"current_trial": 73, "trialdata": {"rt": -1, "trial_type": "single-stim", "stimulus": "", "internal_node_id": "0.0-55.0-0.0", "time_elapsed": 437497, "key_press": -1, "type": "PRE_RECALL_DELAY", "trial_index": 73}, "uniqueid": "MTK3647:30LSNF239V2MJ956SBSOLNDGT11I25", "dateTime": 1520876834845}, {"current_trial": 74, "trialdata": {"rt": -1000, "trial_type": "single-audio", "stimulus": "/static/audio/400Hz.wav", "internal_node_id": "0.0-56.0", "time_elapsed": 438000, "key_press": -1, "type": "PRE_RECALL_ALERT", "trial_index": 74}, "uniqueid": "MTK3647:30LSNF239V2MJ956SBSOLNDGT11I25", "dateTime": 1520876835347}, {"current_trial": 75, "trialdata": {"rt": [2363, 3823, 7329, 28656, 32528, 40758], "recwords": ["proton", "spice", "mustard", "chair", "", "yellow"], "key_times": [1494, 1704, 1802, 1932, 2015, 2123, 2363, 2767, 3093, 3479, 3592, 3688, 3823, 6300, 6594, 6663, 6770, 6945, 7062, 7273, 7329, 27730, 27848, 28210, 28299, 28394, 28656, 32528, 38630, 38757, 38949, 39271, 39801, 40250, 40404, 40523, 40758], "trial_type": "free-recall", "conditions": [18, 1200, "a", 18000], "internal_node_id": "0.0-57.0-0.0", "key_presses": [80, 82, 79, 84, 79, 78, 13, 83, 80, 73, 67, 69, 13, 77, 85, 83, 84, 65, 82, 68, 13, 67, 72, 65, 73, 82, 13, 13, 89, 69, 76, 79, 8, 76, 79, 87, 13], "trial": 1, "time_elapsed": 498007, "type": "FREE_RECALL", "trial_index": 75}, "uniqueid": "MTK3647:30LSNF239V2MJ956SBSOLNDGT11I25", "dateTime": 1520876895361}, {"current_trial": 76, "trialdata": {"rt": 108355, "trial_type": "text", "internal_node_id": "0.0-58.0", "time_elapsed": 608372, "key_press": 32, "type": "INSTRUCTIONS", "trial_index": 76}, "uniqueid": "MTK3647:30LSNF239V2MJ956SBSOLNDGT11I25", "dateTime": 1520877005720}, {"current_trial": 77, "trialdata": {"rt": [2116, 7187, 11978], "trial_type": "math-distractor", "key_times": [1829, 2116, 6899, 7009, 7187, 11400, 11757, 11978], "responses": ["7", "21", "17"], "num2": [1, 7, 8, 3], "num3": [3, 5, 6, 7], "conditions": [24, 800, "a", 12000], "internal_node_id": "0.0-59.0", "key_presses": [55, 13, 50, 49, 13, 49, 55, 13], "trial": 2, "time_elapsed": 621382, "type": "DISTRACTOR", "trial_index": 77, "num1": [3, 9, 3, 9]}, "uniqueid": "MTK3647:30LSNF239V2MJ956SBSOLNDGT11I25", "dateTime": 1520877018729}, {"current_trial": 78, "trialdata": {"rt": -1, "trial_type": "single-stim", "stimulus": "<p id=\"stim\">10</p>", "internal_node_id": "0.0-60.0-0.0", "time_elapsed": 624389, "key_press": -1, "trial_index": 78}, "uniqueid": "MTK3647:30LSNF239V2MJ956SBSOLNDGT11I25", "dateTime": 1520877021737}, {"current_trial": 79, "trialdata": {"rt": -1, "trial_type": "single-stim", "stimulus": "<p id=\"stim\">9</p>", "internal_node_id": "0.0-60.0-1.0", "time_elapsed": 625395, "key_press": -1, "trial_index": 79}, "uniqueid": "MTK3647:30LSNF239V2MJ956SBSOLNDGT11I25", "dateTime": 1520877022742}, {"current_trial": 80, "trialdata": {"rt": -1, "trial_type": "single-stim", "stimulus": "<p id=\"stim\">8</p>", "internal_node_id": "0.0-60.0-2.0", "time_elapsed": 626399, "key_press": -1, "trial_index": 80}, "uniqueid": "MTK3647:30LSNF239V2MJ956SBSOLNDGT11I25", "dateTime": 1520877023746}, {"current_trial": 81, "trialdata": {"rt": -1, "trial_type": "single-stim", "stimulus": "<p id=\"stim\">7</p>", "internal_node_id": "0.0-60.0-3.0", "time_elapsed": 627404, "key_press": -1, "trial_index": 81}, "uniqueid": "MTK3647:30LSNF239V2MJ956SBSOLNDGT11I25", "dateTime": 1520877024751}, {"current_trial": 82, "trialdata": {"rt": -1, "trial_type": "single-stim", "stimulus": "<p id=\"stim\">6</p>", "internal_node_id": "0.0-60.0-4.0", "time_elapsed": 628408, "key_press": -1, "trial_index": 82}, "uniqueid": "MTK3647:30LSNF239V2MJ956SBSOLNDGT11I25", "dateTime": 1520877025755}, {"current_trial": 83, "trialdata": {"rt": -1, "trial_type": "single-stim", "stimulus": "<p id=\"stim\">5</p>", "internal_node_id": "0.0-60.0-5.0", "time_elapsed": 629411, "key_press": -1, "trial_index": 83}, "uniqueid": "MTK3647:30LSNF239V2MJ956SBSOLNDGT11I25", "dateTime": 1520877026759}, {"current_trial": 84, "trialdata": {"rt": -1, "trial_type": "single-stim", "stimulus": "<p id=\"stim\">4</p>", "internal_node_id": "0.0-60.0-6.0", "time_elapsed": 630416, "key_press": -1, "trial_index": 84}, "uniqueid": "MTK3647:30LSNF239V2MJ956SBSOLNDGT11I25", "dateTime": 1520877027763}, {"current_trial": 85, "trialdata": {"rt": -1, "trial_type": "single-stim", "stimulus": "<p id=\"stim\">3</p>", "internal_node_id": "0.0-60.0-7.0", "time_elapsed": 631419, "key_press": -1, "trial_index": 85}, "uniqueid": "MTK3647:30LSNF239V2MJ956SBSOLNDGT11I25", "dateTime": 1520877028766}, {"current_trial": 86, "trialdata": {"rt": -1, "trial_type": "single-stim", "stimulus": "<p id=\"stim\">2</p>", "internal_node_id": "0.0-60.0-8.0", "time_elapsed": 632424, "key_press": -1, "trial_index": 86}, "uniqueid": "MTK3647:30LSNF239V2MJ956SBSOLNDGT11I25", "dateTime": 1520877029771}, {"current_trial": 87, "trialdata": {"rt": -1, "trial_type": "single-stim", "stimulus": "<p id=\"stim\">1</p>", "internal_node_id": "0.0-60.0-9.0", "time_elapsed": 633429, "key_press": -1, "trial_index": 87}, "uniqueid": "MTK3647:30LSNF239V2MJ956SBSOLNDGT11I25", "dateTime": 1520877030776}, {"current_trial": 88, "trialdata": {"rt": -1, "trial_type": "single-stim", "stimulus": "<p id=\"stim\">+</p>", "internal_node_id": "0.0-61.0-0.0", "time_elapsed": 634934, "key_press": -1, "type": "FIXATION", "trial_index": 88}, "uniqueid": "MTK3647:30LSNF239V2MJ956SBSOLNDGT11I25", "dateTime": 1520877032282}, {"current_trial": 89, "trialdata": {"rt": -1000, "trial_type": "single-audio", "word": "leg", "stimulus": "/static/audio/wordpool/LEG.wav", "conditions": [24, 800, "a", 12000], "internal_node_id": "0.0-62.0", "trial": 2, "time_elapsed": 636852, "serialpos": 0, "key_press": -1, "wordID": 808, "type": "PRES_AUD", "trial_index": 89}, "uniqueid": "MTK3647:30LSNF239V2MJ956SBSOLNDGT11I25", "dateTime": 1520877034199}, {"current_trial": 90, "trialdata": {"rt": -1000, "trial_type": "single-audio", "word": "butcher", "stimulus": "/static/audio/wordpool/BUTCHER.wav", "conditions": [24, 800, "a", 12000], "internal_node_id": "0.0-63.0", "trial": 2, "time_elapsed": 638460, "serialpos": 1, "key_press": -1, "wordID": 202, "type": "PRES_AUD", "trial_index": 90}, "uniqueid": "MTK3647:30LSNF239V2MJ956SBSOLNDGT11I25", "dateTime": 1520877035807}, {"current_trial": 91, "trialdata": {"rt": -1000, "trial_type": "single-audio", "word": "crayon", "stimulus": "/static/audio/wordpool/CRAYON.wav", "conditions": [24, 800, "a", 12000], "internal_node_id": "0.0-64.0", "trial": 2, "time_elapsed": 640268, "serialpos": 2, "key_press": -1, "wordID": 400, "type": "PRES_AUD", "trial_index": 91}, "uniqueid": "MTK3647:30LSNF239V2MJ956SBSOLNDGT11I25", "dateTime": 1520877037615}, {"current_trial": 92, "trialdata": {"rt": -1000, "trial_type": "single-audio", "word": "hedge", "stimulus": "/static/audio/wordpool/HEDGE.wav", "conditions": [24, 800, "a", 12000], "internal_node_id": "0.0-65.0", "trial": 2, "time_elapsed": 641905, "serialpos": 3, "key_press": -1, "wordID": 698, "type": "PRES_AUD", "trial_index": 92}, "uniqueid": "MTK3647:30LSNF239V2MJ956SBSOLNDGT11I25", "dateTime": 1520877039252}, {"current_trial": 93, "trialdata": {"rt": -1000, "trial_type": "single-audio", "word": "panther", "stimulus": "/static/audio/wordpool/PANTHER.wav", "conditions": [24, 800, "a", 12000], "internal_node_id": "0.0-66.0", "trial": 2, "time_elapsed": 643759, "serialpos": 4, "key_press": -1, "wordID": 1008, "type": "PRES_AUD", "trial_index": 93}, "uniqueid": "MTK3647:30LSNF239V2MJ956SBSOLNDGT11I25", "dateTime": 1520877041107}, {"current_trial": 94, "trialdata": {"rt": -1000, "trial_type": "single-audio", "word": "hood", "stimulus": "/static/audio/wordpool/HOOD.wav", "conditions": [24, 800, "a", 12000], "internal_node_id": "0.0-67.0", "trial": 2, "time_elapsed": 645441, "serialpos": 5, "key_press": -1, "wordID": 713, "type": "PRES_AUD", "trial_index": 94}, "uniqueid": "MTK3647:30LSNF239V2MJ956SBSOLNDGT11I25", "dateTime": 1520877042789}, {"current_trial": 95, "trialdata": {"rt": -1000, "trial_type": "single-audio", "word": "cigar", "stimulus": "/static/audio/wordpool/CIGAR.wav", "conditions": [24, 800, "a", 12000], "internal_node_id": "0.0-68.0", "trial": 2, "time_elapsed": 647368, "serialpos": 6, "key_press": -1, "wordID": 307, "type": "PRES_AUD", "trial_index": 95}, "uniqueid": "MTK3647:30LSNF239V2MJ956SBSOLNDGT11I25", "dateTime": 1520877044715}, {"current_trial": 96, "trialdata": {"rt": -1000, "trial_type": "single-audio", "word": "scotch", "stimulus": "/static/audio/wordpool/SCOTCH.wav", "conditions": [24, 800, "a", 12000], "internal_node_id": "0.0-69.0", "trial": 2, "time_elapsed": 649058, "serialpos": 7, "key_press": -1, "wordID": 1250, "type": "PRES_AUD", "trial_index": 96}, "uniqueid": "MTK3647:30LSNF239V2MJ956SBSOLNDGT11I25", "dateTime": 1520877046405}, {"current_trial": 97, "trialdata": {"rt": -1000, "trial_type": "single-audio", "word": "custard", "stimulus": "/static/audio/wordpool/CUSTARD.wav", "conditions": [24, 800, "a", 12000], "internal_node_id": "0.0-70.0", "trial": 2, "time_elapsed": 650867, "serialpos": 8, "key_press": -1, "wordID": 428, "type": "PRES_AUD", "trial_index": 97}, "uniqueid": "MTK3647:30LSNF239V2MJ956SBSOLNDGT11I25", "dateTime": 1520877048215}, {"current_trial": 98, "trialdata": {"rt": -1000, "trial_type": "single-audio", "word": "pudding", "stimulus": "/static/audio/wordpool/PUDDING.wav", "conditions": [24, 800, "a", 12000], "internal_node_id": "0.0-71.0", "trial": 2, "time_elapsed": 652689, "serialpos": 9, "key_press": -1, "wordID": 1138, "type": "PRES_AUD", "trial_index": 98}, "uniqueid": "MTK3647:30LSNF239V2MJ956SBSOLNDGT11I25", "dateTime": 1520877050036}, {"current_trial": 99, "trialdata": {"rt": -1000, "trial_type": "single-audio", "word": "cloud", "stimulus": "/static/audio/wordpool/CLOUD.wav", "conditions": [24, 800, "a", 12000], "internal_node_id": "0.0-72.0", "trial": 2, "time_elapsed": 654680, "serialpos": 10, "key_press": -1, "wordID": 327, "type": "PRES_AUD", "trial_index": 99}, "uniqueid": "MTK3647:30LSNF239V2MJ956SBSOLNDGT11I25", "dateTime": 1520877052027}, {"current_trial": 100, "trialdata": {"rt": -1000, "trial_type": "single-audio", "word": "fox", "stimulus": "/static/audio/wordpool/FOX.wav", "conditions": [24, 800, "a", 12000], "internal_node_id": "0.0-73.0", "trial": 2, "time_elapsed": 656578, "serialpos": 11, "key_press": -1, "wordID": 597, "type": "PRES_AUD", "trial_index": 100}, "uniqueid": "MTK3647:30LSNF239V2MJ956SBSOLNDGT11I25", "dateTime": 1520877053925}, {"current_trial": 101, "trialdata": {"rt": -1000, "trial_type": "single-audio", "word": "receipt", "stimulus": "/static/audio/wordpool/RECEIPT.wav", "conditions": [24, 800, "a", 12000], "internal_node_id": "0.0-74.0", "trial": 2, "time_elapsed": 658477, "serialpos": 12, "key_press": -1, "wordID": 1172, "type": "PRES_AUD", "trial_index": 101}, "uniqueid": "MTK3647:30LSNF239V2MJ956SBSOLNDGT11I25", "dateTime": 1520877055824}, {"current_trial": 102, "trialdata": {"rt": -1000, "trial_type": "single-audio", "word": "brother", "stimulus": "/static/audio/wordpool/BROTHER.wav", "conditions": [24, 800, "a", 12000], "internal_node_id": "0.0-75.0", "trial": 2, "time_elapsed": 660173, "serialpos": 13, "key_press": -1, "wordID": 178, "type": "PRES_AUD", "trial_index": 102}, "uniqueid": "MTK3647:30LSNF239V2MJ956SBSOLNDGT11I25", "dateTime": 1520877057520}, {"current_trial": 103, "trialdata": {"rt": -1000, "trial_type": "single-audio", "word": "razor", "stimulus": "/static/audio/wordpool/RAZOR.wav", "conditions": [24, 800, "a", 12000], "internal_node_id": "0.0-76.0", "trial": 2, "time_elapsed": 662140, "serialpos": 14, "key_press": -1, "wordID": 1170, "type": "PRES_AUD", "trial_index": 103}, "uniqueid": "MTK3647:30LSNF239V2MJ956SBSOLNDGT11I25", "dateTime": 1520877059487}, {"current_trial": 104, "trialdata": {"rt": -1000, "trial_type": "single-audio", "word": "picture", "stimulus": "/static/audio/wordpool/PICTURE.wav", "conditions": [24, 800, "a", 12000], "internal_node_id": "0.0-77.0", "trial": 2, "time_elapsed": 664050, "serialpos": 15, "key_press": -1, "wordID": 1060, "type": "PRES_AUD", "trial_index": 104}, "uniqueid": "MTK3647:30LSNF239V2MJ956SBSOLNDGT11I25", "dateTime": 1520877061398}, {"current_trial": 105, "trialdata": {"rt": -1000, "trial_type": "single-audio", "word": "cod", "stimulus": "/static/audio/wordpool/COD.wav", "conditions": [24, 800, "a", 12000], "internal_node_id": "0.0-78.0", "trial": 2, "time_elapsed": 665685, "serialpos": 16, "key_press": -1, "wordID": 339, "type": "PRES_AUD", "trial_index": 105}, "uniqueid": "MTK3647:30LSNF239V2MJ956SBSOLNDGT11I25", "dateTime": 1520877063032}, {"current_trial": 106, "trialdata": {"rt": -1000, "trial_type": "single-audio", "word": "dust", "stimulus": "/static/audio/wordpool/DUST.wav", "conditions": [24, 800, "a", 12000], "internal_node_id": "0.0-79.0", "trial": 2, "time_elapsed": 667672, "serialpos": 17, "key_press": -1, "wordID": 507, "type": "PRES_AUD", "trial_index": 106}, "uniqueid": "MTK3647:30LSNF239V2MJ956SBSOLNDGT11I25", "dateTime": 1520877065019}, {"current_trial": 107, "trialdata": {"rt": -1000, "trial_type": "single-audio", "word": "flashlight", "stimulus": "/static/audio/wordpool/FLASHLIGHT.wav", "conditions": [24, 800, "a", 12000], "internal_node_id": "0.0-80.0", "trial": 2, "time_elapsed": 669489, "serialpos": 18, "key_press": -1, "wordID": 574, "type": "PRES_AUD", "trial_index": 107}, "uniqueid": "MTK3647:30LSNF239V2MJ956SBSOLNDGT11I25", "dateTime": 1520877066836}, {"current_trial": 108, "trialdata": {"rt": -1000, "trial_type": "single-audio", "word": "shovel", "stimulus": "/static/audio/wordpool/SHOVEL.wav", "conditions": [24, 800, "a", 12000], "internal_node_id": "0.0-81.0", "trial": 2, "time_elapsed": 671349, "serialpos": 19, "key_press": -1, "wordID": 1294, "type": "PRES_AUD", "trial_index": 108}, "uniqueid": "MTK3647:30LSNF239V2MJ956SBSOLNDGT11I25", "dateTime": 1520877068696}, {"current_trial": 109, "trialdata": {"rt": -1000, "trial_type": "single-audio", "word": "scallop", "stimulus": "/static/audio/wordpool/SCALLOP.wav", "conditions": [24, 800, "a", 12000], "internal_node_id": "0.0-82.0", "trial": 2, "time_elapsed": 673281, "serialpos": 20, "key_press": -1, "wordID": 1241, "type": "PRES_AUD", "trial_index": 109}, "uniqueid": "MTK3647:30LSNF239V2MJ956SBSOLNDGT11I25", "dateTime": 1520877070628}, {"current_trial": 110, "trialdata": {"rt": -1000, "trial_type": "single-audio", "word": "chest", "stimulus": "/static/audio/wordpool/CHEST.wav", "conditions": [24, 800, "a", 12000], "internal_node_id": "0.0-83.0", "trial": 2, "time_elapsed": 675051, "serialpos": 21, "key_press": -1, "wordID": 294, "type": "PRES_AUD", "trial_index": 110}, "uniqueid": "MTK3647:30LSNF239V2MJ956SBSOLNDGT11I25", "dateTime": 1520877072398}, {"current_trial": 111, "trialdata": {"rt": -1000, "trial_type": "single-audio", "word": "stomach", "stimulus": "/static/audio/wordpool/STOMACH.wav", "conditions": [24, 800, "a", 12000], "internal_node_id": "0.0-84.0", "trial": 2, "time_elapsed": 677049, "serialpos": 22, "key_press": -1, "wordID": 1383, "type": "PRES_AUD", "trial_index": 111}, "uniqueid": "MTK3647:30LSNF239V2MJ956SBSOLNDGT11I25", "dateTime": 1520877074396}, {"current_trial": 112, "trialdata": {"rt": -1000, "trial_type": "single-audio", "word": "seagull", "stimulus": "/static/audio/wordpool/SEAGULL.wav", "conditions": [24, 800, "a", 12000], "internal_node_id": "0.0-85.0", "trial": 2, "time_elapsed": 678874, "serialpos": 23, "key_press": -1, "wordID": 1260, "type": "PRES_AUD", "trial_index": 112}, "uniqueid": "MTK3647:30LSNF239V2MJ956SBSOLNDGT11I25", "dateTime": 1520877076221}, {"current_trial": 113, "trialdata": {"rt": -1, "trial_type": "single-stim", "stimulus": "", "internal_node_id": "0.0-86.0-0.0", "time_elapsed": 680084, "key_press": -1, "type": "PRE_RECALL_DELAY", "trial_index": 113}, "uniqueid": "MTK3647:30LSNF239V2MJ956SBSOLNDGT11I25", "dateTime": 1520877077431}, {"current_trial": 114, "trialdata": {"rt": -1000, "trial_type": "single-audio", "stimulus": "/static/audio/400Hz.wav", "internal_node_id": "0.0-87.0", "time_elapsed": 680587, "key_press": -1, "type": "PRE_RECALL_ALERT", "trial_index": 114}, "uniqueid": "MTK3647:30LSNF239V2MJ956SBSOLNDGT11I25", "dateTime": 1520877077934}, {"current_trial": 115, "trialdata": {"rt": [3481, 4830, 8397, 9972, 13777, 17359, 21609, 30191, 49278], "recwords": ["leg", "chest", "flashlight", "cheetah", "seagull", "dull", "crayon", "panther", "custard"], "key_times": [2406, 2553, 3189, 3481, 3868, 4047, 4399, 4497, 4640, 4830, 4990, 5261, 5375, 5516, 5717, 6197, 7226, 7599, 7786, 7944, 8030, 8228, 8397, 8652, 8799, 8951, 9205, 9318, 9549, 9687, 9972, 10354, 10468, 10602, 11459, 11584, 12035, 12256, 12820, 12979, 13233, 13406, 13777, 16757, 16827, 17049, 17209, 17359, 20506, 20715, 20835, 21114, 21247, 21364, 21609, 27973, 28097, 28255, 28433, 28580, 28651, 28756, 30191, 48090, 48293, 48445, 48555, 48739, 48820, 49014, 49278], "trial_type": "free-recall", "conditions": [24, 800, "a", 12000], "internal_node_id": "0.0-88.0-0.0", "key_presses": [76, 69, 71, 13, 67, 72, 69, 83, 84, 13, 70, 76, 65, 83, 72, 73, 8, 76, 73, 71, 72, 84, 13, 67, 72, 69, 69, 84, 65, 72, 13, 83, 69, 65, 71, 85, 75, 75, 8, 8, 76, 76, 13, 68, 85, 76, 76, 13, 67, 82, 65, 89, 79, 78, 13, 80, 65, 78, 84, 72, 69, 82, 13, 67, 85, 83, 84, 65, 82, 68, 13], "trial": 2, "time_elapsed": 740595, "type": "FREE_RECALL", "trial_index": 115}, "uniqueid": "MTK3647:30LSNF239V2MJ956SBSOLNDGT11I25", "dateTime": 1520877137949}, {"current_trial": 116, "trialdata": {"rt": 1411, "trial_type": "text", "internal_node_id": "0.0-89.0", "time_elapsed": 744019, "key_press": 32, "type": "INSTRUCTIONS", "trial_index": 116}, "uniqueid": "MTK3647:30LSNF239V2MJ956SBSOLNDGT11I25", "dateTime": 1520877141366}, {"current_trial": 117, "trialdata": {"rt": [3086, 5950, 13630, 18394, 21988], "trial_type": "math-distractor", "key_times": [2548, 2807, 3086, 5199, 5950, 12962, 13383, 13630, 17570, 17977, 18394, 21010, 21632, 21988], "responses": ["14", "7", "16", "16", "10"], "num2": [3, 4, 1, 8, 3, 9], "num3": [1, 2, 7, 3, 3, 5], "conditions": [24, 1600, "a", 24000], "internal_node_id": "0.0-90.0", "key_presses": [49, 52, 13, 55, 13, 49, 54, 13, 49, 54, 13, 49, 48, 13], "trial": 3, "time_elapsed": 770043, "type": "DISTRACTOR", "trial_index": 117, "num1": [8, 1, 8, 5, 4, 4]}, "uniqueid": "MTK3647:30LSNF239V2MJ956SBSOLNDGT11I25", "dateTime": 1520877167391}, {"current_trial": 118, "trialdata": {"rt": -1, "trial_type": "single-stim", "stimulus": "<p id=\"stim\">10</p>", "internal_node_id": "0.0-91.0-0.0", "time_elapsed": 773048, "key_press": -1, "trial_index": 118}, "uniqueid": "MTK3647:30LSNF239V2MJ956SBSOLNDGT11I25", "dateTime": 1520877170395}, {"current_trial": 119, "trialdata": {"rt": -1, "trial_type": "single-stim", "stimulus": "<p id=\"stim\">9</p>", "internal_node_id": "0.0-91.0-1.0", "time_elapsed": 774051, "key_press": -1, "trial_index": 119}, "uniqueid": "MTK3647:30LSNF239V2MJ956SBSOLNDGT11I25", "dateTime": 1520877171398}, {"current_trial": 120, "trialdata": {"rt": -1, "trial_type": "single-stim", "stimulus": "<p id=\"stim\">8</p>", "internal_node_id": "0.0-91.0-2.0", "time_elapsed": 775054, "key_press": -1, "trial_index": 120}, "uniqueid": "MTK3647:30LSNF239V2MJ956SBSOLNDGT11I25", "dateTime": 1520877172401}, {"current_trial": 121, "trialdata": {"rt": -1, "trial_type": "single-stim", "stimulus": "<p id=\"stim\">7</p>", "internal_node_id": "0.0-91.0-3.0", "time_elapsed": 776059, "key_press": -1, "trial_index": 121}, "uniqueid": "MTK3647:30LSNF239V2MJ956SBSOLNDGT11I25", "dateTime": 1520877173406}, {"current_trial": 122, "trialdata": {"rt": -1, "trial_type": "single-stim", "stimulus": "<p id=\"stim\">6</p>", "internal_node_id": "0.0-91.0-4.0", "time_elapsed": 777063, "key_press": -1, "trial_index": 122}, "uniqueid": "MTK3647:30LSNF239V2MJ956SBSOLNDGT11I25", "dateTime": 1520877174410}, {"current_trial": 123, "trialdata": {"rt": -1, "trial_type": "single-stim", "stimulus": "<p id=\"stim\">5</p>", "internal_node_id": "0.0-91.0-5.0", "time_elapsed": 778068, "key_press": -1, "trial_index": 123}, "uniqueid": "MTK3647:30LSNF239V2MJ956SBSOLNDGT11I25", "dateTime": 1520877175416}, {"current_trial": 124, "trialdata": {"rt": -1, "trial_type": "single-stim", "stimulus": "<p id=\"stim\">4</p>", "internal_node_id": "0.0-91.0-6.0", "time_elapsed": 779071, "key_press": -1, "trial_index": 124}, "uniqueid": "MTK3647:30LSNF239V2MJ956SBSOLNDGT11I25", "dateTime": 1520877176419}, {"current_trial": 125, "trialdata": {"rt": -1, "trial_type": "single-stim", "stimulus": "<p id=\"stim\">3</p>", "internal_node_id": "0.0-91.0-7.0", "time_elapsed": 780076, "key_press": -1, "trial_index": 125}, "uniqueid": "MTK3647:30LSNF239V2MJ956SBSOLNDGT11I25", "dateTime": 1520877177423}, {"current_trial": 126, "trialdata": {"rt": -1, "trial_type": "single-stim", "stimulus": "<p id=\"stim\">2</p>", "internal_node_id": "0.0-91.0-8.0", "time_elapsed": 781080, "key_press": -1, "trial_index": 126}, "uniqueid": "MTK3647:30LSNF239V2MJ956SBSOLNDGT11I25", "dateTime": 1520877178428}, {"current_trial": 127, "trialdata": {"rt": -1, "trial_type": "single-stim", "stimulus": "<p id=\"stim\">1</p>", "internal_node_id": "0.0-91.0-9.0", "time_elapsed": 782085, "key_press": -1, "trial_index": 127}, "uniqueid": "MTK3647:30LSNF239V2MJ956SBSOLNDGT11I25", "dateTime": 1520877179433}, {"current_trial": 128, "trialdata": {"rt": -1, "trial_type": "single-stim", "stimulus": "<p id=\"stim\">+</p>", "internal_node_id": "0.0-92.0-0.0", "time_elapsed": 783589, "key_press": -1, "type": "FIXATION", "trial_index": 128}, "uniqueid": "MTK3647:30LSNF239V2MJ956SBSOLNDGT11I25", "dateTime": 1520877180937}, {"current_trial": 129, "trialdata": {"rt": -1000, "trial_type": "single-audio", "word": "apron", "stimulus": "/static/audio/wordpool/APRON.wav", "conditions": [24, 1600, "a", 24000], "internal_node_id": "0.0-93.0", "trial": 3, "time_elapsed": 786269, "serialpos": 0, "key_press": -1, "wordID": 34, "type": "PRES_AUD", "trial_index": 129}, "uniqueid": "MTK3647:30LSNF239V2MJ956SBSOLNDGT11I25", "dateTime": 1520877183616}, {"current_trial": 130, "trialdata": {"rt": -1000, "trial_type": "single-audio", "word": "ground", "stimulus": "/static/audio/wordpool/GROUND.wav", "conditions": [24, 1600, "a", 24000], "internal_node_id": "0.0-94.0", "trial": 3, "time_elapsed": 788927, "serialpos": 1, "key_press": -1, "wordID": 665, "type": "PRES_AUD", "trial_index": 130}, "uniqueid": "MTK3647:30LSNF239V2MJ956SBSOLNDGT11I25", "dateTime": 1520877186275}, {"current_trial": 131, "trialdata": {"rt": -1000, "trial_type": "single-audio", "word": "muffin", "stimulus": "/static/audio/wordpool/MUFFIN.wav", "conditions": [24, 1600, "a", 24000], "internal_node_id": "0.0-95.0", "trial": 3, "time_elapsed": 791698, "serialpos": 2, "key_press": -1, "wordID": 928, "type": "PRES_AUD", "trial_index": 131}, "uniqueid": "MTK3647:30LSNF239V2MJ956SBSOLNDGT11I25", "dateTime": 1520877189045}, {"current_trial": 132, "trialdata": {"rt": -1000, "trial_type": "single-audio", "word": "statue", "stimulus": "/static/audio/wordpool/STATUE.wav", "conditions": [24, 1600, "a", 24000], "internal_node_id": "0.0-96.0", "trial": 3, "time_elapsed": 794268, "serialpos": 3, "key_press": -1, "wordID": 1373, "type": "PRES_AUD", "trial_index": 132}, "uniqueid": "MTK3647:30LSNF239V2MJ956SBSOLNDGT11I25", "dateTime": 1520877191615}, {"current_trial": 133, "trialdata": {"rt": -1000, "trial_type": "single-audio", "word": "relish", "stimulus": "/static/audio/wordpool/RELISH.wav", "conditions": [24, 1600, "a", 24000], "internal_node_id": "0.0-97.0", "trial": 3, "time_elapsed": 797060, "serialpos": 4, "key_press": -1, "wordID": 1182, "type": "PRES_AUD", "trial_index": 133}, "uniqueid": "MTK3647:30LSNF239V2MJ956SBSOLNDGT11I25", "dateTime": 1520877194407}, {"current_trial": 134, "trialdata": {"rt": -1000, "trial_type": "single-audio", "word": "girl", "stimulus": "/static/audio/wordpool/GIRL.wav", "conditions": [24, 1600, "a", 24000], "internal_node_id": "0.0-98.0", "trial": 3, "time_elapsed": 799584, "serialpos": 5, "key_press": -1, "wordID": 636, "type": "PRES_AUD", "trial_index": 134}, "uniqueid": "MTK3647:30LSNF239V2MJ956SBSOLNDGT11I25", "dateTime": 1520877196932}, {"current_trial": 135, "trialdata": {"rt": -1000, "trial_type": "single-audio", "word": "daughter", "stimulus": "/static/audio/wordpool/DAUGHTER.wav", "conditions": [24, 1600, "a", 24000], "internal_node_id": "0.0-99.0", "trial": 3, "time_elapsed": 802223, "serialpos": 6, "key_press": -1, "wordID": 441, "type": "PRES_AUD", "trial_index": 135}, "uniqueid": "MTK3647:30LSNF239V2MJ956SBSOLNDGT11I25", "dateTime": 1520877199570}, {"current_trial": 136, "trialdata": {"rt": -1000, "trial_type": "single-audio", "word": "honey", "stimulus": "/static/audio/wordpool/HONEY.wav", "conditions": [24, 1600, "a", 24000], "internal_node_id": "0.0-100.0", "trial": 3, "time_elapsed": 804745, "serialpos": 7, "key_press": -1, "wordID": 712, "type": "PRES_AUD", "trial_index": 136}, "uniqueid": "MTK3647:30LSNF239V2MJ956SBSOLNDGT11I25", "dateTime": 1520877202092}, {"current_trial": 137, "trialdata": {"rt": -1000, "trial_type": "single-audio", "word": "tutu", "stimulus": "/static/audio/wordpool/TUTU.wav", "conditions": [24, 1600, "a", 24000], "internal_node_id": "0.0-101.0", "trial": 3, "time_elapsed": 807213, "serialpos": 8, "key_press": -1, "wordID": 1523, "type": "PRES_AUD", "trial_index": 137}, "uniqueid": "MTK3647:30LSNF239V2MJ956SBSOLNDGT11I25", "dateTime": 1520877204560}, {"current_trial": 138, "trialdata": {"rt": -1000, "trial_type": "single-audio", "word": "bureau", "stimulus": "/static/audio/wordpool/BUREAU.wav", "conditions": [24, 1600, "a", 24000], "internal_node_id": "0.0-102.0", "trial": 3, "time_elapsed": 809870, "serialpos": 9, "key_press": -1, "wordID": 198, "type": "PRES_AUD", "trial_index": 138}, "uniqueid": "MTK3647:30LSNF239V2MJ956SBSOLNDGT11I25", "dateTime": 1520877207217}, {"current_trial": 139, "trialdata": {"rt": -1000, "trial_type": "single-audio", "word": "pastry", "stimulus": "/static/audio/wordpool/PASTRY.wav", "conditions": [24, 1600, "a", 24000], "internal_node_id": "0.0-103.0", "trial": 3, "time_elapsed": 812368, "serialpos": 10, "key_press": -1, "wordID": 1021, "type": "PRES_AUD", "trial_index": 139}, "uniqueid": "MTK3647:30LSNF239V2MJ956SBSOLNDGT11I25", "dateTime": 1520877209715}, {"current_trial": 140, "trialdata": {"rt": -1000, "trial_type": "single-audio", "word": "sandwich", "stimulus": "/static/audio/wordpool/SANDWICH.wav", "conditions": [24, 1600, "a", 24000], "internal_node_id": "0.0-104.0", "trial": 3, "time_elapsed": 815022, "serialpos": 11, "key_press": -1, "wordID": 1231, "type": "PRES_AUD", "trial_index": 140}, "uniqueid": "MTK3647:30LSNF239V2MJ956SBSOLNDGT11I25", "dateTime": 1520877212370}, {"current_trial": 141, "trialdata": {"rt": -1000, "trial_type": "single-audio", "word": "slope", "stimulus": "/static/audio/wordpool/SLOPE.wav", "conditions": [24, 1600, "a", 24000], "internal_node_id": "0.0-105.0", "trial": 3, "time_elapsed": 817473, "serialpos": 12, "key_press": -1, "wordID": 1327, "type": "PRES_AUD", "trial_index": 141}, "uniqueid": "MTK3647:30LSNF239V2MJ956SBSOLNDGT11I25", "dateTime": 1520877214820}, {"current_trial": 142, "trialdata": {"rt": -1000, "trial_type": "single-audio", "word": "beast", "stimulus": "/static/audio/wordpool/BEAST.wav", "conditions": [24, 1600, "a", 24000], "internal_node_id": "0.0-106.0", "trial": 3, "time_elapsed": 819921, "serialpos": 13, "key_press": -1, "wordID": 107, "type": "PRES_AUD", "trial_index": 142}, "uniqueid": "MTK3647:30LSNF239V2MJ956SBSOLNDGT11I25", "dateTime": 1520877217268}, {"current_trial": 143, "trialdata": {"rt": -1000, "trial_type": "single-audio", "word": "shortcake", "stimulus": "/static/audio/wordpool/SHORTCAKE.wav", "conditions": [24, 1600, "a", 24000], "internal_node_id": "0.0-107.0", "trial": 3, "time_elapsed": 822380, "serialpos": 14, "key_press": -1, "wordID": 1291, "type": "PRES_AUD", "trial_index": 143}, "uniqueid": "MTK3647:30LSNF239V2MJ956SBSOLNDGT11I25", "dateTime": 1520877219728}, {"current_trial": 144, "trialdata": {"rt": -1000, "trial_type": "single-audio", "word": "actress", "stimulus": "/static/audio/wordpool/ACTRESS.wav", "conditions": [24, 1600, "a", 24000], "internal_node_id": "0.0-108.0", "trial": 3, "time_elapsed": 825148, "serialpos": 15, "key_press": -1, "wordID": 5, "type": "PRES_AUD", "trial_index": 144}, "uniqueid": "MTK3647:30LSNF239V2MJ956SBSOLNDGT11I25", "dateTime": 1520877222495}, {"current_trial": 145, "trialdata": {"rt": -1000, "trial_type": "single-audio", "word": "handbag", "stimulus": "/static/audio/wordpool/HANDBAG.wav", "conditions": [24, 1600, "a", 24000], "internal_node_id": "0.0-109.0", "trial": 3, "time_elapsed": 827668, "serialpos": 16, "key_press": -1, "wordID": 683, "type": "PRES_AUD", "trial_index": 145}, "uniqueid": "MTK3647:30LSNF239V2MJ956SBSOLNDGT11I25", "dateTime": 1520877225015}, {"current_trial": 146, "trialdata": {"rt": -1000, "trial_type": "single-audio", "word": "woman", "stimulus": "/static/audio/wordpool/WOMAN.wav", "conditions": [24, 1600, "a", 24000], "internal_node_id": "0.0-110.0", "trial": 3, "time_elapsed": 830433, "serialpos": 17, "key_press": -1, "wordID": 1619, "type": "PRES_AUD", "trial_index": 146}, "uniqueid": "MTK3647:30LSNF239V2MJ956SBSOLNDGT11I25", "dateTime": 1520877227780}, {"current_trial": 147, "trialdata": {"rt": -1000, "trial_type": "single-audio", "word": "lady", "stimulus": "/static/audio/wordpool/LADY.wav", "conditions": [24, 1600, "a", 24000], "internal_node_id": "0.0-111.0", "trial": 3, "time_elapsed": 832981, "serialpos": 18, "key_press": -1, "wordID": 793, "type": "PRES_AUD", "trial_index": 147}, "uniqueid": "MTK3647:30LSNF239V2MJ956SBSOLNDGT11I25", "dateTime": 1520877230328}, {"current_trial": 148, "trialdata": {"rt": -1000, "trial_type": "single-audio", "word": "clothes", "stimulus": "/static/audio/wordpool/CLOTHES.wav", "conditions": [24, 1600, "a", 24000], "internal_node_id": "0.0-112.0", "trial": 3, "time_elapsed": 835512, "serialpos": 19, "key_press": -1, "wordID": 326, "type": "PRES_AUD", "trial_index": 148}, "uniqueid": "MTK3647:30LSNF239V2MJ956SBSOLNDGT11I25", "dateTime": 1520877232859}, {"current_trial": 149, "trialdata": {"rt": -1000, "trial_type": "single-audio", "word": "teacher", "stimulus": "/static/audio/wordpool/TEACHER.wav", "conditions": [24, 1600, "a", 24000], "internal_node_id": "0.0-113.0", "trial": 3, "time_elapsed": 838226, "serialpos": 20, "key_press": -1, "wordID": 1439, "type": "PRES_AUD", "trial_index": 149}, "uniqueid": "MTK3647:30LSNF239V2MJ956SBSOLNDGT11I25", "dateTime": 1520877235574}, {"current_trial": 150, "trialdata": {"rt": -1000, "trial_type": "single-audio", "word": "canal", "stimulus": "/static/audio/wordpool/CANAL.wav", "conditions": [24, 1600, "a", 24000], "internal_node_id": "0.0-114.0", "trial": 3, "time_elapsed": 840861, "serialpos": 21, "key_press": -1, "wordID": 225, "type": "PRES_AUD", "trial_index": 150}, "uniqueid": "MTK3647:30LSNF239V2MJ956SBSOLNDGT11I25", "dateTime": 1520877238208}, {"current_trial": 151, "trialdata": {"rt": -1000, "trial_type": "single-audio", "word": "pasta", "stimulus": "/static/audio/wordpool/PASTA.wav", "conditions": [24, 1600, "a", 24000], "internal_node_id": "0.0-115.0", "trial": 3, "time_elapsed": 843411, "serialpos": 22, "key_press": -1, "wordID": 1020, "type": "PRES_AUD", "trial_index": 151}, "uniqueid": "MTK3647:30LSNF239V2MJ956SBSOLNDGT11I25", "dateTime": 1520877240758}, {"current_trial": 152, "trialdata": {"rt": -1000, "trial_type": "single-audio", "word": "drill", "stimulus": "/static/audio/wordpool/DRILL.wav", "conditions": [24, 1600, "a", 24000], "internal_node_id": "0.0-116.0", "trial": 3, "time_elapsed": 845876, "serialpos": 23, "key_press": -1, "wordID": 496, "type": "PRES_AUD", "trial_index": 152}, "uniqueid": "MTK3647:30LSNF239V2MJ956SBSOLNDGT11I25", "dateTime": 1520877243224}, {"current_trial": 153, "trialdata": {"rt": -1, "trial_type": "single-stim", "stimulus": "", "internal_node_id": "0.0-117.0-0.0", "time_elapsed": 847188, "key_press": -1, "type": "PRE_RECALL_DELAY", "trial_index": 153}, "uniqueid": "MTK3647:30LSNF239V2MJ956SBSOLNDGT11I25", "dateTime": 1520877244535}, {"current_trial": 154, "trialdata": {"rt": -1000, "trial_type": "single-audio", "stimulus": "/static/audio/400Hz.wav", "internal_node_id": "0.0-118.0", "time_elapsed": 847690, "key_press": -1, "type": "PRE_RECALL_ALERT", "trial_index": 154}, "uniqueid": "MTK3647:30LSNF239V2MJ956SBSOLNDGT11I25", "dateTime": 1520877245037}, {"current_trial": 155, "trialdata": {"rt": [5982, 11429, 14526, 16916, 20280, 25135, 29471, 35416, 40473, 43081, 52447], "recwords": ["muffin", "statue", "honey", "tutu", "daughter", "sandwich", "slope", "shortcake", "woman", "beast", "slope"], "key_times": [2181, 2422, 3273, 4467, 5047, 5438, 5982, 7706, 8499, 9129, 9364, 9557, 9758, 9994, 10323, 11429, 12232, 12523, 13172, 13683, 13888, 14526, 15230, 15485, 15729, 15898, 16916, 17749, 18081, 18543, 18939, 19203, 19431, 19641, 19761, 20280, 22045, 22174, 22693, 23344, 23510, 23869, 24474, 24753, 25135, 26810, 27355, 27635, 27818, 28543, 29471, 31546, 31860, 32171, 32867, 33003, 33601, 33740, 34136, 34638, 35416, 37512, 38156, 38945, 39342, 39877, 40473, 41259, 41599, 41772, 41957, 42190, 43081, 50347, 50981, 51121, 51288, 51925, 52447], "trial_type": "free-recall", "conditions": [24, 1600, "a", 24000], "internal_node_id": "0.0-119.0-0.0", "key_presses": [77, 85, 70, 70, 73, 78, 13, 84, 8, 83, 84, 65, 84, 85, 69, 13, 72, 79, 78, 69, 89, 13, 84, 85, 84, 85, 13, 68, 65, 85, 71, 72, 84, 69, 82, 13, 83, 65, 78, 68, 87, 73, 67, 72, 13, 83, 76, 79, 80, 69, 13, 83, 72, 79, 82, 84, 67, 65, 75, 69, 13, 87, 79, 77, 65, 78, 13, 66, 69, 65, 83, 84, 13, 83, 76, 79, 80, 69, 13], "trial": 3, "time_elapsed": 907696, "type": "FREE_RECALL", "trial_index": 155}, "uniqueid": "MTK3647:30LSNF239V2MJ956SBSOLNDGT11I25", "dateTime": 1520877305052}, {"current_trial": 156, "trialdata": {"rt": 3393, "trial_type": "text", "internal_node_id": "0.0-120.0", "time_elapsed": 913101, "key_press": 32, "type": "INSTRUCTIONS", "trial_index": 156}, "uniqueid": "MTK3647:30LSNF239V2MJ956SBSOLNDGT11I25", "dateTime": 1520877310449}, {"current_trial": 157, "trialdata": {"rt": [3395, 7055, 11636], "trial_type": "math-distractor", "key_times": [2633, 2715, 3395, 6138, 6536, 7055, 9768, 10881, 11636], "responses": ["12", "18", "11"], "num2": [5, 5, 2, 3], "num3": [2, 7, 6, 7], "conditions": [12, 1600, "a", 12000], "internal_node_id": "0.0-121.0", "key_presses": [49, 50, 13, 49, 56, 13, 49, 49, 13], "trial": 4, "time_elapsed": 927113, "type": "DISTRACTOR", "trial_index": 157, "num1": [5, 6, 3, 1]}, "uniqueid": "MTK3647:30LSNF239V2MJ956SBSOLNDGT11I25", "dateTime": 1520877324460}, {"current_trial": 158, "trialdata": {"rt": -1, "trial_type": "single-stim", "stimulus": "<p id=\"stim\">10</p>", "internal_node_id": "0.0-122.0-0.0", "time_elapsed": 930116, "key_press": -1, "trial_index": 158}, "uniqueid": "MTK3647:30LSNF239V2MJ956SBSOLNDGT11I25", "dateTime": 1520877327464}, {"current_trial": 159, "trialdata": {"rt": -1, "trial_type": "single-stim", "stimulus": "<p id=\"stim\">9</p>", "internal_node_id": "0.0-122.0-1.0", "time_elapsed": 931124, "key_press": -1, "trial_index": 159}, "uniqueid": "MTK3647:30LSNF239V2MJ956SBSOLNDGT11I25", "dateTime": 1520877328471}, {"current_trial": 160, "trialdata": {"rt": -1, "trial_type": "single-stim", "stimulus": "<p id=\"stim\">8</p>", "internal_node_id": "0.0-122.0-2.0", "time_elapsed": 932126, "key_press": -1, "trial_index": 160}, "uniqueid": "MTK3647:30LSNF239V2MJ956SBSOLNDGT11I25", "dateTime": 1520877329474}, {"current_trial": 161, "trialdata": {"rt": -1, "trial_type": "single-stim", "stimulus": "<p id=\"stim\">7</p>", "internal_node_id": "0.0-122.0-3.0", "time_elapsed": 933129, "key_press": -1, "trial_index": 161}, "uniqueid": "MTK3647:30LSNF239V2MJ956SBSOLNDGT11I25", "dateTime": 1520877330476}, {"current_trial": 162, "trialdata": {"rt": -1, "trial_type": "single-stim", "stimulus": "<p id=\"stim\">6</p>", "internal_node_id": "0.0-122.0-4.0", "time_elapsed": 934131, "key_press": -1, "trial_index": 162}, "uniqueid": "MTK3647:30LSNF239V2MJ956SBSOLNDGT11I25", "dateTime": 1520877331478}, {"current_trial": 163, "trialdata": {"rt": -1, "trial_type": "single-stim", "stimulus": "<p id=\"stim\">5</p>", "internal_node_id": "0.0-122.0-5.0", "time_elapsed": 935134, "key_press": -1, "trial_index": 163}, "uniqueid": "MTK3647:30LSNF239V2MJ956SBSOLNDGT11I25", "dateTime": 1520877332481}, {"current_trial": 164, "trialdata": {"rt": -1, "trial_type": "single-stim", "stimulus": "<p id=\"stim\">4</p>", "internal_node_id": "0.0-122.0-6.0", "time_elapsed": 936136, "key_press": -1, "trial_index": 164}, "uniqueid": "MTK3647:30LSNF239V2MJ956SBSOLNDGT11I25", "dateTime": 1520877333484}, {"current_trial": 165, "trialdata": {"rt": -1, "trial_type": "single-stim", "stimulus": "<p id=\"stim\">3</p>", "internal_node_id": "0.0-122.0-7.0", "time_elapsed": 937139, "key_press": -1, "trial_index": 165}, "uniqueid": "MTK3647:30LSNF239V2MJ956SBSOLNDGT11I25", "dateTime": 1520877334486}, {"current_trial": 166, "trialdata": {"rt": -1, "trial_type": "single-stim", "stimulus": "<p id=\"stim\">2</p>", "internal_node_id": "0.0-122.0-8.0", "time_elapsed": 938141, "key_press": -1, "trial_index": 166}, "uniqueid": "MTK3647:30LSNF239V2MJ956SBSOLNDGT11I25", "dateTime": 1520877335489}, {"current_trial": 167, "trialdata": {"rt": -1, "trial_type": "single-stim", "stimulus": "<p id=\"stim\">1</p>", "internal_node_id": "0.0-122.0-9.0", "time_elapsed": 939144, "key_press": -1, "trial_index": 167}, "uniqueid": "MTK3647:30LSNF239V2MJ956SBSOLNDGT11I25", "dateTime": 1520877336491}, {"current_trial": 168, "trialdata": {"rt": -1, "trial_type": "single-stim", "stimulus": "<p id=\"stim\">+</p>", "internal_node_id": "0.0-123.0-0.0", "time_elapsed": 940648, "key_press": -1, "type": "FIXATION", "trial_index": 168}, "uniqueid": "MTK3647:30LSNF239V2MJ956SBSOLNDGT11I25", "dateTime": 1520877337996}, {"current_trial": 169, "trialdata": {"rt": -1000, "trial_type": "single-audio", "word": "parsley", "stimulus": "/static/audio/wordpool/PARSLEY.wav", "conditions": [12, 1600, "a", 12000], "internal_node_id": "0.0-124.0", "trial": 4, "time_elapsed": 943394, "serialpos": 0, "key_press": -1, "wordID": 1015, "type": "PRES_AUD", "trial_index": 169}, "uniqueid": "MTK3647:30LSNF239V2MJ956SBSOLNDGT11I25", "dateTime": 1520877340741}, {"current_trial": 170, "trialdata": {"rt": -1000, "trial_type": "single-audio", "word": "cabbage", "stimulus": "/static/audio/wordpool/CABBAGE.wav", "conditions": [12, 1600, "a", 12000], "internal_node_id": "0.0-125.0", "trial": 4, "time_elapsed": 946118, "serialpos": 1, "key_press": -1, "wordID": 209, "type": "PRES_AUD", "trial_index": 170}, "uniqueid": "MTK3647:30LSNF239V2MJ956SBSOLNDGT11I25", "dateTime": 1520877343465}, {"current_trial": 171, "trialdata": {"rt": -1000, "trial_type": "single-audio", "word": "expert", "stimulus": "/static/audio/wordpool/EXPERT.wav", "conditions": [12, 1600, "a", 12000], "internal_node_id": "0.0-126.0", "trial": 4, "time_elapsed": 948656, "serialpos": 2, "key_press": -1, "wordID": 542, "type": "PRES_AUD", "trial_index": 171}, "uniqueid": "MTK3647:30LSNF239V2MJ956SBSOLNDGT11I25", "dateTime": 1520877346003}, {"current_trial": 172, "trialdata": {"rt": -1000, "trial_type": "single-audio", "word": "shoulder", "stimulus": "/static/audio/wordpool/SHOULDER.wav", "conditions": [12, 1600, "a", 12000], "internal_node_id": "0.0-127.0", "trial": 4, "time_elapsed": 951198, "serialpos": 3, "key_press": -1, "wordID": 1293, "type": "PRES_AUD", "trial_index": 172}, "uniqueid": "MTK3647:30LSNF239V2MJ956SBSOLNDGT11I25", "dateTime": 1520877348545}, {"current_trial": 173, "trialdata": {"rt": -1000, "trial_type": "single-audio", "word": "world", "stimulus": "/static/audio/wordpool/WORLD.wav", "conditions": [12, 1600, "a", 12000], "internal_node_id": "0.0-128.0", "trial": 4, "time_elapsed": 953654, "serialpos": 4, "key_press": -1, "wordID": 1621, "type": "PRES_AUD", "trial_index": 173}, "uniqueid": "MTK3647:30LSNF239V2MJ956SBSOLNDGT11I25", "dateTime": 1520877351001}, {"current_trial": 174, "trialdata": {"rt": -1000, "trial_type": "single-audio", "word": "cashew", "stimulus": "/static/audio/wordpool/CASHEW.wav", "conditions": [12, 1600, "a", 12000], "internal_node_id": "0.0-129.0", "trial": 4, "time_elapsed": 956093, "serialpos": 5, "key_press": -1, "wordID": 252, "type": "PRES_AUD", "trial_index": 174}, "uniqueid": "MTK3647:30LSNF239V2MJ956SBSOLNDGT11I25", "dateTime": 1520877353440}, {"current_trial": 175, "trialdata": {"rt": -1000, "trial_type": "single-audio", "word": "garden", "stimulus": "/static/audio/wordpool/GARDEN.wav", "conditions": [12, 1600, "a", 12000], "internal_node_id": "0.0-130.0", "trial": 4, "time_elapsed": 958707, "serialpos": 6, "key_press": -1, "wordID": 622, "type": "PRES_AUD", "trial_index": 175}, "uniqueid": "MTK3647:30LSNF239V2MJ956SBSOLNDGT11I25", "dateTime": 1520877356054}, {"current_trial": 176, "trialdata": {"rt": -1000, "trial_type": "single-audio", "word": "freckle", "stimulus": "/static/audio/wordpool/FRECKLE.wav", "conditions": [12, 1600, "a", 12000], "internal_node_id": "0.0-131.0", "trial": 4, "time_elapsed": 961190, "serialpos": 7, "key_press": -1, "wordID": 601, "type": "PRES_AUD", "trial_index": 176}, "uniqueid": "MTK3647:30LSNF239V2MJ956SBSOLNDGT11I25", "dateTime": 1520877358537}, {"current_trial": 177, "trialdata": {"rt": -1000, "trial_type": "single-audio", "word": "arm", "stimulus": "/static/audio/wordpool/ARM.wav", "conditions": [12, 1600, "a", 12000], "internal_node_id": "0.0-132.0", "trial": 4, "time_elapsed": 963839, "serialpos": 8, "key_press": -1, "wordID": 37, "type": "PRES_AUD", "trial_index": 177}, "uniqueid": "MTK3647:30LSNF239V2MJ956SBSOLNDGT11I25", "dateTime": 1520877361186}, {"current_trial": 178, "trialdata": {"rt": -1000, "trial_type": "single-audio", "word": "temple", "stimulus": "/static/audio/wordpool/TEMPLE.wav", "conditions": [12, 1600, "a", 12000], "internal_node_id": "0.0-133.0", "trial": 4, "time_elapsed": 966411, "serialpos": 9, "key_press": -1, "wordID": 1447, "type": "PRES_AUD", "trial_index": 178}, "uniqueid": "MTK3647:30LSNF239V2MJ956SBSOLNDGT11I25", "dateTime": 1520877363758}, {"current_trial": 179, "trialdata": {"rt": -1000, "trial_type": "single-audio", "word": "racket", "stimulus": "/static/audio/wordpool/RACKET.wav", "conditions": [12, 1600, "a", 12000], "internal_node_id": "0.0-134.0", "trial": 4, "time_elapsed": 968955, "serialpos": 10, "key_press": -1, "wordID": 1154, "type": "PRES_AUD", "trial_index": 179}, "uniqueid": "MTK3647:30LSNF239V2MJ956SBSOLNDGT11I25", "dateTime": 1520877366303}, {"current_trial": 180, "trialdata": {"rt": -1000, "trial_type": "single-audio", "word": "egypt", "stimulus": "/static/audio/wordpool/EGYPT.wav", "conditions": [12, 1600, "a", 12000], "internal_node_id": "0.0-135.0", "trial": 4, "time_elapsed": 971627, "serialpos": 11, "key_press": -1, "wordID": 518, "type": "PRES_AUD", "trial_index": 180}, "uniqueid": "MTK3647:30LSNF239V2MJ956SBSOLNDGT11I25", "dateTime": 1520877368975}, {"current_trial": 181, "trialdata": {"rt": -1, "trial_type": "single-stim", "stimulus": "", "internal_node_id": "0.0-136.0-0.0", "time_elapsed": 972916, "key_press": -1, "type": "PRE_RECALL_DELAY", "trial_index": 181}, "uniqueid": "MTK3647:30LSNF239V2MJ956SBSOLNDGT11I25", "dateTime": 1520877370263}, {"current_trial": 182, "trialdata": {"rt": -1000, "trial_type": "single-audio", "stimulus": "/static/audio/400Hz.wav", "internal_node_id": "0.0-137.0", "time_elapsed": 973417, "key_press": -1, "type": "PRE_RECALL_ALERT", "trial_index": 182}, "uniqueid": "MTK3647:30LSNF239V2MJ956SBSOLNDGT11I25", "dateTime": 1520877370765}, {"current_trial": 183, "trialdata": {"rt": [3959, 6461, 35623], "recwords": ["egypt", "actress", "church"], "key_times": [2566, 2893, 3112, 3366, 3494, 3959, 4252, 4446, 5169, 5410, 5495, 5593, 5797, 6461, 34819, 34975, 35093, 35186, 35390, 35455, 35623], "trial_type": "free-recall", "conditions": [12, 1600, "a", 12000], "internal_node_id": "0.0-138.0-0.0", "key_presses": [69, 71, 89, 80, 84, 13, 65, 67, 84, 82, 69, 83, 83, 13, 67, 72, 85, 82, 67, 72, 13], "trial": 4, "time_elapsed": 1033423, "type": "FREE_RECALL", "trial_index": 183}, "uniqueid": "MTK3647:30LSNF239V2MJ956SBSOLNDGT11I25", "dateTime": 1520877430781}, {"current_trial": 184, "trialdata": {"rt": 1287, "trial_type": "text", "internal_node_id": "0.0-139.0", "time_elapsed": 1036726, "key_press": 32, "type": "INSTRUCTIONS", "trial_index": 184}, "uniqueid": "MTK3647:30LSNF239V2MJ956SBSOLNDGT11I25", "dateTime": 1520877434073}, {"current_trial": 185, "trialdata": {"rt": [3576, 7960, 11740], "trial_type": "math-distractor", "key_times": [3058, 3240, 3576, 7527, 7769, 7960, 10839, 11509, 11740], "responses": ["13", "11", "19"], "num2": [7, 4, 7, 3], "num3": [4, 4, 7, 5], "conditions": [24, 1600, "a", 12000], "internal_node_id": "0.0-140.0", "key_presses": [49, 51, 13, 49, 49, 13, 49, 57, 13], "trial": 5, "time_elapsed": 1050739, "type": "DISTRACTOR", "trial_index": 185, "num1": [2, 3, 5, 6]}, "uniqueid": "MTK3647:30LSNF239V2MJ956SBSOLNDGT11I25", "dateTime": 1520877448087}, {"current_trial": 186, "trialdata": {"rt": -1, "trial_type": "single-stim", "stimulus": "<p id=\"stim\">10</p>", "internal_node_id": "0.0-141.0-0.0", "time_elapsed": 1053747, "key_press": -1, "trial_index": 186}, "uniqueid": "MTK3647:30LSNF239V2MJ956SBSOLNDGT11I25", "dateTime": 1520877451094}, {"current_trial": 187, "trialdata": {"rt": -1, "trial_type": "single-stim", "stimulus": "<p id=\"stim\">9</p>", "internal_node_id": "0.0-141.0-1.0", "time_elapsed": 1054752, "key_press": -1, "trial_index": 187}, "uniqueid": "MTK3647:30LSNF239V2MJ956SBSOLNDGT11I25", "dateTime": 1520877452099}, {"current_trial": 188, "trialdata": {"rt": -1, "trial_type": "single-stim", "stimulus": "<p id=\"stim\">8</p>", "internal_node_id": "0.0-141.0-2.0", "time_elapsed": 1055755, "key_press": -1, "trial_index": 188}, "uniqueid": "MTK3647:30LSNF239V2MJ956SBSOLNDGT11I25", "dateTime": 1520877453103}, {"current_trial": 189, "trialdata": {"rt": -1, "trial_type": "single-stim", "stimulus": "<p id=\"stim\">7</p>", "internal_node_id": "0.0-141.0-3.0", "time_elapsed": 1056760, "key_press": -1, "trial_index": 189}, "uniqueid": "MTK3647:30LSNF239V2MJ956SBSOLNDGT11I25", "dateTime": 1520877454107}, {"current_trial": 190, "trialdata": {"rt": -1, "trial_type": "single-stim", "stimulus": "<p id=\"stim\">6</p>", "internal_node_id": "0.0-141.0-4.0", "time_elapsed": 1057764, "key_press": -1, "trial_index": 190}, "uniqueid": "MTK3647:30LSNF239V2MJ956SBSOLNDGT11I25", "dateTime": 1520877455111}, {"current_trial": 191, "trialdata": {"rt": -1, "trial_type": "single-stim", "stimulus": "<p id=\"stim\">5</p>", "internal_node_id": "0.0-141.0-5.0", "time_elapsed": 1058766, "key_press": -1, "trial_index": 191}, "uniqueid": "MTK3647:30LSNF239V2MJ956SBSOLNDGT11I25", "dateTime": 1520877456114}, {"current_trial": 192, "trialdata": {"rt": -1, "trial_type": "single-stim", "stimulus": "<p id=\"stim\">4</p>", "internal_node_id": "0.0-141.0-6.0", "time_elapsed": 1059769, "key_press": -1, "trial_index": 192}, "uniqueid": "MTK3647:30LSNF239V2MJ956SBSOLNDGT11I25", "dateTime": 1520877457117}, {"current_trial": 193, "trialdata": {"rt": -1, "trial_type": "single-stim", "stimulus": "<p id=\"stim\">3</p>", "internal_node_id": "0.0-141.0-7.0", "time_elapsed": 1060772, "key_press": -1, "trial_index": 193}, "uniqueid": "MTK3647:30LSNF239V2MJ956SBSOLNDGT11I25", "dateTime": 1520877458120}, {"current_trial": 194, "trialdata": {"rt": -1, "trial_type": "single-stim", "stimulus": "<p id=\"stim\">2</p>", "internal_node_id": "0.0-141.0-8.0", "time_elapsed": 1061776, "key_press": -1, "trial_index": 194}, "uniqueid": "MTK3647:30LSNF239V2MJ956SBSOLNDGT11I25", "dateTime": 1520877459123}, {"current_trial": 195, "trialdata": {"rt": -1, "trial_type": "single-stim", "stimulus": "<p id=\"stim\">1</p>", "internal_node_id": "0.0-141.0-9.0", "time_elapsed": 1062779, "key_press": -1, "trial_index": 195}, "uniqueid": "MTK3647:30LSNF239V2MJ956SBSOLNDGT11I25", "dateTime": 1520877460126}, {"current_trial": 196, "trialdata": {"rt": -1, "trial_type": "single-stim", "stimulus": "<p id=\"stim\">+</p>", "internal_node_id": "0.0-142.0-0.0", "time_elapsed": 1064286, "key_press": -1, "type": "FIXATION", "trial_index": 196}, "uniqueid": "MTK3647:30LSNF239V2MJ956SBSOLNDGT11I25", "dateTime": 1520877461633}, {"current_trial": 197, "trialdata": {"rt": -1000, "trial_type": "single-audio", "word": "snack", "stimulus": "/static/audio/wordpool/SNACK.wav", "conditions": [24, 1600, "a", 12000], "internal_node_id": "0.0-143.0", "trial": 5, "time_elapsed": 1066988, "serialpos": 0, "key_press": -1, "wordID": 1330, "type": "PRES_AUD", "trial_index": 197}, "uniqueid": "MTK3647:30LSNF239V2MJ956SBSOLNDGT11I25", "dateTime": 1520877464336}, {"current_trial": 198, "trialdata": {"rt": -1000, "trial_type": "single-audio", "word": "worker", "stimulus": "/static/audio/wordpool/WORKER.wav", "conditions": [24, 1600, "a", 12000], "internal_node_id": "0.0-144.0", "trial": 5, "time_elapsed": 1069734, "serialpos": 1, "key_press": -1, "wordID": 1620, "type": "PRES_AUD", "trial_index": 198}, "uniqueid": "MTK3647:30LSNF239V2MJ956SBSOLNDGT11I25", "dateTime": 1520877467082}, {"current_trial": 199, "trialdata": {"rt": -1000, "trial_type": "single-audio", "word": "scissors", "stimulus": "/static/audio/wordpool/SCISSORS.wav", "conditions": [24, 1600, "a", 12000], "internal_node_id": "0.0-145.0", "trial": 5, "time_elapsed": 1072306, "serialpos": 2, "key_press": -1, "wordID": 1249, "type": "PRES_AUD", "trial_index": 199}, "uniqueid": "MTK3647:30LSNF239V2MJ956SBSOLNDGT11I25", "dateTime": 1520877469653}, {"current_trial": 200, "trialdata": {"rt": -1000, "trial_type": "single-audio", "word": "braces", "stimulus": "/static/audio/wordpool/BRACES.wav", "conditions": [24, 1600, "a", 12000], "internal_node_id": "0.0-146.0", "trial": 5, "time_elapsed": 1074856, "serialpos": 3, "key_press": -1, "wordID": 163, "type": "PRES_AUD", "trial_index": 200}, "uniqueid": "MTK3647:30LSNF239V2MJ956SBSOLNDGT11I25", "dateTime": 1520877472203}, {"current_trial": 201, "trialdata": {"rt": -1000, "trial_type": "single-audio", "word": "hamper", "stimulus": "/static/audio/wordpool/HAMPER.wav", "conditions": [24, 1600, "a", 12000], "internal_node_id": "0.0-147.0", "trial": 5, "time_elapsed": 1077265, "serialpos": 4, "key_press": -1, "wordID": 681, "type": "PRES_AUD", "trial_index": 201}, "uniqueid": "MTK3647:30LSNF239V2MJ956SBSOLNDGT11I25", "dateTime": 1520877474613}, {"current_trial": 202, "trialdata": {"rt": -1000, "trial_type": "single-audio", "word": "rabbit", "stimulus": "/static/audio/wordpool/RABBIT.wav", "conditions": [24, 1600, "a", 12000], "internal_node_id": "0.0-148.0", "trial": 5, "time_elapsed": 1080001, "serialpos": 5, "key_press": -1, "wordID": 1151, "type": "PRES_AUD", "trial_index": 202}, "uniqueid": "MTK3647:30LSNF239V2MJ956SBSOLNDGT11I25", "dateTime": 1520877477349}, {"current_trial": 203, "trialdata": {"rt": -1000, "trial_type": "single-audio", "word": "pigeon", "stimulus": "/static/audio/wordpool/PIGEON.wav", "conditions": [24, 1600, "a", 12000], "internal_node_id": "0.0-149.0", "trial": 5, "time_elapsed": 1082447, "serialpos": 6, "key_press": -1, "wordID": 1064, "type": "PRES_AUD", "trial_index": 203}, "uniqueid": "MTK3647:30LSNF239V2MJ956SBSOLNDGT11I25", "dateTime": 1520877479795}, {"current_trial": 204, "trialdata": {"rt": -1000, "trial_type": "single-audio", "word": "atlas", "stimulus": "/static/audio/wordpool/ATLAS.wav", "conditions": [24, 1600, "a", 12000], "internal_node_id": "0.0-150.0", "trial": 5, "time_elapsed": 1084898, "serialpos": 7, "key_press": -1, "wordID": 52, "type": "PRES_AUD", "trial_index": 204}, "uniqueid": "MTK3647:30LSNF239V2MJ956SBSOLNDGT11I25", "dateTime": 1520877482245}, {"current_trial": 205, "trialdata": {"rt": -1000, "trial_type": "single-audio", "word": "scalpel", "stimulus": "/static/audio/wordpool/SCALPEL.wav", "conditions": [24, 1600, "a", 12000], "internal_node_id": "0.0-151.0", "trial": 5, "time_elapsed": 1087311, "serialpos": 8, "key_press": -1, "wordID": 1242, "type": "PRES_AUD", "trial_index": 205}, "uniqueid": "MTK3647:30LSNF239V2MJ956SBSOLNDGT11I25", "dateTime": 1520877484658}, {"current_trial": 206, "trialdata": {"rt": -1000, "trial_type": "single-audio", "word": "peanut", "stimulus": "/static/audio/wordpool/PEANUT.wav", "conditions": [24, 1600, "a", 12000], "internal_node_id": "0.0-152.0", "trial": 5, "time_elapsed": 1089760, "serialpos": 9, "key_press": -1, "wordID": 1031, "type": "PRES_AUD", "trial_index": 206}, "uniqueid": "MTK3647:30LSNF239V2MJ956SBSOLNDGT11I25", "dateTime": 1520877487107}, {"current_trial": 207, "trialdata": {"rt": -1000, "trial_type": "single-audio", "word": "jelly", "stimulus": "/static/audio/wordpool/JELLY.wav", "conditions": [24, 1600, "a", 12000], "internal_node_id": "0.0-153.0", "trial": 5, "time_elapsed": 1092335, "serialpos": 10, "key_press": -1, "wordID": 754, "type": "PRES_AUD", "trial_index": 207}, "uniqueid": "MTK3647:30LSNF239V2MJ956SBSOLNDGT11I25", "dateTime": 1520877489683}, {"current_trial": 208, "trialdata": {"rt": -1000, "trial_type": "single-audio", "word": "pocket", "stimulus": "/static/audio/wordpool/POCKET.wav", "conditions": [24, 1600, "a", 12000], "internal_node_id": "0.0-154.0", "trial": 5, "time_elapsed": 1094759, "serialpos": 11, "key_press": -1, "wordID": 1092, "type": "PRES_AUD", "trial_index": 208}, "uniqueid": "MTK3647:30LSNF239V2MJ956SBSOLNDGT11I25", "dateTime": 1520877492106}, {"current_trial": 209, "trialdata": {"rt": -1000, "trial_type": "single-audio", "word": "compass", "stimulus": "/static/audio/wordpool/COMPASS.wav", "conditions": [24, 1600, "a", 12000], "internal_node_id": "0.0-155.0", "trial": 5, "time_elapsed": 1097464, "serialpos": 12, "key_press": -1, "wordID": 357, "type": "PRES_AUD", "trial_index": 209}, "uniqueid": "MTK3647:30LSNF239V2MJ956SBSOLNDGT11I25", "dateTime": 1520877494811}, {"current_trial": 210, "trialdata": {"rt": -1000, "trial_type": "single-audio", "word": "creature", "stimulus": "/static/audio/wordpool/CREATURE.wav", "conditions": [24, 1600, "a", 12000], "internal_node_id": "0.0-156.0", "trial": 5, "time_elapsed": 1100124, "serialpos": 13, "key_press": -1, "wordID": 402, "type": "PRES_AUD", "trial_index": 210}, "uniqueid": "MTK3647:30LSNF239V2MJ956SBSOLNDGT11I25", "dateTime": 1520877497471}, {"current_trial": 211, "trialdata": {"rt": -1000, "trial_type": "single-audio", "word": "dolphin", "stimulus": "/static/audio/wordpool/DOLPHIN.wav", "conditions": [24, 1600, "a", 12000], "internal_node_id": "0.0-157.0", "trial": 5, "time_elapsed": 1102891, "serialpos": 14, "key_press": -1, "wordID": 482, "type": "PRES_AUD", "trial_index": 211}, "uniqueid": "MTK3647:30LSNF239V2MJ956SBSOLNDGT11I25", "dateTime": 1520877500238}, {"current_trial": 212, "trialdata": {"rt": -1000, "trial_type": "single-audio", "word": "wardrobe", "stimulus": "/static/audio/wordpool/WARDROBE.wav", "conditions": [24, 1600, "a", 12000], "internal_node_id": "0.0-158.0", "trial": 5, "time_elapsed": 1105444, "serialpos": 15, "key_press": -1, "wordID": 1586, "type": "PRES_AUD", "trial_index": 212}, "uniqueid": "MTK3647:30LSNF239V2MJ956SBSOLNDGT11I25", "dateTime": 1520877502792}, {"current_trial": 213, "trialdata": {"rt": -1000, "trial_type": "single-audio", "word": "dresser", "stimulus": "/static/audio/wordpool/DRESSER.wav", "conditions": [24, 1600, "a", 12000], "internal_node_id": "0.0-159.0", "trial": 5, "time_elapsed": 1108010, "serialpos": 16, "key_press": -1, "wordID": 495, "type": "PRES_AUD", "trial_index": 213}, "uniqueid": "MTK3647:30LSNF239V2MJ956SBSOLNDGT11I25", "dateTime": 1520877505357}, {"current_trial": 214, "trialdata": {"rt": -1000, "trial_type": "single-audio", "word": "tile", "stimulus": "/static/audio/wordpool/TILE.wav", "conditions": [24, 1600, "a", 12000], "internal_node_id": "0.0-160.0", "trial": 5, "time_elapsed": 1110466, "serialpos": 17, "key_press": -1, "wordID": 1467, "type": "PRES_AUD", "trial_index": 214}, "uniqueid": "MTK3647:30LSNF239V2MJ956SBSOLNDGT11I25", "dateTime": 1520877507814}, {"current_trial": 215, "trialdata": {"rt": -1000, "trial_type": "single-audio", "word": "brick", "stimulus": "/static/audio/wordpool/BRICK.wav", "conditions": [24, 1600, "a", 12000], "internal_node_id": "0.0-161.0", "trial": 5, "time_elapsed": 1112876, "serialpos": 18, "key_press": -1, "wordID": 171, "type": "PRES_AUD", "trial_index": 215}, "uniqueid": "MTK3647:30LSNF239V2MJ956SBSOLNDGT11I25", "dateTime": 1520877510224}, {"current_trial": 216, "trialdata": {"rt": -1000, "trial_type": "single-audio", "word": "wrench", "stimulus": "/static/audio/wordpool/WRENCH.wav", "conditions": [24, 1600, "a", 12000], "internal_node_id": "0.0-162.0", "trial": 5, "time_elapsed": 1115492, "serialpos": 19, "key_press": -1, "wordID": 1624, "type": "PRES_AUD", "trial_index": 216}, "uniqueid": "MTK3647:30LSNF239V2MJ956SBSOLNDGT11I25", "dateTime": 1520877512840}, {"current_trial": 217, "trialdata": {"rt": -1000, "trial_type": "single-audio", "word": "turtle", "stimulus": "/static/audio/wordpool/TURTLE.wav", "conditions": [24, 1600, "a", 12000], "internal_node_id": "0.0-163.0", "trial": 5, "time_elapsed": 1118051, "serialpos": 20, "key_press": -1, "wordID": 1521, "type": "PRES_AUD", "trial_index": 217}, "uniqueid": "MTK3647:30LSNF239V2MJ956SBSOLNDGT11I25", "dateTime": 1520877515398}, {"current_trial": 218, "trialdata": {"rt": -1000, "trial_type": "single-audio", "word": "ankle", "stimulus": "/static/audio/wordpool/ANKLE.wav", "conditions": [24, 1600, "a", 12000], "internal_node_id": "0.0-164.0", "trial": 5, "time_elapsed": 1120501, "serialpos": 21, "key_press": -1, "wordID": 23, "type": "PRES_AUD", "trial_index": 218}, "uniqueid": "MTK3647:30LSNF239V2MJ956SBSOLNDGT11I25", "dateTime": 1520877517848}, {"current_trial": 219, "trialdata": {"rt": -1000, "trial_type": "single-audio", "word": "chipmunk", "stimulus": "/static/audio/wordpool/CHIPMUNK.wav", "conditions": [24, 1600, "a", 12000], "internal_node_id": "0.0-165.0", "trial": 5, "time_elapsed": 1123122, "serialpos": 22, "key_press": -1, "wordID": 303, "type": "PRES_AUD", "trial_index": 219}, "uniqueid": "MTK3647:30LSNF239V2MJ956SBSOLNDGT11I25", "dateTime": 1520877520469}, {"current_trial": 220, "trialdata": {"rt": -1000, "trial_type": "single-audio", "word": "tweezers", "stimulus": "/static/audio/wordpool/TWEEZERS.wav", "conditions": [24, 1600, "a", 12000], "internal_node_id": "0.0-166.0", "trial": 5, "time_elapsed": 1125652, "serialpos": 23, "key_press": -1, "wordID": 1525, "type": "PRES_AUD", "trial_index": 220}, "uniqueid": "MTK3647:30LSNF239V2MJ956SBSOLNDGT11I25", "dateTime": 1520877523000}, {"current_trial": 221, "trialdata": {"rt": -1, "trial_type": "single-stim", "stimulus": "", "internal_node_id": "0.0-167.0-0.0", "time_elapsed": 1126899, "key_press": -1, "type": "PRE_RECALL_DELAY", "trial_index": 221}, "uniqueid": "MTK3647:30LSNF239V2MJ956SBSOLNDGT11I25", "dateTime": 1520877524246}, {"current_trial": 222, "trialdata": {"rt": -1000, "trial_type": "single-audio", "stimulus": "/static/audio/400Hz.wav", "internal_node_id": "0.0-168.0", "time_elapsed": 1127401, "key_press": -1, "type": "PRE_RECALL_ALERT", "trial_index": 222}, "uniqueid": "MTK3647:30LSNF239V2MJ956SBSOLNDGT11I25", "dateTime": 1520877524749}, {"current_trial": 223, "trialdata": {"rt": [1466, 2989, 4169, 5295, 8040, 12506], "recwords": ["snack", "scissors", "peanut", "creature", "dolphin", "wardrobe"], "key_times": [775, 899, 1072, 1127, 1229, 1466, 1744, 1839, 2259, 2388, 2537, 2626, 2730, 2838, 2989, 3380, 3491, 3546, 3712, 3811, 3965, 4169, 4348, 4525, 4614, 4669, 4805, 4934, 5055, 5115, 5295, 5521, 6297, 6531, 6707, 7080, 7273, 7546, 7714, 7822, 8040, 10119, 10261, 10320, 10533, 10762, 10998, 11291, 11441, 11592, 12097, 12251, 12346, 12506], "trial_type": "free-recall", "conditions": [24, 1600, "a", 12000], "internal_node_id": "0.0-169.0-0.0", "key_presses": [83, 78, 65, 67, 75, 13, 83, 67, 73, 83, 83, 79, 82, 83, 13, 80, 69, 65, 78, 85, 84, 13, 67, 82, 69, 65, 84, 85, 82, 69, 13, 83, 8, 68, 79, 76, 80, 72, 73, 78, 13, 87, 65, 82, 68, 82, 79, 66, 66, 69, 8, 8, 69, 13], "trial": 5, "time_elapsed": 1187408, "type": "FREE_RECALL", "trial_index": 223}, "uniqueid": "MTK3647:30LSNF239V2MJ956SBSOLNDGT11I25", "dateTime": 1520877584763}, {"current_trial": 224, "trialdata": {"rt": 28864, "trial_type": "text", "internal_node_id": "0.0-170.0", "time_elapsed": 1218284, "key_press": 32, "type": "INSTRUCTIONS", "trial_index": 224}, "uniqueid": "MTK3647:30LSNF239V2MJ956SBSOLNDGT11I25", "dateTime": 1520877615632}, {"current_trial": 225, "trialdata": {"rt": [2569, 7652, 11957], "trial_type": "math-distractor", "key_times": [1473, 1763, 2569, 6988, 7153, 7652, 10826, 11090, 11957], "responses": ["15", "11", "14"], "num2": [7, 5, 6, 4], "num3": [1, 3, 7, 9], "conditions": [12, 1600, "a", 12000], "internal_node_id": "0.0-171.0", "key_presses": [49, 53, 13, 49, 49, 13, 49, 52, 13], "trial": 6, "time_elapsed": 1232296, "type": "DISTRACTOR", "trial_index": 225, "num1": [7, 2, 1, 3]}, "uniqueid": "MTK3647:30LSNF239V2MJ956SBSOLNDGT11I25", "dateTime": 1520877629643}, {"current_trial": 226, "trialdata": {"rt": -1, "trial_type": "single-stim", "stimulus": "<p id=\"stim\">10</p>", "internal_node_id": "0.0-172.0-0.0", "time_elapsed": 1235302, "key_press": -1, "trial_index": 226}, "uniqueid": "MTK3647:30LSNF239V2MJ956SBSOLNDGT11I25", "dateTime": 1520877632649}, {"current_trial": 227, "trialdata": {"rt": -1, "trial_type": "single-stim", "stimulus": "<p id=\"stim\">9</p>", "internal_node_id": "0.0-172.0-1.0", "time_elapsed": 1236304, "key_press": -1, "trial_index": 227}, "uniqueid": "MTK3647:30LSNF239V2MJ956SBSOLNDGT11I25", "dateTime": 1520877633652}, {"current_trial": 228, "trialdata": {"rt": -1, "trial_type": "single-stim", "stimulus": "<p id=\"stim\">8</p>", "internal_node_id": "0.0-172.0-2.0", "time_elapsed": 1237307, "key_press": -1, "trial_index": 228}, "uniqueid": "MTK3647:30LSNF239V2MJ956SBSOLNDGT11I25", "dateTime": 1520877634655}, {"current_trial": 229, "trialdata": {"rt": -1, "trial_type": "single-stim", "stimulus": "<p id=\"stim\">7</p>", "internal_node_id": "0.0-172.0-3.0", "time_elapsed": 1238312, "key_press": -1, "trial_index": 229}, "uniqueid": "MTK3647:30LSNF239V2MJ956SBSOLNDGT11I25", "dateTime": 1520877635660}, {"current_trial": 230, "trialdata": {"rt": -1, "trial_type": "single-stim", "stimulus": "<p id=\"stim\">6</p>", "internal_node_id": "0.0-172.0-4.0", "time_elapsed": 1239317, "key_press": -1, "trial_index": 230}, "uniqueid": "MTK3647:30LSNF239V2MJ956SBSOLNDGT11I25", "dateTime": 1520877636664}, {"current_trial": 231, "trialdata": {"rt": -1, "trial_type": "single-stim", "stimulus": "<p id=\"stim\">5</p>", "internal_node_id": "0.0-172.0-5.0", "time_elapsed": 1240321, "key_press": -1, "trial_index": 231}, "uniqueid": "MTK3647:30LSNF239V2MJ956SBSOLNDGT11I25", "dateTime": 1520877637668}, {"current_trial": 232, "trialdata": {"rt": -1, "trial_type": "single-stim", "stimulus": "<p id=\"stim\">4</p>", "internal_node_id": "0.0-172.0-6.0", "time_elapsed": 1241323, "key_press": -1, "trial_index": 232}, "uniqueid": "MTK3647:30LSNF239V2MJ956SBSOLNDGT11I25", "dateTime": 1520877638671}, {"current_trial": 233, "trialdata": {"rt": -1, "trial_type": "single-stim", "stimulus": "<p id=\"stim\">3</p>", "internal_node_id": "0.0-172.0-7.0", "time_elapsed": 1242327, "key_press": -1, "trial_index": 233}, "uniqueid": "MTK3647:30LSNF239V2MJ956SBSOLNDGT11I25", "dateTime": 1520877639674}, {"current_trial": 234, "trialdata": {"rt": -1, "trial_type": "single-stim", "stimulus": "<p id=\"stim\">2</p>", "internal_node_id": "0.0-172.0-8.0", "time_elapsed": 1243331, "key_press": -1, "trial_index": 234}, "uniqueid": "MTK3647:30LSNF239V2MJ956SBSOLNDGT11I25", "dateTime": 1520877640679}, {"current_trial": 235, "trialdata": {"rt": -1, "trial_type": "single-stim", "stimulus": "<p id=\"stim\">1</p>", "internal_node_id": "0.0-172.0-9.0", "time_elapsed": 1244334, "key_press": -1, "trial_index": 235}, "uniqueid": "MTK3647:30LSNF239V2MJ956SBSOLNDGT11I25", "dateTime": 1520877641682}, {"current_trial": 236, "trialdata": {"rt": -1, "trial_type": "single-stim", "stimulus": "<p id=\"stim\">+</p>", "internal_node_id": "0.0-173.0-0.0", "time_elapsed": 1245838, "key_press": -1, "type": "FIXATION", "trial_index": 236}, "uniqueid": "MTK3647:30LSNF239V2MJ956SBSOLNDGT11I25", "dateTime": 1520877643185}, {"current_trial": 237, "trialdata": {"rt": -1000, "trial_type": "single-audio", "word": "window", "stimulus": "/static/audio/wordpool/WINDOW.wav", "conditions": [12, 1600, "a", 12000], "internal_node_id": "0.0-174.0", "trial": 6, "time_elapsed": 1248289, "serialpos": 0, "key_press": -1, "wordID": 1610, "type": "PRES_AUD", "trial_index": 237}, "uniqueid": "MTK3647:30LSNF239V2MJ956SBSOLNDGT11I25", "dateTime": 1520877645636}, {"current_trial": 238, "trialdata": {"rt": -1000, "trial_type": "single-audio", "word": "pork", "stimulus": "/static/audio/wordpool/PORK.wav", "conditions": [12, 1600, "a", 12000], "internal_node_id": "0.0-175.0", "trial": 6, "time_elapsed": 1250999, "serialpos": 1, "key_press": -1, "wordID": 1107, "type": "PRES_AUD", "trial_index": 238}, "uniqueid": "MTK3647:30LSNF239V2MJ956SBSOLNDGT11I25", "dateTime": 1520877648347}, {"current_trial": 239, "trialdata": {"rt": 1436.0000000001492, "trial_type": "single-audio", "word": "machine", "stimulus": "/static/audio/wordpool/MACHINE.wav", "conditions": [12, 1600, "a", 12000], "internal_node_id": "0.0-176.0", "trial": 6, "time_elapsed": 1253456, "serialpos": 2, "key_press": 17, "wordID": 851, "type": "PRES_AUD", "trial_index": 239}, "uniqueid": "MTK3647:30LSNF239V2MJ956SBSOLNDGT11I25", "dateTime": 1520877650803}, {"current_trial": 240, "trialdata": {"rt": -1000, "trial_type": "single-audio", "word": "coffee", "stimulus": "/static/audio/wordpool/COFFEE.wav", "conditions": [12, 1600, "a", 12000], "internal_node_id": "0.0-177.0", "trial": 6, "time_elapsed": 1256219, "serialpos": 3, "key_press": -1, "wordID": 340, "type": "PRES_AUD", "trial_index": 240}, "uniqueid": "MTK3647:30LSNF239V2MJ956SBSOLNDGT11I25", "dateTime": 1520877653566}, {"current_trial": 241, "trialdata": {"rt": -1000, "trial_type": "single-audio", "word": "japan", "stimulus": "/static/audio/wordpool/JAPAN.wav", "conditions": [12, 1600, "a", 12000], "internal_node_id": "0.0-178.0", "trial": 6, "time_elapsed": 1258877, "serialpos": 4, "key_press": -1, "wordID": 748, "type": "PRES_AUD", "trial_index": 241}, "uniqueid": "MTK3647:30LSNF239V2MJ956SBSOLNDGT11I25", "dateTime": 1520877656225}, {"current_trial": 242, "trialdata": {"rt": -1000, "trial_type": "single-audio", "word": "cook", "stimulus": "/static/audio/wordpool/COOK.wav", "conditions": [12, 1600, "a", 12000], "internal_node_id": "0.0-179.0", "trial": 6, "time_elapsed": 1261558, "serialpos": 5, "key_press": -1, "wordID": 371, "type": "PRES_AUD", "trial_index": 242}, "uniqueid": "MTK3647:30LSNF239V2MJ956SBSOLNDGT11I25", "dateTime": 1520877658905}, {"current_trial": 243, "trialdata": {"rt": -1000, "trial_type": "single-audio", "word": "fungus", "stimulus": "/static/audio/wordpool/FUNGUS.wav", "conditions": [12, 1600, "a", 12000], "internal_node_id": "0.0-180.0", "trial": 6, "time_elapsed": 1264172, "serialpos": 6, "key_press": -1, "wordID": 613, "type": "PRES_AUD", "trial_index": 243}, "uniqueid": "MTK3647:30LSNF239V2MJ956SBSOLNDGT11I25", "dateTime": 1520877661519}, {"current_trial": 244, "trialdata": {"rt": -1000, "trial_type": "single-audio", "word": "wasp", "stimulus": "/static/audio/wordpool/WASP.wav", "conditions": [12, 1600, "a", 12000], "internal_node_id": "0.0-181.0", "trial": 6, "time_elapsed": 1266970, "serialpos": 7, "key_press": -1, "wordID": 1592, "type": "PRES_AUD", "trial_index": 244}, "uniqueid": "MTK3647:30LSNF239V2MJ956SBSOLNDGT11I25", "dateTime": 1520877664317}, {"current_trial": 245, "trialdata": {"rt": -1000, "trial_type": "single-audio", "word": "asia", "stimulus": "/static/audio/wordpool/ASIA.wav", "conditions": [12, 1600, "a", 12000], "internal_node_id": "0.0-182.0", "trial": 6, "time_elapsed": 1269737, "serialpos": 8, "key_press": -1, "wordID": 45, "type": "PRES_AUD", "trial_index": 245}, "uniqueid": "MTK3647:30LSNF239V2MJ956SBSOLNDGT11I25", "dateTime": 1520877667085}, {"current_trial": 246, "trialdata": {"rt": -1000, "trial_type": "single-audio", "word": "cousin", "stimulus": "/static/audio/wordpool/COUSIN.wav", "conditions": [12, 1600, "a", 12000], "internal_node_id": "0.0-183.0", "trial": 6, "time_elapsed": 1272266, "serialpos": 9, "key_press": -1, "wordID": 391, "type": "PRES_AUD", "trial_index": 246}, "uniqueid": "MTK3647:30LSNF239V2MJ956SBSOLNDGT11I25", "dateTime": 1520877669613}, {"current_trial": 247, "trialdata": {"rt": -1000, "trial_type": "single-audio", "word": "skirt", "stimulus": "/static/audio/wordpool/SKIRT.wav", "conditions": [12, 1600, "a", 12000], "internal_node_id": "0.0-184.0", "trial": 6, "time_elapsed": 1274706, "serialpos": 10, "key_press": -1, "wordID": 1318, "type": "PRES_AUD", "trial_index": 247}, "uniqueid": "MTK3647:30LSNF239V2MJ956SBSOLNDGT11I25", "dateTime": 1520877672053}, {"current_trial": 248, "trialdata": {"rt": -1000, "trial_type": "single-audio", "word": "tourist", "stimulus": "/static/audio/wordpool/TOURIST.wav", "conditions": [12, 1600, "a", 12000], "internal_node_id": "0.0-185.0", "trial": 6, "time_elapsed": 1277174, "serialpos": 11, "key_press": -1, "wordID": 1487, "type": "PRES_AUD", "trial_index": 248}, "uniqueid": "MTK3647:30LSNF239V2MJ956SBSOLNDGT11I25", "dateTime": 1520877674521}, {"current_trial": 249, "trialdata": {"rt": -1, "trial_type": "single-stim", "stimulus": "", "internal_node_id": "0.0-186.0-0.0", "time_elapsed": 1278430, "key_press": -1, "type": "PRE_RECALL_DELAY", "trial_index": 249}, "uniqueid": "MTK3647:30LSNF239V2MJ956SBSOLNDGT11I25", "dateTime": 1520877675777}, {"current_trial": 250, "trialdata": {"rt": -1000, "trial_type": "single-audio", "stimulus": "/static/audio/400Hz.wav", "internal_node_id": "0.0-187.0", "time_elapsed": 1278933, "key_press": -1, "type": "PRE_RECALL_ALERT", "trial_index": 250}, "uniqueid": "MTK3647:30LSNF239V2MJ956SBSOLNDGT11I25", "dateTime": 1520877676280}, {"current_trial": 251, "trialdata": {"rt": [3332, 6008, 8338], "recwords": ["tourist", "blanket", "skirt"], "key_times": [2339, 2428, 2571, 2718, 2811, 2968, 3107, 3332, 4581, 4728, 4892, 5058, 5121, 5390, 5856, 6008, 7747, 7842, 7968, 8098, 8200, 8338], "trial_type": "free-recall", "conditions": [12, 1600, "a", 12000], "internal_node_id": "0.0-188.0-0.0", "key_presses": [84, 79, 85, 82, 73, 83, 84, 13, 66, 76, 65, 78, 75, 69, 84, 13, 83, 75, 73, 82, 84, 13], "trial": 6, "time_elapsed": 1338941, "type": "FREE_RECALL", "trial_index": 251}, "uniqueid": "MTK3647:30LSNF239V2MJ956SBSOLNDGT11I25", "dateTime": 1520877736294}, {"current_trial": 252, "trialdata": {"rt": 33810, "trial_type": "text", "internal_node_id": "0.0-189.0", "time_elapsed": 1374760, "key_press": 32, "type": "INSTRUCTIONS", "trial_index": 252}, "uniqueid": "MTK3647:30LSNF239V2MJ956SBSOLNDGT11I25", "dateTime": 1520877772108}, {"current_trial": 253, "trialdata": {"rt": [8341, 10367, 13560, 17146, 21232], "trial_type": "math-distractor", "key_times": [7644, 8116, 8341, 10122, 10367, 12905, 13350, 13560, 16045, 16910, 17146, 20625, 21000, 21232, 23874], "responses": ["18", "7", "17", "10", "17"], "num2": [9, 3, 4, 4, 6, 4], "num3": [7, 1, 5, 3, 6, 5], "conditions": [24, 800, "a", 24000], "internal_node_id": "0.0-190.0", "key_presses": [49, 56, 13, 55, 13, 49, 55, 13, 49, 48, 13, 49, 55, 13, 49], "trial": 7, "time_elapsed": 1400773, "type": "DISTRACTOR", "trial_index": 253, "num1": [2, 3, 7, 3, 5, 5]}, "uniqueid": "MTK3647:30LSNF239V2MJ956SBSOLNDGT11I25", "dateTime": 1520877798120}, {"current_trial": 254, "trialdata": {"rt": -1, "trial_type": "single-stim", "stimulus": "<p id=\"stim\">10</p>", "internal_node_id": "0.0-191.0-0.0", "time_elapsed": 1403779, "key_press": -1, "trial_index": 254}, "uniqueid": "MTK3647:30LSNF239V2MJ956SBSOLNDGT11I25", "dateTime": 1520877801126}, {"current_trial": 255, "trialdata": {"rt": -1, "trial_type": "single-stim", "stimulus": "<p id=\"stim\">9</p>", "internal_node_id": "0.0-191.0-1.0", "time_elapsed": 1404783, "key_press": -1, "trial_index": 255}, "uniqueid": "MTK3647:30LSNF239V2MJ956SBSOLNDGT11I25", "dateTime": 1520877802131}, {"curr