{"assignmentId": "35H6S234SB7YPMTS8TLXMRQN4B256M", "workerId": "MTK3456", "questiondata": {"origin": "United States", "strat-rehearsal": "10", "marital": "Married/Domestic Partnership", "education": "Some graduate education", "ethnicity": "Not Hispanic", "color_depth": 24, "distracted": "No", "wrote-notes": "No", "strat-other": "", "screen_width": 1366, "avail_screen_width": 1366, "avail_screen_height": 728, "strat-image": "5", "language": "english", "gender": "Female", "age": "42", "gender_other": "", "race": ["White"], "strat-categorize": "74", "pixel_depth": 24, "strat-spatial": "0", "strat-story": "50", "race_other": "", "screen_height": 768}, "bonus": 0, "hitId": "3TRB893CSJHDMZYNIX4E7ILO4OAG7E", "counterbalance": 1945, "useragent": "Mozilla/5.0 (Windows NT 10.0; Win64; x64) AppleWebKit/537.36 (KHTML, like Gecko) Chrome/64.0.3282.186 Safari/537.36", "eventdata": [{"eventtype": "initialized", "interval": 0, "value": null, "timestamp": 1520547047360}, {"eventtype": "window_resize", "interval": 0, "value": [1362, 713], "timestamp": 1520547047360}, {"eventtype": "focus", "interval": 12531, "value": "off", "timestamp": 1520547059891}, {"eventtype": "focus", "interval": 7155, "value": "on", "timestamp": 1520547067046}, {"eventtype": "focus", "interval": 2933, "value": "off", "timestamp": 1520547069979}, {"eventtype": "focus", "interval": 22315, "value": "on", "timestamp": 1520547092294}, {"eventtype": "focus", "interval": 490145, "value": "off", "timestamp": 1520547582439}, {"eventtype": "focus", "interval": 1867, "value": "on", "timestamp": 1520547584306}], "data": [{"current_trial": 0, "trialdata": {"rt": 2674, "trial_type": "text", "internal_node_id": "0.0-0.0", "time_elapsed": 2678, "key_press": 32, "type": "INSTRUCTIONS", "trial_index": 0}, "uniqueid": "MTK3456:35H6S234SB7YPMTS8TLXMRQN4B256M", "dateTime": 1520547050428}, {"current_trial": 1, "trialdata": {"rt": 47124, "trial_type": "text", "internal_node_id": "0.0-1.0", "time_elapsed": 49805, "key_press": 32, "type": "INSTRUCTIONS", "trial_index": 1}, "uniqueid": "MTK3456:35H6S234SB7YPMTS8TLXMRQN4B256M", "dateTime": 1520547097553}, {"current_trial": 2, "trialdata": {"rt": [8208], "trial_type": "audio-test", "responses": ["ocean"], "internal_node_id": "0.0-2.0", "time_elapsed": 58036, "type": "AUDIO_TEST", "trial_index": 2}, "uniqueid": "MTK3456:35H6S234SB7YPMTS8TLXMRQN4B256M", "dateTime": 1520547105784}, {"current_trial": 3, "trialdata": {"rt": [6665], "trial_type": "audio-test", "responses": ["crystal"], "internal_node_id": "0.0-3.0", "time_elapsed": 64706, "type": "AUDIO_TEST", "trial_index": 3}, "uniqueid": "MTK3456:35H6S234SB7YPMTS8TLXMRQN4B256M", "dateTime": 1520547112454}, {"current_trial": 4, "trialdata": {"rt": [8072], "trial_type": "audio-test", "responses": ["spice"], "internal_node_id": "0.0-4.0", "time_elapsed": 72781, "type": "AUDIO_TEST", "trial_index": 4}, "uniqueid": "MTK3456:35H6S234SB7YPMTS8TLXMRQN4B256M", "dateTime": 1520547120529}, {"current_trial": 5, "trialdata": {"rt": 47343, "trial_type": "survey-text", "responses": "{\"Q0\":\"10:45 pm\",\"Q1\":\"6 am\",\"Q2\":\"4\"}", "internal_node_id": "0.0-5.0", "time_elapsed": 120881, "type": "SLEEP_SURVEY", "trial_index": 5}, "uniqueid": "MTK3456:35H6S234SB7YPMTS8TLXMRQN4B256M", "dateTime": 1520547168629}, {"current_trial": 6, "trialdata": {"rt": 42769, "trial_type": "text", "internal_node_id": "0.0-6.0", "time_elapsed": 164655, "key_press": 32, "type": "INSTRUCTIONS", "trial_index": 6}, "uniqueid": "MTK3456:35H6S234SB7YPMTS8TLXMRQN4B256M", "dateTime": 1520547212403}, {"current_trial": 7, "trialdata": {"rt": 14014, "trial_type": "text", "internal_node_id": "0.0-7.0", "time_elapsed": 179173, "key_press": 32, "type": "INSTRUCTIONS", "trial_index": 7}, "uniqueid": "MTK3456:35H6S234SB7YPMTS8TLXMRQN4B256M", "dateTime": 1520547226921}, {"current_trial": 8, "trialdata": {"rt": 12329, "trial_type": "text", "internal_node_id": "0.0-8.0", "time_elapsed": 192004, "key_press": 32, "type": "INSTRUCTIONS", "trial_index": 8}, "uniqueid": "MTK3456:35H6S234SB7YPMTS8TLXMRQN4B256M", "dateTime": 1520547239752}, {"current_trial": 9, "trialdata": {"rt": [6690, 9730, 13212, 16638], "trial_type": "math-distractor", "key_times": [4368, 4653, 5731, 6690, 8896, 9730, 11264, 12303, 13212, 15880, 16081, 16638], "responses": ["11 ", "8", "17", "15"], "num2": [4, 3, 5, 9, 4], "num3": [1, 2, 7, 4, 5], "conditions": [18, 1200, "v", 18000], "internal_node_id": "0.0-9.0", "key_presses": [97, 97, 32, 13, 104, 13, 97, 103, 13, 97, 101, 13], "trial": 0, "time_elapsed": 211017, "type": "DISTRACTOR", "trial_index": 9, "num1": [6, 3, 5, 2, 8]}, "uniqueid": "MTK3456:35H6S234SB7YPMTS8TLXMRQN4B256M", "dateTime": 1520547258766}, {"current_trial": 10, "trialdata": {"rt": -1, "trial_type": "single-stim", "stimulus": "<p id=\"stim\">10</p>", "internal_node_id": "0.0-10.0-0.0", "time_elapsed": 214024, "key_press": -1, "trial_index": 10}, "uniqueid": "MTK3456:35H6S234SB7YPMTS8TLXMRQN4B256M", "dateTime": 1520547261773}, {"current_trial": 11, "trialdata": {"rt": -1, "trial_type": "single-stim", "stimulus": "<p id=\"stim\">9</p>", "internal_node_id": "0.0-10.0-1.0", "time_elapsed": 215028, "key_press": -1, "trial_index": 11}, "uniqueid": "MTK3456:35H6S234SB7YPMTS8TLXMRQN4B256M", "dateTime": 1520547262776}, {"current_trial": 12, "trialdata": {"rt": -1, "trial_type": "single-stim", "stimulus": "<p id=\"stim\">8</p>", "internal_node_id": "0.0-10.0-2.0", "time_elapsed": 216032, "key_press": -1, "trial_index": 12}, "uniqueid": "MTK3456:35H6S234SB7YPMTS8TLXMRQN4B256M", "dateTime": 1520547263780}, {"current_trial": 13, "trialdata": {"rt": -1, "trial_type": "single-stim", "stimulus": "<p id=\"stim\">7</p>", "internal_node_id": "0.0-10.0-3.0", "time_elapsed": 217037, "key_press": -1, "trial_index": 13}, "uniqueid": "MTK3456:35H6S234SB7YPMTS8TLXMRQN4B256M", "dateTime": 1520547264785}, {"current_trial": 14, "trialdata": {"rt": -1, "trial_type": "single-stim", "stimulus": "<p id=\"stim\">6</p>", "internal_node_id": "0.0-10.0-4.0", "time_elapsed": 218041, "key_press": -1, "trial_index": 14}, "uniqueid": "MTK3456:35H6S234SB7YPMTS8TLXMRQN4B256M", "dateTime": 1520547265789}, {"current_trial": 15, "trialdata": {"rt": -1, "trial_type": "single-stim", "stimulus": "<p id=\"stim\">5</p>", "internal_node_id": "0.0-10.0-5.0", "time_elapsed": 219045, "key_press": -1, "trial_index": 15}, "uniqueid": "MTK3456:35H6S234SB7YPMTS8TLXMRQN4B256M", "dateTime": 1520547266793}, {"current_trial": 16, "trialdata": {"rt": -1, "trial_type": "single-stim", "stimulus": "<p id=\"stim\">4</p>", "internal_node_id": "0.0-10.0-6.0", "time_elapsed": 220049, "key_press": -1, "trial_index": 16}, "uniqueid": "MTK3456:35H6S234SB7YPMTS8TLXMRQN4B256M", "dateTime": 1520547267798}, {"current_trial": 17, "trialdata": {"rt": -1, "trial_type": "single-stim", "stimulus": "<p id=\"stim\">3</p>", "internal_node_id": "0.0-10.0-7.0", "time_elapsed": 221053, "key_press": -1, "trial_index": 17}, "uniqueid": "MTK3456:35H6S234SB7YPMTS8TLXMRQN4B256M", "dateTime": 1520547268802}, {"current_trial": 18, "trialdata": {"rt": -1, "trial_type": "single-stim", "stimulus": "<p id=\"stim\">2</p>", "internal_node_id": "0.0-10.0-8.0", "time_elapsed": 222061, "key_press": -1, "trial_index": 18}, "uniqueid": "MTK3456:35H6S234SB7YPMTS8TLXMRQN4B256M", "dateTime": 1520547269809}, {"current_trial": 19, "trialdata": {"rt": -1, "trial_type": "single-stim", "stimulus": "<p id=\"stim\">1</p>", "internal_node_id": "0.0-10.0-9.0", "time_elapsed": 223066, "key_press": -1, "trial_index": 19}, "uniqueid": "MTK3456:35H6S234SB7YPMTS8TLXMRQN4B256M", "dateTime": 1520547270814}, {"current_trial": 20, "trialdata": {"rt": -1, "trial_type": "single-stim", "stimulus": "<p id=\"stim\">+</p>", "internal_node_id": "0.0-11.0-0.0", "time_elapsed": 224567, "key_press": -1, "type": "FIXATION", "trial_index": 20}, "uniqueid": "MTK3456:35H6S234SB7YPMTS8TLXMRQN4B256M", "dateTime": 1520547272315}, {"current_trial": 21, "trialdata": {"rt": -1, "trial_type": "single-stim", "word": "salt", "stimulus": "<p id=\"stim\">SALT</p>", "conditions": [18, 1200, "v", 18000], "internal_node_id": "0.0-12.0", "trial": 0, "time_elapsed": 225770, "serialpos": 0, "key_press": -1, "wordID": 1228, "type": "PRES_VIS", "trial_index": 21}, "uniqueid": "MTK3456:35H6S234SB7YPMTS8TLXMRQN4B256M", "dateTime": 1520547273518}, {"current_trial": 22, "trialdata": {"rt": -1, "trial_type": "single-stim", "word": "drug", "stimulus": "<p id=\"stim\">DRUG</p>", "conditions": [18, 1200, "v", 18000], "internal_node_id": "0.0-13.0", "trial": 0, "time_elapsed": 228007, "serialpos": 1, "key_press": -1, "wordID": 500, "type": "PRES_VIS", "trial_index": 22}, "uniqueid": "MTK3456:35H6S234SB7YPMTS8TLXMRQN4B256M", "dateTime": 1520547275755}, {"current_trial": 23, "trialdata": {"rt": -1, "trial_type": "single-stim", "word": "harp", "stimulus": "<p id=\"stim\">HARP</p>", "conditions": [18, 1200, "v", 18000], "internal_node_id": "0.0-14.0", "trial": 0, "time_elapsed": 230042, "serialpos": 2, "key_press": -1, "wordID": 688, "type": "PRES_VIS", "trial_index": 23}, "uniqueid": "MTK3456:35H6S234SB7YPMTS8TLXMRQN4B256M", "dateTime": 1520547277790}, {"current_trial": 24, "trialdata": {"rt": -1, "trial_type": "single-stim", "word": "stallion", "stimulus": "<p id=\"stim\">STALLION</p>", "conditions": [18, 1200, "v", 18000], "internal_node_id": "0.0-15.0", "trial": 0, "time_elapsed": 232210, "serialpos": 3, "key_press": -1, "wordID": 1368, "type": "PRES_VIS", "trial_index": 24}, "uniqueid": "MTK3456:35H6S234SB7YPMTS8TLXMRQN4B256M", "dateTime": 1520547279959}, {"current_trial": 25, "trialdata": {"rt": -1, "trial_type": "single-stim", "word": "poison", "stimulus": "<p id=\"stim\">POISON</p>", "conditions": [18, 1200, "v", 18000], "internal_node_id": "0.0-16.0", "trial": 0, "time_elapsed": 234587, "serialpos": 4, "key_press": -1, "wordID": 1095, "type": "PRES_VIS", "trial_index": 25}, "uniqueid": "MTK3456:35H6S234SB7YPMTS8TLXMRQN4B256M", "dateTime": 1520547282335}, {"current_trial": 26, "trialdata": {"rt": -1, "trial_type": "single-stim", "word": "kitchen", "stimulus": "<p id=\"stim\">KITCHEN</p>", "conditions": [18, 1200, "v", 18000], "internal_node_id": "0.0-17.0", "trial": 0, "time_elapsed": 236888, "serialpos": 5, "key_press": -1, "wordID": 777, "type": "PRES_VIS", "trial_index": 26}, "uniqueid": "MTK3456:35H6S234SB7YPMTS8TLXMRQN4B256M", "dateTime": 1520547284636}, {"current_trial": 27, "trialdata": {"rt": -1, "trial_type": "single-stim", "word": "snack", "stimulus": "<p id=\"stim\">SNACK</p>", "conditions": [18, 1200, "v", 18000], "internal_node_id": "0.0-18.0", "trial": 0, "time_elapsed": 239035, "serialpos": 6, "key_press": -1, "wordID": 1330, "type": "PRES_VIS", "trial_index": 27}, "uniqueid": "MTK3456:35H6S234SB7YPMTS8TLXMRQN4B256M", "dateTime": 1520547286783}, {"current_trial": 28, "trialdata": {"rt": -1, "trial_type": "single-stim", "word": "snake", "stimulus": "<p id=\"stim\">SNAKE</p>", "conditions": [18, 1200, "v", 18000], "internal_node_id": "0.0-19.0", "trial": 0, "time_elapsed": 241318, "serialpos": 7, "key_press": -1, "wordID": 1332, "type": "PRES_VIS", "trial_index": 28}, "uniqueid": "MTK3456:35H6S234SB7YPMTS8TLXMRQN4B256M", "dateTime": 1520547289066}, {"current_trial": 29, "trialdata": {"rt": -1, "trial_type": "single-stim", "word": "canyon", "stimulus": "<p id=\"stim\">CANYON</p>", "conditions": [18, 1200, "v", 18000], "internal_node_id": "0.0-20.0", "trial": 0, "time_elapsed": 243440, "serialpos": 8, "key_press": -1, "wordID": 234, "type": "PRES_VIS", "trial_index": 29}, "uniqueid": "MTK3456:35H6S234SB7YPMTS8TLXMRQN4B256M", "dateTime": 1520547291188}, {"current_trial": 30, "trialdata": {"rt": -1, "trial_type": "single-stim", "word": "ankle", "stimulus": "<p id=\"stim\">ANKLE</p>", "conditions": [18, 1200, "v", 18000], "internal_node_id": "0.0-21.0", "trial": 0, "time_elapsed": 245531, "serialpos": 9, "key_press": -1, "wordID": 23, "type": "PRES_VIS", "trial_index": 30}, "uniqueid": "MTK3456:35H6S234SB7YPMTS8TLXMRQN4B256M", "dateTime": 1520547293279}, {"current_trial": 31, "trialdata": {"rt": -1, "trial_type": "single-stim", "word": "girl", "stimulus": "<p id=\"stim\">GIRL</p>", "conditions": [18, 1200, "v", 18000], "internal_node_id": "0.0-22.0", "trial": 0, "time_elapsed": 247879, "serialpos": 10, "key_press": -1, "wordID": 636, "type": "PRES_VIS", "trial_index": 31}, "uniqueid": "MTK3456:35H6S234SB7YPMTS8TLXMRQN4B256M", "dateTime": 1520547295627}, {"current_trial": 32, "trialdata": {"rt": -1, "trial_type": "single-stim", "word": "champagne", "stimulus": "<p id=\"stim\">CHAMPAGNE</p>", "conditions": [18, 1200, "v", 18000], "internal_node_id": "0.0-23.0", "trial": 0, "time_elapsed": 250107, "serialpos": 11, "key_press": -1, "wordID": 277, "type": "PRES_VIS", "trial_index": 32}, "uniqueid": "MTK3456:35H6S234SB7YPMTS8TLXMRQN4B256M", "dateTime": 1520547297856}, {"current_trial": 33, "trialdata": {"rt": -1, "trial_type": "single-stim", "word": "dancer", "stimulus": "<p id=\"stim\">DANCER</p>", "conditions": [18, 1200, "v", 18000], "internal_node_id": "0.0-24.0", "trial": 0, "time_elapsed": 252388, "serialpos": 12, "key_press": -1, "wordID": 436, "type": "PRES_VIS", "trial_index": 33}, "uniqueid": "MTK3456:35H6S234SB7YPMTS8TLXMRQN4B256M", "dateTime": 1520547300136}, {"current_trial": 34, "trialdata": {"rt": -1, "trial_type": "single-stim", "word": "cocoon", "stimulus": "<p id=\"stim\">COCOON</p>", "conditions": [18, 1200, "v", 18000], "internal_node_id": "0.0-25.0", "trial": 0, "time_elapsed": 254649, "serialpos": 13, "key_press": -1, "wordID": 338, "type": "PRES_VIS", "trial_index": 34}, "uniqueid": "MTK3456:35H6S234SB7YPMTS8TLXMRQN4B256M", "dateTime": 1520547302397}, {"current_trial": 35, "trialdata": {"rt": -1, "trial_type": "single-stim", "word": "table", "stimulus": "<p id=\"stim\">TABLE</p>", "conditions": [18, 1200, "v", 18000], "internal_node_id": "0.0-26.0", "trial": 0, "time_elapsed": 256791, "serialpos": 14, "key_press": -1, "wordID": 1425, "type": "PRES_VIS", "trial_index": 35}, "uniqueid": "MTK3456:35H6S234SB7YPMTS8TLXMRQN4B256M", "dateTime": 1520547304540}, {"current_trial": 36, "trialdata": {"rt": -1, "trial_type": "single-stim", "word": "honey", "stimulus": "<p id=\"stim\">HONEY</p>", "conditions": [18, 1200, "v", 18000], "internal_node_id": "0.0-27.0", "trial": 0, "time_elapsed": 259004, "serialpos": 15, "key_press": -1, "wordID": 712, "type": "PRES_VIS", "trial_index": 36}, "uniqueid": "MTK3456:35H6S234SB7YPMTS8TLXMRQN4B256M", "dateTime": 1520547306752}, {"current_trial": 37, "trialdata": {"rt": -1, "trial_type": "single-stim", "word": "forehead", "stimulus": "<p id=\"stim\">FOREHEAD</p>", "conditions": [18, 1200, "v", 18000], "internal_node_id": "0.0-28.0", "trial": 0, "time_elapsed": 261155, "serialpos": 16, "key_press": -1, "wordID": 591, "type": "PRES_VIS", "trial_index": 37}, "uniqueid": "MTK3456:35H6S234SB7YPMTS8TLXMRQN4B256M", "dateTime": 1520547308903}, {"current_trial": 38, "trialdata": {"rt": -1, "trial_type": "single-stim", "word": "cloud", "stimulus": "<p id=\"stim\">CLOUD</p>", "conditions": [18, 1200, "v", 18000], "internal_node_id": "0.0-29.0", "trial": 0, "time_elapsed": 263549, "serialpos": 17, "key_press": -1, "wordID": 327, "type": "PRES_VIS", "trial_index": 38}, "uniqueid": "MTK3456:35H6S234SB7YPMTS8TLXMRQN4B256M", "dateTime": 1520547311297}, {"current_trial": 39, "trialdata": {"rt": -1, "trial_type": "single-stim", "stimulus": "", "internal_node_id": "0.0-30.0-0.0", "time_elapsed": 265995, "key_press": -1, "type": "PRE_RECALL_DELAY", "trial_index": 39}, "uniqueid": "MTK3456:35H6S234SB7YPMTS8TLXMRQN4B256M", "dateTime": 1520547313743}, {"current_trial": 40, "trialdata": {"rt": -1000, "trial_type": "single-audio", "stimulus": "/static/audio/400Hz.wav", "internal_node_id": "0.0-31.0", "time_elapsed": 266505, "key_press": -1, "type": "PRE_RECALL_ALERT", "trial_index": 40}, "uniqueid": "MTK3456:35H6S234SB7YPMTS8TLXMRQN4B256M", "dateTime": 1520547314254}, {"current_trial": 41, "trialdata": {"rt": [3112, 7104, 8875, 10597, 13018, 14725, 17316, 36506], "recwords": ["honey", "champagne", "drug", "stallion", "girl", "kitchen", "snack", "salt"], "key_times": [2072, 2178, 2333, 2457, 2646, 3112, 4754, 4897, 4989, 5281, 5466, 5956, 6225, 6376, 6496, 6655, 6809, 7104, 7714, 8233, 8361, 8567, 8875, 9198, 9401, 9596, 9771, 9948, 10072, 10196, 10285, 10597, 10895, 11124, 11290, 11873, 12051, 12426, 12572, 12710, 13018, 13394, 13604, 13782, 14067, 14138, 14325, 14431, 14725, 15382, 15973, 16168, 16324, 16525, 16752, 16898, 17316, 35537, 35824, 35925, 36217, 36506], "trial_type": "free-recall", "conditions": [18, 1200, "v", 18000], "internal_node_id": "0.0-32.0-0.0", "key_presses": [72, 79, 78, 69, 89, 13, 67, 72, 65, 77, 65, 8, 80, 65, 71, 78, 69, 13, 68, 82, 85, 71, 13, 83, 84, 65, 76, 76, 73, 79, 78, 13, 71, 82, 73, 8, 8, 73, 82, 76, 13, 75, 73, 84, 67, 72, 69, 78, 13, 72, 8, 83, 78, 65, 67, 75, 13, 83, 65, 76, 84, 13], "trial": 0, "time_elapsed": 326515, "type": "FREE_RECALL", "trial_index": 41}, "uniqueid": "MTK3456:35H6S234SB7YPMTS8TLXMRQN4B256M", "dateTime": 1520547374269}, {"current_trial": 42, "trialdata": {"rt": 1284, "trial_type": "text", "internal_node_id": "0.0-33.0", "time_elapsed": 329810, "key_press": 32, "type": "INSTRUCTIONS", "trial_index": 42}, "uniqueid": "MTK3456:35H6S234SB7YPMTS8TLXMRQN4B256M", "dateTime": 1520547377558}, {"current_trial": 43, "trialdata": {"rt": [4742, 8726, 13539, 17286], "trial_type": "math-distractor", "key_times": [3622, 3918, 4742, 7768, 7933, 8726, 12682, 12887, 13539, 16561, 16733, 17286], "responses": ["18", "15", "15", "10"], "num2": [7, 2, 2, 4, 3], "num3": [2, 4, 4, 1, 5], "conditions": [18, 1200, "v", 18000], "internal_node_id": "0.0-34.0", "key_presses": [97, 104, 13, 97, 101, 13, 97, 101, 13, 97, 96, 13], "trial": 1, "time_elapsed": 349818, "type": "DISTRACTOR", "trial_index": 43, "num1": [9, 9, 9, 5, 5]}, "uniqueid": "MTK3456:35H6S234SB7YPMTS8TLXMRQN4B256M", "dateTime": 1520547397566}, {"current_trial": 44, "trialdata": {"rt": -1, "trial_type": "single-stim", "stimulus": "<p id=\"stim\">10</p>", "internal_node_id": "0.0-35.0-0.0", "time_elapsed": 352822, "key_press": -1, "trial_index": 44}, "uniqueid": "MTK3456:35H6S234SB7YPMTS8TLXMRQN4B256M", "dateTime": 1520547400570}, {"current_trial": 45, "trialdata": {"rt": -1, "trial_type": "single-stim", "stimulus": "<p id=\"stim\">9</p>", "internal_node_id": "0.0-35.0-1.0", "time_elapsed": 353826, "key_press": -1, "trial_index": 45}, "uniqueid": "MTK3456:35H6S234SB7YPMTS8TLXMRQN4B256M", "dateTime": 1520547401575}, {"current_trial": 46, "trialdata": {"rt": -1, "trial_type": "single-stim", "stimulus": "<p id=\"stim\">8</p>", "internal_node_id": "0.0-35.0-2.0", "time_elapsed": 354829, "key_press": -1, "trial_index": 46}, "uniqueid": "MTK3456:35H6S234SB7YPMTS8TLXMRQN4B256M", "dateTime": 1520547402577}, {"current_trial": 47, "trialdata": {"rt": -1, "trial_type": "single-stim", "stimulus": "<p id=\"stim\">7</p>", "internal_node_id": "0.0-35.0-3.0", "time_elapsed": 355832, "key_press": -1, "trial_index": 47}, "uniqueid": "MTK3456:35H6S234SB7YPMTS8TLXMRQN4B256M", "dateTime": 1520547403581}, {"current_trial": 48, "trialdata": {"rt": -1, "trial_type": "single-stim", "stimulus": "<p id=\"stim\">6</p>", "internal_node_id": "0.0-35.0-4.0", "time_elapsed": 356837, "key_press": -1, "trial_index": 48}, "uniqueid": "MTK3456:35H6S234SB7YPMTS8TLXMRQN4B256M", "dateTime": 1520547404585}, {"current_trial": 49, "trialdata": {"rt": -1, "trial_type": "single-stim", "stimulus": "<p id=\"stim\">5</p>", "internal_node_id": "0.0-35.0-5.0", "time_elapsed": 357842, "key_press": -1, "trial_index": 49}, "uniqueid": "MTK3456:35H6S234SB7YPMTS8TLXMRQN4B256M", "dateTime": 1520547405590}, {"current_trial": 50, "trialdata": {"rt": -1, "trial_type": "single-stim", "stimulus": "<p id=\"stim\">4</p>", "internal_node_id": "0.0-35.0-6.0", "time_elapsed": 358846, "key_press": -1, "trial_index": 50}, "uniqueid": "MTK3456:35H6S234SB7YPMTS8TLXMRQN4B256M", "dateTime": 1520547406594}, {"current_trial": 51, "trialdata": {"rt": -1, "trial_type": "single-stim", "stimulus": "<p id=\"stim\">3</p>", "internal_node_id": "0.0-35.0-7.0", "time_elapsed": 359848, "key_press": -1, "trial_index": 51}, "uniqueid": "MTK3456:35H6S234SB7YPMTS8TLXMRQN4B256M", "dateTime": 1520547407596}, {"current_trial": 52, "trialdata": {"rt": -1, "trial_type": "single-stim", "stimulus": "<p id=\"stim\">2</p>", "internal_node_id": "0.0-35.0-8.0", "time_elapsed": 360853, "key_press": -1, "trial_index": 52}, "uniqueid": "MTK3456:35H6S234SB7YPMTS8TLXMRQN4B256M", "dateTime": 1520547408601}, {"current_trial": 53, "trialdata": {"rt": -1, "trial_type": "single-stim", "stimulus": "<p id=\"stim\">1</p>", "internal_node_id": "0.0-35.0-9.0", "time_elapsed": 361857, "key_press": -1, "trial_index": 53}, "uniqueid": "MTK3456:35H6S234SB7YPMTS8TLXMRQN4B256M", "dateTime": 1520547409605}, {"current_trial": 54, "trialdata": {"rt": -1, "trial_type": "single-stim", "stimulus": "<p id=\"stim\">+</p>", "internal_node_id": "0.0-36.0-0.0", "time_elapsed": 363358, "key_press": -1, "type": "FIXATION", "trial_index": 54}, "uniqueid": "MTK3456:35H6S234SB7YPMTS8TLXMRQN4B256M", "dateTime": 1520547411107}, {"current_trial": 55, "trialdata": {"rt": -1, "trial_type": "single-stim", "word": "pudding", "stimulus": "<p id=\"stim\">PUDDING</p>", "conditions": [18, 1200, "v", 18000], "internal_node_id": "0.0-37.0", "trial": 1, "time_elapsed": 364563, "serialpos": 0, "key_press": -1, "wordID": 1138, "type": "PRES_VIS", "trial_index": 55}, "uniqueid": "MTK3456:35H6S234SB7YPMTS8TLXMRQN4B256M", "dateTime": 1520547412311}, {"current_trial": 56, "trialdata": {"rt": -1, "trial_type": "single-stim", "word": "peanut", "stimulus": "<p id=\"stim\">PEANUT</p>", "conditions": [18, 1200, "v", 18000], "internal_node_id": "0.0-38.0", "trial": 1, "time_elapsed": 366919, "serialpos": 1, "key_press": -1, "wordID": 1031, "type": "PRES_VIS", "trial_index": 56}, "uniqueid": "MTK3456:35H6S234SB7YPMTS8TLXMRQN4B256M", "dateTime": 1520547414668}, {"current_trial": 57, "trialdata": {"rt": -1, "trial_type": "single-stim", "word": "box", "stimulus": "<p id=\"stim\">BOX</p>", "conditions": [18, 1200, "v", 18000], "internal_node_id": "0.0-39.0", "trial": 1, "time_elapsed": 369288, "serialpos": 2, "key_press": -1, "wordID": 158, "type": "PRES_VIS", "trial_index": 57}, "uniqueid": "MTK3456:35H6S234SB7YPMTS8TLXMRQN4B256M", "dateTime": 1520547417036}, {"current_trial": 58, "trialdata": {"rt": -1, "trial_type": "single-stim", "word": "rod", "stimulus": "<p id=\"stim\">ROD</p>", "conditions": [18, 1200, "v", 18000], "internal_node_id": "0.0-40.0", "trial": 1, "time_elapsed": 371610, "serialpos": 3, "key_press": -1, "wordID": 1202, "type": "PRES_VIS", "trial_index": 58}, "uniqueid": "MTK3456:35H6S234SB7YPMTS8TLXMRQN4B256M", "dateTime": 1520547419358}, {"current_trial": 59, "trialdata": {"rt": -1, "trial_type": "single-stim", "word": "farmer", "stimulus": "<p id=\"stim\">FARMER</p>", "conditions": [18, 1200, "v", 18000], "internal_node_id": "0.0-41.0", "trial": 1, "time_elapsed": 373875, "serialpos": 4, "key_press": -1, "wordID": 552, "type": "PRES_VIS", "trial_index": 59}, "uniqueid": "MTK3456:35H6S234SB7YPMTS8TLXMRQN4B256M", "dateTime": 1520547421623}, {"current_trial": 60, "trialdata": {"rt": -1, "trial_type": "single-stim", "word": "passage", "stimulus": "<p id=\"stim\">PASSAGE</p>", "conditions": [18, 1200, "v", 18000], "internal_node_id": "0.0-42.0", "trial": 1, "time_elapsed": 376001, "serialpos": 5, "key_press": -1, "wordID": 1018, "type": "PRES_VIS", "trial_index": 60}, "uniqueid": "MTK3456:35H6S234SB7YPMTS8TLXMRQN4B256M", "dateTime": 1520547423749}, {"current_trial": 61, "trialdata": {"rt": -1, "trial_type": "single-stim", "word": "office", "stimulus": "<p id=\"stim\">OFFICE</p>", "conditions": [18, 1200, "v", 18000], "internal_node_id": "0.0-43.0", "trial": 1, "time_elapsed": 378153, "serialpos": 6, "key_press": -1, "wordID": 971, "type": "PRES_VIS", "trial_index": 61}, "uniqueid": "MTK3456:35H6S234SB7YPMTS8TLXMRQN4B256M", "dateTime": 1520547425901}, {"current_trial": 62, "trialdata": {"rt": -1, "trial_type": "single-stim", "word": "blender", "stimulus": "<p id=\"stim\">BLENDER</p>", "conditions": [18, 1200, "v", 18000], "internal_node_id": "0.0-44.0", "trial": 1, "time_elapsed": 380159, "serialpos": 7, "key_press": -1, "wordID": 135, "type": "PRES_VIS", "trial_index": 62}, "uniqueid": "MTK3456:35H6S234SB7YPMTS8TLXMRQN4B256M", "dateTime": 1520547427907}, {"current_trial": 63, "trialdata": {"rt": -1, "trial_type": "single-stim", "word": "outfit", "stimulus": "<p id=\"stim\">OUTFIT</p>", "conditions": [18, 1200, "v", 18000], "internal_node_id": "0.0-45.0", "trial": 1, "time_elapsed": 382216, "serialpos": 8, "key_press": -1, "wordID": 987, "type": "PRES_VIS", "trial_index": 63}, "uniqueid": "MTK3456:35H6S234SB7YPMTS8TLXMRQN4B256M", "dateTime": 1520547429964}, {"current_trial": 64, "trialdata": {"rt": -1, "trial_type": "single-stim", "word": "wasp", "stimulus": "<p id=\"stim\">WASP</p>", "conditions": [18, 1200, "v", 18000], "internal_node_id": "0.0-46.0", "trial": 1, "time_elapsed": 384432, "serialpos": 9, "key_press": -1, "wordID": 1592, "type": "PRES_VIS", "trial_index": 64}, "uniqueid": "MTK3456:35H6S234SB7YPMTS8TLXMRQN4B256M", "dateTime": 1520547432180}, {"current_trial": 65, "trialdata": {"rt": -1, "trial_type": "single-stim", "word": "muffin", "stimulus": "<p id=\"stim\">MUFFIN</p>", "conditions": [18, 1200, "v", 18000], "internal_node_id": "0.0-47.0", "trial": 1, "time_elapsed": 386487, "serialpos": 10, "key_press": -1, "wordID": 928, "type": "PRES_VIS", "trial_index": 65}, "uniqueid": "MTK3456:35H6S234SB7YPMTS8TLXMRQN4B256M", "dateTime": 1520547434236}, {"current_trial": 66, "trialdata": {"rt": -1, "trial_type": "single-stim", "word": "critic", "stimulus": "<p id=\"stim\">CRITIC</p>", "conditions": [18, 1200, "v", 18000], "internal_node_id": "0.0-48.0", "trial": 1, "time_elapsed": 388818, "serialpos": 11, "key_press": -1, "wordID": 409, "type": "PRES_VIS", "trial_index": 66}, "uniqueid": "MTK3456:35H6S234SB7YPMTS8TLXMRQN4B256M", "dateTime": 1520547436566}, {"current_trial": 67, "trialdata": {"rt": -1, "trial_type": "single-stim", "word": "star", "stimulus": "<p id=\"stim\">STAR</p>", "conditions": [18, 1200, "v", 18000], "internal_node_id": "0.0-49.0", "trial": 1, "time_elapsed": 391159, "serialpos": 12, "key_press": -1, "wordID": 1372, "type": "PRES_VIS", "trial_index": 67}, "uniqueid": "MTK3456:35H6S234SB7YPMTS8TLXMRQN4B256M", "dateTime": 1520547438907}, {"current_trial": 68, "trialdata": {"rt": -1, "trial_type": "single-stim", "word": "sparrow", "stimulus": "<p id=\"stim\">SPARROW</p>", "conditions": [18, 1200, "v", 18000], "internal_node_id": "0.0-50.0", "trial": 1, "time_elapsed": 393321, "serialpos": 13, "key_press": -1, "wordID": 1346, "type": "PRES_VIS", "trial_index": 68}, "uniqueid": "MTK3456:35H6S234SB7YPMTS8TLXMRQN4B256M", "dateTime": 1520547441073}, {"current_trial": 69, "trialdata": {"rt": -1, "trial_type": "single-stim", "word": "leg", "stimulus": "<p id=\"stim\">LEG</p>", "conditions": [18, 1200, "v", 18000], "internal_node_id": "0.0-51.0", "trial": 1, "time_elapsed": 395419, "serialpos": 14, "key_press": -1, "wordID": 808, "type": "PRES_VIS", "trial_index": 69}, "uniqueid": "MTK3456:35H6S234SB7YPMTS8TLXMRQN4B256M", "dateTime": 1520547443168}, {"current_trial": 70, "trialdata": {"rt": -1, "trial_type": "single-stim", "word": "tombstone", "stimulus": "<p id=\"stim\">TOMBSTONE</p>", "conditions": [18, 1200, "v", 18000], "internal_node_id": "0.0-52.0", "trial": 1, "time_elapsed": 397436, "serialpos": 15, "key_press": -1, "wordID": 1477, "type": "PRES_VIS", "trial_index": 70}, "uniqueid": "MTK3456:35H6S234SB7YPMTS8TLXMRQN4B256M", "dateTime": 1520547445184}, {"current_trial": 71, "trialdata": {"rt": -1, "trial_type": "single-stim", "word": "fungus", "stimulus": "<p id=\"stim\">FUNGUS</p>", "conditions": [18, 1200, "v", 18000], "internal_node_id": "0.0-53.0", "trial": 1, "time_elapsed": 399665, "serialpos": 16, "key_press": -1, "wordID": 613, "type": "PRES_VIS", "trial_index": 71}, "uniqueid": "MTK3456:35H6S234SB7YPMTS8TLXMRQN4B256M", "dateTime": 1520547447413}, {"current_trial": 72, "trialdata": {"rt": -1, "trial_type": "single-stim", "word": "perfume", "stimulus": "<p id=\"stim\">PERFUME</p>", "conditions": [18, 1200, "v", 18000], "internal_node_id": "0.0-54.0", "trial": 1, "time_elapsed": 401687, "serialpos": 17, "key_press": -1, "wordID": 1048, "type": "PRES_VIS", "trial_index": 72}, "uniqueid": "MTK3456:35H6S234SB7YPMTS8TLXMRQN4B256M", "dateTime": 1520547449435}, {"current_trial": 73, "trialdata": {"rt": -1, "trial_type": "single-stim", "stimulus": "", "internal_node_id": "0.0-55.0-0.0", "time_elapsed": 403798, "key_press": -1, "type": "PRE_RECALL_DELAY", "trial_index": 73}, "uniqueid": "MTK3456:35H6S234SB7YPMTS8TLXMRQN4B256M", "dateTime": 1520547451546}, {"current_trial": 74, "trialdata": {"rt": -1000, "trial_type": "single-audio", "stimulus": "/static/audio/400Hz.wav", "internal_node_id": "0.0-56.0", "time_elapsed": 404301, "key_press": -1, "type": "PRE_RECALL_ALERT", "trial_index": 74}, "uniqueid": "MTK3456:35H6S234SB7YPMTS8TLXMRQN4B256M", "dateTime": 1520547452049}, {"current_trial": 75, "trialdata": {"rt": [1669, 3697, 4932, 6058, 7561, 9309, 34994, 49752], "recwords": ["peanut", "pudding", "box", "rod", "fungus", "sparrow", "window", "peanut"], "key_times": [650, 813, 941, 1057, 1268, 1406, 1669, 2176, 2396, 2598, 2792, 2935, 3033, 3113, 3697, 4246, 4450, 4631, 4932, 5325, 5519, 5666, 6058, 6526, 6646, 6850, 6985, 7181, 7322, 7561, 7852, 8033, 8349, 8475, 8673, 8815, 8922, 9309, 17520, 17639, 17723, 18322, 18511, 18670, 33697, 33829, 33971, 34029, 34663, 34822, 34994, 48687, 48824, 48939, 49099, 49323, 49452, 49752], "trial_type": "free-recall", "conditions": [18, 1200, "v", 18000], "internal_node_id": "0.0-57.0-0.0", "key_presses": [80, 69, 65, 78, 85, 84, 13, 80, 85, 68, 68, 73, 78, 71, 13, 66, 79, 88, 13, 82, 79, 68, 13, 70, 85, 78, 71, 85, 83, 13, 83, 80, 65, 82, 82, 79, 87, 13, 87, 73, 78, 8, 8, 8, 87, 73, 78, 68, 79, 87, 13, 80, 69, 65, 78, 85, 84, 13], "trial": 1, "time_elapsed": 464310, "type": "FREE_RECALL", "trial_index": 75}, "uniqueid": "MTK3456:35H6S234SB7YPMTS8TLXMRQN4B256M", "dateTime": 1520547512062}, {"current_trial": 76, "trialdata": {"rt": 14927, "trial_type": "text", "internal_node_id": "0.0-58.0", "time_elapsed": 481245, "key_press": 32, "type": "INSTRUCTIONS", "trial_index": 76}, "uniqueid": "MTK3456:35H6S234SB7YPMTS8TLXMRQN4B256M", "dateTime": 1520547528993}, {"current_trial": 77, "trialdata": {"rt": [5372, 8505, 11942, 14709, 19154, 21626], "trial_type": "math-distractor", "key_times": [4595, 4890, 5372, 7731, 7895, 8505, 11320, 11537, 11942, 13738, 13901, 14709, 18477, 18627, 19154, 21153, 21368, 21626, 23445, 23653], "responses": ["18", "14", "13", "12", "11", "16"], "num2": [7, 5, 2, 3, 5, 6, 6], "num3": [6, 7, 6, 2, 4, 3, 4], "conditions": [12, 1600, "v", 24000], "internal_node_id": "0.0-59.0", "key_presses": [97, 104, 13, 97, 100, 13, 97, 99, 13, 97, 98, 13, 97, 97, 13, 97, 102, 13, 97, 99], "trial": 2, "time_elapsed": 506254, "type": "DISTRACTOR", "trial_index": 77, "num1": [7, 2, 5, 7, 2, 7, 3]}, "uniqueid": "MTK3456:35H6S234SB7YPMTS8TLXMRQN4B256M", "dateTime": 1520547554002}, {"current_trial": 78, "trialdata": {"rt": -1, "trial_type": "single-stim", "stimulus": "<p id=\"stim\">10</p>", "internal_node_id": "0.0-60.0-0.0", "time_elapsed": 509262, "key_press": -1, "trial_index": 78}, "uniqueid": "MTK3456:35H6S234SB7YPMTS8TLXMRQN4B256M", "dateTime": 1520547557010}, {"current_trial": 79, "trialdata": {"rt": -1, "trial_type": "single-stim", "stimulus": "<p id=\"stim\">9</p>", "internal_node_id": "0.0-60.0-1.0", "time_elapsed": 510264, "key_press": -1, "trial_index": 79}, "uniqueid": "MTK3456:35H6S234SB7YPMTS8TLXMRQN4B256M", "dateTime": 1520547558012}, {"current_trial": 80, "trialdata": {"rt": -1, "trial_type": "single-stim", "stimulus": "<p id=\"stim\">8</p>", "internal_node_id": "0.0-60.0-2.0", "time_elapsed": 511269, "key_press": -1, "trial_index": 80}, "uniqueid": "MTK3456:35H6S234SB7YPMTS8TLXMRQN4B256M", "dateTime": 1520547559017}, {"current_trial": 81, "trialdata": {"rt": -1, "trial_type": "single-stim", "stimulus": "<p id=\"stim\">7</p>", "internal_node_id": "0.0-60.0-3.0", "time_elapsed": 512271, "key_press": -1, "trial_index": 81}, "uniqueid": "MTK3456:35H6S234SB7YPMTS8TLXMRQN4B256M", "dateTime": 1520547560020}, {"current_trial": 82, "trialdata": {"rt": -1, "trial_type": "single-stim", "stimulus": "<p id=\"stim\">6</p>", "internal_node_id": "0.0-60.0-4.0", "time_elapsed": 513274, "key_press": -1, "trial_index": 82}, "uniqueid": "MTK3456:35H6S234SB7YPMTS8TLXMRQN4B256M", "dateTime": 1520547561022}, {"current_trial": 83, "trialdata": {"rt": -1, "trial_type": "single-stim", "stimulus": "<p id=\"stim\">5</p>", "internal_node_id": "0.0-60.0-5.0", "time_elapsed": 514277, "key_press": -1, "trial_index": 83}, "uniqueid": "MTK3456:35H6S234SB7YPMTS8TLXMRQN4B256M", "dateTime": 1520547562026}, {"current_trial": 84, "trialdata": {"rt": -1, "trial_type": "single-stim", "stimulus": "<p id=\"stim\">4</p>", "internal_node_id": "0.0-60.0-6.0", "time_elapsed": 515280, "key_press": -1, "trial_index": 84}, "uniqueid": "MTK3456:35H6S234SB7YPMTS8TLXMRQN4B256M", "dateTime": 1520547563028}, {"current_trial": 85, "trialdata": {"rt": -1, "trial_type": "single-stim", "stimulus": "<p id=\"stim\">3</p>", "internal_node_id": "0.0-60.0-7.0", "time_elapsed": 516285, "key_press": -1, "trial_index": 85}, "uniqueid": "MTK3456:35H6S234SB7YPMTS8TLXMRQN4B256M", "dateTime": 1520547564033}, {"current_trial": 86, "trialdata": {"rt": -1, "trial_type": "single-stim", "stimulus": "<p id=\"stim\">2</p>", "internal_node_id": "0.0-60.0-8.0", "time_elapsed": 517291, "key_press": -1, "trial_index": 86}, "uniqueid": "MTK3456:35H6S234SB7YPMTS8TLXMRQN4B256M", "dateTime": 1520547565039}, {"current_trial": 87, "trialdata": {"rt": -1, "trial_type": "single-stim", "stimulus": "<p id=\"stim\">1</p>", "internal_node_id": "0.0-60.0-9.0", "time_elapsed": 518294, "key_press": -1, "trial_index": 87}, "uniqueid": "MTK3456:35H6S234SB7YPMTS8TLXMRQN4B256M", "dateTime": 1520547566042}, {"current_trial": 88, "trialdata": {"rt": -1, "trial_type": "single-stim", "stimulus": "<p id=\"stim\">+</p>", "internal_node_id": "0.0-61.0-0.0", "time_elapsed": 519797, "key_press": -1, "type": "FIXATION", "trial_index": 88}, "uniqueid": "MTK3456:35H6S234SB7YPMTS8TLXMRQN4B256M", "dateTime": 1520547567545}, {"current_trial": 89, "trialdata": {"rt": -1, "trial_type": "single-stim", "word": "transplant", "stimulus": "<p id=\"stim\">TRANSPLANT</p>", "conditions": [12, 1600, "v", 24000], "internal_node_id": "0.0-62.0", "trial": 2, "time_elapsed": 521401, "serialpos": 0, "key_press": -1, "wordID": 1495, "type": "PRES_VIS", "trial_index": 89}, "uniqueid": "MTK3456:35H6S234SB7YPMTS8TLXMRQN4B256M", "dateTime": 1520547569149}, {"current_trial": 90, "trialdata": {"rt": -1, "trial_type": "single-stim", "word": "panther", "stimulus": "<p id=\"stim\">PANTHER</p>", "conditions": [12, 1600, "v", 24000], "internal_node_id": "0.0-63.0", "trial": 2, "time_elapsed": 523880, "serialpos": 1, "key_press": -1, "wordID": 1008, "type": "PRES_VIS", "trial_index": 90}, "uniqueid": "MTK3456:35H6S234SB7YPMTS8TLXMRQN4B256M", "dateTime": 1520547571628}, {"current_trial": 91, "trialdata": {"rt": -1, "trial_type": "single-stim", "word": "salmon", "stimulus": "<p id=\"stim\">SALMON</p>", "conditions": [12, 1600, "v", 24000], "internal_node_id": "0.0-64.0", "trial": 2, "time_elapsed": 526398, "serialpos": 2, "key_press": -1, "wordID": 1226, "type": "PRES_VIS", "trial_index": 91}, "uniqueid": "MTK3456:35H6S234SB7YPMTS8TLXMRQN4B256M", "dateTime": 1520547574146}, {"current_trial": 92, "trialdata": {"rt": -1, "trial_type": "single-stim", "word": "sidewalk", "stimulus": "<p id=\"stim\">SIDEWALK</p>", "conditions": [12, 1600, "v", 24000], "internal_node_id": "0.0-65.0", "trial": 2, "time_elapsed": 529083, "serialpos": 3, "key_press": -1, "wordID": 1302, "type": "PRES_VIS", "trial_index": 92}, "uniqueid": "MTK3456:35H6S234SB7YPMTS8TLXMRQN4B256M", "dateTime": 1520547576831}, {"current_trial": 93, "trialdata": {"rt": -1, "trial_type": "single-stim", "word": "gift", "stimulus": "<p id=\"stim\">GIFT</p>", "conditions": [12, 1600, "v", 24000], "internal_node_id": "0.0-66.0", "trial": 2, "time_elapsed": 531866, "serialpos": 4, "key_press": -1, "wordID": 634, "type": "PRES_VIS", "trial_index": 93}, "uniqueid": "MTK3456:35H6S234SB7YPMTS8TLXMRQN4B256M", "dateTime": 1520547579614}, {"current_trial": 94, "trialdata": {"rt": -1, "trial_type": "single-stim", "word": "army", "stimulus": "<p id=\"stim\">ARMY</p>", "conditions": [12, 1600, "v", 24000], "internal_node_id": "0.0-67.0", "trial": 2, "time_elapsed": 534615, "serialpos": 5, "key_press": -1, "wordID": 38, "type": "PRES_VIS", "trial_index": 94}, "uniqueid": "MTK3456:35H6S234SB7YPMTS8TLXMRQN4B256M", "dateTime": 1520547582363}, {"current_trial": 95, "trialdata": {"rt": -1, "trial_type": "single-stim", "word": "plaster", "stimulus": "<p id=\"stim\">PLASTER</p>", "conditions": [12, 1600, "v", 24000], "internal_node_id": "0.0-68.0", "trial": 2, "time_elapsed": 537163, "serialpos": 6, "key_press": -1, "wordID": 1084, "type": "PRES_VIS", "trial_index": 95}, "uniqueid": "MTK3456:35H6S234SB7YPMTS8TLXMRQN4B256M", "dateTime": 1520547584911}, {"current_trial": 96, "trialdata": {"rt": -1, "trial_type": "single-stim", "word": "yarn", "stimulus": "<p id=\"stim\">YARN</p>", "conditions": [12, 1600, "v", 24000], "internal_node_id": "0.0-69.0", "trial": 2, "time_elapsed": 539576, "serialpos": 7, "key_press": -1, "wordID": 1630, "type": "PRES_VIS", "trial_index": 96}, "uniqueid": "MTK3456:35H6S234SB7YPMTS8TLXMRQN4B256M", "dateTime": 1520547587324}, {"current_trial": 97, "trialdata": {"rt": -1, "trial_type": "single-stim", "word": "mailman", "stimulus": "<p id=\"stim\">MAILMAN</p>", "conditions": [12, 1600, "v", 24000], "internal_node_id": "0.0-70.0", "trial": 2, "time_elapsed": 542158, "serialpos": 8, "key_press": -1, "wordID": 857, "type": "PRES_VIS", "trial_index": 97}, "uniqueid": "MTK3456:35H6S234SB7YPMTS8TLXMRQN4B256M", "dateTime": 1520547589906}, {"current_trial": 98, "trialdata": {"rt": -1, "trial_type": "single-stim", "word": "mailbox", "stimulus": "<p id=\"stim\">MAILBOX</p>", "conditions": [12, 1600, "v", 24000], "internal_node_id": "0.0-71.0", "trial": 2, "time_elapsed": 544949, "serialpos": 9, "key_press": -1, "wordID": 856, "type": "PRES_VIS", "trial_index": 98}, "uniqueid": "MTK3456:35H6S234SB7YPMTS8TLXMRQN4B256M", "dateTime": 1520547592697}, {"current_trial": 99, "trialdata": {"rt": -1, "trial_type": "single-stim", "word": "crown", "stimulus": "<p id=\"stim\">CROWN</p>", "conditions": [12, 1600, "v", 24000], "internal_node_id": "0.0-72.0", "trial": 2, "time_elapsed": 547602, "serialpos": 10, "key_press": -1, "wordID": 414, "type": "PRES_VIS", "trial_index": 99}, "uniqueid": "MTK3456:35H6S234SB7YPMTS8TLXMRQN4B256M", "dateTime": 1520547595350}, {"current_trial": 100, "trialdata": {"rt": -1, "trial_type": "single-stim", "word": "plaza", "stimulus": "<p id=\"stim\">PLAZA</p>", "conditions": [12, 1600, "v", 24000], "internal_node_id": "0.0-73.0", "trial": 2, "time_elapsed": 550020, "serialpos": 11, "key_press": -1, "wordID": 1087, "type": "PRES_VIS", "trial_index": 100}, "uniqueid": "MTK3456:35H6S234SB7YPMTS8TLXMRQN4B256M", "dateTime": 1520547597768}, {"current_trial": 101, "trialdata": {"rt": -1, "trial_type": "single-stim", "stimulus": "", "internal_node_id": "0.0-74.0-0.0", "time_elapsed": 552399, "key_press": -1, "type": "PRE_RECALL_DELAY", "trial_index": 101}, "uniqueid": "MTK3456:35H6S234SB7YPMTS8TLXMRQN4B256M", "dateTime": 1520547600147}, {"current_trial": 102, "trialdata": {"rt": -1000, "trial_type": "single-audio", "stimulus": "/static/audio/400Hz.wav", "internal_node_id": "0.0-75.0", "time_elapsed": 552907, "key_press": -1, "type": "PRE_RECALL_ALERT", "trial_index": 102}, "uniqueid": "MTK3456:35H6S234SB7YPMTS8TLXMRQN4B256M", "dateTime": 1520547600655}, {"current_trial": 103, "trialdata": {"rt": [3636, 5215, 7114, 9451, 12182, 14191, 18133, 19635, 25413], "recwords": ["crown", "plaza", "mailman", "mailbox", "yarn", "gift", "transplant", "panther", "sidewalk"], "key_times": [2467, 2738, 2872, 2997, 3124, 3636, 4094, 4320, 4514, 4779, 5047, 5215, 5530, 5717, 5925, 6118, 6551, 6736, 6834, 7114, 7486, 7676, 7888, 8059, 8269, 8424, 8606, 9451, 11216, 11516, 11680, 11840, 12182, 13406, 13463, 13738, 13968, 14191, 16277, 16484, 16634, 16767, 16937, 17330, 17530, 17575, 17766, 17927, 18133, 18450, 18578, 18693, 18840, 18978, 19072, 19121, 19635, 23731, 23992, 24086, 24305, 24562, 24738, 24840, 25013, 25413, 40248, 41867, 42045], "trial_type": "free-recall", "conditions": [12, 1600, "v", 24000], "internal_node_id": "0.0-76.0-0.0", "key_presses": [67, 82, 79, 87, 78, 13, 80, 76, 65, 90, 65, 13, 77, 65, 73, 76, 77, 65, 78, 13, 77, 65, 73, 76, 66, 79, 88, 13, 89, 65, 82, 78, 13, 71, 73, 70, 84, 13, 84, 82, 65, 78, 83, 80, 76, 65, 78, 84, 13, 80, 65, 78, 84, 72, 69, 82, 13, 83, 73, 68, 69, 87, 65, 76, 75, 13, 68, 8, 8], "trial": 2, "time_elapsed": 612912, "type": "FREE_RECALL", "trial_index": 103}, "uniqueid": "MTK3456:35H6S234SB7YPMTS8TLXMRQN4B256M", "dateTime": 1520547660665}, {"current_trial": 104, "trialdata": {"rt": 2635, "trial_type": "text", "internal_node_id": "0.0-77.0", "time_elapsed": 617555, "key_press": 32, "type": "INSTRUCTIONS", "trial_index": 104}, "uniqueid": "MTK3456:35H6S234SB7YPMTS8TLXMRQN4B256M", "dateTime": 1520547665304}, {"current_trial": 105, "trialdata": {"rt": [9025, 11402], "trial_type": "math-distractor", "key_times": [5471, 5625, 7624, 8124, 9025, 10677, 10849, 11402], "responses": ["21", "10"], "num2": [4, 5, 3], "num3": [8, 1, 1], "conditions": [24, 800, "v", 12000], "internal_node_id": "0.0-78.0", "key_presses": [98, 98, 8, 97, 13, 97, 96, 13], "trial": 3, "time_elapsed": 631567, "type": "DISTRACTOR", "trial_index": 105, "num1": [9, 4, 9]}, "uniqueid": "MTK3456:35H6S234SB7YPMTS8TLXMRQN4B256M", "dateTime": 1520547679315}, {"current_trial": 106, "trialdata": {"rt": -1, "trial_type": "single-stim", "stimulus": "<p id=\"stim\">10</p>", "internal_node_id": "0.0-79.0-0.0", "time_elapsed": 634575, "key_press": -1, "trial_index": 106}, "uniqueid": "MTK3456:35H6S234SB7YPMTS8TLXMRQN4B256M", "dateTime": 1520547682323}, {"current_trial": 107, "trialdata": {"rt": -1, "trial_type": "single-stim", "stimulus": "<p id=\"stim\">9</p>", "internal_node_id": "0.0-79.0-1.0", "time_elapsed": 635579, "key_press": -1, "trial_index": 107}, "uniqueid": "MTK3456:35H6S234SB7YPMTS8TLXMRQN4B256M", "dateTime": 1520547683328}, {"current_trial": 108, "trialdata": {"rt": -1, "trial_type": "single-stim", "stimulus": "<p id=\"stim\">8</p>", "internal_node_id": "0.0-79.0-2.0", "time_elapsed": 636584, "key_press": -1, "trial_index": 108}, "uniqueid": "MTK3456:35H6S234SB7YPMTS8TLXMRQN4B256M", "dateTime": 1520547684332}, {"current_trial": 109, "trialdata": {"rt": -1, "trial_type": "single-stim", "stimulus": "<p id=\"stim\">7</p>", "internal_node_id": "0.0-79.0-3.0", "time_elapsed": 637586, "key_press": -1, "trial_index": 109}, "uniqueid": "MTK3456:35H6S234SB7YPMTS8TLXMRQN4B256M", "dateTime": 1520547685334}, {"current_trial": 110, "trialdata": {"rt": -1, "trial_type": "single-stim", "stimulus": "<p id=\"stim\">6</p>", "internal_node_id": "0.0-79.0-4.0", "time_elapsed": 638589, "key_press": -1, "trial_index": 110}, "uniqueid": "MTK3456:35H6S234SB7YPMTS8TLXMRQN4B256M", "dateTime": 1520547686337}, {"current_trial": 111, "trialdata": {"rt": -1, "trial_type": "single-stim", "stimulus": "<p id=\"stim\">5</p>", "internal_node_id": "0.0-79.0-5.0", "time_elapsed": 639594, "key_press": -1, "trial_index": 111}, "uniqueid": "MTK3456:35H6S234SB7YPMTS8TLXMRQN4B256M", "dateTime": 1520547687342}, {"current_trial": 112, "trialdata": {"rt": -1, "trial_type": "single-stim", "stimulus": "<p id=\"stim\">4</p>", "internal_node_id": "0.0-79.0-6.0", "time_elapsed": 640597, "key_press": -1, "trial_index": 112}, "uniqueid": "MTK3456:35H6S234SB7YPMTS8TLXMRQN4B256M", "dateTime": 1520547688345}, {"current_trial": 113, "trialdata": {"rt": -1, "trial_type": "single-stim", "stimulus": "<p id=\"stim\">3</p>", "internal_node_id": "0.0-79.0-7.0", "time_elapsed": 641600, "key_press": -1, "trial_index": 113}, "uniqueid": "MTK3456:35H6S234SB7YPMTS8TLXMRQN4B256M", "dateTime": 1520547689349}, {"current_trial": 114, "trialdata": {"rt": -1, "trial_type": "single-stim", "stimulus": "<p id=\"stim\">2</p>", "internal_node_id": "0.0-79.0-8.0", "time_elapsed": 642604, "key_press": -1, "trial_index": 114}, "uniqueid": "MTK3456:35H6S234SB7YPMTS8TLXMRQN4B256M", "dateTime": 1520547690352}, {"current_trial": 115, "trialdata": {"rt": -1, "trial_type": "single-stim", "stimulus": "<p id=\"stim\">1</p>", "internal_node_id": "0.0-79.0-9.0", "time_elapsed": 643609, "key_press": -1, "trial_index": 115}, "uniqueid": "MTK3456:35H6S234SB7YPMTS8TLXMRQN4B256M", "dateTime": 1520547691358}, {"current_trial": 116, "trialdata": {"rt": -1, "trial_type": "single-stim", "stimulus": "<p id=\"stim\">+</p>", "internal_node_id": "0.0-80.0-0.0", "time_elapsed": 645113, "key_press": -1, "type": "FIXATION", "trial_index": 116}, "uniqueid": "MTK3456:35H6S234SB7YPMTS8TLXMRQN4B256M", "dateTime": 1520547692861}, {"current_trial": 117, "trialdata": {"rt": -1, "trial_type": "single-stim", "word": "chapel", "stimulus": "<p id=\"stim\">CHAPEL</p>", "conditions": [24, 800, "v", 12000], "internal_node_id": "0.0-81.0", "trial": 3, "time_elapsed": 645914, "serialpos": 0, "key_press": -1, "wordID": 279, "type": "PRES_VIS", "trial_index": 117}, "uniqueid": "MTK3456:35H6S234SB7YPMTS8TLXMRQN4B256M", "dateTime": 1520547693662}, {"current_trial": 118, "trialdata": {"rt": -1, "trial_type": "single-stim", "word": "laser", "stimulus": "<p id=\"stim\">LASER</p>", "conditions": [24, 800, "v", 12000], "internal_node_id": "0.0-82.0", "trial": 3, "time_elapsed": 647866, "serialpos": 1, "key_press": -1, "wordID": 800, "type": "PRES_VIS", "trial_index": 118}, "uniqueid": "MTK3456:35H6S234SB7YPMTS8TLXMRQN4B256M", "dateTime": 1520547695614}, {"current_trial": 119, "trialdata": {"rt": -1, "trial_type": "single-stim", "word": "daughter", "stimulus": "<p id=\"stim\">DAUGHTER</p>", "conditions": [24, 800, "v", 12000], "internal_node_id": "0.0-83.0", "trial": 3, "time_elapsed": 649854, "serialpos": 2, "key_press": -1, "wordID": 441, "type": "PRES_VIS", "trial_index": 119}, "uniqueid": "MTK3456:35H6S234SB7YPMTS8TLXMRQN4B256M", "dateTime": 1520547697603}, {"current_trial": 120, "trialdata": {"rt": -1, "trial_type": "single-stim", "word": "child", "stimulus": "<p id=\"stim\">CHILD</p>", "conditions": [24, 800, "v", 12000], "internal_node_id": "0.0-84.0", "trial": 3, "time_elapsed": 651488, "serialpos": 3, "key_press": -1, "wordID": 298, "type": "PRES_VIS", "trial_index": 120}, "uniqueid": "MTK3456:35H6S234SB7YPMTS8TLXMRQN4B256M", "dateTime": 1520547699236}, {"current_trial": 121, "trialdata": {"rt": -1, "trial_type": "single-stim", "word": "glove", "stimulus": "<p id=\"stim\">GLOVE</p>", "conditions": [24, 800, "v", 12000], "internal_node_id": "0.0-85.0", "trial": 3, "time_elapsed": 653480, "serialpos": 4, "key_press": -1, "wordID": 641, "type": "PRES_VIS", "trial_index": 121}, "uniqueid": "MTK3456:35H6S234SB7YPMTS8TLXMRQN4B256M", "dateTime": 1520547701228}, {"current_trial": 122, "trialdata": {"rt": -1, "trial_type": "single-stim", "word": "spoon", "stimulus": "<p id=\"stim\">SPOON</p>", "conditions": [24, 800, "v", 12000], "internal_node_id": "0.0-86.0", "trial": 3, "time_elapsed": 655187, "serialpos": 5, "key_press": -1, "wordID": 1356, "type": "PRES_VIS", "trial_index": 122}, "uniqueid": "MTK3456:35H6S234SB7YPMTS8TLXMRQN4B256M", "dateTime": 1520547702935}, {"current_trial": 123, "trialdata": {"rt": -1, "trial_type": "single-stim", "word": "primate", "stimulus": "<p id=\"stim\">PRIMATE</p>", "conditions": [24, 800, "v", 12000], "internal_node_id": "0.0-87.0", "trial": 3, "time_elapsed": 657113, "serialpos": 6, "key_press": -1, "wordID": 1122, "type": "PRES_VIS", "trial_index": 123}, "uniqueid": "MTK3456:35H6S234SB7YPMTS8TLXMRQN4B256M", "dateTime": 1520547704861}, {"current_trial": 124, "trialdata": {"rt": -1, "trial_type": "single-stim", "word": "sponge", "stimulus": "<p id=\"stim\">SPONGE</p>", "conditions": [24, 800, "v", 12000], "internal_node_id": "0.0-88.0", "trial": 3, "time_elapsed": 658957, "serialpos": 7, "key_press": -1, "wordID": 1354, "type": "PRES_VIS", "trial_index": 124}, "uniqueid": "MTK3456:35H6S234SB7YPMTS8TLXMRQN4B256M", "dateTime": 1520547706705}, {"current_trial": 125, "trialdata": {"rt": -1, "trial_type": "single-stim", "word": "dentist", "stimulus": "<p id=\"stim\">DENTIST</p>", "conditions": [24, 800, "v", 12000], "internal_node_id": "0.0-89.0", "trial": 3, "time_elapsed": 660604, "serialpos": 8, "key_press": -1, "wordID": 446, "type": "PRES_VIS", "trial_index": 125}, "uniqueid": "MTK3456:35H6S234SB7YPMTS8TLXMRQN4B256M", "dateTime": 1520547708352}, {"current_trial": 126, "trialdata": {"rt": -1, "trial_type": "single-stim", "word": "summit", "stimulus": "<p id=\"stim\">SUMMIT</p>", "conditions": [24, 800, "v", 12000], "internal_node_id": "0.0-90.0", "trial": 3, "time_elapsed": 662405, "serialpos": 9, "key_press": -1, "wordID": 1404, "type": "PRES_VIS", "trial_index": 126}, "uniqueid": "MTK3456:35H6S234SB7YPMTS8TLXMRQN4B256M", "dateTime": 1520547710153}, {"current_trial": 127, "trialdata": {"rt": -1, "trial_type": "single-stim", "word": "freckle", "stimulus": "<p id=\"stim\">FRECKLE</p>", "conditions": [24, 800, "v", 12000], "internal_node_id": "0.0-91.0", "trial": 3, "time_elapsed": 664180, "serialpos": 10, "key_press": -1, "wordID": 601, "type": "PRES_VIS", "trial_index": 127}, "uniqueid": "MTK3456:35H6S234SB7YPMTS8TLXMRQN4B256M", "dateTime": 1520547711928}, {"current_trial": 128, "trialdata": {"rt": -1, "trial_type": "single-stim", "word": "church", "stimulus": "<p id=\"stim\">CHURCH</p>", "conditions": [24, 800, "v", 12000], "internal_node_id": "0.0-92.0", "trial": 3, "time_elapsed": 665957, "serialpos": 11, "key_press": -1, "wordID": 306, "type": "PRES_VIS", "trial_index": 128}, "uniqueid": "MTK3456:35H6S234SB7YPMTS8TLXMRQN4B256M", "dateTime": 1520547713705}, {"current_trial": 129, "trialdata": {"rt": -1, "trial_type": "single-stim", "word": "wrench", "stimulus": "<p id=\"stim\">WRENCH</p>", "conditions": [24, 800, "v", 12000], "internal_node_id": "0.0-93.0", "trial": 3, "time_elapsed": 667749, "serialpos": 12, "key_press": -1, "wordID": 1624, "type": "PRES_VIS", "trial_index": 129}, "uniqueid": "MTK3456:35H6S234SB7YPMTS8TLXMRQN4B256M", "dateTime": 1520547715497}, {"current_trial": 130, "trialdata": {"rt": -1, "trial_type": "single-stim", "word": "human", "stimulus": "<p id=\"stim\">HUMAN</p>", "conditions": [24, 800, "v", 12000], "internal_node_id": "0.0-94.0", "trial": 3, "time_elapsed": 669407, "serialpos": 13, "key_press": -1, "wordID": 725, "type": "PRES_VIS", "trial_index": 130}, "uniqueid": "MTK3456:35H6S234SB7YPMTS8TLXMRQN4B256M", "dateTime": 1520547717155}, {"current_trial": 131, "trialdata": {"rt": -1, "trial_type": "single-stim", "word": "rooster", "stimulus": "<p id=\"stim\">ROOSTER</p>", "conditions": [24, 800, "v", 12000], "internal_node_id": "0.0-95.0", "trial": 3, "time_elapsed": 671197, "serialpos": 14, "key_press": -1, "wordID": 1208, "type": "PRES_VIS", "trial_index": 131}, "uniqueid": "MTK3456:35H6S234SB7YPMTS8TLXMRQN4B256M", "dateTime": 1520547718945}, {"current_trial": 132, "trialdata": {"rt": -1, "trial_type": "single-stim", "word": "fruit", "stimulus": "<p id=\"stim\">FRUIT</p>", "conditions": [24, 800, "v", 12000], "internal_node_id": "0.0-96.0", "trial": 3, "time_elapsed": 672931, "serialpos": 15, "key_press": -1, "wordID": 609, "type": "PRES_VIS", "trial_index": 132}, "uniqueid": "MTK3456:35H6S234SB7YPMTS8TLXMRQN4B256M", "dateTime": 1520547720679}, {"current_trial": 133, "trialdata": {"rt": -1, "trial_type": "single-stim", "word": "fox", "stimulus": "<p id=\"stim\">FOX</p>", "conditions": [24, 800, "v", 12000], "internal_node_id": "0.0-97.0", "trial": 3, "time_elapsed": 674741, "serialpos": 16, "key_press": -1, "wordID": 597, "type": "PRES_VIS", "trial_index": 133}, "uniqueid": "MTK3456:35H6S234SB7YPMTS8TLXMRQN4B256M", "dateTime": 1520547722489}, {"current_trial": 134, "trialdata": {"rt": -1, "trial_type": "single-stim", "word": "parsley", "stimulus": "<p id=\"stim\">PARSLEY</p>", "conditions": [24, 800, "v", 12000], "internal_node_id": "0.0-98.0", "trial": 3, "time_elapsed": 676469, "serialpos": 17, "key_press": -1, "wordID": 1015, "type": "PRES_VIS", "trial_index": 134}, "uniqueid": "MTK3456:35H6S234SB7YPMTS8TLXMRQN4B256M", "dateTime": 1520547724217}, {"current_trial": 135, "trialdata": {"rt": -1, "trial_type": "single-stim", "word": "salad", "stimulus": "<p id=\"stim\">SALAD</p>", "conditions": [24, 800, "v", 12000], "internal_node_id": "0.0-99.0", "trial": 3, "time_elapsed": 678343, "serialpos": 18, "key_press": -1, "wordID": 1223, "type": "PRES_VIS", "trial_index": 135}, "uniqueid": "MTK3456:35H6S234SB7YPMTS8TLXMRQN4B256M", "dateTime": 1520547726091}, {"current_trial": 136, "trialdata": {"rt": -1, "trial_type": "single-stim", "word": "crib", "stimulus": "<p id=\"stim\">CRIB</p>", "conditions": [24, 800, "v", 12000], "internal_node_id": "0.0-100.0", "trial": 3, "time_elapsed": 680135, "serialpos": 19, "key_press": -1, "wordID": 406, "type": "PRES_VIS", "trial_index": 136}, "uniqueid": "MTK3456:35H6S234SB7YPMTS8TLXMRQN4B256M", "dateTime": 1520547727883}, {"current_trial": 137, "trialdata": {"rt": -1, "trial_type": "single-stim", "word": "carriage", "stimulus": "<p id=\"stim\">CARRIAGE</p>", "conditions": [24, 800, "v", 12000], "internal_node_id": "0.0-101.0", "trial": 3, "time_elapsed": 682023, "serialpos": 20, "key_press": -1, "wordID": 247, "type": "PRES_VIS", "trial_index": 137}, "uniqueid": "MTK3456:35H6S234SB7YPMTS8TLXMRQN4B256M", "dateTime": 1520547729771}, {"current_trial": 138, "trialdata": {"rt": -1, "trial_type": "single-stim", "word": "bunny", "stimulus": "<p id=\"stim\">BUNNY</p>", "conditions": [24, 800, "v", 12000], "internal_node_id": "0.0-102.0", "trial": 3, "time_elapsed": 683776, "serialpos": 21, "key_press": -1, "wordID": 197, "type": "PRES_VIS", "trial_index": 138}, "uniqueid": "MTK3456:35H6S234SB7YPMTS8TLXMRQN4B256M", "dateTime": 1520547731525}, {"current_trial": 139, "trialdata": {"rt": -1, "trial_type": "single-stim", "word": "omelet", "stimulus": "<p id=\"stim\">OMELET</p>", "conditions": [24, 800, "v", 12000], "internal_node_id": "0.0-103.0", "trial": 3, "time_elapsed": 685387, "serialpos": 22, "key_press": -1, "wordID": 975, "type": "PRES_VIS", "trial_index": 139}, "uniqueid": "MTK3456:35H6S234SB7YPMTS8TLXMRQN4B256M", "dateTime": 1520547733135}, {"current_trial": 140, "trialdata": {"rt": -1, "trial_type": "single-stim", "word": "robin", "stimulus": "<p id=\"stim\">ROBIN</p>", "conditions": [24, 800, "v", 12000], "internal_node_id": "0.0-104.0", "trial": 3, "time_elapsed": 687023, "serialpos": 23, "key_press": -1, "wordID": 1198, "type": "PRES_VIS", "trial_index": 140}, "uniqueid": "MTK3456:35H6S234SB7YPMTS8TLXMRQN4B256M", "dateTime": 1520547734771}, {"current_trial": 141, "trialdata": {"rt": -1, "trial_type": "single-stim", "stimulus": "", "internal_node_id": "0.0-105.0-0.0", "time_elapsed": 689366, "key_press": -1, "type": "PRE_RECALL_DELAY", "trial_index": 141}, "uniqueid": "MTK3456:35H6S234SB7YPMTS8TLXMRQN4B256M", "dateTime": 1520547737114}, {"current_trial": 142, "trialdata": {"rt": -1000, "trial_type": "single-audio", "stimulus": "/static/audio/400Hz.wav", "internal_node_id": "0.0-106.0", "time_elapsed": 689872, "key_press": -1, "type": "PRE_RECALL_ALERT", "trial_index": 142}, "uniqueid": "MTK3456:35H6S234SB7YPMTS8TLXMRQN4B256M", "dateTime": 1520547737620}, {"current_trial": 143, "trialdata": {"rt": [5035, 6710, 8865, 10248, 13414, 21619, 25131, 32265, 36388, 38571], "recwords": ["church", "chapel", "daughter", "crib", "omlette", "wren", "child", "egg", "parsley", "salad"], "key_times": [1491, 1658, 1944, 2560, 3427, 3817, 4150, 4283, 4503, 4579, 5035, 5593, 5809, 5954, 6082, 6256, 6385, 6710, 6933, 7127, 7265, 7806, 8000, 8209, 8422, 8492, 8865, 9277, 9486, 9576, 9821, 10248, 11520, 11688, 11876, 12167, 12404, 12935, 13129, 13414, 20874, 21022, 21221, 21346, 21619, 24315, 24444, 24497, 24692, 24851, 25131, 31656, 31853, 32086, 32265, 34879, 35021, 35190, 35487, 35823, 35930, 36114, 36388, 36638, 36999, 37477, 37861, 38342, 38571, 59989], "trial_type": "free-recall", "conditions": [24, 800, "v", 12000], "internal_node_id": "0.0-107.0-0.0", "key_presses": [67, 72, 82, 8, 82, 8, 85, 82, 67, 72, 13, 67, 72, 65, 80, 69, 76, 13, 68, 65, 85, 71, 72, 84, 69, 82, 13, 67, 82, 73, 66, 13, 79, 77, 76, 69, 84, 84, 69, 13, 87, 82, 69, 78, 13, 67, 72, 73, 76, 68, 13, 69, 71, 71, 13, 80, 65, 82, 83, 76, 69, 89, 13, 83, 65, 76, 65, 68, 13, 84], "trial": 3, "time_elapsed": 749879, "type": "FREE_RECALL", "trial_index": 143}, "uniqueid": "MTK3456:35H6S234SB7YPMTS8TLXMRQN4B256M", "dateTime": 1520547797632}, {"current_trial": 144, "trialdata": {"rt": 1959, "trial_type": "text", "internal_node_id": "0.0-108.0", "time_elapsed": 753846, "key_press": 32, "type": "INSTRUCTIONS", "trial_index": 144}, "uniqueid": "MTK3456:35H6S234SB7YPMTS8TLXMRQN4B256M", "dateTime": 1520547801594}, {"current_trial": 145, "trialdata": {"rt": [2687, 5015, 7783, 12520, 17400, 20243, 22813], "trial_type": "math-distractor", "key_times": [1988, 2135, 2687, 4223, 4339, 5015, 7079, 7288, 7783, 11824, 12008, 12520, 16377, 16903, 17400, 19536, 19728, 20243, 22148, 22347, 22813], "responses": ["16", "16", "17", "15", "12", "16", "16"], "num2": [5, 5, 1, 8, 7, 9, 9, 6], "num3": [6, 5, 8, 4, 6, 3, 1, 1], "conditions": [12, 1600, "v", 24000], "internal_node_id": "0.0-109.0", "key_presses": [97, 102, 13, 97, 102, 13, 97, 103, 13, 97, 101, 13, 97, 98, 13, 97, 102, 13, 97, 102, 13], "trial": 4, "time_elapsed": 779852, "type": "DISTRACTOR", "trial_index": 145, "num1": [5, 6, 8, 3, 1, 4, 6, 5]}, "uniqueid": "MTK3456:35H6S234SB7YPMTS8TLXMRQN4B256M", "dateTime": 1520547827600}, {"current_trial": 146, "trialdata": {"rt": -1, "trial_type": "single-stim", "stimulus": "<p id=\"stim\">10</p>", "internal_node_id": "0.0-110.0-0.0", "time_elapsed": 782857, "key_press": -1, "trial_index": 146}, "uniqueid": "MTK3456:35H6S234SB7YPMTS8TLXMRQN4B256M", "dateTime": 1520547830605}, {"current_trial": 147, "trialdata": {"rt": -1, "trial_type": "single-stim", "stimulus": "<p id=\"stim\">9</p>", "internal_node_id": "0.0-110.0-1.0", "time_elapsed": 783858, "key_press": -1, "trial_index": 147}, "uniqueid": "MTK3456:35H6S234SB7YPMTS8TLXMRQN4B256M", "dateTime": 1520547831606}, {"current_trial": 148, "trialdata": {"rt": -1, "trial_type": "single-stim", "stimulus": "<p id=\"stim\">8</p>", "internal_node_id": "0.0-110.0-2.0", "time_elapsed": 784863, "key_press": -1, "trial_index": 148}, "uniqueid": "MTK3456:35H6S234SB7YPMTS8TLXMRQN4B256M", "dateTime": 1520547832612}, {"current_trial": 149, "trialdata": {"rt": -1, "trial_type": "single-stim", "stimulus": "<p id=\"stim\">7</p>", "internal_node_id": "0.0-110.0-3.0", "time_elapsed": 785869, "key_press": -1, "trial_index": 149}, "uniqueid": "MTK3456:35H6S234SB7YPMTS8TLXMRQN4B256M", "dateTime": 1520547833617}, {"current_trial": 150, "trialdata": {"rt": -1, "trial_type": "single-stim", "stimulus": "<p id=\"stim\">6</p>", "internal_node_id": "0.0-110.0-4.0", "time_elapsed": 786873, "key_press": -1, "trial_index": 150}, "uniqueid": "MTK3456:35H6S234SB7YPMTS8TLXMRQN4B256M", "dateTime": 1520547834621}, {"current_trial": 151, "trialdata": {"rt": -1, "trial_type": "single-stim", "stimulus": "<p id=\"stim\">5</p>", "internal_node_id": "0.0-110.0-5.0", "time_elapsed": 787877, "key_press": -1, "trial_index": 151}, "uniqueid": "MTK3456:35H6S234SB7YPMTS8TLXMRQN4B256M", "dateTime": 1520547835625}, {"current_trial": 152, "trialdata": {"rt": -1, "trial_type": "single-stim", "stimulus": "<p id=\"stim\">4</p>", "internal_node_id": "0.0-110.0-6.0", "time_elapsed": 788881, "key_press": -1, "trial_index": 152}, "uniqueid": "MTK3456:35H6S234SB7YPMTS8TLXMRQN4B256M", "dateTime": 1520547836630}, {"current_trial": 153, "trialdata": {"rt": -1, "trial_type": "single-stim", "stimulus": "<p id=\"stim\">3</p>", "internal_node_id": "0.0-110.0-7.0", "time_elapsed": 789885, "key_press": -1, "trial_index": 153}, "uniqueid": "MTK3456:35H6S234SB7YPMTS8TLXMRQN4B256M", "dateTime": 1520547837633}, {"current_trial": 154, "trialdata": {"rt": -1, "trial_type": "single-stim", "stimulus": "<p id=\"stim\">2</p>", "internal_node_id": "0.0-110.0-8.0", "time_elapsed": 790889, "key_press": -1, "trial_index": 154}, "uniqueid": "MTK3456:35H6S234SB7YPMTS8TLXMRQN4B256M", "dateTime": 1520547838638}, {"current_trial": 155, "trialdata": {"rt": -1, "trial_type": "single-stim", "stimulus": "<p id=\"stim\">1</p>", "internal_node_id": "0.0-110.0-9.0", "time_elapsed": 791894, "key_press": -1, "trial_index": 155}, "uniqueid": "MTK3456:35H6S234SB7YPMTS8TLXMRQN4B256M", "dateTime": 1520547839642}, {"current_trial": 156, "trialdata": {"rt": -1, "trial_type": "single-stim", "stimulus": "<p id=\"stim\">+</p>", "internal_node_id": "0.0-111.0-0.0", "time_elapsed": 793397, "key_press": -1, "type": "FIXATION", "trial_index": 156}, "uniqueid": "MTK3456:35H6S234SB7YPMTS8TLXMRQN4B256M", "dateTime": 1520547841145}, {"current_trial": 157, "trialdata": {"rt": -1, "trial_type": "single-stim", "word": "quail", "stimulus": "<p id=\"stim\">QUAIL</p>", "conditions": [12, 1600, "v", 24000], "internal_node_id": "0.0-112.0", "trial": 4, "time_elapsed": 795002, "serialpos": 0, "key_press": -1, "wordID": 1146, "type": "PRES_VIS", "trial_index": 157}, "uniqueid": "MTK3456:35H6S234SB7YPMTS8TLXMRQN4B256M", "dateTime": 1520547842751}, {"current_trial": 158, "trialdata": {"rt": -1, "trial_type": "single-stim", "word": "kleenex", "stimulus": "<p id=\"stim\">KLEENEX</p>", "conditions": [12, 1600, "v", 24000], "internal_node_id": "0.0-113.0", "trial": 4, "time_elapsed": 797745, "serialpos": 1, "key_press": -1, "wordID": 781, "type": "PRES_VIS", "trial_index": 158}, "uniqueid": "MTK3456:35H6S234SB7YPMTS8TLXMRQN4B256M", "dateTime": 1520547845493}, {"current_trial": 159, "trialdata": {"rt": -1, "trial_type": "single-stim", "word": "missile", "stimulus": "<p id=\"stim\">MISSILE</p>", "conditions": [12, 1600, "v", 24000], "internal_node_id": "0.0-114.0", "trial": 4, "time_elapsed": 800385, "serialpos": 2, "key_press": -1, "wordID": 899, "type": "PRES_VIS", "trial_index": 159}, "uniqueid": "MTK3456:35H6S234SB7YPMTS8TLXMRQN4B256M", "dateTime": 1520547848133}, {"current_trial": 160, "trialdata": {"rt": -1, "trial_type": "single-stim", "word": "rocket", "stimulus": "<p id=\"stim\">ROCKET</p>", "conditions": [12, 1600, "v", 24000], "internal_node_id": "0.0-115.0", "trial": 4, "time_elapsed": 802918, "serialpos": 3, "key_press": -1, "wordID": 1201, "type": "PRES_VIS", "trial_index": 160}, "uniqueid": "MTK3456:35H6S234SB7YPMTS8TLXMRQN4B256M", "dateTime": 1520547850666}, {"current_trial": 161, "trialdata": {"rt": -1, "trial_type": "single-stim", "word": "cottage", "stimulus": "<p id=\"stim\">COTTAGE</p>", "conditions": [12, 1600, "v", 24000], "internal_node_id": "0.0-116.0", "trial": 4, "time_elapsed": 805596, "serialpos": 4, "key_press": -1, "wordID": 383, "type": "PRES_VIS", "trial_index": 161}, "uniqueid": "MTK3456:35H6S234SB7YPMTS8TLXMRQN4B256M", "dateTime": 1520547853345}, {"current_trial": 162, "trialdata": {"rt": -1, "trial_type": "single-stim", "word": "pistol", "stimulus": "<p id=\"stim\">PISTOL</p>", "conditions": [12, 1600, "v", 24000], "internal_node_id": "0.0-117.0", "trial": 4, "time_elapsed": 808048, "serialpos": 5, "key_press": -1, "wordID": 1074, "type": "PRES_VIS", "trial_index": 162}, "uniqueid": "MTK3456:35H6S234SB7YPMTS8TLXMRQN4B256M", "dateTime": 1520547855797}, {"current_trial": 163, "trialdata": {"rt": -1, "trial_type": "single-stim", "word": "cowboy", "stimulus": "<p id=\"stim\">COWBOY</p>", "conditions": [12, 1600, "v", 24000], "internal_node_id": "0.0-118.0", "trial": 4, "time_elapsed": 810845, "serialpos": 6, "key_press": -1, "wordID": 394, "type": "PRES_VIS", "trial_index": 163}, "uniqueid": "MTK3456:35H6S234SB7YPMTS8TLXMRQN4B256M", "dateTime": 1520547858593}, {"current_trial": 164, "trialdata": {"rt": -1, "trial_type": "single-stim", "word": "widow", "stimulus": "<p id=\"stim\">WIDOW</p>", "conditions": [12, 1600, "v", 24000], "internal_node_id": "0.0-119.0", "trial": 4, "time_elapsed": 813257, "serialpos": 7, "key_press": -1, "wordID": 1607, "type": "PRES_VIS", "trial_index": 164}, "uniqueid": "MTK3456:35H6S234SB7YPMTS8TLXMRQN4B256M", "dateTime": 1520547861005}, {"current_trial": 165, "trialdata": {"rt": -1, "trial_type": "single-stim", "word": "trench", "stimulus": "<p id=\"stim\">TRENCH</p>", "conditions": [12, 1600, "v", 24000], "internal_node_id": "0.0-120.0", "trial": 4, "time_elapsed": 815787, "serialpos": 8, "key_press": -1, "wordID": 1502, "type": "PRES_VIS", "trial_index": 165}, "uniqueid": "MTK3456:35H6S234SB7YPMTS8TLXMRQN4B256M", "dateTime": 1520547863535}, {"current_trial": 166, "trialdata": {"rt": -1, "trial_type": "single-stim", "word": "london", "stimulus": "<p id=\"stim\">LONDON</p>", "conditions": [12, 1600, "v", 24000], "internal_node_id": "0.0-121.0", "trial": 4, "time_elapsed": 818258, "serialpos": 9, "key_press": -1, "wordID": 842, "type": "PRES_VIS", "trial_index": 166}, "uniqueid": "MTK3456:35H6S234SB7YPMTS8TLXMRQN4B256M", "dateTime": 1520547866006}, {"current_trial": 167, "trialdata": {"rt": -1, "trial_type": "single-stim", "word": "ulcer", "stimulus": "<p id=\"stim\">ULCER</p>", "conditions": [12, 1600, "v", 24000], "internal_node_id": "0.0-122.0", "trial": 4, "time_elapsed": 820902, "serialpos": 10, "key_press": -1, "wordID": 1532, "type": "PRES_VIS", "trial_index": 167}, "uniqueid": "MTK3456:35H6S234SB7YPMTS8TLXMRQN4B256M", "dateTime": 1520547868650}, {"current_trial": 168, "trialdata": {"rt": -1, "trial_type": "single-stim", "word": "turkey", "stimulus": "<p id=\"stim\">TURKEY</p>", "conditions": [12, 1600, "v", 24000], "internal_node_id": "0.0-123.0", "trial": 4, "time_elapsed": 823308, "serialpos": 11, "key_press": -1, "wordID": 1519, "type": "PRES_VIS", "trial_index": 168}, "uniqueid": "MTK3456:35H6S234SB7YPMTS8TLXMRQN4B256M", "dateTime": 1520547871056}, {"current_trial": 169, "trialdata": {"rt": -1, "trial_type": "single-stim", "stimulus": "", "internal_node_id": "0.0-124.0-0.0", "time_elapsed": 825608, "key_press": -1, "type": "PRE_RECALL_DELAY", "trial_index": 169}, "uniqueid": "MTK3456:35H6S234SB7YPMTS8TLXMRQN4B256M", "dateTime": 1520547873356}, {"current_trial": 170, "trialdata": {"rt": -1000, "trial_type": "single-audio", "stimulus": "/static/audio/400Hz.wav", "internal_node_id": "0.0-125.0", "time_elapsed": 826112, "key_press": -1, "type": "PRE_RECALL_ALERT", "trial_index": 170}, "uniqueid": "MTK3456:35H6S234SB7YPMTS8TLXMRQN4B256M", "dateTime": 1520547873860}, {"current_trial": 171, "trialdata": {"rt": [5987, 8068, 9954, 12184, 15247, 21651, 27596, 43369], "recwords": ["ulcer", "kleenex", "cottage", "turkey", "pistol", "kleenex", "cottage", "london"], "key_times": [1505, 1695, 1899, 2035, 2861, 3241, 3657, 3859, 4038, 4218, 4924, 5093, 5268, 5473, 5558, 5987, 6615, 6870, 7030, 7225, 7388, 7595, 7804, 8068, 8381, 8676, 8881, 9091, 9397, 9539, 9745, 9954, 10234, 10431, 10573, 10784, 11077, 11357, 12184, 13330, 13504, 13795, 14048, 14156, 14374, 15247, 19345, 20268, 20423, 20611, 20799, 20938, 21191, 21651, 26399, 26579, 26812, 26983, 27116, 27249, 27415, 27596, 42475, 42692, 42777, 42915, 43056, 43115, 43369, 59567, 59714, 59870], "trial_type": "free-recall", "conditions": [12, 1600, "v", 24000], "internal_node_id": "0.0-126.0-0.0", "key_presses": [81, 85, 65, 76, 8, 73, 8, 8, 8, 8, 85, 76, 67, 69, 82, 13, 75, 76, 69, 69, 78, 69, 88, 13, 67, 79, 84, 84, 65, 71, 69, 13, 84, 85, 82, 75, 69, 89, 13, 80, 73, 83, 84, 79, 76, 13, 75, 76, 69, 69, 78, 69, 88, 13, 67, 79, 84, 84, 65, 71, 69, 13, 76, 79, 78, 68, 79, 78, 13, 83, 80, 73], "trial": 4, "time_elapsed": 886119, "type": "FREE_RECALL", "trial_index": 171}, "uniqueid": "MTK3456:35H6S234SB7YPMTS8TLXMRQN4B256M", "dateTime": 1520547933873}, {"current_trial": 172, "trialdata": {"rt": 1376, "trial_type": "text", "internal_node_id": "0.0-127.0", "time_elapsed": 889505, "key_press": 32, "type": "INSTRUCTIONS", "trial_index": 172}, "uniqueid": "MTK3456:35H6S234SB7YPMTS8TLXMRQN4B256M", "dateTime": 1520547937253}, {"current_trial": 173, "trialdata": {"rt": [2571, 4905, 7335, 9094, 11480], "trial_type": "math-distractor", "key_times": [1707, 1945, 2571, 4303, 4469, 4905, 6839, 7335, 8543, 8772, 9094, 10802, 10980, 11480], "responses": ["17", "14", "8", "13", "14"], "num2": [5, 1, 1, 4, 6, 8], "num3": [5, 6, 2, 3, 5, 3], "conditions": [12, 1600, "v", 12000], "internal_node_id": "0.0-128.0", "key_presses": [97, 103, 13, 97, 100, 13, 104, 13, 97, 99, 13, 97, 100, 13], "trial": 5, "time_elapsed": 903514, "type": "DISTRACTOR", "trial_index": 173, "num1": [7, 7, 5, 6, 3, 4]}, "uniqueid": "MTK3456:35H6S234SB7YPMTS8TLXMRQN4B256M", "dateTime": 1520547951262}, {"current_trial": 174, "trialdata": {"rt": -1, "trial_type": "single-stim", "stimulus": "<p id=\"stim\">10</p>", "internal_node_id": "0.0-129.0-0.0", "time_elapsed": 906520, "key_press": -1, "trial_index": 174}, "uniqueid": "MTK3456:35H6S234SB7YPMTS8TLXMRQN4B256M", "dateTime": 1520547954268}, {"current_trial": 175, "trialdata": {"rt": -1, "trial_type": "single-stim", "stimulus": "<p id=\"stim\">9</p>", "internal_node_id": "0.0-129.0-1.0", "time_elapsed": 907522, "key_press": -1, "trial_index": 175}, "uniqueid": "MTK3456:35H6S234SB7YPMTS8TLXMRQN4B256M", "dateTime": 1520547955270}, {"current_trial": 176, "trialdata": {"rt": -1, "trial_type": "single-stim", "stimulus": "<p id=\"stim\">8</p>", "internal_node_id": "0.0-129.0-2.0", "time_elapsed": 908523, "key_press": -1, "trial_index": 176}, "uniqueid": "MTK3456:35H6S234SB7YPMTS8TLXMRQN4B256M", "dateTime": 1520547956272}, {"current_trial": 177, "trialdata": {"rt": -1, "trial_type": "single-stim", "stimulus": "<p id=\"stim\">7</p>", "internal_node_id": "0.0-129.0-3.0", "time_elapsed": 909527, "key_press": -1, "trial_index": 177}, "uniqueid": "MTK3456:35H6S234SB7YPMTS8TLXMRQN4B256M", "dateTime": 1520547957275}, {"current_trial": 178, "trialdata": {"rt": -1, "trial_type": "single-stim", "stimulus": "<p id=\"stim\">6</p>", "internal_node_id": "0.0-129.0-4.0", "time_elapsed": 910532, "key_press": -1, "trial_index": 178}, "uniqueid": "MTK3456:35H6S234SB7YPMTS8TLXMRQN4B256M", "dateTime": 1520547958280}, {"current_trial": 179, "trialdata": {"rt": -1, "trial_type": "single-stim", "stimulus": "<p id=\"stim\">5</p>", "internal_node_id": "0.0-129.0-5.0", "time_elapsed": 911536, "key_press": -1, "trial_index": 179}, "uniqueid": "MTK3456:35H6S234SB7YPMTS8TLXMRQN4B256M", "dateTime": 1520547959284}, {"current_trial": 180, "trialdata": {"rt": -1, "trial_type": "single-stim", "stimulus": "<p id=\"stim\">4</p>", "internal_node_id": "0.0-129.0-6.0", "time_elapsed": 912539, "key_press": -1, "trial_index": 180}, "uniqueid": "MTK3456:35H6S234SB7YPMTS8TLXMRQN4B256M", "dateTime": 1520547960287}, {"current_trial": 181, "trialdata": {"rt": -1, "trial_type": "single-stim", "stimulus": "<p id=\"stim\">3</p>", "internal_node_id": "0.0-129.0-7.0", "time_elapsed": 913542, "key_press": -1, "trial_index": 181}, "uniqueid": "MTK3456:35H6S234SB7YPMTS8TLXMRQN4B256M", "dateTime": 1520547961291}, {"current_trial": 182, "trialdata": {"rt": -1, "trial_type": "single-stim", "stimulus": "<p id=\"stim\">2</p>", "internal_node_id": "0.0-129.0-8.0", "time_elapsed": 914547, "key_press": -1, "trial_index": 182}, "uniqueid": "MTK3456:35H6S234SB7YPMTS8TLXMRQN4B256M", "dateTime": 1520547962295}, {"current_trial": 183, "trialdata": {"rt": -1, "trial_type": "single-stim", "stimulus": "<p id=\"stim\">1</p>", "internal_node_id": "0.0-129.0-9.0", "time_elapsed": 915549, "key_press": -1, "trial_index": 183}, "uniqueid": "MTK3456:35H6S234SB7YPMTS8TLXMRQN4B256M", "dateTime": 1520547963297}, {"current_trial": 184, "trialdata": {"rt": -1, "trial_type": "single-stim", "stimulus": "<p id=\"stim\">+</p>", "internal_node_id": "0.0-130.0-0.0", "time_elapsed": 917052, "key_press": -1, "type": "FIXATION", "trial_index": 184}, "uniqueid": "MTK3456:35H6S234SB7YPMTS8TLXMRQN4B256M", "dateTime": 1520547964801}, {"current_trial": 185, "trialdata": {"rt": -1, "trial_type": "single-stim", "word": "motel", "stimulus": "<p id=\"stim\">MOTEL</p>", "conditions": [12, 1600, "v", 12000], "internal_node_id": "0.0-131.0", "trial": 5, "time_elapsed": 918656, "serialpos": 0, "key_press": -1, "wordID": 918, "type": "PRES_VIS", "trial_index": 185}, "uniqueid": "MTK3456:35H6S234SB7YPMTS8TLXMRQN4B256M", "dateTime": 1520547966404}, {"current_trial": 186, "trialdata": {"rt": -1, "trial_type": "single-stim", "word": "piston", "stimulus": "<p id=\"stim\">PISTON</p>", "conditions": [12, 1600, "v", 12000], "internal_node_id": "0.0-132.0", "trial": 5, "time_elapsed": 921252, "serialpos": 1, "key_press": -1, "wordID": 1075, "type": "PRES_VIS", "trial_index": 186}, "uniqueid": "MTK3456:35H6S234SB7YPMTS8TLXMRQN4B256M", "dateTime": 1520547969001}, {"current_trial": 187, "trialdata": {"rt": -1, "trial_type": "single-stim", "word": "viking", "stimulus": "<p id=\"stim\">VIKING</p>", "conditions": [12, 1600, "v", 12000], "internal_node_id": "0.0-133.0", "trial": 5, "time_elapsed": 923764, "serialpos": 2, "key_press": -1, "wordID": 1564, "type": "PRES_VIS", "trial_index": 187}, "uniqueid": "MTK3456:35H6S234SB7YPMTS8TLXMRQN4B256M", "dateTime": 1520547971512}, {"current_trial": 188, "trialdata": {"rt": -1, "trial_type": "single-stim", "word": "dresser", "stimulus": "<p id=\"stim\">DRESSER</p>", "conditions": [12, 1600, "v", 12000], "internal_node_id": "0.0-134.0", "trial": 5, "time_elapsed": 926217, "serialpos": 3, "key_press": -1, "wordID": 495, "type": "PRES_VIS", "trial_index": 188}, "uniqueid": "MTK3456:35H6S234SB7YPMTS8TLXMRQN4B256M", "dateTime": 1520547973965}, {"current_trial": 189, "trialdata": {"rt": -1, "trial_type": "single-stim", "word": "flag", "stimulus": "<p id=\"stim\">FLAG</p>", "conditions": [12, 1600, "v", 12000], "internal_node_id": "0.0-135.0", "trial": 5, "time_elapsed": 928804, "serialpos": 4, "key_press": -1, "wordID": 572, "type": "PRES_VIS", "trial_index": 189}, "uniqueid": "MTK3456:35H6S234SB7YPMTS8TLXMRQN4B256M", "dateTime": 1520547976552}, {"current_trial": 190, "trialdata": {"rt": -1, "trial_type": "single-stim", "word": "bathtub", "stimulus": "<p id=\"stim\">BATHTUB</p>", "conditions": [12, 1600, "v", 12000], "internal_node_id": "0.0-136.0", "trial": 5, "time_elapsed": 931471, "serialpos": 5, "key_press": -1, "wordID": 99, "type": "PRES_VIS", "trial_index": 190}, "uniqueid": "MTK3456:35H6S234SB7YPMTS8TLXMRQN4B256M", "dateTime": 1520547979219}, {"current_trial": 191, "trialdata": {"rt": -1, "trial_type": "single-stim", "word": "scarf", "stimulus": "<p id=\"stim\">SCARF</p>", "conditions": [12, 1600, "v", 12000], "internal_node_id": "0.0-137.0", "trial": 5, "time_elapsed": 933919, "serialpos": 6, "key_press": -1, "wordID": 1245, "type": "PRES_VIS", "trial_index": 191}, "uniqueid": "MTK3456:35H6S234SB7YPMTS8TLXMRQN4B256M", "dateTime": 1520547981667}, {"current_trial": 192, "trialdata": {"rt": -1, "trial_type": "single-stim", "word": "shirt", "stimulus": "<p id=\"stim\">SHIRT</p>", "conditions": [12, 1600, "v", 12000], "internal_node_id": "0.0-138.0", "trial": 5, "time_elapsed": 936689, "serialpos": 7, "key_press": -1, "wordID": 1286, "type": "PRES_VIS", "trial_index": 192}, "uniqueid": "MTK3456:35H6S234SB7YPMTS8TLXMRQN4B256M", "dateTime": 1520547984437}, {"current_trial": 193, "trialdata": {"rt": -1, "trial_type": "single-stim", "word": "author", "stimulus": "<p id=\"stim\">AUTHOR</p>", "conditions": [12, 1600, "v", 12000], "internal_node_id": "0.0-139.0", "trial": 5, "time_elapsed": 939231, "serialpos": 8, "key_press": -1, "wordID": 60, "type": "PRES_VIS", "trial_index": 193}, "uniqueid": "MTK3456:35H6S234SB7YPMTS8TLXMRQN4B256M", "dateTime": 1520547986979}, {"current_trial": 194, "trialdata": {"rt": -1, "trial_type": "single-stim", "word": "journal", "stimulus": "<p id=\"stim\">JOURNAL</p>", "conditions": [12, 1600, "v", 12000], "internal_node_id": "0.0-140.0", "trial": 5, "time_elapsed": 941976, "serialpos": 9, "key_press": -1, "wordID": 759, "type": "PRES_VIS", "trial_index": 194}, "uniqueid": "MTK3456:35H6S234SB7YPMTS8TLXMRQN4B256M", "dateTime": 1520547989726}, {"current_trial": 195, "trialdata": {"rt": -1, "trial_type": "single-stim", "word": "valve", "stimulus": "<p id=\"stim\">VALVE</p>", "conditions": [12, 1600, "v", 12000], "internal_node_id": "0.0-141.0", "trial": 5, "time_elapsed": 944418, "serialpos": 10, "key_press": -1, "wordID": 1545, "type": "PRES_VIS", "trial_index": 195}, "uniqueid": "MTK3456:35H6S234SB7YPMTS8TLXMRQN4B256M", "dateTime": 1520547992166}, {"current_trial": 196, "trialdata": {"rt": -1, "trial_type": "single-stim", "word": "thief", "stimulus": "<p id=\"stim\">THIEF</p>", "conditions": [12, 1600, "v", 12000], "internal_node_id": "0.0-142.0", "trial": 5, "time_elapsed": 947220, "serialpos": 11, "key_press": -1, "wordID": 1455, "type": "PRES_VIS", "trial_index": 196}, "uniqueid": "MTK3456:35H6S234SB7YPMTS8TLXMRQN4B256M", "dateTime": 1520547994968}, {"current_trial": 197, "trialdata": {"rt": -1, "trial_type": "single-stim", "stimulus": "", "internal_node_id": "0.0-143.0-0.0", "time_elapsed": 949492, "key_press": -1, "type": "PRE_RECALL_DELAY", "trial_index": 197}, "uniqueid": "MTK3456:35H6S234SB7YPMTS8TLXMRQN4B256M", "dateTime": 1520547997240}, {"current_trial": 198, "trialdata": {"rt": -1000, "trial_type": "single-audio", "stimulus": "/static/audio/400Hz.wav", "internal_node_id": "0.0-144.0", "time_elapsed": 949999, "key_press": -1, "type": "PRE_RECALL_ALERT", "trial_index": 198}, "uniqueid": "MTK3456:35H6S234SB7YPMTS8TLXMRQN4B256M", "dateTime": 1520547997747}, {"current_trial": 199, "trialdata": {"rt": [2863, 4091, 7138, 9455, 15318, 18846, 20727], "recwords": ["author", "thief", "scarf", "motel", "shirt", "flag", "dresser"], "key_times": [1400, 1642, 1894, 1996, 2072, 2305, 2863, 3208, 3307, 3419, 3490, 3860, 4091, 5406, 5655, 5855, 6061, 6597, 7138, 8377, 8491, 8656, 8888, 9034, 9455, 13401, 13560, 13662, 13867, 14103, 15318, 17985, 18119, 18296, 18512, 18846, 19415, 19630, 19750, 19996, 20145, 20273, 20366, 20727, 43327, 45163, 50389, 50932], "trial_type": "free-recall", "conditions": [12, 1600, "v", 12000], "internal_node_id": "0.0-145.0-0.0", "key_presses": [65, 85, 84, 72, 79, 82, 13, 84, 72, 73, 69, 70, 13, 83, 67, 65, 82, 70, 13, 77, 79, 84, 69, 76, 13, 83, 72, 73, 82, 84, 13, 70, 76, 65, 71, 13, 68, 82, 69, 83, 83, 69, 82, 13, 75, 8, 84, 8], "trial": 5, "time_elapsed": 1010005, "type": "FREE_RECALL", "trial_index": 199}, "uniqueid": "MTK3456:35H6S234SB7YPMTS8TLXMRQN4B256M", "dateTime": 1520548057760}, {"current_trial": 200, "trialdata": {"rt": 3448, "trial_type": "text", "internal_node_id": "0.0-146.0", "time_elapsed": 1015463, "key_press": 32, "type": "INSTRUCTIONS", "trial_index": 200}, "uniqueid": "MTK3456:35H6S234SB7YPMTS8TLXMRQN4B256M", "dateTime": 1520548063211}, {"current_trial": 201, "trialdata": {"rt": [4205, 6578, 12838, 14631, 18844, 21368, 23744], "trial_type": "math-distractor", "key_times": [3416, 3636, 4205, 6055, 6284, 6578, 12197, 12368, 12838, 14075, 14238, 14631, 18205, 18359, 18844, 20897, 21050, 21368, 23073, 23255, 23744], "responses": ["18", "19", "21", "11", "22", "11", "10"], "num2": [9, 5, 4, 9, 6, 3, 5, 3], "num3": [4, 8, 9, 1, 9, 5, 1, 4], "conditions": [24, 800, "v", 24000], "internal_node_id": "0.0-147.0", "key_presses": [97, 104, 13, 97, 105, 13, 98, 97, 13, 97, 97, 13, 98, 98, 13, 97, 97, 13, 97, 96, 13], "trial": 6, "time_elapsed": 1041472, "type": "DISTRACTOR", "trial_index": 201, "num1": [5, 6, 7, 1, 7, 3, 4, 5]}, "uniqueid": "MTK3456:35H6S234SB7YPMTS8TLXMRQN4B256M", "dateTime": 1520548089220}, {"current_trial": 202, "trialdata": {"rt": -1, "trial_type": "single-stim", "stimulus": "<p id=\"stim\">10</p>", "internal_node_id": "0.0-148.0-0.0", "time_elapsed": 1044477, "key_press": -1, "trial_index": 202}, "uniqueid": "MTK3456:35H6S234SB7YPMTS8TLXMRQN4B256M", "dateTime": 1520548092226}, {"current_trial": 203, "trialdata": {"rt": -1, "trial_type": "single-stim", "stimulus": "<p id=\"stim\">9</p>", "internal_node_id": "0.0-148.0-1.0", "time_elapsed": 1045483, "key_press": -1, "trial_index": 203}, "uniqueid": "MTK3456:35H6S234SB7YPMTS8TLXMRQN4B256M", "dateTime": 1520548093231}, {"current_trial": 204, "trialdata": {"rt": -1, "trial_type": "single-stim", "stimulus": "<p id=\"stim\">8</p>", "internal_node_id": "0.0-148.0-2.0", "time_elapsed": 1046486, "key_press": -1, "trial_index": 204}, "uniqueid": "MTK3456:35H6S234SB7YPMTS8TLXMRQN4B256M", "dateTime": 1520548094235}, {"current_trial": 205, "trialdata": {"rt": -1, "trial_type": "single-stim", "stimulus": "<p id=\"stim\">7</p>", "internal_node_id": "0.0-148.0-3.0", "time_elapsed": 1047488, "key_press": -1, "trial_index": 205}, "uniqueid": "MTK3456:35H6S234SB7YPMTS8TLXMRQN4B256M", "dateTime": 1520548095236}, {"current_trial": 206, "trialdata": {"rt": -1, "trial_type": "single-stim", "stimulus": "<p id=\"stim\">6</p>", "internal_node_id": "0.0-148.0-4.0", "time_elapsed": 1048493, "key_press": -1, "trial_index": 206}, "uniqueid": "MTK3456:35H6S234SB7YPMTS8TLXMRQN4B256M", "dateTime": 1520548096242}, {"current_trial": 207, "trialdata": {"rt": -1, "trial_type": "single-stim", "stimulus": "<p id=\"stim\">5</p>", "internal_node_id": "0.0-148.0-5.0", "time_elapsed": 1049496, "key_press": -1, "trial_index": 207}, "uniqueid": "MTK3456:35H6S234SB7YPMTS8TLXMRQN4B256M", "dateTime": 1520548097244}, {"current_trial": 208, "trialdata": {"rt": -1, "trial_type": "single-stim", "stimulus": "<p id=\"stim\">4</p>", "internal_node_id": "0.0-148.0-6.0", "time_elapsed": 1050502, "key_press": -1, "trial_index": 208}, "uniqueid": "MTK3456:35H6S234SB7YPMTS8TLXMRQN4B256M", "dateTime": 1520548098250}, {"current_trial": 209, "trialdata": {"rt": -1, "trial_type": "single-stim", "stimulus": "<p id=\"stim\">3</p>", "internal_node_id": "0.0-148.0-7.0", "time_elapsed": 1051504, "key_press": -1, "trial_index": 209}, "uniqueid": "MTK3456:35H6S234SB7YPMTS8TLXMRQN4B256M", "dateTime": 1520548099253}, {"current_trial": 210, "trialdata": {"rt": -1, "trial_type": "single-stim", "stimulus": "<p id=\"stim\">2</p>", "internal_node_id": "0.0-148.0-8.0", "time_elapsed": 1052508, "key_press": -1, "trial_index": 210}, "uniqueid": "MTK3456:35H6S234SB7YPMTS8TLXMRQN4B256M", "dateTime": 1520548100257}, {"current_trial": 211, "trialdata": {"rt": -1, "trial_type": "single-stim", "stimulus": "<p id=\"stim\">1</p>", "internal_node_id": "0.0-148.0-9.0", "time_elapsed": 1053513, "key_press": -1, "trial_index": 211}, "uniqueid": "MTK3456:35H6S234SB7YPMTS8TLXMRQN4B256M", "dateTime": 1520548101261}, {"current_trial": 212, "trialdata": {"rt": -1, "trial_type": "single-stim", "stimulus": "<p id=\"stim\">+</p>", "internal_node_id": "0.0-149.0-0.0", "time_elapsed": 1055019, "key_press": -1, "type": "FIXATION", "trial_index": 212}, "uniqueid": "MTK3456:35H6S234SB7YPMTS8TLXMRQN4B256M", "dateTime": 1520548102767}, {"current_trial": 213, "trialdata": {"rt": -1, "trial_type": "single-stim", "word": "candy", "stimulus": "<p id=\"stim\">CANDY</p>", "conditions": [24, 800, "v", 24000], "internal_node_id": "0.0-150.0", "trial": 6, "time_elapsed": 1055824, "serialpos": 0, "key_press": -1, "wordID": 229, "type": "PRES_VIS", "trial_index": 213}, "uniqueid": "MTK3456:35H6S234SB7YPMTS8TLXMRQN4B256M", "dateTime": 1520548103572}, {"current_trial": 214, "trialdata": {"rt": -1, "trial_type": "single-stim", "word": "skillet", "stimulus": "<p id=\"stim\">SKILLET</p>", "conditions": [24, 800, "v", 24000], "internal_node_id": "0.0-151.0", "trial": 6, "time_elapsed": 1057619, "serialpos": 1, "key_press": -1, "wordID": 1316, "type": "PRES_VIS", "trial_index": 214}, "uniqueid": "MTK3456:35H6S234SB7YPMTS8TLXMRQN4B256M", "dateTime": 1520548105367}, {"current_trial": 215, "trialdata": {"rt": -1, "trial_type": "single-stim", "word": "jello", "stimulus": "<p id=\"stim\">JELLO</p>", "conditions": [24, 800, "v", 24000], "internal_node_id": "0.0-152.0", "trial": 6, "time_elapsed": 1059520, "serialpos": 2, "key_press": -1, "wordID": 753, "type": "PRES_VIS", "trial_index": 215}, "uniqueid": "MTK3456:35H6S234SB7YPMTS8TLXMRQN4B256M", "dateTime": 1520548107268}, {"current_trial": 216, "trialdata": {"rt": -1, "trial_type": "single-stim", "word": "bucket", "stimulus": "<p id=\"stim\">BUCKET</p>", "conditions": [24, 800, "v", 24000], "internal_node_id": "0.0-153.0", "trial": 6, "time_elapsed": 1061437, "serialpos": 3, "key_press": -1, "wordID": 183, "type": "PRES_VIS", "trial_index": 216}, "uniqueid": "MTK3456:35H6S234SB7YPMTS8TLXMRQN4B256M", "dateTime": 1520548109185}, {"current_trial": 217, "trialdata": {"rt": -1, "trial_type": "single-stim", "word": "scissors", "stimulus": "<p id=\"stim\">SCISSORS</p>", "conditions": [24, 800, "v", 24000], "internal_node_id": "0.0-154.0", "trial": 6, "time_elapsed": 1063086, "serialpos": 4, "key_press": -1, "wordID": 1249, "type": "PRES_VIS", "trial_index": 217}, "uniqueid": "MTK3456:35H6S234SB7YPMTS8TLXMRQN4B256M", "dateTime": 1520548110835}, {"current_trial": 218, "trialdata": {"rt": -1, "trial_type": "single-stim", "word": "statue", "stimulus": "<p id=\"stim\">STATUE</p>", "conditions": [24, 800, "v", 24000], "internal_node_id": "0.0-155.0", "trial": 6, "time_elapsed": 1064725, "serialpos": 5, "key_press": -1, "wordID": 1373, "type": "PRES_VIS", "trial_index": 218}, "uniqueid": "MTK3456:35H6S234SB7YPMTS8TLXMRQN4B256M", "dateTime": 1520548112473}, {"current_trial": 219, "trialdata": {"rt": -1, "trial_type": "single-stim", "word": "sculpture", "stimulus": "<p id=\"stim\">SCULPTURE</p>", "conditions": [24, 800, "v", 24000], "internal_node_id": "0.0-156.0", "trial": 6, "time_elapsed": 1066562, "serialpos": 6, "key_press": -1, "wordID": 1257, "type": "PRES_VIS", "trial_index": 219}, "uniqueid": "MTK3456:35H6S234SB7YPMTS8TLXMRQN4B256M", "dateTime": 1520548114310}, {"current_trial": 220, "trialdata": {"rt": -1, "trial_type": "single-stim", "word": "pigment", "stimulus": "<p id=\"stim\">PIGMENT</p>", "conditions": [24, 800, "v", 24000], "internal_node_id": "0.0-157.0", "trial": 6, "time_elapsed": 1068547, "serialpos": 7, "key_press": -1, "wordID": 1065, "type": "PRES_VIS", "trial_index": 220}, "uniqueid": "MTK3456:35H6S234SB7YPMTS8TLXMRQN4B256M", "dateTime": 1520548116297}, {"current_trial": 221, "trialdata": {"rt": -1, "trial_type": "single-stim", "word": "garlic", "stimulus": "<p id=\"stim\">GARLIC</p>", "conditions": [24, 800, "v", 24000], "internal_node_id": "0.0-158.0", "trial": 6, "time_elapsed": 1070163, "serialpos": 8, "key_press": -1, "wordID": 623, "type": "PRES_VIS", "trial_index": 221}, "uniqueid": "MTK3456:35H6S234SB7YPMTS8TLXMRQN4B256M", "dateTime": 1520548117911}, {"current_trial": 222, "trialdata": {"rt": -1, "trial_type": "single-stim", "word": "report", "stimulus": "<p id=\"stim\">REPORT</p>", "conditions": [24, 800, "v", 24000], "internal_node_id": "0.0-159.0", "trial": 6, "time_elapsed": 1071829, "serialpos": 9, "key_press": -1, "wordID": 1183, "type": "PRES_VIS", "trial_index": 222}, "uniqueid": "MTK3456:35H6S234SB7YPMTS8TLXMRQN4B256M", "dateTime": 1520548119577}, {"current_trial": 223, "trialdata": {"rt": -1, "trial_type": "single-stim", "word": "jelly", "stimulus": "<p id=\"stim\">JELLY</p>", "conditions": [24, 800, "v", 24000], "internal_node_id": "0.0-160.0", "trial": 6, "time_elapsed": 1073790, "serialpos": 10, "key_press": -1, "wordID": 754, "type": "PRES_VIS", "trial_index": 223}, "uniqueid": "MTK3456:35H6S234SB7YPMTS8TLXMRQN4B256M", "dateTime": 1520548121538}, {"current_trial": 224, "trialdata": {"rt": -1, "trial_type": "single-stim", "word": "blockade", "stimulus": "<p id=\"stim\">BLOCKADE</p>", "conditions": [24, 800, "v", 24000], "internal_node_id": "0.0-161.0", "trial": 6, "time_elapsed": 1075600, "serialpos": 11, "key_press": -1, "wordID": 136, "type": "PRES_VIS", "trial_index": 224}, "uniqueid": "MTK3456:35H6S234SB7YPMTS8TLXMRQN4B256M", "dateTime": 1520548123349}, {"current_trial": 225, "trialdata": {"rt": -1, "trial_type": "single-stim", "word": "cashier", "stimulus": "<p id=\"stim\">CASHIER</p>", "conditions": [24, 800, "v", 24000], "internal_node_id": "0.0-162.0", "trial": 6, "time_elapsed": 1077400, "serialpos": 12, "key_press": -1, "wordID": 253, "type": "PRES_VIS", "trial_index": 225}, "uniqueid": "MTK3456:35H6S234SB7YPMTS8TLXMRQN4B256M", "dateTime": 1520548125148}, {"current_trial": 226, "trialdata": {"rt": -1, "trial_type": "single-stim", "word": "eyelash", "stimulus": "<p id=\"stim\">EYELASH</p>", "conditions": [24, 800, "v", 24000], "internal_node_id": "0.0-163.0", "trial": 6, "time_elapsed": 1079260, "serialpos": 13, "key_press": -1, "wordID": 545, "type": "PRES_VIS", "trial_index": 226}, "uniqueid": "MTK3456:35H6S234SB7YPMTS8TLXMRQN4B256M", "dateTime": 1520548127008}, {"current_trial": 227, "trialdata": {"rt": -1, "trial_type": "single-stim", "word": "actor", "stimulus": "<p id=\"stim\">ACTOR</p>", "conditions": [24, 800, "v", 24000], "internal_node_id": "0.0-164.0", "trial": 6, "time_elapsed": 1080956, "serialpos": 14, "key_press": -1, "wordID": 4, "type": "PRES_VIS", "trial_index": 227}, "uniqueid": "MTK3456:35H6S234SB7YPMTS8TLXMRQN4B256M", "dateTime": 1520548128704}, {"current_trial": 228, "trialdata": {"rt": -1, "trial_type": "single-stim", "word": "actress", "stimulus": "<p id=\"stim\">ACTRESS</p>", "conditions": [24, 800, "v", 24000], "internal_node_id": "0.0-165.0", "trial": 6, "time_elapsed": 1082662, "serialpos": 15, "key_press": -1, "wordID": 5, "type": "PRES_VIS", "trial_index": 228}, "uniqueid": "MTK3456:35H6S234SB7YPMTS8TLXMRQN4B256M", "dateTime": 1520548130411}, {"current_trial": 229, "trialdata": {"rt": -1, "trial_type": "single-stim", "word": "cellar", "stimulus": "<p id=\"stim\">CELLAR</p>", "conditions": [24, 800, "v", 24000], "internal_node_id": "0.0-166.0", "trial": 6, "time_elapsed": 1084463, "serialpos": 16, "key_press": -1, "wordID": 266, "type": "PRES_VIS", "trial_index": 229}, "uniqueid": "MTK3456:35H6S234SB7YPMTS8TLXMRQN4B256M", "dateTime": 1520548132211}, {"current_trial": 230, "trialdata": {"rt": -1, "trial_type": "single-stim", "word": "mustard", "stimulus": "<p id=\"stim\">MUSTARD</p>", "conditions": [24, 800, "v", 24000], "internal_node_id": "0.0-167.0", "trial": 6, "time_elapsed": 1086342, "serialpos": 17, "key_press": -1, "wordID": 934, "type": "PRES_VIS", "trial_index": 230}, "uniqueid": "MTK3456:35H6S234SB7YPMTS8TLXMRQN4B256M", "dateTime": 1520548134091}, {"current_trial": 231, "trialdata": {"rt": -1, "trial_type": "single-stim", "word": "pastry", "stimulus": "<p id=\"stim\">PASTRY</p>", "conditions": [24, 800, "v", 24000], "internal_node_id": "0.0-168.0", "trial": 6, "time_elapsed": 1088260, "serialpos": 18, "key_press": -1, "wordID": 1021, "type": "PRES_VIS", "trial_index": 231}, "uniqueid": "MTK3456:35H6S234SB7YPMTS8TLXMRQN4B256M", "dateTime": 1520548136008}, {"current_trial": 232, "trialdata": {"rt": -1, "trial_type": "single-stim", "word": "convict", "stimulus": "<p id=\"stim\">CONVICT</p>", "conditions": [24, 800, "v", 24000], "internal_node_id": "0.0-169.0", "trial": 6, "time_elapsed": 1090064, "serialpos": 19, "key_press": -1, "wordID": 370, "type": "PRES_VIS", "trial_index": 232}, "uniqueid": "MTK3456:35H6S234SB7YPMTS8TLXMRQN4B256M", "dateTime": 1520548137812}, {"current_trial": 233, "trialdata": {"rt": -1, "trial_type": "single-stim", "word": "dress", "stimulus": "<p id=\"stim\">DRESS</p>", "conditions": [24, 800, "v", 24000], "internal_node_id": "0.0-170.0", "trial": 6, "time_elapsed": 1091672, "serialpos": 20, "key_press": -1, "wordID": 494, "type": "PRES_VIS", "trial_index": 233}, "uniqueid": "MTK3456:35H6S234SB7YPMTS8TLXMRQN4B256M", "dateTime": 1520548139420}, {"current_trial": 234, "trialdata": {"rt": -1, "trial_type": "single-stim", "word": "cod", "stimulus": "<p id=\"stim\">COD</p>", "conditions": [24, 800, "v", 24000], "internal_node_id": "0.0-171.0", "trial": 6, "time_elapsed": 1093555, "serialpos": 21, "key_press": -1, "wordID": 339, "type": "PRES_VIS", "trial_index": 234}, "uniqueid": "MTK3456:35H6S234SB7YPMTS8TLXMRQN4B256M", "dateTime": 1520548141303}, {"current_trial": 235, "trialdata": {"rt": -1, "trial_type": "single-stim", "word": "sausage", "stimulus": "<p id=\"stim\">SAUSAGE</p>", "conditions": [24, 800, "v", 24000], "internal_node_id": "0.0-172.0", "trial": 6, "time_elapsed": 1095179, "serialpos": 22, "key_press": -1, "wordID": 1237, "type": "PRES_VIS", "trial_index": 235}, "uniqueid": "MTK3456:35H6S234SB7YPMTS8TLXMRQN4B256M", "dateTime": 1520548142928}, {"current_trial": 236, "trialdata": {"rt": -1, "trial_type": "single-stim", "word": "basement", "stimulus": "<p id=\"stim\">BASEMENT</p>", "conditions": [24, 800, "v", 24000], "internal_node_id": "0.0-173.0", "trial": 6, "time_elapsed": 1096802, "serialpos": 23, "key_press": -1, "wordID": 93, "type": "PRES_VIS", "trial_index": 236}, "uniqueid": "MTK3456:35H6S234SB7YPMTS8TLXMRQN4B256M", "dateTime": 1520548144550}, {"current_trial": 237, "trialdata": {"rt": -1, "trial_type": "single-stim", "stimulus": "", "internal_node_id": "0.0-174.0-0.0", "time_elapsed": 1099300, "key_press": -1, "type": "PRE_RECALL_DELAY", "trial_index": 237}, "uniqueid": "MTK3456:35H6S234SB7YPMTS8TLXMRQN4B256M", "dateTime": 1520548147048}, {"current_trial": 238, "trialdata": {"rt": -1000, "trial_type": "single-audio", "stimulus": "/static/audio/400Hz.wav", "internal_node_id": "0.0-175.0", "time_elapsed": 1099801, "key_press": -1, "type": "PRE_RECALL_ALERT", "trial_index": 238}, "uniqueid": "MTK3456:35H6S234SB7YPMTS8TLXMRQN4B256M", "dateTime": 1520548147549}, {"current_trial": 239, "trialdata": {"rt": [2064, 3856, 5191, 7088, 8642, 12282, 18814, 25123, 32114, 40859], "recwords": ["cellar", "basement", "jello", "jelly", "candy", "skillet", "cod", "convict", "eyelash", "mustard"], "key_times": [755, 1001, 1121, 1298, 1638, 1807, 2064, 2625, 2800, 2924, 3082, 3223, 3325, 3496, 3647, 3856, 4192, 4374, 4556, 4737, 4916, 5191, 5482, 5688, 6089, 6254, 6467, 7088, 7724, 7888, 7955, 8144, 8339, 8642, 8864, 9050, 9275, 9486, 9655, 9752, 9977, 12282, 16616, 16757, 16914, 18814, 23770, 23862, 23991, 24332, 24460, 24651, 24924, 25123, 30807, 30972, 31081, 31246, 31469, 31630, 31793, 32114, 36708, 37030, 37207, 37576, 38331, 38710, 38927, 39082, 39334, 39498, 40565, 40859], "trial_type": "free-recall", "conditions": [24, 800, "v", 24000], "internal_node_id": "0.0-176.0-0.0", "key_presses": [67, 69, 76, 76, 65, 82, 13, 66, 65, 83, 69, 77, 69, 78, 84, 13, 74, 69, 76, 76, 79, 13, 74, 69, 76, 76, 89, 13, 67, 65, 78, 68, 89, 13, 83, 75, 73, 76, 76, 69, 84, 13, 67, 79, 68, 13, 67, 79, 78, 86, 73, 67, 84, 13, 69, 89, 69, 76, 65, 83, 72, 13, 77, 83, 84, 8, 8, 85, 83, 84, 65, 82, 68, 13], "trial": 6, "time_elapsed": 1159809, "type": "FREE_RECALL", "trial_index": 239}, "uniqueid": "MTK3456:35H6S234SB7YPMTS8TLXMRQN4B256M", "dateTime": 1520548207563}, {"current_trial": 240, "trialdata": {"rt": 5369, "trial_type": "text", "internal_node_id": "0.0-177.0", "time_elapsed": 1167185, "key_press": 32, "type": "INSTRUCTIONS", "trial_index": 240}, "uniqueid": "MTK3456:35H6S234SB7YPMTS8TLXMRQN4B256M", "dateTime": 1520548214934}, {"current_trial": 241, "trialdata": {"rt": [4344, 7750, 9816, 15482, 18197], "trial_type": "math-distractor", "key_times": [3306, 3645, 4344, 7150, 7313, 7750, 9389, 9578, 9816, 12819, 15025, 15482, 17737, 17927, 18197], "responses": ["18", "12", "16", "11", "14"], "num2": [9, 3, 5, 5, 5, 9], "num3": [2, 5, 4, 2, 8, 8], "conditions": [24, 800, "v", 24000], "internal_node_id": "0.0-178.0", "key_presses": [97, 104, 13, 97, 98, 13, 97, 102, 13, 97, 97, 13, 97, 100, 13], "trial": 7, "time_elapsed": 1193192, "type": "DISTRACTOR", "trial_index": 241, "num1": [7, 4, 7, 4, 1, 8]}, "uniqueid": "MTK3456:35H6S234SB7YPMTS8TLXMRQN4B256M", "dateTime": 1520548240941}, {"current_trial": 242, "trialdata": {"rt": -1, "trial_type": "single-stim", "stimulus": "<p id=\"stim\">10</p>", "internal_node_id": "0.0-179.0-0.0", "time_elapsed": 1196200, "key_press": -1, "trial_index": 242}, "uniqueid": "MTK3456:35H6S234SB7YPMTS8TLXMRQN4B256M", "dateTime": 1520548243948}, {"current_trial": 243, "trialdata": {"rt": -1, "trial_type": "single-stim", "stimulus": "<p id=\"stim\">9</p>", "internal_node_id": "0.0-179.0-1.0", "time_elapsed": 1197201, "key_press": -1, "trial_index": 243}, "uniqueid": "MTK3456:35H6S234SB7YPMTS8TLXMRQN4B256M", "dateTime": 1520548244950}, {"current_trial": 244, "trialdata": {"rt": -1, "trial_type": "single-stim", "stimulus": "<p id=\"stim\">8</p>", "internal_node_id": "0.0-179.0-2.0", "time_elapsed": 1198204, "key_press": -1, "trial_index": 244}, "uniqueid": "MTK3456:35H6S234SB7YPMTS8TLXMRQN4B256M", "dateTime": 1520548245952}, {"current_trial": 245, "trialdata": {"rt": -1, "trial_type": "single-stim", "stimulus": "<p id=\"stim\">7</p>", "internal_node_id": "0.0-179.0-3.0", "time_elapsed": 1199205, "key_press": -1, "trial_index": 245}, "uniqueid": "MTK3456:35H6S234SB7YPMTS8TLXMRQN4B256M", "dateTime": 1520548246955}, {"current_trial": 246, "trialdata": {"rt": -1, "trial_type": "single-stim", "stimulus": "<p id=\"stim\">6</p>", "internal_node_id": "0.0-179.0-4.0", "time_elapsed": 1200208, "key_press": -1, "trial_index": 246}, "uniqueid": "MTK3456:35H6S234SB7YPMTS8TLXMRQN4B256M", "dateTime": 1520548247957}, {"current_trial": 247, "trialdata": {"rt": -1, "trial_type": "single-stim", "stimulus": "<p id=\"stim\">5</p>", "internal_node_id": "0.0-179.0-5.0", "time_elapsed": 1201214, "key_press": -1, "trial_index": 247}, "uniqueid": "MTK3456:35H6S234SB7YPMTS8TLXMRQN4B256M", "dateTime": 1520548248962}, {"current_trial": 248, "trialdata": {"rt": -1, "trial_type": "single-stim", "stimulus": "<p id=\"stim\">4</p>", "internal_node_id": "0.0-179.0-6.0", "time_elapsed": 1202217, "key_press": -1, "trial_index": 248}, "uniqueid": "MTK3456:35H6S234SB7YPMTS8TLXMRQN4B256M", "dateTime": 1520548249965}, {"current_trial": 249, "trialdata": {"rt": -1, "trial_type": "single-stim", "stimulus": "<p id=\"stim\">3</p>", "internal_node_id": "0.0-179.0-7.0", "time_elapsed": 1203219, "key_press": -1, "trial_index": 249}, "uniqueid": "MTK3456:35H6S234SB7YPMTS8TLXMRQN4B256M", "dateTime": 1520548250967}, {"current_trial": 250, "trialdata": {"rt": -1, "trial_type": "single-stim", "stimulus": "<p id=\"stim\">2</p>", "internal_node_id": "0.0-179.0-8.0", "time_elapsed": 1204225, "key_press": -1, "trial_index": 250}, "uniqueid": "MTK3456:35H6S234SB7YPMTS8TLXMRQN4B256M", "dateTime": 1520548251973}, {"current_trial": 251, "trialdata": {"rt": -1, "trial_type": "single-stim", "stimulus": "<p id=\"stim\">1</p>", "internal_node_id": "0.0-179.0-9.0", "time_elapsed": 1205229, "key_press": -1, "trial_index": 251}, "uniqueid": "MTK3456:35H6S234SB7YPMTS8TLXMRQN4B256M", "dateTime": 1520548252977}, {"current_trial": 252, "trialdata": {"rt": -1, "trial_type": "single-stim", "stimulus": "<p id=\"stim\">+</p>", "internal_node_id": "0.0-180.0-0.0", "time_elapsed": 1206731, "key_press": -1, "type": "FIXATION", "trial_index": 252}, "uniqueid": "MTK3456:35H6S234SB7YPMTS8TLXMRQN4B256M", "dateTime": 1520548254481}, {"current_trial": 253, "trialdata": {"rt": -1, "trial_type": "single-stim", "word": "wagon", "stimulus": "<p id=\"stim\">WAGON</p>", "conditions": [24, 800, "v", 24000], "internal_node_id": "0.0-181.0", "trial": 7, "time_elapsed": 1207534, "serialpos": 0, "key_press": -1, "wordID": 1577, "type": "PRES_VIS", "trial_index": 253}, "uniqueid": "MTK3456:35H6S234SB7YPMTS8TLXMRQN4B256M", "dateTime": 1520548255282}, {"current_trial": 254, "trialdata": {"rt": -1, "trial_type": "single-stim", "word": "necklace", "stimulus": "<p id=\"stim\">NECKLACE</p>", "conditions": [24, 800, "v", 24000], "internal_node_id": "0.0-182.0", "trial": 7, "time_elapsed": 1209470, "serialpos": 1, "key_press": -1, "wordID": 939, "type": "PRES_VIS", "trial_index": 254}, "uniqueid": "MTK3456:35H6S234SB7YPMTS8TLXMRQN4B256