{"assignmentId": "3QIYRE09Y4O78PY16N52LCZSNVT1N1", "workerId": "MTK3661", "questiondata": {"origin": "United States", "strat-rehearsal": "79", "marital": "Married/Domestic Partnership", "education": "Some college", "ethnicity": "Not Hispanic", "color_depth": 24, "distracted": "No", "wrote-notes": "No", "strat-other": "", "screen_width": 1366, "avail_screen_width": 1366, "avail_screen_height": 768, "strat-image": "51", "language": "english", "gender": "Female", "age": "42", "gender_other": "", "race": ["White"], "strat-categorize": "29", "pixel_depth": 24, "strat-spatial": "15", "strat-story": "63", "race_other": "", "screen_height": 768}, "bonus": 0, "hitId": "3PCPFX4U40XHEH773C72PO2781IFQW", "counterbalance": 411, "useragent": "Mozilla/5.0 (Windows NT 10.0; Win64; x64) AppleWebKit/537.36 (KHTML, like Gecko) Chrome/64.0.3282.186 Safari/537.36", "eventdata": [{"eventtype": "initialized", "interval": 0, "value": null, "timestamp": 1520882076905}, {"eventtype": "window_resize", "interval": 0, "value": [1366, 721], "timestamp": 1520882076905}, {"eventtype": "focus", "interval": 1058767, "value": "off", "timestamp": 1520883135672}, {"eventtype": "focus", "interval": 2985, "value": "on", "timestamp": 1520883138657}, {"eventtype": "window_resize", "interval": 599831, "value": [1366, 638], "timestamp": 1520883738488}, {"eventtype": "window_resize", "interval": 994, "value": [1366, 513], "timestamp": 1520883739482}, {"eventtype": "window_resize", "interval": 1177, "value": [1366, 429], "timestamp": 1520883740659}, {"eventtype": "window_resize", "interval": 937, "value": [1366, 443], "timestamp": 1520883741596}, {"eventtype": "window_resize", "interval": 1298, "value": [1366, 541], "timestamp": 1520883742894}, {"eventtype": "window_resize", "interval": 783, "value": [1366, 692], "timestamp": 1520883743677}, {"eventtype": "window_resize", "interval": 524, "value": [1366, 696], "timestamp": 1520883744201}, {"eventtype": "window_resize", "interval": 598499, "value": [1366, 717], "timestamp": 1520884342700}, {"eventtype": "window_resize", "interval": 6528, "value": [1366, 696], "timestamp": 1520884349228}], "data": [{"current_trial": 0, "trialdata": {"rt": 2099, "trial_type": "text", "internal_node_id": "0.0-0.0", "time_elapsed": 2110, "key_press": 75, "type": "INSTRUCTIONS", "trial_index": 0}, "uniqueid": "MTK3661:3QIYRE09Y4O78PY16N52LCZSNVT1N1", "dateTime": 1520882080140}, {"current_trial": 1, "trialdata": {"rt": 44409, "trial_type": "text", "internal_node_id": "0.0-1.0", "time_elapsed": 46531, "key_press": 76, "type": "INSTRUCTIONS", "trial_index": 1}, "uniqueid": "MTK3661:3QIYRE09Y4O78PY16N52LCZSNVT1N1", "dateTime": 1520882124557}, {"current_trial": 2, "trialdata": {"rt": [17195], "trial_type": "audio-test", "responses": ["ocean"], "internal_node_id": "0.0-2.0", "time_elapsed": 63807, "type": "AUDIO_TEST", "trial_index": 2}, "uniqueid": "MTK3661:3QIYRE09Y4O78PY16N52LCZSNVT1N1", "dateTime": 1520882141832}, {"current_trial": 3, "trialdata": {"rt": [14070], "trial_type": "audio-test", "responses": ["crystal"], "internal_node_id": "0.0-3.0", "time_elapsed": 77892, "type": "AUDIO_TEST", "trial_index": 3}, "uniqueid": "MTK3661:3QIYRE09Y4O78PY16N52LCZSNVT1N1", "dateTime": 1520882155918}, {"current_trial": 4, "trialdata": {"rt": [8918], "trial_type": "audio-test", "responses": ["spice"], "internal_node_id": "0.0-4.0", "time_elapsed": 86823, "type": "AUDIO_TEST", "trial_index": 4}, "uniqueid": "MTK3661:3QIYRE09Y4O78PY16N52LCZSNVT1N1", "dateTime": 1520882164849}, {"current_trial": 5, "trialdata": {"rt": 29737, "trial_type": "survey-text", "responses": "{\"Q0\":\"10:00\",\"Q1\":\"6:15\",\"Q2\":\"5\"}", "internal_node_id": "0.0-5.0", "time_elapsed": 117320, "type": "SLEEP_SURVEY", "trial_index": 5}, "uniqueid": "MTK3661:3QIYRE09Y4O78PY16N52LCZSNVT1N1", "dateTime": 1520882195345}, {"current_trial": 6, "trialdata": {"rt": 40094, "trial_type": "text", "internal_node_id": "0.0-6.0", "time_elapsed": 158419, "key_press": 76, "type": "INSTRUCTIONS", "trial_index": 6}, "uniqueid": "MTK3661:3QIYRE09Y4O78PY16N52LCZSNVT1N1", "dateTime": 1520882236444}, {"current_trial": 7, "trialdata": {"rt": 18645, "trial_type": "text", "internal_node_id": "0.0-7.0", "time_elapsed": 177570, "key_press": 186, "type": "INSTRUCTIONS", "trial_index": 7}, "uniqueid": "MTK3661:3QIYRE09Y4O78PY16N52LCZSNVT1N1", "dateTime": 1520882255596}, {"current_trial": 8, "trialdata": {"rt": 9760, "trial_type": "text", "internal_node_id": "0.0-8.0", "time_elapsed": 187835, "key_press": 13, "type": "INSTRUCTIONS", "trial_index": 8}, "uniqueid": "MTK3661:3QIYRE09Y4O78PY16N52LCZSNVT1N1", "dateTime": 1520882265860}, {"current_trial": 9, "trialdata": {"rt": [3797, 6245, 7958, 10496, 12600, 14941, 17027], "trial_type": "math-distractor", "key_times": [3180, 3329, 3797, 5642, 5868, 6245, 7476, 7634, 7958, 9616, 10152, 10496, 12045, 12337, 12600, 14334, 14638, 14941, 16230, 16696, 17027], "responses": ["11", "12", "11", "10", "13", "13", "10"], "num2": [6, 1, 5, 2, 6, 6, 5, 7], "num3": [2, 2, 1, 4, 6, 1, 4, 2], "conditions": [18, 1200, "v", 18000], "internal_node_id": "0.0-9.0", "key_presses": [49, 49, 13, 49, 50, 13, 49, 49, 13, 49, 48, 13, 49, 51, 13, 49, 51, 13, 49, 48, 13], "trial": 0, "time_elapsed": 206920, "type": "DISTRACTOR", "trial_index": 9, "num1": [3, 9, 5, 4, 1, 6, 1, 7]}, "uniqueid": "MTK3661:3QIYRE09Y4O78PY16N52LCZSNVT1N1", "dateTime": 1520882284945}, {"current_trial": 10, "trialdata": {"rt": -1, "trial_type": "single-stim", "stimulus": "<p id=\"stim\">10</p>", "internal_node_id": "0.0-10.0-0.0", "time_elapsed": 209928, "key_press": -1, "trial_index": 10}, "uniqueid": "MTK3661:3QIYRE09Y4O78PY16N52LCZSNVT1N1", "dateTime": 1520882287954}, {"current_trial": 11, "trialdata": {"rt": -1, "trial_type": "single-stim", "stimulus": "<p id=\"stim\">9</p>", "internal_node_id": "0.0-10.0-1.0", "time_elapsed": 210935, "key_press": -1, "trial_index": 11}, "uniqueid": "MTK3661:3QIYRE09Y4O78PY16N52LCZSNVT1N1", "dateTime": 1520882288960}, {"current_trial": 12, "trialdata": {"rt": -1, "trial_type": "single-stim", "stimulus": "<p id=\"stim\">8</p>", "internal_node_id": "0.0-10.0-2.0", "time_elapsed": 211941, "key_press": -1, "trial_index": 12}, "uniqueid": "MTK3661:3QIYRE09Y4O78PY16N52LCZSNVT1N1", "dateTime": 1520882289967}, {"current_trial": 13, "trialdata": {"rt": -1, "trial_type": "single-stim", "stimulus": "<p id=\"stim\">7</p>", "internal_node_id": "0.0-10.0-3.0", "time_elapsed": 212946, "key_press": -1, "trial_index": 13}, "uniqueid": "MTK3661:3QIYRE09Y4O78PY16N52LCZSNVT1N1", "dateTime": 1520882290972}, {"current_trial": 14, "trialdata": {"rt": -1, "trial_type": "single-stim", "stimulus": "<p id=\"stim\">6</p>", "internal_node_id": "0.0-10.0-4.0", "time_elapsed": 213951, "key_press": -1, "trial_index": 14}, "uniqueid": "MTK3661:3QIYRE09Y4O78PY16N52LCZSNVT1N1", "dateTime": 1520882291976}, {"current_trial": 15, "trialdata": {"rt": -1, "trial_type": "single-stim", "stimulus": "<p id=\"stim\">5</p>", "internal_node_id": "0.0-10.0-5.0", "time_elapsed": 214954, "key_press": -1, "trial_index": 15}, "uniqueid": "MTK3661:3QIYRE09Y4O78PY16N52LCZSNVT1N1", "dateTime": 1520882292979}, {"current_trial": 16, "trialdata": {"rt": -1, "trial_type": "single-stim", "stimulus": "<p id=\"stim\">4</p>", "internal_node_id": "0.0-10.0-6.0", "time_elapsed": 215957, "key_press": -1, "trial_index": 16}, "uniqueid": "MTK3661:3QIYRE09Y4O78PY16N52LCZSNVT1N1", "dateTime": 1520882293983}, {"current_trial": 17, "trialdata": {"rt": -1, "trial_type": "single-stim", "stimulus": "<p id=\"stim\">3</p>", "internal_node_id": "0.0-10.0-7.0", "time_elapsed": 216965, "key_press": -1, "trial_index": 17}, "uniqueid": "MTK3661:3QIYRE09Y4O78PY16N52LCZSNVT1N1", "dateTime": 1520882294990}, {"current_trial": 18, "trialdata": {"rt": -1, "trial_type": "single-stim", "stimulus": "<p id=\"stim\">2</p>", "internal_node_id": "0.0-10.0-8.0", "time_elapsed": 217968, "key_press": -1, "trial_index": 18}, "uniqueid": "MTK3661:3QIYRE09Y4O78PY16N52LCZSNVT1N1", "dateTime": 1520882295994}, {"current_trial": 19, "trialdata": {"rt": -1, "trial_type": "single-stim", "stimulus": "<p id=\"stim\">1</p>", "internal_node_id": "0.0-10.0-9.0", "time_elapsed": 218972, "key_press": -1, "trial_index": 19}, "uniqueid": "MTK3661:3QIYRE09Y4O78PY16N52LCZSNVT1N1", "dateTime": 1520882296998}, {"current_trial": 20, "trialdata": {"rt": -1, "trial_type": "single-stim", "stimulus": "<p id=\"stim\">+</p>", "internal_node_id": "0.0-11.0-0.0", "time_elapsed": 220476, "key_press": -1, "type": "FIXATION", "trial_index": 20}, "uniqueid": "MTK3661:3QIYRE09Y4O78PY16N52LCZSNVT1N1", "dateTime": 1520882298502}, {"current_trial": 21, "trialdata": {"rt": -1, "trial_type": "single-stim", "word": "pigeon", "stimulus": "<p id=\"stim\">PIGEON</p>", "conditions": [18, 1200, "v", 18000], "internal_node_id": "0.0-12.0", "trial": 0, "time_elapsed": 221682, "serialpos": 0, "key_press": -1, "wordID": 1064, "type": "PRES_VIS", "trial_index": 21}, "uniqueid": "MTK3661:3QIYRE09Y4O78PY16N52LCZSNVT1N1", "dateTime": 1520882299707}, {"current_trial": 22, "trialdata": {"rt": -1, "trial_type": "single-stim", "word": "baby", "stimulus": "<p id=\"stim\">BABY</p>", "conditions": [18, 1200, "v", 18000], "internal_node_id": "0.0-13.0", "trial": 0, "time_elapsed": 223972, "serialpos": 1, "key_press": -1, "wordID": 63, "type": "PRES_VIS", "trial_index": 22}, "uniqueid": "MTK3661:3QIYRE09Y4O78PY16N52LCZSNVT1N1", "dateTime": 1520882301997}, {"current_trial": 23, "trialdata": {"rt": -1, "trial_type": "single-stim", "word": "mammal", "stimulus": "<p id=\"stim\">MAMMAL</p>", "conditions": [18, 1200, "v", 18000], "internal_node_id": "0.0-14.0", "trial": 0, "time_elapsed": 226360, "serialpos": 2, "key_press": -1, "wordID": 860, "type": "PRES_VIS", "trial_index": 23}, "uniqueid": "MTK3661:3QIYRE09Y4O78PY16N52LCZSNVT1N1", "dateTime": 1520882304386}, {"current_trial": 24, "trialdata": {"rt": -1, "trial_type": "single-stim", "word": "woman", "stimulus": "<p id=\"stim\">WOMAN</p>", "conditions": [18, 1200, "v", 18000], "internal_node_id": "0.0-15.0", "trial": 0, "time_elapsed": 228701, "serialpos": 3, "key_press": -1, "wordID": 1619, "type": "PRES_VIS", "trial_index": 24}, "uniqueid": "MTK3661:3QIYRE09Y4O78PY16N52LCZSNVT1N1", "dateTime": 1520882306727}, {"current_trial": 25, "trialdata": {"rt": -1, "trial_type": "single-stim", "word": "lamp", "stimulus": "<p id=\"stim\">LAMP</p>", "conditions": [18, 1200, "v", 18000], "internal_node_id": "0.0-16.0", "trial": 0, "time_elapsed": 230995, "serialpos": 4, "key_press": -1, "wordID": 797, "type": "PRES_VIS", "trial_index": 25}, "uniqueid": "MTK3661:3QIYRE09Y4O78PY16N52LCZSNVT1N1", "dateTime": 1520882309021}, {"current_trial": 26, "trialdata": {"rt": -1, "trial_type": "single-stim", "word": "puppy", "stimulus": "<p id=\"stim\">PUPPY</p>", "conditions": [18, 1200, "v", 18000], "internal_node_id": "0.0-17.0", "trial": 0, "time_elapsed": 233155, "serialpos": 5, "key_press": -1, "wordID": 1143, "type": "PRES_VIS", "trial_index": 26}, "uniqueid": "MTK3661:3QIYRE09Y4O78PY16N52LCZSNVT1N1", "dateTime": 1520882311181}, {"current_trial": 27, "trialdata": {"rt": -1, "trial_type": "single-stim", "word": "barrel", "stimulus": "<p id=\"stim\">BARREL</p>", "conditions": [18, 1200, "v", 18000], "internal_node_id": "0.0-18.0", "trial": 0, "time_elapsed": 235481, "serialpos": 6, "key_press": -1, "wordID": 90, "type": "PRES_VIS", "trial_index": 27}, "uniqueid": "MTK3661:3QIYRE09Y4O78PY16N52LCZSNVT1N1", "dateTime": 1520882313506}, {"current_trial": 28, "trialdata": {"rt": -1, "trial_type": "single-stim", "word": "message", "stimulus": "<p id=\"stim\">MESSAGE</p>", "conditions": [18, 1200, "v", 18000], "internal_node_id": "0.0-19.0", "trial": 0, "time_elapsed": 237661, "serialpos": 7, "key_press": -1, "wordID": 887, "type": "PRES_VIS", "trial_index": 28}, "uniqueid": "MTK3661:3QIYRE09Y4O78PY16N52LCZSNVT1N1", "dateTime": 1520882315686}, {"current_trial": 29, "trialdata": {"rt": -1, "trial_type": "single-stim", "word": "postage", "stimulus": "<p id=\"stim\">POSTAGE</p>", "conditions": [18, 1200, "v", 18000], "internal_node_id": "0.0-20.0", "trial": 0, "time_elapsed": 239936, "serialpos": 8, "key_press": -1, "wordID": 1112, "type": "PRES_VIS", "trial_index": 29}, "uniqueid": "MTK3661:3QIYRE09Y4O78PY16N52LCZSNVT1N1", "dateTime": 1520882317961}, {"current_trial": 30, "trialdata": {"rt": -1, "trial_type": "single-stim", "word": "paddle", "stimulus": "<p id=\"stim\">PADDLE</p>", "conditions": [18, 1200, "v", 18000], "internal_node_id": "0.0-21.0", "trial": 0, "time_elapsed": 242277, "serialpos": 9, "key_press": -1, "wordID": 999, "type": "PRES_VIS", "trial_index": 30}, "uniqueid": "MTK3661:3QIYRE09Y4O78PY16N52LCZSNVT1N1", "dateTime": 1520882320302}, {"current_trial": 31, "trialdata": {"rt": -1, "trial_type": "single-stim", "word": "critic", "stimulus": "<p id=\"stim\">CRITIC</p>", "conditions": [18, 1200, "v", 18000], "internal_node_id": "0.0-22.0", "trial": 0, "time_elapsed": 244520, "serialpos": 10, "key_press": -1, "wordID": 409, "type": "PRES_VIS", "trial_index": 31}, "uniqueid": "MTK3661:3QIYRE09Y4O78PY16N52LCZSNVT1N1", "dateTime": 1520882322545}, {"current_trial": 32, "trialdata": {"rt": -1, "trial_type": "single-stim", "word": "virus", "stimulus": "<p id=\"stim\">VIRUS</p>", "conditions": [18, 1200, "v", 18000], "internal_node_id": "0.0-23.0", "trial": 0, "time_elapsed": 246685, "serialpos": 11, "key_press": -1, "wordID": 1571, "type": "PRES_VIS", "trial_index": 32}, "uniqueid": "MTK3661:3QIYRE09Y4O78PY16N52LCZSNVT1N1", "dateTime": 1520882324711}, {"current_trial": 33, "trialdata": {"rt": -1, "trial_type": "single-stim", "word": "peach", "stimulus": "<p id=\"stim\">PEACH</p>", "conditions": [18, 1200, "v", 18000], "internal_node_id": "0.0-24.0", "trial": 0, "time_elapsed": 248700, "serialpos": 12, "key_press": -1, "wordID": 1030, "type": "PRES_VIS", "trial_index": 33}, "uniqueid": "MTK3661:3QIYRE09Y4O78PY16N52LCZSNVT1N1", "dateTime": 1520882326726}, {"current_trial": 34, "trialdata": {"rt": -1, "trial_type": "single-stim", "word": "freezer", "stimulus": "<p id=\"stim\">FREEZER</p>", "conditions": [18, 1200, "v", 18000], "internal_node_id": "0.0-25.0", "trial": 0, "time_elapsed": 250804, "serialpos": 13, "key_press": -1, "wordID": 603, "type": "PRES_VIS", "trial_index": 34}, "uniqueid": "MTK3661:3QIYRE09Y4O78PY16N52LCZSNVT1N1", "dateTime": 1520882328829}, {"current_trial": 35, "trialdata": {"rt": -1, "trial_type": "single-stim", "word": "cellar", "stimulus": "<p id=\"stim\">CELLAR</p>", "conditions": [18, 1200, "v", 18000], "internal_node_id": "0.0-26.0", "trial": 0, "time_elapsed": 252847, "serialpos": 14, "key_press": -1, "wordID": 266, "type": "PRES_VIS", "trial_index": 35}, "uniqueid": "MTK3661:3QIYRE09Y4O78PY16N52LCZSNVT1N1", "dateTime": 1520882330872}, {"current_trial": 36, "trialdata": {"rt": -1, "trial_type": "single-stim", "word": "cross", "stimulus": "<p id=\"stim\">CROSS</p>", "conditions": [18, 1200, "v", 18000], "internal_node_id": "0.0-27.0", "trial": 0, "time_elapsed": 254861, "serialpos": 15, "key_press": -1, "wordID": 412, "type": "PRES_VIS", "trial_index": 36}, "uniqueid": "MTK3661:3QIYRE09Y4O78PY16N52LCZSNVT1N1", "dateTime": 1520882332886}, {"current_trial": 37, "trialdata": {"rt": -1, "trial_type": "single-stim", "word": "tart", "stimulus": "<p id=\"stim\">TART</p>", "conditions": [18, 1200, "v", 18000], "internal_node_id": "0.0-28.0", "trial": 0, "time_elapsed": 257189, "serialpos": 16, "key_press": -1, "wordID": 1435, "type": "PRES_VIS", "trial_index": 37}, "uniqueid": "MTK3661:3QIYRE09Y4O78PY16N52LCZSNVT1N1", "dateTime": 1520882335215}, {"current_trial": 38, "trialdata": {"rt": -1, "trial_type": "single-stim", "word": "chapel", "stimulus": "<p id=\"stim\">CHAPEL</p>", "conditions": [18, 1200, "v", 18000], "internal_node_id": "0.0-29.0", "trial": 0, "time_elapsed": 259445, "serialpos": 17, "key_press": -1, "wordID": 279, "type": "PRES_VIS", "trial_index": 38}, "uniqueid": "MTK3661:3QIYRE09Y4O78PY16N52LCZSNVT1N1", "dateTime": 1520882337470}, {"current_trial": 39, "trialdata": {"rt": -1, "trial_type": "single-stim", "stimulus": "", "internal_node_id": "0.0-30.0-0.0", "time_elapsed": 261660, "key_press": -1, "type": "PRE_RECALL_DELAY", "trial_index": 39}, "uniqueid": "MTK3661:3QIYRE09Y4O78PY16N52LCZSNVT1N1", "dateTime": 1520882339686}, {"current_trial": 40, "trialdata": {"rt": -1000, "trial_type": "single-audio", "stimulus": "/static/audio/400Hz.wav", "internal_node_id": "0.0-31.0", "time_elapsed": 262166, "key_press": -1, "type": "PRE_RECALL_ALERT", "trial_index": 40}, "uniqueid": "MTK3661:3QIYRE09Y4O78PY16N52LCZSNVT1N1", "dateTime": 1520882340192}, {"current_trial": 41, "trialdata": {"rt": [4019, 6195, 8496, 11052, 13684, 17668, 20226, 49587], "recwords": ["pigeon", "baby", "mammal", "woman", "cross", "cellar", "tart", "free"], "key_times": [823, 1165, 1520, 2034, 2793, 3105, 4019, 4882, 5101, 5301, 5782, 6195, 6828, 6983, 7238, 7432, 7722, 7923, 8496, 9089, 9255, 9455, 9830, 10150, 11052, 12185, 12493, 12701, 13012, 13195, 13684, 16118, 16345, 16661, 16831, 16907, 17147, 17668, 19137, 19325, 19513, 19738, 20226, 48103, 48425, 48880, 49060, 49587], "trial_type": "free-recall", "conditions": [18, 1200, "v", 18000], "internal_node_id": "0.0-32.0-0.0", "key_presses": [80, 73, 71, 69, 79, 78, 13, 66, 65, 66, 89, 13, 77, 65, 77, 77, 65, 76, 13, 87, 79, 77, 65, 78, 13, 67, 82, 79, 83, 83, 13, 67, 69, 76, 76, 65, 82, 13, 84, 65, 82, 84, 13, 70, 82, 69, 69, 13], "trial": 0, "time_elapsed": 322179, "type": "FREE_RECALL", "trial_index": 41}, "uniqueid": "MTK3661:3QIYRE09Y4O78PY16N52LCZSNVT1N1", "dateTime": 1520882400221}, {"current_trial": 42, "trialdata": {"rt": 1312, "trial_type": "text", "internal_node_id": "0.0-33.0", "time_elapsed": 325510, "key_press": 32, "type": "INSTRUCTIONS", "trial_index": 42}, "uniqueid": "MTK3661:3QIYRE09Y4O78PY16N52LCZSNVT1N1", "dateTime": 1520882403536}, {"current_trial": 43, "trialdata": {"rt": [10894], "trial_type": "math-distractor", "key_times": [8154, 8532, 10894, 17336], "responses": ["25"], "num2": [9, 9], "num3": [7, 9], "conditions": [18, 1200, "v", 18000], "internal_node_id": "0.0-34.0", "key_presses": [50, 53, 13, 50], "trial": 1, "time_elapsed": 345521, "type": "DISTRACTOR", "trial_index": 43, "num1": [6, 8]}, "uniqueid": "MTK3661:3QIYRE09Y4O78PY16N52LCZSNVT1N1", "dateTime": 1520882423546}, {"current_trial": 44, "trialdata": {"rt": -1, "trial_type": "single-stim", "stimulus": "<p id=\"stim\">10</p>", "internal_node_id": "0.0-35.0-0.0", "time_elapsed": 348524, "key_press": -1, "trial_index": 44}, "uniqueid": "MTK3661:3QIYRE09Y4O78PY16N52LCZSNVT1N1", "dateTime": 1520882426549}, {"current_trial": 45, "trialdata": {"rt": -1, "trial_type": "single-stim", "stimulus": "<p id=\"stim\">9</p>", "internal_node_id": "0.0-35.0-1.0", "time_elapsed": 349528, "key_press": -1, "trial_index": 45}, "uniqueid": "MTK3661:3QIYRE09Y4O78PY16N52LCZSNVT1N1", "dateTime": 1520882427553}, {"current_trial": 46, "trialdata": {"rt": -1, "trial_type": "single-stim", "stimulus": "<p id=\"stim\">8</p>", "internal_node_id": "0.0-35.0-2.0", "time_elapsed": 350531, "key_press": -1, "trial_index": 46}, "uniqueid": "MTK3661:3QIYRE09Y4O78PY16N52LCZSNVT1N1", "dateTime": 1520882428556}, {"current_trial": 47, "trialdata": {"rt": -1, "trial_type": "single-stim", "stimulus": "<p id=\"stim\">7</p>", "internal_node_id": "0.0-35.0-3.0", "time_elapsed": 351536, "key_press": -1, "trial_index": 47}, "uniqueid": "MTK3661:3QIYRE09Y4O78PY16N52LCZSNVT1N1", "dateTime": 1520882429562}, {"current_trial": 48, "trialdata": {"rt": -1, "trial_type": "single-stim", "stimulus": "<p id=\"stim\">6</p>", "internal_node_id": "0.0-35.0-4.0", "time_elapsed": 352540, "key_press": -1, "trial_index": 48}, "uniqueid": "MTK3661:3QIYRE09Y4O78PY16N52LCZSNVT1N1", "dateTime": 1520882430566}, {"current_trial": 49, "trialdata": {"rt": -1, "trial_type": "single-stim", "stimulus": "<p id=\"stim\">5</p>", "internal_node_id": "0.0-35.0-5.0", "time_elapsed": 353544, "key_press": -1, "trial_index": 49}, "uniqueid": "MTK3661:3QIYRE09Y4O78PY16N52LCZSNVT1N1", "dateTime": 1520882431569}, {"current_trial": 50, "trialdata": {"rt": -1, "trial_type": "single-stim", "stimulus": "<p id=\"stim\">4</p>", "internal_node_id": "0.0-35.0-6.0", "time_elapsed": 354549, "key_press": -1, "trial_index": 50}, "uniqueid": "MTK3661:3QIYRE09Y4O78PY16N52LCZSNVT1N1", "dateTime": 1520882432575}, {"current_trial": 51, "trialdata": {"rt": -1, "trial_type": "single-stim", "stimulus": "<p id=\"stim\">3</p>", "internal_node_id": "0.0-35.0-7.0", "time_elapsed": 355552, "key_press": -1, "trial_index": 51}, "uniqueid": "MTK3661:3QIYRE09Y4O78PY16N52LCZSNVT1N1", "dateTime": 1520882433579}, {"current_trial": 52, "trialdata": {"rt": -1, "trial_type": "single-stim", "stimulus": "<p id=\"stim\">2</p>", "internal_node_id": "0.0-35.0-8.0", "time_elapsed": 356556, "key_press": -1, "trial_index": 52}, "uniqueid": "MTK3661:3QIYRE09Y4O78PY16N52LCZSNVT1N1", "dateTime": 1520882434582}, {"current_trial": 53, "trialdata": {"rt": -1, "trial_type": "single-stim", "stimulus": "<p id=\"stim\">1</p>", "internal_node_id": "0.0-35.0-9.0", "time_elapsed": 357560, "key_press": -1, "trial_index": 53}, "uniqueid": "MTK3661:3QIYRE09Y4O78PY16N52LCZSNVT1N1", "dateTime": 1520882435586}, {"current_trial": 54, "trialdata": {"rt": -1, "trial_type": "single-stim", "stimulus": "<p id=\"stim\">+</p>", "internal_node_id": "0.0-36.0-0.0", "time_elapsed": 359064, "key_press": -1, "type": "FIXATION", "trial_index": 54}, "uniqueid": "MTK3661:3QIYRE09Y4O78PY16N52LCZSNVT1N1", "dateTime": 1520882437090}, {"current_trial": 55, "trialdata": {"rt": -1, "trial_type": "single-stim", "word": "crab", "stimulus": "<p id=\"stim\">CRAB</p>", "conditions": [18, 1200, "v", 18000], "internal_node_id": "0.0-37.0", "trial": 1, "time_elapsed": 360269, "serialpos": 0, "key_press": -1, "wordID": 396, "type": "PRES_VIS", "trial_index": 55}, "uniqueid": "MTK3661:3QIYRE09Y4O78PY16N52LCZSNVT1N1", "dateTime": 1520882438295}, {"current_trial": 56, "trialdata": {"rt": -1, "trial_type": "single-stim", "word": "plaza", "stimulus": "<p id=\"stim\">PLAZA</p>", "conditions": [18, 1200, "v", 18000], "internal_node_id": "0.0-38.0", "trial": 1, "time_elapsed": 362278, "serialpos": 1, "key_press": -1, "wordID": 1087, "type": "PRES_VIS", "trial_index": 56}, "uniqueid": "MTK3661:3QIYRE09Y4O78PY16N52LCZSNVT1N1", "dateTime": 1520882440303}, {"current_trial": 57, "trialdata": {"rt": -1, "trial_type": "single-stim", "word": "journal", "stimulus": "<p id=\"stim\">JOURNAL</p>", "conditions": [18, 1200, "v", 18000], "internal_node_id": "0.0-39.0", "trial": 1, "time_elapsed": 364643, "serialpos": 2, "key_press": -1, "wordID": 759, "type": "PRES_VIS", "trial_index": 57}, "uniqueid": "MTK3661:3QIYRE09Y4O78PY16N52LCZSNVT1N1", "dateTime": 1520882442668}, {"current_trial": 58, "trialdata": {"rt": -1, "trial_type": "single-stim", "word": "guitar", "stimulus": "<p id=\"stim\">GUITAR</p>", "conditions": [18, 1200, "v", 18000], "internal_node_id": "0.0-40.0", "trial": 1, "time_elapsed": 366654, "serialpos": 3, "key_press": -1, "wordID": 669, "type": "PRES_VIS", "trial_index": 58}, "uniqueid": "MTK3661:3QIYRE09Y4O78PY16N52LCZSNVT1N1", "dateTime": 1520882444680}, {"current_trial": 59, "trialdata": {"rt": -1, "trial_type": "single-stim", "word": "muffin", "stimulus": "<p id=\"stim\">MUFFIN</p>", "conditions": [18, 1200, "v", 18000], "internal_node_id": "0.0-41.0", "trial": 1, "time_elapsed": 368737, "serialpos": 4, "key_press": -1, "wordID": 928, "type": "PRES_VIS", "trial_index": 59}, "uniqueid": "MTK3661:3QIYRE09Y4O78PY16N52LCZSNVT1N1", "dateTime": 1520882446762}, {"current_trial": 60, "trialdata": {"rt": -1, "trial_type": "single-stim", "word": "subway", "stimulus": "<p id=\"stim\">SUBWAY</p>", "conditions": [18, 1200, "v", 18000], "internal_node_id": "0.0-42.0", "trial": 1, "time_elapsed": 370830, "serialpos": 5, "key_press": -1, "wordID": 1399, "type": "PRES_VIS", "trial_index": 60}, "uniqueid": "MTK3661:3QIYRE09Y4O78PY16N52LCZSNVT1N1", "dateTime": 1520882448856}, {"current_trial": 61, "trialdata": {"rt": -1, "trial_type": "single-stim", "word": "switch", "stimulus": "<p id=\"stim\">SWITCH</p>", "conditions": [18, 1200, "v", 18000], "internal_node_id": "0.0-43.0", "trial": 1, "time_elapsed": 373198, "serialpos": 6, "key_press": -1, "wordID": 1421, "type": "PRES_VIS", "trial_index": 61}, "uniqueid": "MTK3661:3QIYRE09Y4O78PY16N52LCZSNVT1N1", "dateTime": 1520882451223}, {"current_trial": 62, "trialdata": {"rt": -1, "trial_type": "single-stim", "word": "canyon", "stimulus": "<p id=\"stim\">CANYON</p>", "conditions": [18, 1200, "v", 18000], "internal_node_id": "0.0-44.0", "trial": 1, "time_elapsed": 375570, "serialpos": 7, "key_press": -1, "wordID": 234, "type": "PRES_VIS", "trial_index": 62}, "uniqueid": "MTK3661:3QIYRE09Y4O78PY16N52LCZSNVT1N1", "dateTime": 1520882453596}, {"current_trial": 63, "trialdata": {"rt": -1, "trial_type": "single-stim", "word": "bubble", "stimulus": "<p id=\"stim\">BUBBLE</p>", "conditions": [18, 1200, "v", 18000], "internal_node_id": "0.0-45.0", "trial": 1, "time_elapsed": 377643, "serialpos": 8, "key_press": -1, "wordID": 182, "type": "PRES_VIS", "trial_index": 63}, "uniqueid": "MTK3661:3QIYRE09Y4O78PY16N52LCZSNVT1N1", "dateTime": 1520882455669}, {"current_trial": 64, "trialdata": {"rt": -1, "trial_type": "single-stim", "word": "table", "stimulus": "<p id=\"stim\">TABLE</p>", "conditions": [18, 1200, "v", 18000], "internal_node_id": "0.0-46.0", "trial": 1, "time_elapsed": 379954, "serialpos": 9, "key_press": -1, "wordID": 1425, "type": "PRES_VIS", "trial_index": 64}, "uniqueid": "MTK3661:3QIYRE09Y4O78PY16N52LCZSNVT1N1", "dateTime": 1520882457980}, {"current_trial": 65, "trialdata": {"rt": -1, "trial_type": "single-stim", "word": "cattle", "stimulus": "<p id=\"stim\">CATTLE</p>", "conditions": [18, 1200, "v", 18000], "internal_node_id": "0.0-47.0", "trial": 1, "time_elapsed": 382023, "serialpos": 10, "key_press": -1, "wordID": 260, "type": "PRES_VIS", "trial_index": 65}, "uniqueid": "MTK3661:3QIYRE09Y4O78PY16N52LCZSNVT1N1", "dateTime": 1520882460048}, {"current_trial": 66, "trialdata": {"rt": -1, "trial_type": "single-stim", "word": "scribble", "stimulus": "<p id=\"stim\">SCRIBBLE</p>", "conditions": [18, 1200, "v", 18000], "internal_node_id": "0.0-48.0", "trial": 1, "time_elapsed": 384424, "serialpos": 11, "key_press": -1, "wordID": 1255, "type": "PRES_VIS", "trial_index": 66}, "uniqueid": "MTK3661:3QIYRE09Y4O78PY16N52LCZSNVT1N1", "dateTime": 1520882462450}, {"current_trial": 67, "trialdata": {"rt": -1, "trial_type": "single-stim", "word": "padding", "stimulus": "<p id=\"stim\">PADDING</p>", "conditions": [18, 1200, "v", 18000], "internal_node_id": "0.0-49.0", "trial": 1, "time_elapsed": 386829, "serialpos": 12, "key_press": -1, "wordID": 998, "type": "PRES_VIS", "trial_index": 67}, "uniqueid": "MTK3661:3QIYRE09Y4O78PY16N52LCZSNVT1N1", "dateTime": 1520882464854}, {"current_trial": 68, "trialdata": {"rt": -1, "trial_type": "single-stim", "word": "hero", "stimulus": "<p id=\"stim\">HERO</p>", "conditions": [18, 1200, "v", 18000], "internal_node_id": "0.0-50.0", "trial": 1, "time_elapsed": 388956, "serialpos": 13, "key_press": -1, "wordID": 705, "type": "PRES_VIS", "trial_index": 68}, "uniqueid": "MTK3661:3QIYRE09Y4O78PY16N52LCZSNVT1N1", "dateTime": 1520882466993}, {"current_trial": 69, "trialdata": {"rt": -1, "trial_type": "single-stim", "word": "fiddle", "stimulus": "<p id=\"stim\">FIDDLE</p>", "conditions": [18, 1200, "v", 18000], "internal_node_id": "0.0-51.0", "trial": 1, "time_elapsed": 391338, "serialpos": 14, "key_press": -1, "wordID": 560, "type": "PRES_VIS", "trial_index": 69}, "uniqueid": "MTK3661:3QIYRE09Y4O78PY16N52LCZSNVT1N1", "dateTime": 1520882469364}, {"current_trial": 70, "trialdata": {"rt": -1, "trial_type": "single-stim", "word": "helmet", "stimulus": "<p id=\"stim\">HELMET</p>", "conditions": [18, 1200, "v", 18000], "internal_node_id": "0.0-52.0", "trial": 1, "time_elapsed": 393707, "serialpos": 15, "key_press": -1, "wordID": 701, "type": "PRES_VIS", "trial_index": 70}, "uniqueid": "MTK3661:3QIYRE09Y4O78PY16N52LCZSNVT1N1", "dateTime": 1520882471733}, {"current_trial": 71, "trialdata": {"rt": -1, "trial_type": "single-stim", "word": "cowboy", "stimulus": "<p id=\"stim\">COWBOY</p>", "conditions": [18, 1200, "v", 18000], "internal_node_id": "0.0-53.0", "trial": 1, "time_elapsed": 396062, "serialpos": 16, "key_press": -1, "wordID": 394, "type": "PRES_VIS", "trial_index": 71}, "uniqueid": "MTK3661:3QIYRE09Y4O78PY16N52LCZSNVT1N1", "dateTime": 1520882474087}, {"current_trial": 72, "trialdata": {"rt": -1, "trial_type": "single-stim", "word": "dragon", "stimulus": "<p id=\"stim\">DRAGON</p>", "conditions": [18, 1200, "v", 18000], "internal_node_id": "0.0-54.0", "trial": 1, "time_elapsed": 398320, "serialpos": 17, "key_press": -1, "wordID": 491, "type": "PRES_VIS", "trial_index": 72}, "uniqueid": "MTK3661:3QIYRE09Y4O78PY16N52LCZSNVT1N1", "dateTime": 1520882476345}, {"current_trial": 73, "trialdata": {"rt": -1, "trial_type": "single-stim", "stimulus": "", "internal_node_id": "0.0-55.0-0.0", "time_elapsed": 400563, "key_press": -1, "type": "PRE_RECALL_DELAY", "trial_index": 73}, "uniqueid": "MTK3661:3QIYRE09Y4O78PY16N52LCZSNVT1N1", "dateTime": 1520882478588}, {"current_trial": 74, "trialdata": {"rt": -1000, "trial_type": "single-audio", "stimulus": "/static/audio/400Hz.wav", "internal_node_id": "0.0-56.0", "time_elapsed": 401067, "key_press": -1, "type": "PRE_RECALL_ALERT", "trial_index": 74}, "uniqueid": "MTK3661:3QIYRE09Y4O78PY16N52LCZSNVT1N1", "dateTime": 1520882479093}, {"current_trial": 75, "trialdata": {"rt": [2462, 4253, 6516, 9282, 31103, 42021], "recwords": ["dragon", "fiddle", "canyon", "helmet", "table", "hunt"], "key_times": [451, 699, 928, 1178, 1458, 1727, 2462, 2891, 3103, 3272, 3445, 3615, 3825, 4253, 4750, 4953, 5146, 5587, 5781, 6070, 6516, 7754, 7933, 8060, 8466, 8639, 8925, 9282, 29788, 29972, 30316, 30508, 30677, 31103, 40743, 41121, 41444, 41759, 42021], "trial_type": "free-recall", "conditions": [18, 1200, "v", 18000], "internal_node_id": "0.0-57.0-0.0", "key_presses": [68, 82, 65, 71, 79, 78, 13, 70, 73, 68, 68, 76, 69, 13, 67, 65, 78, 89, 79, 78, 13, 72, 69, 76, 77, 69, 84, 13, 84, 65, 66, 76, 69, 13, 72, 85, 78, 84, 13], "trial": 1, "time_elapsed": 461087, "type": "FREE_RECALL", "trial_index": 75}, "uniqueid": "MTK3661:3QIYRE09Y4O78PY16N52LCZSNVT1N1", "dateTime": 1520882539121}, {"current_trial": 76, "trialdata": {"rt": 2124, "trial_type": "text", "internal_node_id": "0.0-58.0", "time_elapsed": 465224, "key_press": 32, "type": "INSTRUCTIONS", "trial_index": 76}, "uniqueid": "MTK3661:3QIYRE09Y4O78PY16N52LCZSNVT1N1", "dateTime": 1520882543249}, {"current_trial": 77, "trialdata": {"rt": [3525, 6284, 10124], "trial_type": "math-distractor", "key_times": [2412, 2782, 3525, 5472, 5815, 6284, 9037, 9360, 10124, 11823], "responses": ["15", "14", "19"], "num2": [9, 3, 4, 5], "num3": [3, 4, 6, 8], "conditions": [12, 1600, "v", 12000], "internal_node_id": "0.0-59.0", "key_presses": [49, 53, 13, 49, 52, 13, 49, 57, 13, 49], "trial": 2, "time_elapsed": 478235, "type": "DISTRACTOR", "trial_index": 77, "num1": [3, 7, 9, 5]}, "uniqueid": "MTK3661:3QIYRE09Y4O78PY16N52LCZSNVT1N1", "dateTime": 1520882556260}, {"current_trial": 78, "trialdata": {"rt": -1, "trial_type": "single-stim", "stimulus": "<p id=\"stim\">10</p>", "internal_node_id": "0.0-60.0-0.0", "time_elapsed": 481242, "key_press": -1, "trial_index": 78}, "uniqueid": "MTK3661:3QIYRE09Y4O78PY16N52LCZSNVT1N1", "dateTime": 1520882559267}, {"current_trial": 79, "trialdata": {"rt": -1, "trial_type": "single-stim", "stimulus": "<p id=\"stim\">9</p>", "internal_node_id": "0.0-60.0-1.0", "time_elapsed": 482247, "key_press": -1, "trial_index": 79}, "uniqueid": "MTK3661:3QIYRE09Y4O78PY16N52LCZSNVT1N1", "dateTime": 1520882560273}, {"current_trial": 80, "trialdata": {"rt": -1, "trial_type": "single-stim", "stimulus": "<p id=\"stim\">8</p>", "internal_node_id": "0.0-60.0-2.0", "time_elapsed": 483251, "key_press": -1, "trial_index": 80}, "uniqueid": "MTK3661:3QIYRE09Y4O78PY16N52LCZSNVT1N1", "dateTime": 1520882561276}, {"current_trial": 81, "trialdata": {"rt": -1, "trial_type": "single-stim", "stimulus": "<p id=\"stim\">7</p>", "internal_node_id": "0.0-60.0-3.0", "time_elapsed": 484255, "key_press": -1, "trial_index": 81}, "uniqueid": "MTK3661:3QIYRE09Y4O78PY16N52LCZSNVT1N1", "dateTime": 1520882562281}, {"current_trial": 82, "trialdata": {"rt": -1, "trial_type": "single-stim", "stimulus": "<p id=\"stim\">6</p>", "internal_node_id": "0.0-60.0-4.0", "time_elapsed": 485260, "key_press": -1, "trial_index": 82}, "uniqueid": "MTK3661:3QIYRE09Y4O78PY16N52LCZSNVT1N1", "dateTime": 1520882563285}, {"current_trial": 83, "trialdata": {"rt": -1, "trial_type": "single-stim", "stimulus": "<p id=\"stim\">5</p>", "internal_node_id": "0.0-60.0-5.0", "time_elapsed": 486264, "key_press": -1, "trial_index": 83}, "uniqueid": "MTK3661:3QIYRE09Y4O78PY16N52LCZSNVT1N1", "dateTime": 1520882564290}, {"current_trial": 84, "trialdata": {"rt": -1, "trial_type": "single-stim", "stimulus": "<p id=\"stim\">4</p>", "internal_node_id": "0.0-60.0-6.0", "time_elapsed": 487269, "key_press": -1, "trial_index": 84}, "uniqueid": "MTK3661:3QIYRE09Y4O78PY16N52LCZSNVT1N1", "dateTime": 1520882565295}, {"current_trial": 85, "trialdata": {"rt": -1, "trial_type": "single-stim", "stimulus": "<p id=\"stim\">3</p>", "internal_node_id": "0.0-60.0-7.0", "time_elapsed": 488274, "key_press": -1, "trial_index": 85}, "uniqueid": "MTK3661:3QIYRE09Y4O78PY16N52LCZSNVT1N1", "dateTime": 1520882566299}, {"current_trial": 86, "trialdata": {"rt": -1, "trial_type": "single-stim", "stimulus": "<p id=\"stim\">2</p>", "internal_node_id": "0.0-60.0-8.0", "time_elapsed": 489279, "key_press": -1, "trial_index": 86}, "uniqueid": "MTK3661:3QIYRE09Y4O78PY16N52LCZSNVT1N1", "dateTime": 1520882567308}, {"current_trial": 87, "trialdata": {"rt": -1, "trial_type": "single-stim", "stimulus": "<p id=\"stim\">1</p>", "internal_node_id": "0.0-60.0-9.0", "time_elapsed": 490288, "key_press": -1, "trial_index": 87}, "uniqueid": "MTK3661:3QIYRE09Y4O78PY16N52LCZSNVT1N1", "dateTime": 1520882568313}, {"current_trial": 88, "trialdata": {"rt": -1, "trial_type": "single-stim", "stimulus": "<p id=\"stim\">+</p>", "internal_node_id": "0.0-61.0-0.0", "time_elapsed": 491792, "key_press": -1, "type": "FIXATION", "trial_index": 88}, "uniqueid": "MTK3661:3QIYRE09Y4O78PY16N52LCZSNVT1N1", "dateTime": 1520882569817}, {"current_trial": 89, "trialdata": {"rt": -1, "trial_type": "single-stim", "word": "student", "stimulus": "<p id=\"stim\">STUDENT</p>", "conditions": [12, 1600, "v", 12000], "internal_node_id": "0.0-62.0", "trial": 2, "time_elapsed": 493396, "serialpos": 0, "key_press": -1, "wordID": 1394, "type": "PRES_VIS", "trial_index": 89}, "uniqueid": "MTK3661:3QIYRE09Y4O78PY16N52LCZSNVT1N1", "dateTime": 1520882571421}, {"current_trial": 90, "trialdata": {"rt": -1, "trial_type": "single-stim", "word": "radish", "stimulus": "<p id=\"stim\">RADISH</p>", "conditions": [12, 1600, "v", 12000], "internal_node_id": "0.0-63.0", "trial": 2, "time_elapsed": 496141, "serialpos": 1, "key_press": -1, "wordID": 1157, "type": "PRES_VIS", "trial_index": 90}, "uniqueid": "MTK3661:3QIYRE09Y4O78PY16N52LCZSNVT1N1", "dateTime": 1520882574166}, {"current_trial": 91, "trialdata": {"rt": -1, "trial_type": "single-stim", "word": "turnip", "stimulus": "<p id=\"stim\">TURNIP</p>", "conditions": [12, 1600, "v", 12000], "internal_node_id": "0.0-64.0", "trial": 2, "time_elapsed": 498893, "serialpos": 2, "key_press": -1, "wordID": 1520, "type": "PRES_VIS", "trial_index": 91}, "uniqueid": "MTK3661:3QIYRE09Y4O78PY16N52LCZSNVT1N1", "dateTime": 1520882576919}, {"current_trial": 92, "trialdata": {"rt": -1, "trial_type": "single-stim", "word": "sunset", "stimulus": "<p id=\"stim\">SUNSET</p>", "conditions": [12, 1600, "v", 12000], "internal_node_id": "0.0-65.0", "trial": 2, "time_elapsed": 501323, "serialpos": 3, "key_press": -1, "wordID": 1407, "type": "PRES_VIS", "trial_index": 92}, "uniqueid": "MTK3661:3QIYRE09Y4O78PY16N52LCZSNVT1N1", "dateTime": 1520882579349}, {"current_trial": 93, "trialdata": {"rt": -1, "trial_type": "single-stim", "word": "thief", "stimulus": "<p id=\"stim\">THIEF</p>", "conditions": [12, 1600, "v", 12000], "internal_node_id": "0.0-66.0", "trial": 2, "time_elapsed": 503745, "serialpos": 4, "key_press": -1, "wordID": 1455, "type": "PRES_VIS", "trial_index": 93}, "uniqueid": "MTK3661:3QIYRE09Y4O78PY16N52LCZSNVT1N1", "dateTime": 1520882581770}, {"current_trial": 94, "trialdata": {"rt": -1, "trial_type": "single-stim", "word": "award", "stimulus": "<p id=\"stim\">AWARD</p>", "conditions": [12, 1600, "v", 12000], "internal_node_id": "0.0-67.0", "trial": 2, "time_elapsed": 506285, "serialpos": 5, "key_press": -1, "wordID": 62, "type": "PRES_VIS", "trial_index": 94}, "uniqueid": "MTK3661:3QIYRE09Y4O78PY16N52LCZSNVT1N1", "dateTime": 1520882584311}, {"current_trial": 95, "trialdata": {"rt": -1, "trial_type": "single-stim", "word": "bouquet", "stimulus": "<p id=\"stim\">BOUQUET</p>", "conditions": [12, 1600, "v", 12000], "internal_node_id": "0.0-68.0", "trial": 2, "time_elapsed": 508766, "serialpos": 6, "key_press": -1, "wordID": 156, "type": "PRES_VIS", "trial_index": 95}, "uniqueid": "MTK3661:3QIYRE09Y4O78PY16N52LCZSNVT1N1", "dateTime": 1520882586792}, {"current_trial": 96, "trialdata": {"rt": -1, "trial_type": "single-stim", "word": "cloud", "stimulus": "<p id=\"stim\">CLOUD</p>", "conditions": [12, 1600, "v", 12000], "internal_node_id": "0.0-69.0", "trial": 2, "time_elapsed": 511369, "serialpos": 7, "key_press": -1, "wordID": 327, "type": "PRES_VIS", "trial_index": 96}, "uniqueid": "MTK3661:3QIYRE09Y4O78PY16N52LCZSNVT1N1", "dateTime": 1520882589395}, {"current_trial": 97, "trialdata": {"rt": -1, "trial_type": "single-stim", "word": "burglar", "stimulus": "<p id=\"stim\">BURGLAR</p>", "conditions": [12, 1600, "v", 12000], "internal_node_id": "0.0-70.0", "trial": 2, "time_elapsed": 514168, "serialpos": 8, "key_press": -1, "wordID": 199, "type": "PRES_VIS", "trial_index": 97}, "uniqueid": "MTK3661:3QIYRE09Y4O78PY16N52LCZSNVT1N1", "dateTime": 1520882592193}, {"current_trial": 98, "trialdata": {"rt": -1, "trial_type": "single-stim", "word": "contract", "stimulus": "<p id=\"stim\">CONTRACT</p>", "conditions": [12, 1600, "v", 12000], "internal_node_id": "0.0-71.0", "trial": 2, "time_elapsed": 516859, "serialpos": 9, "key_press": -1, "wordID": 367, "type": "PRES_VIS", "trial_index": 98}, "uniqueid": "MTK3661:3QIYRE09Y4O78PY16N52LCZSNVT1N1", "dateTime": 1520882594885}, {"current_trial": 99, "trialdata": {"rt": -1, "trial_type": "single-stim", "word": "bug", "stimulus": "<p id=\"stim\">BUG</p>", "conditions": [12, 1600, "v", 12000], "internal_node_id": "0.0-72.0", "trial": 2, "time_elapsed": 519656, "serialpos": 10, "key_press": -1, "wordID": 186, "type": "PRES_VIS", "trial_index": 99}, "uniqueid": "MTK3661:3QIYRE09Y4O78PY16N52LCZSNVT1N1", "dateTime": 1520882597681}, {"current_trial": 100, "trialdata": {"rt": -1, "trial_type": "single-stim", "word": "compass", "stimulus": "<p id=\"stim\">COMPASS</p>", "conditions": [12, 1600, "v", 12000], "internal_node_id": "0.0-73.0", "trial": 2, "time_elapsed": 522244, "serialpos": 11, "key_press": -1, "wordID": 357, "type": "PRES_VIS", "trial_index": 100}, "uniqueid": "MTK3661:3QIYRE09Y4O78PY16N52LCZSNVT1N1", "dateTime": 1520882600269}, {"current_trial": 101, "trialdata": {"rt": -1, "trial_type": "single-stim", "stimulus": "", "internal_node_id": "0.0-74.0-0.0", "time_elapsed": 524557, "key_press": -1, "type": "PRE_RECALL_DELAY", "trial_index": 101}, "uniqueid": "MTK3661:3QIYRE09Y4O78PY16N52LCZSNVT1N1", "dateTime": 1520882602583}, {"current_trial": 102, "trialdata": {"rt": -1000, "trial_type": "single-audio", "stimulus": "/static/audio/400Hz.wav", "internal_node_id": "0.0-75.0", "time_elapsed": 525062, "key_press": -1, "type": "PRE_RECALL_ALERT", "trial_index": 102}, "uniqueid": "MTK3661:3QIYRE09Y4O78PY16N52LCZSNVT1N1", "dateTime": 1520882603087}, {"current_trial": 103, "trialdata": {"rt": [2458, 4850, 7059, 10012, 12882, 17531, 27716, 57275], "recwords": ["student", "compass", "thief", "burglar", "award", "sunset", "compass", "student"], "key_times": [341, 571, 788, 1372, 1620, 1821, 1959, 2458, 3107, 3327, 3542, 3727, 3955, 4419, 4590, 4850, 5493, 5702, 5900, 6168, 6474, 7059, 7818, 8024, 8198, 8750, 9028, 9255, 9668, 10012, 10613, 10894, 11100, 11363, 11688, 12882, 15582, 15805, 16048, 16619, 16840, 17044, 17531, 25915, 26118, 26470, 26716, 26910, 27213, 27384, 27716, 55389, 55803, 56046, 56365, 56573, 56816, 56926, 57275], "trial_type": "free-recall", "conditions": [12, 1600, "v", 12000], "internal_node_id": "0.0-76.0-0.0", "key_presses": [83, 84, 85, 68, 69, 78, 84, 13, 67, 79, 77, 80, 65, 83, 83, 13, 84, 72, 73, 69, 70, 13, 66, 85, 82, 71, 76, 65, 82, 13, 65, 87, 65, 82, 68, 13, 83, 85, 78, 83, 69, 84, 13, 67, 79, 77, 80, 65, 83, 83, 13, 83, 84, 85, 68, 69, 78, 84, 13], "trial": 2, "time_elapsed": 585071, "type": "FREE_RECALL", "trial_index": 103}, "uniqueid": "MTK3661:3QIYRE09Y4O78PY16N52LCZSNVT1N1", "dateTime": 1520882663106}, {"current_trial": 104, "trialdata": {"rt": 1453, "trial_type": "text", "internal_node_id": "0.0-77.0", "time_elapsed": 588537, "key_press": 32, "type": "INSTRUCTIONS", "trial_index": 104}, "uniqueid": "MTK3661:3QIYRE09Y4O78PY16N52LCZSNVT1N1", "dateTime": 1520882666562}, {"current_trial": 105, "trialdata": {"rt": [2881, 5214, 7243, 11592], "trial_type": "math-distractor", "key_times": [2292, 2497, 2881, 4481, 5016, 5214, 6982, 7243, 11184, 11349, 11592], "responses": ["11", "16", "4", "22"], "num2": [6, 1, 2, 8, 8], "num3": [2, 7, 1, 7, 6], "conditions": [12, 800, "v", 12000], "internal_node_id": "0.0-78.0", "key_presses": [49, 49, 13, 49, 54, 13, 52, 13, 50, 50, 13], "trial": 3, "time_elapsed": 602547, "type": "DISTRACTOR", "trial_index": 105, "num1": [3, 8, 1, 6, 1]}, "uniqueid": "MTK3661:3QIYRE09Y4O78PY16N52LCZSNVT1N1", "dateTime": 1520882680573}, {"current_trial": 106, "trialdata": {"rt": -1, "trial_type": "single-stim", "stimulus": "<p id=\"stim\">10</p>", "internal_node_id": "0.0-79.0-0.0", "time_elapsed": 605552, "key_press": -1, "trial_index": 106}, "uniqueid": "MTK3661:3QIYRE09Y4O78PY16N52LCZSNVT1N1", "dateTime": 1520882683577}, {"current_trial": 107, "trialdata": {"rt": -1, "trial_type": "single-stim", "stimulus": "<p id=\"stim\">9</p>", "internal_node_id": "0.0-79.0-1.0", "time_elapsed": 606557, "key_press": -1, "trial_index": 107}, "uniqueid": "MTK3661:3QIYRE09Y4O78PY16N52LCZSNVT1N1", "dateTime": 1520882684583}, {"current_trial": 108, "trialdata": {"rt": -1, "trial_type": "single-stim", "stimulus": "<p id=\"stim\">8</p>", "internal_node_id": "0.0-79.0-2.0", "time_elapsed": 607562, "key_press": -1, "trial_index": 108}, "uniqueid": "MTK3661:3QIYRE09Y4O78PY16N52LCZSNVT1N1", "dateTime": 1520882685587}, {"current_trial": 109, "trialdata": {"rt": -1, "trial_type": "single-stim", "stimulus": "<p id=\"stim\">7</p>", "internal_node_id": "0.0-79.0-3.0", "time_elapsed": 608566, "key_press": -1, "trial_index": 109}, "uniqueid": "MTK3661:3QIYRE09Y4O78PY16N52LCZSNVT1N1", "dateTime": 1520882686591}, {"current_trial": 110, "trialdata": {"rt": -1, "trial_type": "single-stim", "stimulus": "<p id=\"stim\">6</p>", "internal_node_id": "0.0-79.0-4.0", "time_elapsed": 609570, "key_press": -1, "trial_index": 110}, "uniqueid": "MTK3661:3QIYRE09Y4O78PY16N52LCZSNVT1N1", "dateTime": 1520882687595}, {"current_trial": 111, "trialdata": {"rt": -1, "trial_type": "single-stim", "stimulus": "<p id=\"stim\">5</p>", "internal_node_id": "0.0-79.0-5.0", "time_elapsed": 610574, "key_press": -1, "trial_index": 111}, "uniqueid": "MTK3661:3QIYRE09Y4O78PY16N52LCZSNVT1N1", "dateTime": 1520882688599}, {"current_trial": 112, "trialdata": {"rt": -1, "trial_type": "single-stim", "stimulus": "<p id=\"stim\">4</p>", "internal_node_id": "0.0-79.0-6.0", "time_elapsed": 611578, "key_press": -1, "trial_index": 112}, "uniqueid": "MTK3661:3QIYRE09Y4O78PY16N52LCZSNVT1N1", "dateTime": 1520882689603}, {"current_trial": 113, "trialdata": {"rt": -1, "trial_type": "single-stim", "stimulus": "<p id=\"stim\">3</p>", "internal_node_id": "0.0-79.0-7.0", "time_elapsed": 612582, "key_press": -1, "trial_index": 113}, "uniqueid": "MTK3661:3QIYRE09Y4O78PY16N52LCZSNVT1N1", "dateTime": 1520882690607}, {"current_trial": 114, "trialdata": {"rt": -1, "trial_type": "single-stim", "stimulus": "<p id=\"stim\">2</p>", "internal_node_id": "0.0-79.0-8.0", "time_elapsed": 613586, "key_press": -1, "trial_index": 114}, "uniqueid": "MTK3661:3QIYRE09Y4O78PY16N52LCZSNVT1N1", "dateTime": 1520882691611}, {"current_trial": 115, "trialdata": {"rt": -1, "trial_type": "single-stim", "stimulus": "<p id=\"stim\">1</p>", "internal_node_id": "0.0-79.0-9.0", "time_elapsed": 614591, "key_press": -1, "trial_index": 115}, "uniqueid": "MTK3661:3QIYRE09Y4O78PY16N52LCZSNVT1N1", "dateTime": 1520882692617}, {"current_trial": 116, "trialdata": {"rt": -1, "trial_type": "single-stim", "stimulus": "<p id=\"stim\">+</p>", "internal_node_id": "0.0-80.0-0.0", "time_elapsed": 616094, "key_press": -1, "type": "FIXATION", "trial_index": 116}, "uniqueid": "MTK3661:3QIYRE09Y4O78PY16N52LCZSNVT1N1", "dateTime": 1520882694120}, {"current_trial": 117, "trialdata": {"rt": -1, "trial_type": "single-stim", "word": "marrow", "stimulus": "<p id=\"stim\">MARROW</p>", "conditions": [12, 800, "v", 12000], "internal_node_id": "0.0-81.0", "trial": 3, "time_elapsed": 616898, "serialpos": 0, "key_press": -1, "wordID": 871, "type": "PRES_VIS", "trial_index": 117}, "uniqueid": "MTK3661:3QIYRE09Y4O78PY16N52LCZSNVT1N1", "dateTime": 1520882694923}, {"current_trial": 118, "trialdata": {"rt": -1, "trial_type": "single-stim", "word": "shovel", "stimulus": "<p id=\"stim\">SHOVEL</p>", "conditions": [12, 800, "v", 12000], "internal_node_id": "0.0-82.0", "trial": 3, "time_elapsed": 618753, "serialpos": 1, "key_press": -1, "wordID": 1294, "type": "PRES_VIS", "trial_index": 118}, "uniqueid": "MTK3661:3QIYRE09Y4O78PY16N52LCZSNVT1N1", "dateTime": 1520882696778}, {"current_trial": 119, "trialdata": {"rt": -1, "trial_type": "single-stim", "word": "hand", "stimulus": "<p id=\"stim\">HAND</p>", "conditions": [12, 800, "v", 12000], "internal_node_id": "0.0-83.0", "trial": 3, "time_elapsed": 620702, "serialpos": 2, "key_press": -1, "wordID": 682, "type": "PRES_VIS", "trial_index": 119}, "uniqueid": "MTK3661:3QIYRE09Y4O78PY16N52LCZSNVT1N1", "dateTime": 1520882698727}, {"current_trial": 120, "trialdata": {"rt": -1, "trial_type": "single-stim", "word": "japan", "stimulus": "<p id=\"stim\">JAPAN</p>", "conditions": [12, 800, "v", 12000], "internal_node_id": "0.0-84.0", "trial": 3, "time_elapsed": 622392, "serialpos": 3, "key_press": -1, "wordID": 748, "type": "PRES_VIS", "trial_index": 120}, "uniqueid": "MTK3661:3QIYRE09Y4O78PY16N52LCZSNVT1N1", "dateTime": 1520882700418}, {"current_trial": 121, "trialdata": {"rt": -1, "trial_type": "single-stim", "word": "beaker", "stimulus": "<p id=\"stim\">BEAKER</p>", "conditions": [12, 800, "v", 12000], "internal_node_id": "0.0-85.0", "trial": 3, "time_elapsed": 624260, "serialpos": 4, "key_press": -1, "wordID": 103, "type": "PRES_VIS", "trial_index": 121}, "uniqueid": "MTK3661:3QIYRE09Y4O78PY16N52LCZSNVT1N1", "dateTime": 1520882702286}, {"current_trial": 122, "trialdata": {"rt": -1, "trial_type": "single-stim", "word": "missile", "stimulus": "<p id=\"stim\">MISSILE</p>", "conditions": [12, 800, "v", 12000], "internal_node_id": "0.0-86.0", "trial": 3, "time_elapsed": 626073, "serialpos": 5, "key_press": -1, "wordID": 899, "type": "PRES_VIS", "trial_index": 122}, "uniqueid": "MTK3661:3QIYRE09Y4O78PY16N52LCZSNVT1N1", "dateTime": 1520882704099}, {"current_trial": 123, "trialdata": {"rt": -1, "trial_type": "single-stim", "word": "neutron", "stimulus": "<p id=\"stim\">NEUTRON</p>", "conditions": [12, 800, "v", 12000], "internal_node_id": "0.0-87.0", "trial": 3, "time_elapsed": 627810, "serialpos": 6, "key_press": -1, "wordID": 946, "type": "PRES_VIS", "trial_index": 123}, "uniqueid": "MTK3661:3QIYRE09Y4O78PY16N52LCZSNVT1N1", "dateTime": 1520882705835}, {"current_trial": 124, "trialdata": {"rt": -1, "trial_type": "single-stim", "word": "flask", "stimulus": "<p id=\"stim\">FLASK</p>", "conditions": [12, 800, "v", 12000], "internal_node_id": "0.0-88.0", "trial": 3, "time_elapsed": 629675, "serialpos": 7, "key_press": -1, "wordID": 575, "type": "PRES_VIS", "trial_index": 124}, "uniqueid": "MTK3661:3QIYRE09Y4O78PY16N52LCZSNVT1N1", "dateTime": 1520882707700}, {"current_trial": 125, "trialdata": {"rt": -1, "trial_type": "single-stim", "word": "belly", "stimulus": "<p id=\"stim\">BELLY</p>", "conditions": [12, 800, "v", 12000], "internal_node_id": "0.0-89.0", "trial": 3, "time_elapsed": 631310, "serialpos": 8, "key_press": -1, "wordID": 118, "type": "PRES_VIS", "trial_index": 125}, "uniqueid": "MTK3661:3QIYRE09Y4O78PY16N52LCZSNVT1N1", "dateTime": 1520882709336}, {"current_trial": 126, "trialdata": {"rt": -1, "trial_type": "single-stim", "word": "cod", "stimulus": "<p id=\"stim\">COD</p>", "conditions": [12, 800, "v", 12000], "internal_node_id": "0.0-90.0", "trial": 3, "time_elapsed": 633086, "serialpos": 9, "key_press": -1, "wordID": 339, "type": "PRES_VIS", "trial_index": 126}, "uniqueid": "MTK3661:3QIYRE09Y4O78PY16N52LCZSNVT1N1", "dateTime": 1520882711111}, {"current_trial": 127, "trialdata": {"rt": -1, "trial_type": "single-stim", "word": "seafood", "stimulus": "<p id=\"stim\">SEAFOOD</p>", "conditions": [12, 800, "v", 12000], "internal_node_id": "0.0-91.0", "trial": 3, "time_elapsed": 634838, "serialpos": 10, "key_press": -1, "wordID": 1259, "type": "PRES_VIS", "trial_index": 127}, "uniqueid": "MTK3661:3QIYRE09Y4O78PY16N52LCZSNVT1N1", "dateTime": 1520882712864}, {"current_trial": 128, "trialdata": {"rt": -1, "trial_type": "single-stim", "word": "motor", "stimulus": "<p id=\"stim\">MOTOR</p>", "conditions": [12, 800, "v", 12000], "internal_node_id": "0.0-92.0", "trial": 3, "time_elapsed": 636774, "serialpos": 11, "key_press": -1, "wordID": 921, "type": "PRES_VIS", "trial_index": 128}, "uniqueid": "MTK3661:3QIYRE09Y4O78PY16N52LCZSNVT1N1", "dateTime": 1520882714799}, {"current_trial": 129, "trialdata": {"rt": -1, "trial_type": "single-stim", "stimulus": "", "internal_node_id": "0.0-93.0-0.0", "time_elapsed": 638921, "key_press": -1, "type": "PRE_RECALL_DELAY", "trial_index": 129}, "uniqueid": "MTK3661:3QIYRE09Y4O78PY16N52LCZSNVT1N1", "dateTime": 1520882716946}, {"current_trial": 130, "trialdata": {"rt": -1000, "trial_type": "single-audio", "stimulus": "/static/audio/400Hz.wav", "internal_node_id": "0.0-94.0", "time_elapsed": 639424, "key_press": -1, "type": "PRE_RECALL_ALERT", "trial_index": 130}, "uniqueid": "MTK3661:3QIYRE09Y4O78PY16N52LCZSNVT1N1", "dateTime": 1520882717450}, {"current_trial": 131, "trialdata": {"rt": [2057, 5668, 8314, 10726, 12228, 25410, 45885], "recwords": ["shovel", "hand", "japan", "seafood", "cod", "missle", "threat"], "key_times": [364, 532, 723, 1053, 1259, 1689, 2057, 2712, 2863, 3078, 3644, 4376, 4578, 4953, 5116, 5668, 6666, 6839, 7401, 7741, 7999, 8314, 8683, 8941, 9156, 9380, 9557, 10003, 10352, 10726, 11219, 11386, 11634, 12228, 23680, 23915, 24274, 24423, 24934, 25130, 25410, 44366, 44523, 44732, 45016, 45310, 45533, 45885], "trial_type": "free-recall", "conditions": [12, 800, "v", 12000], "internal_node_id": "0.0-95.0-0.0", "key_presses": [83, 72, 79, 86, 69, 76, 13, 72, 65, 68, 78, 8, 8, 78, 68, 13, 74, 65, 80, 65, 78, 13, 83, 69, 65, 70, 79, 79, 68, 13, 67, 79, 68, 13, 77, 73, 83, 83, 76, 69, 13, 84, 72, 82, 69, 65, 84, 13], "trial": 3, "time_elapsed": 699433, "type": "FREE_RECALL", "trial_index": 131}, "uniqueid": "MTK3661:3QIYRE09Y4O78PY16N52LCZSNVT1N1", "dateTime": 1520882777469}, {"current_trial": 132, "trialdata": {"rt": 1159, "trial_type": "text", "internal_node_id": "0.0-96.0", "time_elapsed": 702607, "key_press": 32, "type": "INSTRUCTIONS", "trial_index": 132}, "uniqueid": "MTK3661:3QIYRE09Y4O78PY16N52LCZSNVT1N1", "dateTime": 1520882780633}, {"current_trial": 133, "trialdata": {"rt": [4426, 7439, 9419, 11782, 14052, 16158, 18701, 20683], "trial_type": "math-distractor", "key_times": [3264, 3984, 4426, 6839, 7214, 7439, 8623, 9214, 9419, 11014, 11528, 11782, 13808, 14052, 15876, 16158, 18470, 18701, 20266, 20421, 20683, 23736], "responses": ["18", "14", "17", "17", "8", "9", "9", "11"], "num2": [7, 7, 8, 7, 1, 2, 1, 1, 7], "num3": [8, 1, 1, 6, 3, 5, 6, 7, 5], "conditions": [12, 800, "v", 24000], "internal_node_id": "0.0-97.0", "key_presses": [49, 56, 13, 49, 52, 13, 49, 55, 13, 49, 55, 13, 56, 13, 57, 13, 57, 13, 49, 49, 13, 50], "trial": 4, "time_elapsed": 728618, "type": "DISTRACTOR", "trial_index": 133, "num1": [3, 6, 8, 4, 4, 2, 2, 3, 8]}, "uniqueid": "MTK3661:3QIYRE09Y4O78PY16N52LCZSNVT1N1", "dateTime": 1520882806644}, {"current_trial": 134, "trialdata": {"rt": -1, "trial_type": "single-stim", "stimulus": "<p id=\"stim\">10</p>", "internal_node_id": "0.0-98.0-0.0", "time_elapsed": 731625, "key_press": -1, "trial_index": 134}, "uniqueid": "MTK3661:3QIYRE09Y4O78PY16N52LCZSNVT1N1", "dateTime": 1520882809650}, {"current_trial": 135, "trialdata": {"rt": -1, "trial_type": "single-stim", "stimulus": "<p id=\"stim\">9</p>", "internal_node_id": "0.0-98.0-1.0", "time_elapsed": 732629, "key_press": -1, "trial_index": 135}, "uniqueid": "MTK3661:3QIYRE09Y4O78PY16N52LCZSNVT1N1", "dateTime": 1520882810654}, {"current_trial": 136, "trialdata": {"rt": -1, "trial_type": "single-stim", "stimulus": "<p id=\"stim\">8</p>", "internal_node_id": "0.0-98.0-2.0", "time_elapsed": 733632, "key_press": -1, "trial_index": 136}, "uniqueid": "MTK3661:3QIYRE09Y4O78PY16N52LCZSNVT1N1", "dateTime": 1520882811657}, {"current_trial": 137, "trialdata": {"rt": -1, "trial_type": "single-stim", "stimulus": "<p id=\"stim\">7</p>", "internal_node_id": "0.0-98.0-3.0", "time_elapsed": 734637, "key_press": -1, "trial_index": 137}, "uniqueid": "MTK3661:3QIYRE09Y4O78PY16N52LCZSNVT1N1", "dateTime": 1520882812662}, {"current_trial": 138, "trialdata": {"rt": -1, "trial_type": "single-stim", "stimulus": "<p id=\"stim\">6</p>", "internal_node_id": "0.0-98.0-4.0", "time_elapsed": 735640, "key_press": -1, "trial_index": 138}, "uniqueid": "MTK3661:3QIYRE09Y4O78PY16N52LCZSNVT1N1", "dateTime": 1520882813666}, {"current_trial": 139, "trialdata": {"rt": -1, "trial_type": "single-stim", "stimulus": "<p id=\"stim\">5</p>", "internal_node_id": "0.0-98.0-5.0", "time_elapsed": 736645, "key_press": -1, "trial_index": 139}, "uniqueid": "MTK3661:3QIYRE09Y4O78PY16N52LCZSNVT1N1", "dateTime": 1520882814670}, {"current_trial": 140, "trialdata": {"rt": -1, "trial_type": "single-stim", "stimulus": "<p id=\"stim\">4</p>", "internal_node_id": "0.0-98.0-6.0", "time_elapsed": 737648, "key_press": -1, "trial_index": 140}, "uniqueid": "MTK3661:3QIYRE09Y4O78PY16N52LCZSNVT1N1", "dateTime": 1520882815674}, {"current_trial": 141, "trialdata": {"rt": -1, "trial_type": "single-stim", "stimulus": "<p id=\"stim\">3</p>", "internal_node_id": "0.0-98.0-7.0", "time_elapsed": 738654, "key_press": -1, "trial_index": 141}, "uniqueid": "MTK3661:3QIYRE09Y4O78PY16N52LCZSNVT1N1", "dateTime": 1520882816681}, {"current_trial": 142, "trialdata": {"rt": -1, "trial_type": "single-stim", "stimulus": "<p id=\"stim\">2</p>", "internal_node_id": "0.0-98.0-8.0", "time_elapsed": 739660, "key_press": -1, "trial_index": 142}, "uniqueid": "MTK3661:3QIYRE09Y4O78PY16N52LCZSNVT1N1", "dateTime": 1520882817685}, {"current_trial": 143, "trialdata": {"rt": -1, "trial_type": "single-stim", "stimulus": "<p id=\"stim\">1</p>", "internal_node_id": "0.0-98.0-9.0", "time_elapsed": 740663, "key_press": -1, "trial_index": 143}, "uniqueid": "MTK3661:3QIYRE09Y4O78PY16N52LCZSNVT1N1", "dateTime": 1520882818689}, {"current_trial": 144, "trialdata": {"rt": -1, "trial_type": "single-stim", "stimulus": "<p id=\"stim\">+</p>", "internal_node_id": "0.0-99.0-0.0", "time_elapsed": 742169, "key_press": -1, "type": "FIXATION", "trial_index": 144}, "uniqueid": "MTK3661:3QIYRE09Y4O78PY16N52LCZSNVT1N1", "dateTime": 1520882820194}, {"current_trial": 145, "trialdata": {"rt": -1, "trial_type": "single-stim", "word": "notebook", "stimulus": "<p id=\"stim\">NOTEBOOK</p>", "conditions": [12, 800, "v", 24000], "internal_node_id": "0.0-100.0", "trial": 4, "time_elapsed": 742973, "serialpos": 0, "key_press": -1, "wordID": 958, "type": "PRES_VIS", "trial_index": 145}, "uniqueid": "MTK3661:3QIYRE09Y4O78PY16N52LCZSNVT1N1", "dateTime": 1520882820998}, {"current_trial": 146, "trialdata": {"rt": -1, "trial_type": "single-stim", "word": "dime", "stimulus": "<p id=\"stim\">DIME</p>", "conditions": [12, 800, "v", 24000], "internal_node_id": "0.0-101.0", "trial": 4, "time_elapsed": 744794, "serialpos": 1, "key_press": -1, "wordID": 465, "type": "PRES_VIS", "trial_index": 146}, "uniqueid": "MTK3661:3QIYRE09Y4O78PY16N52LCZSNVT1N1", "dateTime": 1520882822819}, {"current_trial": 147, "trialdata": {"rt": -1, "trial_type": "single-stim", "word": "rattle", "stimulus": "<p id=\"stim\">RATTLE</p>", "conditions": [12, 800, "v", 24000], "internal_node_id": "0.0-102.0", "trial": 4, "time_elapsed": 746769, "serialpos": 2, "key_press": -1, "wordID": 1169, "type": "PRES_VIS", "trial_index": 147}, "uniqueid": "MTK3661:3QIYRE09Y4O78PY16N52LCZSNVT1N1", "dateTime": 1520882824795}, {"current_trial": 148, "trialdata": {"rt": -1, "trial_type": "single-stim", "word": "lizard", "stimulus": "<p id=\"stim\">LIZARD</p>", "conditions": [12, 800, "v", 24000], "internal_node_id": "0.0-103.0", "trial": 4, "time_elapsed": 748764, "serialpos": 3, "key_press": -1, "wordID": 833, "type": "PRES_VIS", "trial_index": 148}, "uniqueid": "MTK3661:3QIYRE09Y4O78PY16N52LCZSNVT1N1", "dateTime": 1520882826789}, {"current_trial": 149, "trialdata": {"rt": -1, "trial_type": "single-stim", "word": "cashew", "stimulus": "<p id=\"stim\">CASHEW</p>", "conditions": [12, 800, "v", 24000], "internal_node_id": "0.0-104.0", "trial": 4, "time_elapsed": 750484, "serialpos": 4, "key_press": -1, "wordID": 252, "type": "PRES_VIS", "trial_index": 149}, "uniqueid": "MTK3661:3QIYRE09Y4O78PY16N52LCZSNVT1N1", "dateTime": 1520882828509}, {"current_trial": 150, "trialdata": {"rt": -1, "trial_type": "single-stim", "word": "cafe", "stimulus": "<p id=\"stim\">CAFE</p>", "conditions": [12, 800, "v", 24000], "internal_node_id": "0.0-105.0", "trial": 4, "time_elapsed": 752334, "serialpos": 5, "key_press": -1, "wordID": 215, "type": "PRES_VIS", "trial_index": 150}, "uniqueid": "MTK3661:3QIYRE09Y4O78PY16N52LCZSNVT1N1", "dateTime": 1520882830360}, {"current_trial": 151, "trialdata": {"rt": -1, "trial_type": "single-stim", "word": "diner", "stimulus": "<p id=\"stim\">DINER</p>", "conditions": [12, 800, "v", 24000], "internal_node_id": "0.0-106.0", "trial": 4, "time_elapsed": 754054, "serialpos": 6, "key_press": -1, "wordID": 466, "type": "PRES_VIS", "trial_index": 151}, "uniqueid": "MTK3661:3QIYRE09Y4O78PY16N52LCZSNVT1N1", "dateTime": 1520882832080}, {"current_trial": 152, "trialdata": {"rt": -1, "trial_type": "single-stim", "word": "possum", "stimulus": "<p id=\"stim\">POSSUM</p>", "conditions": [12, 800, "v", 24000], "internal_node_id": "0.0-107.0", "trial": 4, "time_elapsed": 755707, "serialpos": 7, "key_press": -1, "wordID": 1111, "type": "PRES_VIS", "trial_index": 152}, "uniqueid": "MTK3661:3QIYRE09Y4O78PY16N52LCZSNVT1N1", "dateTime": 1520882833732}, {"current_trial": 153, "trialdata": {"rt": -1, "trial_type": "single-stim", "word": "outlaw", "stimulus": "<p id=\"stim\">OUTLAW</p>", "conditions": [12, 800, "v", 24000], "internal_node_id": "0.0-108.0", "trial": 4, "time_elapsed": 757638, "serialpos": 8, "key_press": -1, "wordID": 988, "type": "PRES_VIS", "trial_index": 153}, "uniqueid": "MTK3661:3QIYRE09Y4O78PY16N52LCZSNVT1N1", "dateTime": 1520882835663}, {"current_trial": 154, "trialdata": {"rt": -1, "trial_type": "single-stim", "word": "rebel", "stimulus": "<p id=\"stim\">REBEL</p>", "conditions": [12, 800, "v", 24000], "internal_node_id": "0.0-109.0", "trial": 4, "time_elapsed": 759301, "serialpos": 9, "key_press": -1, "wordID": 1171, "type": "PRES_VIS", "trial_index": 154}, "uniqueid": "MTK3661:3QIYRE09Y4O78PY16N52LCZSNVT1N1", "dateTime": 1520882837327}, {"current_trial": 155, "trialdata": {"rt": -1, "trial_type": "single-stim", "word": "garbage", "stimulus": "<p id=\"stim\">GARBAGE</p>", "conditions": [12, 800, "v", 24000], "internal_node_id": "0.0-110.0", "trial": 4, "time_elapsed": 761186, "serialpos": 10, "key_press": -1, "wordID": 621, "type": "PRES_VIS", "trial_index": 155}, "uniqueid": "MTK3661:3QIYRE09Y4O78PY16N52LCZSNVT1N1", "dateTime": 1520882839211}, {"current_trial": 156, "trialdata": {"rt": -1, "trial_type": "single-stim", "word": "custard", "stimulus": "<p id=\"stim\">CUSTARD</p>", "conditions": [12, 800, "v", 24000], "internal_node_id": "0.0-111.0", "trial": 4, "time_elapsed": 763153, "serialpos": 11, "key_press": -1, "wordID": 428, "type": "PRES_VIS", "trial_index": 156}, "uniqueid": "MTK3661:3QIYRE09Y4O78PY16N52LCZSNVT1N1", "dateTime": 1520882841179}, {"current_trial": 157, "trialdata": {"rt": -1, "trial_type": "single-stim", "stimulus": "", "internal_node_id": "0.0-112.0-0.0", "time_elapsed": 765542, "key_press": -1, "type": "PRE_RECALL_DELAY", "trial_index": 157}, "uniqueid": "MTK3661:3QIYRE09Y4O78PY16N52LCZSNVT1N1", "dateTime": 1520882843567}, {"current_trial": 158, "trialdata": {"rt": -1000, "trial_type": "single-audio", "stimulus": "/static/audio/400Hz.wav", "internal_node_id": "0.0-113.0", "time_elapsed": 766045, "key_press": -1, "type": "PRE_RECALL_ALERT", "trial_index": 158}, "uniqueid": "MTK3661:3QIYRE09Y4O78PY16N52LCZSNVT1N1", "dateTime": 1520882844071}, {"current_trial": 159, "trialdata": {"rt": [2804, 5110, 6659, 9064, 10550, 12099, 38076, 57813], "recwords": ["custard", "outlaw", "cafe", "lizard", "dime", "diner", "river", "cashew"], "key_times": [433, 648, 858, 1108, 1387, 1585, 1883, 2804, 3341, 3565, 3845, 4032, 4277, 4775, 5110, 5561, 5755, 6143, 6336, 6659, 7128, 7393, 7935, 8178, 8418, 8660, 9064, 9631, 9829, 10130, 10309, 10550, 11029, 11200, 11407, 11612, 11775, 12099, 37087, 37259, 37444, 37663, 37798, 38076, 55931, 56160, 56410, 56675, 56878, 57508, 57813], "trial_type": "free-recall", "conditions": [12, 800, "v", 24000], "internal_node_id": "0.0-114.0-0.0", "key_presses": [67, 85, 83, 84, 65, 82, 68, 13, 79, 85, 84, 76, 65, 87, 13, 67, 65, 70, 69, 13, 76, 73, 90, 65, 82, 68, 13, 68, 73, 77, 69, 13, 68, 73, 78, 69, 82, 13, 82, 73, 86, 69, 82, 13, 67, 65, 83, 72, 69, 87, 13], "trial": 4, "time_elapsed": 826054, "type": "FREE_RECALL", "trial_index": 159}, "uniqueid": "MTK3661:3QIYRE09Y4O78PY16N52LCZSNVT1N1", "dateTime": 1520882904092}, {"current_trial": 160, "trialdata": {"rt": 810, "trial_type": "text", "internal_node_id": "0.0-115.0", "time_elapsed": 828881, "key_press": 32, "type": "INSTRUCTIONS", "trial_index": 160}, "uniqueid": "MTK3661:3QIYRE09Y4O78PY16N52LCZSNVT1N1", "dateTime": 1520882906906}, {"current_trial": 161, "trialdata": {"rt": [3381, 5899, 8424, 10406], "trial_type": "math-distractor", "key_times": [2203, 2716, 3381, 5334, 5563, 5899, 7979, 8177, 8424, 9982, 10204, 10406], "responses": ["17", "12", "21", "12"], "num2": [6, 8, 8, 2, 2], "num3": [9, 1, 5, 8, 2], "conditions": [24, 800, "v", 12000], "internal_node_id": "0.0-116.0", "key_presses": [49, 55, 13, 49, 50, 13, 50, 49, 13, 49, 50, 13], "trial": 5, "time_elapsed": 842892, "type": "DISTRACTOR", "trial_index": 161, "num1": [2, 3, 8, 2, 9]}, "uniqueid": "MTK3661:3QIYRE09Y4O78PY16N52LCZSNVT1N1", "dateTime": 1520882920917}, {"current_trial": 162, "trialdata": {"rt": -1, "trial_type": "single-stim", "stimulus": "<p id=\"stim\">10</p>", "internal_node_id": "0.0-117.0-0.0", "time_elapsed": 845895, "key_press": -1, "trial_index": 162}, "uniqueid": "MTK3661:3QIYRE09Y4O78PY16N52LCZSNVT1N1", "dateTime": 1520882923921}, {"current_trial": 163, "trialdata": {"rt": -1, "trial_type": "single-stim", "stimulus": "<p id=\"stim\">9</p>", "internal_node_id": "0.0-117.0-1.0", "time_elapsed": 846900, "key_press": -1, "trial_index": 163}, "uniqueid": "MTK3661:3QIYRE09Y4O78PY16N52LCZSNVT1N1", "dateTime": 1520882924926}, {"current_trial": 164, "trialdata": {"rt": -1, "trial_type": "single-stim", "stimulus": "<p id=\"stim\">8</p>", "internal_node_id": "0.0-117.0-2.0", "time_elapsed": 847904, "key_press": -1, "trial_index": 164}, "uniqueid": "MTK3661:3QIYRE09Y4O78PY16N52LCZSNVT1N1", "dateTime": 1520882925929}, {"current_trial": 165, "trialdata": {"rt": -1, "trial_type": "single-stim", "stimulus": "<p id=\"stim\">7</p>", "internal_node_id": "0.0-117.0-3.0", "time_elapsed": 848908, "key_press": -1, "trial_index": 165}, "uniqueid": "MTK3661:3QIYRE09Y4O78PY16N52LCZSNVT1N1", "dateTime": 1520882926934}, {"current_trial": 166, "trialdata": {"rt": -1, "trial_type": "single-stim", "stimulus": "<p id=\"stim\">6</p>", "internal_node_id": "0.0-117.0-4.0", "time_elapsed": 849913, "key_press": -1, "trial_index": 166}, "uniqueid": "MTK3661:3QIYRE09Y4O78PY16N52LCZSNVT1N1", "dateTime": 1520882927938}, {"current_trial": 167, "trialdata": {"rt": -1, "trial_type": "single-stim", "stimulus": "<p id=\"stim\">5</p>", "internal_node_id": "0.0-117.0-5.0", "time_elapsed": 850916, "key_press": -1, "trial_index": 167}, "uniqueid": "MTK3661:3QIYRE09Y4O78PY16N52LCZSNVT1N1", "dateTime": 1520882928941}, {"current_trial": 168, "trialdata": {"rt": -1, "trial_type": "single-stim", "stimulus": "<p id=\"stim\">4</p>", "internal_node_id": "0.0-117.0-6.0", "time_elapsed": 851920, "key_press": -1, "trial_index": 168}, "uniqueid": "MTK3661:3QIYRE09Y4O78PY16N52LCZSNVT1N1", "dateTime": 1520882929946}, {"current_trial": 169, "trialdata": {"rt": -1, "trial_type": "single-stim", "stimulus": "<p id=\"stim\">3</p>", "internal_node_id": "0.0-117.0-7.0", "time_elapsed": 852925, "key_press": -1, "trial_index": 169}, "uniqueid": "MTK3661:3QIYRE09Y4O78PY16N52LCZSNVT1N1", "dateTime": 1520882930950}, {"current_trial": 170, "trialdata": {"rt": -1, "trial_type": "single-stim", "stimulus": "<p id=\"stim\">2</p>", "internal_node_id": "0.0-117.0-8.0", "time_elapsed": 853929, "key_press": -1, "trial_index": 170}, "uniqueid": "MTK3661:3QIYRE09Y4O78PY16N52LCZSNVT1N1", "dateTime": 1520882931955}, {"current_trial": 171, "trialdata": {"rt": -1, "trial_type": "single-stim", "stimulus": "<p id=\"stim\">1</p>", "internal_node_id": "0.0-117.0-9.0", "time_elapsed": 854934, "key_press": -1, "trial_index": 171}, "uniqueid": "MTK3661:3QIYRE09Y4O78PY16N52LCZSNVT1N1", "dateTime": 1520882932963}, {"current_trial": 172, "trialdata": {"rt": -1, "trial_type": "single-stim", "stimulus": "<p id=\"stim\">+</p>", "internal_node_id": "0.0-118.0-0.0", "time_elapsed": 856441, "key_press": -1, "type": "FIXATION", "trial_index": 172}, "uniqueid": "MTK3661:3QIYRE09Y4O78PY16N52LCZSNVT1N1", "dateTime": 1520882934467}, {"current_trial": 173, "trialdata": {"rt": -1, "trial_type": "single-stim", "word": "plaid", "stimulus": "<p id=\"stim\">PLAID</p>", "conditions": [24, 800, "v", 12000], "internal_node_id": "0.0-119.0", "trial": 5, "time_elapsed": 857245, "serialpos": 0, "key_press": -1, "wordID": 1079, "type": "PRES_VIS", "trial_index": 173}, "uniqueid": "MTK3661:3QIYRE09Y4O78PY16N52LCZSNVT1N1", "dateTime": 1520882935271}, {"current_trial": 174, "trialdata": {"rt": -1, "trial_type": "single-stim", "word": "spool", "stimulus": "<p id=\"stim\">SPOOL</p>", "conditions": [24, 800, "v", 12000], "internal_node_id": "0.0-120.0", "trial": 5, "time_elapsed": 859106, "serialpos": 1, "key_press": -1, "wordID": 1355, "type": "PRES_VIS", "trial_index": 174}, "uniqueid": "MTK3661:3QIYRE09Y4O78PY16N52LCZSNVT1N1", "dateTime": 1520882937131}, {"current_trial": 175, "trialdata": {"rt": -1, "trial_type": "single-stim", "word": "canal", "stimulus": "<p id=\"stim\">CANAL</p>", "conditions": [24, 800, "v", 12000], "internal_node_id": "0.0-121.0", "trial": 5, "time_elapsed": 861003, "serialpos": 2, "key_press": -1, "wordID": 225, "type": "PRES_VIS", "trial_index": 175}, "uniqueid": "MTK3661:3QIYRE09Y4O78PY16N52LCZSNVT1N1", "dateTime": 1520882939028}, {"current_trial": 176, "trialdata": {"rt": -1, "trial_type": "single-stim", "word": "friend", "stimulus": "<p id=\"stim\">FRIEND</p>", "conditions": [24, 800, "v", 12000], "internal_node_id": "0.0-122.0", "trial": 5, "time_elapsed": 862666, "serialpos": 3, "key_press": -1, "wordID": 605, "type": "PRES_VIS", "trial_index": 176}, "uniqueid": "MTK3661:3QIYRE09Y4O78PY16N52LCZSNVT1N1", "dateTime": 1520882940691}, {"current_trial": 177, "trialdata": {"rt": -1, "trial_type": "single-stim", "word": "wife", "stimulus": "<p id=\"stim\">WIFE</p>", "conditions": [24, 800, "v", 12000], "internal_node_id": "0.0-123.0", "trial": 5, "time_elapsed": 864611, "serialpos": 4, "key_press": -1, "wordID": 1608, "type": "PRES_VIS", "trial_index": 177}, "uniqueid": "MTK3661:3QIYRE09Y4O78PY16N52LCZSNVT1N1", "dateTime": 1520882942636}, {"current_trial": 178, "trialdata": {"rt": -1, "trial_type": "single-stim", "word": "fox", "stimulus": "<p id=\"stim\">FOX</p>", "conditions": [24, 800, "v", 12000], "internal_node_id": "0.0-124.0", "trial": 5, "time_elapsed": 866246, "serialpos": 5, "key_press": -1, "wordID": 597, "type": "PRES_VIS", "trial_index": 178}, "uniqueid": "MTK3661:3QIYRE09Y4O78PY16N52LCZSNVT1N1", "dateTime": 1520882944272}, {"current_trial": 179, "trialdata": {"rt": -1, "trial_type": "single-stim", "word": "ground", "stimulus": "<p id=\"stim\">GROUND</p>", "conditions": [24, 800, "v", 12000], "internal_node_id": "0.0-125.0", "trial": 5, "time_elapsed": 868069, "serialpos": 6, "key_press": -1, "wordID": 665, "type": "PRES_VIS", "trial_index": 179}, "uniqueid": "MTK3661:3QIYRE09Y4O78PY16N52LCZSNVT1N1", "dateTime": 1520882946094}, {"current_trial": 180, "trialdata": {"rt": -1, "trial_type": "single-stim", "word": "arm", "stimulus": "<p id=\"stim\">ARM</p>", "conditions": [24, 800, "v", 12000], "internal_node_id": "0.0-126.0", "trial": 5, "time_elapsed": 869891, "serialpos": 7, "key_press": -1, "wordID": 37, "type": "PRES_VIS", "trial_index": 180}, "uniqueid": "MTK3661:3QIYRE09Y4O78PY16N52LCZSNVT1N1", "dateTime": 1520882947916}, {"current_trial": 181, "trialdata": {"rt": -1, "trial_type": "single-stim", "word": "cookbook", "stimulus": "<p id=\"stim\">COOKBOOK</p>", "conditions": [24, 800, "v", 12000], "internal_node_id": "0.0-127.0", "trial": 5, "time_elapsed": 871497, "serialpos": 8, "key_press": -1, "wordID": 372, "type": "PRES_VIS", "trial_index": 181}, "uniqueid": "MTK3661:3QIYRE09Y4O78PY16N52LCZSNVT1N1", "dateTime": 1520882949522}, {"current_trial": 182, "trialdata": {"rt": -1, "trial_type": "single-stim", "word": "panther", "stimulus": "<p id=\"stim\">PANTHER</p>", "conditions": [24, 800, "v", 12000], "internal_node_id": "0.0-128.0", "trial": 5, "time_elapsed": 873221, "serialpos": 9, "key_press": -1, "wordID": 1008, "type": "PRES_VIS", "trial_index": 182}, "uniqueid": "MTK3661:3QIYRE09Y4O78PY16N52LCZSNVT1N1", "dateTime": 1520882951246}, {"current_trial": 183, "trialdata": {"rt": -1, "trial_type": "single-stim", "word": "leopard", "stimulus": "<p id=\"stim\">LEOPARD</p>", "conditions": [24, 800, "v", 12000], "internal_node_id": "0.0-129.0", "trial": 5, "time_elapsed": 874906, "serialpos": 10, "key_press": -1, "wordID": 811, "type": "PRES_VIS", "trial_index": 183}, "uniqueid": "MTK3661:3QIYRE09Y4O78PY16N52LCZSNVT1N1", "dateTime": 1520882952931}, {"current_trial": 184, "trialdata": {"rt": -1, "trial_type": "single-stim", "word": "mars", "stimulus": "<p id=\"stim\">MARS</p>", "conditions": [24, 800, "v", 12000], "internal_node_id": "0.0-130.0", "trial": 5, "time_elapsed": 876762, "serialpos": 11, "key_press": -1, "wordID": 872, "type": "PRES_VIS", "trial_index": 184}, "uniqueid": "MTK3661:3QIYRE09Y4O78PY16N52LCZSNVT1N1", "dateTime": 1520882954787}, {"current_trial": 185, "trialdata": {"rt": -1, "trial_type": "single-stim", "word": "tuba", "stimulus": "<p id=\"stim\">TUBA</p>", "conditions": [24, 800, "v", 12000], "internal_node_id": "0.0-131.0", "trial": 5, "time_elapsed": 878463, "serialpos": 12, "key_press": -1, "wordID": 1514, "type": "PRES_VIS", "trial_index": 185}, "uniqueid": "MTK3661:3QIYRE09Y4O78PY16N52LCZSNVT1N1", "dateTime": 1520882956489}, {"current_trial": 186, "trialdata": {"rt": -1, "trial_type": "single-stim", "word": "dress", "stimulus": "<p id=\"stim\">DRESS</p>", "conditions": [24, 800, "v", 12000], "internal_node_id": "0.0-132.0", "trial": 5, "time_elapsed": 880347, "serialpos": 13, "key_press": -1, "wordID": 494, "type": "PRES_VIS", "trial_index": 186}, "uniqueid": "MTK3661:3QIYRE09Y4O78PY16N52LCZSNVT1N1", "dateTime": 1520882958372}, {"current_trial": 187, "trialdata": {"rt": -1, "trial_type": "single-stim", "word": "lipstick", "stimulus": "<p id=\"stim\">LIPSTICK</p>", "conditions": [24, 800, "v", 12000], "internal_node_id": "0.0-133.0", "trial": 5, "time_elapsed": 882305, "serialpos": 14, "key_press": -1, "wordID": 828, "type": "PRES_VIS", "trial_index": 187}, "uniqueid": "MTK3661:3QIYRE09Y4O78PY16N52LCZSNVT1N1", "dateTime": 1520882960330}, {"current_trial": 188, "trialdata": {"rt": -1, "trial_type": "single-stim", "word": "milk", "stimulus": "<p id=\"stim\">MILK</p>", "conditions": [24, 800, "v", 12000], "internal_node_id": "0.0-134.0", "trial": 5, "time_elapsed": 884274, "serialpos": 15, "key_press": -1, "wordID": 894, "type": "PRES_VIS", "trial_index": 188}, "uniqueid": "MTK3661:3QIYRE09Y4O78PY16N52LCZSNVT1N1", "dateTime": 1520882962300}, {"current_trial": 189, "trialdata": {"rt": -1, "trial_type": "single-stim", "word": "bison", "stimulus": "<p id=\"stim\">BISON</p>", "conditions": [24, 800, "v", 12000], "internal_node_id": "0.0-135.0", "trial": 5, "time_elapsed": 886111, "serialpos": 16, "key_press": -1, "wordID": 130, "type": "PRES_VIS", "trial_index": 189}, "uniqueid": "MTK3661:3QIYRE09Y4O78PY16N52LCZSNVT1N1", "dateTime": 1520882964136}, {"current_trial": 190, "trialdata": {"rt": -1, "trial_type": "single-stim", "word": "chipmunk", "stimulus": "<p id=\"stim\">CHIPMUNK</p>", "conditions": [24, 800, "v", 12000], "internal_node_id": "0.0-136.0", "trial": 5, "time_elapsed": 888026, "serialpos": 17, "key_press": -1, "wordID": 303, "type": "PRES_VIS", "trial_index": 190}, "uniqueid": "MTK3661:3QIYRE09Y4O78PY16N52LCZSNVT1N1", "dateTime": 1520882966051}, {"current_trial": 191, "trialdata": {"rt": -1, "trial_type": "single-stim", "word": "sphinx", "stimulus": "<p id=\"stim\">SPHINX</p>", "conditions": [24, 800, "v", 12000], "internal_node_id": "0.0-137.0", "trial": 5, "time_elapsed": 890015, "serialpos": 18, "key_press": -1, "wordID": 1348, "type": "PRES_VIS", "trial_index": 191}, "uniqueid": "MTK3661:3QIYRE09Y4O78PY16N52LCZSNVT1N1", "dateTime": 1520882968040}, {"current_trial": 192, "trialdata": {"rt": -1, "trial_type": "single-stim", "word": "rust", "stimulus": "<p id=\"stim\">RUST</p>", "conditions": [24, 800, "v", 12000], "internal_node_id": "0.0-138.0", "trial": 5, "time_elapsed": 891974, "serialpos": 19, "key_press": -1, "wordID": 1218, "type": "PRES_VIS", "trial_index": 192}, "uniqueid": "MTK3661:3QIYRE09Y4O78PY16N52LCZSNVT1N1", "dateTime": 1520882969999}, {"current_trial": 193, "trialdata": {"rt": -1, "trial_type": "single-stim", "word": "sandwich", "stimulus": "<p id=\"stim\">SANDWICH</p>", "conditions": [24, 800, "v", 12000], "internal_node_id": "0.0-139.0", "trial": 5, "time_elapsed": 893862, "serialpos": 20, "key_press": -1, "wordID": 1231, "type": "PRES_VIS", "trial_index": 193}, "uniqueid": "MTK3661:3QIYRE09Y4O78PY16N52LCZSNVT1N1", "dateTime": 1520882971888}, {"current_trial": 194, "trialdata": {"rt": -1, "trial_type": "single-stim", "word": "doughnut", "stimulus": "<p id=\"stim\">DOUGHNUT</p>", "conditions": [24, 800, "v", 12000], "internal_node_id": "0.0-140.0", "trial": 5, "time_elapsed": 895591, "serialpos": 21, "key_press": -1, "wordID": 489, "type": "PRES_VIS", "trial_index": 194}, "uniqueid": "MTK3661:3QIYRE09Y4O78PY16N52LCZSNVT1N1", "dateTime": 1520882973617}, {"current_trial": 195, "trialdata": {"rt": -1, "trial_type": "single-stim", "word": "seal", "stimulus": "<p id=\"stim\">SEAL</p>", "conditions": [24, 800, "v", 12000], "internal_node_id": "0.0-141.0", "trial": 5, "time_elapsed": 897200, "serialpos": 22, "key_press": -1, "wordID": 1261, "type": "PRES_VIS", "trial_index": 195}, "uniqueid": "MTK3661:3QIYRE09Y4O78PY16N52LCZSNVT1N1", "dateTime": 1520882975226}, {"current_trial": 196, "trialdata": {"rt": -1, "trial_type": "single-stim", "word": "piano", "stimulus": "<p id=\"stim\">PIANO</p>", "conditions": [24, 800, "v", 12000], "internal_node_id": "0.0-142.0", "trial": 5, "time_elapsed": 899117, "serialpos": 23, "key_press": -1, "wordID": 1056, "type": "PRES_VIS", "trial_index": 196}, "uniqueid": "MTK3661:3QIYRE09Y4O78PY16N52LCZSNVT1N1", "dateTime": 1520882977143}, {"current_trial": 197, "trialdata": {"rt": -1, "trial_type": "single-stim", "stimulus": "", "internal_node_id": "0.0-143.0-0.0", "time_elapsed": 901596, "key_press": -1, "type": "PRE_RECALL_DELAY", "trial_index": 197}, "uniqueid": "MTK3661:3QIYRE09Y4O78PY16N52LCZSNVT1N1", "dateTime": 1520882979621}, {"current_trial": 198, "trialdata": {"rt": -1000, "trial_type": "single-audio", "stimulus": "/static/audio/400Hz.wav", "internal_node_id": "0.0-144.0", "time_elapsed": 902100, "key_press": -1, "type": "PRE_RECALL_ALERT", "trial_index": 198}, "uniqueid": "MTK3661:3QIYRE09Y4O78PY16N52LCZSNVT1N1", "dateTime": 1520882980125}, {"current_trial": 199, "trialdata": {"rt": [1838, 3062, 6606, 8711, 17437, 21934, 28745, 44235], "recwords": ["piano", "seal", "sandwhich", "donut", "leopard", "doughnut", "sphinx", "spool"], "key_times": [391, 672, 917, 1107, 1533, 1838, 2213, 2414, 2649, 2797, 3062, 3288, 3499, 3656, 3992, 4200, 4720, 4978, 5545, 5761, 6066, 6244, 6606, 7268, 7452, 7680, 8087, 8355, 8711, 9143, 9385, 10066, 11468, 12026, 12376, 12812, 13109, 13789, 14027, 14199, 14363, 15564, 16190, 16371, 16561, 16917, 17437, 20043, 20233, 20417, 20704, 20823, 21168, 21386, 21708, 21934, 26072, 26952, 27295, 27574, 27776, 28438, 28745, 36786, 36985, 37165, 38500, 38709, 38898, 42194, 42418, 42845, 42995, 43893, 44235], "trial_type": "free-recall", "conditions": [24, 800, "v", 12000], "internal_node_id": "0.0-145.0-0.0", "key_presses": [80, 73, 65, 78, 79, 13, 83, 69, 65, 76, 32, 83, 65, 78, 68, 68, 8, 87, 72, 73, 67, 72, 13, 68, 79, 78, 85, 84, 13, 76, 69, 65, 8, 65, 80, 79, 82, 8, 8, 8, 8, 79, 80, 65, 82, 68, 13, 68, 79, 85, 71, 72, 78, 85, 84, 13, 83, 80, 72, 73, 78, 88, 13, 67, 72, 69, 8, 8, 8, 83, 80, 79, 79, 76, 13], "trial": 5, "time_elapsed": 962108, "type": "FREE_RECALL", "trial_index": 199}, "uniqueid": "MTK3661:3QIYRE09Y4O78PY16N52LCZSNVT1N1", "dateTime": 1520883040147}, {"current_trial": 200, "trialdata": {"rt": 2042, "trial_type": "text", "internal_node_id": "0.0-146.0", "time_elapsed": 966168, "key_press": 78, "type": "INSTRUCTIONS", "trial_index": 200}, "uniqueid": "MTK3661:3QIYRE09Y4O78PY16N52LCZSNVT1N1", "dateTime": 1520883044193}, {"current_trial": 201, "trialdata": {"rt": [3792, 6121, 8494, 11385], "trial_type": "math-distractor", "key_times": [2847, 3176, 3792, 5249, 5585, 6121, 7862, 8004, 8494, 11115, 11385], "responses": ["20", "10", "17", "7"], "num2": [9, 1, 1, 2, 6], "num3": [6, 8, 9, 3, 1], "conditions": [12, 800, "v", 12000], "internal_node_id": "0.0-147.0", "key_presses": [50, 48, 13, 49, 48, 13, 49, 55, 13, 55, 13], "trial": 6, "time_elapsed": 980178, "type": "DISTRACTOR", "trial_index": 201, "num1": [5, 1, 7, 2, 8]}, "uniqueid": "MTK3661:3QIYRE09Y4O78PY16N52LCZSNVT1N1", "dateTime": 1520883058204}, {"current_trial": 202, "trialdata": {"rt": -1, "trial_type": "single-stim", "stimulus": "<p id=\"stim\">10</p>", "internal_node_id": "0.0-148.0-0.0", "time_elapsed": 983183, "key_press": -1, "trial_index": 202}, "uniqueid": "MTK3661:3QIYRE09Y4O78PY16N52LCZSNVT1N1", "dateTime": 1520883061209}, {"current_trial": 203, "trialdata": {"rt": -1, "trial_type": "single-stim", "stimulus": "<p id=\"stim\">9</p>", "internal_node_id": "0.0-148.0-1.0", "time_elapsed": 984188, "key_press": -1, "trial_index": 203}, "uniqueid": "MTK3661:3QIYRE09Y4O78PY16N52LCZSNVT1N1", "dateTime": 1520883062214}, {"current_trial": 204, "trialdata": {"rt": -1, "trial_type": "single-stim", "stimulus": "<p id=\"stim\">8</p>", "internal_node_id": "0.0-148.0-2.0", "time_elapsed": 985192, "key_press": -1, "trial_index": 204}, "uniqueid": "MTK3661:3QIYRE09Y4O78PY16N52LCZSNVT1N1", "dateTime": 1520883063217}, {"current_trial": 205, "trialdata": {"rt": -1, "trial_type": "single-stim", "stimulus": "<p id=\"stim\">7</p>", "internal_node_id": "0.0-148.0-3.0", "time_elapsed": 986196, "key_press": -1, "trial_index": 205}, "uniqueid": "MTK3661:3QIYRE09Y4O78PY16N52LCZSNVT1N1", "dateTime": 1520883064221}, {"current_trial": 206, "trialdata": {"rt": -1, "trial_type": "single-stim", "stimulus": "<p id=\"stim\">6</p>", "internal_node_id": "0.0-148.0-4.0", "time_elapsed": 987201, "key_press": -1, "trial_index": 206}, "uniqueid": "MTK3661:3QIYRE09Y4O78PY16N52LCZSNVT1N1", "dateTime": 1520883065226}, {"current_trial": 207, "trialdata": {"rt": -1, "trial_type": "single-stim", "stimulus": "<p id=\"stim\">5</p>", "internal_node_id": "0.0-148.0-5.0", "time_elapsed": 988204, "key_press": -1, "trial_index": 207}, "uniqueid": "MTK3661:3QIYRE09Y4O78PY16N52LCZSNVT1N1", "dateTime": 1520883066230}, {"current_trial": 208, "trialdata": {"rt": -1, "trial_type": "single-stim", "stimulus": "<p id=\"stim\">4</p>", "internal_node_id": "0.0-148.0-6.0", "time_elapsed": 989208, "key_press": -1, "trial_index": 208}, "uniqueid": "MTK3661:3QIYRE09Y4O78PY16N52LCZSNVT1N1", "dateTime": 1520883067234}, {"current_trial": 209, "trialdata": {"rt": -1, "trial_type": "single-stim", "stimulus": "<p id=\"stim\">3</p>", "internal_node_id": "0.0-148.0-7.0", "time_elapsed": 990214, "key_press": -1, "trial_index": 209}, "uniqueid": "MTK3661:3QIYRE09Y4O78PY16N52LCZSNVT1N1", "dateTime": 1520883068239}, {"current_trial": 210, "trialdata": {"rt": -1, "trial_type": "single-stim", "stimulus": "<p id=\"stim\">2</p>", "internal_node_id": "0.0-148.0-8.0", "time_elapsed": 991218, "key_press": -1, "trial_index": 210}, "uniqueid": "MTK3661:3QIYRE09Y4O78PY16N52LCZSNVT1N1", "dateTime": 1520883069243}, {"current_trial": 211, "trialdata": {"rt": -1, "trial_type": "single-stim", "stimulus": "<p id=\"stim\">1</p>", "internal_node_id": "0.0-148.0-9.0", "time_elapsed": 992223, "key_press": -1, "trial_index": 211}, "uniqueid": "MTK3661:3QIYRE09Y4O78PY16N52LCZSNVT1N1", "dateTime": 1520883070249}, {"current_trial": 212, "trialdata": {"rt": -1, "trial_type": "single-stim", "stimulus": "<p id=\"stim\">+</p>", "internal_node_id": "0.0-149.0-0.0", "time_elapsed": 993727, "key_press": -1, "type": "FIXATION", "trial_index": 212}, "uniqueid": "MTK3661:3QIYRE09Y4O78PY16N52LCZSNVT1N1", "dateTime": 1520883071753}, {"current_trial": 213, "trialdata": {"rt": -1, "trial_type": "single-stim", "word": "knapsack", "stimulus": "<p id=\"stim\">KNAPSACK</p>", "conditions": [12, 800, "v", 12000], "internal_node_id": "0.0-150.0", "trial": 6, "time_elapsed": 994532, "serialpos": 0, "key_press": -1, "wordID": 782, "type": "PRES_VIS", "trial_index": 213}, "uniqueid": "MTK3661:3QIYRE09Y4O78PY16N52LCZSNVT1N1", "dateTime": 1520883072558}, {"current_trial": 214, "trialdata": {"rt": -1, "trial_type": "single-stim", "word": "transplant", "stimulus": "<p id=\"stim\">TRANSPLANT</p>", "conditions": [12, 800, "v", 12000], "internal_node_id": "0.0-151.0", "trial": 6, "time_elapsed": 996536, "serialpos": 1, "key_press": -1, "wordID": 1495, "type": "PRES_VIS", "trial_index": 214}, "uniqueid": "MTK3661:3QIYRE09Y4O78PY16N52LCZSNVT1N1", "dateTime": 1520883074561}, {"current_trial": 215, "trialdata": {"rt": -1, "trial_type": "single-stim", "word": "dolphin", "stimulus": "<p id=\"stim\">DOLPHIN</p>", "conditions": [12, 800, "v", 12000], "internal_node_id": "0.0-152.0", "trial": 6, "time_elapsed": 998318, "serialpos": 2, "key_press": -1, "wordID": 482, "type": "PRES_VIS", "trial_index": 215}, "uniqueid": "MTK3661:3QIYRE09Y4O78PY16N52LCZSNVT1N1", "dateTime": 1520883076344}, {"current_trial": 216, "trialdata": {"rt": -1, "trial_type": "single-stim", "word": "beaver", "stimulus": "<p id=\"stim\">BEAVER</p>", "conditions": [12, 800, "v", 12000], "internal_node_id": "0.0-153.0", "trial": 6, "time_elapsed": 1000168, "serialpos": 3, "key_press": -1, "wordID": 108, "type": "PRES_VIS", "trial_index": 216}, "uniqueid": "MTK3661:3QIYRE09Y4O78PY16N52LCZSNVT1N1", "dateTime": 1520883078193}, {"current_trial": 217, "trialdata": {"rt": -1, "trial_type": "single-stim", "word": "hood", "stimulus": "<p id=\"stim\">HOOD</p>", "conditions": [12, 800, "v", 12000], "internal_node_id": "0.0-154.0", "trial": 6, "time_elapsed": 1001795, "serialpos": 4, "key_press": -1, "wordID": 713, "type": "PRES_VIS", "trial_index": 217}, "uniqueid": "MTK3661:3QIYRE09Y4O78PY16N52LCZSNVT1N1", "dateTime": 1520883079820}, {"current_trial": 218, "trialdata": {"rt": -1, "trial_type": "single-stim", "word": "kidney", "stimulus": "<p id=\"stim\">KIDNEY</p>", "conditions": [12, 800, "v", 12000], "internal_node_id": "0.0-155.0", "trial": 6, "time_elapsed": 1003719, "serialpos": 5, "key_press": -1, "wordID": 775, "type": "PRES_VIS", "trial_index": 218}, "uniqueid": "MTK3661:3QIYRE09Y4O78PY16N52LCZSNVT1N1", "dateTime": 1520883081744}, {"current_trial": 219, "trialdata": {"rt": -1, "trial_type": "single-stim", "word": "nightgown", "stimulus": "<p id=\"stim\">NIGHTGOWN</p>", "conditions": [12, 800, "v", 12000], "internal_node_id": "0.0-156.0", "trial": 6, "time_elapsed": 1005681, "serialpos": 6, "key_press": -1, "wordID": 952, "type": "PRES_VIS", "trial_index": 219}, "uniqueid": "MTK3661:3QIYRE09Y4O78PY16N52LCZSNVT1N1", "dateTime": 1520883083706}, {"current_trial": 220, "trialdata": {"rt": -1, "trial_type": "single-stim", "word": "tile", "stimulus": "<p id=\"stim\">TILE</p>", "conditions": [12, 800, "v", 12000], "internal_node_id": "0.0-157.0", "trial": 6, "time_elapsed": 1007374, "serialpos": 7, "key_press": -1, "wordID": 1467, "type": "PRES_VIS", "trial_index": 220}, "uniqueid": "MTK3661:3QIYRE09Y4O78PY16N52LCZSNVT1N1", "dateTime": 1520883085400}, {"current_trial": 221, "trialdata": {"rt": -1, "trial_type": "single-stim", "word": "trombone", "stimulus": "<p id=\"stim\">TROMBONE</p>", "conditions": [12, 800, "v", 12000], "internal_node_id": "0.0-158.0", "trial": 6, "time_elapsed": 1009028, "serialpos": 8, "key_press": -1, "wordID": 1507, "type": "PRES_VIS", "trial_index": 221}, "uniqueid": "MTK3661:3QIYRE09Y4O78PY16N52LCZSNVT1N1", "dateTime": 1520883087053}, {"current_trial": 222, "trialdata": {"rt": -1, "trial_type": "single-stim", "word": "banjo", "stimulus": "<p id=\"stim\">BANJO</p>", "conditions": [12, 800, "v", 12000], "internal_node_id": "0.0-159.0", "trial": 6, "time_elapsed": 1010894, "serialpos": 9, "key_press": -1, "wordID": 81, "type": "PRES_VIS", "trial_index": 222}, "uniqueid": "MTK3661:3QIYRE09Y4O78PY16N52LCZSNVT1N1", "dateTime": 1520883088920}, {"current_trial": 223, "trialdata": {"rt": -1, "trial_type": "single-stim", "word": "sidewalk", "stimulus": "<p id=\"stim\">SIDEWALK</p>", "conditions": [12, 800, "v", 12000], "internal_node_id": "0.0-160.0", "trial": 6, "time_elapsed": 1012697, "serialpos": 10, "key_press": -1, "wordID": 1302, "type": "PRES_VIS", "trial_index": 223}, "uniqueid": "MTK3661:3QIYRE09Y4O78PY16N52LCZSNVT1N1", "dateTime": 1520883090722}, {"current_trial": 224, "trialdata": {"rt": -1, "trial_type": "single-stim", "word": "zebra", "stimulus": "<p id=\"stim\">ZEBRA</p>", "conditions": [12, 800, "v", 12000], "internal_node_id": "0.0-161.0", "trial": 6, "time_elapsed": 1014692, "serialpos": 11, "key_press": -1, "wordID": 1634, "type": "PRES_VIS", "trial_index": 224}, "uniqueid": "MTK3661:3QIYRE09Y4O78PY16N52LCZSNVT1N1", "dateTime": 1520883092719}, {"current_trial": 225, "trialdata": {"rt": -1, "trial_type": "single-stim", "stimulus": "", "internal_node_id": "0.0-162.0-0.0", "time_elapsed": 1017104, "key_press": -1, "type": "PRE_RECALL_DELAY", "trial_index": 225}, "uniqueid": "MTK3661:3QIYRE09Y4O78PY16N52LCZSNVT1N1", "dateTime": 1520883095130}, {"current_trial": 226, "trialdata": {"rt": -1000, "trial_type": "single-audio", "stimulus": "/static/audio/400Hz.wav", "internal_node_id": "0.0-163.0", "time_elapsed": 1017608, "key_press": -1, "type": "PRE_RECALL_ALERT", "trial_index": 226}, "uniqueid": "MTK3661:3QIYRE09Y4O78PY16N52LCZSNVT1N1", "dateTime": 1520883095633}, {"current_trial": 227, "trialdata": {"rt": [2101, 4599, 7521, 10972, 48385, 57991], "recwords": ["zebra", "sidewalk", "napsack", "nightgown", "stone", "beaver"], "key_times": [382, 756, 1249, 1555, 1797, 2101, 2589, 2757, 2978, 3196, 3549, 3782, 3982, 4325, 4599, 5144, 5343, 5560, 5972, 6255, 7049, 7245, 7521, 8059, 8237, 8449, 8605, 8790, 9585, 9813, 9957, 10701, 10972, 47239, 47494, 47752, 47959, 48173, 48385, 56637, 56866, 57100, 57304, 57522, 57645, 57991], "trial_type": "free-recall", "conditions": [12, 800, "v", 12000], "internal_node_id": "0.0-164.0-0.0", "key_presses": [90, 69, 66, 82, 65, 13, 83, 73, 68, 69, 87, 65, 76, 75, 13, 78, 65, 80, 83, 65, 67, 75, 13, 78, 73, 71, 72, 84, 71, 79, 87, 78, 13, 83, 84, 79, 78, 69, 13, 66, 69, 65, 86, 69, 82, 13], "trial": 6, "time_elapsed": 1077618, "type": "FREE_RECALL", "trial_index": 227}, "uniqueid": "MTK3661:3QIYRE09Y4O78PY16N52LCZSNVT1N1", "dateTime": 1520883155658}, {"current_trial": 228, "trialdata": {"rt": 815, "trial_type": "text", "internal_node_id": "0.0-165.0", "time_elapsed": 1080452, "key_press": 32, "type": "INSTRUCTIONS", "trial_index": 228}, "uniqueid": "MTK3661:3QIYRE09Y4O78PY16N52LCZSNVT1N1", "dateTime": 1520883158478}, {"current_trial": 229, "trialdata": {"rt": [5050, 6753, 10312, 12097, 17801, 22452], "trial_type": "math-distractor", "key_times": [4435, 4628, 5050, 6170, 6484, 6753, 9664, 9935, 10312, 11545, 11862, 12097, 16065, 17074, 17404, 17605, 17801, 22065, 22277, 22452], "responses": ["18", "10", "13", "10", "22", "21"], "num2": [9, 1, 2, 8, 9, 8, 6], "num3": [5, 1, 6, 1, 7, 9, 9], "conditions": [24, 1600, "v", 24000], "internal_node_id": "0.0-166.0", "key_presses": [49, 56, 13, 49, 48, 13, 49, 51, 13, 49, 48, 13, 49, 8, 50, 50, 13, 50, 49, 13], "trial": 7, "time_elapsed": 1106462, "type": "DISTRACTOR", "trial_index": 229, "num1": [4, 8, 5, 1, 6, 5, 8]}, "uniqueid": "MTK3661:3QIYRE09Y4O78PY16N52LCZSNVT1N1", "dateTime": 1520883184487}, {"current_trial": 230, "trialdata": {"rt": -1, "trial_type": "single-stim", "stimulus": "<p id=\"stim\">10</p>", "internal_node_id": "0.0-167.0-0.0", "time_elapsed": 1109468, "key_press": -1, "trial_index": 230}, "uniqueid": "MTK3661:3QIYRE09Y4O78PY16N52LCZSNVT1N1", "dateTime": 1520883187494}, {"current_trial": 231, "trialdata": {"rt": -1, "trial_type": "single-stim", "stimulus": "<p id=\"stim\">9</p>", "internal_node_id": "0.0-167.0-1.0", "time_elapsed": 1110474, "key_press": -1, "trial_index": 231}, "uniqueid": "MTK3661:3QIYRE09Y4O78PY16N52LCZSNVT1N1", "dateTime": 1520883188499}, {"current_trial": 232, "trialdata": {"rt": -1, "trial_type": "single-stim", "stimulus": "<p id=\"stim\">8</p>", "internal_node_id": "0.0-167.0-2.0", "time_elapsed": 1111479, "key_press": -1, "trial_index": 232}, "uniqueid": "MTK3661:3QIYRE09Y4O78PY16N52LCZSNVT1N1", "dateTime": 1520883189508}, {"current_trial": 233, "trialdata": {"rt": -1, "trial_type": "single-stim", "stimulus": "<p id=\"stim\">7</p>", "internal_node_id": "0.0-167.0-3.0", "time_elapsed": 1112488, "key_press": -1, "trial_index": 233}, "uniqueid": "MTK3661:3QIYRE09Y4O78PY16N52LCZSNVT1N1", "dateTime": 1520883190513}, {"current_trial": 234, "trialdata": {"rt": -1, "trial_type": "single-stim", "stimulus": "<p id=\"stim\">6</p>", "internal_node_id": "0.0-167.0-4.0", "time_elapsed": 1113491, "key_press": -1, "trial_index": 234}, "uniqueid": "MTK3661:3QIYRE09Y4O78PY16N52LCZSNVT1N1", "dateTime": 1520883191516}, {"current_trial": 235, "trialdata": {"rt": -1, "trial_type": "single-stim", "stimulus": "<p id=\"stim\">5</p>", "internal_node_id": "0.0-167.0-5.0", "time_elapsed": 1114495, "key_press": -1, "trial_index": 235}, "uniqueid": "MTK3661:3QIYRE09Y4O78PY16N52LCZSNVT1N1", "dateTime": 1520883192520}, {"current_trial": 236, "trialdata": {"rt": -1, "trial_type": "single-stim", "stimulus": "<p id=\"stim\">4</p>", "internal_node_id": "0.0-167.0-6.0", "time_elapsed": 1115501, "key_press": -1, "trial_index": 236}, "uniqueid": "MTK3661:3QIYRE09Y4O78PY16N52LCZSNVT1N1", "dateTime": 1520883193526}, {"current_trial": 237, "trialdata": {"rt": -1, "trial_type": "single-stim", "stimulus": "<p id=\"stim\">3</p>", "internal_node_id": "0.0-167.0-7.0", "time_elapsed": 1116505, "key_press": -1, "trial_index": 237}, "uniqueid": "MTK3661:3QIYRE09Y4O78PY16N52LCZSNVT1N1", "dateTime": 1520883194531}, {"current_trial": 238, "trialdata": {"rt": -1, "trial_type": "single-stim", "stimulus": "<p id=\"stim\">2</p>", "internal_node_id": "0.0-167.0-8.0", "time_elapsed": 1117509, "key_press": -1, "trial_index": 238}, "uniqueid": "MTK3661:3QIYRE09Y4O78PY16N52LCZSNVT1N1", "dateTime": 1520883195534}, {"current_trial": 239, "trialdata": {"rt": -1, "trial_type": "single-stim", "stimulus": "<p id=\"stim\">1</p>", "internal_node_id": "0.0-167.0-9.0", "time_elapsed": 1118515, "key_press": -1, "trial_index": 239}, "uniqueid": "MTK3661:3QIYRE09Y4O78PY16N52LCZSNVT1N1", "dateTime": 1520883196540}, {"current_trial": 240, "trialdata": {"rt": -1, "trial_type": "single-stim", "stimulus": "<p id=\"stim\">+</p>", "internal_node_id": "0.0-168.0-0.0", "time_elapsed": 1120019, "key_press": -1, "type": "FIXATION", "trial_index": 240}, "uniqueid": "MTK3661:3QIYRE09Y4O78PY16N52LCZSNVT1N1", "dateTime": 1520883198045}, {"current_trial": 241, "trialdata": {"rt": -1, "trial_type": "single-stim", "word": "princess", "stimulus": "<p id=\"stim\">PRINCESS</p>", "conditions": [24, 1600, "v", 24000], "internal_node_id": "0.0-169.0", "trial": 7, "time_elapsed": 1121625, "serialpos": 0, "key_press": -1, "wordID": 1124, "type": "PRES_VIS", "trial_index": 241}, "uniqueid": "MTK3661:3QIYRE09Y4O78PY16N52LCZSNVT1N1", "dateTime": 1520883199650}, {"current_trial": 242, "trialdata": {"rt": -1, "trial_type": "single-stim", "word": "queen", "stimulus": "<p id=\"stim\">QUEEN</p>", "conditions": [24, 1600, "v", 24000], "internal_node_id": "0.0-170.0", "trial": 7, "time_elapsed": 1124304, "serialpos": 1, "key_press": -1, "wordID": 1148, "type": "PRES_VIS", "trial_index": 242}, "uniqueid": "MTK3661:3QIYRE09Y4O78PY16N52LCZSNVT1N1", "dateTime": 1520883202329}, {"current_trial": 243, "trialdata": {"rt": -1, "trial_type": "single-stim", "word": "hook", "stimulus": "<p id=\"stim\">HOOK</p>", "conditions": [24, 1600, "v", 24000], "internal_node_id": "0.0-171.0", "trial": 7, "time_elapsed": 1126781, "serialpos": 2, "key_press": -1, "wordID": 714, "type": "PRES_VIS", "trial_index": 243}, "uniqueid": "MTK3661:3QIYRE09Y4O78PY16N52LCZSNVT1N1", "dateTime": 1520883204807}, {"current_trial": 244, "trialdata": {"rt": -1, "trial_type": "single-stim", "word": "velvet", "stimulus": "<p id=\"stim\">VELVET</p>", "conditions": [24, 1600, "v", 24000], "internal_node_id": "0.0-172.0", "trial": 7, "time_elapsed": 1129382, "serialpos": 3, "key_press": -1, "wordID": 1554, "type": "PRES_VIS", "trial_index": 244}, "uniqueid": "MTK3661:3QIYRE09Y4O78PY16N52LCZSNVT1N1", "dateTime": 1520883207407}, {"current_trial": 245, "trialdata": {"rt": -1, "trial_type": "single-stim", "word": "donkey", "stimulus": "<p id=\"stim\">DONKEY</p>", "conditions": [24, 1600, "v", 24000], "internal_node_id": "0.0-173.0", "trial": 7, "time_elapsed": 1132168, "serialpos": 4, "key_press": -1, "wordID": 483, "type": "PRES_VIS", "trial_index": 245}, "uniqueid": "MTK3661:3QIYRE09Y4O78PY16N52LCZSNVT1N1", "dateTime": 1520883210194}, {"current_trial": 246, "trialdata": {"rt": -1, "trial_type": "single-stim", "word": "slide", "stimulus": "<p id=\"stim\">SLIDE</p>", "conditions": [24, 1600, "v", 24000], "internal_node_id": "0.0-174.0", "trial": 7, "time_elapsed": 1134724, "serialpos": 5, "key_press": -1, "wordID": 1325, "type": "PRES_VIS", "trial_index": 246}, "uniqueid": "MTK3661:3QIYRE09Y4O78PY16N52LCZSNVT1N1", "dateTime": 1520883212749}, {"current_trial": 247, "trialdata": {"rt": -1, "trial_type": "single-stim", "word": "racket", "stimulus": "<p id=\"stim\">RACKET</p>", "conditions": [24, 1600, "v", 24000], "internal_node_id": "0.0-175.0", "trial": 7, "time_elapsed": 1137321, "serialpos": 6, "key_press": -1, "wordID": 1154, "type": "PRES_VIS", "trial_index": 247}, "uniqueid": "MTK3661:3QIYRE09Y4O78PY16N52LCZSNVT1N1", "dateTime": 1520883215346}, {"current_trial": 248, "trialdata": {"rt": -1, "trial_type": "single-stim", "word": "asia", "stimulus": "<p id=\"stim\">ASIA</p>", "conditions": [24, 1600, "v", 24000], "internal_node_id": "0.0-176.0", "trial": 7, "time_elapsed": 1139959, "serialpos": 7, "key_press": -1, "wordID": 45, "type": "PRES_VIS", "trial_index": 248}, "uniqueid": "MTK3661:3QIYRE09Y4O78PY16N52LCZSNVT1N1", "dateTime": 1520883217984}, {"current_trial": 249, "trialdata": {"rt": -1, "trial_type": "single-stim", "word": "apple", "stimulus": "<p id=\"stim\">APPLE</p>", "conditions": [24, 1600, "v", 24000], "internal_node_id": "0.0-177.0", "trial": 7, "time_elapsed": 1142507, "serialpos": 8, "key_press": -1, "wordID": 32, "type": "PRES_VIS", "trial_index": 249}, "uniqueid": "MTK3661:3QIYRE09Y4O78PY16N52LCZSNVT1N1", "dateTime": 1520883220532}, {"current_trial": 250, "trialdata": {"rt": -1, "trial_type": "single-stim", "word": "novel", "stimulus": "<p id=\"stim\">NOVEL</p>", "conditions": [24, 1600, "v", 24000], "internal_node_id": "0.0-178.0", "trial": 7, "time_elapsed": 1145236, "serialpos": 9, "key_press": -1, "wordID": 959, "type": "PRES_VIS", "trial_index": 250}, "uniqueid": "MTK3661:3QIYRE09Y4O78PY16N52LCZSNVT1N1", "dateTime": 1520883223262}, {"current_trial": 251, "trialdata": {"rt": -1, "trial_type": "single-stim", "word": "college", "stimulus": "<p id=\"stim\">COLLEGE</p>", "conditions": [24, 1600, "v", 24000], "internal_node_id": "0.0-179.0", "trial": 7, "time_elapsed": 1148032, "serialpos": 10, "key_press": -1, "wordID": 345, "type": "PRES_VIS", "trial_index": 251}, "uniqueid": "MTK3661:3QIYRE09Y4O78PY16N52LCZSNVT1N1", "dateTime": 1520883226058}, {"current_trial": 252, "trialdata": {"rt": -1, "trial_type": "single-stim", "word": "europe", "stimulus": "<p id=\"stim\">EUROPE</p>", "conditions": [24, 1600, "v", 24000], "internal_node_id": "0.0-180.0", "trial": 7, "time_elapsed": 1150533, "serialpos": 11, "key_press": -1, "wordID": 540, "type": "PRES_VIS", "trial_index": 252}, "uniqueid": "MTK3661:3QIYRE09Y4O78PY16N52LCZSNVT1N1", "dateTime": 1520883228559}, {"current_trial": 253, "trialdata": {"rt": -1, "trial_type": "single-stim", "word": "hatchet", "stimulus": "<p id=\"stim\">HATCHET</p>", "conditions": [24, 1600, "v", 24000], "internal_node_id": "0.0-181.0", "trial": 7, "time_elapsed": 1153133, "serialpos": 12, "key_press": -1, "wordID": 690, "type": "PRES_VIS", "trial_index": 253}, "uniqueid": "MTK3661:3QIYRE09Y4O78PY16N52LCZSNVT1N1", "dateTime": 1520883231159}, {"current_trial": 254, "trialdata": {"rt": -1, "trial_type": "single-stim", "word": "quarter", "stimulus": "<p id=\"stim\">QUARTER</p>", "conditions": [24, 1600, "v", 24000], "internal_node_id": "0.0-182.0", "trial": 7, "time_elapsed": 1155554, "serialpos": 13, "key_press": -1, "wordID": 1147, "type": "PRES_VIS", "trial_index": 254}, "uniqueid": "MTK3661:3QIYRE09Y4O78PY16N52LCZSNVT1N1", "dateTime": 1520883233580}, {"current_trial": 255, "trialdata": {"rt": -1, "trial_type": "single-stim", "word": "spider", "stimulus": "<p id=\"stim\">SPIDER</p>", "conditions": [24, 1600, "v", 24000], "internal_node_id": "0.0-183.0", "trial": 7, "time_elapsed": 1158015, "serialpos": 14, "key_press": -1, "wordID": 1350, "type": "PRES_VIS", "trial_index": 255}, "uniqueid": "MTK3661:3QIYRE09Y4O78PY16N52LCZSNVT1N1", "dateTime": 1520883236041}, {"current_trial": 256, "trialdata": {"rt": -1, "trial_type": "single-stim", "word": "costume", "stimulus": "<p id=\"stim\">COSTUME</p>", "conditions": [24, 1600, "v", 24000], "internal_node_id": "0.0-184.0", "trial": 7, "time_elapsed": 1160635, "serialpos": 15, "key_press": -1, "wordID": 382, "type": "PRES_VIS", "trial_index": 256}, "uniqueid": "MTK3661:3QIYRE09Y4O78PY16N52LCZSNVT1N1", "dateTime": 1520883238660}, {"