{"assignmentId": "3ATPCQ38J9HXECFF9876DTQ2UV6AYY", "workerId": "MTK3041", "questiondata": {"origin": "United States", "strat-rehearsal": "85", "marital": "Married/Domestic Partnership", "education": "Bachelor's degree", "ethnicity": "Not Hispanic", "color_depth": 24, "distracted": "No", "wrote-notes": "Yes", "strat-other": "Mentally noting properties of words -- number of syllables; palindromic sequences, similarities in spelling. (I don't think it helped.) Also, I took a break to eat a piece of bread, hoping it would help. (I don't think it helped.)", "screen_width": 1440, "avail_screen_width": 1408, "avail_screen_height": 878, "strat-image": "70", "language": "English", "gender": "Female", "age": "59", "gender_other": "", "race": ["White"], "strat-categorize": "95", "pixel_depth": 24, "strat-spatial": "0", "strat-story": "85", "race_other": "", "screen_height": 900}, "bonus": 0, "hitId": "3KI0JD2ZU1PBP69H6KVSVR8Z90B67L", "counterbalance": 2090, "useragent": "Mozilla/5.0 (Macintosh; Intel Mac OS X 10_9_5) AppleWebKit/537.36 (KHTML, like Gecko) Chrome/64.0.3282.186 Safari/537.36", "eventdata": [{"eventtype": "initialized", "interval": 0, "value": null, "timestamp": 1519673135102}, {"eventtype": "window_resize", "interval": 0, "value": [1408, 827], "timestamp": 1519673135102}, {"eventtype": "focus", "interval": 58874, "value": "off", "timestamp": 1519673193976}, {"eventtype": "focus", "interval": 187, "value": "on", "timestamp": 1519673194163}], "data": [{"current_trial": 0, "trialdata": {"rt": 36251, "trial_type": "text", "internal_node_id": "0.0-0.0", "time_elapsed": 36254, "key_press": 32, "type": "INSTRUCTIONS", "trial_index": 0}, "uniqueid": "MTK3041:3ATPCQ38J9HXECFF9876DTQ2UV6AYY", "dateTime": 1519673172025}, {"current_trial": 1, "trialdata": {"rt": 15148, "trial_type": "text", "internal_node_id": "0.0-1.0", "time_elapsed": 51405, "key_press": 78, "type": "INSTRUCTIONS", "trial_index": 1}, "uniqueid": "MTK3041:3ATPCQ38J9HXECFF9876DTQ2UV6AYY", "dateTime": 1519673187174}, {"current_trial": 2, "trialdata": {"rt": [3974, 12054], "trial_type": "audio-test", "responses": ["n", "ocean"], "internal_node_id": "0.0-2.0", "time_elapsed": 63471, "type": "AUDIO_TEST", "trial_index": 2}, "uniqueid": "MTK3041:3ATPCQ38J9HXECFF9876DTQ2UV6AYY", "dateTime": 1519673199240}, {"current_trial": 3, "trialdata": {"rt": [6646], "trial_type": "audio-test", "responses": ["crystal"], "internal_node_id": "0.0-3.0", "time_elapsed": 70122, "type": "AUDIO_TEST", "trial_index": 3}, "uniqueid": "MTK3041:3ATPCQ38J9HXECFF9876DTQ2UV6AYY", "dateTime": 1519673205891}, {"current_trial": 4, "trialdata": {"rt": [5745], "trial_type": "audio-test", "responses": ["spice"], "internal_node_id": "0.0-4.0", "time_elapsed": 75872, "type": "AUDIO_TEST", "trial_index": 4}, "uniqueid": "MTK3041:3ATPCQ38J9HXECFF9876DTQ2UV6AYY", "dateTime": 1519673211642}, {"current_trial": 5, "trialdata": {"rt": 19065, "trial_type": "survey-text", "responses": "{\"Q0\":\"11 p.m.\",\"Q1\":\"6 a.m.\",\"Q2\":\"4\"}", "internal_node_id": "0.0-5.0", "time_elapsed": 95691, "type": "SLEEP_SURVEY", "trial_index": 5}, "uniqueid": "MTK3041:3ATPCQ38J9HXECFF9876DTQ2UV6AYY", "dateTime": 1519673231460}, {"current_trial": 6, "trialdata": {"rt": 79442, "trial_type": "text", "internal_node_id": "0.0-6.0", "time_elapsed": 176137, "key_press": 66, "type": "INSTRUCTIONS", "trial_index": 6}, "uniqueid": "MTK3041:3ATPCQ38J9HXECFF9876DTQ2UV6AYY", "dateTime": 1519673311906}, {"current_trial": 7, "trialdata": {"rt": 21524, "trial_type": "text", "internal_node_id": "0.0-7.0", "time_elapsed": 198164, "key_press": 32, "type": "INSTRUCTIONS", "trial_index": 7}, "uniqueid": "MTK3041:3ATPCQ38J9HXECFF9876DTQ2UV6AYY", "dateTime": 1519673333933}, {"current_trial": 8, "trialdata": {"rt": 7450, "trial_type": "text", "internal_node_id": "0.0-8.0", "time_elapsed": 206117, "key_press": 74, "type": "INSTRUCTIONS", "trial_index": 8}, "uniqueid": "MTK3041:3ATPCQ38J9HXECFF9876DTQ2UV6AYY", "dateTime": 1519673341886}, {"current_trial": 9, "trialdata": {"rt": [2217, 3842, 6010, 7490, 9769, 12466, 15017, 17241], "trial_type": "math-distractor", "key_times": [1706, 2217, 3570, 3698, 3842, 5706, 5866, 6010, 7225, 7386, 7490, 9482, 9594, 9769, 12155, 12290, 12466, 14706, 15017, 16986, 17106, 17241], "responses": ["6", "13", "14", "11", "14", "23", "9", "14"], "num2": [1, 3, 4, 8, 9, 6, 2, 3, 4], "num3": [4, 9, 2, 2, 3, 8, 4, 7, 3], "conditions": [18, 1200, "v", 18000], "internal_node_id": "0.0-9.0", "key_presses": [54, 13, 49, 51, 13, 49, 52, 13, 49, 49, 13, 49, 52, 13, 50, 51, 13, 57, 13, 49, 52, 13], "trial": 0, "time_elapsed": 225124, "type": "DISTRACTOR", "trial_index": 9, "num1": [1, 1, 8, 1, 2, 9, 3, 4, 3]}, "uniqueid": "MTK3041:3ATPCQ38J9HXECFF9876DTQ2UV6AYY", "dateTime": 1519673360893}, {"current_trial": 10, "trialdata": {"rt": -1, "trial_type": "single-stim", "stimulus": "<p id=\"stim\">10</p>", "internal_node_id": "0.0-10.0-0.0", "time_elapsed": 228128, "key_press": -1, "trial_index": 10}, "uniqueid": "MTK3041:3ATPCQ38J9HXECFF9876DTQ2UV6AYY", "dateTime": 1519673363897}, {"current_trial": 11, "trialdata": {"rt": -1, "trial_type": "single-stim", "stimulus": "<p id=\"stim\">9</p>", "internal_node_id": "0.0-10.0-1.0", "time_elapsed": 229129, "key_press": -1, "trial_index": 11}, "uniqueid": "MTK3041:3ATPCQ38J9HXECFF9876DTQ2UV6AYY", "dateTime": 1519673364898}, {"current_trial": 12, "trialdata": {"rt": -1, "trial_type": "single-stim", "stimulus": "<p id=\"stim\">8</p>", "internal_node_id": "0.0-10.0-2.0", "time_elapsed": 230132, "key_press": -1, "trial_index": 12}, "uniqueid": "MTK3041:3ATPCQ38J9HXECFF9876DTQ2UV6AYY", "dateTime": 1519673365901}, {"current_trial": 13, "trialdata": {"rt": -1, "trial_type": "single-stim", "stimulus": "<p id=\"stim\">7</p>", "internal_node_id": "0.0-10.0-3.0", "time_elapsed": 231134, "key_press": -1, "trial_index": 13}, "uniqueid": "MTK3041:3ATPCQ38J9HXECFF9876DTQ2UV6AYY", "dateTime": 1519673366903}, {"current_trial": 14, "trialdata": {"rt": -1, "trial_type": "single-stim", "stimulus": "<p id=\"stim\">6</p>", "internal_node_id": "0.0-10.0-4.0", "time_elapsed": 232136, "key_press": -1, "trial_index": 14}, "uniqueid": "MTK3041:3ATPCQ38J9HXECFF9876DTQ2UV6AYY", "dateTime": 1519673367905}, {"current_trial": 15, "trialdata": {"rt": -1, "trial_type": "single-stim", "stimulus": "<p id=\"stim\">5</p>", "internal_node_id": "0.0-10.0-5.0", "time_elapsed": 233139, "key_press": -1, "trial_index": 15}, "uniqueid": "MTK3041:3ATPCQ38J9HXECFF9876DTQ2UV6AYY", "dateTime": 1519673368908}, {"current_trial": 16, "trialdata": {"rt": -1, "trial_type": "single-stim", "stimulus": "<p id=\"stim\">4</p>", "internal_node_id": "0.0-10.0-6.0", "time_elapsed": 234140, "key_press": -1, "trial_index": 16}, "uniqueid": "MTK3041:3ATPCQ38J9HXECFF9876DTQ2UV6AYY", "dateTime": 1519673369909}, {"current_trial": 17, "trialdata": {"rt": -1, "trial_type": "single-stim", "stimulus": "<p id=\"stim\">3</p>", "internal_node_id": "0.0-10.0-7.0", "time_elapsed": 235142, "key_press": -1, "trial_index": 17}, "uniqueid": "MTK3041:3ATPCQ38J9HXECFF9876DTQ2UV6AYY", "dateTime": 1519673370911}, {"current_trial": 18, "trialdata": {"rt": -1, "trial_type": "single-stim", "stimulus": "<p id=\"stim\">2</p>", "internal_node_id": "0.0-10.0-8.0", "time_elapsed": 236144, "key_press": -1, "trial_index": 18}, "uniqueid": "MTK3041:3ATPCQ38J9HXECFF9876DTQ2UV6AYY", "dateTime": 1519673371913}, {"current_trial": 19, "trialdata": {"rt": -1, "trial_type": "single-stim", "stimulus": "<p id=\"stim\">1</p>", "internal_node_id": "0.0-10.0-9.0", "time_elapsed": 237146, "key_press": -1, "trial_index": 19}, "uniqueid": "MTK3041:3ATPCQ38J9HXECFF9876DTQ2UV6AYY", "dateTime": 1519673372915}, {"current_trial": 20, "trialdata": {"rt": -1, "trial_type": "single-stim", "stimulus": "<p id=\"stim\">+</p>", "internal_node_id": "0.0-11.0-0.0", "time_elapsed": 238648, "key_press": -1, "type": "FIXATION", "trial_index": 20}, "uniqueid": "MTK3041:3ATPCQ38J9HXECFF9876DTQ2UV6AYY", "dateTime": 1519673374417}, {"current_trial": 21, "trialdata": {"rt": -1, "trial_type": "single-stim", "word": "blackboard", "stimulus": "<p id=\"stim\">BLACKBOARD</p>", "conditions": [18, 1200, "v", 18000], "internal_node_id": "0.0-12.0", "trial": 0, "time_elapsed": 239850, "serialpos": 0, "key_press": -1, "wordID": 132, "type": "PRES_VIS", "trial_index": 21}, "uniqueid": "MTK3041:3ATPCQ38J9HXECFF9876DTQ2UV6AYY", "dateTime": 1519673375619}, {"current_trial": 22, "trialdata": {"rt": -1, "trial_type": "single-stim", "word": "grape", "stimulus": "<p id=\"stim\">GRAPE</p>", "conditions": [18, 1200, "v", 18000], "internal_node_id": "0.0-13.0", "trial": 0, "time_elapsed": 241914, "serialpos": 1, "key_press": -1, "wordID": 653, "type": "PRES_VIS", "trial_index": 22}, "uniqueid": "MTK3041:3ATPCQ38J9HXECFF9876DTQ2UV6AYY", "dateTime": 1519673377683}, {"current_trial": 23, "trialdata": {"rt": -1, "trial_type": "single-stim", "word": "ground", "stimulus": "<p id=\"stim\">GROUND</p>", "conditions": [18, 1200, "v", 18000], "internal_node_id": "0.0-14.0", "trial": 0, "time_elapsed": 244040, "serialpos": 2, "key_press": -1, "wordID": 665, "type": "PRES_VIS", "trial_index": 23}, "uniqueid": "MTK3041:3ATPCQ38J9HXECFF9876DTQ2UV6AYY", "dateTime": 1519673379809}, {"current_trial": 24, "trialdata": {"rt": -1, "trial_type": "single-stim", "word": "flask", "stimulus": "<p id=\"stim\">FLASK</p>", "conditions": [18, 1200, "v", 18000], "internal_node_id": "0.0-15.0", "trial": 0, "time_elapsed": 246100, "serialpos": 3, "key_press": -1, "wordID": 575, "type": "PRES_VIS", "trial_index": 24}, "uniqueid": "MTK3041:3ATPCQ38J9HXECFF9876DTQ2UV6AYY", "dateTime": 1519673381869}, {"current_trial": 25, "trialdata": {"rt": -1, "trial_type": "single-stim", "word": "creature", "stimulus": "<p id=\"stim\">CREATURE</p>", "conditions": [18, 1200, "v", 18000], "internal_node_id": "0.0-16.0", "trial": 0, "time_elapsed": 248166, "serialpos": 4, "key_press": -1, "wordID": 402, "type": "PRES_VIS", "trial_index": 25}, "uniqueid": "MTK3041:3ATPCQ38J9HXECFF9876DTQ2UV6AYY", "dateTime": 1519673383935}, {"current_trial": 26, "trialdata": {"rt": -1, "trial_type": "single-stim", "word": "award", "stimulus": "<p id=\"stim\">AWARD</p>", "conditions": [18, 1200, "v", 18000], "internal_node_id": "0.0-17.0", "trial": 0, "time_elapsed": 250187, "serialpos": 5, "key_press": -1, "wordID": 62, "type": "PRES_VIS", "trial_index": 26}, "uniqueid": "MTK3041:3ATPCQ38J9HXECFF9876DTQ2UV6AYY", "dateTime": 1519673385956}, {"current_trial": 27, "trialdata": {"rt": -1, "trial_type": "single-stim", "word": "whistle", "stimulus": "<p id=\"stim\">WHISTLE</p>", "conditions": [18, 1200, "v", 18000], "internal_node_id": "0.0-18.0", "trial": 0, "time_elapsed": 252201, "serialpos": 6, "key_press": -1, "wordID": 1605, "type": "PRES_VIS", "trial_index": 27}, "uniqueid": "MTK3041:3ATPCQ38J9HXECFF9876DTQ2UV6AYY", "dateTime": 1519673387970}, {"current_trial": 28, "trialdata": {"rt": -1, "trial_type": "single-stim", "word": "receipt", "stimulus": "<p id=\"stim\">RECEIPT</p>", "conditions": [18, 1200, "v", 18000], "internal_node_id": "0.0-19.0", "trial": 0, "time_elapsed": 254491, "serialpos": 7, "key_press": -1, "wordID": 1172, "type": "PRES_VIS", "trial_index": 28}, "uniqueid": "MTK3041:3ATPCQ38J9HXECFF9876DTQ2UV6AYY", "dateTime": 1519673390260}, {"current_trial": 29, "trialdata": {"rt": -1, "trial_type": "single-stim", "word": "cowboy", "stimulus": "<p id=\"stim\">COWBOY</p>", "conditions": [18, 1200, "v", 18000], "internal_node_id": "0.0-20.0", "trial": 0, "time_elapsed": 256710, "serialpos": 8, "key_press": -1, "wordID": 394, "type": "PRES_VIS", "trial_index": 29}, "uniqueid": "MTK3041:3ATPCQ38J9HXECFF9876DTQ2UV6AYY", "dateTime": 1519673392479}, {"current_trial": 30, "trialdata": {"rt": -1, "trial_type": "single-stim", "word": "lake", "stimulus": "<p id=\"stim\">LAKE</p>", "conditions": [18, 1200, "v", 18000], "internal_node_id": "0.0-21.0", "trial": 0, "time_elapsed": 258898, "serialpos": 9, "key_press": -1, "wordID": 795, "type": "PRES_VIS", "trial_index": 30}, "uniqueid": "MTK3041:3ATPCQ38J9HXECFF9876DTQ2UV6AYY", "dateTime": 1519673394667}, {"current_trial": 31, "trialdata": {"rt": -1, "trial_type": "single-stim", "word": "freezer", "stimulus": "<p id=\"stim\">FREEZER</p>", "conditions": [18, 1200, "v", 18000], "internal_node_id": "0.0-22.0", "trial": 0, "time_elapsed": 260966, "serialpos": 10, "key_press": -1, "wordID": 603, "type": "PRES_VIS", "trial_index": 31}, "uniqueid": "MTK3041:3ATPCQ38J9HXECFF9876DTQ2UV6AYY", "dateTime": 1519673396735}, {"current_trial": 32, "trialdata": {"rt": -1, "trial_type": "single-stim", "word": "picnic", "stimulus": "<p id=\"stim\">PICNIC</p>", "conditions": [18, 1200, "v", 18000], "internal_node_id": "0.0-23.0", "trial": 0, "time_elapsed": 263273, "serialpos": 11, "key_press": -1, "wordID": 1059, "type": "PRES_VIS", "trial_index": 32}, "uniqueid": "MTK3041:3ATPCQ38J9HXECFF9876DTQ2UV6AYY", "dateTime": 1519673399042}, {"current_trial": 33, "trialdata": {"rt": -1, "trial_type": "single-stim", "word": "shark", "stimulus": "<p id=\"stim\">SHARK</p>", "conditions": [18, 1200, "v", 18000], "internal_node_id": "0.0-24.0", "trial": 0, "time_elapsed": 265492, "serialpos": 12, "key_press": -1, "wordID": 1274, "type": "PRES_VIS", "trial_index": 33}, "uniqueid": "MTK3041:3ATPCQ38J9HXECFF9876DTQ2UV6AYY", "dateTime": 1519673401261}, {"current_trial": 34, "trialdata": {"rt": -1, "trial_type": "single-stim", "word": "arm", "stimulus": "<p id=\"stim\">ARM</p>", "conditions": [18, 1200, "v", 18000], "internal_node_id": "0.0-25.0", "trial": 0, "time_elapsed": 267660, "serialpos": 13, "key_press": -1, "wordID": 37, "type": "PRES_VIS", "trial_index": 34}, "uniqueid": "MTK3041:3ATPCQ38J9HXECFF9876DTQ2UV6AYY", "dateTime": 1519673403429}, {"current_trial": 35, "trialdata": {"rt": -1, "trial_type": "single-stim", "word": "author", "stimulus": "<p id=\"stim\">AUTHOR</p>", "conditions": [18, 1200, "v", 18000], "internal_node_id": "0.0-26.0", "trial": 0, "time_elapsed": 269958, "serialpos": 14, "key_press": -1, "wordID": 60, "type": "PRES_VIS", "trial_index": 35}, "uniqueid": "MTK3041:3ATPCQ38J9HXECFF9876DTQ2UV6AYY", "dateTime": 1519673405727}, {"current_trial": 36, "trialdata": {"rt": -1, "trial_type": "single-stim", "word": "mailbox", "stimulus": "<p id=\"stim\">MAILBOX</p>", "conditions": [18, 1200, "v", 18000], "internal_node_id": "0.0-27.0", "trial": 0, "time_elapsed": 272083, "serialpos": 15, "key_press": -1, "wordID": 856, "type": "PRES_VIS", "trial_index": 36}, "uniqueid": "MTK3041:3ATPCQ38J9HXECFF9876DTQ2UV6AYY", "dateTime": 1519673407852}, {"current_trial": 37, "trialdata": {"rt": -1, "trial_type": "single-stim", "word": "contract", "stimulus": "<p id=\"stim\">CONTRACT</p>", "conditions": [18, 1200, "v", 18000], "internal_node_id": "0.0-28.0", "trial": 0, "time_elapsed": 274196, "serialpos": 16, "key_press": -1, "wordID": 367, "type": "PRES_VIS", "trial_index": 37}, "uniqueid": "MTK3041:3ATPCQ38J9HXECFF9876DTQ2UV6AYY", "dateTime": 1519673409965}, {"current_trial": 38, "trialdata": {"rt": -1, "trial_type": "single-stim", "word": "keeper", "stimulus": "<p id=\"stim\">KEEPER</p>", "conditions": [18, 1200, "v", 18000], "internal_node_id": "0.0-29.0", "trial": 0, "time_elapsed": 276325, "serialpos": 17, "key_press": -1, "wordID": 768, "type": "PRES_VIS", "trial_index": 38}, "uniqueid": "MTK3041:3ATPCQ38J9HXECFF9876DTQ2UV6AYY", "dateTime": 1519673412095}, {"current_trial": 39, "trialdata": {"rt": -1, "trial_type": "single-stim", "stimulus": "", "internal_node_id": "0.0-30.0-0.0", "time_elapsed": 278594, "key_press": -1, "type": "PRE_RECALL_DELAY", "trial_index": 39}, "uniqueid": "MTK3041:3ATPCQ38J9HXECFF9876DTQ2UV6AYY", "dateTime": 1519673414363}, {"current_trial": 40, "trialdata": {"rt": -1000, "trial_type": "single-audio", "stimulus": "/static/audio/400Hz.wav", "internal_node_id": "0.0-31.0", "time_elapsed": 279160, "key_press": -1, "type": "PRE_RECALL_ALERT", "trial_index": 40}, "uniqueid": "MTK3041:3ATPCQ38J9HXECFF9876DTQ2UV6AYY", "dateTime": 1519673414929}, {"current_trial": 41, "trialdata": {"rt": [2663, 3846, 5864, 9375, 12911, 16599, 44026, 45523], "recwords": ["contract", "keeper", "cowboy", "receipt", "mailman", "contract", "keeper", "receipt"], "key_times": [1536, 1639, 1783, 1847, 2015, 2112, 2287, 2511, 2663, 3078, 3175, 3320, 3423, 3543, 3631, 3846, 4711, 4839, 5032, 5240, 5488, 5663, 5864, 6255, 6320, 6567, 6760, 7103, 7967, 8486, 8671, 8839, 8983, 9159, 9375, 11407, 11552, 11815, 12000, 12343, 12463, 12664, 12911, 14840, 15191, 15359, 15726, 15935, 16007, 16254, 16455, 16599, 43179, 43251, 43395, 43539, 43723, 43866, 44026, 44403, 44475, 44715, 44930, 45041, 45171, 45363, 45523], "trial_type": "free-recall", "conditions": [18, 1200, "v", 18000], "internal_node_id": "0.0-32.0-0.0", "key_presses": [67, 79, 78, 84, 82, 65, 67, 84, 13, 75, 69, 69, 80, 69, 82, 13, 67, 79, 87, 66, 79, 89, 13, 82, 69, 67, 73, 69, 8, 8, 69, 73, 80, 84, 13, 77, 65, 73, 76, 77, 65, 78, 13, 67, 79, 78, 84, 82, 65, 67, 84, 13, 75, 69, 69, 80, 69, 82, 13, 82, 69, 67, 69, 73, 80, 84, 13], "trial": 0, "time_elapsed": 339163, "type": "FREE_RECALL", "trial_index": 41}, "uniqueid": "MTK3041:3ATPCQ38J9HXECFF9876DTQ2UV6AYY", "dateTime": 1519673474936}, {"current_trial": 42, "trialdata": {"rt": 2135, "trial_type": "text", "internal_node_id": "0.0-33.0", "time_elapsed": 343303, "key_press": 74, "type": "INSTRUCTIONS", "trial_index": 42}, "uniqueid": "MTK3041:3ATPCQ38J9HXECFF9876DTQ2UV6AYY", "dateTime": 1519673479072}, {"current_trial": 43, "trialdata": {"rt": [2206, 3622, 6470, 7646, 9711, 13446, 15101, 17390], "trial_type": "math-distractor", "key_times": [1318, 1429, 2206, 3366, 3526, 3622, 6094, 6238, 6470, 7406, 7574, 7646, 9382, 9558, 9711, 12974, 13198, 13446, 14894, 14965, 15101, 16861, 17069, 17390], "responses": ["17", "11", "19", "11", "15", "19", "13", "20"], "num2": [7, 3, 9, 1, 3, 9, 2, 8, 7], "num3": [9, 7, 4, 9, 7, 6, 2, 9, 6], "conditions": [18, 1200, "v", 18000], "internal_node_id": "0.0-34.0", "key_presses": [49, 55, 13, 49, 49, 13, 49, 57, 13, 49, 49, 13, 49, 53, 13, 49, 57, 13, 49, 51, 13, 50, 48, 13], "trial": 1, "time_elapsed": 363307, "type": "DISTRACTOR", "trial_index": 43, "num1": [1, 1, 6, 1, 5, 4, 9, 3, 7]}, "uniqueid": "MTK3041:3ATPCQ38J9HXECFF9876DTQ2UV6AYY", "dateTime": 1519673499076}, {"current_trial": 44, "trialdata": {"rt": -1, "trial_type": "single-stim", "stimulus": "<p id=\"stim\">10</p>", "internal_node_id": "0.0-35.0-0.0", "time_elapsed": 366310, "key_press": -1, "trial_index": 44}, "uniqueid": "MTK3041:3ATPCQ38J9HXECFF9876DTQ2UV6AYY", "dateTime": 1519673502080}, {"current_trial": 45, "trialdata": {"rt": -1, "trial_type": "single-stim", "stimulus": "<p id=\"stim\">9</p>", "internal_node_id": "0.0-35.0-1.0", "time_elapsed": 367312, "key_press": -1, "trial_index": 45}, "uniqueid": "MTK3041:3ATPCQ38J9HXECFF9876DTQ2UV6AYY", "dateTime": 1519673503082}, {"current_trial": 46, "trialdata": {"rt": -1, "trial_type": "single-stim", "stimulus": "<p id=\"stim\">8</p>", "internal_node_id": "0.0-35.0-2.0", "time_elapsed": 368315, "key_press": -1, "trial_index": 46}, "uniqueid": "MTK3041:3ATPCQ38J9HXECFF9876DTQ2UV6AYY", "dateTime": 1519673504084}, {"current_trial": 47, "trialdata": {"rt": -1, "trial_type": "single-stim", "stimulus": "<p id=\"stim\">7</p>", "internal_node_id": "0.0-35.0-3.0", "time_elapsed": 369318, "key_press": -1, "trial_index": 47}, "uniqueid": "MTK3041:3ATPCQ38J9HXECFF9876DTQ2UV6AYY", "dateTime": 1519673505087}, {"current_trial": 48, "trialdata": {"rt": -1, "trial_type": "single-stim", "stimulus": "<p id=\"stim\">6</p>", "internal_node_id": "0.0-35.0-4.0", "time_elapsed": 370319, "key_press": -1, "trial_index": 48}, "uniqueid": "MTK3041:3ATPCQ38J9HXECFF9876DTQ2UV6AYY", "dateTime": 1519673506089}, {"current_trial": 49, "trialdata": {"rt": -1, "trial_type": "single-stim", "stimulus": "<p id=\"stim\">5</p>", "internal_node_id": "0.0-35.0-5.0", "time_elapsed": 371321, "key_press": -1, "trial_index": 49}, "uniqueid": "MTK3041:3ATPCQ38J9HXECFF9876DTQ2UV6AYY", "dateTime": 1519673507090}, {"current_trial": 50, "trialdata": {"rt": -1, "trial_type": "single-stim", "stimulus": "<p id=\"stim\">4</p>", "internal_node_id": "0.0-35.0-6.0", "time_elapsed": 372323, "key_press": -1, "trial_index": 50}, "uniqueid": "MTK3041:3ATPCQ38J9HXECFF9876DTQ2UV6AYY", "dateTime": 1519673508092}, {"current_trial": 51, "trialdata": {"rt": -1, "trial_type": "single-stim", "stimulus": "<p id=\"stim\">3</p>", "internal_node_id": "0.0-35.0-7.0", "time_elapsed": 373325, "key_press": -1, "trial_index": 51}, "uniqueid": "MTK3041:3ATPCQ38J9HXECFF9876DTQ2UV6AYY", "dateTime": 1519673509095}, {"current_trial": 52, "trialdata": {"rt": -1, "trial_type": "single-stim", "stimulus": "<p id=\"stim\">2</p>", "internal_node_id": "0.0-35.0-8.0", "time_elapsed": 374328, "key_press": -1, "trial_index": 52}, "uniqueid": "MTK3041:3ATPCQ38J9HXECFF9876DTQ2UV6AYY", "dateTime": 1519673510097}, {"current_trial": 53, "trialdata": {"rt": -1, "trial_type": "single-stim", "stimulus": "<p id=\"stim\">1</p>", "internal_node_id": "0.0-35.0-9.0", "time_elapsed": 375329, "key_press": -1, "trial_index": 53}, "uniqueid": "MTK3041:3ATPCQ38J9HXECFF9876DTQ2UV6AYY", "dateTime": 1519673511098}, {"current_trial": 54, "trialdata": {"rt": -1, "trial_type": "single-stim", "stimulus": "<p id=\"stim\">+</p>", "internal_node_id": "0.0-36.0-0.0", "time_elapsed": 376831, "key_press": -1, "type": "FIXATION", "trial_index": 54}, "uniqueid": "MTK3041:3ATPCQ38J9HXECFF9876DTQ2UV6AYY", "dateTime": 1519673512601}, {"current_trial": 55, "trialdata": {"rt": -1, "trial_type": "single-stim", "word": "pilot", "stimulus": "<p id=\"stim\">PILOT</p>", "conditions": [18, 1200, "v", 18000], "internal_node_id": "0.0-37.0", "trial": 1, "time_elapsed": 378033, "serialpos": 0, "key_press": -1, "wordID": 1069, "type": "PRES_VIS", "trial_index": 55}, "uniqueid": "MTK3041:3ATPCQ38J9HXECFF9876DTQ2UV6AYY", "dateTime": 1519673513802}, {"current_trial": 56, "trialdata": {"rt": -1, "trial_type": "single-stim", "word": "shelter", "stimulus": "<p id=\"stim\">SHELTER</p>", "conditions": [18, 1200, "v", 18000], "internal_node_id": "0.0-38.0", "trial": 1, "time_elapsed": 380237, "serialpos": 1, "key_press": -1, "wordID": 1281, "type": "PRES_VIS", "trial_index": 56}, "uniqueid": "MTK3041:3ATPCQ38J9HXECFF9876DTQ2UV6AYY", "dateTime": 1519673516007}, {"current_trial": 57, "trialdata": {"rt": -1, "trial_type": "single-stim", "word": "nomad", "stimulus": "<p id=\"stim\">NOMAD</p>", "conditions": [18, 1200, "v", 18000], "internal_node_id": "0.0-39.0", "trial": 1, "time_elapsed": 382248, "serialpos": 2, "key_press": -1, "wordID": 954, "type": "PRES_VIS", "trial_index": 57}, "uniqueid": "MTK3041:3ATPCQ38J9HXECFF9876DTQ2UV6AYY", "dateTime": 1519673518017}, {"current_trial": 58, "trialdata": {"rt": -1, "trial_type": "single-stim", "word": "box", "stimulus": "<p id=\"stim\">BOX</p>", "conditions": [18, 1200, "v", 18000], "internal_node_id": "0.0-40.0", "trial": 1, "time_elapsed": 384462, "serialpos": 3, "key_press": -1, "wordID": 158, "type": "PRES_VIS", "trial_index": 58}, "uniqueid": "MTK3041:3ATPCQ38J9HXECFF9876DTQ2UV6AYY", "dateTime": 1519673520231}, {"current_trial": 59, "trialdata": {"rt": -1, "trial_type": "single-stim", "word": "clock", "stimulus": "<p id=\"stim\">CLOCK</p>", "conditions": [18, 1200, "v", 18000], "internal_node_id": "0.0-41.0", "trial": 1, "time_elapsed": 386496, "serialpos": 4, "key_press": -1, "wordID": 324, "type": "PRES_VIS", "trial_index": 59}, "uniqueid": "MTK3041:3ATPCQ38J9HXECFF9876DTQ2UV6AYY", "dateTime": 1519673522265}, {"current_trial": 60, "trialdata": {"rt": -1, "trial_type": "single-stim", "word": "garlic", "stimulus": "<p id=\"stim\">GARLIC</p>", "conditions": [18, 1200, "v", 18000], "internal_node_id": "0.0-42.0", "trial": 1, "time_elapsed": 388655, "serialpos": 5, "key_press": -1, "wordID": 623, "type": "PRES_VIS", "trial_index": 60}, "uniqueid": "MTK3041:3ATPCQ38J9HXECFF9876DTQ2UV6AYY", "dateTime": 1519673524425}, {"current_trial": 61, "trialdata": {"rt": -1, "trial_type": "single-stim", "word": "princess", "stimulus": "<p id=\"stim\">PRINCESS</p>", "conditions": [18, 1200, "v", 18000], "internal_node_id": "0.0-43.0", "trial": 1, "time_elapsed": 390673, "serialpos": 6, "key_press": -1, "wordID": 1124, "type": "PRES_VIS", "trial_index": 61}, "uniqueid": "MTK3041:3ATPCQ38J9HXECFF9876DTQ2UV6AYY", "dateTime": 1519673526442}, {"current_trial": 62, "trialdata": {"rt": -1, "trial_type": "single-stim", "word": "banquet", "stimulus": "<p id=\"stim\">BANQUET</p>", "conditions": [18, 1200, "v", 18000], "internal_node_id": "0.0-44.0", "trial": 1, "time_elapsed": 392874, "serialpos": 7, "key_press": -1, "wordID": 85, "type": "PRES_VIS", "trial_index": 62}, "uniqueid": "MTK3041:3ATPCQ38J9HXECFF9876DTQ2UV6AYY", "dateTime": 1519673528644}, {"current_trial": 63, "trialdata": {"rt": -1, "trial_type": "single-stim", "word": "fireman", "stimulus": "<p id=\"stim\">FIREMAN</p>", "conditions": [18, 1200, "v", 18000], "internal_node_id": "0.0-45.0", "trial": 1, "time_elapsed": 395016, "serialpos": 8, "key_press": -1, "wordID": 568, "type": "PRES_VIS", "trial_index": 63}, "uniqueid": "MTK3041:3ATPCQ38J9HXECFF9876DTQ2UV6AYY", "dateTime": 1519673530786}, {"current_trial": 64, "trialdata": {"rt": -1, "trial_type": "single-stim", "word": "lion", "stimulus": "<p id=\"stim\">LION</p>", "conditions": [18, 1200, "v", 18000], "internal_node_id": "0.0-46.0", "trial": 1, "time_elapsed": 397066, "serialpos": 9, "key_press": -1, "wordID": 826, "type": "PRES_VIS", "trial_index": 64}, "uniqueid": "MTK3041:3ATPCQ38J9HXECFF9876DTQ2UV6AYY", "dateTime": 1519673532835}, {"current_trial": 65, "trialdata": {"rt": -1, "trial_type": "single-stim", "word": "cupboard", "stimulus": "<p id=\"stim\">CUPBOARD</p>", "conditions": [18, 1200, "v", 18000], "internal_node_id": "0.0-47.0", "trial": 1, "time_elapsed": 399080, "serialpos": 10, "key_press": -1, "wordID": 424, "type": "PRES_VIS", "trial_index": 65}, "uniqueid": "MTK3041:3ATPCQ38J9HXECFF9876DTQ2UV6AYY", "dateTime": 1519673534850}, {"current_trial": 66, "trialdata": {"rt": -1, "trial_type": "single-stim", "word": "guard", "stimulus": "<p id=\"stim\">GUARD</p>", "conditions": [18, 1200, "v", 18000], "internal_node_id": "0.0-48.0", "trial": 1, "time_elapsed": 401201, "serialpos": 11, "key_press": -1, "wordID": 666, "type": "PRES_VIS", "trial_index": 66}, "uniqueid": "MTK3041:3ATPCQ38J9HXECFF9876DTQ2UV6AYY", "dateTime": 1519673536971}, {"current_trial": 67, "trialdata": {"rt": -1, "trial_type": "single-stim", "word": "stallion", "stimulus": "<p id=\"stim\">STALLION</p>", "conditions": [18, 1200, "v", 18000], "internal_node_id": "0.0-49.0", "trial": 1, "time_elapsed": 403388, "serialpos": 12, "key_press": -1, "wordID": 1368, "type": "PRES_VIS", "trial_index": 67}, "uniqueid": "MTK3041:3ATPCQ38J9HXECFF9876DTQ2UV6AYY", "dateTime": 1519673539157}, {"current_trial": 68, "trialdata": {"rt": -1, "trial_type": "single-stim", "word": "casket", "stimulus": "<p id=\"stim\">CASKET</p>", "conditions": [18, 1200, "v", 18000], "internal_node_id": "0.0-50.0", "trial": 1, "time_elapsed": 405696, "serialpos": 13, "key_press": -1, "wordID": 254, "type": "PRES_VIS", "trial_index": 68}, "uniqueid": "MTK3041:3ATPCQ38J9HXECFF9876DTQ2UV6AYY", "dateTime": 1519673541468}, {"current_trial": 69, "trialdata": {"rt": -1, "trial_type": "single-stim", "word": "poet", "stimulus": "<p id=\"stim\">POET</p>", "conditions": [18, 1200, "v", 18000], "internal_node_id": "0.0-51.0", "trial": 1, "time_elapsed": 407768, "serialpos": 14, "key_press": -1, "wordID": 1094, "type": "PRES_VIS", "trial_index": 69}, "uniqueid": "MTK3041:3ATPCQ38J9HXECFF9876DTQ2UV6AYY", "dateTime": 1519673543537}, {"current_trial": 70, "trialdata": {"rt": -1, "trial_type": "single-stim", "word": "oyster", "stimulus": "<p id=\"stim\">OYSTER</p>", "conditions": [18, 1200, "v", 18000], "internal_node_id": "0.0-52.0", "trial": 1, "time_elapsed": 409943, "serialpos": 15, "key_press": -1, "wordID": 994, "type": "PRES_VIS", "trial_index": 70}, "uniqueid": "MTK3041:3ATPCQ38J9HXECFF9876DTQ2UV6AYY", "dateTime": 1519673545713}, {"current_trial": 71, "trialdata": {"rt": -1, "trial_type": "single-stim", "word": "garbage", "stimulus": "<p id=\"stim\">GARBAGE</p>", "conditions": [18, 1200, "v", 18000], "internal_node_id": "0.0-53.0", "trial": 1, "time_elapsed": 412055, "serialpos": 16, "key_press": -1, "wordID": 621, "type": "PRES_VIS", "trial_index": 71}, "uniqueid": "MTK3041:3ATPCQ38J9HXECFF9876DTQ2UV6AYY", "dateTime": 1519673547825}, {"current_trial": 72, "trialdata": {"rt": -1, "trial_type": "single-stim", "word": "glass", "stimulus": "<p id=\"stim\">GLASS</p>", "conditions": [18, 1200, "v", 18000], "internal_node_id": "0.0-54.0", "trial": 1, "time_elapsed": 414297, "serialpos": 17, "key_press": -1, "wordID": 638, "type": "PRES_VIS", "trial_index": 72}, "uniqueid": "MTK3041:3ATPCQ38J9HXECFF9876DTQ2UV6AYY", "dateTime": 1519673550066}, {"current_trial": 73, "trialdata": {"rt": -1, "trial_type": "single-stim", "stimulus": "", "internal_node_id": "0.0-55.0-0.0", "time_elapsed": 416420, "key_press": -1, "type": "PRE_RECALL_DELAY", "trial_index": 73}, "uniqueid": "MTK3041:3ATPCQ38J9HXECFF9876DTQ2UV6AYY", "dateTime": 1519673552189}, {"current_trial": 74, "trialdata": {"rt": -1000, "trial_type": "single-audio", "stimulus": "/static/audio/400Hz.wav", "internal_node_id": "0.0-56.0", "time_elapsed": 416921, "key_press": -1, "type": "PRE_RECALL_ALERT", "trial_index": 74}, "uniqueid": "MTK3041:3ATPCQ38J9HXECFF9876DTQ2UV6AYY", "dateTime": 1519673552690}, {"current_trial": 75, "trialdata": {"rt": [2294, 3774, 5151, 6727, 9606, 16262, 37531, 48075, 56148], "recwords": ["stallion", "pilot", "oyster", "garbage", "glass", "cupboard", "flask", "cowboy", "damage"], "key_times": [711, 903, 1015, 1175, 1312, 1487, 1551, 1735, 2294, 2863, 3047, 3246, 3439, 3575, 3774, 4159, 4359, 4542, 4671, 4726, 4839, 5151, 5495, 5647, 5743, 6047, 6135, 6431, 6535, 6727, 7095, 7262, 7382, 7854, 7990, 8182, 8583, 8775, 8942, 9127, 9303, 9606, 14824, 15070, 15206, 15430, 15573, 15735, 15910, 16070, 16262, 36812, 36955, 37059, 37170, 37324, 37531, 46731, 46996, 47220, 47491, 47595, 47812, 48075, 55243, 55419, 55627, 55706, 55890, 55996, 56148], "trial_type": "free-recall", "conditions": [18, 1200, "v", 18000], "internal_node_id": "0.0-57.0-0.0", "key_presses": [83, 84, 65, 76, 76, 73, 79, 78, 13, 80, 73, 76, 79, 84, 13, 79, 89, 83, 84, 69, 82, 13, 71, 65, 82, 66, 65, 71, 69, 13, 71, 65, 76, 8, 8, 8, 71, 76, 65, 83, 83, 13, 67, 85, 80, 66, 79, 65, 82, 68, 13, 70, 76, 65, 83, 75, 13, 67, 79, 87, 66, 79, 89, 13, 68, 65, 77, 65, 71, 69, 13], "trial": 1, "time_elapsed": 476924, "type": "FREE_RECALL", "trial_index": 75}, "uniqueid": "MTK3041:3ATPCQ38J9HXECFF9876DTQ2UV6AYY", "dateTime": 1519673612696}, {"current_trial": 76, "trialdata": {"rt": 2701, "trial_type": "text", "internal_node_id": "0.0-58.0", "time_elapsed": 481630, "key_press": 32, "type": "INSTRUCTIONS", "trial_index": 76}, "uniqueid": "MTK3041:3ATPCQ38J9HXECFF9876DTQ2UV6AYY", "dateTime": 1519673617399}, {"current_trial": 77, "trialdata": {"rt": [2555, 4060, 7315, 9067, 10363, 12755, 14331, 16507, 20795, 23812], "trial_type": "math-distractor", "key_times": [1284, 2259, 2555, 3556, 3763, 4060, 7084, 7227, 7315, 8707, 8883, 9067, 10172, 10251, 10363, 12075, 12531, 12755, 13891, 14019, 14331, 16227, 16355, 16507, 20563, 20667, 20795, 23243, 23443, 23812], "responses": ["10", "18", "22", "16", "14", "15", "10", "23", "23", "16"], "num2": [1, 8, 9, 3, 4, 3, 1, 6, 6, 5, 2], "num3": [8, 5, 5, 9, 9, 6, 5, 8, 9, 3, 5], "conditions": [12, 800, "v", 24000], "internal_node_id": "0.0-59.0", "key_presses": [49, 48, 13, 49, 56, 13, 50, 50, 13, 49, 54, 13, 49, 52, 13, 49, 53, 13, 49, 48, 13, 50, 51, 13, 50, 51, 13, 49, 54, 13], "trial": 2, "time_elapsed": 506636, "type": "DISTRACTOR", "trial_index": 77, "num1": [1, 2, 7, 4, 1, 9, 4, 9, 8, 8, 1]}, "uniqueid": "MTK3041:3ATPCQ38J9HXECFF9876DTQ2UV6AYY", "dateTime": 1519673642405}, {"current_trial": 78, "trialdata": {"rt": -1, "trial_type": "single-stim", "stimulus": "<p id=\"stim\">10</p>", "internal_node_id": "0.0-60.0-0.0", "time_elapsed": 509639, "key_press": -1, "trial_index": 78}, "uniqueid": "MTK3041:3ATPCQ38J9HXECFF9876DTQ2UV6AYY", "dateTime": 1519673645408}, {"current_trial": 79, "trialdata": {"rt": -1, "trial_type": "single-stim", "stimulus": "<p id=\"stim\">9</p>", "internal_node_id": "0.0-60.0-1.0", "time_elapsed": 510641, "key_press": -1, "trial_index": 79}, "uniqueid": "MTK3041:3ATPCQ38J9HXECFF9876DTQ2UV6AYY", "dateTime": 1519673646410}, {"current_trial": 80, "trialdata": {"rt": -1, "trial_type": "single-stim", "stimulus": "<p id=\"stim\">8</p>", "internal_node_id": "0.0-60.0-2.0", "time_elapsed": 511644, "key_press": -1, "trial_index": 80}, "uniqueid": "MTK3041:3ATPCQ38J9HXECFF9876DTQ2UV6AYY", "dateTime": 1519673647413}, {"current_trial": 81, "trialdata": {"rt": -1, "trial_type": "single-stim", "stimulus": "<p id=\"stim\">7</p>", "internal_node_id": "0.0-60.0-3.0", "time_elapsed": 512645, "key_press": -1, "trial_index": 81}, "uniqueid": "MTK3041:3ATPCQ38J9HXECFF9876DTQ2UV6AYY", "dateTime": 1519673648414}, {"current_trial": 82, "trialdata": {"rt": -1, "trial_type": "single-stim", "stimulus": "<p id=\"stim\">6</p>", "internal_node_id": "0.0-60.0-4.0", "time_elapsed": 513646, "key_press": -1, "trial_index": 82}, "uniqueid": "MTK3041:3ATPCQ38J9HXECFF9876DTQ2UV6AYY", "dateTime": 1519673649415}, {"current_trial": 83, "trialdata": {"rt": -1, "trial_type": "single-stim", "stimulus": "<p id=\"stim\">5</p>", "internal_node_id": "0.0-60.0-5.0", "time_elapsed": 514648, "key_press": -1, "trial_index": 83}, "uniqueid": "MTK3041:3ATPCQ38J9HXECFF9876DTQ2UV6AYY", "dateTime": 1519673650417}, {"current_trial": 84, "trialdata": {"rt": -1, "trial_type": "single-stim", "stimulus": "<p id=\"stim\">4</p>", "internal_node_id": "0.0-60.0-6.0", "time_elapsed": 515650, "key_press": -1, "trial_index": 84}, "uniqueid": "MTK3041:3ATPCQ38J9HXECFF9876DTQ2UV6AYY", "dateTime": 1519673651419}, {"current_trial": 85, "trialdata": {"rt": -1, "trial_type": "single-stim", "stimulus": "<p id=\"stim\">3</p>", "internal_node_id": "0.0-60.0-7.0", "time_elapsed": 516652, "key_press": -1, "trial_index": 85}, "uniqueid": "MTK3041:3ATPCQ38J9HXECFF9876DTQ2UV6AYY", "dateTime": 1519673652422}, {"current_trial": 86, "trialdata": {"rt": -1, "trial_type": "single-stim", "stimulus": "<p id=\"stim\">2</p>", "internal_node_id": "0.0-60.0-8.0", "time_elapsed": 517655, "key_press": -1, "trial_index": 86}, "uniqueid": "MTK3041:3ATPCQ38J9HXECFF9876DTQ2UV6AYY", "dateTime": 1519673653424}, {"current_trial": 87, "trialdata": {"rt": -1, "trial_type": "single-stim", "stimulus": "<p id=\"stim\">1</p>", "internal_node_id": "0.0-60.0-9.0", "time_elapsed": 518656, "key_press": -1, "trial_index": 87}, "uniqueid": "MTK3041:3ATPCQ38J9HXECFF9876DTQ2UV6AYY", "dateTime": 1519673654425}, {"current_trial": 88, "trialdata": {"rt": -1, "trial_type": "single-stim", "stimulus": "<p id=\"stim\">+</p>", "internal_node_id": "0.0-61.0-0.0", "time_elapsed": 520158, "key_press": -1, "type": "FIXATION", "trial_index": 88}, "uniqueid": "MTK3041:3ATPCQ38J9HXECFF9876DTQ2UV6AYY", "dateTime": 1519673655927}, {"current_trial": 89, "trialdata": {"rt": -1, "trial_type": "single-stim", "word": "barrel", "stimulus": "<p id=\"stim\">BARREL</p>", "conditions": [12, 800, "v", 24000], "internal_node_id": "0.0-62.0", "trial": 2, "time_elapsed": 520961, "serialpos": 0, "key_press": -1, "wordID": 90, "type": "PRES_VIS", "trial_index": 89}, "uniqueid": "MTK3041:3ATPCQ38J9HXECFF9876DTQ2UV6AYY", "dateTime": 1519673656730}, {"current_trial": 90, "trialdata": {"rt": -1, "trial_type": "single-stim", "word": "gallon", "stimulus": "<p id=\"stim\">GALLON</p>", "conditions": [12, 800, "v", 24000], "internal_node_id": "0.0-63.0", "trial": 2, "time_elapsed": 522813, "serialpos": 1, "key_press": -1, "wordID": 617, "type": "PRES_VIS", "trial_index": 90}, "uniqueid": "MTK3041:3ATPCQ38J9HXECFF9876DTQ2UV6AYY", "dateTime": 1519673658583}, {"current_trial": 91, "trialdata": {"rt": -1, "trial_type": "single-stim", "word": "tutu", "stimulus": "<p id=\"stim\">TUTU</p>", "conditions": [12, 800, "v", 24000], "internal_node_id": "0.0-64.0", "trial": 2, "time_elapsed": 524473, "serialpos": 2, "key_press": -1, "wordID": 1523, "type": "PRES_VIS", "trial_index": 91}, "uniqueid": "MTK3041:3ATPCQ38J9HXECFF9876DTQ2UV6AYY", "dateTime": 1519673660242}, {"current_trial": 92, "trialdata": {"rt": -1, "trial_type": "single-stim", "word": "army", "stimulus": "<p id=\"stim\">ARMY</p>", "conditions": [12, 800, "v", 24000], "internal_node_id": "0.0-65.0", "trial": 2, "time_elapsed": 526314, "serialpos": 3, "key_press": -1, "wordID": 38, "type": "PRES_VIS", "trial_index": 92}, "uniqueid": "MTK3041:3ATPCQ38J9HXECFF9876DTQ2UV6AYY", "dateTime": 1519673662084}, {"current_trial": 93, "trialdata": {"rt": -1, "trial_type": "single-stim", "word": "globe", "stimulus": "<p id=\"stim\">GLOBE</p>", "conditions": [12, 800, "v", 24000], "internal_node_id": "0.0-66.0", "trial": 2, "time_elapsed": 528066, "serialpos": 4, "key_press": -1, "wordID": 640, "type": "PRES_VIS", "trial_index": 93}, "uniqueid": "MTK3041:3ATPCQ38J9HXECFF9876DTQ2UV6AYY", "dateTime": 1519673663835}, {"current_trial": 94, "trialdata": {"rt": -1, "trial_type": "single-stim", "word": "asia", "stimulus": "<p id=\"stim\">ASIA</p>", "conditions": [12, 800, "v", 24000], "internal_node_id": "0.0-67.0", "trial": 2, "time_elapsed": 529760, "serialpos": 5, "key_press": -1, "wordID": 45, "type": "PRES_VIS", "trial_index": 94}, "uniqueid": "MTK3041:3ATPCQ38J9HXECFF9876DTQ2UV6AYY", "dateTime": 1519673665529}, {"current_trial": 95, "trialdata": {"rt": -1, "trial_type": "single-stim", "word": "flower", "stimulus": "<p id=\"stim\">FLOWER</p>", "conditions": [12, 800, "v", 24000], "internal_node_id": "0.0-68.0", "trial": 2, "time_elapsed": 531400, "serialpos": 6, "key_press": -1, "wordID": 583, "type": "PRES_VIS", "trial_index": 95}, "uniqueid": "MTK3041:3ATPCQ38J9HXECFF9876DTQ2UV6AYY", "dateTime": 1519673667169}, {"current_trial": 96, "trialdata": {"rt": -1, "trial_type": "single-stim", "word": "hound", "stimulus": "<p id=\"stim\">HOUND</p>", "conditions": [12, 800, "v", 24000], "internal_node_id": "0.0-69.0", "trial": 2, "time_elapsed": 533310, "serialpos": 7, "key_press": -1, "wordID": 723, "type": "PRES_VIS", "trial_index": 96}, "uniqueid": "MTK3041:3ATPCQ38J9HXECFF9876DTQ2UV6AYY", "dateTime": 1519673669079}, {"current_trial": 97, "trialdata": {"rt": -1, "trial_type": "single-stim", "word": "wrist", "stimulus": "<p id=\"stim\">WRIST</p>", "conditions": [12, 800, "v", 24000], "internal_node_id": "0.0-70.0", "trial": 2, "time_elapsed": 535051, "serialpos": 8, "key_press": -1, "wordID": 1625, "type": "PRES_VIS", "trial_index": 97}, "uniqueid": "MTK3041:3ATPCQ38J9HXECFF9876DTQ2UV6AYY", "dateTime": 1519673670820}, {"current_trial": 98, "trialdata": {"rt": -1, "trial_type": "single-stim", "word": "piston", "stimulus": "<p id=\"stim\">PISTON</p>", "conditions": [12, 800, "v", 24000], "internal_node_id": "0.0-71.0", "trial": 2, "time_elapsed": 537031, "serialpos": 9, "key_press": -1, "wordID": 1075, "type": "PRES_VIS", "trial_index": 98}, "uniqueid": "MTK3041:3ATPCQ38J9HXECFF9876DTQ2UV6AYY", "dateTime": 1519673672800}, {"current_trial": 99, "trialdata": {"rt": -1, "trial_type": "single-stim", "word": "rug", "stimulus": "<p id=\"stim\">RUG</p>", "conditions": [12, 800, "v", 24000], "internal_node_id": "0.0-72.0", "trial": 2, "time_elapsed": 539005, "serialpos": 10, "key_press": -1, "wordID": 1214, "type": "PRES_VIS", "trial_index": 99}, "uniqueid": "MTK3041:3ATPCQ38J9HXECFF9876DTQ2UV6AYY", "dateTime": 1519673674774}, {"current_trial": 100, "trialdata": {"rt": -1, "trial_type": "single-stim", "word": "world", "stimulus": "<p id=\"stim\">WORLD</p>", "conditions": [12, 800, "v", 24000], "internal_node_id": "0.0-73.0", "trial": 2, "time_elapsed": 540720, "serialpos": 11, "key_press": -1, "wordID": 1621, "type": "PRES_VIS", "trial_index": 100}, "uniqueid": "MTK3041:3ATPCQ38J9HXECFF9876DTQ2UV6AYY", "dateTime": 1519673676489}, {"current_trial": 101, "trialdata": {"rt": -1, "trial_type": "single-stim", "stimulus": "", "internal_node_id": "0.0-74.0-0.0", "time_elapsed": 543055, "key_press": -1, "type": "PRE_RECALL_DELAY", "trial_index": 101}, "uniqueid": "MTK3041:3ATPCQ38J9HXECFF9876DTQ2UV6AYY", "dateTime": 1519673678824}, {"current_trial": 102, "trialdata": {"rt": -1000, "trial_type": "single-audio", "stimulus": "/static/audio/400Hz.wav", "internal_node_id": "0.0-75.0", "time_elapsed": 543555, "key_press": -1, "type": "PRE_RECALL_ALERT", "trial_index": 102}, "uniqueid": "MTK3041:3ATPCQ38J9HXECFF9876DTQ2UV6AYY", "dateTime": 1519673679324}, {"current_trial": 103, "trialdata": {"rt": [2183, 3231, 4512, 5487, 8199, 9407, 27623, 34616], "recwords": ["rug", "world", "piston", "wrist", "asia", "hound", "globe", "market"], "key_times": [1503, 1695, 1824, 2183, 2566, 2687, 2791, 2927, 3064, 3231, 3598, 3791, 3871, 4015, 4118, 4311, 4512, 4767, 4863, 5015, 5191, 5287, 5487, 7654, 7718, 7967, 8070, 8199, 8734, 8855, 8959, 9175, 9239, 9407, 27040, 27167, 27344, 27416, 27504, 27623, 33960, 34080, 34216, 34312, 34439, 34519, 34616], "trial_type": "free-recall", "conditions": [12, 800, "v", 24000], "internal_node_id": "0.0-76.0-0.0", "key_presses": [82, 85, 71, 13, 87, 79, 82, 76, 68, 13, 80, 73, 83, 84, 79, 78, 13, 87, 82, 73, 83, 84, 13, 65, 83, 73, 65, 13, 72, 79, 85, 78, 68, 13, 71, 76, 79, 66, 69, 13, 77, 65, 82, 75, 69, 84, 13], "trial": 2, "time_elapsed": 603558, "type": "FREE_RECALL", "trial_index": 103}, "uniqueid": "MTK3041:3ATPCQ38J9HXECFF9876DTQ2UV6AYY", "dateTime": 1519673739330}, {"current_trial": 104, "trialdata": {"rt": 1747, "trial_type": "text", "internal_node_id": "0.0-77.0", "time_elapsed": 607309, "key_press": 32, "type": "INSTRUCTIONS", "trial_index": 104}, "uniqueid": "MTK3041:3ATPCQ38J9HXECFF9876DTQ2UV6AYY", "dateTime": 1519673743078}, {"current_trial": 105, "trialdata": {"rt": [2085, 4924, 7764, 10051, 11275], "trial_type": "math-distractor", "key_times": [1827, 1916, 2085, 4428, 4659, 4924, 7492, 7764, 9652, 9883, 10051, 11083, 11275], "responses": ["14", "19", "7", "15", "5"], "num2": [7, 9, 4, 4, 2, 5], "num3": [1, 3, 1, 8, 2, 6], "conditions": [24, 1600, "v", 12000], "internal_node_id": "0.0-78.0", "key_presses": [49, 52, 13, 49, 57, 13, 55, 13, 49, 53, 13, 53, 13], "trial": 3, "time_elapsed": 621315, "type": "DISTRACTOR", "trial_index": 105, "num1": [6, 7, 2, 3, 1, 5]}, "uniqueid": "MTK3041:3ATPCQ38J9HXECFF9876DTQ2UV6AYY", "dateTime": 1519673757084}, {"current_trial": 106, "trialdata": {"rt": -1, "trial_type": "single-stim", "stimulus": "<p id=\"stim\">10</p>", "internal_node_id": "0.0-79.0-0.0", "time_elapsed": 624317, "key_press": -1, "trial_index": 106}, "uniqueid": "MTK3041:3ATPCQ38J9HXECFF9876DTQ2UV6AYY", "dateTime": 1519673760087}, {"current_trial": 107, "trialdata": {"rt": -1, "trial_type": "single-stim", "stimulus": "<p id=\"stim\">9</p>", "internal_node_id": "0.0-79.0-1.0", "time_elapsed": 625319, "key_press": -1, "trial_index": 107}, "uniqueid": "MTK3041:3ATPCQ38J9HXECFF9876DTQ2UV6AYY", "dateTime": 1519673761088}, {"current_trial": 108, "trialdata": {"rt": -1, "trial_type": "single-stim", "stimulus": "<p id=\"stim\">8</p>", "internal_node_id": "0.0-79.0-2.0", "time_elapsed": 626321, "key_press": -1, "trial_index": 108}, "uniqueid": "MTK3041:3ATPCQ38J9HXECFF9876DTQ2UV6AYY", "dateTime": 1519673762090}, {"current_trial": 109, "trialdata": {"rt": -1, "trial_type": "single-stim", "stimulus": "<p id=\"stim\">7</p>", "internal_node_id": "0.0-79.0-3.0", "time_elapsed": 627323, "key_press": -1, "trial_index": 109}, "uniqueid": "MTK3041:3ATPCQ38J9HXECFF9876DTQ2UV6AYY", "dateTime": 1519673763092}, {"current_trial": 110, "trialdata": {"rt": -1, "trial_type": "single-stim", "stimulus": "<p id=\"stim\">6</p>", "internal_node_id": "0.0-79.0-4.0", "time_elapsed": 628325, "key_press": -1, "trial_index": 110}, "uniqueid": "MTK3041:3ATPCQ38J9HXECFF9876DTQ2UV6AYY", "dateTime": 1519673764094}, {"current_trial": 111, "trialdata": {"rt": -1, "trial_type": "single-stim", "stimulus": "<p id=\"stim\">5</p>", "internal_node_id": "0.0-79.0-5.0", "time_elapsed": 629327, "key_press": -1, "trial_index": 111}, "uniqueid": "MTK3041:3ATPCQ38J9HXECFF9876DTQ2UV6AYY", "dateTime": 1519673765096}, {"current_trial": 112, "trialdata": {"rt": -1, "trial_type": "single-stim", "stimulus": "<p id=\"stim\">4</p>", "internal_node_id": "0.0-79.0-6.0", "time_elapsed": 630329, "key_press": -1, "trial_index": 112}, "uniqueid": "MTK3041:3ATPCQ38J9HXECFF9876DTQ2UV6AYY", "dateTime": 1519673766098}, {"current_trial": 113, "trialdata": {"rt": -1, "trial_type": "single-stim", "stimulus": "<p id=\"stim\">3</p>", "internal_node_id": "0.0-79.0-7.0", "time_elapsed": 631331, "key_press": -1, "trial_index": 113}, "uniqueid": "MTK3041:3ATPCQ38J9HXECFF9876DTQ2UV6AYY", "dateTime": 1519673767100}, {"current_trial": 114, "trialdata": {"rt": -1, "trial_type": "single-stim", "stimulus": "<p id=\"stim\">2</p>", "internal_node_id": "0.0-79.0-8.0", "time_elapsed": 632333, "key_press": -1, "trial_index": 114}, "uniqueid": "MTK3041:3ATPCQ38J9HXECFF9876DTQ2UV6AYY", "dateTime": 1519673768102}, {"current_trial": 115, "trialdata": {"rt": -1, "trial_type": "single-stim", "stimulus": "<p id=\"stim\">1</p>", "internal_node_id": "0.0-79.0-9.0", "time_elapsed": 633335, "key_press": -1, "trial_index": 115}, "uniqueid": "MTK3041:3ATPCQ38J9HXECFF9876DTQ2UV6AYY", "dateTime": 1519673769105}, {"current_trial": 116, "trialdata": {"rt": -1, "trial_type": "single-stim", "stimulus": "<p id=\"stim\">+</p>", "internal_node_id": "0.0-80.0-0.0", "time_elapsed": 634837, "key_press": -1, "type": "FIXATION", "trial_index": 116}, "uniqueid": "MTK3041:3ATPCQ38J9HXECFF9876DTQ2UV6AYY", "dateTime": 1519673770606}, {"current_trial": 117, "trialdata": {"rt": -1, "trial_type": "single-stim", "word": "wagon", "stimulus": "<p id=\"stim\">WAGON</p>", "conditions": [24, 1600, "v", 12000], "internal_node_id": "0.0-81.0", "trial": 3, "time_elapsed": 636438, "serialpos": 0, "key_press": -1, "wordID": 1577, "type": "PRES_VIS", "trial_index": 117}, "uniqueid": "MTK3041:3ATPCQ38J9HXECFF9876DTQ2UV6AYY", "dateTime": 1519673772207}, {"current_trial": 118, "trialdata": {"rt": -1, "trial_type": "single-stim", "word": "tractor", "stimulus": "<p id=\"stim\">TRACTOR</p>", "conditions": [24, 1600, "v", 12000], "internal_node_id": "0.0-82.0", "trial": 3, "time_elapsed": 639212, "serialpos": 1, "key_press": -1, "wordID": 1492, "type": "PRES_VIS", "trial_index": 118}, "uniqueid": "MTK3041:3ATPCQ38J9HXECFF9876DTQ2UV6AYY", "dateTime": 1519673774981}, {"current_trial": 119, "trialdata": {"rt": -1, "trial_type": "single-stim", "word": "shirt", "stimulus": "<p id=\"stim\">SHIRT</p>", "conditions": [24, 1600, "v", 12000], "internal_node_id": "0.0-83.0", "trial": 3, "time_elapsed": 641616, "serialpos": 2, "key_press": -1, "wordID": 1286, "type": "PRES_VIS", "trial_index": 119}, "uniqueid": "MTK3041:3ATPCQ38J9HXECFF9876DTQ2UV6AYY", "dateTime": 1519673777385}, {"current_trial": 120, "trialdata": {"rt": -1, "trial_type": "single-stim", "word": "panther", "stimulus": "<p id=\"stim\">PANTHER</p>", "conditions": [24, 1600, "v", 12000], "internal_node_id": "0.0-84.0", "trial": 3, "time_elapsed": 644239, "serialpos": 3, "key_press": -1, "wordID": 1008, "type": "PRES_VIS", "trial_index": 120}, "uniqueid": "MTK3041:3ATPCQ38J9HXECFF9876DTQ2UV6AYY", "dateTime": 1519673780008}, {"current_trial": 121, "trialdata": {"rt": -1, "trial_type": "single-stim", "word": "cricket", "stimulus": "<p id=\"stim\">CRICKET</p>", "conditions": [24, 1600, "v", 12000], "internal_node_id": "0.0-85.0", "trial": 3, "time_elapsed": 646845, "serialpos": 4, "key_press": -1, "wordID": 407, "type": "PRES_VIS", "trial_index": 121}, "uniqueid": "MTK3041:3ATPCQ38J9HXECFF9876DTQ2UV6AYY", "dateTime": 1519673782615}, {"current_trial": 122, "trialdata": {"rt": -1, "trial_type": "single-stim", "word": "icing", "stimulus": "<p id=\"stim\">ICING</p>", "conditions": [24, 1600, "v", 12000], "internal_node_id": "0.0-86.0", "trial": 3, "time_elapsed": 649595, "serialpos": 5, "key_press": -1, "wordID": 731, "type": "PRES_VIS", "trial_index": 122}, "uniqueid": "MTK3041:3ATPCQ38J9HXECFF9876DTQ2UV6AYY", "dateTime": 1519673785365}, {"current_trial": 123, "trialdata": {"rt": -1, "trial_type": "single-stim", "word": "cashier", "stimulus": "<p id=\"stim\">CASHIER</p>", "conditions": [24, 1600, "v", 12000], "internal_node_id": "0.0-87.0", "trial": 3, "time_elapsed": 652374, "serialpos": 6, "key_press": -1, "wordID": 253, "type": "PRES_VIS", "trial_index": 123}, "uniqueid": "MTK3041:3ATPCQ38J9HXECFF9876DTQ2UV6AYY", "dateTime": 1519673788144}, {"current_trial": 124, "trialdata": {"rt": -1, "trial_type": "single-stim", "word": "office", "stimulus": "<p id=\"stim\">OFFICE</p>", "conditions": [24, 1600, "v", 12000], "internal_node_id": "0.0-88.0", "trial": 3, "time_elapsed": 654860, "serialpos": 7, "key_press": -1, "wordID": 971, "type": "PRES_VIS", "trial_index": 124}, "uniqueid": "MTK3041:3ATPCQ38J9HXECFF9876DTQ2UV6AYY", "dateTime": 1519673790629}, {"current_trial": 125, "trialdata": {"rt": -1, "trial_type": "single-stim", "word": "parsley", "stimulus": "<p id=\"stim\">PARSLEY</p>", "conditions": [24, 1600, "v", 12000], "internal_node_id": "0.0-89.0", "trial": 3, "time_elapsed": 657628, "serialpos": 8, "key_press": -1, "wordID": 1015, "type": "PRES_VIS", "trial_index": 125}, "uniqueid": "MTK3041:3ATPCQ38J9HXECFF9876DTQ2UV6AYY", "dateTime": 1519673793397}, {"current_trial": 126, "trialdata": {"rt": -1, "trial_type": "single-stim", "word": "star", "stimulus": "<p id=\"stim\">STAR</p>", "conditions": [24, 1600, "v", 12000], "internal_node_id": "0.0-90.0", "trial": 3, "time_elapsed": 660140, "serialpos": 9, "key_press": -1, "wordID": 1372, "type": "PRES_VIS", "trial_index": 126}, "uniqueid": "MTK3041:3ATPCQ38J9HXECFF9876DTQ2UV6AYY", "dateTime": 1519673795909}, {"current_trial": 127, "trialdata": {"rt": -1, "trial_type": "single-stim", "word": "leopard", "stimulus": "<p id=\"stim\">LEOPARD</p>", "conditions": [24, 1600, "v", 12000], "internal_node_id": "0.0-91.0", "trial": 3, "time_elapsed": 662723, "serialpos": 10, "key_press": -1, "wordID": 811, "type": "PRES_VIS", "trial_index": 127}, "uniqueid": "MTK3041:3ATPCQ38J9HXECFF9876DTQ2UV6AYY", "dateTime": 1519673798492}, {"current_trial": 128, "trialdata": {"rt": -1, "trial_type": "single-stim", "word": "postage", "stimulus": "<p id=\"stim\">POSTAGE</p>", "conditions": [24, 1600, "v", 12000], "internal_node_id": "0.0-92.0", "trial": 3, "time_elapsed": 665236, "serialpos": 11, "key_press": -1, "wordID": 1112, "type": "PRES_VIS", "trial_index": 128}, "uniqueid": "MTK3041:3ATPCQ38J9HXECFF9876DTQ2UV6AYY", "dateTime": 1519673801005}, {"current_trial": 129, "trialdata": {"rt": -1, "trial_type": "single-stim", "word": "ozone", "stimulus": "<p id=\"stim\">OZONE</p>", "conditions": [24, 1600, "v", 12000], "internal_node_id": "0.0-93.0", "trial": 3, "time_elapsed": 667923, "serialpos": 12, "key_press": -1, "wordID": 995, "type": "PRES_VIS", "trial_index": 129}, "uniqueid": "MTK3041:3ATPCQ38J9HXECFF9876DTQ2UV6AYY", "dateTime": 1519673803692}, {"current_trial": 130, "trialdata": {"rt": -1, "trial_type": "single-stim", "word": "mattress", "stimulus": "<p id=\"stim\">MATTRESS</p>", "conditions": [24, 1600, "v", 12000], "internal_node_id": "0.0-94.0", "trial": 3, "time_elapsed": 670597, "serialpos": 13, "key_press": -1, "wordID": 878, "type": "PRES_VIS", "trial_index": 130}, "uniqueid": "MTK3041:3ATPCQ38J9HXECFF9876DTQ2UV6AYY", "dateTime": 1519673806366}, {"current_trial": 131, "trialdata": {"rt": -1, "trial_type": "single-stim", "word": "bike", "stimulus": "<p id=\"stim\">BIKE</p>", "conditions": [24, 1600, "v", 12000], "internal_node_id": "0.0-95.0", "trial": 3, "time_elapsed": 673385, "serialpos": 14, "key_press": -1, "wordID": 124, "type": "PRES_VIS", "trial_index": 131}, "uniqueid": "MTK3041:3ATPCQ38J9HXECFF9876DTQ2UV6AYY", "dateTime": 1519673809154}, {"current_trial": 132, "trialdata": {"rt": -1, "trial_type": "single-stim", "word": "lapel", "stimulus": "<p id=\"stim\">LAPEL</p>", "conditions": [24, 1600, "v", 12000], "internal_node_id": "0.0-96.0", "trial": 3, "time_elapsed": 675853, "serialpos": 15, "key_press": -1, "wordID": 799, "type": "PRES_VIS", "trial_index": 132}, "uniqueid": "MTK3041:3ATPCQ38J9HXECFF9876DTQ2UV6AYY", "dateTime": 1519673811622}, {"current_trial": 133, "trialdata": {"rt": -1, "trial_type": "single-stim", "word": "motor", "stimulus": "<p id=\"stim\">MOTOR</p>", "conditions": [24, 1600, "v", 12000], "internal_node_id": "0.0-97.0", "trial": 3, "time_elapsed": 678569, "serialpos": 16, "key_press": -1, "wordID": 921, "type": "PRES_VIS", "trial_index": 133}, "uniqueid": "MTK3041:3ATPCQ38J9HXECFF9876DTQ2UV6AYY", "dateTime": 1519673814339}, {"current_trial": 134, "trialdata": {"rt": -1, "trial_type": "single-stim", "word": "carriage", "stimulus": "<p id=\"stim\">CARRIAGE</p>", "conditions": [24, 1600, "v", 12000], "internal_node_id": "0.0-98.0", "trial": 3, "time_elapsed": 681292, "serialpos": 17, "key_press": -1, "wordID": 247, "type": "PRES_VIS", "trial_index": 134}, "uniqueid": "MTK3041:3ATPCQ38J9HXECFF9876DTQ2UV6AYY", "dateTime": 1519673817061}, {"current_trial": 135, "trialdata": {"rt": -1, "trial_type": "single-stim", "word": "crutch", "stimulus": "<p id=\"stim\">CRUTCH</p>", "conditions": [24, 1600, "v", 12000], "internal_node_id": "0.0-99.0", "trial": 3, "time_elapsed": 683905, "serialpos": 18, "key_press": -1, "wordID": 416, "type": "PRES_VIS", "trial_index": 135}, "uniqueid": "MTK3041:3ATPCQ38J9HXECFF9876DTQ2UV6AYY", "dateTime": 1519673819675}, {"current_trial": 136, "trialdata": {"rt": -1, "trial_type": "single-stim", "word": "permit", "stimulus": "<p id=\"stim\">PERMIT</p>", "conditions": [24, 1600, "v", 12000], "internal_node_id": "0.0-100.0", "trial": 3, "time_elapsed": 686371, "serialpos": 19, "key_press": -1, "wordID": 1050, "type": "PRES_VIS", "trial_index": 136}, "uniqueid": "MTK3041:3ATPCQ38J9HXECFF9876DTQ2UV6AYY", "dateTime": 1519673822140}, {"current_trial": 137, "trialdata": {"rt": -1, "trial_type": "single-stim", "word": "ankle", "stimulus": "<p id=\"stim\">ANKLE</p>", "conditions": [24, 1600, "v", 12000], "internal_node_id": "0.0-101.0", "trial": 3, "time_elapsed": 689005, "serialpos": 20, "key_press": -1, "wordID": 23, "type": "PRES_VIS", "trial_index": 137}, "uniqueid": "MTK3041:3ATPCQ38J9HXECFF9876DTQ2UV6AYY", "dateTime": 1519673824774}, {"current_trial": 138, "trialdata": {"rt": -1, "trial_type": "single-stim", "word": "elbow", "stimulus": "<p id=\"stim\">ELBOW</p>", "conditions": [24, 1600, "v", 12000], "internal_node_id": "0.0-102.0", "trial": 3, "time_elapsed": 691750, "serialpos": 21, "key_press": -1, "wordID": 519, "type": "PRES_VIS", "trial_index": 138}, "uniqueid": "MTK3041:3ATPCQ38J9HXECFF9876DTQ2UV6AYY", "dateTime": 1519673827519}, {"current_trial": 139, "trialdata": {"rt": -1, "trial_type": "single-stim", "word": "couch", "stimulus": "<p id=\"stim\">COUCH</p>", "conditions": [24, 1600, "v", 12000], "internal_node_id": "0.0-103.0", "trial": 3, "time_elapsed": 694190, "serialpos": 22, "key_press": -1, "wordID": 385, "type": "PRES_VIS", "trial_index": 139}, "uniqueid": "MTK3041:3ATPCQ38J9HXECFF9876DTQ2UV6AYY", "dateTime": 1519673829959}, {"current_trial": 140, "trialdata": {"rt": -1, "trial_type": "single-stim", "word": "badge", "stimulus": "<p id=\"stim\">BADGE</p>", "conditions": [24, 1600, "v", 12000], "internal_node_id": "0.0-104.0", "trial": 3, "time_elapsed": 696769, "serialpos": 23, "key_press": -1, "wordID": 67, "type": "PRES_VIS", "trial_index": 140}, "uniqueid": "MTK3041:3ATPCQ38J9HXECFF9876DTQ2UV6AYY", "dateTime": 1519673832538}, {"current_trial": 141, "trialdata": {"rt": -1, "trial_type": "single-stim", "stimulus": "", "internal_node_id": "0.0-105.0-0.0", "time_elapsed": 698938, "key_press": -1, "type": "PRE_RECALL_DELAY", "trial_index": 141}, "uniqueid": "MTK3041:3ATPCQ38J9HXECFF9876DTQ2UV6AYY", "dateTime": 1519673834707}, {"current_trial": 142, "trialdata": {"rt": -1000, "trial_type": "single-audio", "stimulus": "/static/audio/400Hz.wav", "internal_node_id": "0.0-106.0", "time_elapsed": 699440, "key_press": -1, "type": "PRE_RECALL_ALERT", "trial_index": 142}, "uniqueid": "MTK3041:3ATPCQ38J9HXECFF9876DTQ2UV6AYY", "dateTime": 1519673835209}, {"current_trial": 143, "trialdata": {"rt": [1835, 2987, 4924, 7156, 10603, 15067, 19091, 21834, 34300, 39148], "recwords": ["couch", "badge", "wagon", "carriage", "lapel", "badge", "panther", "leopard", "carriage", "coach"], "key_times": [963, 1148, 1244, 1427, 1555, 1835, 2307, 2403, 2538, 2715, 2811, 2987, 3915, 3979, 4130, 4379, 4596, 4924, 6107, 6235, 6410, 6579, 6666, 6804, 6883, 6939, 7156, 9843, 9971, 10107, 10259, 10394, 10603, 12772, 12874, 12986, 13259, 13842, 13963, 14018, 14202, 14762, 15067, 18315, 18442, 18556, 18673, 18827, 18882, 18970, 19091, 19371, 19547, 19746, 19954, 20227, 20315, 20483, 20899, 21042, 21178, 21323, 21450, 21635, 21834, 32876, 33109, 33357, 33532, 33716, 33836, 33989, 34069, 34300, 38308, 38500, 38563, 38788, 38940, 39148], "trial_type": "free-recall", "conditions": [24, 1600, "v", 12000], "internal_node_id": "0.0-107.0-0.0", "key_presses": [67, 79, 85, 67, 72, 13, 66, 65, 68, 71, 69, 13, 87, 65, 71, 79, 78, 13, 67, 65, 82, 82, 73, 65, 71, 69, 13, 76, 65, 80, 69, 76, 13, 66, 65, 68, 69, 8, 71, 69, 222, 8, 13, 80, 65, 78, 84, 72, 69, 82, 13, 76, 69, 79, 80, 76, 65, 82, 8, 8, 8, 65, 82, 68, 13, 67, 65, 82, 82, 73, 65, 71, 69, 13, 67, 79, 65, 67, 72, 13], "trial": 3, "time_elapsed": 759443, "type": "FREE_RECALL", "trial_index": 143}, "uniqueid": "MTK3041:3ATPCQ38J9HXECFF9876DTQ2UV6AYY", "dateTime": 1519673895215}, {"current_trial": 144, "trialdata": {"rt": 819, "trial_type": "text", "internal_node_id": "0.0-108.0", "time_elapsed": 762266, "key_press": 32, "type": "INSTRUCTIONS", "trial_index": 144}, "uniqueid": "MTK3041:3ATPCQ38J9HXECFF9876DTQ2UV6AYY", "dateTime": 1519673898035}, {"current_trial": 145, "trialdata": {"rt": [3316, 4740, 6005, 8038, 14589, 15804, 17053, 19500, 21292, 23133], "trial_type": "math-distractor", "key_times": [2013, 2677, 2861, 2996, 3316, 4357, 4453, 4740, 5670, 5781, 6005, 7173, 7533, 8038, 13893, 13980, 14589, 15581, 15804, 16685, 16829, 17053, 19165, 19373, 19500, 21006, 21132, 21292, 22757, 22860, 23133], "responses": ["20", "10", "17", "14", "23", "8", "17", "22", "14", "18"], "num2": [3, 5, 3, 3, 8, 6, 2, 9, 9, 9, 8], "num3": [9, 1, 7, 9, 9, 1, 7, 7, 3, 4, 9], "conditions": [12, 1600, "v", 24000], "internal_node_id": "0.0-109.0", "key_presses": [48, 8, 50, 48, 13, 49, 48, 13, 49, 55, 13, 49, 52, 13, 50, 51, 13, 56, 13, 49, 55, 13, 50, 50, 13, 49, 52, 13, 49, 56, 13], "trial": 4, "time_elapsed": 788269, "type": "DISTRACTOR", "trial_index": 145, "num1": [8, 4, 7, 2, 6, 1, 8, 6, 2, 5, 2]}, "uniqueid": "MTK3041:3ATPCQ38J9HXECFF9876DTQ2UV6AYY", "dateTime": 1519673924038}, {"current_trial": 146, "trialdata": {"rt": -1, "trial_type": "single-stim", "stimulus": "<p id=\"stim\">10</p>", "internal_node_id": "0.0-110.0-0.0", "time_elapsed": 791271, "key_press": -1, "trial_index": 146}, "uniqueid": "MTK3041:3ATPCQ38J9HXECFF9876DTQ2UV6AYY", "dateTime": 1519673927040}, {"current_trial": 147, "trialdata": {"rt": -1, "trial_type": "single-stim", "stimulus": "<p id=\"stim\">9</p>", "internal_node_id": "0.0-110.0-1.0", "time_elapsed": 792272, "key_press": -1, "trial_index": 147}, "uniqueid": "MTK3041:3ATPCQ38J9HXECFF9876DTQ2UV6AYY", "dateTime": 1519673928042}, {"current_trial": 148, "trialdata": {"rt": -1, "trial_type": "single-stim", "stimulus": "<p id=\"stim\">8</p>", "internal_node_id": "0.0-110.0-2.0", "time_elapsed": 793275, "key_press": -1, "trial_index": 148}, "uniqueid": "MTK3041:3ATPCQ38J9HXECFF9876DTQ2UV6AYY", "dateTime": 1519673929044}, {"current_trial": 149, "trialdata": {"rt": -1, "trial_type": "single-stim", "stimulus": "<p id=\"stim\">7</p>", "internal_node_id": "0.0-110.0-3.0", "time_elapsed": 794277, "key_press": -1, "trial_index": 149}, "uniqueid": "MTK3041:3ATPCQ38J9HXECFF9876DTQ2UV6AYY", "dateTime": 1519673930046}, {"current_trial": 150, "trialdata": {"rt": -1, "trial_type": "single-stim", "stimulus": "<p id=\"stim\">6</p>", "internal_node_id": "0.0-110.0-4.0", "time_elapsed": 795278, "key_press": -1, "trial_index": 150}, "uniqueid": "MTK3041:3ATPCQ38J9HXECFF9876DTQ2UV6AYY", "dateTime": 1519673931047}, {"current_trial": 151, "trialdata": {"rt": -1, "trial_type": "single-stim", "stimulus": "<p id=\"stim\">5</p>", "internal_node_id": "0.0-110.0-5.0", "time_elapsed": 796280, "key_press": -1, "trial_index": 151}, "uniqueid": "MTK3041:3ATPCQ38J9HXECFF9876DTQ2UV6AYY", "dateTime": 1519673932049}, {"current_trial": 152, "trialdata": {"rt": -1, "trial_type": "single-stim", "stimulus": "<p id=\"stim\">4</p>", "internal_node_id": "0.0-110.0-6.0", "time_elapsed": 797282, "key_press": -1, "trial_index": 152}, "uniqueid": "MTK3041:3ATPCQ38J9HXECFF9876DTQ2UV6AYY", "dateTime": 1519673933051}, {"current_trial": 153, "trialdata": {"rt": -1, "trial_type": "single-stim", "stimulus": "<p id=\"stim\">3</p>", "internal_node_id": "0.0-110.0-7.0", "time_elapsed": 798283, "key_press": -1, "trial_index": 153}, "uniqueid": "MTK3041:3ATPCQ38J9HXECFF9876DTQ2UV6AYY", "dateTime": 1519673934053}, {"current_trial": 154, "trialdata": {"rt": -1, "trial_type": "single-stim", "stimulus": "<p id=\"stim\">2</p>", "internal_node_id": "0.0-110.0-8.0", "time_elapsed": 799286, "key_press": -1, "trial_index": 154}, "uniqueid": "MTK3041:3ATPCQ38J9HXECFF9876DTQ2UV6AYY", "dateTime": 1519673935055}, {"current_trial": 155, "trialdata": {"rt": -1, "trial_type": "single-stim", "stimulus": "<p id=\"stim\">1</p>", "internal_node_id": "0.0-110.0-9.0", "time_elapsed": 800288, "key_press": -1, "trial_index": 155}, "uniqueid": "MTK3041:3ATPCQ38J9HXECFF9876DTQ2UV6AYY", "dateTime": 1519673936057}, {"current_trial": 156, "trialdata": {"rt": -1, "trial_type": "single-stim", "stimulus": "<p id=\"stim\">+</p>", "internal_node_id": "0.0-111.0-0.0", "time_elapsed": 801789, "key_press": -1, "type": "FIXATION", "trial_index": 156}, "uniqueid": "MTK3041:3ATPCQ38J9HXECFF9876DTQ2UV6AYY", "dateTime": 1519673937558}, {"current_trial": 157, "trialdata": {"rt": -1, "trial_type": "single-stim", "word": "bathtub", "stimulus": "<p id=\"stim\">BATHTUB</p>", "conditions": [12, 1600, "v", 24000], "internal_node_id": "0.0-112.0", "trial": 4, "time_elapsed": 803391, "serialpos": 0, "key_press": -1, "wordID": 99, "type": "PRES_VIS", "trial_index": 157}, "uniqueid": "MTK3041:3ATPCQ38J9HXECFF9876DTQ2UV6AYY", "dateTime": 1519673939160}, {"current_trial": 158, "trialdata": {"rt": -1, "trial_type": "single-stim", "word": "patient", "stimulus": "<p id=\"stim\">PATIENT</p>", "conditions": [12, 1600, "v", 24000], "internal_node_id": "0.0-113.0", "trial": 4, "time_elapsed": 805825, "serialpos": 1, "key_press": -1, "wordID": 1023, "type": "PRES_VIS", "trial_index": 158}, "uniqueid": "MTK3041:3ATPCQ38J9HXECFF9876DTQ2UV6AYY", "dateTime": 1519673941594}, {"current_trial": 159, "trialdata": {"rt": -1, "trial_type": "single-stim", "word": "jelly", "stimulus": "<p id=\"stim\">JELLY</p>", "conditions": [12, 1600, "v", 24000], "internal_node_id": "0.0-114.0", "trial": 4, "time_elapsed": 808455, "serialpos": 2, "key_press": -1, "wordID": 754, "type": "PRES_VIS", "trial_index": 159}, "uniqueid": "MTK3041:3ATPCQ38J9HXECFF9876DTQ2UV6AYY", "dateTime": 1519673944224}, {"current_trial": 160, "trialdata": {"rt": -1, "trial_type": "single-stim", "word": "liver", "stimulus": "<p id=\"stim\">LIVER</p>", "conditions": [12, 1600, "v", 24000], "internal_node_id": "0.0-115.0", "trial": 4, "time_elapsed": 811088, "serialpos": 3, "key_press": -1, "wordID": 832, "type": "PRES_VIS", "trial_index": 160}, "uniqueid": "MTK3041:3ATPCQ38J9HXECFF9876DTQ2UV6AYY", "dateTime": 1519673946857}, {"current_trial": 161, "trialdata": {"rt": -1, "trial_type": "single-stim", "word": "cellar", "stimulus": "<p id=\"stim\">CELLAR</p>", "conditions": [12, 1600, "v", 24000], "internal_node_id": "0.0-116.0", "trial": 4, "time_elapsed": 813560, "serialpos": 4, "key_press": -1, "wordID": 266, "type": "PRES_VIS", "trial_index": 161}, "uniqueid": "MTK3041:3ATPCQ38J9HXECFF9876DTQ2UV6AYY", "dateTime": 1519673949329}, {"current_trial": 162, "trialdata": {"rt": -1, "trial_type": "single-stim", "word": "nurse", "stimulus": "<p id=\"stim\">NURSE</p>", "conditions": [12, 1600, "v", 24000], "internal_node_id": "0.0-117.0", "trial": 4, "time_elapsed": 816263, "serialpos": 5, "key_press": -1, "wordID": 962, "type": "PRES_VIS", "trial_index": 162}, "uniqueid": "MTK3041:3ATPCQ38J9HXECFF9876DTQ2UV6AYY", "dateTime": 1519673952032}, {"current_trial": 163, "trialdata": {"rt": -1, "trial_type": "single-stim", "word": "cloud", "stimulus": "<p id=\"stim\">CLOUD</p>", "conditions": [12, 1600, "v", 24000], "internal_node_id": "0.0-118.0", "trial": 4, "time_elapsed": 818929, "serialpos": 6, "key_press": -1, "wordID": 327, "type": "PRES_VIS", "trial_index": 163}, "uniqueid": "MTK3041:3ATPCQ38J9HXECFF9876DTQ2UV6AYY", "dateTime": 1519673954698}, {"current_trial": 164, "trialdata": {"rt": -1, "trial_type": "single-stim", "word": "rifle", "stimulus": "<p id=\"stim\">RIFLE</p>", "conditions": [12, 1600, "v", 24000], "internal_node_id": "0.0-119.0", "trial": 4, "time_elapsed": 821720, "serialpos": 7, "key_press": -1, "wordID": 1191, "type": "PRES_VIS", "trial_index": 164}, "uniqueid": "MTK3041:3ATPCQ38J9HXECFF9876DTQ2UV6AYY", "dateTime": 1519673957489}, {"current_trial": 165, "trialdata": {"rt": -1, "trial_type": "single-stim", "word": "rod", "stimulus": "<p id=\"stim\">ROD</p>", "conditions": [12, 1600, "v", 24000], "internal_node_id": "0.0-120.0", "trial": 4, "time_elapsed": 824247, "serialpos": 8, "key_press": -1, "wordID": 1202, "type": "PRES_VIS", "trial_index": 165}, "uniqueid": "MTK3041:3ATPCQ38J9HXECFF9876DTQ2UV6AYY", "dateTime": 1519673960016}, {"current_trial": 166, "trialdata": {"rt": -1, "trial_type": "single-stim", "word": "river", "stimulus": "<p id=\"stim\">RIVER</p>", "conditions": [12, 1600, "v", 24000], "internal_node_id": "0.0-121.0", "trial": 4, "time_elapsed": 826891, "serialpos": 9, "key_press": -1, "wordID": 1193, "type": "PRES_VIS", "trial_index": 166}, "uniqueid": "MTK3041:3ATPCQ38J9HXECFF9876DTQ2UV6AYY", "dateTime": 1519673962660}, {"current_trial": 167, "trialdata": {"rt": -1, "trial_type": "single-stim", "word": "brook", "stimulus": "<p id=\"stim\">BROOK</p>", "conditions": [12, 1600, "v", 24000], "internal_node_id": "0.0-122.0", "trial": 4, "time_elapsed": 829430, "serialpos": 10, "key_press": -1, "wordID": 176, "type": "PRES_VIS", "trial_index": 167}, "uniqueid": "MTK3041:3ATPCQ38J9HXECFF9876DTQ2UV6AYY", "dateTime": 1519673965199}, {"current_trial": 168, "trialdata": {"rt": -1, "trial_type": "single-stim", "word": "scissors", "stimulus": "<p id=\"stim\">SCISSORS</p>", "conditions": [12, 1600, "v", 24000], "internal_node_id": "0.0-123.0", "trial": 4, "time_elapsed": 832053, "serialpos": 11, "key_press": -1, "wordID": 1249, "type": "PRES_VIS", "trial_index": 168}, "uniqueid": "MTK3041:3ATPCQ38J9HXECFF9876DTQ2UV6AYY", "dateTime": 1519673967822}, {"current_trial": 169, "trialdata": {"rt": -1, "trial_type": "single-stim", "stimulus": "", "internal_node_id": "0.0-124.0-0.0", "time_elapsed": 834111, "key_press": -1, "type": "PRE_RECALL_DELAY", "trial_index": 169}, "uniqueid": "MTK3041:3ATPCQ38J9HXECFF9876DTQ2UV6AYY", "dateTime": 1519673969880}, {"current_trial": 170, "trialdata": {"rt": -1000, "trial_type": "single-audio", "stimulus": "/static/audio/400Hz.wav", "internal_node_id": "0.0-125.0", "time_elapsed": 834612, "key_press": -1, "type": "PRE_RECALL_ALERT", "trial_index": 170}, "uniqueid": "MTK3041:3ATPCQ38J9HXECFF9876DTQ2UV6AYY", "dateTime": 1519673970381}, {"current_trial": 171, "trialdata": {"rt": [2745, 4353, 5978, 6768, 7897, 9857, 13377], "recwords": ["bathtub", "patient", "rifle", "rod", "river", "brook", "jelly"], "key_times": [1129, 1273, 1433, 1584, 1961, 2058, 2497, 2745, 3441, 3553, 3625, 3737, 3849, 4025, 4121, 4353, 5257, 5385, 5528, 5649, 5745, 5978, 6313, 6433, 6584, 6768, 7001, 7106, 7273, 7370, 7578, 7897, 8402, 8625, 8705, 8865, 9512, 9857, 11482, 11656, 11889, 12138, 12698, 13377], "trial_type": "free-recall", "conditions": [12, 1600, "v", 24000], "internal_node_id": "0.0-126.0-0.0", "key_presses": [66, 65, 84, 72, 84, 85, 66, 13, 80, 65, 84, 73, 69, 78, 84, 13, 82, 73, 70, 76, 69, 13, 82, 79, 68, 13, 82, 73, 86, 69, 82, 13, 66, 82, 79, 79, 75, 13, 74, 69, 76, 76, 89, 13], "trial": 4, "time_elapsed": 894614, "type": "FREE_RECALL", "trial_index": 171}, "uniqueid": "MTK3041:3ATPCQ38J9HXECFF9876DTQ2UV6AYY", "dateTime": 1519674030387}, {"current_trial": 172, "trialdata": {"rt": 1251, "trial_type": "text", "internal_node_id": "0.0-127.0", "time_elapsed": 897871, "key_press": 32, "type": "INSTRUCTIONS", "trial_index": 172}, "uniqueid": "MTK3041:3ATPCQ38J9HXECFF9876DTQ2UV6AYY", "dateTime": 1519674033640}, {"current_trial": 173, "trialdata": {"rt": [2789, 5414, 8038, 9805, 11797, 13597, 16477, 17813, 19765, 21661, 23333], "trial_type": "math-distractor", "key_times": [2314, 2509, 2789, 4877, 5093, 5414, 7669, 7845, 8038, 9573, 9805, 11245, 11589, 11797, 13086, 13317, 13597, 15389, 15932, 16173, 16356, 16477, 17373, 17509, 17813, 19485, 19605, 19765, 21181, 21381, 21661, 22725, 23117, 23333], "responses": ["11", "20", "12", "8", "13", "19", "11", "10", "12", "19", "17"], "num2": [2, 8, 1, 1, 2, 9, 6, 4, 6, 9, 1, 9], "num3": [2, 9, 3, 2, 9, 1, 3, 5, 3, 3, 8, 9], "conditions": [12, 1600, "v", 24000], "internal_node_id": "0.0-128.0", "key_presses": [49, 49, 13, 50, 48, 13, 49, 50, 13, 56, 13, 49, 51, 13, 49, 57, 13, 50, 8, 49, 49, 13, 49, 48, 13, 49, 50, 13, 49, 57, 13, 49, 55, 13], "trial": 5, "time_elapsed": 923881, "type": "DISTRACTOR", "trial_index": 173, "num1": [7, 3, 8, 5, 2, 9, 2, 1, 3, 7, 8, 2]}, "uniqueid": "MTK3041:3ATPCQ38J9HXECFF9876DTQ2UV6AYY", "dateTime": 1519674059650}, {"current_trial": 174, "trialdata": {"rt": -1, "trial_type": "single-stim", "stimulus": "<p id=\"stim\">10</p>", "internal_node_id": "0.0-129.0-0.0", "time_elapsed": 926883, "key_press": -1, "trial_index": 174}, "uniqueid": "MTK3041:3ATPCQ38J9HXECFF9876DTQ2UV6AYY", "dateTime": 1519674062652}, {"current_trial": 175, "trialdata": {"rt": -1, "trial_type": "single-stim", "stimulus": "<p id=\"stim\">9</p>", "internal_node_id": "0.0-129.0-1.0", "time_elapsed": 927885, "key_press": -1, "trial_index": 175}, "uniqueid": "MTK3041:3ATPCQ38J9HXECFF9876DTQ2UV6AYY", "dateTime": 1519674063654}, {"current_trial": 176, "trialdata": {"rt": -1, "trial_type": "single-stim", "stimulus": "<p id=\"stim\">8</p>", "internal_node_id": "0.0-129.0-2.0", "time_elapsed": 928887, "key_press": -1, "trial_index": 176}, "uniqueid": "MTK3041:3ATPCQ38J9HXECFF9876DTQ2UV6AYY", "dateTime": 1519674064656}, {"current_trial": 177, "trialdata": {"rt": -1, "trial_type": "single-stim", "stimulus": "<p id=\"stim\">7</p>", "internal_node_id": "0.0-129.0-3.0", "time_elapsed": 929889, "key_press": -1, "trial_index": 177}, "uniqueid": "MTK3041:3ATPCQ38J9HXECFF9876DTQ2UV6AYY", "dateTime": 1519674065658}, {"current_trial": 178, "trialdata": {"rt": -1, "trial_type": "single-stim", "stimulus": "<p id=\"stim\">6</p>", "internal_node_id": "0.0-129.0-4.0", "time_elapsed": 930890, "key_press": -1, "trial_index": 178}, "uniqueid": "MTK3041:3ATPCQ38J9HXECFF9876DTQ2UV6AYY", "dateTime": 1519674066659}, {"current_trial": 179, "trialdata": {"rt": -1, "trial_type": "single-stim", "stimulus": "<p id=\"stim\">5</p>", "internal_node_id": "0.0-129.0-5.0", "time_elapsed": 931894, "key_press": -1, "trial_index": 179}, "uniqueid": "MTK3041:3ATPCQ38J9HXECFF9876DTQ2UV6AYY", "dateTime": 1519674067663}, {"current_trial": 180, "trialdata": {"rt": -1, "trial_type": "single-stim", "stimulus": "<p id=\"stim\">4</p>", "internal_node_id": "0.0-129.0-6.0", "time_elapsed": 932897, "key_press": -1, "trial_index": 180}, "uniqueid": "MTK3041:3ATPCQ38J9HXECFF9876DTQ2UV6AYY", "dateTime": 1519674068666}, {"current_trial": 181, "trialdata": {"rt": -1, "trial_type": "single-stim", "stimulus": "<p id=\"stim\">3</p>", "internal_node_id": "0.0-129.0-7.0", "time_elapsed": 933898, "key_press": -1, "trial_index": 181}, "uniqueid": "MTK3041:3ATPCQ38J9HXECFF9876DTQ2UV6AYY", "dateTime": 1519674069667}, {"current_trial": 182, "trialdata": {"rt": -1, "trial_type": "single-stim", "stimulus": "<p id=\"stim\">2</p>", "internal_node_id": "0.0-129.0-8.0", "time_elapsed": 934901, "key_press": -1, "trial_index": 182}, "uniqueid": "MTK3041:3ATPCQ38J9HXECFF9876DTQ2UV6AYY", "dateTime": 1519674070670}, {"current_trial": 183, "trialdata": {"rt": -1, "trial_type": "single-stim", "stimulus": "<p id=\"stim\">1</p>", "internal_node_id": "0.0-129.0-9.0", "time_elapsed": 935903, "key_press": -1, "trial_index": 183}, "uniqueid": "MTK3041:3ATPCQ38J9HXECFF9876DTQ2UV6AYY", "dateTime": 1519674071672}, {"current_trial": 184, "trialdata": {"rt": -1, "trial_type": "single-stim", "stimulus": "<p id=\"stim\">+</p>", "internal_node_id": "0.0-130.0-0.0", "time_elapsed": 937406, "key_press": -1, "type": "FIXATION", "trial_index": 184}, "uniqueid": "MTK3041:3ATPCQ38J9HXECFF9876DTQ2UV6AYY", "dateTime": 1519674073175}, {"current_trial": 185, "trialdata": {"rt": -1, "trial_type": "single-stim", "word": "bank", "stimulus": "<p id=\"stim\">BANK</p>", "conditions": [12, 1600, "v", 24000], "internal_node_id": "0.0-131.0", "trial": 5, "time_elapsed": 939008, "serialpos": 0, "key_press": -1, "wordID": 82, "type": "PRES_VIS", "trial_index": 185}, "uniqueid": "MTK3041:3ATPCQ38J9HXECFF9876DTQ2UV6AYY", "dateTime": 1519674074777}, {"current_trial": 186, "trialdata": {"rt": -1, "trial_type": "single-stim", "word": "branch", "stimulus": "<p id=\"stim\">BRANCH</p>", "conditions": [12, 1600, "v", 24000], "internal_node_id": "0.0-132.0", "trial": 5, "time_elapsed": 941696, "serialpos": 1, "key_press": -1, "wordID": 167, "type": "PRES_VIS", "trial_index": 186}, "uniqueid": "MTK3041:3ATPCQ38J9HXECFF9876DTQ2UV6AYY", "dateTime": 1519674077465}, {"current_trial": 187, "trialdata": {"rt": -1, "trial_type": "single-stim", "word": "garden", "stimulus": "<p id=\"stim\">GARDEN</p>", "conditions": [12, 1600, "v", 24000], "internal_node_id": "0.0-133.0", "trial": 5, "time_elapsed": 944280, "serialpos": 2, "key_press": -1, "wordID": 622, "type": "PRES_VIS", "trial_index": 187}, "uniqueid": "MTK3041:3ATPCQ38J9HXECFF9876DTQ2UV6AYY", "dateTime": 1519674080049}, {"current_trial": 188, "trialdata": {"rt": -1, "trial_type": "single-stim", "word": "chauffeur", "stimulus": "<p id=\"stim\">CHAUFFEUR</p>", "conditions": [12, 1600, "v", 24000], "internal_node_id": "0.0-134.0", "trial": 5, "time_elapsed": 946742, "serialpos": 3, "key_press": -1, "wordID": 282, "type": "PRES_VIS", "trial_index": 188}, "uniqueid": "MTK3041:3ATPCQ38J9HXECFF9876DTQ2UV6AYY", "dateTime": 1519674082512}, {"current_trial": 189, "trialdata": {"rt": -1, "trial_type": "single-stim", "word": "sister", "stimulus": "<p id=\"stim\">SISTER</p>", "conditions": [12, 1600, "v", 24000], "internal_node_id": "0.0-135.0", "trial": 5, "time_elapsed": 949206, "serialpos": 4, "key_press": -1, "wordID": 1311, "type": "PRES_VIS", "trial_index": 189}, "uniqueid": "MTK3041:3ATPCQ38J9HXECFF9876DTQ2UV6AYY", "dateTime": 1519674084976}, {"current_trial": 190, "trialdata": {"rt": -1, "trial_type": "single-stim", "word": "husband", "stimulus": "<p id=\"stim\">HUSBAND</p>", "conditions": [12, 1600, "v", 24000], "internal_node_id": "0.0-136.0", "trial": 5, "time_elapsed": 951880, "serialpos": 5, "key_press": -1, "wordID": 727, "type": "PRES_VIS", "trial_index": 190}, "uniqueid": "MTK3041:3ATPCQ38J9HXECFF9876DTQ2UV6AYY", "dateTime": 1519674087649}, {"current_trial": 191, "trialdata": {"rt": -1, "trial_type": "single-stim", "word": "fiddle", "stimulus": "<p id=\"stim\">FIDDLE</p>", "conditions": [12, 1600, "v", 24000], "internal_node_id": "0.0-137.0", "trial": 5, "time_elapsed": 954319, "serialpos": 6, "key_press": -1, "wordID": 560, "type": "PRES_VIS", "trial_index": 191}, "uniqueid": "MTK3041:3ATPCQ38J9HXECFF9876DTQ2UV6AYY", "dateTime": 1519674090088}, {"current_trial": 192, "trialdata": {"rt": -1, "trial_type": "single-stim", "word": "sibling", "stimulus": "<p id=\"stim\">SIBLING</p>", "conditions": [12, 1600, "v", 24000], "internal_node_id": "0.0-138.0", "trial": 5, "time_elapsed": 957095, "serialpos": 7, "key_press": -1, "wordID": 1300, "type": "PRES_VIS", "trial_index": 192}, "uniqueid": "MTK3041:3ATPCQ38J9HXECFF9876DTQ2UV6AYY", "dateTime": 1519674092864}, {"current_trial": 193, "trialdata": {"rt": -1, "trial_type": "single-stim", "word": "kitchen", "stimulus": "<p id=\"stim\">KITCHEN</p>", "conditions": [12, 1600, "v", 24000], "internal_node_id": "0.0-139.0", "trial": 5, "time_elapsed": 959752, "serialpos": 8, "key_press": -1, "wordID": 777, "type": "PRES_VIS", "trial_index": 193}, "uniqueid": "MTK3041:3ATPCQ38J9HXECFF9876DTQ2UV6AYY", "dateTime": 1519674095521}, {"current_trial": 194, "trialdata": {"rt": -1, "trial_type": "single-stim", "word": "lumber", "stimulus": "<p id=\"stim\">LUMBER</p>", "conditions": [12, 1600, "v", 24000], "internal_node_id": "0.0-140.0", "trial": 5, "time_elapsed": 962249, "serialpos": 9, "key_press": -1, "wordID": 847, "type": "PRES_VIS", "trial_index": 194}, "uniqueid": "MTK3041:3ATPCQ38J9HXECFF9876DTQ2UV6AYY", "dateTime": 1519674098018}, {"current_trial": 195, "trialdata": {"rt": -1, "trial_type": "single-stim", "word": "brick", "stimulus": "<p id=\"stim\">BRICK</p>", "conditions": [12, 1600, "v", 24000], "internal_node_id": "0.0-141.0", "trial": 5, "time_elapsed": 964822, "serialpos": 10, "key_press": -1, "wordID": 171, "type": "PRES_VIS", "trial_index": 195}, "uniqueid": "MTK3041:3ATPCQ38J9HXECFF9876DTQ2UV6AYY", "dateTime": 1519674100591}, {"current_trial": 196, "trialdata": {"rt": -1, "trial_type": "single-stim", "word": "tart", "stimulus": "<p id=\"stim\">TART</p>", "conditions": [12, 1600, "v", 24000], "internal_node_id": "0.0-142.0", "trial": 5, "time_elapsed": 967509, "serialpos": 11, "key_press": -1, "wordID": 1435, "type": "PRES_VIS", "trial_index": 196}, "uniqueid": "MTK3041:3ATPCQ38J9HXECFF9876DTQ2UV6AYY", "dateTime": 1519674103278}, {"current_trial": 197, "trialdata": {"rt": -1, "trial_type": "single-stim", "stimulus": "", "internal_node_id": "0.0-143.0-0.0", "time_elapsed": 969740, "key_press": -1, "type": "PRE_RECALL_DELAY", "trial_index": 197}, "uniqueid": "MTK3041:3ATPCQ38J9HXECFF9876DTQ2UV6AYY", "dateTime": 1519674105510}, {"current_trial": 198, "trialdata": {"rt": -1000, "trial_type": "single-audio", "stimulus": "/static/audio/400Hz.wav", "internal_node_id": "0.0-144.0", "time_elapsed": 970243, "key_press": -1, "type": "PRE_RECALL_ALERT", "trial_index": 198}, "uniqueid": "MTK3041:3ATPCQ38J9HXECFF9876DTQ2UV6AYY", "dateTime": 1519674106012}, {"current_trial": 199, "trialdata": {"rt": [1895, 3039, 3869, 4710, 5854, 8006, 9895, 11086, 13775, 47746, 55769, 56696], "recwords": ["lumber", "brick", "tart", "bank", "branch", "chauffer", "garden", "sister", "sibling", "tart", "wrist", "elbow"], "key_times": [839, 1030, 1326, 1494, 1663, 1759, 1895, 2222, 2415, 2511, 2661, 2767, 3039, 3318, 3446, 3550, 3742, 3869, 4127, 4222, 4382, 4463, 4710, 4918, 5141, 5238, 5342, 5479, 5645, 5854, 6327, 6502, 6646, 6878, 7438, 7598, 7670, 7831, 8006, 8758, 8894, 9022, 9213, 9478, 9590, 9895, 10230, 10334, 10446, 10558, 10647, 10822, 11086, 11342, 11495, 11638, 11765, 12013, 12037, 12238, 13775, 46957, 47130, 47235, 47491, 47746, 54528, 54744, 55376, 55481, 55585, 55769, 55984, 56136, 56272, 56440, 56545, 56696], "trial_type": "free-recall", "conditions": [12, 1600, "v", 24000], "internal_node_id": "0.0-145.0-0.0", "key_presses": [76, 85, 77, 66, 69, 82, 13, 66, 82, 73, 67, 75, 13, 84, 65, 82, 84, 13, 66, 65, 78, 75, 13, 66, 82, 65, 78, 67, 72, 13, 67, 72, 65, 85, 70, 70, 69, 82, 13, 71, 65, 82, 68, 69, 78, 13, 83, 73, 83, 84, 69, 82, 13, 83, 73, 66, 76, 73, 78, 71, 13, 84, 65, 82, 84, 13, 87, 82, 73, 83, 84, 13, 69, 76, 66, 79, 87, 13], "trial": 5, "time_elapsed": 1030245, "type": "FREE_RECALL", "trial_index": 199}, "uniqueid": "MTK3041:3ATPCQ38J9HXECFF9876DTQ2UV6AYY", "dateTime": 1519674166017}, {"current_trial": 200, "trialdata": {"rt": 29519, "trial_type": "text", "internal_node_id": "0.0-146.0", "time_elapsed": 1061769, "key_press": 78, "type": "INSTRUCTIONS", "trial_index": 200}, "uniqueid": "MTK3041:3ATPCQ38J9HXECFF9876DTQ2UV6AYY", "dateTime": 1519674197538}, {"current_trial": 201, "trialdata": {"rt": [1332, 3411, 5565, 8181, 9708, 14467, 15844, 18123, 20364, 22404], "trial_type": "math-distractor", "key_times": [1045, 1173, 1332, 2277, 2901, 3411, 4868, 5261, 5565, 7020, 7748, 8181, 9260, 9451, 9708, 11892, 12356, 12500, 12667, 13540, 14203, 14467, 15491, 15619, 15844, 17804, 17988, 18123, 20115, 20220, 20364, 22126, 22300, 22404], "responses": ["13", "11", "10", "20", "16", "20", "18", "23", "23", "11"], "num2": [3, 3, 3, 4, 4, 9, 1, 6, 7, 6, 8], "num3": [5, 6, 2, 8, 6, 8, 8, 8, 7, 1, 8], "conditions": [24, 1600, "v", 24000], "internal_node_id": "0.0-147.0", "key_presses": [49, 51, 13, 49, 49, 13, 49, 48, 13, 50, 48, 13, 49, 54, 13, 49, 8, 50, 189, 8, 48, 13, 49, 56, 13, 50, 51, 13, 50, 51, 13, 49, 49, 13], "trial": 6, "time_elapsed": 1087773, "type": "DISTRACTOR", "trial_index": 201, "num1": [5, 5, 5, 8, 6, 3, 9, 9, 9, 4, 4]}, "uniqueid": "MTK3041:3ATPCQ38J9HXECFF9876DTQ2UV6AYY", "dateTime": 1519674223543}, {"current_trial": 202, "trialdata": {"rt": -1, "trial_type": "single-stim", "stimulus": "<p id=\"stim\">10</p>", "internal_node_id": "0.0-148.0-0.0", "time_elapsed": 1090776, "key_press": -1, "trial_index": 202}, "uniqueid": "MTK3041:3ATPCQ38J9HXECFF9876DTQ2UV6AYY", "dateTime": 1519674226545}, {"current_trial": 203, "trialdata": {"rt": -1, "trial_type": "single-stim", "stimulus": "<p id=\"stim\">9</p>", "internal_node_id": "0.0-148.0-1.0", "time_elapsed": 1091778, "key_press": -1, "trial_index": 203}, "uniqueid": "MTK3041:3ATPCQ38J9HXECFF9876DTQ2UV6AYY", "dateTime": 1519674227547}, {"current_trial": 204, "trialdata": {"rt": -1, "trial_type": "single-stim", "stimulus": "<p id=\"stim\">8</p>", "internal_node_id": "0.0-148.0-2.0", "time_elapsed": 1092780, "key_press": -1, "trial_index": 204}, "uniqueid": "MTK3041:3ATPCQ38J9HXECFF9876DTQ2UV6AYY", "dateTime": 1519674228549}, {"current_trial": 205, "trialdata": {"rt": -1, "trial_type": "single-stim", "stimulus": "<p id=\"stim\">7</p>", "internal_node_id": "0.0-148.0-3.0", "time_elapsed": 1093782, "key_press": -1, "trial_index": 205}, "uniqueid": "MTK3041:3ATPCQ38J9HXECFF9876DTQ2UV6AYY", "dateTime": 1519674229551}, {"current_trial": 206, "trialdata": {"rt": -1, "trial_type": "single-stim", "stimulus": "<p id=\"stim\">6</p>", "internal_node_id": "0.0-148.0-4.0", "time_elapsed": 1094783, "key_press": -1, "trial_index": 206}, "uniqueid": "MTK3041:3ATPCQ38J9HXECFF9876DTQ2UV6AYY", "dateTime": 1519674230553}, {"current_trial": 207, "trialdata": {"rt": -1, "trial_type": "single-stim", "stimulus": "<p id=\"stim\">5</p>", "internal_node_id": "0.0-148.0-5.0", "time_elapsed": 1095786, "key_press": -1, "trial_index": 207}, "uniqueid": "MTK3041:3ATPCQ38J9HXECFF9876DTQ2UV6AYY", "dateTime": 1519674231555}, {"current_trial": 208, "trialdata": {"rt": -1, "trial_type": "single-stim", "stimulus": "<p id=\"stim\">4</p>", "internal_node_id": "0.0-148.0-6.0", "time_elapsed": 1096787, "key_press": -1, "trial_index": 208}, "uniqueid": "MTK3041:3ATPCQ38J9HXECFF9876DTQ2UV6AYY", "dateTime": 1519674232557}, {"current_trial": 209, "trialdata": {"rt": -1, "trial_type": "single-stim", "stimulus": "<p id=\"stim\">3</p>", "internal_node_id": "0.0-148.0-7.0", "time_elapsed": 1097790, "key_press": -1, "trial_index": 209}, "uniqueid": "MTK3041:3ATPCQ38J9HXECFF9876DTQ2UV6AYY", "dateTime": 1519674233559}, {"current_trial": 210, "trialdata": {"rt": -1, "trial_type": "single-stim", "stimulus": "<p id=\"stim\">2</p>", "internal_node_id": "0.0-148.0-8.0", "time_elapsed": 1098792, "key_press": -1, "trial_index": 210}, "uniqueid": "MTK3041:3ATPCQ38J9HXECFF9876DTQ2UV6AYY", "dateTime": 1519674234561}, {"current_trial": 211, "trialdata": {"rt": -1, "trial_type": "single-stim", "stimulus": "<p id=\"stim\">1</p>", "internal_node_id": "0.0-148.0-9.0", "time_elapsed": 1099794, "key_press": -1, "trial_index": 211}, "uniqueid": "MTK3041:3ATPCQ38J9HXECFF9876DTQ2UV6AYY", "dateTime": 1519674235563}, {"current_trial": 212, "trialdata": {"rt": -1, "trial_type": "single-stim", "stimulus": "<p id=\"stim\">+</p>", "internal_node_id": "0.0-149.0-0.0", "time_elapsed": 1101296, "key_press": -1, "type": "FIXATION", "trial_index": 212}, "uniqueid": "MTK3041:3ATPCQ38J9HXECFF9876DTQ2UV6AYY", "dateTime": 1519674237065}, {"current_trial": 213, "trialdata": {"rt": -1, "trial_type": "single-stim", "word": "slide", "stimulus": "<p id=\"stim\">SLIDE</p>", "conditions": [24, 1600, "v", 24000], "internal_node_id": "0.0-150.0", "trial": 6, "time_elapsed": 1102898, "serialpos": 0, "key_press": -1, "wordID": 1325, "type": "PRES_VIS", "trial_index": 213}, "uniqueid": "MTK3041:3ATPCQ38J9HXECFF9876DTQ2UV6AYY", "dateTime": 1519674238667}, {"current_trial": 214, "trialdata": {"rt": -1, "trial_type": "single-stim", "word": "knife", "stimulus": "<p id=\"stim\">KNIFE</p>", "conditions": [24, 1600, "v", 24000], "internal_node_id": "0.0-151.0", "trial": 6, "time_elapsed": 1105474, "serialpos": 1, "key_press": -1, "wordID": 784, "type": "PRES_VIS", "trial_index": 214}, "uniqueid": "MTK3041:3ATPCQ38J9HXECFF9876DTQ2UV6AYY", "dateTime": 1519674241244}, {"current_trial": 215, "trialdata": {"rt": -1, "trial_type": "single-stim", "word": "pistol", "stimulus": "<p id=\"stim\">PISTOL</p>", "conditions": [24, 1600, "v", 24000], "internal_node_id": "0.0-152.0", "trial": 6, "time_elapsed": 1107942, "serialpos": 2, "key_press": -1, "wordID": 1074, "type": "PRES_VIS", "trial_index": 215}, "uniqueid": "MTK3041:3ATPCQ38J9HXECFF9876DTQ2UV6AYY", "dateTime": 1519674243711}, {"current_trial": 216, "trialdata": {"rt": -1, "trial_type": "single-stim", "word": "europe", "stimulus": "<p id=\"stim\">EUROPE</p>", "conditions": [24, 1600, "v", 24000], "internal_node_id": "0.0-153.0", "trial": 6, "time_elapsed": 1110476, "serialpos": 3, "key_press": -1, "wordID": 540, "type": "PRES_VIS", "trial_index": 216}, "uniqueid": "MTK3041:3ATPCQ38J9HXECFF9876DTQ2UV6AYY", "dateTime": 1519674246245}, {"current_trial": 217, "trialdata": {"rt": -1, "trial_type": "single-stim", "word": "boyfriend", "stimulus": "<p id=\"stim\">BOYFRIEND</p>", "conditions": [24, 1600, "v", 24000], "internal_node_id": "0.0-154.0", "trial": 6, "time_elapsed": 1113031, "serialpos": 4, "key_press": -1, "wordID": 161, "type": "PRES_VIS", "trial_index": 217}, "uniqueid": "MTK3041:3ATPCQ38J9HXECFF9876DTQ2UV6AYY", "dateTime": 1519674248800}, {"current_trial": 218, "trialdata": {"rt": -1, "trial_type": "single-stim", "word": "slug", "stimulus": "<p id=\"stim\">SLUG</p>", "conditions": [24, 1600, "v", 24000], "internal_node_id": "0.0-155.0", "trial": 6, "time_elapsed": 1115496, "serialpos": 5, "key_press": -1, "wordID": 1328, "type": "PRES_VIS", "trial_index": 218}, "uniqueid": "MTK3041:3ATPCQ38J9HXECFF9876DTQ2UV6AYY", "dateTime": 1519674251265}, {"current_trial": 219, "trialdata": {"rt": -1, "trial_type": "single-stim", "word": "sword", "stimulus": "<p id=\"stim\">SWORD</p>", "conditions": [24, 1600, "v", 24000], "internal_node_id": "0.0-156.0", "trial": 6, "time_elapsed": 1118293, "serialpos": 6, "key_press": -1, "wordID": 1422, "type": "PRES_VIS", "trial_index": 219}, "uniqueid": "MTK3041:3ATPCQ38J9HXECFF9876DTQ2UV6AYY", "dateTime": 1519674254062}, {"current_trial": 220, "trialdata": {"rt": -1, "trial_type": "single-stim", "word": "widow", "stimulus": "<p id=\"stim\">WIDOW</p>", "conditions": [24, 1600, "v", 24000], "internal_node_id": "0.0-157.0", "trial": 6, "time_elapsed": 1120791, "serialpos": 7, "key_press": -1, "wordID": 1607, "type": "PRES_VIS", "trial_index": 220}, "uniqueid": "MTK3041:3ATPCQ38J9HXECFF9876DTQ2UV6AYY", "dateTime": 1519674256560}, {"current_trial": 221, "trialdata": {"rt": -1, "trial_type": "single-stim", "word": "police", "stimulus": "<p id=\"stim\">POLICE</p>", "conditions": [24, 1600, "v", 24000], "internal_node_id": "0.0-158.0", "trial": 6, "time_elapsed": 1123476, "serialpos": 8, "key_press": -1, "wordID": 1097, "type": "PRES_VIS", "trial_index": 221}, "uniqueid": "MTK3041:3ATPCQ38J9HXECFF9876DTQ2UV6AYY", "dateTime": 1519674259245}, {"current_trial": 222, "trialdata": {"rt": -1, "trial_type": "single-stim", "word": "freckle", "stimulus": "<p id=\"stim\">FRECKLE</p>", "conditions": [24, 1600, "v", 24000], "internal_node_id": "0.0-159.0", "trial": 6, "time_elapsed": 1126257, "serialpos": 9, "key_press": -1, "wordID": 601, "type": "PRES_VIS", "trial_index": 222}, "uniqueid": "MTK3041:3ATPCQ38J9HXECFF9876DTQ2UV6AYY", "dateTime": 1519674262026}, {"current_trial": 223, "trialdata": {"rt": -1, "trial_type": "single-stim", "word": "suspect", "stimulus": "<p id=\"stim\">SUSPECT</p>", "conditions": [24, 1600, "v", 24000], "internal_node_id": "0.0-160.0", "trial": 6, "time_elapsed": 1128753, "serialpos": 10, "key_press": -1, "wordID": 1414, "type": "PRES_VIS", "trial_index": 223}, "uniqueid": "MTK3041:3ATPCQ38J9HXECFF9876DTQ2UV6AYY", "dateTime": 1519674264522}, {"current_trial": 224, "trialdata": {"rt": -1, "trial_type": "single-stim", "word": "egypt", "stimulus": "<p id=\"stim\">EGYPT</p>", "conditions": [24, 1600, "v", 24000], "internal_node_id": "0.0-161.0", "trial": 6, "time_elapsed": 1131268, "serialpos": 11, "key_press": -1, "wordID": 518, "type": "PRES_VIS", "trial_index": 224}, "uniqueid": "MTK3041:3ATPCQ38J9HXECFF9876DTQ2UV6AYY", "dateTime": 1519674267038}, {"current_trial": 225, "trialdata": {"rt": -1, "trial_type": "single-stim", "word": "sunset", "stimulus": "<p id=\"stim\">SUNSET</p>", "conditions": [24, 1600, "v", 24000], "internal_node_id": "0.0-162.0", "trial": 6, "time_elapsed": 1133817, "serialpos": 12, "key_press": -1, "wordID": 1407, "type": "PRES_VIS", "trial_index": 225}, "uniqueid": "MTK3041:3ATPCQ38J9HXECFF9876DTQ2UV6AYY", "dateTime": 1519674269586}, {"current_trial": 226, "trialdata": {"rt": -1, "trial_type": "single-stim", "word": "venus", "stimulus": "<p id=\"stim\">VENUS</p>", "conditions": [24, 1600, "v", 24000], "internal_node_id": "0.0-163.0", "trial": 6, "time_elapsed": 1136268, "serialpos": 13, "key_press": -1, "wordID": 1556, "type": "PRES_VIS", "trial_index": 226}, "uniqueid": "MTK3041:3ATPCQ38J9HXECFF9876DTQ2UV6AYY", "dateTime": 1519674272037}, {"current_trial": 227, "trialdata": {"rt": -1, "trial_type": "single-stim", "word": "costume", "stimulus": "<p id=\"stim\">COSTUME</p>", "conditions": [24, 1600, "v", 24000], "internal_node_id": "0.0-164.0", "trial": 6, "time_elapsed": 1138930, "serialpos": 14, "key_press": -1, "wordID": 382, "type": "PRES_VIS", "trial_index": 227}, "uniqueid": "MTK3041:3ATPCQ38J9HXECFF9876DTQ2UV6AYY", "dateTime": 1519674274699}, {"current_trial": 228, "trialdata": {"rt": -1, "trial_type": "single-stim", "word": "viking", "stimulus": "<p id=\"stim\">VIKING</p>", "conditions": [24, 1600, "v", 24000], "internal_node_id": "0.0-165.0", "trial": 6, "time_elapsed": 1141542, "serialpos": 15, "key_press": -1, "wordID": 1564, "type": "PRES_VIS", "trial_index": 228}, "uniqueid": "MTK3041:3ATPCQ38J9HXECFF9876DTQ2UV6AYY", "dateTime": 1519674277312}, {"current_trial": 229, "trialdata": {"rt": -1, "trial_type": "single-stim", "word": "tourist", "stimulus": "<p id=\"stim\">TOURIST</p>", "conditions": [24, 1600, "v", 24000], "internal_node_id": "0.0-166.0", "trial": 6, "time_elapsed": 1144034, "serialpos": 16, "key_press": -1, "wordID": 1487, "type": "PRES_VIS", "trial_index": 229}, "uniqueid": "MTK3041:3ATPCQ38J9HXECFF9876DTQ2UV6AYY", "dateTime": 1519674279803}, {"current_trial": 230, "trialdata": {"rt": -1, "trial_type": "single-stim", "word": "goblin", "stimulus": "<p id=\"stim\">GOBLIN</p>", "conditions": [24, 1600, "v", 24000], "internal_node_id": "0.0-167.0", "trial": 6, "time_elapsed": 1146630, "serialpos": 17, "key_press": -1, "wordID": 644, "type": "PRES_VIS", "trial_index": 230}, "uniqueid": "MTK3041:3ATPCQ38J9HXECFF9876DTQ2UV6AYY", "dateTime": 1519674282399}, {"current_trial": 231, "trialdata": {"rt": -1, "trial_type": "single-stim", "word": "label", "stimulus": "<p id=\"stim\">LABEL</p>", "conditions": [24, 1600, "v", 24000], "internal_node_id": "0.0-168.0", "trial": 6, "time_elapsed": 1149421, "serialpos": 18, "key_press": -1, "wordID": 789, "type": "PRES_VIS", "trial_index": 231}, "uniqueid": "MTK3041:3ATPCQ38J9HXECFF9876DTQ2UV6AYY", "dateTime": 1519674285190}, {"current_trial": 232, "trialdata": {"rt": -1, "trial_type": "single-stim", "word": "pebble", "stimulus": "<p id=\"stim\">PEBBLE</p>", "conditions": [24, 1600, "v", 24000], "internal_node_id": "0.0-169.0", "trial": 6, "time_elapsed": 1151955, "serialpos": 19, "key_press": -1, "wordID": 1034, "type": "PRES_VIS", "trial_index": 232}, "uniqueid": "MTK3041:3ATPCQ38J9HXECFF9876DTQ2UV6AYY", "dateTime": 1519674287724}, {"current_trial": 233, "trialdata": {"rt": -1, "trial_type": "single-stim", "word": "france", "stimulus": "<p id=\"stim\">FRANCE</p>", "conditions": [24, 1600, "v", 24000], "internal_node_id": "0.0-170.0", "trial": 6, "time_elapsed": 1154713, "serialpos": 20, "key_press": -1, "wordID": 600, "type": "PRES_VIS", "trial_index": 233}, "uniqueid": "MTK3041:3ATPCQ38J9HXECFF9876DTQ2UV6AYY", "dateTime": 1519674290482}, {"current_trial": 234, "trialdata": {"rt": -1, "trial_type": "single-stim", "word": "skirt", "stimulus": "<p id=\"stim\">SKIRT</p>", "conditions": [24, 1600, "v", 24000], "internal_node_id": "0.0-171.0", "trial": 6, "time_elapsed": 1157125, "serialpos": 21, "key_press": -1, "wordID": 1318, "type": "PRES_VIS", "trial_index": 234}, "uniqueid": "MTK3041:3ATPCQ38J9HXECFF9876DTQ2UV6AYY", "dateTime": 1519674292894}, {"current_trial": 235, "trialdata": {"rt": -1, "trial_type": "single-stim", "word": "dress", "stimulus": "<p id=\"stim\">DRESS</p>", "conditions": [24, 1600, "v", 24000], "internal_node_id": "0.0-172.0", "trial": 6, "time_elapsed": 1159627, "serialpos": 22, "key_press": -1, "wordID": 494, "type": "PRES_VIS", "trial_index": 235}, "uniqueid": "MTK3041:3ATPCQ38J9HXECFF9876DTQ2UV6AYY", "dateTime": 1519674295396}, {"current_trial": 236, "trialdata": {"rt": -1, "trial_type": "single-stim", "word": "wardrobe", "stimulus": "<p id=\"stim\">WARDROBE</p>", "conditions": [24, 1600, "v", 24000], "internal_node_id": "0.0-173.0", "trial": 6, "time_elapsed": 1162098, "serialpos": 23, "key_press": -1, "wordID": 1586, "type": "PRES_VIS", "trial_index": 236}, "uniqueid": "MTK3041:3ATPCQ38J9HXECFF9876DTQ2UV6AYY", "dateTime": 1519674297867}, {"current_trial": 237, "trialdata": {"rt": -1, "trial_type": "single-stim", "stimulus": "", "internal_node_id": "0.0-174.0-0.0", "time_elapsed": 1164176, "key_press": -1, "type": "PRE_RECALL_DELAY", "trial_index": 237}, "uniqueid": "MTK3041:3ATPCQ38J9HXECFF9876DTQ2UV6AYY", "dateTime": 1519674299945}, {"current_trial": 238, "trialdata": {"rt": -1000, "trial_type": "single-audio", "stimulus": "/static/audio/400Hz.wav", "internal_node_id": "0.0-175.0", "time_elapsed": 1164685, "key_press": -1, "type": "PRE_RECALL_ALERT", "trial_index": 238}, "uniqueid": "MTK3041:3ATPCQ38J9HXECFF9876DTQ2UV6AYY", "dateTime": 1519674300454}, {"current_trial": 239, "trialdata": {"rt": [1743, 3616, 6784, 7983, 9880, 12359, 19186, 21499, 23074, 29826], "recwords": ["europe", "boyfriend", "skirt", "dress", "wardrobe", "freckle", "slide", "sword", "pistol", "widow"], "key_times": [688, 959, 1095, 1272, 1367, 1512, 1743, 2127, 2224, 2430, 2718, 2927, 2999, 3120, 3311, 3406, 3616, 4622, 4856, 4895, 5079, 5559, 5688, 5840, 6160, 6391, 6494, 6687, 6784, 7023, 7287, 7383, 7615, 7776, 7983, 8264, 8359, 8495, 8711, 8983, 9152, 9312, 9639, 9880, 11080, 11256, 11336, 11599, 11768, 11864, 12159, 12359, 18410, 18523, 18691, 18835, 19067, 19186, 20202, 20467, 20651, 20787, 20995, 21499, 21915, 22106, 22220, 22307, 22467, 22786, 23074, 29178, 29314, 29426, 29539, 29674, 29826], "trial_type": "free-recall", "conditions": [24, 1600, "v", 24000], "internal_node_id": "0.0-176.0-0.0", "key_presses": [69, 85, 82, 79, 80, 69, 13, 66, 79, 89, 70, 82, 73, 69, 78, 68, 13, 83, 72, 73, 82, 8, 8, 8, 75, 73, 82, 84, 13, 68, 82, 69, 83, 83, 13, 87, 65, 82, 68, 82, 79, 66, 69, 13, 70, 82, 69, 67, 75, 76, 69, 13, 83, 76, 73, 68, 69, 13, 83, 87, 79, 82, 68, 13, 80, 73, 83, 84, 79, 76, 13, 87, 73, 68, 79, 87, 13], "trial": 6, "time_elapsed": 1224688, "type": "FREE_RECALL", "trial_index": 239}, "uniqueid": "MTK3041:3ATPCQ38J9HXECFF9876DTQ2UV6AYY", "dateTime": 1519674360460}, {"current_trial": 240, "trialdata": {"rt": 2231, "trial_type": "text", "internal_node_id": "0.0-177.0", "time_elapsed": 1228924, "key_press": 32, "type": "INSTRUCTIONS", "trial_index": 240}, "uniqueid": "MTK3041:3ATPCQ38J9HXECFF9876DTQ2UV6AYY", "dateTime": 1519674364693}, {"current_trial": 241, "trialdata": {"rt": [1995, 4603, 6539, 8547, 10356, 11667, 13476, 15876, 17588, 19323, 21779, 23987], "trial_type": "math-distractor", "key_times": [1676, 1813, 1995, 3692, 4460, 4603, 6077, 6275, 6539, 8308, 8411, 8547, 9908, 10123, 10356, 11460, 11532, 11667, 12875, 13275, 13476, 14620, 14812, 15555, 15667, 15876, 17299, 17451, 17588, 19021, 19220, 19323, 21236, 21540, 21779, 23675, 23883, 23987], "responses": ["13", "14", "17", "13", "17", "12", "12", "15", "21", "14", "17", "11"], "num2": [3, 7, 4, 6, 8, 7, 2, 6, 5, 7, 7, 8, 1], "num3": [8, 3, 6, 4, 5, 4, 3, 5, 8, 3, 2, 1, 4], "conditions": [24, 800, "v", 24000], "internal_node_id": "0.0-178.0", "key_presses": [49, 51, 13, 49, 52, 13, 49, 55, 13, 49, 51, 13, 49, 55, 13, 49, 50, 13, 49, 50, 13, 49, 48, 8, 53, 13, 50, 49, 13, 49, 52, 13, 49, 55, 13, 49, 49, 13], "trial": 7, "time_elapsed": 1254929, "type": "DISTRACTOR", "trial_index": 241, "num1": [2, 4, 7, 3, 4, 1, 7, 4, 8, 4, 8, 2, 6]}, "uniqueid": "MTK3041:3ATPCQ38J9HXECFF9876DTQ2UV6AYY", "dateTime": 1519674390698}, {"current_trial": 242, "trialdata": {"rt": -1, "trial_type": "single-stim", "stimulus": "<p id=\"stim\">10</p>", "internal_node_id": "0.0-179.0-0.0", "time_elapsed": 1257932, "key_press": -1, "trial_index": 242}, "uniqueid": "MTK3041:3ATPCQ38J9HXECFF9876DTQ2UV6AYY", "dateTime": 1519674393701}, {"current_trial": 243, "trialdata": {"rt": -1, "trial_type": "single-stim", "stimulus": "<p id=\"stim\">9</p>", "internal_node_id": "0.0-179.0-1.0", "time_elapsed": 1258934, "key_press": -1, "trial_index": 243}, "uniqueid": "MTK3041:3ATPCQ38J9HXECFF9876DTQ2UV6AYY", "dateTime": 1519674394703}, {"current_trial": 244, "trialdata": {"rt": -1, "trial_type": "single-stim", "stimulus": "<p id=\"stim\">8</p>", "internal_node_id": "0.0-179.0-2.0", "time_elapsed": 1259936, "key_press": -1, "trial_index": 244}, "uniqueid": "MTK3041:3ATPCQ38J9HXECFF9876DTQ2UV6AYY", "dateTime": 1519674395706}, {"current_trial": 245, "trialdata": {"rt": -1, "trial_type": "single-stim", "stimulus": "<p id=\"stim\">7</p>", "internal_node_id": "0.0-179.0-3.0", "time_elapsed": 1260939, "key_press": -1, "trial_index": 245}, "uniqueid": "MTK3041:3ATPCQ38J9HXECFF9876DTQ2UV6AYY", "dateTime": 1519674396708}, {"current_trial": 246, "trialdata": {"rt": -1, "trial_type": "single-stim", "stimulus": "<p id=\"stim\">6</p>", "internal_node_id": "0.0-179.0-4.0", "time_elapsed": 1261942, "key_press": -1, "trial_index": 246}, "uniqueid": "MTK3041:3ATPCQ38J9HXECFF9876DTQ2UV6AYY", "dateTime": 1519674397711}, {"current_trial": 247, "trialdata": {"rt": -1, "trial_type": "single-stim", "stimulus": "<p id=\"stim\">5</p>", "internal_node_id": "0.0-179.0-5.0", "time_elapsed": 1262944, "key_press": -1, "trial_index": 247}, "uniqueid": "MTK3041:3ATPCQ38J9HXECFF9876DTQ2UV6AYY", "dateTime": 1519674398713}, {"current_trial": 248, "trialdata": {"rt": -1, "trial_type": "single-stim", "stimulus": "<p id=\"stim\">4</p>", "internal_node_id": "0.0-179.0-6.0", "time_elapsed": 1263946, "key_press": -1, "trial_index": 248}, "uniqueid": "MTK3041:3ATPCQ38J9HXECFF9876DTQ2UV6AYY", "dateTime": 1519674399715}, {"current_trial": 249, "trialdata": {"rt": -1, "trial_type": "single-stim", "stimulus": "<p id=\"stim\">3</p>", "internal_node_id": "0.0-179.0-7.0", "time_elapsed": 