{"assignmentId": "386PBUZZXG4OF6BKKZVTCKRPCJWLJU", "workerId": "MTK3682", "questiondata": {"origin": "United States", "strat-rehearsal": "10", "marital": "Single", "education": "Associate degree", "ethnicity": "Not Hispanic", "color_depth": 24, "distracted": "Yes", "wrote-notes": "Yes", "strat-other": "", "screen_width": 1536, "avail_screen_width": 1536, "avail_screen_height": 824, "strat-image": "88", "language": "English", "gender": "Male", "age": "20", "gender_other": "", "race": ["Black"], "strat-categorize": "10", "pixel_depth": 24, "strat-spatial": "0", "strat-story": "0", "race_other": "", "screen_height": 864}, "bonus": 0, "hitId": "3N2YPY1GI65HDB3SU0H6DTGFDTCVEK", "counterbalance": 1169, "useragent": "Mozilla/5.0 (Windows NT 10.0; Win64; x64) AppleWebKit/537.36 (KHTML, like Gecko) Chrome/64.0.3282.186 Safari/537.36", "eventdata": [{"eventtype": "initialized", "interval": 0, "value": null, "timestamp": 1520956397808}, {"eventtype": "window_resize", "interval": 0, "value": [1536, 774], "timestamp": 1520956397808}], "data": [{"current_trial": 0, "trialdata": {"rt": 5750, "trial_type": "text", "internal_node_id": "0.0-0.0", "time_elapsed": 5758, "key_press": 32, "type": "INSTRUCTIONS", "trial_index": 0}, "uniqueid": "MTK3682:386PBUZZXG4OF6BKKZVTCKRPCJWLJU", "dateTime": 1520956417019}, {"current_trial": 1, "trialdata": {"rt": 9908, "trial_type": "text", "internal_node_id": "0.0-1.0", "time_elapsed": 15671, "key_press": 32, "type": "INSTRUCTIONS", "trial_index": 1}, "uniqueid": "MTK3682:386PBUZZXG4OF6BKKZVTCKRPCJWLJU", "dateTime": 1520956426931}, {"current_trial": 2, "trialdata": {"rt": [7287], "trial_type": "audio-test", "responses": ["ocean"], "internal_node_id": "0.0-2.0", "time_elapsed": 22984, "type": "AUDIO_TEST", "trial_index": 2}, "uniqueid": "MTK3682:386PBUZZXG4OF6BKKZVTCKRPCJWLJU", "dateTime": 1520956434244}, {"current_trial": 3, "trialdata": {"rt": [4985], "trial_type": "audio-test", "responses": ["crystal"], "internal_node_id": "0.0-3.0", "time_elapsed": 27972, "type": "AUDIO_TEST", "trial_index": 3}, "uniqueid": "MTK3682:386PBUZZXG4OF6BKKZVTCKRPCJWLJU", "dateTime": 1520956439232}, {"current_trial": 4, "trialdata": {"rt": [3843], "trial_type": "audio-test", "responses": ["spice"], "internal_node_id": "0.0-4.0", "time_elapsed": 31818, "type": "AUDIO_TEST", "trial_index": 4}, "uniqueid": "MTK3682:386PBUZZXG4OF6BKKZVTCKRPCJWLJU", "dateTime": 1520956443078}, {"current_trial": 5, "trialdata": {"rt": 37195, "trial_type": "survey-text", "responses": "{\"Q0\":\"Around 2 am\",\"Q1\":\"I woke up several times. I got up around 10.\",\"Q2\":\"3\"}", "internal_node_id": "0.0-5.0", "time_elapsed": 69770, "type": "SLEEP_SURVEY", "trial_index": 5}, "uniqueid": "MTK3682:386PBUZZXG4OF6BKKZVTCKRPCJWLJU", "dateTime": 1520956481030}, {"current_trial": 6, "trialdata": {"rt": 31162, "trial_type": "text", "internal_node_id": "0.0-6.0", "time_elapsed": 101935, "key_press": 32, "type": "INSTRUCTIONS", "trial_index": 6}, "uniqueid": "MTK3682:386PBUZZXG4OF6BKKZVTCKRPCJWLJU", "dateTime": 1520956513195}, {"current_trial": 7, "trialdata": {"rt": 9576, "trial_type": "text", "internal_node_id": "0.0-7.0", "time_elapsed": 112014, "key_press": 32, "type": "INSTRUCTIONS", "trial_index": 7}, "uniqueid": "MTK3682:386PBUZZXG4OF6BKKZVTCKRPCJWLJU", "dateTime": 1520956523274}, {"current_trial": 8, "trialdata": {"rt": 1943, "trial_type": "text", "internal_node_id": "0.0-8.0", "time_elapsed": 114460, "key_press": 32, "type": "INSTRUCTIONS", "trial_index": 8}, "uniqueid": "MTK3682:386PBUZZXG4OF6BKKZVTCKRPCJWLJU", "dateTime": 1520956525721}, {"current_trial": 9, "trialdata": {"rt": [2791, 5593, 10889, 12600, 15307, 17014], "trial_type": "math-distractor", "key_times": [2418, 2527, 2791, 5260, 5392, 5593, 10437, 10512, 10889, 12508, 12600, 14811, 14887, 15307, 16737, 16839, 17014], "responses": ["17", "18", "21", "9", "13", "12"], "num2": [6, 6, 5, 1, 2, 7, 9], "num3": [5, 3, 9, 5, 6, 3, 7], "conditions": [18, 1200, "a", 18000], "internal_node_id": "0.0-9.0", "key_presses": [49, 55, 13, 49, 56, 13, 50, 49, 13, 57, 13, 49, 51, 13, 49, 50, 13], "trial": 0, "time_elapsed": 133473, "type": "DISTRACTOR", "trial_index": 9, "num1": [6, 9, 7, 3, 5, 2, 9]}, "uniqueid": "MTK3682:386PBUZZXG4OF6BKKZVTCKRPCJWLJU", "dateTime": 1520956544733}, {"current_trial": 10, "trialdata": {"rt": -1, "trial_type": "single-stim", "stimulus": "<p id=\"stim\">10</p>", "internal_node_id": "0.0-10.0-0.0", "time_elapsed": 136482, "key_press": -1, "trial_index": 10}, "uniqueid": "MTK3682:386PBUZZXG4OF6BKKZVTCKRPCJWLJU", "dateTime": 1520956547742}, {"current_trial": 11, "trialdata": {"rt": -1, "trial_type": "single-stim", "stimulus": "<p id=\"stim\">9</p>", "internal_node_id": "0.0-10.0-1.0", "time_elapsed": 137485, "key_press": -1, "trial_index": 11}, "uniqueid": "MTK3682:386PBUZZXG4OF6BKKZVTCKRPCJWLJU", "dateTime": 1520956548745}, {"current_trial": 12, "trialdata": {"rt": -1, "trial_type": "single-stim", "stimulus": "<p id=\"stim\">8</p>", "internal_node_id": "0.0-10.0-2.0", "time_elapsed": 138487, "key_press": -1, "trial_index": 12}, "uniqueid": "MTK3682:386PBUZZXG4OF6BKKZVTCKRPCJWLJU", "dateTime": 1520956549747}, {"current_trial": 13, "trialdata": {"rt": -1, "trial_type": "single-stim", "stimulus": "<p id=\"stim\">7</p>", "internal_node_id": "0.0-10.0-3.0", "time_elapsed": 139489, "key_press": -1, "trial_index": 13}, "uniqueid": "MTK3682:386PBUZZXG4OF6BKKZVTCKRPCJWLJU", "dateTime": 1520956550749}, {"current_trial": 14, "trialdata": {"rt": -1, "trial_type": "single-stim", "stimulus": "<p id=\"stim\">6</p>", "internal_node_id": "0.0-10.0-4.0", "time_elapsed": 140493, "key_press": -1, "trial_index": 14}, "uniqueid": "MTK3682:386PBUZZXG4OF6BKKZVTCKRPCJWLJU", "dateTime": 1520956551753}, {"current_trial": 15, "trialdata": {"rt": -1, "trial_type": "single-stim", "stimulus": "<p id=\"stim\">5</p>", "internal_node_id": "0.0-10.0-5.0", "time_elapsed": 141496, "key_press": -1, "trial_index": 15}, "uniqueid": "MTK3682:386PBUZZXG4OF6BKKZVTCKRPCJWLJU", "dateTime": 1520956552757}, {"current_trial": 16, "trialdata": {"rt": -1, "trial_type": "single-stim", "stimulus": "<p id=\"stim\">4</p>", "internal_node_id": "0.0-10.0-6.0", "time_elapsed": 142499, "key_press": -1, "trial_index": 16}, "uniqueid": "MTK3682:386PBUZZXG4OF6BKKZVTCKRPCJWLJU", "dateTime": 1520956553760}, {"current_trial": 17, "trialdata": {"rt": -1, "trial_type": "single-stim", "stimulus": "<p id=\"stim\">3</p>", "internal_node_id": "0.0-10.0-7.0", "time_elapsed": 143505, "key_press": -1, "trial_index": 17}, "uniqueid": "MTK3682:386PBUZZXG4OF6BKKZVTCKRPCJWLJU", "dateTime": 1520956554765}, {"current_trial": 18, "trialdata": {"rt": -1, "trial_type": "single-stim", "stimulus": "<p id=\"stim\">2</p>", "internal_node_id": "0.0-10.0-8.0", "time_elapsed": 144508, "key_press": -1, "trial_index": 18}, "uniqueid": "MTK3682:386PBUZZXG4OF6BKKZVTCKRPCJWLJU", "dateTime": 1520956555768}, {"current_trial": 19, "trialdata": {"rt": -1, "trial_type": "single-stim", "stimulus": "<p id=\"stim\">1</p>", "internal_node_id": "0.0-10.0-9.0", "time_elapsed": 145515, "key_press": -1, "trial_index": 19}, "uniqueid": "MTK3682:386PBUZZXG4OF6BKKZVTCKRPCJWLJU", "dateTime": 1520956556775}, {"current_trial": 20, "trialdata": {"rt": -1, "trial_type": "single-stim", "stimulus": "<p id=\"stim\">+</p>", "internal_node_id": "0.0-11.0-0.0", "time_elapsed": 147023, "key_press": -1, "type": "FIXATION", "trial_index": 20}, "uniqueid": "MTK3682:386PBUZZXG4OF6BKKZVTCKRPCJWLJU", "dateTime": 1520956558284}, {"current_trial": 21, "trialdata": {"rt": -1000, "trial_type": "single-audio", "word": "donor", "stimulus": "/static/audio/wordpool/DONOR.wav", "conditions": [18, 1200, "a", 18000], "internal_node_id": "0.0-12.0", "trial": 0, "time_elapsed": 149370, "serialpos": 0, "key_press": -1, "wordID": 484, "type": "PRES_AUD", "trial_index": 21}, "uniqueid": "MTK3682:386PBUZZXG4OF6BKKZVTCKRPCJWLJU", "dateTime": 1520956560630}, {"current_trial": 22, "trialdata": {"rt": -1000, "trial_type": "single-audio", "word": "rebel", "stimulus": "/static/audio/wordpool/REBEL.wav", "conditions": [18, 1200, "a", 18000], "internal_node_id": "0.0-13.0", "trial": 0, "time_elapsed": 151436, "serialpos": 1, "key_press": -1, "wordID": 1171, "type": "PRES_AUD", "trial_index": 22}, "uniqueid": "MTK3682:386PBUZZXG4OF6BKKZVTCKRPCJWLJU", "dateTime": 1520956562696}, {"current_trial": 23, "trialdata": {"rt": -1000, "trial_type": "single-audio", "word": "motor", "stimulus": "/static/audio/wordpool/MOTOR.wav", "conditions": [18, 1200, "a", 18000], "internal_node_id": "0.0-14.0", "trial": 0, "time_elapsed": 153583, "serialpos": 2, "key_press": -1, "wordID": 921, "type": "PRES_AUD", "trial_index": 23}, "uniqueid": "MTK3682:386PBUZZXG4OF6BKKZVTCKRPCJWLJU", "dateTime": 1520956564843}, {"current_trial": 24, "trialdata": {"rt": -1000, "trial_type": "single-audio", "word": "puddle", "stimulus": "/static/audio/wordpool/PUDDLE.wav", "conditions": [18, 1200, "a", 18000], "internal_node_id": "0.0-15.0", "trial": 0, "time_elapsed": 155872, "serialpos": 3, "key_press": -1, "wordID": 1139, "type": "PRES_AUD", "trial_index": 24}, "uniqueid": "MTK3682:386PBUZZXG4OF6BKKZVTCKRPCJWLJU", "dateTime": 1520956567132}, {"current_trial": 25, "trialdata": {"rt": -1000, "trial_type": "single-audio", "word": "sponge", "stimulus": "/static/audio/wordpool/SPONGE.wav", "conditions": [18, 1200, "a", 18000], "internal_node_id": "0.0-16.0", "trial": 0, "time_elapsed": 157892, "serialpos": 4, "key_press": -1, "wordID": 1354, "type": "PRES_AUD", "trial_index": 25}, "uniqueid": "MTK3682:386PBUZZXG4OF6BKKZVTCKRPCJWLJU", "dateTime": 1520956569152}, {"current_trial": 26, "trialdata": {"rt": -1000, "trial_type": "single-audio", "word": "twister", "stimulus": "/static/audio/wordpool/TWISTER.wav", "conditions": [18, 1200, "a", 18000], "internal_node_id": "0.0-17.0", "trial": 0, "time_elapsed": 160051, "serialpos": 5, "key_press": -1, "wordID": 1529, "type": "PRES_AUD", "trial_index": 26}, "uniqueid": "MTK3682:386PBUZZXG4OF6BKKZVTCKRPCJWLJU", "dateTime": 1520956571311}, {"current_trial": 27, "trialdata": {"rt": -1000, "trial_type": "single-audio", "word": "onion", "stimulus": "/static/audio/wordpool/ONION.wav", "conditions": [18, 1200, "a", 18000], "internal_node_id": "0.0-18.0", "trial": 0, "time_elapsed": 162365, "serialpos": 6, "key_press": -1, "wordID": 976, "type": "PRES_AUD", "trial_index": 27}, "uniqueid": "MTK3682:386PBUZZXG4OF6BKKZVTCKRPCJWLJU", "dateTime": 1520956573625}, {"current_trial": 28, "trialdata": {"rt": -1000, "trial_type": "single-audio", "word": "chemist", "stimulus": "/static/audio/wordpool/CHEMIST.wav", "conditions": [18, 1200, "a", 18000], "internal_node_id": "0.0-19.0", "trial": 0, "time_elapsed": 164599, "serialpos": 7, "key_press": -1, "wordID": 291, "type": "PRES_AUD", "trial_index": 28}, "uniqueid": "MTK3682:386PBUZZXG4OF6BKKZVTCKRPCJWLJU", "dateTime": 1520956575860}, {"current_trial": 29, "trialdata": {"rt": -1000, "trial_type": "single-audio", "word": "waitress", "stimulus": "/static/audio/wordpool/WAITRESS.wav", "conditions": [18, 1200, "a", 18000], "internal_node_id": "0.0-20.0", "trial": 0, "time_elapsed": 166690, "serialpos": 8, "key_press": -1, "wordID": 1580, "type": "PRES_AUD", "trial_index": 29}, "uniqueid": "MTK3682:386PBUZZXG4OF6BKKZVTCKRPCJWLJU", "dateTime": 1520956577950}, {"current_trial": 30, "trialdata": {"rt": -1000, "trial_type": "single-audio", "word": "apple", "stimulus": "/static/audio/wordpool/APPLE.wav", "conditions": [18, 1200, "a", 18000], "internal_node_id": "0.0-21.0", "trial": 0, "time_elapsed": 168758, "serialpos": 9, "key_press": -1, "wordID": 32, "type": "PRES_AUD", "trial_index": 30}, "uniqueid": "MTK3682:386PBUZZXG4OF6BKKZVTCKRPCJWLJU", "dateTime": 1520956580019}, {"current_trial": 31, "trialdata": {"rt": -1000, "trial_type": "single-audio", "word": "salad", "stimulus": "/static/audio/wordpool/SALAD.wav", "conditions": [18, 1200, "a", 18000], "internal_node_id": "0.0-22.0", "trial": 0, "time_elapsed": 170876, "serialpos": 10, "key_press": -1, "wordID": 1223, "type": "PRES_AUD", "trial_index": 31}, "uniqueid": "MTK3682:386PBUZZXG4OF6BKKZVTCKRPCJWLJU", "dateTime": 1520956582136}, {"current_trial": 32, "trialdata": {"rt": -1000, "trial_type": "single-audio", "word": "peanut", "stimulus": "/static/audio/wordpool/PEANUT.wav", "conditions": [18, 1200, "a", 18000], "internal_node_id": "0.0-23.0", "trial": 0, "time_elapsed": 172971, "serialpos": 11, "key_press": -1, "wordID": 1031, "type": "PRES_AUD", "trial_index": 32}, "uniqueid": "MTK3682:386PBUZZXG4OF6BKKZVTCKRPCJWLJU", "dateTime": 1520956584231}, {"current_trial": 33, "trialdata": {"rt": -1000, "trial_type": "single-audio", "word": "robin", "stimulus": "/static/audio/wordpool/ROBIN.wav", "conditions": [18, 1200, "a", 18000], "internal_node_id": "0.0-24.0", "trial": 0, "time_elapsed": 175128, "serialpos": 12, "key_press": -1, "wordID": 1198, "type": "PRES_AUD", "trial_index": 33}, "uniqueid": "MTK3682:386PBUZZXG4OF6BKKZVTCKRPCJWLJU", "dateTime": 1520956586388}, {"current_trial": 34, "trialdata": {"rt": -1000, "trial_type": "single-audio", "word": "ghetto", "stimulus": "/static/audio/wordpool/GHETTO.wav", "conditions": [18, 1200, "a", 18000], "internal_node_id": "0.0-25.0", "trial": 0, "time_elapsed": 177441, "serialpos": 13, "key_press": -1, "wordID": 632, "type": "PRES_AUD", "trial_index": 34}, "uniqueid": "MTK3682:386PBUZZXG4OF6BKKZVTCKRPCJWLJU", "dateTime": 1520956588701}, {"current_trial": 35, "trialdata": {"rt": -1000, "trial_type": "single-audio", "word": "dashboard", "stimulus": "/static/audio/wordpool/DASHBOARD.wav", "conditions": [18, 1200, "a", 18000], "internal_node_id": "0.0-26.0", "trial": 0, "time_elapsed": 179765, "serialpos": 14, "key_press": -1, "wordID": 440, "type": "PRES_AUD", "trial_index": 35}, "uniqueid": "MTK3682:386PBUZZXG4OF6BKKZVTCKRPCJWLJU", "dateTime": 1520956591025}, {"current_trial": 36, "trialdata": {"rt": -1000, "trial_type": "single-audio", "word": "plaster", "stimulus": "/static/audio/wordpool/PLASTER.wav", "conditions": [18, 1200, "a", 18000], "internal_node_id": "0.0-27.0", "trial": 0, "time_elapsed": 181807, "serialpos": 15, "key_press": -1, "wordID": 1084, "type": "PRES_AUD", "trial_index": 36}, "uniqueid": "MTK3682:386PBUZZXG4OF6BKKZVTCKRPCJWLJU", "dateTime": 1520956593067}, {"current_trial": 37, "trialdata": {"rt": -1000, "trial_type": "single-audio", "word": "stomach", "stimulus": "/static/audio/wordpool/STOMACH.wav", "conditions": [18, 1200, "a", 18000], "internal_node_id": "0.0-28.0", "trial": 0, "time_elapsed": 184090, "serialpos": 16, "key_press": -1, "wordID": 1383, "type": "PRES_AUD", "trial_index": 37}, "uniqueid": "MTK3682:386PBUZZXG4OF6BKKZVTCKRPCJWLJU", "dateTime": 1520956595350}, {"current_trial": 38, "trialdata": {"rt": -1000, "trial_type": "single-audio", "word": "gymnast", "stimulus": "/static/audio/wordpool/GYMNAST.wav", "conditions": [18, 1200, "a", 18000], "internal_node_id": "0.0-29.0", "trial": 0, "time_elapsed": 186391, "serialpos": 17, "key_press": -1, "wordID": 674, "type": "PRES_AUD", "trial_index": 38}, "uniqueid": "MTK3682:386PBUZZXG4OF6BKKZVTCKRPCJWLJU", "dateTime": 1520956597651}, {"current_trial": 39, "trialdata": {"rt": -1, "trial_type": "single-stim", "stimulus": "", "internal_node_id": "0.0-30.0-0.0", "time_elapsed": 187785, "key_press": -1, "type": "PRE_RECALL_DELAY", "trial_index": 39}, "uniqueid": "MTK3682:386PBUZZXG4OF6BKKZVTCKRPCJWLJU", "dateTime": 1520956599045}, {"current_trial": 40, "trialdata": {"rt": -1000, "trial_type": "single-audio", "stimulus": "/static/audio/400Hz.wav", "internal_node_id": "0.0-31.0", "time_elapsed": 188290, "key_press": -1, "type": "PRE_RECALL_ALERT", "trial_index": 40}, "uniqueid": "MTK3682:386PBUZZXG4OF6BKKZVTCKRPCJWLJU", "dateTime": 1520956599551}, {"current_trial": 41, "trialdata": {"rt": [2894, 4061, 5669, 7361, 21663, 29165], "recwords": ["gymnast", "donor", "twister", "rebel", "stomach", "motor"], "key_times": [1484, 1641, 1697, 1872, 2047, 2228, 2464, 2894, 3120, 3274, 3364, 3554, 3776, 4061, 4325, 4562, 4726, 4833, 5128, 5356, 5519, 5669, 6352, 6527, 6769, 6880, 7045, 7361, 20511, 20722, 20795, 20873, 21155, 21344, 21437, 21663, 28545, 28677, 28782, 28892, 28978, 29165], "trial_type": "free-recall", "conditions": [18, 1200, "a", 18000], "internal_node_id": "0.0-32.0-0.0", "key_presses": [71, 89, 77, 78, 65, 83, 84, 13, 68, 79, 78, 79, 82, 13, 84, 87, 73, 83, 84, 69, 82, 13, 82, 69, 66, 69, 76, 13, 83, 84, 79, 77, 65, 67, 72, 13, 77, 79, 84, 79, 82, 13], "trial": 0, "time_elapsed": 248298, "type": "FREE_RECALL", "trial_index": 41}, "uniqueid": "MTK3682:386PBUZZXG4OF6BKKZVTCKRPCJWLJU", "dateTime": 1520956659564}, {"current_trial": 42, "trialdata": {"rt": 1521, "trial_type": "text", "internal_node_id": "0.0-33.0", "time_elapsed": 251828, "key_press": 32, "type": "INSTRUCTIONS", "trial_index": 42}, "uniqueid": "MTK3682:386PBUZZXG4OF6BKKZVTCKRPCJWLJU", "dateTime": 1520956663088}, {"current_trial": 43, "trialdata": {"rt": [3693, 5411, 7152, 9414, 11510, 13080, 15657], "trial_type": "math-distractor", "key_times": [3373, 3472, 3693, 5206, 5324, 5411, 6875, 7037, 7152, 9125, 9285, 9414, 11189, 11332, 11510, 12630, 12806, 13080, 15446, 15535, 15657, 17888, 17960], "responses": ["17", "12", "11", "15", "12", "12", "12"], "num2": [5, 9, 3, 7, 7, 1, 7, 8], "num3": [3, 2, 2, 4, 1, 3, 1, 1], "conditions": [18, 1200, "a", 18000], "internal_node_id": "0.0-34.0", "key_presses": [49, 55, 13, 49, 50, 13, 49, 49, 13, 49, 53, 13, 49, 50, 13, 49, 50, 13, 49, 50, 13, 49, 48], "trial": 1, "time_elapsed": 271842, "type": "DISTRACTOR", "trial_index": 43, "num1": [9, 1, 6, 4, 4, 8, 4, 5]}, "uniqueid": "MTK3682:386PBUZZXG4OF6BKKZVTCKRPCJWLJU", "dateTime": 1520956683102}, {"current_trial": 44, "trialdata": {"rt": -1, "trial_type": "single-stim", "stimulus": "<p id=\"stim\">10</p>", "internal_node_id": "0.0-35.0-0.0", "time_elapsed": 274854, "key_press": -1, "trial_index": 44}, "uniqueid": "MTK3682:386PBUZZXG4OF6BKKZVTCKRPCJWLJU", "dateTime": 1520956686114}, {"current_trial": 45, "trialdata": {"rt": -1, "trial_type": "single-stim", "stimulus": "<p id=\"stim\">9</p>", "internal_node_id": "0.0-35.0-1.0", "time_elapsed": 275859, "key_press": -1, "trial_index": 45}, "uniqueid": "MTK3682:386PBUZZXG4OF6BKKZVTCKRPCJWLJU", "dateTime": 1520956687119}, {"current_trial": 46, "trialdata": {"rt": -1, "trial_type": "single-stim", "stimulus": "<p id=\"stim\">8</p>", "internal_node_id": "0.0-35.0-2.0", "time_elapsed": 276866, "key_press": -1, "trial_index": 46}, "uniqueid": "MTK3682:386PBUZZXG4OF6BKKZVTCKRPCJWLJU", "dateTime": 1520956688126}, {"current_trial": 47, "trialdata": {"rt": -1, "trial_type": "single-stim", "stimulus": "<p id=\"stim\">7</p>", "internal_node_id": "0.0-35.0-3.0", "time_elapsed": 277869, "key_press": -1, "trial_index": 47}, "uniqueid": "MTK3682:386PBUZZXG4OF6BKKZVTCKRPCJWLJU", "dateTime": 1520956689129}, {"current_trial": 48, "trialdata": {"rt": -1, "trial_type": "single-stim", "stimulus": "<p id=\"stim\">6</p>", "internal_node_id": "0.0-35.0-4.0", "time_elapsed": 278873, "key_press": -1, "trial_index": 48}, "uniqueid": "MTK3682:386PBUZZXG4OF6BKKZVTCKRPCJWLJU", "dateTime": 1520956690133}, {"current_trial": 49, "trialdata": {"rt": -1, "trial_type": "single-stim", "stimulus": "<p id=\"stim\">5</p>", "internal_node_id": "0.0-35.0-5.0", "time_elapsed": 279883, "key_press": -1, "trial_index": 49}, "uniqueid": "MTK3682:386PBUZZXG4OF6BKKZVTCKRPCJWLJU", "dateTime": 1520956691143}, {"current_trial": 50, "trialdata": {"rt": -1, "trial_type": "single-stim", "stimulus": "<p id=\"stim\">4</p>", "internal_node_id": "0.0-35.0-6.0", "time_elapsed": 280888, "key_press": -1, "trial_index": 50}, "uniqueid": "MTK3682:386PBUZZXG4OF6BKKZVTCKRPCJWLJU", "dateTime": 1520956692148}, {"current_trial": 51, "trialdata": {"rt": -1, "trial_type": "single-stim", "stimulus": "<p id=\"stim\">3</p>", "internal_node_id": "0.0-35.0-7.0", "time_elapsed": 281890, "key_press": -1, "trial_index": 51}, "uniqueid": "MTK3682:386PBUZZXG4OF6BKKZVTCKRPCJWLJU", "dateTime": 1520956693151}, {"current_trial": 52, "trialdata": {"rt": -1, "trial_type": "single-stim", "stimulus": "<p id=\"stim\">2</p>", "internal_node_id": "0.0-35.0-8.0", "time_elapsed": 282898, "key_press": -1, "trial_index": 52}, "uniqueid": "MTK3682:386PBUZZXG4OF6BKKZVTCKRPCJWLJU", "dateTime": 1520956694158}, {"current_trial": 53, "trialdata": {"rt": -1, "trial_type": "single-stim", "stimulus": "<p id=\"stim\">1</p>", "internal_node_id": "0.0-35.0-9.0", "time_elapsed": 283903, "key_press": -1, "trial_index": 53}, "uniqueid": "MTK3682:386PBUZZXG4OF6BKKZVTCKRPCJWLJU", "dateTime": 1520956695163}, {"current_trial": 54, "trialdata": {"rt": -1, "trial_type": "single-stim", "stimulus": "<p id=\"stim\">+</p>", "internal_node_id": "0.0-36.0-0.0", "time_elapsed": 285407, "key_press": -1, "type": "FIXATION", "trial_index": 54}, "uniqueid": "MTK3682:386PBUZZXG4OF6BKKZVTCKRPCJWLJU", "dateTime": 1520956696668}, {"current_trial": 55, "trialdata": {"rt": -1000, "trial_type": "single-audio", "word": "lace", "stimulus": "/static/audio/wordpool/LACE.wav", "conditions": [18, 1200, "a", 18000], "internal_node_id": "0.0-37.0", "trial": 1, "time_elapsed": 287495, "serialpos": 0, "key_press": -1, "wordID": 791, "type": "PRES_AUD", "trial_index": 55}, "uniqueid": "MTK3682:386PBUZZXG4OF6BKKZVTCKRPCJWLJU", "dateTime": 1520956698757}, {"current_trial": 56, "trialdata": {"rt": -1000, "trial_type": "single-audio", "word": "champagne", "stimulus": "/static/audio/wordpool/CHAMPAGNE.wav", "conditions": [18, 1200, "a", 18000], "internal_node_id": "0.0-38.0", "trial": 1, "time_elapsed": 289702, "serialpos": 1, "key_press": -1, "wordID": 277, "type": "PRES_AUD", "trial_index": 56}, "uniqueid": "MTK3682:386PBUZZXG4OF6BKKZVTCKRPCJWLJU", "dateTime": 1520956700962}, {"current_trial": 57, "trialdata": {"rt": -1000, "trial_type": "single-audio", "word": "scallop", "stimulus": "/static/audio/wordpool/SCALLOP.wav", "conditions": [18, 1200, "a", 18000], "internal_node_id": "0.0-39.0", "trial": 1, "time_elapsed": 291881, "serialpos": 2, "key_press": -1, "wordID": 1241, "type": "PRES_AUD", "trial_index": 57}, "uniqueid": "MTK3682:386PBUZZXG4OF6BKKZVTCKRPCJWLJU", "dateTime": 1520956703141}, {"current_trial": 58, "trialdata": {"rt": -1000, "trial_type": "single-audio", "word": "leopard", "stimulus": "/static/audio/wordpool/LEOPARD.wav", "conditions": [18, 1200, "a", 18000], "internal_node_id": "0.0-40.0", "trial": 1, "time_elapsed": 293992, "serialpos": 3, "key_press": -1, "wordID": 811, "type": "PRES_AUD", "trial_index": 58}, "uniqueid": "MTK3682:386PBUZZXG4OF6BKKZVTCKRPCJWLJU", "dateTime": 1520956705252}, {"current_trial": 59, "trialdata": {"rt": -1000, "trial_type": "single-audio", "word": "france", "stimulus": "/static/audio/wordpool/FRANCE.wav", "conditions": [18, 1200, "a", 18000], "internal_node_id": "0.0-41.0", "trial": 1, "time_elapsed": 296227, "serialpos": 4, "key_press": -1, "wordID": 600, "type": "PRES_AUD", "trial_index": 59}, "uniqueid": "MTK3682:386PBUZZXG4OF6BKKZVTCKRPCJWLJU", "dateTime": 1520956707487}, {"current_trial": 60, "trialdata": {"rt": -1000, "trial_type": "single-audio", "word": "rug", "stimulus": "/static/audio/wordpool/RUG.wav", "conditions": [18, 1200, "a", 18000], "internal_node_id": "0.0-42.0", "trial": 1, "time_elapsed": 298580, "serialpos": 5, "key_press": -1, "wordID": 1214, "type": "PRES_AUD", "trial_index": 60}, "uniqueid": "MTK3682:386PBUZZXG4OF6BKKZVTCKRPCJWLJU", "dateTime": 1520956709841}, {"current_trial": 61, "trialdata": {"rt": -1000, "trial_type": "single-audio", "word": "grape", "stimulus": "/static/audio/wordpool/GRAPE.wav", "conditions": [18, 1200, "a", 18000], "internal_node_id": "0.0-43.0", "trial": 1, "time_elapsed": 300949, "serialpos": 6, "key_press": -1, "wordID": 653, "type": "PRES_AUD", "trial_index": 61}, "uniqueid": "MTK3682:386PBUZZXG4OF6BKKZVTCKRPCJWLJU", "dateTime": 1520956712210}, {"current_trial": 62, "trialdata": {"rt": -1000, "trial_type": "single-audio", "word": "pocket", "stimulus": "/static/audio/wordpool/POCKET.wav", "conditions": [18, 1200, "a", 18000], "internal_node_id": "0.0-44.0", "trial": 1, "time_elapsed": 302999, "serialpos": 7, "key_press": -1, "wordID": 1092, "type": "PRES_AUD", "trial_index": 62}, "uniqueid": "MTK3682:386PBUZZXG4OF6BKKZVTCKRPCJWLJU", "dateTime": 1520956714260}, {"current_trial": 63, "trialdata": {"rt": -1000, "trial_type": "single-audio", "word": "sister", "stimulus": "/static/audio/wordpool/SISTER.wav", "conditions": [18, 1200, "a", 18000], "internal_node_id": "0.0-45.0", "trial": 1, "time_elapsed": 305257, "serialpos": 8, "key_press": -1, "wordID": 1311, "type": "PRES_AUD", "trial_index": 63}, "uniqueid": "MTK3682:386PBUZZXG4OF6BKKZVTCKRPCJWLJU", "dateTime": 1520956716517}, {"current_trial": 64, "trialdata": {"rt": -1000, "trial_type": "single-audio", "word": "turkey", "stimulus": "/static/audio/wordpool/TURKEY.wav", "conditions": [18, 1200, "a", 18000], "internal_node_id": "0.0-46.0", "trial": 1, "time_elapsed": 307407, "serialpos": 9, "key_press": -1, "wordID": 1519, "type": "PRES_AUD", "trial_index": 64}, "uniqueid": "MTK3682:386PBUZZXG4OF6BKKZVTCKRPCJWLJU", "dateTime": 1520956718668}, {"current_trial": 65, "trialdata": {"rt": -1000, "trial_type": "single-audio", "word": "cafe", "stimulus": "/static/audio/wordpool/CAFE.wav", "conditions": [18, 1200, "a", 18000], "internal_node_id": "0.0-47.0", "trial": 1, "time_elapsed": 309613, "serialpos": 10, "key_press": -1, "wordID": 215, "type": "PRES_AUD", "trial_index": 65}, "uniqueid": "MTK3682:386PBUZZXG4OF6BKKZVTCKRPCJWLJU", "dateTime": 1520956720873}, {"current_trial": 66, "trialdata": {"rt": -1000, "trial_type": "single-audio", "word": "worker", "stimulus": "/static/audio/wordpool/WORKER.wav", "conditions": [18, 1200, "a", 18000], "internal_node_id": "0.0-48.0", "trial": 1, "time_elapsed": 311655, "serialpos": 11, "key_press": -1, "wordID": 1620, "type": "PRES_AUD", "trial_index": 66}, "uniqueid": "MTK3682:386PBUZZXG4OF6BKKZVTCKRPCJWLJU", "dateTime": 1520956722915}, {"current_trial": 67, "trialdata": {"rt": -1000, "trial_type": "single-audio", "word": "turnip", "stimulus": "/static/audio/wordpool/TURNIP.wav", "conditions": [18, 1200, "a", 18000], "internal_node_id": "0.0-49.0", "trial": 1, "time_elapsed": 314015, "serialpos": 12, "key_press": -1, "wordID": 1520, "type": "PRES_AUD", "trial_index": 67}, "uniqueid": "MTK3682:386PBUZZXG4OF6BKKZVTCKRPCJWLJU", "dateTime": 1520956725275}, {"current_trial": 68, "trialdata": {"rt": -1000, "trial_type": "single-audio", "word": "milk", "stimulus": "/static/audio/wordpool/MILK.wav", "conditions": [18, 1200, "a", 18000], "internal_node_id": "0.0-50.0", "trial": 1, "time_elapsed": 316310, "serialpos": 13, "key_press": -1, "wordID": 894, "type": "PRES_AUD", "trial_index": 68}, "uniqueid": "MTK3682:386PBUZZXG4OF6BKKZVTCKRPCJWLJU", "dateTime": 1520956727576}, {"current_trial": 69, "trialdata": {"rt": -1000, "trial_type": "single-audio", "word": "marine", "stimulus": "/static/audio/wordpool/MARINE.wav", "conditions": [18, 1200, "a", 18000], "internal_node_id": "0.0-51.0", "trial": 1, "time_elapsed": 318341, "serialpos": 14, "key_press": -1, "wordID": 868, "type": "PRES_AUD", "trial_index": 69}, "uniqueid": "MTK3682:386PBUZZXG4OF6BKKZVTCKRPCJWLJU", "dateTime": 1520956729601}, {"current_trial": 70, "trialdata": {"rt": -1000, "trial_type": "single-audio", "word": "island", "stimulus": "/static/audio/wordpool/ISLAND.wav", "conditions": [18, 1200, "a", 18000], "internal_node_id": "0.0-52.0", "trial": 1, "time_elapsed": 320632, "serialpos": 15, "key_press": -1, "wordID": 744, "type": "PRES_AUD", "trial_index": 70}, "uniqueid": "MTK3682:386PBUZZXG4OF6BKKZVTCKRPCJWLJU", "dateTime": 1520956731892}, {"current_trial": 71, "trialdata": {"rt": -1000, "trial_type": "single-audio", "word": "bacon", "stimulus": "/static/audio/wordpool/BACON.wav", "conditions": [18, 1200, "a", 18000], "internal_node_id": "0.0-53.0", "trial": 1, "time_elapsed": 322931, "serialpos": 16, "key_press": -1, "wordID": 66, "type": "PRES_AUD", "trial_index": 71}, "uniqueid": "MTK3682:386PBUZZXG4OF6BKKZVTCKRPCJWLJU", "dateTime": 1520956734192}, {"current_trial": 72, "trialdata": {"rt": -1000, "trial_type": "single-audio", "word": "breast", "stimulus": "/static/audio/wordpool/BREAST.wav", "conditions": [18, 1200, "a", 18000], "internal_node_id": "0.0-54.0", "trial": 1, "time_elapsed": 325058, "serialpos": 17, "key_press": -1, "wordID": 170, "type": "PRES_AUD", "trial_index": 72}, "uniqueid": "MTK3682:386PBUZZXG4OF6BKKZVTCKRPCJWLJU", "dateTime": 1520956736319}, {"current_trial": 73, "trialdata": {"rt": -1, "trial_type": "single-stim", "stimulus": "", "internal_node_id": "0.0-55.0-0.0", "time_elapsed": 326375, "key_press": -1, "type": "PRE_RECALL_DELAY", "trial_index": 73}, "uniqueid": "MTK3682:386PBUZZXG4OF6BKKZVTCKRPCJWLJU", "dateTime": 1520956737636}, {"current_trial": 74, "trialdata": {"rt": -1000, "trial_type": "single-audio", "stimulus": "/static/audio/400Hz.wav", "internal_node_id": "0.0-56.0", "time_elapsed": 326878, "key_press": -1, "type": "PRE_RECALL_ALERT", "trial_index": 74}, "uniqueid": "MTK3682:386PBUZZXG4OF6BKKZVTCKRPCJWLJU", "dateTime": 1520956738138}, {"current_trial": 75, "trialdata": {"rt": [3557, 4572, 7077, 8583, 11281, 14678], "recwords": ["paris", "bacon", "thrust", "lace", "grape", "champagne"], "key_times": [2121, 2211, 2352, 2724, 2794, 2985, 3557, 3823, 3942, 4114, 4186, 4278, 4572, 6105, 6188, 6300, 6405, 6551, 6847, 7077, 8103, 8177, 8379, 8480, 8583, 10294, 10440, 10751, 10919, 11039, 11281, 11580, 11672, 11829, 11977, 12779, 13074, 13427, 13538, 13755, 14018, 14093, 14678], "trial_type": "free-recall", "conditions": [18, 1200, "a", 18000], "internal_node_id": "0.0-57.0-0.0", "key_presses": [16, 80, 65, 82, 73, 83, 13, 66, 65, 67, 79, 78, 13, 84, 72, 82, 85, 83, 84, 13, 76, 65, 67, 69, 13, 71, 82, 65, 80, 69, 13, 67, 72, 65, 80, 8, 77, 80, 65, 71, 78, 69, 13], "trial": 1, "time_elapsed": 386885, "type": "FREE_RECALL", "trial_index": 75}, "uniqueid": "MTK3682:386PBUZZXG4OF6BKKZVTCKRPCJWLJU", "dateTime": 1520956798151}, {"current_trial": 76, "trialdata": {"rt": 14296, "trial_type": "text", "internal_node_id": "0.0-58.0", "time_elapsed": 403193, "key_press": 66, "type": "INSTRUCTIONS", "trial_index": 76}, "uniqueid": "MTK3682:386PBUZZXG4OF6BKKZVTCKRPCJWLJU", "dateTime": 1520956814454}, {"current_trial": 77, "trialdata": {"rt": [4395, 6052, 8823, 10554, 12689, 14331, 16203, 18386, 20420, 22336], "trial_type": "math-distractor", "key_times": [3115, 3229, 4395, 5967, 6052, 8562, 8716, 8823, 10474, 10554, 12486, 12582, 12689, 14144, 14216, 14331, 16025, 16080, 16203, 18173, 18287, 18386, 20175, 20285, 20420, 22039, 22187, 22336, 23682, 23844], "responses": ["25", "5", "11", "6", "15", "10", "10", "18", "13", "21"], "num2": [9, 2, 6, 1, 2, 2, 2, 9, 1, 9, 2], "num3": [7, 2, 3, 3, 8, 4, 6, 1, 7, 3, 3], "conditions": [24, 800, "a", 24000], "internal_node_id": "0.0-59.0", "key_presses": [50, 53, 13, 53, 13, 49, 49, 13, 54, 13, 49, 53, 13, 49, 48, 13, 49, 48, 13, 49, 56, 13, 49, 51, 13, 50, 49, 13, 49, 52], "trial": 2, "time_elapsed": 428206, "type": "DISTRACTOR", "trial_index": 77, "num1": [9, 1, 2, 2, 5, 4, 2, 8, 5, 9, 8]}, "uniqueid": "MTK3682:386PBUZZXG4OF6BKKZVTCKRPCJWLJU", "dateTime": 1520956839466}, {"current_trial": 78, "trialdata": {"rt": -1, "trial_type": "single-stim", "stimulus": "<p id=\"stim\">10</p>", "internal_node_id": "0.0-60.0-0.0", "time_elapsed": 431209, "key_press": -1, "trial_index": 78}, "uniqueid": "MTK3682:386PBUZZXG4OF6BKKZVTCKRPCJWLJU", "dateTime": 1520956842470}, {"current_trial": 79, "trialdata": {"rt": -1, "trial_type": "single-stim", "stimulus": "<p id=\"stim\">9</p>", "internal_node_id": "0.0-60.0-1.0", "time_elapsed": 432212, "key_press": -1, "trial_index": 79}, "uniqueid": "MTK3682:386PBUZZXG4OF6BKKZVTCKRPCJWLJU", "dateTime": 1520956843472}, {"current_trial": 80, "trialdata": {"rt": -1, "trial_type": "single-stim", "stimulus": "<p id=\"stim\">8</p>", "internal_node_id": "0.0-60.0-2.0", "time_elapsed": 433216, "key_press": -1, "trial_index": 80}, "uniqueid": "MTK3682:386PBUZZXG4OF6BKKZVTCKRPCJWLJU", "dateTime": 1520956844476}, {"current_trial": 81, "trialdata": {"rt": -1, "trial_type": "single-stim", "stimulus": "<p id=\"stim\">7</p>", "internal_node_id": "0.0-60.0-3.0", "time_elapsed": 434220, "key_press": -1, "trial_index": 81}, "uniqueid": "MTK3682:386PBUZZXG4OF6BKKZVTCKRPCJWLJU", "dateTime": 1520956845480}, {"current_trial": 82, "trialdata": {"rt": -1, "trial_type": "single-stim", "stimulus": "<p id=\"stim\">6</p>", "internal_node_id": "0.0-60.0-4.0", "time_elapsed": 435225, "key_press": -1, "trial_index": 82}, "uniqueid": "MTK3682:386PBUZZXG4OF6BKKZVTCKRPCJWLJU", "dateTime": 1520956846485}, {"current_trial": 83, "trialdata": {"rt": -1, "trial_type": "single-stim", "stimulus": "<p id=\"stim\">5</p>", "internal_node_id": "0.0-60.0-5.0", "time_elapsed": 436227, "key_press": -1, "trial_index": 83}, "uniqueid": "MTK3682:386PBUZZXG4OF6BKKZVTCKRPCJWLJU", "dateTime": 1520956847487}, {"current_trial": 84, "trialdata": {"rt": -1, "trial_type": "single-stim", "stimulus": "<p id=\"stim\">4</p>", "internal_node_id": "0.0-60.0-6.0", "time_elapsed": 437228, "key_press": -1, "trial_index": 84}, "uniqueid": "MTK3682:386PBUZZXG4OF6BKKZVTCKRPCJWLJU", "dateTime": 1520956848488}, {"current_trial": 85, "trialdata": {"rt": -1, "trial_type": "single-stim", "stimulus": "<p id=\"stim\">3</p>", "internal_node_id": "0.0-60.0-7.0", "time_elapsed": 438233, "key_press": -1, "trial_index": 85}, "uniqueid": "MTK3682:386PBUZZXG4OF6BKKZVTCKRPCJWLJU", "dateTime": 1520956849493}, {"current_trial": 86, "trialdata": {"rt": -1, "trial_type": "single-stim", "stimulus": "<p id=\"stim\">2</p>", "internal_node_id": "0.0-60.0-8.0", "time_elapsed": 439236, "key_press": -1, "trial_index": 86}, "uniqueid": "MTK3682:386PBUZZXG4OF6BKKZVTCKRPCJWLJU", "dateTime": 1520956850496}, {"current_trial": 87, "trialdata": {"rt": -1, "trial_type": "single-stim", "stimulus": "<p id=\"stim\">1</p>", "internal_node_id": "0.0-60.0-9.0", "time_elapsed": 440239, "key_press": -1, "trial_index": 87}, "uniqueid": "MTK3682:386PBUZZXG4OF6BKKZVTCKRPCJWLJU", "dateTime": 1520956851499}, {"current_trial": 88, "trialdata": {"rt": -1, "trial_type": "single-stim", "stimulus": "<p id=\"stim\">+</p>", "internal_node_id": "0.0-61.0-0.0", "time_elapsed": 441744, "key_press": -1, "type": "FIXATION", "trial_index": 88}, "uniqueid": "MTK3682:386PBUZZXG4OF6BKKZVTCKRPCJWLJU", "dateTime": 1520956853004}, {"current_trial": 89, "trialdata": {"rt": -1000, "trial_type": "single-audio", "word": "garlic", "stimulus": "/static/audio/wordpool/GARLIC.wav", "conditions": [24, 800, "a", 24000], "internal_node_id": "0.0-62.0", "trial": 2, "time_elapsed": 443365, "serialpos": 0, "key_press": -1, "wordID": 623, "type": "PRES_AUD", "trial_index": 89}, "uniqueid": "MTK3682:386PBUZZXG4OF6BKKZVTCKRPCJWLJU", "dateTime": 1520956854625}, {"current_trial": 90, "trialdata": {"rt": -1000, "trial_type": "single-audio", "word": "grill", "stimulus": "/static/audio/wordpool/GRILL.wav", "conditions": [24, 800, "a", 24000], "internal_node_id": "0.0-63.0", "trial": 2, "time_elapsed": 445205, "serialpos": 1, "key_press": -1, "wordID": 660, "type": "PRES_AUD", "trial_index": 90}, "uniqueid": "MTK3682:386PBUZZXG4OF6BKKZVTCKRPCJWLJU", "dateTime": 1520956856465}, {"current_trial": 91, "trialdata": {"rt": -1000, "trial_type": "single-audio", "word": "bouquet", "stimulus": "/static/audio/wordpool/BOUQUET.wav", "conditions": [24, 800, "a", 24000], "internal_node_id": "0.0-64.0", "trial": 2, "time_elapsed": 447000, "serialpos": 2, "key_press": -1, "wordID": 156, "type": "PRES_AUD", "trial_index": 91}, "uniqueid": "MTK3682:386PBUZZXG4OF6BKKZVTCKRPCJWLJU", "dateTime": 1520956858260}, {"current_trial": 92, "trialdata": {"rt": -1000, "trial_type": "single-audio", "word": "concert", "stimulus": "/static/audio/wordpool/CONCERT.wav", "conditions": [24, 800, "a", 24000], "internal_node_id": "0.0-65.0", "trial": 2, "time_elapsed": 448879, "serialpos": 3, "key_press": -1, "wordID": 359, "type": "PRES_AUD", "trial_index": 92}, "uniqueid": "MTK3682:386PBUZZXG4OF6BKKZVTCKRPCJWLJU", "dateTime": 1520956860139}, {"current_trial": 93, "trialdata": {"rt": -1000, "trial_type": "single-audio", "word": "radish", "stimulus": "/static/audio/wordpool/RADISH.wav", "conditions": [24, 800, "a", 24000], "internal_node_id": "0.0-66.0", "trial": 2, "time_elapsed": 450638, "serialpos": 4, "key_press": -1, "wordID": 1157, "type": "PRES_AUD", "trial_index": 93}, "uniqueid": "MTK3682:386PBUZZXG4OF6BKKZVTCKRPCJWLJU", "dateTime": 1520956861899}, {"current_trial": 94, "trialdata": {"rt": -1000, "trial_type": "single-audio", "word": "pebble", "stimulus": "/static/audio/wordpool/PEBBLE.wav", "conditions": [24, 800, "a", 24000], "internal_node_id": "0.0-67.0", "trial": 2, "time_elapsed": 452255, "serialpos": 5, "key_press": -1, "wordID": 1034, "type": "PRES_AUD", "trial_index": 94}, "uniqueid": "MTK3682:386PBUZZXG4OF6BKKZVTCKRPCJWLJU", "dateTime": 1520956863515}, {"current_trial": 95, "trialdata": {"rt": -1000, "trial_type": "single-audio", "word": "iceberg", "stimulus": "/static/audio/wordpool/ICEBERG.wav", "conditions": [24, 800, "a", 24000], "internal_node_id": "0.0-68.0", "trial": 2, "time_elapsed": 453899, "serialpos": 6, "key_press": -1, "wordID": 730, "type": "PRES_AUD", "trial_index": 95}, "uniqueid": "MTK3682:386PBUZZXG4OF6BKKZVTCKRPCJWLJU", "dateTime": 1520956865159}, {"current_trial": 96, "trialdata": {"rt": -1000, "trial_type": "single-audio", "word": "apron", "stimulus": "/static/audio/wordpool/APRON.wav", "conditions": [24, 800, "a", 24000], "internal_node_id": "0.0-69.0", "trial": 2, "time_elapsed": 455808, "serialpos": 7, "key_press": -1, "wordID": 34, "type": "PRES_AUD", "trial_index": 96}, "uniqueid": "MTK3682:386PBUZZXG4OF6BKKZVTCKRPCJWLJU", "dateTime": 1520956867070}, {"current_trial": 97, "trialdata": {"rt": -1000, "trial_type": "single-audio", "word": "lily", "stimulus": "/static/audio/wordpool/LILY.wav", "conditions": [24, 800, "a", 24000], "internal_node_id": "0.0-70.0", "trial": 2, "time_elapsed": 457687, "serialpos": 8, "key_press": -1, "wordID": 820, "type": "PRES_AUD", "trial_index": 97}, "uniqueid": "MTK3682:386PBUZZXG4OF6BKKZVTCKRPCJWLJU", "dateTime": 1520956868947}, {"current_trial": 98, "trialdata": {"rt": -1000, "trial_type": "single-audio", "word": "shrub", "stimulus": "/static/audio/wordpool/SHRUB.wav", "conditions": [24, 800, "a", 24000], "internal_node_id": "0.0-71.0", "trial": 2, "time_elapsed": 459371, "serialpos": 9, "key_press": -1, "wordID": 1298, "type": "PRES_AUD", "trial_index": 98}, "uniqueid": "MTK3682:386PBUZZXG4OF6BKKZVTCKRPCJWLJU", "dateTime": 1520956870632}, {"current_trial": 99, "trialdata": {"rt": -1000, "trial_type": "single-audio", "word": "student", "stimulus": "/static/audio/wordpool/STUDENT.wav", "conditions": [24, 800, "a", 24000], "internal_node_id": "0.0-72.0", "trial": 2, "time_elapsed": 461281, "serialpos": 10, "key_press": -1, "wordID": 1394, "type": "PRES_AUD", "trial_index": 99}, "uniqueid": "MTK3682:386PBUZZXG4OF6BKKZVTCKRPCJWLJU", "dateTime": 1520956872541}, {"current_trial": 100, "trialdata": {"rt": -1000, "trial_type": "single-audio", "word": "statue", "stimulus": "/static/audio/wordpool/STATUE.wav", "conditions": [24, 800, "a", 24000], "internal_node_id": "0.0-73.0", "trial": 2, "time_elapsed": 463221, "serialpos": 11, "key_press": -1, "wordID": 1373, "type": "PRES_AUD", "trial_index": 100}, "uniqueid": "MTK3682:386PBUZZXG4OF6BKKZVTCKRPCJWLJU", "dateTime": 1520956874481}, {"current_trial": 101, "trialdata": {"rt": -1000, "trial_type": "single-audio", "word": "crib", "stimulus": "/static/audio/wordpool/CRIB.wav", "conditions": [24, 800, "a", 24000], "internal_node_id": "0.0-74.0", "trial": 2, "time_elapsed": 465169, "serialpos": 12, "key_press": -1, "wordID": 406, "type": "PRES_AUD", "trial_index": 101}, "uniqueid": "MTK3682:386PBUZZXG4OF6BKKZVTCKRPCJWLJU", "dateTime": 1520956876430}, {"current_trial": 102, "trialdata": {"rt": -1000, "trial_type": "single-audio", "word": "sketch", "stimulus": "/static/audio/wordpool/SKETCH.wav", "conditions": [24, 800, "a", 24000], "internal_node_id": "0.0-75.0", "trial": 2, "time_elapsed": 467022, "serialpos": 13, "key_press": -1, "wordID": 1314, "type": "PRES_AUD", "trial_index": 102}, "uniqueid": "MTK3682:386PBUZZXG4OF6BKKZVTCKRPCJWLJU", "dateTime": 1520956878282}, {"current_trial": 103, "trialdata": {"rt": -1000, "trial_type": "single-audio", "word": "dustpan", "stimulus": "/static/audio/wordpool/DUSTPAN.wav", "conditions": [24, 800, "a", 24000], "internal_node_id": "0.0-76.0", "trial": 2, "time_elapsed": 468949, "serialpos": 14, "key_press": -1, "wordID": 508, "type": "PRES_AUD", "trial_index": 103}, "uniqueid": "MTK3682:386PBUZZXG4OF6BKKZVTCKRPCJWLJU", "dateTime": 1520956880209}, {"current_trial": 104, "trialdata": {"rt": -1000, "trial_type": "single-audio", "word": "widow", "stimulus": "/static/audio/wordpool/WIDOW.wav", "conditions": [24, 800, "a", 24000], "internal_node_id": "0.0-77.0", "trial": 2, "time_elapsed": 470869, "serialpos": 15, "key_press": -1, "wordID": 1607, "type": "PRES_AUD", "trial_index": 104}, "uniqueid": "MTK3682:386PBUZZXG4OF6BKKZVTCKRPCJWLJU", "dateTime": 1520956882129}, {"current_trial": 105, "trialdata": {"rt": -1000, "trial_type": "single-audio", "word": "handbag", "stimulus": "/static/audio/wordpool/HANDBAG.wav", "conditions": [24, 800, "a", 24000], "internal_node_id": "0.0-78.0", "trial": 2, "time_elapsed": 472489, "serialpos": 16, "key_press": -1, "wordID": 683, "type": "PRES_AUD", "trial_index": 105}, "uniqueid": "MTK3682:386PBUZZXG4OF6BKKZVTCKRPCJWLJU", "dateTime": 1520956883750}, {"current_trial": 106, "trialdata": {"rt": -1000, "trial_type": "single-audio", "word": "swimmer", "stimulus": "/static/audio/wordpool/SWIMMER.wav", "conditions": [24, 800, "a", 24000], "internal_node_id": "0.0-79.0", "trial": 2, "time_elapsed": 474405, "serialpos": 17, "key_press": -1, "wordID": 1419, "type": "PRES_AUD", "trial_index": 106}, "uniqueid": "MTK3682:386PBUZZXG4OF6BKKZVTCKRPCJWLJU", "dateTime": 1520956885665}, {"current_trial": 107, "trialdata": {"rt": -1000, "trial_type": "single-audio", "word": "preacher", "stimulus": "/static/audio/wordpool/PREACHER.wav", "conditions": [24, 800, "a", 24000], "internal_node_id": "0.0-80.0", "trial": 2, "time_elapsed": 476154, "serialpos": 18, "key_press": -1, "wordID": 1118, "type": "PRES_AUD", "trial_index": 107}, "uniqueid": "MTK3682:386PBUZZXG4OF6BKKZVTCKRPCJWLJU", "dateTime": 1520956887414}, {"current_trial": 108, "trialdata": {"rt": -1000, "trial_type": "single-audio", "word": "monster", "stimulus": "/static/audio/wordpool/MONSTER.wav", "conditions": [24, 800, "a", 24000], "internal_node_id": "0.0-81.0", "trial": 2, "time_elapsed": 478150, "serialpos": 19, "key_press": -1, "wordID": 911, "type": "PRES_AUD", "trial_index": 108}, "uniqueid": "MTK3682:386PBUZZXG4OF6BKKZVTCKRPCJWLJU", "dateTime": 1520956889410}, {"current_trial": 109, "trialdata": {"rt": -1000, "trial_type": "single-audio", "word": "briefcase", "stimulus": "/static/audio/wordpool/BRIEFCASE.wav", "conditions": [24, 800, "a", 24000], "internal_node_id": "0.0-82.0", "trial": 2, "time_elapsed": 480000, "serialpos": 20, "key_press": -1, "wordID": 174, "type": "PRES_AUD", "trial_index": 109}, "uniqueid": "MTK3682:386PBUZZXG4OF6BKKZVTCKRPCJWLJU", "dateTime": 1520956891261}, {"current_trial": 110, "trialdata": {"rt": -1000, "trial_type": "single-audio", "word": "climber", "stimulus": "/static/audio/wordpool/CLIMBER.wav", "conditions": [24, 800, "a", 24000], "internal_node_id": "0.0-83.0", "trial": 2, "time_elapsed": 481689, "serialpos": 21, "key_press": -1, "wordID": 322, "type": "PRES_AUD", "trial_index": 110}, "uniqueid": "MTK3682:386PBUZZXG4OF6BKKZVTCKRPCJWLJU", "dateTime": 1520956892949}, {"current_trial": 111, "trialdata": {"rt": -1000, "trial_type": "single-audio", "word": "hiker", "stimulus": "/static/audio/wordpool/HIKER.wav", "conditions": [24, 800, "a", 24000], "internal_node_id": "0.0-84.0", "trial": 2, "time_elapsed": 483347, "serialpos": 22, "key_press": -1, "wordID": 707, "type": "PRES_AUD", "trial_index": 111}, "uniqueid": "MTK3682:386PBUZZXG4OF6BKKZVTCKRPCJWLJU", "dateTime": 1520956894607}, {"current_trial": 112, "trialdata": {"rt": -1000, "trial_type": "single-audio", "word": "powder", "stimulus": "/static/audio/wordpool/POWDER.wav", "conditions": [24, 800, "a", 24000], "internal_node_id": "0.0-85.0", "trial": 2, "time_elapsed": 484973, "serialpos": 23, "key_press": -1, "wordID": 1116, "type": "PRES_AUD", "trial_index": 112}, "uniqueid": "MTK3682:386PBUZZXG4OF6BKKZVTCKRPCJWLJU", "dateTime": 1520956896233}, {"current_trial": 113, "trialdata": {"rt": -1, "trial_type": "single-stim", "stimulus": "", "internal_node_id": "0.0-86.0-0.0", "time_elapsed": 486246, "key_press": -1, "type": "PRE_RECALL_DELAY", "trial_index": 113}, "uniqueid": "MTK3682:386PBUZZXG4OF6BKKZVTCKRPCJWLJU", "dateTime": 1520956897507}, {"current_trial": 114, "trialdata": {"rt": -1000, "trial_type": "single-audio", "stimulus": "/static/audio/400Hz.wav", "internal_node_id": "0.0-87.0", "time_elapsed": 486749, "key_press": -1, "type": "PRE_RECALL_ALERT", "trial_index": 114}, "uniqueid": "MTK3682:386PBUZZXG4OF6BKKZVTCKRPCJWLJU", "dateTime": 1520956898009}, {"current_trial": 115, "trialdata": {"rt": [3169, 5639, 7033, 10042, 12855], "recwords": ["powder", "preacher", "student", "garlic", "swimmer"], "key_times": [2098, 2201, 2345, 2717, 2899, 3043, 3169, 3494, 3638, 3754, 3987, 4919, 5035, 5162, 5331, 5639, 5849, 6160, 6245, 6379, 6521, 6621, 6740, 7033, 7337, 7604, 7890, 8042, 8177, 8320, 10042, 11765, 11934, 12007, 12208, 12342, 12439, 12576, 12855], "trial_type": "free-recall", "conditions": [24, 800, "a", 24000], "internal_node_id": "0.0-88.0-0.0", "key_presses": [80, 79, 87, 68, 69, 82, 13, 80, 82, 69, 65, 67, 72, 69, 82, 13, 83, 84, 85, 68, 69, 78, 84, 13, 71, 65, 82, 76, 73, 67, 13, 83, 87, 73, 77, 77, 69, 82, 13], "trial": 2, "time_elapsed": 546757, "type": "FREE_RECALL", "trial_index": 115}, "uniqueid": "MTK3682:386PBUZZXG4OF6BKKZVTCKRPCJWLJU", "dateTime": 1520956958023}, {"current_trial": 116, "trialdata": {"rt": 1433, "trial_type": "text", "internal_node_id": "0.0-89.0", "time_elapsed": 550200, "key_press": 32, "type": "INSTRUCTIONS", "trial_index": 116}, "uniqueid": "MTK3682:386PBUZZXG4OF6BKKZVTCKRPCJWLJU", "dateTime": 1520956961460}, {"current_trial": 117, "trialdata": {"rt": [3606, 5441, 8140, 9735, 12248, 13786, 15598, 18225, 19687, 22459], "trial_type": "math-distractor", "key_times": [3084, 3273, 3606, 5222, 5326, 5441, 7932, 8040, 8140, 9474, 9591, 9735, 12018, 12171, 12248, 13704, 13786, 15297, 15428, 15598, 18003, 18145, 18225, 19471, 19574, 19687, 22307, 22361, 22459], "responses": ["21", "14", "15", "12", "22", "7", "12", "22", "13", "10"], "num2": [8, 1, 6, 3, 5, 1, 7, 8, 5, 3, 8], "num3": [9, 9, 4, 6, 8, 2, 3, 9, 3, 6, 9], "conditions": [12, 800, "a", 24000], "internal_node_id": "0.0-90.0", "key_presses": [50, 49, 13, 49, 52, 13, 49, 53, 13, 49, 50, 13, 50, 50, 13, 55, 13, 49, 50, 13, 50, 50, 13, 49, 51, 13, 49, 48, 13], "trial": 3, "time_elapsed": 576210, "type": "DISTRACTOR", "trial_index": 117, "num1": [4, 4, 5, 1, 9, 4, 2, 5, 5, 1, 2]}, "uniqueid": "MTK3682:386PBUZZXG4OF6BKKZVTCKRPCJWLJU", "dateTime": 1520956987471}, {"current_trial": 118, "trialdata": {"rt": -1, "trial_type": "single-stim", "stimulus": "<p id=\"stim\">10</p>", "internal_node_id": "0.0-91.0-0.0", "time_elapsed": 579217, "key_press": -1, "trial_index": 118}, "uniqueid": "MTK3682:386PBUZZXG4OF6BKKZVTCKRPCJWLJU", "dateTime": 1520956990478}, {"current_trial": 119, "trialdata": {"rt": -1, "trial_type": "single-stim", "stimulus": "<p id=\"stim\">9</p>", "internal_node_id": "0.0-91.0-1.0", "time_elapsed": 580220, "key_press": -1, "trial_index": 119}, "uniqueid": "MTK3682:386PBUZZXG4OF6BKKZVTCKRPCJWLJU", "dateTime": 1520956991481}, {"current_trial": 120, "trialdata": {"rt": -1, "trial_type": "single-stim", "stimulus": "<p id=\"stim\">8</p>", "internal_node_id": "0.0-91.0-2.0", "time_elapsed": 581226, "key_press": -1, "trial_index": 120}, "uniqueid": "MTK3682:386PBUZZXG4OF6BKKZVTCKRPCJWLJU", "dateTime": 1520956992486}, {"current_trial": 121, "trialdata": {"rt": -1, "trial_type": "single-stim", "stimulus": "<p id=\"stim\">7</p>", "internal_node_id": "0.0-91.0-3.0", "time_elapsed": 582229, "key_press": -1, "trial_index": 121}, "uniqueid": "MTK3682:386PBUZZXG4OF6BKKZVTCKRPCJWLJU", "dateTime": 1520956993489}, {"current_trial": 122, "trialdata": {"rt": -1, "trial_type": "single-stim", "stimulus": "<p id=\"stim\">6</p>", "internal_node_id": "0.0-91.0-4.0", "time_elapsed": 583232, "key_press": -1, "trial_index": 122}, "uniqueid": "MTK3682:386PBUZZXG4OF6BKKZVTCKRPCJWLJU", "dateTime": 1520956994492}, {"current_trial": 123, "trialdata": {"rt": -1, "trial_type": "single-stim", "stimulus": "<p id=\"stim\">5</p>", "internal_node_id": "0.0-91.0-5.0", "time_elapsed": 584237, "key_press": -1, "trial_index": 123}, "uniqueid": "MTK3682:386PBUZZXG4OF6BKKZVTCKRPCJWLJU", "dateTime": 1520956995498}, {"current_trial": 124, "trialdata": {"rt": -1, "trial_type": "single-stim", "stimulus": "<p id=\"stim\">4</p>", "internal_node_id": "0.0-91.0-6.0", "time_elapsed": 585242, "key_press": -1, "trial_index": 124}, "uniqueid": "MTK3682:386PBUZZXG4OF6BKKZVTCKRPCJWLJU", "dateTime": 1520956996502}, {"current_trial": 125, "trialdata": {"rt": -1, "trial_type": "single-stim", "stimulus": "<p id=\"stim\">3</p>", "internal_node_id": "0.0-91.0-7.0", "time_elapsed": 586246, "key_press": -1, "trial_index": 125}, "uniqueid": "MTK3682:386PBUZZXG4OF6BKKZVTCKRPCJWLJU", "dateTime": 1520956997506}, {"current_trial": 126, "trialdata": {"rt": -1, "trial_type": "single-stim", "stimulus": "<p id=\"stim\">2</p>", "internal_node_id": "0.0-91.0-8.0", "time_elapsed": 587248, "key_press": -1, "trial_index": 126}, "uniqueid": "MTK3682:386PBUZZXG4OF6BKKZVTCKRPCJWLJU", "dateTime": 1520956998508}, {"current_trial": 127, "trialdata": {"rt": -1, "trial_type": "single-stim", "stimulus": "<p id=\"stim\">1</p>", "internal_node_id": "0.0-91.0-9.0", "time_elapsed": 588251, "key_press": -1, "trial_index": 127}, "uniqueid": "MTK3682:386PBUZZXG4OF6BKKZVTCKRPCJWLJU", "dateTime": 1520956999511}, {"current_trial": 128, "trialdata": {"rt": -1, "trial_type": "single-stim", "stimulus": "<p id=\"stim\">+</p>", "internal_node_id": "0.0-92.0-0.0", "time_elapsed": 589754, "key_press": -1, "type": "FIXATION", "trial_index": 128}, "uniqueid": "MTK3682:386PBUZZXG4OF6BKKZVTCKRPCJWLJU", "dateTime": 1520957001014}, {"current_trial": 129, "trialdata": {"rt": -1000, "trial_type": "single-audio", "word": "cupboard", "stimulus": "/static/audio/wordpool/CUPBOARD.wav", "conditions": [12, 800, "a", 24000], "internal_node_id": "0.0-93.0", "trial": 3, "time_elapsed": 591412, "serialpos": 0, "key_press": -1, "wordID": 424, "type": "PRES_AUD", "trial_index": 129}, "uniqueid": "MTK3682:386PBUZZXG4OF6BKKZVTCKRPCJWLJU", "dateTime": 1520957002672}, {"current_trial": 130, "trialdata": {"rt": -1000, "trial_type": "single-audio", "word": "dresser", "stimulus": "/static/audio/wordpool/DRESSER.wav", "conditions": [12, 800, "a", 24000], "internal_node_id": "0.0-94.0", "trial": 3, "time_elapsed": 593263, "serialpos": 1, "key_press": -1, "wordID": 495, "type": "PRES_AUD", "trial_index": 130}, "uniqueid": "MTK3682:386PBUZZXG4OF6BKKZVTCKRPCJWLJU", "dateTime": 1520957004523}, {"current_trial": 131, "trialdata": {"rt": -1000, "trial_type": "single-audio", "word": "banker", "stimulus": "/static/audio/wordpool/BANKER.wav", "conditions": [12, 800, "a", 24000], "internal_node_id": "0.0-95.0", "trial": 3, "time_elapsed": 594985, "serialpos": 2, "key_press": -1, "wordID": 83, "type": "PRES_AUD", "trial_index": 131}, "uniqueid": "MTK3682:386PBUZZXG4OF6BKKZVTCKRPCJWLJU", "dateTime": 1520957006245}, {"current_trial": 132, "trialdata": {"rt": -1000, "trial_type": "single-audio", "word": "flipper", "stimulus": "/static/audio/wordpool/FLIPPER.wav", "conditions": [12, 800, "a", 24000], "internal_node_id": "0.0-96.0", "trial": 3, "time_elapsed": 596985, "serialpos": 3, "key_press": -1, "wordID": 579, "type": "PRES_AUD", "trial_index": 132}, "uniqueid": "MTK3682:386PBUZZXG4OF6BKKZVTCKRPCJWLJU", "dateTime": 1520957008245}, {"current_trial": 133, "trialdata": {"rt": -1000, "trial_type": "single-audio", "word": "garbage", "stimulus": "/static/audio/wordpool/GARBAGE.wav", "conditions": [12, 800, "a", 24000], "internal_node_id": "0.0-97.0", "trial": 3, "time_elapsed": 598960, "serialpos": 4, "key_press": -1, "wordID": 621, "type": "PRES_AUD", "trial_index": 133}, "uniqueid": "MTK3682:386PBUZZXG4OF6BKKZVTCKRPCJWLJU", "dateTime": 1520957010220}, {"current_trial": 134, "trialdata": {"rt": -1000, "trial_type": "single-audio", "word": "honey", "stimulus": "/static/audio/wordpool/HONEY.wav", "conditions": [12, 800, "a", 24000], "internal_node_id": "0.0-98.0", "trial": 3, "time_elapsed": 600757, "serialpos": 5, "key_press": -1, "wordID": 712, "type": "PRES_AUD", "trial_index": 134}, "uniqueid": "MTK3682:386PBUZZXG4OF6BKKZVTCKRPCJWLJU", "dateTime": 1520957012017}, {"current_trial": 135, "trialdata": {"rt": -1000, "trial_type": "single-audio", "word": "atom", "stimulus": "/static/audio/wordpool/ATOM.wav", "conditions": [12, 800, "a", 24000], "internal_node_id": "0.0-99.0", "trial": 3, "time_elapsed": 602402, "serialpos": 6, "key_press": -1, "wordID": 54, "type": "PRES_AUD", "trial_index": 135}, "uniqueid": "MTK3682:386PBUZZXG4OF6BKKZVTCKRPCJWLJU", "dateTime": 1520957013662}, {"current_trial": 136, "trialdata": {"rt": -1000, "trial_type": "single-audio", "word": "chest", "stimulus": "/static/audio/wordpool/CHEST.wav", "conditions": [12, 800, "a", 24000], "internal_node_id": "0.0-100.0", "trial": 3, "time_elapsed": 604147, "serialpos": 7, "key_press": -1, "wordID": 294, "type": "PRES_AUD", "trial_index": 136}, "uniqueid": "MTK3682:386PBUZZXG4OF6BKKZVTCKRPCJWLJU", "dateTime": 1520957015410}, {"current_trial": 137, "trialdata": {"rt": -1000, "trial_type": "single-audio", "word": "catcher", "stimulus": "/static/audio/wordpool/CATCHER.wav", "conditions": [12, 800, "a", 24000], "internal_node_id": "0.0-101.0", "trial": 3, "time_elapsed": 605912, "serialpos": 8, "key_press": -1, "wordID": 257, "type": "PRES_AUD", "trial_index": 137}, "uniqueid": "MTK3682:386PBUZZXG4OF6BKKZVTCKRPCJWLJU", "dateTime": 1520957017172}, {"current_trial": 138, "trialdata": {"rt": -1000, "trial_type": "single-audio", "word": "stove", "stimulus": "/static/audio/wordpool/STOVE.wav", "conditions": [12, 800, "a", 24000], "internal_node_id": "0.0-102.0", "trial": 3, "time_elapsed": 607570, "serialpos": 9, "key_press": -1, "wordID": 1387, "type": "PRES_AUD", "trial_index": 138}, "uniqueid": "MTK3682:386PBUZZXG4OF6BKKZVTCKRPCJWLJU", "dateTime": 1520957018830}, {"current_trial": 139, "trialdata": {"rt": -1000, "trial_type": "single-audio", "word": "bank", "stimulus": "/static/audio/wordpool/BANK.wav", "conditions": [12, 800, "a", 24000], "internal_node_id": "0.0-103.0", "trial": 3, "time_elapsed": 609237, "serialpos": 10, "key_press": -1, "wordID": 82, "type": "PRES_AUD", "trial_index": 139}, "uniqueid": "MTK3682:386PBUZZXG4OF6BKKZVTCKRPCJWLJU", "dateTime": 1520957020498}, {"current_trial": 140, "trialdata": {"rt": -1000, "trial_type": "single-audio", "word": "twig", "stimulus": "/static/audio/wordpool/TWIG.wav", "conditions": [12, 800, "a", 24000], "internal_node_id": "0.0-104.0", "trial": 3, "time_elapsed": 610867, "serialpos": 11, "key_press": -1, "wordID": 1526, "type": "PRES_AUD", "trial_index": 140}, "uniqueid": "MTK3682:386PBUZZXG4OF6BKKZVTCKRPCJWLJU", "dateTime": 1520957022127}, {"current_trial": 141, "trialdata": {"rt": -1, "trial_type": "single-stim", "stimulus": "", "internal_node_id": "0.0-105.0-0.0", "time_elapsed": 612105, "key_press": -1, "type": "PRE_RECALL_DELAY", "trial_index": 141}, "uniqueid": "MTK3682:386PBUZZXG4OF6BKKZVTCKRPCJWLJU", "dateTime": 1520957023365}, {"current_trial": 142, "trialdata": {"rt": -1000, "trial_type": "single-audio", "stimulus": "/static/audio/400Hz.wav", "internal_node_id": "0.0-106.0", "time_elapsed": 612607, "key_press": -1, "type": "PRE_RECALL_ALERT", "trial_index": 142}, "uniqueid": "MTK3682:386PBUZZXG4OF6BKKZVTCKRPCJWLJU", "dateTime": 1520957023868}, {"current_trial": 143, "trialdata": {"rt": [3884, 4826, 6557, 8493, 11226], "recwords": ["twig", "atom", "flipper", "cupboard", "honey"], "key_times": [3024, 3306, 3436, 3582, 3884, 4086, 4339, 4430, 4522, 4826, 5371, 5441, 5640, 6010, 6131, 6249, 6400, 6557, 6918, 7009, 7108, 7752, 7843, 7969, 8259, 8387, 8493, 10476, 10610, 10710, 10855, 11010, 11226], "trial_type": "free-recall", "conditions": [12, 800, "a", 24000], "internal_node_id": "0.0-107.0-0.0", "key_presses": [84, 87, 73, 71, 13, 65, 84, 79, 77, 13, 70, 76, 73, 80, 80, 69, 82, 13, 67, 85, 80, 66, 79, 65, 82, 68, 13, 72, 79, 78, 69, 89, 13], "trial": 3, "time_elapsed": 672614, "type": "FREE_RECALL", "trial_index": 143}, "uniqueid": "MTK3682:386PBUZZXG4OF6BKKZVTCKRPCJWLJU", "dateTime": 1520957083880}, {"current_trial": 144, "trialdata": {"rt": 3390, "trial_type": "text", "internal_node_id": "0.0-108.0", "time_elapsed": 678014, "key_press": 78, "type": "INSTRUCTIONS", "trial_index": 144}, "uniqueid": "MTK3682:386PBUZZXG4OF6BKKZVTCKRPCJWLJU", "dateTime": 1520957089275}, {"current_trial": 145, "trialdata": {"rt": [2612, 5417, 6989, 11270, 14302, 16401, 17970, 19749, 21844, 23949], "trial_type": "math-distractor", "key_times": [2380, 2485, 2612, 5182, 5282, 5417, 6812, 6941, 6989, 11025, 11089, 11270, 14150, 14222, 14302, 16216, 16261, 16401, 17817, 17894, 17970, 19603, 19687, 19749, 21517, 21715, 21844, 23804, 23862, 23949], "responses": ["12", "14", "21", "20", "16", "21", "13", "16", "16", "18"], "num2": [1, 7, 7, 7, 3, 9, 6, 6, 3, 9, 1], "num3": [4, 5, 7, 5, 5, 6, 3, 7, 5, 5, 8], "conditions": [12, 1600, "a", 24000], "internal_node_id": "0.0-109.0", "key_presses": [49, 50, 13, 49, 52, 13, 50, 49, 13, 50, 48, 13, 49, 54, 13, 50, 49, 13, 49, 51, 13, 49, 54, 13, 49, 54, 13, 49, 56, 13], "trial": 4, "time_elapsed": 704024, "type": "DISTRACTOR", "trial_index": 145, "num1": [7, 1, 7, 8, 8, 6, 4, 1, 8, 4, 9]}, "uniqueid": "MTK3682:386PBUZZXG4OF6BKKZVTCKRPCJWLJU", "dateTime": 1520957115285}, {"current_trial": 146, "trialdata": {"rt": -1, "trial_type": "single-stim", "stimulus": "<p id=\"stim\">10</p>", "internal_node_id": "0.0-110.0-0.0", "time_elapsed": 707030, "key_press": -1, "trial_index": 146}, "uniqueid": "MTK3682:386PBUZZXG4OF6BKKZVTCKRPCJWLJU", "dateTime": 1520957118290}, {"current_trial": 147, "trialdata": {"rt": -1, "trial_type": "single-stim", "stimulus": "<p id=\"stim\">9</p>", "internal_node_id": "0.0-110.0-1.0", "time_elapsed": 708034, "key_press": -1, "trial_index": 147}, "uniqueid": "MTK3682:386PBUZZXG4OF6BKKZVTCKRPCJWLJU", "dateTime": 1520957119294}, {"current_trial": 148, "trialdata": {"rt": -1, "trial_type": "single-stim", "stimulus": "<p id=\"stim\">8</p>", "internal_node_id": "0.0-110.0-2.0", "time_elapsed": 709043, "key_press": -1, "trial_index": 148}, "uniqueid": "MTK3682:386PBUZZXG4OF6BKKZVTCKRPCJWLJU", "dateTime": 1520957120303}, {"current_trial": 149, "trialdata": {"rt": -1, "trial_type": "single-stim", "stimulus": "<p id=\"stim\">7</p>", "internal_node_id": "0.0-110.0-3.0", "time_elapsed": 710048, "key_press": -1, "trial_index": 149}, "uniqueid": "MTK3682:386PBUZZXG4OF6BKKZVTCKRPCJWLJU", "dateTime": 1520957121308}, {"current_trial": 150, "trialdata": {"rt": -1, "trial_type": "single-stim", "stimulus": "<p id=\"stim\">6</p>", "internal_node_id": "0.0-110.0-4.0", "time_elapsed": 711054, "key_press": -1, "trial_index": 150}, "uniqueid": "MTK3682:386PBUZZXG4OF6BKKZVTCKRPCJWLJU", "dateTime": 1520957122314}, {"current_trial": 151, "trialdata": {"rt": -1, "trial_type": "single-stim", "stimulus": "<p id=\"stim\">5</p>", "internal_node_id": "0.0-110.0-5.0", "time_elapsed": 712058, "key_press": -1, "trial_index": 151}, "uniqueid": "MTK3682:386PBUZZXG4OF6BKKZVTCKRPCJWLJU", "dateTime": 1520957123318}, {"current_trial": 152, "trialdata": {"rt": -1, "trial_type": "single-stim", "stimulus": "<p id=\"stim\">4</p>", "internal_node_id": "0.0-110.0-6.0", "time_elapsed": 713062, "key_press": -1, "trial_index": 152}, "uniqueid": "MTK3682:386PBUZZXG4OF6BKKZVTCKRPCJWLJU", "dateTime": 1520957124322}, {"current_trial": 153, "trialdata": {"rt": -1, "trial_type": "single-stim", "stimulus": "<p id=\"stim\">3</p>", "internal_node_id": "0.0-110.0-7.0", "time_elapsed": 714069, "key_press": -1, "trial_index": 153}, "uniqueid": "MTK3682:386PBUZZXG4OF6BKKZVTCKRPCJWLJU", "dateTime": 1520957125329}, {"current_trial": 154, "trialdata": {"rt": -1, "trial_type": "single-stim", "stimulus": "<p id=\"stim\">2</p>", "internal_node_id": "0.0-110.0-8.0", "time_elapsed": 715073, "key_press": -1, "trial_index": 154}, "uniqueid": "MTK3682:386PBUZZXG4OF6BKKZVTCKRPCJWLJU", "dateTime": 1520957126334}, {"current_trial": 155, "trialdata": {"rt": -1, "trial_type": "single-stim", "stimulus": "<p id=\"stim\">1</p>", "internal_node_id": "0.0-110.0-9.0", "time_elapsed": 716076, "key_press": -1, "trial_index": 155}, "uniqueid": "MTK3682:386PBUZZXG4OF6BKKZVTCKRPCJWLJU", "dateTime": 1520957127336}, {"current_trial": 156, "trialdata": {"rt": -1, "trial_type": "single-stim", "stimulus": "<p id=\"stim\">+</p>", "internal_node_id": "0.0-111.0-0.0", "time_elapsed": 717577, "key_press": -1, "type": "FIXATION", "trial_index": 156}, "uniqueid": "MTK3682:386PBUZZXG4OF6BKKZVTCKRPCJWLJU", "dateTime": 1520957128838}, {"current_trial": 157, "trialdata": {"rt": -1000, "trial_type": "single-audio", "word": "jelly", "stimulus": "/static/audio/wordpool/JELLY.wav", "conditions": [12, 1600, "a", 24000], "internal_node_id": "0.0-112.0", "trial": 4, "time_elapsed": 720365, "serialpos": 0, "key_press": -1, "wordID": 754, "type": "PRES_AUD", "trial_index": 157}, "uniqueid": "MTK3682:386PBUZZXG4OF6BKKZVTCKRPCJWLJU", "dateTime": 1520957131625}, {"current_trial": 158, "trialdata": {"rt": -1000, "trial_type": "single-audio", "word": "kidney", "stimulus": "/static/audio/wordpool/KIDNEY.wav", "conditions": [12, 1600, "a", 24000], "internal_node_id": "0.0-113.0", "trial": 4, "time_elapsed": 723119, "serialpos": 1, "key_press": -1, "wordID": 775, "type": "PRES_AUD", "trial_index": 158}, "uniqueid": "MTK3682:386PBUZZXG4OF6BKKZVTCKRPCJWLJU", "dateTime": 1520957134379}, {"current_trial": 159, "trialdata": {"rt": -1000, "trial_type": "single-audio", "word": "dentist", "stimulus": "/static/audio/wordpool/DENTIST.wav", "conditions": [12, 1600, "a", 24000], "internal_node_id": "0.0-114.0", "trial": 4, "time_elapsed": 725618, "serialpos": 2, "key_press": -1, "wordID": 446, "type": "PRES_AUD", "trial_index": 159}, "uniqueid": "MTK3682:386PBUZZXG4OF6BKKZVTCKRPCJWLJU", "dateTime": 1520957136878}, {"current_trial": 160, "trialdata": {"rt": -1000, "trial_type": "single-audio", "word": "plaid", "stimulus": "/static/audio/wordpool/PLAID.wav", "conditions": [12, 1600, "a", 24000], "internal_node_id": "0.0-115.0", "trial": 4, "time_elapsed": 728088, "serialpos": 3, "key_press": -1, "wordID": 1079, "type": "PRES_AUD", "trial_index": 160}, "uniqueid": "MTK3682:386PBUZZXG4OF6BKKZVTCKRPCJWLJU", "dateTime": 1520957139348}, {"current_trial": 161, "trialdata": {"rt": -1000, "trial_type": "single-audio", "word": "farmer", "stimulus": "/static/audio/wordpool/FARMER.wav", "conditions": [12, 1600, "a", 24000], "internal_node_id": "0.0-116.0", "trial": 4, "time_elapsed": 730849, "serialpos": 4, "key_press": -1, "wordID": 552, "type": "PRES_AUD", "trial_index": 161}, "uniqueid": "MTK3682:386PBUZZXG4OF6BKKZVTCKRPCJWLJU", "dateTime": 1520957142110}, {"current_trial": 162, "trialdata": {"rt": -1000, "trial_type": "single-audio", "word": "blueprint", "stimulus": "/static/audio/wordpool/BLUEPRINT.wav", "conditions": [12, 1600, "a", 24000], "internal_node_id": "0.0-117.0", "trial": 4, "time_elapsed": 733571, "serialpos": 5, "key_press": -1, "wordID": 141, "type": "PRES_AUD", "trial_index": 162}, "uniqueid": "MTK3682:386PBUZZXG4OF6BKKZVTCKRPCJWLJU", "dateTime": 1520957144831}, {"current_trial": 163, "trialdata": {"rt": -1000, "trial_type": "single-audio", "word": "coffee", "stimulus": "/static/audio/wordpool/COFFEE.wav", "conditions": [12, 1600, "a", 24000], "internal_node_id": "0.0-118.0", "trial": 4, "time_elapsed": 736102, "serialpos": 6, "key_press": -1, "wordID": 340, "type": "PRES_AUD", "trial_index": 163}, "uniqueid": "MTK3682:386PBUZZXG4OF6BKKZVTCKRPCJWLJU", "dateTime": 1520957147362}, {"current_trial": 164, "trialdata": {"rt": -1000, "trial_type": "single-audio", "word": "machine", "stimulus": "/static/audio/wordpool/MACHINE.wav", "conditions": [12, 1600, "a", 24000], "internal_node_id": "0.0-119.0", "trial": 4, "time_elapsed": 738847, "serialpos": 7, "key_press": -1, "wordID": 851, "type": "PRES_AUD", "trial_index": 164}, "uniqueid": "MTK3682:386PBUZZXG4OF6BKKZVTCKRPCJWLJU", "dateTime": 1520957150107}, {"current_trial": 165, "trialdata": {"rt": -1000, "trial_type": "single-audio", "word": "sandwich", "stimulus": "/static/audio/wordpool/SANDWICH.wav", "conditions": [12, 1600, "a", 24000], "internal_node_id": "0.0-120.0", "trial": 4, "time_elapsed": 741379, "serialpos": 8, "key_press": -1, "wordID": 1231, "type": "PRES_AUD", "trial_index": 165}, "uniqueid": "MTK3682:386PBUZZXG4OF6BKKZVTCKRPCJWLJU", "dateTime": 1520957152639}, {"current_trial": 166, "trialdata": {"rt": -1000, "trial_type": "single-audio", "word": "pastry", "stimulus": "/static/audio/wordpool/PASTRY.wav", "conditions": [12, 1600, "a", 24000], "internal_node_id": "0.0-121.0", "trial": 4, "time_elapsed": 743803, "serialpos": 9, "key_press": -1, "wordID": 1021, "type": "PRES_AUD", "trial_index": 166}, "uniqueid": "MTK3682:386PBUZZXG4OF6BKKZVTCKRPCJWLJU", "dateTime": 1520957155065}, {"current_trial": 167, "trialdata": {"rt": -1000, "trial_type": "single-audio", "word": "scarecrow", "stimulus": "/static/audio/wordpool/SCARECROW.wav", "conditions": [12, 1600, "a", 24000], "internal_node_id": "0.0-122.0", "trial": 4, "time_elapsed": 746381, "serialpos": 10, "key_press": -1, "wordID": 1244, "type": "PRES_AUD", "trial_index": 167}, "uniqueid": "MTK3682:386PBUZZXG4OF6BKKZVTCKRPCJWLJU", "dateTime": 1520957157641}, {"current_trial": 168, "trialdata": {"rt": -1000, "trial_type": "single-audio", "word": "velvet", "stimulus": "/static/audio/wordpool/VELVET.wav", "conditions": [12, 1600, "a", 24000], "internal_node_id": "0.0-123.0", "trial": 4, "time_elapsed": 748844, "serialpos": 11, "key_press": -1, "wordID": 1554, "type": "PRES_AUD", "trial_index": 168}, "uniqueid": "MTK3682:386PBUZZXG4OF6BKKZVTCKRPCJWLJU", "dateTime": 1520957160104}, {"current_trial": 169, "trialdata": {"rt": -1, "trial_type": "single-stim", "stimulus": "", "internal_node_id": "0.0-124.0-0.0", "time_elapsed": 750159, "key_press": -1, "type": "PRE_RECALL_DELAY", "trial_index": 169}, "uniqueid": "MTK3682:386PBUZZXG4OF6BKKZVTCKRPCJWLJU", "dateTime": 1520957161419}, {"current_trial": 170, "trialdata": {"rt": -1000, "trial_type": "single-audio", "stimulus": "/static/audio/400Hz.wav", "internal_node_id": "0.0-125.0", "time_elapsed": 750662, "key_press": -1, "type": "PRE_RECALL_ALERT", "trial_index": 170}, "uniqueid": "MTK3682:386PBUZZXG4OF6BKKZVTCKRPCJWLJU", "dateTime": 1520957161922}, {"current_trial": 171, "trialdata": {"rt": [5991, 9588, 11591], "recwords": ["jelly", "scarecrow", "plaid"], "key_times": [3822, 3927, 4059, 4496, 4630, 4751, 4864, 4979, 5247, 5382, 5597, 5711, 5870, 5991, 6624, 6806, 7461, 7591, 7733, 7845, 7996, 8118, 8230, 8388, 8592, 8720, 8861, 8972, 9588, 10963, 11048, 11178, 11298, 11439, 11591], "trial_type": "free-recall", "conditions": [12, 1600, "a", 24000], "internal_node_id": "0.0-126.0-0.0", "key_presses": [76, 76, 89, 8, 8, 8, 8, 8, 74, 69, 76, 76, 89, 13, 67, 83, 8, 8, 8, 83, 67, 65, 82, 69, 67, 82, 79, 87, 13, 80, 76, 65, 73, 68, 13], "trial": 4, "time_elapsed": 810671, "type": "FREE_RECALL", "trial_index": 171}, "uniqueid": "MTK3682:386PBUZZXG4OF6BKKZVTCKRPCJWLJU", "dateTime": 1520957221936}, {"current_trial": 172, "trialdata": {"rt": 6139, "trial_type": "text", "internal_node_id": "0.0-127.0", "time_elapsed": 818824, "key_press": 32, "type": "INSTRUCTIONS", "trial_index": 172}, "uniqueid": "MTK3682:386PBUZZXG4OF6BKKZVTCKRPCJWLJU", "dateTime": 1520957230084}, {"current_trial": 173, "trialdata": {"rt": [2488, 3800, 5076, 7013, 8713, 10304], "trial_type": "math-distractor", "key_times": [2224, 2300, 2488, 3675, 3743, 3800, 4942, 5029, 5076, 6922, 7013, 8649, 8713, 10125, 10186, 10304, 11814, 11936], "responses": ["18", "14", "14", "8", "6", "10"], "num2": [8, 4, 1, 2, 1, 2, 7], "num3": [2, 7, 5, 1, 2, 3, 5], "conditions": [24, 1600, "a", 12000], "internal_node_id": "0.0-128.0", "key_presses": [49, 56, 13, 49, 52, 13, 49, 52, 13, 56, 13, 54, 13, 49, 48, 13, 49, 52], "trial": 5, "time_elapsed": 832832, "type": "DISTRACTOR", "trial_index": 173, "num1": [8, 3, 8, 5, 3, 5, 2]}, "uniqueid": "MTK3682:386PBUZZXG4OF6BKKZVTCKRPCJWLJU", "dateTime": 1520957244092}, {"current_trial": 174, "trialdata": {"rt": -1, "trial_type": "single-stim", "stimulus": "<p id=\"stim\">10</p>", "internal_node_id": "0.0-129.0-0.0", "time_elapsed": 835836, "key_press": -1, "trial_index": 174}, "uniqueid": "MTK3682:386PBUZZXG4OF6BKKZVTCKRPCJWLJU", "dateTime": 1520957247096}, {"current_trial": 175, "trialdata": {"rt": -1, "trial_type": "single-stim", "stimulus": "<p id=\"stim\">9</p>", "internal_node_id": "0.0-129.0-1.0", "time_elapsed": 836839, "key_press": -1, "trial_index": 175}, "uniqueid": "MTK3682:386PBUZZXG4OF6BKKZVTCKRPCJWLJU", "dateTime": 1520957248099}, {"current_trial": 176, "trialdata": {"rt": -1, "trial_type": "single-stim", "stimulus": "<p id=\"stim\">8</p>", "internal_node_id": "0.0-129.0-2.0", "time_elapsed": 837843, "key_press": -1, "trial_index": 176}, "uniqueid": "MTK3682:386PBUZZXG4OF6BKKZVTCKRPCJWLJU", "dateTime": 1520957249104}, {"current_trial": 177, "trialdata": {"rt": -1, "trial_type": "single-stim", "stimulus": "<p id=\"stim\">7</p>", "internal_node_id": "0.0-129.0-3.0", "time_elapsed": 838850, "key_press": -1, "trial_index": 177}, "uniqueid": "MTK3682:386PBUZZXG4OF6BKKZVTCKRPCJWLJU", "dateTime": 1520957250110}, {"current_trial": 178, "trialdata": {"rt": -1, "trial_type": "single-stim", "stimulus": "<p id=\"stim\">6</p>", "internal_node_id": "0.0-129.0-4.0", "time_elapsed": 839853, "key_press": -1, "trial_index": 178}, "uniqueid": "MTK3682:386PBUZZXG4OF6BKKZVTCKRPCJWLJU", "dateTime": 1520957251113}, {"current_trial": 179, "trialdata": {"rt": -1, "trial_type": "single-stim", "stimulus": "<p id=\"stim\">5</p>", "internal_node_id": "0.0-129.0-5.0", "time_elapsed": 840856, "key_press": -1, "trial_index": 179}, "uniqueid": "MTK3682:386PBUZZXG4OF6BKKZVTCKRPCJWLJU", "dateTime": 1520957252116}, {"current_trial": 180, "trialdata": {"rt": -1, "trial_type": "single-stim", "stimulus": "<p id=\"stim\">4</p>", "internal_node_id": "0.0-129.0-6.0", "time_elapsed": 841863, "key_press": -1, "trial_index": 180}, "uniqueid": "MTK3682:386PBUZZXG4OF6BKKZVTCKRPCJWLJU", "dateTime": 1520957253123}, {"current_trial": 181, "trialdata": {"rt": -1, "trial_type": "single-stim", "stimulus": "<p id=\"stim\">3</p>", "internal_node_id": "0.0-129.0-7.0", "time_elapsed": 842868, "key_press": -1, "trial_index": 181}, "uniqueid": "MTK3682:386PBUZZXG4OF6BKKZVTCKRPCJWLJU", "dateTime": 1520957254129}, {"current_trial": 182, "trialdata": {"rt": -1, "trial_type": "single-stim", "stimulus": "<p id=\"stim\">2</p>", "internal_node_id": "0.0-129.0-8.0", "time_elapsed": 843874, "key_press": -1, "trial_index": 182}, "uniqueid": "MTK3682:386PBUZZXG4OF6BKKZVTCKRPCJWLJU", "dateTime": 1520957255134}, {"current_trial": 183, "trialdata": {"rt": -1, "trial_type": "single-stim", "stimulus": "<p id=\"stim\">1</p>", "internal_node_id": "0.0-129.0-9.0", "time_elapsed": 844880, "key_press": -1, "trial_index": 183}, "uniqueid": "MTK3682:386PBUZZXG4OF6BKKZVTCKRPCJWLJU", "dateTime": 1520957256140}, {"current_trial": 184, "trialdata": {"rt": -1, "trial_type": "single-stim", "stimulus": "<p id=\"stim\">+</p>", "internal_node_id": "0.0-130.0-0.0", "time_elapsed": 846385, "key_press": -1, "type": "FIXATION", "trial_index": 184}, "uniqueid": "MTK3682:386PBUZZXG4OF6BKKZVTCKRPCJWLJU", "dateTime": 1520957257645}, {"current_trial": 185, "trialdata": {"rt": -1000, "trial_type": "single-audio", "word": "silk", "stimulus": "/static/audio/wordpool/SILK.wav", "conditions": [24, 1600, "a", 12000], "internal_node_id": "0.0-131.0", "trial": 5, "time_elapsed": 848924, "serialpos": 0, "key_press": -1, "wordID": 1306, "type": "PRES_AUD", "trial_index": 185}, "uniqueid": "MTK3682:386PBUZZXG4OF6BKKZVTCKRPCJWLJU", "dateTime": 1520957260184}, {"current_trial": 186, "trialdata": {"rt": -1000, "trial_type": "single-audio", "word": "bathtub", "stimulus": "/static/audio/wordpool/BATHTUB.wav", "conditions": [24, 1600, "a", 12000], "internal_node_id": "0.0-132.0", "trial": 5, "time_elapsed": 851615, "serialpos": 1, "key_press": -1, "wordID": 99, "type": "PRES_AUD", "trial_index": 186}, "uniqueid": "MTK3682:386PBUZZXG4OF6BKKZVTCKRPCJWLJU", "dateTime": 1520957262876}, {"current_trial": 187, "trialdata": {"rt": -1000, "trial_type": "single-audio", "word": "casket", "stimulus": "/static/audio/wordpool/CASKET.wav", "conditions": [24, 1600, "a", 12000], "internal_node_id": "0.0-133.0", "trial": 5, "time_elapsed": 854362, "serialpos": 2, "key_press": -1, "wordID": 254, "type": "PRES_AUD", "trial_index": 187}, "uniqueid": "MTK3682:386PBUZZXG4OF6BKKZVTCKRPCJWLJU", "dateTime": 1520957265622}, {"current_trial": 188, "trialdata": {"rt": -1000, "trial_type": "single-audio", "word": "tombstone", "stimulus": "/static/audio/wordpool/TOMBSTONE.wav", "conditions": [24, 1600, "a", 12000], "internal_node_id": "0.0-134.0", "trial": 5, "time_elapsed": 857148, "serialpos": 3, "key_press": -1, "wordID": 1477, "type": "PRES_AUD", "trial_index": 188}, "uniqueid": "MTK3682:386PBUZZXG4OF6BKKZVTCKRPCJWLJU", "dateTime": 1520957268408}, {"current_trial": 189, "trialdata": {"rt": -1000, "trial_type": "single-audio", "word": "tutu", "stimulus": "/static/audio/wordpool/TUTU.wav", "conditions": [24, 1600, "a", 12000], "internal_node_id": "0.0-135.0", "trial": 5, "time_elapsed": 859639, "serialpos": 4, "key_press": -1, "wordID": 1523, "type": "PRES_AUD", "trial_index": 189}, "uniqueid": "MTK3682:386PBUZZXG4OF6BKKZVTCKRPCJWLJU", "dateTime": 1520957270900}, {"current_trial": 190, "trialdata": {"rt": -1000, "trial_type": "single-audio", "word": "bubble", "stimulus": "/static/audio/wordpool/BUBBLE.wav", "conditions": [24, 1600, "a", 12000], "internal_node_id": "0.0-136.0", "trial": 5, "time_elapsed": 862380, "serialpos": 5, "key_press": -1, "wordID": 182, "type": "PRES_AUD", "trial_index": 190}, "uniqueid": "MTK3682:386PBUZZXG4OF6BKKZVTCKRPCJWLJU", "dateTime": 1520957273640}, {"current_trial": 191, "trialdata": {"rt": -1000, "trial_type": "single-audio", "word": "diner", "stimulus": "/static/audio/wordpool/DINER.wav", "conditions": [24, 1600, "a", 12000], "internal_node_id": "0.0-137.0", "trial": 5, "time_elapsed": 865095, "serialpos": 6, "key_press": -1, "wordID": 466, "type": "PRES_AUD", "trial_index": 191}, "uniqueid": "MTK3682:386PBUZZXG4OF6BKKZVTCKRPCJWLJU", "dateTime": 1520957276355}, {"current_trial": 192, "trialdata": {"rt": -1000, "trial_type": "single-audio", "word": "mask", "stimulus": "/static/audio/wordpool/MASK.wav", "conditions": [24, 1600, "a", 12000], "internal_node_id": "0.0-138.0", "trial": 5, "time_elapsed": 867560, "serialpos": 7, "key_press": -1, "wordID": 875, "type": "PRES_AUD", "trial_index": 192}, "uniqueid": "MTK3682:386PBUZZXG4OF6BKKZVTCKRPCJWLJU", "dateTime": 1520957278820}, {"current_trial": 193, "trialdata": {"rt": -1000, "trial_type": "single-audio", "word": "flashlight", "stimulus": "/static/audio/wordpool/FLASHLIGHT.wav", "conditions": [24, 1600, "a", 12000], "internal_node_id": "0.0-139.0", "trial": 5, "time_elapsed": 870036, "serialpos": 8, "key_press": -1, "wordID": 574, "type": "PRES_AUD", "trial_index": 193}, "uniqueid": "MTK3682:386PBUZZXG4OF6BKKZVTCKRPCJWLJU", "dateTime": 1520957281296}, {"current_trial": 194, "trialdata": {"rt": -1000, "trial_type": "single-audio", "word": "waiter", "stimulus": "/static/audio/wordpool/WAITER.wav", "conditions": [24, 1600, "a", 12000], "internal_node_id": "0.0-140.0", "trial": 5, "time_elapsed": 872676, "serialpos": 9, "key_press": -1, "wordID": 1579, "type": "PRES_AUD", "trial_index": 194}, "uniqueid": "MTK3682:386PBUZZXG4OF6BKKZVTCKRPCJWLJU", "dateTime": 1520957283936}, {"current_trial": 195, "trialdata": {"rt": -1000, "trial_type": "single-audio", "word": "europe", "stimulus": "/static/audio/wordpool/EUROPE.wav", "conditions": [24, 1600, "a", 12000], "internal_node_id": "0.0-141.0", "trial": 5, "time_elapsed": 875229, "serialpos": 10, "key_press": -1, "wordID": 540, "type": "PRES_AUD", "trial_index": 195}, "uniqueid": "MTK3682:386PBUZZXG4OF6BKKZVTCKRPCJWLJU", "dateTime": 1520957286489}, {"current_trial": 196, "trialdata": {"rt": -1000, "trial_type": "single-audio", "word": "pluto", "stimulus": "/static/audio/wordpool/PLUTO.wav", "conditions": [24, 1600, "a", 12000], "internal_node_id": "0.0-142.0", "trial": 5, "time_elapsed": 877916, "serialpos": 11, "key_press": -1, "wordID": 1091, "type": "PRES_AUD", "trial_index": 196}, "uniqueid": "MTK3682:386PBUZZXG4OF6BKKZVTCKRPCJWLJU", "dateTime": 1520957289177}, {"current_trial": 197, "trialdata": {"rt": -1000, "trial_type": "single-audio", "word": "actress", "stimulus": "/static/audio/wordpool/ACTRESS.wav", "conditions": [24, 1600, "a", 12000], "internal_node_id": "0.0-143.0", "trial": 5, "time_elapsed": 880373, "serialpos": 12, "key_press": -1, "wordID": 5, "type": "PRES_AUD", "trial_index": 197}, "uniqueid": "MTK3682:386PBUZZXG4OF6BKKZVTCKRPCJWLJU", "dateTime": 1520957291634}, {"current_trial": 198, "trialdata": {"rt": -1000, "trial_type": "single-audio", "word": "jungle", "stimulus": "/static/audio/wordpool/JUNGLE.wav", "conditions": [24, 1600, "a", 12000], "internal_node_id": "0.0-144.0", "trial": 5, "time_elapsed": 883110, "serialpos": 13, "key_press": -1, "wordID": 763, "type": "PRES_AUD", "trial_index": 198}, "uniqueid": "MTK3682:386PBUZZXG4OF6BKKZVTCKRPCJWLJU", "dateTime": 1520957294370}, {"current_trial": 199, "trialdata": {"rt": -1000, "trial_type": "single-audio", "word": "tweezers", "stimulus": "/static/audio/wordpool/TWEEZERS.wav", "conditions": [24, 1600, "a", 12000], "internal_node_id": "0.0-145.0", "trial": 5, "time_elapsed": 885740, "serialpos": 14, "key_press": -1, "wordID": 1525, "type": "PRES_AUD", "trial_index": 199}, "uniqueid": "MTK3682:386PBUZZXG4OF6BKKZVTCKRPCJWLJU", "dateTime": 1520957297001}, {"current_trial": 200, "trialdata": {"rt": -1000, "trial_type": "single-audio", "word": "helmet", "stimulus": "/static/audio/wordpool/HELMET.wav", "conditions": [24, 1600, "a", 12000], "internal_node_id": "0.0-146.0", "trial": 5, "time_elapsed": 888210, "serialpos": 15, "key_press": -1, "wordID": 701, "type": "PRES_AUD", "trial_index": 200}, "uniqueid": "MTK3682:386PBUZZXG4OF6BKKZVTCKRPCJWLJU", "dateTime": 1520957299470}, {"current_trial": 201, "trialdata": {"rt": -1000, "trial_type": "single-audio", "word": "umpire", "stimulus": "/static/audio/wordpool/UMPIRE.wav", "conditions": [24, 1600, "a", 12000], "internal_node_id": "0.0-147.0", "trial": 5, "time_elapsed": 890628, "serialpos": 16, "key_press": -1, "wordID": 1534, "type": "PRES_AUD", "trial_index": 201}, "uniqueid": "MTK3682:386PBUZZXG4OF6BKKZVTCKRPCJWLJU", "dateTime": 1520957301888}, {"current_trial": 202, "trialdata": {"rt": -1000, "trial_type": "single-audio", "word": "dress", "stimulus": "/static/audio/wordpool/DRESS.wav", "conditions": [24, 1600, "a", 12000], "internal_node_id": "0.0-148.0", "trial": 5, "time_elapsed": 893131, "serialpos": 17, "key_press": -1, "wordID": 494, "type": "PRES_AUD", "trial_index": 202}, "uniqueid": "MTK3682:386PBUZZXG4OF6BKKZVTCKRPCJWLJU", "dateTime": 1520957304391}, {"current_trial": 203, "trialdata": {"rt": -1000, "trial_type": "single-audio", "word": "denim", "stimulus": "/static/audio/wordpool/DENIM.wav", "conditions": [24, 1600, "a", 12000], "internal_node_id": "0.0-149.0", "trial": 5, "time_elapsed": 895638, "serialpos": 18, "key_press": -1, "wordID": 445, "type": "PRES_AUD", "trial_index": 203}, "uniqueid": "MTK3682:386PBUZZXG4OF6BKKZVTCKRPCJWLJU", "dateTime": 1520957306898}, {"current_trial": 204, "trialdata": {"rt": -1000, "trial_type": "single-audio", "word": "possum", "stimulus": "/static/audio/wordpool/POSSUM.wav", "conditions": [24, 1600, "a", 12000], "internal_node_id": "0.0-150.0", "trial": 5, "time_elapsed": 898372, "serialpos": 19, "key_press": -1, "wordID": 1111, "type": "PRES_AUD", "trial_index": 204}, "uniqueid": "MTK3682:386PBUZZXG4OF6BKKZVTCKRPCJWLJU", "dateTime": 1520957309632}, {"current_trial": 205, "trialdata": {"rt": -1000, "trial_type": "single-audio", "word": "sidewalk", "stimulus": "/static/audio/wordpool/SIDEWALK.wav", "conditions": [24, 1600, "a", 12000], "internal_node_id": "0.0-151.0", "trial": 5, "time_elapsed": 900846, "serialpos": 20, "key_press": -1, "wordID": 1302, "type": "PRES_AUD", "trial_index": 205}, "uniqueid": "MTK3682:386PBUZZXG4OF6BKKZVTCKRPCJWLJU", "dateTime": 1520957312106}, {"current_trial": 206, "trialdata": {"rt": -1000, "trial_type": "single-audio", "word": "stallion", "stimulus": "/static/audio/wordpool/STALLION.wav", "conditions": [24, 1600, "a", 12000], "internal_node_id": "0.0-152.0", "trial": 5, "time_elapsed": 903528, "serialpos": 21, "key_press": -1, "wordID": 1368, "type": "PRES_AUD", "trial_index": 206}, "uniqueid": "MTK3682:386PBUZZXG4OF6BKKZVTCKRPCJWLJU", "dateTime": 1520957314788}, {"current_trial": 207, "trialdata": {"rt": -1000, "trial_type": "single-audio", "word": "fox", "stimulus": "/static/audio/wordpool/FOX.wav", "conditions": [24, 1600, "a", 12000], "internal_node_id": "0.0-153.0", "trial": 5, "time_elapsed": 906210, "serialpos": 22, "key_press": -1, "wordID": 597, "type": "PRES_AUD", "trial_index": 207}, "uniqueid": "MTK3682:386PBUZZXG4OF6BKKZVTCKRPCJWLJU", "dateTime": 1520957317470}, {"current_trial": 208, "trialdata": {"rt": -1000, "trial_type": "single-audio", "word": "kleenex", "stimulus": "/static/audio/wordpool/KLEENEX.wav", "conditions": [24, 1600, "a", 12000], "internal_node_id": "0.0-154.0", "trial": 5, "time_elapsed": 908883, "serialpos": 23, "key_press": -1, "wordID": 781, "type": "PRES_AUD", "trial_index": 208}, "uniqueid": "MTK3682:386PBUZZXG4OF6BKKZVTCKRPCJWLJU", "dateTime": 1520957320144}, {"current_trial": 209, "trialdata": {"rt": -1, "trial_type": "single-stim", "stimulus": "", "internal_node_id": "0.0-155.0-0.0", "time_elapsed": 910239, "key_press": -1, "type": "PRE_RECALL_DELAY", "trial_index": 209}, "uniqueid": "MTK3682:386PBUZZXG4OF6BKKZVTCKRPCJWLJU", "dateTime": 1520957321500}, {"current_trial": 210, "trialdata": {"rt": -1000, "trial_type": "single-audio", "stimulus": "/static/audio/400Hz.wav", "internal_node_id": "0.0-156.0", "time_elapsed": 910744, "key_press": -1, "type": "PRE_RECALL_ALERT", "trial_index": 210}, "uniqueid": "MTK3682:386PBUZZXG4OF6BKKZVTCKRPCJWLJU", "dateTime": 1520957322004}, {"current_trial": 211, "trialdata": {"rt": [3211, 4957, 6800, 9363, 11240, 12983, 15223, 19509, 20973, 26753], "recwords": ["kleenex", "umpire", "bubble", "tutu", "diner", "waiter", "actress", "jungle", "sidewalk", "mask"], "key_times": [1510, 1681, 1881, 2022, 2107, 2328, 2619, 3211, 3739, 3878, 4324, 4504, 4602, 4736, 4957, 5304, 5503, 5667, 5781, 6004, 6199, 6800, 7179, 7284, 7383, 8150, 8826, 8971, 9363, 9657, 9774, 9906, 10243, 10401, 11240, 11689, 11870, 11967, 12249, 12489, 12621, 12983, 13320, 13701, 14257, 14384, 14528, 14819, 14947, 15223, 18349, 18510, 18591, 18729, 19010, 19129, 19509, 19724, 19831, 19959, 20101, 20302, 20447, 20535, 20625, 20973, 26153, 26295, 26467, 26538, 26753], "trial_type": "free-recall", "conditions": [24, 1600, "a", 12000], "internal_node_id": "0.0-157.0-0.0", "key_presses": [75, 76, 69, 69, 78, 69, 88, 13, 85, 77, 80, 73, 82, 69, 13, 66, 85, 66, 66, 76, 69, 13, 84, 85, 84, 73, 8, 85, 13, 68, 73, 78, 69, 82, 13, 87, 65, 73, 84, 69, 82, 13, 65, 67, 84, 82, 69, 83, 83, 13, 74, 85, 78, 71, 76, 69, 13, 83, 73, 68, 69, 87, 65, 76, 75, 13, 77, 65, 83, 75, 13], "trial": 5, "time_elapsed": 970752, "type": "FREE_RECALL", "trial_index": 211}, "uniqueid": "MTK3682:386PBUZZXG4OF6BKKZVTCKRPCJWLJU", "dateTime": 1520957382023}, {"current_trial": 212, "trialdata": {"rt": 1193, "trial_type": "text", "internal_node_id": "0.0-158.0", "time_elapsed": 973961, "key_press": 32, "type": "INSTRUCTIONS", "trial_index": 212}, "uniqueid": "MTK3682:386PBUZZXG4OF6BKKZVTCKRPCJWLJU", "dateTime": 1520957385221}, {"current_trial": 213, "trialdata": {"rt": [1653, 3257, 4807, 6198, 9294, 10933], "trial_type": "math-distractor", "key_times": [1426, 1525, 1653, 3113, 3190, 3257, 4504, 4664, 4807, 5981, 6072, 6198, 9134, 9192, 9294, 10737, 10853, 10933], "responses": ["16", "16", "13", "15", "20", "16"], "num2": [6, 9, 1, 5, 4, 7, 6], "num3": [4, 1, 3, 9, 9, 1, 3], "conditions": [24, 800, "a", 12000], "internal_node_id": "0.0-159.0", "key_presses": [49, 54, 13, 49, 54, 13, 49, 51, 13, 49, 53, 13, 50, 48, 13, 49, 54, 13], "trial": 6, "time_elapsed": 987968, "type": "DISTRACTOR", "trial_index": 213, "num1": [5, 6, 9, 1, 7, 8, 4]}, "uniqueid": "MTK3682:386PBUZZXG4OF6BKKZVTCKRPCJWLJU", "dateTime": 1520957399229}, {"current_trial": 214, "trialdata": {"rt": -1, "trial_type": "single-stim", "stimulus": "<p id=\"stim\">10</p>", "internal_node_id": "0.0-160.0-0.0", "time_elapsed": 990980, "key_press": -1, "trial_index": 214}, "uniqueid": "MTK3682:386PBUZZXG4OF6BKKZVTCKRPCJWLJU", "dateTime": 1520957402240}, {"current_trial": 215, "trialdata": {"rt": -1, "trial_type": "single-stim", "stimulus": "<p id=\"stim\">9</p>", "internal_node_id": "0.0-160.0-1.0", "time_elapsed": 991985, "key_press": -1, "trial_index": 215}, "uniqueid": "MTK3682:386PBUZZXG4OF6BKKZVTCKRPCJWLJU", "dateTime": 1520957403246}, {"current_trial": 216, "trialdata": {"rt": -1, "trial_type": "single-stim", "stimulus": "<p id=\"stim\">8</p>", "internal_node_id": "0.0-160.0-2.0", "time_elapsed": 992988, "key_press": -1, "trial_index": 216}, "uniqueid": "MTK3682:386PBUZZXG4OF6BKKZVTCKRPCJWLJU", "dateTime": 1520957404248}, {"current_trial": 217, "trialdata": {"rt": -1, "trial_type": "single-stim", "stimulus": "<p id=\"stim\">7</p>", "internal_node_id": "0.0-160.0-3.0", "time_elapsed": 993993, "key_press": -1, "trial_index": 217}, "uniqueid": "MTK3682:386PBUZZXG4OF6BKKZVTCKRPCJWLJU", "dateTime": 1520957405253}, {"current_trial": 218, "trialdata": {"rt": -1, "trial_type": "single-stim", "stimulus": "<p id=\"stim\">6</p>", "internal_node_id": "0.0-160.0-4.0", "time_elapsed": 994996, "key_press": -1, "trial_index": 218}, "uniqueid": "MTK3682:386PBUZZXG4OF6BKKZVTCKRPCJWLJU", "dateTime": 1520957406256}, {"current_trial": 219, "trialdata": {"rt": -1, "trial_type": "single-stim", "stimulus": "<p id=\"stim\">5</p>", "internal_node_id": "0.0-160.0-5.0", "time_elapsed": 996000, "key_press": -1, "trial_index": 219}, "uniqueid": "MTK3682:386PBUZZXG4OF6BKKZVTCKRPCJWLJU", "dateTime": 1520957407261}, {"current_trial": 220, "trialdata": {"rt": -1, "trial_type": "single-stim", "stimulus": "<p id=\"stim\">4</p>", "internal_node_id": "0.0-160.0-6.0", "time_elapsed": 997002, "key_press": -1, "trial_index": 220}, "uniqueid": "MTK3682:386PBUZZXG4OF6BKKZVTCKRPCJWLJU", "dateTime": 1520957408262}, {"current_trial": 221, "trialdata": {"rt": -1, "trial_type": "single-stim", "stimulus": "<p id=\"stim\">3</p>", "internal_node_id": "0.0-160.0-7.0", "time_elapsed": 998008, "key_press": -1, "trial_index": 221}, "uniqueid": "MTK3682:386PBUZZXG4OF6BKKZVTCKRPCJWLJU", "dateTime": 1520957409269}, {"current_trial": 222, "trialdata": {"rt": -1, "trial_type": "single-stim", "stimulus": "<p id=\"stim\">2</p>", "internal_node_id": "0.0-160.0-8.0", "time_elapsed": 999011, "key_press": -1, "trial_index": 222}, "uniqueid": "MTK3682:386PBUZZXG4OF6BKKZVTCKRPCJWLJU", "dateTime": 1520957410271}, {"current_trial": 223, "trialdata": {"rt": -1, "trial_type": "single-stim", "stimulus": "<p id=\"stim\">1</p>", "internal_node_id": "0.0-160.0-9.0", "time_elapsed": 1000018, "key_press": -1, "trial_index": 223}, "uniqueid": "MTK3682:386PBUZZXG4OF6BKKZVTCKRPCJWLJU", "dateTime": 1520957411278}, {"current_trial": 224, "trialdata": {"rt": -1, "trial_type": "single-stim", "stimulus": "<p id=\"stim\">+</p>", "internal_node_id": "0.0-161.0-0.0", "time_elapsed": 1001523, "key_press": -1, "type": "FIXATION", "trial_index": 224}, "uniqueid": "MTK3682:386PBUZZXG4OF6BKKZVTCKRPCJWLJU", "dateTime": 1520957412784}, {"current_trial": 225, "trialdata": {"rt": -1000, "trial_type": "single-audio", "word": "lettuce", "stimulus": "/static/audio/wordpool/LETTUCE.wav", "conditions": [24, 800, "a", 12000], "internal_node_id": "0.0-162.0", "trial": 6, "time_elapsed": 1003350, "serialpos": 0, "key_press": -1, "wordID": 813, "type": "PRES_AUD", "trial_index": 225}, "uniqueid": "MTK3682:386PBUZZXG4OF6BKKZVTCKRPCJWLJU", "dateTime": 1520957414610}, {"current_trial": 226, "trialdata": {"rt": -1000, "trial_type": "single-audio", "word": "eagle", "stimulus": "/static/audio/wordpool/EAGLE.wav", "conditions": [24, 800, "a", 12000], "internal_node_id": "0.0-163.0", "trial": 6, "time_elapsed": 1005245, "serialpos": 1, "key_press": -1, "wordID": 511, "type": "PRES_AUD", "trial_index": 226}, "uniqueid": "MTK3682:386PBUZZXG4OF6BKKZVTCKRPCJWLJU", "dateTime": 1520957416505}, {"current_trial": 227, "trialdata": {"rt": -1000, "trial_type": "single-audio", "word": "world", "stimulus": "/static/audio/wordpool/WORLD.wav", "conditions": [24, 800, "a", 12000], "internal_node_id": "0.0-164.0", "trial": 6, "time_elapsed": 1006953, "serialpos": 2, "key_press": -1, "wordID": 1621, "type": "PRES_AUD", "trial_index": 227}, "uniqueid": "MTK3682:386PBUZZXG4OF6BKKZVTCKRPCJWLJU", "dateTime": 1520957418213}, {"current_trial": 228, "trialdata": {"rt": -1000, "trial_type": "single-audio", "word": "boyfriend", "stimulus": "/static/audio/wordpool/BOYFRIEND.wav", "conditions": [24, 800, "a", 12000], "internal_node_id": "0.0-165.0", "trial": 6, "time_elapsed": 1008866, "serialpos": 3, "key_press": -1, "wordID": 161, "type": "PRES_AUD", "trial_index": 228}, "uniqueid": "MTK3682:386PBUZZXG4OF6BKKZVTCKRPCJWLJU", "dateTime": 1520957420126}, {"current_trial": 229, "trialdata": {"rt": -1000, "trial_type": "single-audio", "word": "camel", "stimulus": "/static/audio/wordpool/CAMEL.wav", "conditions": [24, 800, "a", 12000], "internal_node_id": "0.0-166.0", "trial": 6, "time_elapsed": 1010779, "serialpos": 4, "key_press": -1, "wordID": 222, "type": "PRES_AUD", "trial_index": 229}, "uniqueid": "MTK3682:386PBUZZXG4OF6BKKZVTCKRPCJWLJU", "dateTime": 1520957422040}, {"current_trial": 230, "trialdata": {"rt": -1000, "trial_type": "single-audio", "word": "country", "stimulus": "/static/audio/wordpool/COUNTRY.wav", "conditions": [24, 800, "a", 12000], "internal_node_id": "0.0-167.0", "trial": 6, "time_elapsed": 1012782, "serialpos": 5, "key_press": -1, "wordID": 387, "type": "PRES_AUD", "trial_index": 230}, "uniqueid": "MTK3682:386PBUZZXG4OF6BKKZVTCKRPCJWLJU", "dateTime": 1520957424042}, {"current_trial": 231, "trialdata": {"rt": -1000, "trial_type": "single-audio", "word": "lava", "stimulus": "/static/audio/wordpool/LAVA.wav", "conditions": [24, 800, "a", 12000], "internal_node_id": "0.0-168.0", "trial": 6, "time_elapsed": 1014553, "serialpos": 6, "key_press": -1, "wordID": 803, "type": "PRES_AUD", "trial_index": 231}, "uniqueid": "MTK3682:386PBUZZXG4OF6BKKZVTCKRPCJWLJU", "dateTime": 1520957425813}, {"current_trial": 232, "trialdata": {"rt": -1000, "trial_type": "single-audio", "word": "crater", "stimulus": "/static/audio/wordpool/CRATER.wav", "conditions": [24, 800, "a", 12000], "internal_node_id": "0.0-169.0", "trial": 6, "time_elapsed": 1016204, "serialpos": 7, "key_press": -1, "wordID": 399, "type": "PRES_AUD", "trial_index": 232}, "uniqueid": "MTK3682:386PBUZZXG4OF6BKKZVTCKRPCJWLJU", "dateTime": 1520957427464}, {"current_trial": 233, "trialdata": {"rt": -1000, "trial_type": "single-audio", "word": "beaver", "stimulus": "/static/audio/wordpool/BEAVER.wav", "conditions": [24, 800, "a", 12000], "internal_node_id": "0.0-170.0", "trial": 6, "time_elapsed": 1018037, "serialpos": 8, "key_press": -1, "wordID": 108, "type": "PRES_AUD", "trial_index": 233}, "uniqueid": "MTK3682:386PBUZZXG4OF6BKKZVTCKRPCJWLJU", "dateTime": 1520957429297}, {"current_trial": 234, "trialdata": {"rt": -1000, "trial_type": "single-audio", "word": "perch", "stimulus": "/static/audio/wordpool/PERCH.wav", "conditions": [24, 800, "a", 12000], "internal_node_id": "0.0-171.0", "trial": 6, "time_elapsed": 1019835, "serialpos": 9, "key_press": -1, "wordID": 1047, "type": "PRES_AUD", "trial_index": 234}, "uniqueid": "MTK3682:386PBUZZXG4OF6BKKZVTCKRPCJWLJU", "dateTime": 1520957431096}, {"current_trial": 235, "trialdata": {"rt": -1000, "trial_type": "single-audio", "word": "doughnut", "stimulus": "/static/audio/wordpool/DOUGHNUT.wav", "conditions": [24, 800, "a", 12000], "internal_node_id": "0.0-172.0", "trial": 6, "time_elapsed": 1021577, "serialpos": 10, "key_press": -1, "wordID": 489, "type": "PRES_AUD", "trial_index": 235}, "uniqueid": "MTK3682:386PBUZZXG4OF6BKKZVTCKRPCJWLJU", "dateTime": 1520957432838}, {"current_trial": 236, "trialdata": {"rt": -1000, "trial_type": "single-audio", "word": "omelet", "stimulus": "/static/audio/wordpool/OMELET.wav", "conditions": [24, 800, "a", 12000], "internal_node_id": "0.0-173.0", "trial": 6, "time_elapsed": 1023500, "serialpos": 11, "key_press": -1, "wordID": 975, "type": "PRES_AUD", "trial_index": 236}, "uniqueid": "MTK3682:386PBUZZXG4OF6BKKZVTCKRPCJWLJU", "dateTime": 1520957434760}, {"current_trial": 237, "trialdata": {"rt": -1000, "trial_type": "single-audio", "word": "rabbit", "stimulus": "/static/audio/wordpool/RABBIT.wav", "conditions": [24, 800, "a", 12000], "internal_node_id": "0.0-174.0", "trial": 6, "time_elapsed": 1025459, "serialpos": 12, "key_press": -1, "wordID": 1151, "type": "PRES_AUD", "trial_index": 237}, "uniqueid": "MTK3682:386PBUZZXG4OF6BKKZVTCKRPCJWLJU", "dateTime": 1520957436719}, {"current_trial": 238, "trialdata": {"rt": -1000, "trial_type": "single-audio", "word": "trombone", "stimulus": "/static/audio/wordpool/TROMBONE.wav", "conditions": [24, 800, "a", 12000], "internal_node_id": "0.0-175.0", "trial": 6, "time_elapsed": 1027074, "serialpos": 13, "key_press": -1, "wordID": 1507, "type": "PRES_AUD", "trial_index": 238}, "uniqueid": "MTK3682:386PBUZZXG4OF6BKKZVTCKRPCJWLJU", "dateTime": 1520957438335}, {"current_trial": 239, "trialdata": {"rt": -1000, "trial_type": "single-audio", "word": "flute", "stimulus": "/static/audio/wordpool/FLUTE.wav", "conditions": [24, 800, "a", 12000], "internal_node_id": "0.0-176.0", "trial": 6, "time_elapsed": 1028885, "serialpos": 14, "key_press": -1, "wordID": 584, "type": "PRES_AUD", "trial_index": 239}, "uniqueid": "MTK3682:386PBUZZXG4OF6BKKZVTCKRPCJWLJU", "dateTime": 1520957440145}, {"current_trial": 240, "trialdata": {"rt": -1000, "trial_type": "single-audio", "word": "box", "stimulus": "/static/audio/wordpool/BOX.wav", "conditions": [24, 800, "a", 12000], "internal_node_id": "0.0-177.0", "trial": 6, "time_elapsed": 1030617, "serialpos": 15, "key_press": -1, "wordID": 158, "type": "PRES_AUD", "trial_index": 240}, "uniqueid": "MTK3682:386PBUZZXG4OF6BKKZVTCKRPCJWLJU", "dateTime": 1520957441877}, {"current_trial": 241, "trialdata": {"rt": -1000, "trial_type": "single-audio", "word": "spouse", "stimulus": "/static/audio/wordpool/SPOUSE.wav", "conditions": [24, 800, "a", 12000], "internal_node_id": "0.0-178.0", "trial": 6, "time_elapsed": 1032227, "serialpos": 16, "key_press": -1, "wordID": 1357, "type": "PRES_AUD", "trial_index": 241}, "uniqueid": "MTK3682:386PBUZZXG4OF6BKKZVTCKRPCJWLJU", "dateTime": 1520957443487}, {"current_trial": 242, "trialdata": {"rt": -1000, "trial_type": "single-audio", "word": "burglar", "stimulus": "/static/audio/wordpool/BURGLAR.wav", "conditions": [24, 800, "a", 12000], "internal_node_id": "0.0-179.0", "trial": 6, "time_elapsed": 1033956, "serialpos": 17, "key_press": -1, "wordID": 199, "type": "PRES_AUD", "trial_index": 242}, "uniqueid": "MTK3682:386PBUZZXG4OF6BKKZVTCKRPCJWLJU", "dateTime": 1520957445217}, {"current_trial": 243, "trialdata": {"rt": -1000, "trial_type": "single-audio", "word": "space", "stimulus": "/static/audio/wordpool/SPACE.wav", "conditions": [24, 800, "a", 12000], "internal_node_id": "0.0-180.0", "trial": 6, "time_elapsed": 1035576, "serialpos": 18, "key_press": -1, "wordID": 1344, "type": "PRES_AUD", "trial_index": 243}, "uniqueid": "MTK3682:386PBUZZXG4OF6BKKZVTCKRPCJWLJU", "dateTime": 1520957446836}, {"current_trial": 244, "trialdata": {"rt": -1000, "trial_type": "single-audio", "word": "playground", "stimulus": "/static/audio/wordpool/PLAYGROUND.wav", "conditions": [24, 800, "a", 12000], "internal_node_id": "0.0-181.0", "trial": 6, "time_elapsed": 1037444, "serialpos": 19, "key_press": -1, "wordID": 1086, "type": "PRES_AUD", "trial_index": 244}, "uniqueid": "MTK3682:386PBUZZXG4OF6BKKZVTCKRPCJWLJU", "dateTime": 1520957448704}, {"current_trial": 245, "trialdata": {"rt": -1000, "trial_type": "single-audio", "word": "blender", "stimulus": "/static/audio/wordpool/BLENDER.wav", "conditions": [24, 800, "a", 12000], "internal_node_id": "0.0-182.0", "trial": 6, "time_elapsed": 1039248, "serialpos": 20, "key_press": -1, "wordID": 135, "type": "PRES_AUD", "trial_index": 245}, "uniqueid": "MTK3682:386PBUZZXG4OF6BKKZVTCKRPCJWLJU", "dateTime": 1520957450508}, {"current_trial": 246, "trialdata": {"rt": -1000, "trial_type": "single-audio", "word": "icing", "stimulus": "/static/audio/wordpool/ICING.wav", "conditions": [24, 800, "a", 12000], "internal_node_id": "0.0-183.0", "trial": 6, "time_elapsed": 1040851, "serialpos": 21, "key_press": -1, "wordID": 731, "type": "PRES_AUD", "trial_index": 246}, "uniqueid": "MTK3682:386PBUZZXG4OF6BKKZVTCKRPCJWLJU", "dateTime": 1520957452111}, {"current_trial": 247, "trialdata": {"rt": -1000, "trial_type": "single-audio", "word": "canal", "stimulus": "/static/audio/wordpool/CANAL.wav", "conditions": [24, 800, "a", 12000], "internal_node_id": "0.0-184.0", "trial": 6, "time_elapsed": 1042544, "serialpos": 22, "key_press": -1, "wordID": 225, "type": "PRES_AUD", "trial_index": 247}, "uniqueid": "MTK3682:386PBUZZXG4OF6BKKZVTCKRPCJWLJU", "dateTime": 1520957453804}, {"current_trial": 248, "trialdata": {"rt": -1000, "trial_type": "single-audio", "word": "spider", "stimulus": "/static/audio/wordpool/SPIDER.wav", "conditions": [24, 800, "a", 12000], "internal_node_id": "0.0-185.0", "trial": 6, "time_elapsed": 1044476, "serialpos": 23, "key_press": -1, "wordID": 1350, "type": "PRES_AUD", "trial_index": 248}, "uniqueid": "MTK3682:386PBUZZXG4OF6BKKZVTCKRPCJWLJU", "dateTime": 1520957455737}, {"current_trial": 249, "trialdata": {"rt": -1, "trial_type": "single-stim", "stimulus": "", "internal_node_id": "0.0-186.0-0.0", "time_elapsed": 1045693, "key_press": -1, "type": "PRE_RECALL_DELAY", "trial_index": 249}, "uniqueid": "MTK3682:386PBUZZXG4OF6BKKZVTCKRPCJWLJU", "dateTime": 1520957456954}, {"current_trial": 250, "trialdata": {"rt": -1000, "trial_type": "single-audio", "stimulus": "/static/audio/400Hz.wav", "internal_node_id": "0.0-187.0", "time_elapsed": 1046196, "key_press": -1, "type": "PRE_RECALL_ALERT", "trial_index": 250}, "uniqueid": "MTK3682:386PBUZZXG4OF6BKKZVTCKRPCJWLJU", "dateTime": 1520957457456}, {"current_trial": 251, "trialdata": {"rt": [2020, 3719, 5197, 7266, 12206, 14452, 15940, 18845, 26917, 28567], "recwords": ["spider", "canal", "lettuce", "boyfriend", "spouse", "bunny", "camal", "country", "space", "burglar"], "key_times": [1023, 1115, 1207, 1364, 1423, 1663, 2020, 2198, 2501, 2634, 2727, 3353, 3719, 4002, 4120, 4320, 4449, 4557, 4715, 4856, 5197, 5709, 5826, 5969, 6183, 6316, 6407, 6493, 6648, 6758, 7266, 8870, 8938, 9072, 9547, 9688, 11147, 11242, 11542, 11664, 11846, 12206, 13377, 13475, 13696, 13818, 13897, 14452, 14655, 14845, 14912, 15027, 15117, 15940, 17779, 17878, 17987, 18102, 18187, 18309, 18362, 18845, 24860, 24990, 25546, 25877, 25987, 26917, 27317, 27403, 27506, 27674, 