{"assignmentId": "34FNN24DCNG0863YECGP5IAG3X65YL", "workerId": "MTK3675", "questiondata": {"origin": "United States", "strat-rehearsal": "0", "marital": "Single", "education": "Some college", "ethnicity": "Not Hispanic", "color_depth": 24, "distracted": "No", "wrote-notes": "No", "strat-other": "", "screen_width": 1366, "avail_screen_width": 1366, "avail_screen_height": 728, "strat-image": "100", "language": "English", "gender": "Male", "age": "41", "gender_other": "", "race": ["White"], "strat-categorize": "60", "pixel_depth": 24, "strat-spatial": "100", "strat-story": "75", "race_other": "", "screen_height": 768}, "bonus": 0, "hitId": "3FI30CQHVKQYRIC7J1780TUVT396B5", "counterbalance": 2887, "useragent": "Mozilla/5.0 (Windows NT 10.0; Win64; x64) AppleWebKit/537.36 (KHTML, like Gecko) Chrome/64.0.3282.186 Safari/537.36", "eventdata": [{"eventtype": "initialized", "interval": 0, "value": null, "timestamp": 1520954951257}, {"eventtype": "window_resize", "interval": 0, "value": [1366, 721], "timestamp": 1520954951257}, {"eventtype": "window_resize", "interval": 18972, "value": [1366, 677], "timestamp": 1520954970229}, {"eventtype": "focus", "interval": 1309366, "value": "off", "timestamp": 1520956279595}, {"eventtype": "focus", "interval": 4512, "value": "on", "timestamp": 1520956284107}, {"eventtype": "focus", "interval": 1462936, "value": "off", "timestamp": 1520957747043}, {"eventtype": "focus", "interval": 7710, "value": "on", "timestamp": 1520957754753}, {"eventtype": "focus", "interval": 161498, "value": "off", "timestamp": 1520957916251}, {"eventtype": "focus", "interval": 132955, "value": "on", "timestamp": 1520958049206}], "data": [{"current_trial": 0, "trialdata": {"rt": 2017, "trial_type": "text", "internal_node_id": "0.0-0.0", "time_elapsed": 2029, "key_press": 32, "type": "INSTRUCTIONS", "trial_index": 0}, "uniqueid": "MTK3675:34FNN24DCNG0863YECGP5IAG3X65YL", "dateTime": 1520954972333}, {"current_trial": 1, "trialdata": {"rt": 3048, "trial_type": "text", "internal_node_id": "0.0-1.0", "time_elapsed": 5086, "key_press": 32, "type": "INSTRUCTIONS", "trial_index": 1}, "uniqueid": "MTK3675:34FNN24DCNG0863YECGP5IAG3X65YL", "dateTime": 1520954975387}, {"current_trial": 2, "trialdata": {"rt": [19890], "trial_type": "audio-test", "responses": ["ocean"], "internal_node_id": "0.0-2.0", "time_elapsed": 25005, "type": "AUDIO_TEST", "trial_index": 2}, "uniqueid": "MTK3675:34FNN24DCNG0863YECGP5IAG3X65YL", "dateTime": 1520954995307}, {"current_trial": 3, "trialdata": {"rt": [11695], "trial_type": "audio-test", "responses": ["crystal"], "internal_node_id": "0.0-3.0", "time_elapsed": 36723, "type": "AUDIO_TEST", "trial_index": 3}, "uniqueid": "MTK3675:34FNN24DCNG0863YECGP5IAG3X65YL", "dateTime": 1520955007024}, {"current_trial": 4, "trialdata": {"rt": [13330], "trial_type": "audio-test", "responses": ["spice"], "internal_node_id": "0.0-4.0", "time_elapsed": 50074, "type": "AUDIO_TEST", "trial_index": 4}, "uniqueid": "MTK3675:34FNN24DCNG0863YECGP5IAG3X65YL", "dateTime": 1520955020375}, {"current_trial": 5, "trialdata": {"rt": 50134, "trial_type": "survey-text", "responses": "{\"Q0\":\"12:00 am\",\"Q1\":\"7:45 am\",\"Q2\":\"4\"}", "internal_node_id": "0.0-5.0", "time_elapsed": 100970, "type": "SLEEP_SURVEY", "trial_index": 5}, "uniqueid": "MTK3675:34FNN24DCNG0863YECGP5IAG3X65YL", "dateTime": 1520955071271}, {"current_trial": 6, "trialdata": {"rt": 86382, "trial_type": "text", "internal_node_id": "0.0-6.0", "time_elapsed": 188359, "key_press": 32, "type": "INSTRUCTIONS", "trial_index": 6}, "uniqueid": "MTK3675:34FNN24DCNG0863YECGP5IAG3X65YL", "dateTime": 1520955158660}, {"current_trial": 7, "trialdata": {"rt": 23670, "trial_type": "text", "internal_node_id": "0.0-7.0", "time_elapsed": 212531, "key_press": 32, "type": "INSTRUCTIONS", "trial_index": 7}, "uniqueid": "MTK3675:34FNN24DCNG0863YECGP5IAG3X65YL", "dateTime": 1520955182833}, {"current_trial": 8, "trialdata": {"rt": 12250, "trial_type": "text", "internal_node_id": "0.0-8.0", "time_elapsed": 225283, "key_press": 32, "type": "INSTRUCTIONS", "trial_index": 8}, "uniqueid": "MTK3675:34FNN24DCNG0863YECGP5IAG3X65YL", "dateTime": 1520955195584}, {"current_trial": 9, "trialdata": {"rt": [13914, 17089], "trial_type": "math-distractor", "key_times": [12785, 13045, 13914, 16263, 16491, 17089], "responses": ["20", "10"], "num2": [5, 6, 5], "num3": [7, 3, 8], "conditions": [18, 1200, "a", 18000], "internal_node_id": "0.0-9.0", "key_presses": [50, 48, 13, 49, 48, 13], "trial": 0, "time_elapsed": 244300, "type": "DISTRACTOR", "trial_index": 9, "num1": [8, 1, 6]}, "uniqueid": "MTK3675:34FNN24DCNG0863YECGP5IAG3X65YL", "dateTime": 1520955214603}, {"current_trial": 10, "trialdata": {"rt": -1, "trial_type": "single-stim", "stimulus": "<p id=\"stim\">10</p>", "internal_node_id": "0.0-10.0-0.0", "time_elapsed": 247309, "key_press": -1, "trial_index": 10}, "uniqueid": "MTK3675:34FNN24DCNG0863YECGP5IAG3X65YL", "dateTime": 1520955217610}, {"current_trial": 11, "trialdata": {"rt": -1, "trial_type": "single-stim", "stimulus": "<p id=\"stim\">9</p>", "internal_node_id": "0.0-10.0-1.0", "time_elapsed": 248314, "key_press": -1, "trial_index": 11}, "uniqueid": "MTK3675:34FNN24DCNG0863YECGP5IAG3X65YL", "dateTime": 1520955218615}, {"current_trial": 12, "trialdata": {"rt": -1, "trial_type": "single-stim", "stimulus": "<p id=\"stim\">8</p>", "internal_node_id": "0.0-10.0-2.0", "time_elapsed": 249320, "key_press": -1, "trial_index": 12}, "uniqueid": "MTK3675:34FNN24DCNG0863YECGP5IAG3X65YL", "dateTime": 1520955219621}, {"current_trial": 13, "trialdata": {"rt": -1, "trial_type": "single-stim", "stimulus": "<p id=\"stim\">7</p>", "internal_node_id": "0.0-10.0-3.0", "time_elapsed": 250323, "key_press": -1, "trial_index": 13}, "uniqueid": "MTK3675:34FNN24DCNG0863YECGP5IAG3X65YL", "dateTime": 1520955220625}, {"current_trial": 14, "trialdata": {"rt": -1, "trial_type": "single-stim", "stimulus": "<p id=\"stim\">6</p>", "internal_node_id": "0.0-10.0-4.0", "time_elapsed": 251328, "key_press": -1, "trial_index": 14}, "uniqueid": "MTK3675:34FNN24DCNG0863YECGP5IAG3X65YL", "dateTime": 1520955221630}, {"current_trial": 15, "trialdata": {"rt": -1, "trial_type": "single-stim", "stimulus": "<p id=\"stim\">5</p>", "internal_node_id": "0.0-10.0-5.0", "time_elapsed": 252333, "key_press": -1, "trial_index": 15}, "uniqueid": "MTK3675:34FNN24DCNG0863YECGP5IAG3X65YL", "dateTime": 1520955222634}, {"current_trial": 16, "trialdata": {"rt": -1, "trial_type": "single-stim", "stimulus": "<p id=\"stim\">4</p>", "internal_node_id": "0.0-10.0-6.0", "time_elapsed": 253336, "key_press": -1, "trial_index": 16}, "uniqueid": "MTK3675:34FNN24DCNG0863YECGP5IAG3X65YL", "dateTime": 1520955223637}, {"current_trial": 17, "trialdata": {"rt": -1, "trial_type": "single-stim", "stimulus": "<p id=\"stim\">3</p>", "internal_node_id": "0.0-10.0-7.0", "time_elapsed": 254350, "key_press": -1, "trial_index": 17}, "uniqueid": "MTK3675:34FNN24DCNG0863YECGP5IAG3X65YL", "dateTime": 1520955224651}, {"current_trial": 18, "trialdata": {"rt": -1, "trial_type": "single-stim", "stimulus": "<p id=\"stim\">2</p>", "internal_node_id": "0.0-10.0-8.0", "time_elapsed": 255353, "key_press": -1, "trial_index": 18}, "uniqueid": "MTK3675:34FNN24DCNG0863YECGP5IAG3X65YL", "dateTime": 1520955225655}, {"current_trial": 19, "trialdata": {"rt": -1, "trial_type": "single-stim", "stimulus": "<p id=\"stim\">1</p>", "internal_node_id": "0.0-10.0-9.0", "time_elapsed": 256357, "key_press": -1, "trial_index": 19}, "uniqueid": "MTK3675:34FNN24DCNG0863YECGP5IAG3X65YL", "dateTime": 1520955226658}, {"current_trial": 20, "trialdata": {"rt": -1, "trial_type": "single-stim", "stimulus": "<p id=\"stim\">+</p>", "internal_node_id": "0.0-11.0-0.0", "time_elapsed": 257868, "key_press": -1, "type": "FIXATION", "trial_index": 20}, "uniqueid": "MTK3675:34FNN24DCNG0863YECGP5IAG3X65YL", "dateTime": 1520955228170}, {"current_trial": 21, "trialdata": {"rt": -1000, "trial_type": "single-audio", "word": "cabin", "stimulus": "/static/audio/wordpool/CABIN.wav", "conditions": [18, 1200, "a", 18000], "internal_node_id": "0.0-12.0", "trial": 0, "time_elapsed": 260072, "serialpos": 0, "key_press": -1, "wordID": 210, "type": "PRES_AUD", "trial_index": 21}, "uniqueid": "MTK3675:34FNN24DCNG0863YECGP5IAG3X65YL", "dateTime": 1520955230379}, {"current_trial": 22, "trialdata": {"rt": -1000, "trial_type": "single-audio", "word": "switch", "stimulus": "/static/audio/wordpool/SWITCH.wav", "conditions": [18, 1200, "a", 18000], "internal_node_id": "0.0-13.0", "trial": 0, "time_elapsed": 262456, "serialpos": 1, "key_press": -1, "wordID": 1421, "type": "PRES_AUD", "trial_index": 22}, "uniqueid": "MTK3675:34FNN24DCNG0863YECGP5IAG3X65YL", "dateTime": 1520955232757}, {"current_trial": 23, "trialdata": {"rt": -1000, "trial_type": "single-audio", "word": "child", "stimulus": "/static/audio/wordpool/CHILD.wav", "conditions": [18, 1200, "a", 18000], "internal_node_id": "0.0-14.0", "trial": 0, "time_elapsed": 264615, "serialpos": 2, "key_press": -1, "wordID": 298, "type": "PRES_AUD", "trial_index": 23}, "uniqueid": "MTK3675:34FNN24DCNG0863YECGP5IAG3X65YL", "dateTime": 1520955234916}, {"current_trial": 24, "trialdata": {"rt": -1000, "trial_type": "single-audio", "word": "quail", "stimulus": "/static/audio/wordpool/QUAIL.wav", "conditions": [18, 1200, "a", 18000], "internal_node_id": "0.0-15.0", "trial": 0, "time_elapsed": 266814, "serialpos": 3, "key_press": -1, "wordID": 1146, "type": "PRES_AUD", "trial_index": 24}, "uniqueid": "MTK3675:34FNN24DCNG0863YECGP5IAG3X65YL", "dateTime": 1520955237116}, {"current_trial": 25, "trialdata": {"rt": -1000, "trial_type": "single-audio", "word": "jungle", "stimulus": "/static/audio/wordpool/JUNGLE.wav", "conditions": [18, 1200, "a", 18000], "internal_node_id": "0.0-16.0", "trial": 0, "time_elapsed": 268920, "serialpos": 4, "key_press": -1, "wordID": 763, "type": "PRES_AUD", "trial_index": 25}, "uniqueid": "MTK3675:34FNN24DCNG0863YECGP5IAG3X65YL", "dateTime": 1520955239222}, {"current_trial": 26, "trialdata": {"rt": -1000, "trial_type": "single-audio", "word": "finger", "stimulus": "/static/audio/wordpool/FINGER.wav", "conditions": [18, 1200, "a", 18000], "internal_node_id": "0.0-17.0", "trial": 0, "time_elapsed": 271077, "serialpos": 5, "key_press": -1, "wordID": 566, "type": "PRES_AUD", "trial_index": 26}, "uniqueid": "MTK3675:34FNN24DCNG0863YECGP5IAG3X65YL", "dateTime": 1520955241379}, {"current_trial": 27, "trialdata": {"rt": -1000, "trial_type": "single-audio", "word": "sunset", "stimulus": "/static/audio/wordpool/SUNSET.wav", "conditions": [18, 1200, "a", 18000], "internal_node_id": "0.0-18.0", "trial": 0, "time_elapsed": 273321, "serialpos": 6, "key_press": -1, "wordID": 1407, "type": "PRES_AUD", "trial_index": 27}, "uniqueid": "MTK3675:34FNN24DCNG0863YECGP5IAG3X65YL", "dateTime": 1520955243624}, {"current_trial": 28, "trialdata": {"rt": -1000, "trial_type": "single-audio", "word": "leg", "stimulus": "/static/audio/wordpool/LEG.wav", "conditions": [18, 1200, "a", 18000], "internal_node_id": "0.0-19.0", "trial": 0, "time_elapsed": 275415, "serialpos": 7, "key_press": -1, "wordID": 808, "type": "PRES_AUD", "trial_index": 28}, "uniqueid": "MTK3675:34FNN24DCNG0863YECGP5IAG3X65YL", "dateTime": 1520955245717}, {"current_trial": 29, "trialdata": {"rt": -1000, "trial_type": "single-audio", "word": "quarter", "stimulus": "/static/audio/wordpool/QUARTER.wav", "conditions": [18, 1200, "a", 18000], "internal_node_id": "0.0-20.0", "trial": 0, "time_elapsed": 277769, "serialpos": 8, "key_press": -1, "wordID": 1147, "type": "PRES_AUD", "trial_index": 29}, "uniqueid": "MTK3675:34FNN24DCNG0863YECGP5IAG3X65YL", "dateTime": 1520955248070}, {"current_trial": 30, "trialdata": {"rt": -1000, "trial_type": "single-audio", "word": "oyster", "stimulus": "/static/audio/wordpool/OYSTER.wav", "conditions": [18, 1200, "a", 18000], "internal_node_id": "0.0-21.0", "trial": 0, "time_elapsed": 280119, "serialpos": 9, "key_press": -1, "wordID": 994, "type": "PRES_AUD", "trial_index": 30}, "uniqueid": "MTK3675:34FNN24DCNG0863YECGP5IAG3X65YL", "dateTime": 1520955250421}, {"current_trial": 31, "trialdata": {"rt": -1000, "trial_type": "single-audio", "word": "gavel", "stimulus": "/static/audio/wordpool/GAVEL.wav", "conditions": [18, 1200, "a", 18000], "internal_node_id": "0.0-22.0", "trial": 0, "time_elapsed": 282507, "serialpos": 10, "key_press": -1, "wordID": 626, "type": "PRES_AUD", "trial_index": 31}, "uniqueid": "MTK3675:34FNN24DCNG0863YECGP5IAG3X65YL", "dateTime": 1520955252808}, {"current_trial": 32, "trialdata": {"rt": -1000, "trial_type": "single-audio", "word": "eyelash", "stimulus": "/static/audio/wordpool/EYELASH.wav", "conditions": [18, 1200, "a", 18000], "internal_node_id": "0.0-23.0", "trial": 0, "time_elapsed": 284825, "serialpos": 11, "key_press": -1, "wordID": 545, "type": "PRES_AUD", "trial_index": 32}, "uniqueid": "MTK3675:34FNN24DCNG0863YECGP5IAG3X65YL", "dateTime": 1520955255126}, {"current_trial": 33, "trialdata": {"rt": -1000, "trial_type": "single-audio", "word": "robot", "stimulus": "/static/audio/wordpool/ROBOT.wav", "conditions": [18, 1200, "a", 18000], "internal_node_id": "0.0-24.0", "trial": 0, "time_elapsed": 287197, "serialpos": 12, "key_press": -1, "wordID": 1199, "type": "PRES_AUD", "trial_index": 33}, "uniqueid": "MTK3675:34FNN24DCNG0863YECGP5IAG3X65YL", "dateTime": 1520955257498}, {"current_trial": 34, "trialdata": {"rt": -1000, "trial_type": "single-audio", "word": "sandwich", "stimulus": "/static/audio/wordpool/SANDWICH.wav", "conditions": [18, 1200, "a", 18000], "internal_node_id": "0.0-25.0", "trial": 0, "time_elapsed": 289519, "serialpos": 13, "key_press": -1, "wordID": 1231, "type": "PRES_AUD", "trial_index": 34}, "uniqueid": "MTK3675:34FNN24DCNG0863YECGP5IAG3X65YL", "dateTime": 1520955259821}, {"current_trial": 35, "trialdata": {"rt": -1000, "trial_type": "single-audio", "word": "pimple", "stimulus": "/static/audio/wordpool/PIMPLE.wav", "conditions": [18, 1200, "a", 18000], "internal_node_id": "0.0-26.0", "trial": 0, "time_elapsed": 291919, "serialpos": 14, "key_press": -1, "wordID": 1070, "type": "PRES_AUD", "trial_index": 35}, "uniqueid": "MTK3675:34FNN24DCNG0863YECGP5IAG3X65YL", "dateTime": 1520955262220}, {"current_trial": 36, "trialdata": {"rt": -1000, "trial_type": "single-audio", "word": "laser", "stimulus": "/static/audio/wordpool/LASER.wav", "conditions": [18, 1200, "a", 18000], "internal_node_id": "0.0-27.0", "trial": 0, "time_elapsed": 294064, "serialpos": 15, "key_press": -1, "wordID": 800, "type": "PRES_AUD", "trial_index": 36}, "uniqueid": "MTK3675:34FNN24DCNG0863YECGP5IAG3X65YL", "dateTime": 1520955264365}, {"current_trial": 37, "trialdata": {"rt": -1000, "trial_type": "single-audio", "word": "guard", "stimulus": "/static/audio/wordpool/GUARD.wav", "conditions": [18, 1200, "a", 18000], "internal_node_id": "0.0-28.0", "trial": 0, "time_elapsed": 296309, "serialpos": 16, "key_press": -1, "wordID": 666, "type": "PRES_AUD", "trial_index": 37}, "uniqueid": "MTK3675:34FNN24DCNG0863YECGP5IAG3X65YL", "dateTime": 1520955266610}, {"current_trial": 38, "trialdata": {"rt": -1000, "trial_type": "single-audio", "word": "perfume", "stimulus": "/static/audio/wordpool/PERFUME.wav", "conditions": [18, 1200, "a", 18000], "internal_node_id": "0.0-29.0", "trial": 0, "time_elapsed": 298690, "serialpos": 17, "key_press": -1, "wordID": 1048, "type": "PRES_AUD", "trial_index": 38}, "uniqueid": "MTK3675:34FNN24DCNG0863YECGP5IAG3X65YL", "dateTime": 1520955268991}, {"current_trial": 39, "trialdata": {"rt": -1, "trial_type": "single-stim", "stimulus": "", "internal_node_id": "0.0-30.0-0.0", "time_elapsed": 300008, "key_press": -1, "type": "PRE_RECALL_DELAY", "trial_index": 39}, "uniqueid": "MTK3675:34FNN24DCNG0863YECGP5IAG3X65YL", "dateTime": 1520955270310}, {"current_trial": 40, "trialdata": {"rt": -1000, "trial_type": "single-audio", "stimulus": "/static/audio/400Hz.wav", "internal_node_id": "0.0-31.0", "time_elapsed": 300514, "key_press": -1, "type": "PRE_RECALL_ALERT", "trial_index": 40}, "uniqueid": "MTK3675:34FNN24DCNG0863YECGP5IAG3X65YL", "dateTime": 1520955270815}, {"current_trial": 41, "trialdata": {"rt": [3486, 5218, 9544, 13384, 15716, 21870, 38161, 52662], "recwords": ["cabin", "child", "eyelash", "pimple", "leg", "sunset", "oyster", "cabin"], "key_times": [1332, 1689, 2527, 2673, 2959, 3486, 3854, 3985, 4214, 4509, 4731, 5218, 6839, 7090, 7643, 7904, 8154, 8624, 8798, 9544, 11597, 11842, 12108, 12391, 12802, 12965, 13384, 14685, 14861, 15277, 15716, 19801, 19942, 20274, 20989, 21229, 21509, 21870, 35797, 36090, 37274, 37516, 37785, 37931, 38161, 50836, 51112, 51941, 52178, 52375, 52662], "trial_type": "free-recall", "conditions": [18, 1200, "a", 18000], "internal_node_id": "0.0-32.0-0.0", "key_presses": [67, 65, 66, 73, 78, 32, 67, 72, 73, 76, 68, 32, 69, 89, 69, 76, 65, 83, 72, 13, 80, 73, 77, 80, 76, 69, 13, 76, 69, 71, 13, 83, 85, 78, 83, 69, 84, 13, 79, 89, 83, 84, 69, 82, 13, 67, 65, 66, 73, 78, 13], "trial": 0, "time_elapsed": 360570, "type": "FREE_RECALL", "trial_index": 41}, "uniqueid": "MTK3675:34FNN24DCNG0863YECGP5IAG3X65YL", "dateTime": 1520955330881}, {"current_trial": 42, "trialdata": {"rt": 2039, "trial_type": "text", "internal_node_id": "0.0-33.0", "time_elapsed": 364623, "key_press": 13, "type": "INSTRUCTIONS", "trial_index": 42}, "uniqueid": "MTK3675:34FNN24DCNG0863YECGP5IAG3X65YL", "dateTime": 1520955334925}, {"current_trial": 43, "trialdata": {"rt": [4086, 8785, 16230], "trial_type": "math-distractor", "key_times": [2867, 3037, 4086, 7709, 7965, 8785, 15047, 15520, 16230], "responses": ["19", "21", "18"], "num2": [5, 9, 4, 7], "num3": [5, 9, 5, 7], "conditions": [18, 1200, "a", 18000], "internal_node_id": "0.0-34.0", "key_presses": [49, 57, 13, 50, 49, 13, 49, 56, 13], "trial": 1, "time_elapsed": 384677, "type": "DISTRACTOR", "trial_index": 43, "num1": [9, 6, 9, 4]}, "uniqueid": "MTK3675:34FNN24DCNG0863YECGP5IAG3X65YL", "dateTime": 1520955354978}, {"current_trial": 44, "trialdata": {"rt": -1, "trial_type": "single-stim", "stimulus": "<p id=\"stim\">10</p>", "internal_node_id": "0.0-35.0-0.0", "time_elapsed": 387690, "key_press": -1, "trial_index": 44}, "uniqueid": "MTK3675:34FNN24DCNG0863YECGP5IAG3X65YL", "dateTime": 1520955357991}, {"current_trial": 45, "trialdata": {"rt": -1, "trial_type": "single-stim", "stimulus": "<p id=\"stim\">9</p>", "internal_node_id": "0.0-35.0-1.0", "time_elapsed": 388694, "key_press": -1, "trial_index": 45}, "uniqueid": "MTK3675:34FNN24DCNG0863YECGP5IAG3X65YL", "dateTime": 1520955358995}, {"current_trial": 46, "trialdata": {"rt": -1, "trial_type": "single-stim", "stimulus": "<p id=\"stim\">8</p>", "internal_node_id": "0.0-35.0-2.0", "time_elapsed": 389698, "key_press": -1, "trial_index": 46}, "uniqueid": "MTK3675:34FNN24DCNG0863YECGP5IAG3X65YL", "dateTime": 1520955359999}, {"current_trial": 47, "trialdata": {"rt": -1, "trial_type": "single-stim", "stimulus": "<p id=\"stim\">7</p>", "internal_node_id": "0.0-35.0-3.0", "time_elapsed": 390701, "key_press": -1, "trial_index": 47}, "uniqueid": "MTK3675:34FNN24DCNG0863YECGP5IAG3X65YL", "dateTime": 1520955361002}, {"current_trial": 48, "trialdata": {"rt": -1, "trial_type": "single-stim", "stimulus": "<p id=\"stim\">6</p>", "internal_node_id": "0.0-35.0-4.0", "time_elapsed": 391704, "key_press": -1, "trial_index": 48}, "uniqueid": "MTK3675:34FNN24DCNG0863YECGP5IAG3X65YL", "dateTime": 1520955362005}, {"current_trial": 49, "trialdata": {"rt": -1, "trial_type": "single-stim", "stimulus": "<p id=\"stim\">5</p>", "internal_node_id": "0.0-35.0-5.0", "time_elapsed": 392706, "key_press": -1, "trial_index": 49}, "uniqueid": "MTK3675:34FNN24DCNG0863YECGP5IAG3X65YL", "dateTime": 1520955363008}, {"current_trial": 50, "trialdata": {"rt": -1, "trial_type": "single-stim", "stimulus": "<p id=\"stim\">4</p>", "internal_node_id": "0.0-35.0-6.0", "time_elapsed": 393709, "key_press": -1, "trial_index": 50}, "uniqueid": "MTK3675:34FNN24DCNG0863YECGP5IAG3X65YL", "dateTime": 1520955364011}, {"current_trial": 51, "trialdata": {"rt": -1, "trial_type": "single-stim", "stimulus": "<p id=\"stim\">3</p>", "internal_node_id": "0.0-35.0-7.0", "time_elapsed": 394712, "key_press": -1, "trial_index": 51}, "uniqueid": "MTK3675:34FNN24DCNG0863YECGP5IAG3X65YL", "dateTime": 1520955365015}, {"current_trial": 52, "trialdata": {"rt": -1, "trial_type": "single-stim", "stimulus": "<p id=\"stim\">2</p>", "internal_node_id": "0.0-35.0-8.0", "time_elapsed": 395715, "key_press": -1, "trial_index": 52}, "uniqueid": "MTK3675:34FNN24DCNG0863YECGP5IAG3X65YL", "dateTime": 1520955366018}, {"current_trial": 53, "trialdata": {"rt": -1, "trial_type": "single-stim", "stimulus": "<p id=\"stim\">1</p>", "internal_node_id": "0.0-35.0-9.0", "time_elapsed": 396718, "key_press": -1, "trial_index": 53}, "uniqueid": "MTK3675:34FNN24DCNG0863YECGP5IAG3X65YL", "dateTime": 1520955367019}, {"current_trial": 54, "trialdata": {"rt": -1, "trial_type": "single-stim", "stimulus": "<p id=\"stim\">+</p>", "internal_node_id": "0.0-36.0-0.0", "time_elapsed": 398222, "key_press": -1, "type": "FIXATION", "trial_index": 54}, "uniqueid": "MTK3675:34FNN24DCNG0863YECGP5IAG3X65YL", "dateTime": 1520955368526}, {"current_trial": 55, "trialdata": {"rt": -1000, "trial_type": "single-audio", "word": "bike", "stimulus": "/static/audio/wordpool/BIKE.wav", "conditions": [18, 1200, "a", 18000], "internal_node_id": "0.0-37.0", "trial": 1, "time_elapsed": 400567, "serialpos": 0, "key_press": -1, "wordID": 124, "type": "PRES_AUD", "trial_index": 55}, "uniqueid": "MTK3675:34FNN24DCNG0863YECGP5IAG3X65YL", "dateTime": 1520955370868}, {"current_trial": 56, "trialdata": {"rt": -1000, "trial_type": "single-audio", "word": "spider", "stimulus": "/static/audio/wordpool/SPIDER.wav", "conditions": [18, 1200, "a", 18000], "internal_node_id": "0.0-38.0", "trial": 1, "time_elapsed": 402895, "serialpos": 1, "key_press": -1, "wordID": 1350, "type": "PRES_AUD", "trial_index": 56}, "uniqueid": "MTK3675:34FNN24DCNG0863YECGP5IAG3X65YL", "dateTime": 1520955373196}, {"current_trial": 57, "trialdata": {"rt": -1000, "trial_type": "single-audio", "word": "server", "stimulus": "/static/audio/wordpool/SERVER.wav", "conditions": [18, 1200, "a", 18000], "internal_node_id": "0.0-39.0", "trial": 1, "time_elapsed": 405070, "serialpos": 2, "key_press": -1, "wordID": 1271, "type": "PRES_AUD", "trial_index": 57}, "uniqueid": "MTK3675:34FNN24DCNG0863YECGP5IAG3X65YL", "dateTime": 1520955375371}, {"current_trial": 58, "trialdata": {"rt": -1000, "trial_type": "single-audio", "word": "subway", "stimulus": "/static/audio/wordpool/SUBWAY.wav", "conditions": [18, 1200, "a", 18000], "internal_node_id": "0.0-40.0", "trial": 1, "time_elapsed": 407471, "serialpos": 3, "key_press": -1, "wordID": 1399, "type": "PRES_AUD", "trial_index": 58}, "uniqueid": "MTK3675:34FNN24DCNG0863YECGP5IAG3X65YL", "dateTime": 1520955377773}, {"current_trial": 59, "trialdata": {"rt": -1000, "trial_type": "single-audio", "word": "london", "stimulus": "/static/audio/wordpool/LONDON.wav", "conditions": [18, 1200, "a", 18000], "internal_node_id": "0.0-41.0", "trial": 1, "time_elapsed": 409819, "serialpos": 4, "key_press": -1, "wordID": 842, "type": "PRES_AUD", "trial_index": 59}, "uniqueid": "MTK3675:34FNN24DCNG0863YECGP5IAG3X65YL", "dateTime": 1520955380120}, {"current_trial": 60, "trialdata": {"rt": -1000, "trial_type": "single-audio", "word": "dragon", "stimulus": "/static/audio/wordpool/DRAGON.wav", "conditions": [18, 1200, "a", 18000], "internal_node_id": "0.0-42.0", "trial": 1, "time_elapsed": 411954, "serialpos": 5, "key_press": -1, "wordID": 491, "type": "PRES_AUD", "trial_index": 60}, "uniqueid": "MTK3675:34FNN24DCNG0863YECGP5IAG3X65YL", "dateTime": 1520955382255}, {"current_trial": 61, "trialdata": {"rt": -1000, "trial_type": "single-audio", "word": "sketch", "stimulus": "/static/audio/wordpool/SKETCH.wav", "conditions": [18, 1200, "a", 18000], "internal_node_id": "0.0-43.0", "trial": 1, "time_elapsed": 414134, "serialpos": 6, "key_press": -1, "wordID": 1314, "type": "PRES_AUD", "trial_index": 61}, "uniqueid": "MTK3675:34FNN24DCNG0863YECGP5IAG3X65YL", "dateTime": 1520955384437}, {"current_trial": 62, "trialdata": {"rt": -1000, "trial_type": "single-audio", "word": "bureau", "stimulus": "/static/audio/wordpool/BUREAU.wav", "conditions": [18, 1200, "a", 18000], "internal_node_id": "0.0-44.0", "trial": 1, "time_elapsed": 416197, "serialpos": 7, "key_press": -1, "wordID": 198, "type": "PRES_AUD", "trial_index": 62}, "uniqueid": "MTK3675:34FNN24DCNG0863YECGP5IAG3X65YL", "dateTime": 1520955386501}, {"current_trial": 63, "trialdata": {"rt": -1000, "trial_type": "single-audio", "word": "pigeon", "stimulus": "/static/audio/wordpool/PIGEON.wav", "conditions": [18, 1200, "a", 18000], "internal_node_id": "0.0-45.0", "trial": 1, "time_elapsed": 418506, "serialpos": 8, "key_press": -1, "wordID": 1064, "type": "PRES_AUD", "trial_index": 63}, "uniqueid": "MTK3675:34FNN24DCNG0863YECGP5IAG3X65YL", "dateTime": 1520955388809}, {"current_trial": 64, "trialdata": {"rt": -1000, "trial_type": "single-audio", "word": "cookbook", "stimulus": "/static/audio/wordpool/COOKBOOK.wav", "conditions": [18, 1200, "a", 18000], "internal_node_id": "0.0-46.0", "trial": 1, "time_elapsed": 420809, "serialpos": 9, "key_press": -1, "wordID": 372, "type": "PRES_AUD", "trial_index": 64}, "uniqueid": "MTK3675:34FNN24DCNG0863YECGP5IAG3X65YL", "dateTime": 1520955391111}, {"current_trial": 65, "trialdata": {"rt": -1000, "trial_type": "single-audio", "word": "dentist", "stimulus": "/static/audio/wordpool/DENTIST.wav", "conditions": [18, 1200, "a", 18000], "internal_node_id": "0.0-47.0", "trial": 1, "time_elapsed": 423110, "serialpos": 10, "key_press": -1, "wordID": 446, "type": "PRES_AUD", "trial_index": 65}, "uniqueid": "MTK3675:34FNN24DCNG0863YECGP5IAG3X65YL", "dateTime": 1520955393411}, {"current_trial": 66, "trialdata": {"rt": -1000, "trial_type": "single-audio", "word": "boyfriend", "stimulus": "/static/audio/wordpool/BOYFRIEND.wav", "conditions": [18, 1200, "a", 18000], "internal_node_id": "0.0-48.0", "trial": 1, "time_elapsed": 425291, "serialpos": 11, "key_press": -1, "wordID": 161, "type": "PRES_AUD", "trial_index": 66}, "uniqueid": "MTK3675:34FNN24DCNG0863YECGP5IAG3X65YL", "dateTime": 1520955395592}, {"current_trial": 67, "trialdata": {"rt": -1000, "trial_type": "single-audio", "word": "table", "stimulus": "/static/audio/wordpool/TABLE.wav", "conditions": [18, 1200, "a", 18000], "internal_node_id": "0.0-49.0", "trial": 1, "time_elapsed": 427522, "serialpos": 12, "key_press": -1, "wordID": 1425, "type": "PRES_AUD", "trial_index": 67}, "uniqueid": "MTK3675:34FNN24DCNG0863YECGP5IAG3X65YL", "dateTime": 1520955397823}, {"current_trial": 68, "trialdata": {"rt": -1000, "trial_type": "single-audio", "word": "husband", "stimulus": "/static/audio/wordpool/HUSBAND.wav", "conditions": [18, 1200, "a", 18000], "internal_node_id": "0.0-50.0", "trial": 1, "time_elapsed": 429652, "serialpos": 13, "key_press": -1, "wordID": 727, "type": "PRES_AUD", "trial_index": 68}, "uniqueid": "MTK3675:34FNN24DCNG0863YECGP5IAG3X65YL", "dateTime": 1520955399963}, {"current_trial": 69, "trialdata": {"rt": -1000, "trial_type": "single-audio", "word": "chipmunk", "stimulus": "/static/audio/wordpool/CHIPMUNK.wav", "conditions": [18, 1200, "a", 18000], "internal_node_id": "0.0-51.0", "trial": 1, "time_elapsed": 432046, "serialpos": 14, "key_press": -1, "wordID": 303, "type": "PRES_AUD", "trial_index": 69}, "uniqueid": "MTK3675:34FNN24DCNG0863YECGP5IAG3X65YL", "dateTime": 1520955402347}, {"current_trial": 70, "trialdata": {"rt": -1000, "trial_type": "single-audio", "word": "slug", "stimulus": "/static/audio/wordpool/SLUG.wav", "conditions": [18, 1200, "a", 18000], "internal_node_id": "0.0-52.0", "trial": 1, "time_elapsed": 434124, "serialpos": 15, "key_press": -1, "wordID": 1328, "type": "PRES_AUD", "trial_index": 70}, "uniqueid": "MTK3675:34FNN24DCNG0863YECGP5IAG3X65YL", "dateTime": 1520955404425}, {"current_trial": 71, "trialdata": {"rt": -1000, "trial_type": "single-audio", "word": "silk", "stimulus": "/static/audio/wordpool/SILK.wav", "conditions": [18, 1200, "a", 18000], "internal_node_id": "0.0-53.0", "trial": 1, "time_elapsed": 436445, "serialpos": 16, "key_press": -1, "wordID": 1306, "type": "PRES_AUD", "trial_index": 71}, "uniqueid": "MTK3675:34FNN24DCNG0863YECGP5IAG3X65YL", "dateTime": 1520955406746}, {"current_trial": 72, "trialdata": {"rt": -1000, "trial_type": "single-audio", "word": "japan", "stimulus": "/static/audio/wordpool/JAPAN.wav", "conditions": [18, 1200, "a", 18000], "internal_node_id": "0.0-54.0", "trial": 1, "time_elapsed": 438818, "serialpos": 17, "key_press": -1, "wordID": 748, "type": "PRES_AUD", "trial_index": 72}, "uniqueid": "MTK3675:34FNN24DCNG0863YECGP5IAG3X65YL", "dateTime": 1520955409119}, {"current_trial": 73, "trialdata": {"rt": -1, "trial_type": "single-stim", "stimulus": "", "internal_node_id": "0.0-55.0-0.0", "time_elapsed": 440056, "key_press": -1, "type": "PRE_RECALL_DELAY", "trial_index": 73}, "uniqueid": "MTK3675:34FNN24DCNG0863YECGP5IAG3X65YL", "dateTime": 1520955410357}, {"current_trial": 74, "trialdata": {"rt": -1000, "trial_type": "single-audio", "stimulus": "/static/audio/400Hz.wav", "internal_node_id": "0.0-56.0", "time_elapsed": 440561, "key_press": -1, "type": "PRE_RECALL_ALERT", "trial_index": 74}, "uniqueid": "MTK3675:34FNN24DCNG0863YECGP5IAG3X65YL", "dateTime": 1520955410862}, {"current_trial": 75, "trialdata": {"rt": [2457, 6244, 10352, 13432, 17044, 21579, 30619, 33066], "recwords": ["japan", "husband", "boyfriend", "slug", "chipmunk", "table", "london", "subway"], "key_times": [868, 1133, 1340, 2033, 2198, 2457, 3093, 3583, 3777, 4276, 4533, 4722, 4897, 6244, 7559, 7783, 8061, 8953, 9217, 9330, 9543, 9732, 9949, 10352, 12300, 12495, 12709, 12982, 13432, 14236, 14380, 14618, 14967, 15360, 15597, 15827, 16605, 17044, 20046, 20340, 20860, 21067, 21243, 21579, 26896, 27720, 28115, 29338, 29578, 29748, 30105, 30329, 30619, 31133, 31260, 31599, 32236, 32489, 32699, 33066], "trial_type": "free-recall", "conditions": [18, 1200, "a", 18000], "internal_node_id": "0.0-57.0-0.0", "key_presses": [74, 65, 80, 65, 78, 32, 72, 85, 83, 66, 65, 78, 68, 13, 66, 79, 89, 70, 82, 73, 69, 78, 68, 13, 83, 76, 85, 71, 13, 67, 72, 73, 80, 77, 85, 78, 75, 13, 84, 65, 66, 76, 69, 13, 83, 8, 76, 79, 78, 68, 79, 78, 13, 83, 85, 66, 87, 65, 89, 13], "trial": 1, "time_elapsed": 500574, "type": "FREE_RECALL", "trial_index": 75}, "uniqueid": "MTK3675:34FNN24DCNG0863YECGP5IAG3X65YL", "dateTime": 1520955470883}, {"current_trial": 76, "trialdata": {"rt": 2311, "trial_type": "text", "internal_node_id": "0.0-58.0", "time_elapsed": 504898, "key_press": 13, "type": "INSTRUCTIONS", "trial_index": 76}, "uniqueid": "MTK3675:34FNN24DCNG0863YECGP5IAG3X65YL", "dateTime": 1520955475199}, {"current_trial": 77, "trialdata": {"rt": [3586, 5950, 11986], "trial_type": "math-distractor", "key_times": [2630, 2943, 3586, 5182, 5318, 5950, 10866, 11475, 11986], "responses": ["13", "11", "20"], "num2": [2, 1, 8, 5], "num3": [8, 5, 6, 4], "conditions": [12, 1600, "a", 12000], "internal_node_id": "0.0-59.0", "key_presses": [49, 51, 13, 49, 49, 13, 50, 48, 13], "trial": 2, "time_elapsed": 517908, "type": "DISTRACTOR", "trial_index": 77, "num1": [3, 5, 6, 3]}, "uniqueid": "MTK3675:34FNN24DCNG0863YECGP5IAG3X65YL", "dateTime": 1520955488209}, {"current_trial": 78, "trialdata": {"rt": -1, "trial_type": "single-stim", "stimulus": "<p id=\"stim\">10</p>", "internal_node_id": "0.0-60.0-0.0", "time_elapsed": 520911, "key_press": -1, "trial_index": 78}, "uniqueid": "MTK3675:34FNN24DCNG0863YECGP5IAG3X65YL", "dateTime": 1520955491213}, {"current_trial": 79, "trialdata": {"rt": -1, "trial_type": "single-stim", "stimulus": "<p id=\"stim\">9</p>", "internal_node_id": "0.0-60.0-1.0", "time_elapsed": 521914, "key_press": -1, "trial_index": 79}, "uniqueid": "MTK3675:34FNN24DCNG0863YECGP5IAG3X65YL", "dateTime": 1520955492215}, {"current_trial": 80, "trialdata": {"rt": -1, "trial_type": "single-stim", "stimulus": "<p id=\"stim\">8</p>", "internal_node_id": "0.0-60.0-2.0", "time_elapsed": 522917, "key_press": -1, "trial_index": 80}, "uniqueid": "MTK3675:34FNN24DCNG0863YECGP5IAG3X65YL", "dateTime": 1520955493218}, {"current_trial": 81, "trialdata": {"rt": -1, "trial_type": "single-stim", "stimulus": "<p id=\"stim\">7</p>", "internal_node_id": "0.0-60.0-3.0", "time_elapsed": 523922, "key_press": -1, "trial_index": 81}, "uniqueid": "MTK3675:34FNN24DCNG0863YECGP5IAG3X65YL", "dateTime": 1520955494223}, {"current_trial": 82, "trialdata": {"rt": -1, "trial_type": "single-stim", "stimulus": "<p id=\"stim\">6</p>", "internal_node_id": "0.0-60.0-4.0", "time_elapsed": 524925, "key_press": -1, "trial_index": 82}, "uniqueid": "MTK3675:34FNN24DCNG0863YECGP5IAG3X65YL", "dateTime": 1520955495226}, {"current_trial": 83, "trialdata": {"rt": -1, "trial_type": "single-stim", "stimulus": "<p id=\"stim\">5</p>", "internal_node_id": "0.0-60.0-5.0", "time_elapsed": 525926, "key_press": -1, "trial_index": 83}, "uniqueid": "MTK3675:34FNN24DCNG0863YECGP5IAG3X65YL", "dateTime": 1520955496229}, {"current_trial": 84, "trialdata": {"rt": -1, "trial_type": "single-stim", "stimulus": "<p id=\"stim\">4</p>", "internal_node_id": "0.0-60.0-6.0", "time_elapsed": 526930, "key_press": -1, "trial_index": 84}, "uniqueid": "MTK3675:34FNN24DCNG0863YECGP5IAG3X65YL", "dateTime": 1520955497231}, {"current_trial": 85, "trialdata": {"rt": -1, "trial_type": "single-stim", "stimulus": "<p id=\"stim\">3</p>", "internal_node_id": "0.0-60.0-7.0", "time_elapsed": 527935, "key_press": -1, "trial_index": 85}, "uniqueid": "MTK3675:34FNN24DCNG0863YECGP5IAG3X65YL", "dateTime": 1520955498236}, {"current_trial": 86, "trialdata": {"rt": -1, "trial_type": "single-stim", "stimulus": "<p id=\"stim\">2</p>", "internal_node_id": "0.0-60.0-8.0", "time_elapsed": 528937, "key_press": -1, "trial_index": 86}, "uniqueid": "MTK3675:34FNN24DCNG0863YECGP5IAG3X65YL", "dateTime": 1520955499238}, {"current_trial": 87, "trialdata": {"rt": -1, "trial_type": "single-stim", "stimulus": "<p id=\"stim\">1</p>", "internal_node_id": "0.0-60.0-9.0", "time_elapsed": 529941, "key_press": -1, "trial_index": 87}, "uniqueid": "MTK3675:34FNN24DCNG0863YECGP5IAG3X65YL", "dateTime": 1520955500242}, {"current_trial": 88, "trialdata": {"rt": -1, "trial_type": "single-stim", "stimulus": "<p id=\"stim\">+</p>", "internal_node_id": "0.0-61.0-0.0", "time_elapsed": 531444, "key_press": -1, "type": "FIXATION", "trial_index": 88}, "uniqueid": "MTK3675:34FNN24DCNG0863YECGP5IAG3X65YL", "dateTime": 1520955501747}, {"current_trial": 89, "trialdata": {"rt": -1000, "trial_type": "single-audio", "word": "diner", "stimulus": "/static/audio/wordpool/DINER.wav", "conditions": [12, 1600, "a", 12000], "internal_node_id": "0.0-62.0", "trial": 2, "time_elapsed": 533916, "serialpos": 0, "key_press": -1, "wordID": 466, "type": "PRES_AUD", "trial_index": 89}, "uniqueid": "MTK3675:34FNN24DCNG0863YECGP5IAG3X65YL", "dateTime": 1520955504218}, {"current_trial": 90, "trialdata": {"rt": -1000, "trial_type": "single-audio", "word": "waitress", "stimulus": "/static/audio/wordpool/WAITRESS.wav", "conditions": [12, 1600, "a", 12000], "internal_node_id": "0.0-63.0", "trial": 2, "time_elapsed": 536559, "serialpos": 1, "key_press": -1, "wordID": 1580, "type": "PRES_AUD", "trial_index": 90}, "uniqueid": "MTK3675:34FNN24DCNG0863YECGP5IAG3X65YL", "dateTime": 1520955506860}, {"current_trial": 91, "trialdata": {"rt": -1000, "trial_type": "single-audio", "word": "costume", "stimulus": "/static/audio/wordpool/COSTUME.wav", "conditions": [12, 1600, "a", 12000], "internal_node_id": "0.0-64.0", "trial": 2, "time_elapsed": 539295, "serialpos": 2, "key_press": -1, "wordID": 382, "type": "PRES_AUD", "trial_index": 91}, "uniqueid": "MTK3675:34FNN24DCNG0863YECGP5IAG3X65YL", "dateTime": 1520955509596}, {"current_trial": 92, "trialdata": {"rt": -1000, "trial_type": "single-audio", "word": "trout", "stimulus": "/static/audio/wordpool/TROUT.wav", "conditions": [12, 1600, "a", 12000], "internal_node_id": "0.0-65.0", "trial": 2, "time_elapsed": 542055, "serialpos": 3, "key_press": -1, "wordID": 1510, "type": "PRES_AUD", "trial_index": 92}, "uniqueid": "MTK3675:34FNN24DCNG0863YECGP5IAG3X65YL", "dateTime": 1520955512356}, {"current_trial": 93, "trialdata": {"rt": -1000, "trial_type": "single-audio", "word": "cod", "stimulus": "/static/audio/wordpool/COD.wav", "conditions": [12, 1600, "a", 12000], "internal_node_id": "0.0-66.0", "trial": 2, "time_elapsed": 544551, "serialpos": 4, "key_press": -1, "wordID": 339, "type": "PRES_AUD", "trial_index": 93}, "uniqueid": "MTK3675:34FNN24DCNG0863YECGP5IAG3X65YL", "dateTime": 1520955514852}, {"current_trial": 94, "trialdata": {"rt": -1000, "trial_type": "single-audio", "word": "nurse", "stimulus": "/static/audio/wordpool/NURSE.wav", "conditions": [12, 1600, "a", 12000], "internal_node_id": "0.0-67.0", "trial": 2, "time_elapsed": 547227, "serialpos": 5, "key_press": -1, "wordID": 962, "type": "PRES_AUD", "trial_index": 94}, "uniqueid": "MTK3675:34FNN24DCNG0863YECGP5IAG3X65YL", "dateTime": 1520955517528}, {"current_trial": 95, "trialdata": {"rt": -1000, "trial_type": "single-audio", "word": "wife", "stimulus": "/static/audio/wordpool/WIFE.wav", "conditions": [12, 1600, "a", 12000], "internal_node_id": "0.0-68.0", "trial": 2, "time_elapsed": 549760, "serialpos": 6, "key_press": -1, "wordID": 1608, "type": "PRES_AUD", "trial_index": 95}, "uniqueid": "MTK3675:34FNN24DCNG0863YECGP5IAG3X65YL", "dateTime": 1520955520061}, {"current_trial": 96, "trialdata": {"rt": -1000, "trial_type": "single-audio", "word": "banker", "stimulus": "/static/audio/wordpool/BANKER.wav", "conditions": [12, 1600, "a", 12000], "internal_node_id": "0.0-69.0", "trial": 2, "time_elapsed": 552360, "serialpos": 7, "key_press": -1, "wordID": 83, "type": "PRES_AUD", "trial_index": 96}, "uniqueid": "MTK3675:34FNN24DCNG0863YECGP5IAG3X65YL", "dateTime": 1520955522663}, {"current_trial": 97, "trialdata": {"rt": -1000, "trial_type": "single-audio", "word": "bubble", "stimulus": "/static/audio/wordpool/BUBBLE.wav", "conditions": [12, 1600, "a", 12000], "internal_node_id": "0.0-70.0", "trial": 2, "time_elapsed": 554920, "serialpos": 8, "key_press": -1, "wordID": 182, "type": "PRES_AUD", "trial_index": 97}, "uniqueid": "MTK3675:34FNN24DCNG0863YECGP5IAG3X65YL", "dateTime": 1520955525221}, {"current_trial": 98, "trialdata": {"rt": -1000, "trial_type": "single-audio", "word": "daisy", "stimulus": "/static/audio/wordpool/DAISY.wav", "conditions": [12, 1600, "a", 12000], "internal_node_id": "0.0-71.0", "trial": 2, "time_elapsed": 557498, "serialpos": 9, "key_press": -1, "wordID": 434, "type": "PRES_AUD", "trial_index": 98}, "uniqueid": "MTK3675:34FNN24DCNG0863YECGP5IAG3X65YL", "dateTime": 1520955527799}, {"current_trial": 99, "trialdata": {"rt": -1000, "trial_type": "single-audio", "word": "spouse", "stimulus": "/static/audio/wordpool/SPOUSE.wav", "conditions": [12, 1600, "a", 12000], "internal_node_id": "0.0-72.0", "trial": 2, "time_elapsed": 560022, "serialpos": 10, "key_press": -1, "wordID": 1357, "type": "PRES_AUD", "trial_index": 99}, "uniqueid": "MTK3675:34FNN24DCNG0863YECGP5IAG3X65YL", "dateTime": 1520955530324}, {"current_trial": 100, "trialdata": {"rt": -1000, "trial_type": "single-audio", "word": "barley", "stimulus": "/static/audio/wordpool/BARLEY.wav", "conditions": [12, 1600, "a", 12000], "internal_node_id": "0.0-73.0", "trial": 2, "time_elapsed": 562647, "serialpos": 11, "key_press": -1, "wordID": 87, "type": "PRES_AUD", "trial_index": 100}, "uniqueid": "MTK3675:34FNN24DCNG0863YECGP5IAG3X65YL", "dateTime": 1520955532948}, {"current_trial": 101, "trialdata": {"rt": -1, "trial_type": "single-stim", "stimulus": "", "internal_node_id": "0.0-74.0-0.0", "time_elapsed": 564001, "key_press": -1, "type": "PRE_RECALL_DELAY", "trial_index": 101}, "uniqueid": "MTK3675:34FNN24DCNG0863YECGP5IAG3X65YL", "dateTime": 1520955534302}, {"current_trial": 102, "trialdata": {"rt": -1000, "trial_type": "single-audio", "stimulus": "/static/audio/400Hz.wav", "internal_node_id": "0.0-75.0", "time_elapsed": 564515, "key_press": -1, "type": "PRE_RECALL_ALERT", "trial_index": 102}, "uniqueid": "MTK3675:34FNN24DCNG0863YECGP5IAG3X65YL", "dateTime": 1520955534818}, {"current_trial": 103, "trialdata": {"rt": [2988, 6124, 11385, 13361, 17651, 21271, 25806, 33400, 40269], "recwords": ["diner", "waitress", "banker", "wife", "spouse", "trout", "flower", "bubble", "costume"], "key_times": [1500, 1627, 1947, 2452, 2656, 2988, 3732, 3996, 4296, 4501, 4861, 5218, 5538, 5742, 6124, 9477, 9838, 10099, 10297, 10540, 10737, 11385, 11957, 12126, 12313, 12590, 13361, 13792, 14021, 14312, 16506, 17026, 17238, 17651, 19887, 20102, 20300, 20569, 20758, 21271, 23870, 24038, 24257, 25019, 25238, 25481, 25806, 29793, 30038, 30320, 30956, 31127, 31342, 33400, 38624, 38889, 39203, 39490, 39680, 39932, 40069, 40269], "trial_type": "free-recall", "conditions": [12, 1600, "a", 12000], "internal_node_id": "0.0-76.0-0.0", "key_presses": [68, 73, 78, 69, 82, 13, 87, 65, 73, 84, 82, 69, 83, 83, 13, 66, 65, 78, 75, 69, 82, 13, 87, 73, 70, 69, 13, 83, 80, 79, 85, 83, 69, 13, 84, 82, 79, 85, 84, 13, 70, 76, 79, 87, 69, 82, 13, 66, 85, 66, 66, 76, 69, 13, 67, 79, 83, 84, 85, 77, 69, 13], "trial": 2, "time_elapsed": 624531, "type": "FREE_RECALL", "trial_index": 103}, "uniqueid": "MTK3675:34FNN24DCNG0863YECGP5IAG3X65YL", "dateTime": 1520955594838}, {"current_trial": 104, "trialdata": {"rt": 2009, "trial_type": "text", "internal_node_id": "0.0-77.0", "time_elapsed": 628551, "key_press": 13, "type": "INSTRUCTIONS", "trial_index": 104}, "uniqueid": "MTK3675:34FNN24DCNG0863YECGP5IAG3X65YL", "dateTime": 1520955598853}, {"current_trial": 105, "trialdata": {"rt": [2125, 4933, 7133], "trial_type": "math-distractor", "key_times": [1599, 1845, 2125, 3831, 4585, 4933, 6389, 6900, 7133, 11670], "responses": ["12", "17", "15"], "num2": [5, 5, 7, 9], "num3": [5, 5, 7, 3], "conditions": [24, 800, "a", 12000], "internal_node_id": "0.0-78.0", "key_presses": [49, 50, 13, 49, 55, 13, 49, 53, 13, 50], "trial": 3, "time_elapsed": 642560, "type": "DISTRACTOR", "trial_index": 105, "num1": [2, 7, 1, 8]}, "uniqueid": "MTK3675:34FNN24DCNG0863YECGP5IAG3X65YL", "dateTime": 1520955612861}, {"current_trial": 106, "trialdata": {"rt": -1, "trial_type": "single-stim", "stimulus": "<p id=\"stim\">10</p>", "internal_node_id": "0.0-79.0-0.0", "time_elapsed": 645563, "key_press": -1, "trial_index": 106}, "uniqueid": "MTK3675:34FNN24DCNG0863YECGP5IAG3X65YL", "dateTime": 1520955615864}, {"current_trial": 107, "trialdata": {"rt": -1, "trial_type": "single-stim", "stimulus": "<p id=\"stim\">9</p>", "internal_node_id": "0.0-79.0-1.0", "time_elapsed": 646566, "key_press": -1, "trial_index": 107}, "uniqueid": "MTK3675:34FNN24DCNG0863YECGP5IAG3X65YL", "dateTime": 1520955616867}, {"current_trial": 108, "trialdata": {"rt": -1, "trial_type": "single-stim", "stimulus": "<p id=\"stim\">8</p>", "internal_node_id": "0.0-79.0-2.0", "time_elapsed": 647570, "key_press": -1, "trial_index": 108}, "uniqueid": "MTK3675:34FNN24DCNG0863YECGP5IAG3X65YL", "dateTime": 1520955617871}, {"current_trial": 109, "trialdata": {"rt": -1, "trial_type": "single-stim", "stimulus": "<p id=\"stim\">7</p>", "internal_node_id": "0.0-79.0-3.0", "time_elapsed": 648571, "key_press": -1, "trial_index": 109}, "uniqueid": "MTK3675:34FNN24DCNG0863YECGP5IAG3X65YL", "dateTime": 1520955618872}, {"current_trial": 110, "trialdata": {"rt": -1, "trial_type": "single-stim", "stimulus": "<p id=\"stim\">6</p>", "internal_node_id": "0.0-79.0-4.0", "time_elapsed": 649576, "key_press": -1, "trial_index": 110}, "uniqueid": "MTK3675:34FNN24DCNG0863YECGP5IAG3X65YL", "dateTime": 1520955619877}, {"current_trial": 111, "trialdata": {"rt": -1, "trial_type": "single-stim", "stimulus": "<p id=\"stim\">5</p>", "internal_node_id": "0.0-79.0-5.0", "time_elapsed": 650579, "key_press": -1, "trial_index": 111}, "uniqueid": "MTK3675:34FNN24DCNG0863YECGP5IAG3X65YL", "dateTime": 1520955620880}, {"current_trial": 112, "trialdata": {"rt": -1, "trial_type": "single-stim", "stimulus": "<p id=\"stim\">4</p>", "internal_node_id": "0.0-79.0-6.0", "time_elapsed": 651583, "key_press": -1, "trial_index": 112}, "uniqueid": "MTK3675:34FNN24DCNG0863YECGP5IAG3X65YL", "dateTime": 1520955621884}, {"current_trial": 113, "trialdata": {"rt": -1, "trial_type": "single-stim", "stimulus": "<p id=\"stim\">3</p>", "internal_node_id": "0.0-79.0-7.0", "time_elapsed": 652586, "key_press": -1, "trial_index": 113}, "uniqueid": "MTK3675:34FNN24DCNG0863YECGP5IAG3X65YL", "dateTime": 1520955622887}, {"current_trial": 114, "trialdata": {"rt": -1, "trial_type": "single-stim", "stimulus": "<p id=\"stim\">2</p>", "internal_node_id": "0.0-79.0-8.0", "time_elapsed": 653591, "key_press": -1, "trial_index": 114}, "uniqueid": "MTK3675:34FNN24DCNG0863YECGP5IAG3X65YL", "dateTime": 1520955623892}, {"current_trial": 115, "trialdata": {"rt": -1, "trial_type": "single-stim", "stimulus": "<p id=\"stim\">1</p>", "internal_node_id": "0.0-79.0-9.0", "time_elapsed": 654595, "key_press": -1, "trial_index": 115}, "uniqueid": "MTK3675:34FNN24DCNG0863YECGP5IAG3X65YL", "dateTime": 1520955624896}, {"current_trial": 116, "trialdata": {"rt": -1, "trial_type": "single-stim", "stimulus": "<p id=\"stim\">+</p>", "internal_node_id": "0.0-80.0-0.0", "time_elapsed": 656101, "key_press": -1, "type": "FIXATION", "trial_index": 116}, "uniqueid": "MTK3675:34FNN24DCNG0863YECGP5IAG3X65YL", "dateTime": 1520955626402}, {"current_trial": 117, "trialdata": {"rt": -1000, "trial_type": "single-audio", "word": "uncle", "stimulus": "/static/audio/wordpool/UNCLE.wav", "conditions": [24, 800, "a", 12000], "internal_node_id": "0.0-81.0", "trial": 3, "time_elapsed": 658083, "serialpos": 0, "key_press": -1, "wordID": 1535, "type": "PRES_AUD", "trial_index": 117}, "uniqueid": "MTK3675:34FNN24DCNG0863YECGP5IAG3X65YL", "dateTime": 1520955628384}, {"current_trial": 118, "trialdata": {"rt": -1000, "trial_type": "single-audio", "word": "knapsack", "stimulus": "/static/audio/wordpool/KNAPSACK.wav", "conditions": [24, 800, "a", 12000], "internal_node_id": "0.0-82.0", "trial": 3, "time_elapsed": 659986, "serialpos": 1, "key_press": -1, "wordID": 782, "type": "PRES_AUD", "trial_index": 118}, "uniqueid": "MTK3675:34FNN24DCNG0863YECGP5IAG3X65YL", "dateTime": 1520955630288}, {"current_trial": 119, "trialdata": {"rt": -1000, "trial_type": "single-audio", "word": "shrub", "stimulus": "/static/audio/wordpool/SHRUB.wav", "conditions": [24, 800, "a", 12000], "internal_node_id": "0.0-83.0", "trial": 3, "time_elapsed": 661873, "serialpos": 2, "key_press": -1, "wordID": 1298, "type": "PRES_AUD", "trial_index": 119}, "uniqueid": "MTK3675:34FNN24DCNG0863YECGP5IAG3X65YL", "dateTime": 1520955632174}, {"current_trial": 120, "trialdata": {"rt": -1000, "trial_type": "single-audio", "word": "infant", "stimulus": "/static/audio/wordpool/INFANT.wav", "conditions": [24, 800, "a", 12000], "internal_node_id": "0.0-84.0", "trial": 3, "time_elapsed": 663641, "serialpos": 3, "key_press": -1, "wordID": 736, "type": "PRES_AUD", "trial_index": 120}, "uniqueid": "MTK3675:34FNN24DCNG0863YECGP5IAG3X65YL", "dateTime": 1520955633942}, {"current_trial": 121, "trialdata": {"rt": -1000, "trial_type": "single-audio", "word": "crib", "stimulus": "/static/audio/wordpool/CRIB.wav", "conditions": [24, 800, "a", 12000], "internal_node_id": "0.0-85.0", "trial": 3, "time_elapsed": 665366, "serialpos": 4, "key_press": -1, "wordID": 406, "type": "PRES_AUD", "trial_index": 121}, "uniqueid": "MTK3675:34FNN24DCNG0863YECGP5IAG3X65YL", "dateTime": 1520955635667}, {"current_trial": 122, "trialdata": {"rt": -1000, "trial_type": "single-audio", "word": "sculpture", "stimulus": "/static/audio/wordpool/SCULPTURE.wav", "conditions": [24, 800, "a", 12000], "internal_node_id": "0.0-86.0", "trial": 3, "time_elapsed": 667242, "serialpos": 5, "key_press": -1, "wordID": 1257, "type": "PRES_AUD", "trial_index": 122}, "uniqueid": "MTK3675:34FNN24DCNG0863YECGP5IAG3X65YL", "dateTime": 1520955637543}, {"current_trial": 123, "trialdata": {"rt": -1000, "trial_type": "single-audio", "word": "sphinx", "stimulus": "/static/audio/wordpool/SPHINX.wav", "conditions": [24, 800, "a", 12000], "internal_node_id": "0.0-87.0", "trial": 3, "time_elapsed": 669111, "serialpos": 6, "key_press": -1, "wordID": 1348, "type": "PRES_AUD", "trial_index": 123}, "uniqueid": "MTK3675:34FNN24DCNG0863YECGP5IAG3X65YL", "dateTime": 1520955639412}, {"current_trial": 124, "trialdata": {"rt": -1000, "trial_type": "single-audio", "word": "suspect", "stimulus": "/static/audio/wordpool/SUSPECT.wav", "conditions": [24, 800, "a", 12000], "internal_node_id": "0.0-88.0", "trial": 3, "time_elapsed": 670789, "serialpos": 7, "key_press": -1, "wordID": 1414, "type": "PRES_AUD", "trial_index": 124}, "uniqueid": "MTK3675:34FNN24DCNG0863YECGP5IAG3X65YL", "dateTime": 1520955641090}, {"current_trial": 125, "trialdata": {"rt": -1000, "trial_type": "single-audio", "word": "breast", "stimulus": "/static/audio/wordpool/BREAST.wav", "conditions": [24, 800, "a", 12000], "internal_node_id": "0.0-89.0", "trial": 3, "time_elapsed": 672461, "serialpos": 8, "key_press": -1, "wordID": 170, "type": "PRES_AUD", "trial_index": 125}, "uniqueid": "MTK3675:34FNN24DCNG0863YECGP5IAG3X65YL", "dateTime": 1520955642763}, {"current_trial": 126, "trialdata": {"rt": -1000, "trial_type": "single-audio", "word": "cousin", "stimulus": "/static/audio/wordpool/COUSIN.wav", "conditions": [24, 800, "a", 12000], "internal_node_id": "0.0-90.0", "trial": 3, "time_elapsed": 674344, "serialpos": 9, "key_press": -1, "wordID": 391, "type": "PRES_AUD", "trial_index": 126}, "uniqueid": "MTK3675:34FNN24DCNG0863YECGP5IAG3X65YL", "dateTime": 1520955644645}, {"current_trial": 127, "trialdata": {"rt": -1000, "trial_type": "single-audio", "word": "elbow", "stimulus": "/static/audio/wordpool/ELBOW.wav", "conditions": [24, 800, "a", 12000], "internal_node_id": "0.0-91.0", "trial": 3, "time_elapsed": 676173, "serialpos": 10, "key_press": -1, "wordID": 519, "type": "PRES_AUD", "trial_index": 127}, "uniqueid": "MTK3675:34FNN24DCNG0863YECGP5IAG3X65YL", "dateTime": 1520955646474}, {"current_trial": 128, "trialdata": {"rt": -1000, "trial_type": "single-audio", "word": "marrow", "stimulus": "/static/audio/wordpool/MARROW.wav", "conditions": [24, 800, "a", 12000], "internal_node_id": "0.0-92.0", "trial": 3, "time_elapsed": 677846, "serialpos": 11, "key_press": -1, "wordID": 871, "type": "PRES_AUD", "trial_index": 128}, "uniqueid": "MTK3675:34FNN24DCNG0863YECGP5IAG3X65YL", "dateTime": 1520955648147}, {"current_trial": 129, "trialdata": {"rt": -1000, "trial_type": "single-audio", "word": "award", "stimulus": "/static/audio/wordpool/AWARD.wav", "conditions": [24, 800, "a", 12000], "internal_node_id": "0.0-93.0", "trial": 3, "time_elapsed": 679771, "serialpos": 12, "key_press": -1, "wordID": 62, "type": "PRES_AUD", "trial_index": 129}, "uniqueid": "MTK3675:34FNN24DCNG0863YECGP5IAG3X65YL", "dateTime": 1520955650072}, {"current_trial": 130, "trialdata": {"rt": -1000, "trial_type": "single-audio", "word": "orchid", "stimulus": "/static/audio/wordpool/ORCHID.wav", "conditions": [24, 800, "a", 12000], "internal_node_id": "0.0-94.0", "trial": 3, "time_elapsed": 681517, "serialpos": 13, "key_press": -1, "wordID": 981, "type": "PRES_AUD", "trial_index": 130}, "uniqueid": "MTK3675:34FNN24DCNG0863YECGP5IAG3X65YL", "dateTime": 1520955651818}, {"current_trial": 131, "trialdata": {"rt": -1000, "trial_type": "single-audio", "word": "chapel", "stimulus": "/static/audio/wordpool/CHAPEL.wav", "conditions": [24, 800, "a", 12000], "internal_node_id": "0.0-95.0", "trial": 3, "time_elapsed": 683321, "serialpos": 14, "key_press": -1, "wordID": 279, "type": "PRES_AUD", "trial_index": 131}, "uniqueid": "MTK3675:34FNN24DCNG0863YECGP5IAG3X65YL", "dateTime": 1520955653623}, {"current_trial": 132, "trialdata": {"rt": -1000, "trial_type": "single-audio", "word": "church", "stimulus": "/static/audio/wordpool/CHURCH.wav", "conditions": [24, 800, "a", 12000], "internal_node_id": "0.0-96.0", "trial": 3, "time_elapsed": 685117, "serialpos": 15, "key_press": -1, "wordID": 306, "type": "PRES_AUD", "trial_index": 132}, "uniqueid": "MTK3675:34FNN24DCNG0863YECGP5IAG3X65YL", "dateTime": 1520955655418}, {"current_trial": 133, "trialdata": {"rt": -1000, "trial_type": "single-audio", "word": "airport", "stimulus": "/static/audio/wordpool/AIRPORT.wav", "conditions": [24, 800, "a", 12000], "internal_node_id": "0.0-97.0", "trial": 3, "time_elapsed": 686728, "serialpos": 16, "key_press": -1, "wordID": 12, "type": "PRES_AUD", "trial_index": 133}, "uniqueid": "MTK3675:34FNN24DCNG0863YECGP5IAG3X65YL", "dateTime": 1520955657029}, {"current_trial": 134, "trialdata": {"rt": -1000, "trial_type": "single-audio", "word": "egypt", "stimulus": "/static/audio/wordpool/EGYPT.wav", "conditions": [24, 800, "a", 12000], "internal_node_id": "0.0-98.0", "trial": 3, "time_elapsed": 688548, "serialpos": 17, "key_press": -1, "wordID": 518, "type": "PRES_AUD", "trial_index": 134}, "uniqueid": "MTK3675:34FNN24DCNG0863YECGP5IAG3X65YL", "dateTime": 1520955658849}, {"current_trial": 135, "trialdata": {"rt": -1000, "trial_type": "single-audio", "word": "garden", "stimulus": "/static/audio/wordpool/GARDEN.wav", "conditions": [24, 800, "a", 12000], "internal_node_id": "0.0-99.0", "trial": 3, "time_elapsed": 690398, "serialpos": 18, "key_press": -1, "wordID": 622, "type": "PRES_AUD", "trial_index": 135}, "uniqueid": "MTK3675:34FNN24DCNG0863YECGP5IAG3X65YL", "dateTime": 1520955660701}, {"current_trial": 136, "trialdata": {"rt": -1000, "trial_type": "single-audio", "word": "tortoise", "stimulus": "/static/audio/wordpool/TORTOISE.wav", "conditions": [24, 800, "a", 12000], "internal_node_id": "0.0-100.0", "trial": 3, "time_elapsed": 692249, "serialpos": 19, "key_press": -1, "wordID": 1485, "type": "PRES_AUD", "trial_index": 136}, "uniqueid": "MTK3675:34FNN24DCNG0863YECGP5IAG3X65YL", "dateTime": 1520955662551}, {"current_trial": 137, "trialdata": {"rt": -1000, "trial_type": "single-audio", "word": "flower", "stimulus": "/static/audio/wordpool/FLOWER.wav", "conditions": [24, 800, "a", 12000], "internal_node_id": "0.0-101.0", "trial": 3, "time_elapsed": 693972, "serialpos": 20, "key_press": -1, "wordID": 583, "type": "PRES_AUD", "trial_index": 137}, "uniqueid": "MTK3675:34FNN24DCNG0863YECGP5IAG3X65YL", "dateTime": 1520955664273}, {"current_trial": 138, "trialdata": {"rt": -1000, "trial_type": "single-audio", "word": "palace", "stimulus": "/static/audio/wordpool/PALACE.wav", "conditions": [24, 800, "a", 12000], "internal_node_id": "0.0-102.0", "trial": 3, "time_elapsed": 695600, "serialpos": 21, "key_press": -1, "wordID": 1005, "type": "PRES_AUD", "trial_index": 138}, "uniqueid": "MTK3675:34FNN24DCNG0863YECGP5IAG3X65YL", "dateTime": 1520955665901}, {"current_trial": 139, "trialdata": {"rt": -1000, "trial_type": "single-audio", "word": "carriage", "stimulus": "/static/audio/wordpool/CARRIAGE.wav", "conditions": [24, 800, "a", 12000], "internal_node_id": "0.0-103.0", "trial": 3, "time_elapsed": 697426, "serialpos": 22, "key_press": -1, "wordID": 247, "type": "PRES_AUD", "trial_index": 139}, "uniqueid": "MTK3675:34FNN24DCNG0863YECGP5IAG3X65YL", "dateTime": 1520955667727}, {"current_trial": 140, "trialdata": {"rt": -1000, "trial_type": "single-audio", "word": "playground", "stimulus": "/static/audio/wordpool/PLAYGROUND.wav", "conditions": [24, 800, "a", 12000], "internal_node_id": "0.0-104.0", "trial": 3, "time_elapsed": 699280, "serialpos": 23, "key_press": -1, "wordID": 1086, "type": "PRES_AUD", "trial_index": 140}, "uniqueid": "MTK3675:34FNN24DCNG0863YECGP5IAG3X65YL", "dateTime": 1520955669582}, {"current_trial": 141, "trialdata": {"rt": -1, "trial_type": "single-stim", "stimulus": "", "internal_node_id": "0.0-105.0-0.0", "time_elapsed": 700710, "key_press": -1, "type": "PRE_RECALL_DELAY", "trial_index": 141}, "uniqueid": "MTK3675:34FNN24DCNG0863YECGP5IAG3X65YL", "dateTime": 1520955671011}, {"current_trial": 142, "trialdata": {"rt": -1000, "trial_type": "single-audio", "stimulus": "/static/audio/400Hz.wav", "internal_node_id": "0.0-106.0", "time_elapsed": 701213, "key_press": -1, "type": "PRE_RECALL_ALERT", "trial_index": 142}, "uniqueid": "MTK3675:34FNN24DCNG0863YECGP5IAG3X65YL", "dateTime": 1520955671515}, {"current_trial": 143, "trialdata": {"rt": [5092, 7967, 10275, 13955, 17213, 19522, 23274, 25606, 31155, 35625, 43422, 46630, 50810, 54621], "recwords": ["playground", "chapel", "church", "uncle", "baby", "crib", "knapsack", "shrug", "breast", "cousin", "egypt", "spinx", "palace", "playground"], "key_times": [694, 926, 1316, 1775, 2589, 2827, 3447, 4265, 4531, 4717, 5092, 6417, 6601, 6754, 6966, 7178, 7329, 7967, 8663, 8780, 9029, 9240, 9813, 9975, 10275, 12156, 12657, 13136, 13295, 13464, 13955, 16010, 16273, 16483, 16834, 17213, 18017, 18303, 18518, 18784, 19522, 20257, 20474, 21117, 21305, 21812, 22394, 22728, 22904, 23274, 23678, 24064, 24381, 24637, 25128, 25606, 27161, 27445, 27647, 27923, 28427, 28602, 28906, 29742, 29943, 30183, 30485, 30745, 31155, 34120, 34284, 34431, 34983, 35097, 35317, 35625, 40423, 40707, 41142, 41982, 42488, 42826, 43051, 43422, 44911, 45307, 45656, 45919, 46274, 46630, 49233, 49440, 49624, 49841, 50295, 50558, 50810, 51475, 51785, 51943, 52159, 52739, 53028, 53260, 53501, 54027, 54249, 54621], "trial_type": "free-recall", "conditions": [24, 800, "a", 12000], "internal_node_id": "0.0-107.0-0.0", "key_presses": [80, 76, 65, 89, 71, 82, 79, 85, 78, 68, 32, 67, 72, 65, 80, 69, 76, 13, 67, 72, 85, 82, 67, 72, 13, 85, 78, 67, 76, 69, 13, 66, 65, 66, 89, 32, 67, 82, 73, 66, 13, 75, 78, 65, 80, 83, 65, 67, 75, 13, 83, 72, 82, 85, 71, 13, 66, 82, 69, 65, 8, 83, 84, 8, 8, 65, 83, 84, 13, 67, 79, 85, 83, 73, 78, 13, 69, 71, 89, 84, 8, 80, 84, 13, 83, 80, 73, 78, 88, 13, 80, 65, 76, 65, 67, 69, 13, 80, 76, 65, 89, 71, 82, 79, 85, 78, 68, 13], "trial": 3, "time_elapsed": 761222, "type": "FREE_RECALL", "trial_index": 143}, "uniqueid": "MTK3675:34FNN24DCNG0863YECGP5IAG3X65YL", "dateTime": 1520955731532}, {"current_trial": 144, "trialdata": {"rt": 2015, "trial_type": "text", "internal_node_id": "0.0-108.0", "time_elapsed": 765248, "key_press": 13, "type": "INSTRUCTIONS", "trial_index": 144}, "uniqueid": "MTK3675:34FNN24DCNG0863YECGP5IAG3X65YL", "dateTime": 1520955735549}, {"current_trial": 145, "trialdata": {"rt": [5495, 9974, 17320, 20518], "trial_type": "math-distractor", "key_times": [3343, 3469, 4087, 5193, 5495, 8440, 9419, 9974, 16308, 16835, 17320, 19430, 19952, 20518, 22532, 23591], "responses": ["22", "16", "20", "10"], "num2": [5, 8, 3, 7, 3], "num3": [9, 6, 9, 2, 7], "conditions": [24, 1600, "a", 24000], "internal_node_id": "0.0-109.0", "key_presses": [50, 50, 220, 8, 13, 49, 54, 13, 50, 48, 13, 49, 48, 13, 49, 55], "trial": 4, "time_elapsed": 791258, "type": "DISTRACTOR", "trial_index": 145, "num1": [9, 2, 8, 1, 7]}, "uniqueid": "MTK3675:34FNN24DCNG0863YECGP5IAG3X65YL", "dateTime": 1520955761560}, {"current_trial": 146, "trialdata": {"rt": -1, "trial_type": "single-stim", "stimulus": "<p id=\"stim\">10</p>", "internal_node_id": "0.0-110.0-0.0", "time_elapsed": 794264, "key_press": -1, "trial_index": 146}, "uniqueid": "MTK3675:34FNN24DCNG0863YECGP5IAG3X65YL", "dateTime": 1520955764566}, {"current_trial": 147, "trialdata": {"rt": -1, "trial_type": "single-stim", "stimulus": "<p id=\"stim\">9</p>", "internal_node_id": "0.0-110.0-1.0", "time_elapsed": 795269, "key_press": -1, "trial_index": 147}, "uniqueid": "MTK3675:34FNN24DCNG0863YECGP5IAG3X65YL", "dateTime": 1520955765570}, {"current_trial": 148, "trialdata": {"rt": -1, "trial_type": "single-stim", "stimulus": "<p id=\"stim\">8</p>", "internal_node_id": "0.0-110.0-2.0", "time_elapsed": 796285, "key_press": -1, "trial_index": 148}, "uniqueid": "MTK3675:34FNN24DCNG0863YECGP5IAG3X65YL", "dateTime": 1520955766586}, {"current_trial": 149, "trialdata": {"rt": -1, "trial_type": "single-stim", "stimulus": "<p id=\"stim\">7</p>", "internal_node_id": "0.0-110.0-3.0", "time_elapsed": 797312, "key_press": -1, "trial_index": 149}, "uniqueid": "MTK3675:34FNN24DCNG0863YECGP5IAG3X65YL", "dateTime": 1520955767614}, {"current_trial": 150, "trialdata": {"rt": -1, "trial_type": "single-stim", "stimulus": "<p id=\"stim\">6</p>", "internal_node_id": "0.0-110.0-4.0", "time_elapsed": 798321, "key_press": -1, "trial_index": 150}, "uniqueid": "MTK3675:34FNN24DCNG0863YECGP5IAG3X65YL", "dateTime": 1520955768624}, {"current_trial": 151, "trialdata": {"rt": -1, "trial_type": "single-stim", "stimulus": "<p id=\"stim\">5</p>", "internal_node_id": "0.0-110.0-5.0", "time_elapsed": 799327, "key_press": -1, "trial_index": 151}, "uniqueid": "MTK3675:34FNN24DCNG0863YECGP5IAG3X65YL", "dateTime": 1520955769629}, {"current_trial": 152, "trialdata": {"rt": -1, "trial_type": "single-stim", "stimulus": "<p id=\"stim\">4</p>", "internal_node_id": "0.0-110.0-6.0", "time_elapsed": 800343, "key_press": -1, "trial_index": 152}, "uniqueid": "MTK3675:34FNN24DCNG0863YECGP5IAG3X65YL", "dateTime": 1520955770645}, {"current_trial": 153, "trialdata": {"rt": -1, "trial_type": "single-stim", "stimulus": "<p id=\"stim\">3</p>", "internal_node_id": "0.0-110.0-7.0", "time_elapsed": 801358, "key_press": -1, "trial_index": 153}, "uniqueid": "MTK3675:34FNN24DCNG0863YECGP5IAG3X65YL", "dateTime": 1520955771660}, {"current_trial": 154, "trialdata": {"rt": -1, "trial_type": "single-stim", "stimulus": "<p id=\"stim\">2</p>", "internal_node_id": "0.0-110.0-8.0", "time_elapsed": 802364, "key_press": -1, "trial_index": 154}, "uniqueid": "MTK3675:34FNN24DCNG0863YECGP5IAG3X65YL", "dateTime": 1520955772665}, {"current_trial": 155, "trialdata": {"rt": -1, "trial_type": "single-stim", "stimulus": "<p id=\"stim\">1</p>", "internal_node_id": "0.0-110.0-9.0", "time_elapsed": 803368, "key_press": -1, "trial_index": 155}, "uniqueid": "MTK3675:34FNN24DCNG0863YECGP5IAG3X65YL", "dateTime": 1520955773669}, {"current_trial": 156, "trialdata": {"rt": -1, "trial_type": "single-stim", "stimulus": "<p id=\"stim\">+</p>", "internal_node_id": "0.0-111.0-0.0", "time_elapsed": 804870, "key_press": -1, "type": "FIXATION", "trial_index": 156}, "uniqueid": "MTK3675:34FNN24DCNG0863YECGP5IAG3X65YL", "dateTime": 1520955775172}, {"current_trial": 157, "trialdata": {"rt": -1000, "trial_type": "single-audio", "word": "student", "stimulus": "/static/audio/wordpool/STUDENT.wav", "conditions": [24, 1600, "a", 24000], "internal_node_id": "0.0-112.0", "trial": 4, "time_elapsed": 807420, "serialpos": 0, "key_press": -1, "wordID": 1394, "type": "PRES_AUD", "trial_index": 157}, "uniqueid": "MTK3675:34FNN24DCNG0863YECGP5IAG3X65YL", "dateTime": 1520955777721}, {"current_trial": 158, "trialdata": {"rt": -1000, "trial_type": "single-audio", "word": "popcorn", "stimulus": "/static/audio/wordpool/POPCORN.wav", "conditions": [24, 1600, "a", 24000], "internal_node_id": "0.0-113.0", "trial": 4, "time_elapsed": 810180, "serialpos": 1, "key_press": -1, "wordID": 1103, "type": "PRES_AUD", "trial_index": 158}, "uniqueid": "MTK3675:34FNN24DCNG0863YECGP5IAG3X65YL", "dateTime": 1520955780483}, {"current_trial": 159, "trialdata": {"rt": -1000, "trial_type": "single-audio", "word": "cottage", "stimulus": "/static/audio/wordpool/COTTAGE.wav", "conditions": [24, 1600, "a", 24000], "internal_node_id": "0.0-114.0", "trial": 4, "time_elapsed": 812638, "serialpos": 2, "key_press": -1, "wordID": 383, "type": "PRES_AUD", "trial_index": 159}, "uniqueid": "MTK3675:34FNN24DCNG0863YECGP5IAG3X65YL", "dateTime": 1520955782939}, {"current_trial": 160, "trialdata": {"rt": -1000, "trial_type": "single-audio", "word": "banjo", "stimulus": "/static/audio/wordpool/BANJO.wav", "conditions": [24, 1600, "a", 24000], "internal_node_id": "0.0-115.0", "trial": 4, "time_elapsed": 815074, "serialpos": 3, "key_press": -1, "wordID": 81, "type": "PRES_AUD", "trial_index": 160}, "uniqueid": "MTK3675:34FNN24DCNG0863YECGP5IAG3X65YL", "dateTime": 1520955785375}, {"current_trial": 161, "trialdata": {"rt": -1000, "trial_type": "single-audio", "word": "rattle", "stimulus": "/static/audio/wordpool/RATTLE.wav", "conditions": [24, 1600, "a", 24000], "internal_node_id": "0.0-116.0", "trial": 4, "time_elapsed": 817526, "serialpos": 4, "key_press": -1, "wordID": 1169, "type": "PRES_AUD", "trial_index": 161}, "uniqueid": "MTK3675:34FNN24DCNG0863YECGP5IAG3X65YL", "dateTime": 1520955787827}, {"current_trial": 162, "trialdata": {"rt": -1000, "trial_type": "single-audio", "word": "snail", "stimulus": "/static/audio/wordpool/SNAIL.wav", "conditions": [24, 1600, "a", 24000], "internal_node_id": "0.0-117.0", "trial": 4, "time_elapsed": 820061, "serialpos": 5, "key_press": -1, "wordID": 1331, "type": "PRES_AUD", "trial_index": 162}, "uniqueid": "MTK3675:34FNN24DCNG0863YECGP5IAG3X65YL", "dateTime": 1520955790364}, {"current_trial": 163, "trialdata": {"rt": -1000, "trial_type": "single-audio", "word": "college", "stimulus": "/static/audio/wordpool/COLLEGE.wav", "conditions": [24, 1600, "a", 24000], "internal_node_id": "0.0-118.0", "trial": 4, "time_elapsed": 822728, "serialpos": 6, "key_press": -1, "wordID": 345, "type": "PRES_AUD", "trial_index": 163}, "uniqueid": "MTK3675:34FNN24DCNG0863YECGP5IAG3X65YL", "dateTime": 1520955793029}, {"current_trial": 164, "trialdata": {"rt": -1000, "trial_type": "single-audio", "word": "couch", "stimulus": "/static/audio/wordpool/COUCH.wav", "conditions": [24, 1600, "a", 24000], "internal_node_id": "0.0-119.0", "trial": 4, "time_elapsed": 825154, "serialpos": 7, "key_press": -1, "wordID": 385, "type": "PRES_AUD", "trial_index": 164}, "uniqueid": "MTK3675:34FNN24DCNG0863YECGP5IAG3X65YL", "dateTime": 1520955795455}, {"current_trial": 165, "trialdata": {"rt": -1000, "trial_type": "single-audio", "word": "mattress", "stimulus": "/static/audio/wordpool/MATTRESS.wav", "conditions": [24, 1600, "a", 24000], "internal_node_id": "0.0-120.0", "trial": 4, "time_elapsed": 827874, "serialpos": 8, "key_press": -1, "wordID": 878, "type": "PRES_AUD", "trial_index": 165}, "uniqueid": "MTK3675:34FNN24DCNG0863YECGP5IAG3X65YL", "dateTime": 1520955798176}, {"current_trial": 166, "trialdata": {"rt": -1000, "trial_type": "single-audio", "word": "stone", "stimulus": "/static/audio/wordpool/STONE.wav", "conditions": [24, 1600, "a", 24000], "internal_node_id": "0.0-121.0", "trial": 4, "time_elapsed": 830292, "serialpos": 9, "key_press": -1, "wordID": 1384, "type": "PRES_AUD", "trial_index": 166}, "uniqueid": "MTK3675:34FNN24DCNG0863YECGP5IAG3X65YL", "dateTime": 1520955800593}, {"current_trial": 167, "trialdata": {"rt": -1000, "trial_type": "single-audio", "word": "picnic", "stimulus": "/static/audio/wordpool/PICNIC.wav", "conditions": [24, 1600, "a", 24000], "internal_node_id": "0.0-122.0", "trial": 4, "time_elapsed": 832938, "serialpos": 10, "key_press": -1, "wordID": 1059, "type": "PRES_AUD", "trial_index": 167}, "uniqueid": "MTK3675:34FNN24DCNG0863YECGP5IAG3X65YL", "dateTime": 1520955803239}, {"current_trial": 168, "trialdata": {"rt": -1000, "trial_type": "single-audio", "word": "critic", "stimulus": "/static/audio/wordpool/CRITIC.wav", "conditions": [24, 1600, "a", 24000], "internal_node_id": "0.0-123.0", "trial": 4, "time_elapsed": 835701, "serialpos": 11, "key_press": -1, "wordID": 409, "type": "PRES_AUD", "trial_index": 168}, "uniqueid": "MTK3675:34FNN24DCNG0863YECGP5IAG3X65YL", "dateTime": 1520955806002}, {"current_trial": 169, "trialdata": {"rt": -1000, "trial_type": "single-audio", "word": "marsh", "stimulus": "/static/audio/wordpool/MARSH.wav", "conditions": [24, 1600, "a", 24000], "internal_node_id": "0.0-124.0", "trial": 4, "time_elapsed": 838207, "serialpos": 12, "key_press": -1, "wordID": 873, "type": "PRES_AUD", "trial_index": 169}, "uniqueid": "MTK3675:34FNN24DCNG0863YECGP5IAG3X65YL", "dateTime": 1520955808509}, {"current_trial": 170, "trialdata": {"rt": -1000, "trial_type": "single-audio", "word": "custard", "stimulus": "/static/audio/wordpool/CUSTARD.wav", "conditions": [24, 1600, "a", 24000], "internal_node_id": "0.0-125.0", "trial": 4, "time_elapsed": 840802, "serialpos": 13, "key_press": -1, "wordID": 428, "type": "PRES_AUD", "trial_index": 170}, "uniqueid": "MTK3675:34FNN24DCNG0863YECGP5IAG3X65YL", "dateTime": 1520955811104}, {"current_trial": 171, "trialdata": {"rt": -1000, "trial_type": "single-audio", "word": "pudding", "stimulus": "/static/audio/wordpool/PUDDING.wav", "conditions": [24, 1600, "a", 24000], "internal_node_id": "0.0-126.0", "trial": 4, "time_elapsed": 843300, "serialpos": 14, "key_press": -1, "wordID": 1138, "type": "PRES_AUD", "trial_index": 171}, "uniqueid": "MTK3675:34FNN24DCNG0863YECGP5IAG3X65YL", "dateTime": 1520955813601}, {"current_trial": 172, "trialdata": {"rt": -1000, "trial_type": "single-audio", "word": "tuba", "stimulus": "/static/audio/wordpool/TUBA.wav", "conditions": [24, 1600, "a", 24000], "internal_node_id": "0.0-127.0", "trial": 4, "time_elapsed": 846047, "serialpos": 15, "key_press": -1, "wordID": 1514, "type": "PRES_AUD", "trial_index": 172}, "uniqueid": "MTK3675:34FNN24DCNG0863YECGP5IAG3X65YL", "dateTime": 1520955816348}, {"current_trial": 173, "trialdata": {"rt": -1000, "trial_type": "single-audio", "word": "icing", "stimulus": "/static/audio/wordpool/ICING.wav", "conditions": [24, 1600, "a", 24000], "internal_node_id": "0.0-128.0", "trial": 4, "time_elapsed": 848627, "serialpos": 16, "key_press": -1, "wordID": 731, "type": "PRES_AUD", "trial_index": 173}, "uniqueid": "MTK3675:34FNN24DCNG0863YECGP5IAG3X65YL", "dateTime": 1520955818928}, {"current_trial": 174, "trialdata": {"rt": -1000, "trial_type": "single-audio", "word": "beaver", "stimulus": "/static/audio/wordpool/BEAVER.wav", "conditions": [24, 1600, "a", 24000], "internal_node_id": "0.0-129.0", "trial": 4, "time_elapsed": 851415, "serialpos": 17, "key_press": -1, "wordID": 108, "type": "PRES_AUD", "trial_index": 174}, "uniqueid": "MTK3675:34FNN24DCNG0863YECGP5IAG3X65YL", "dateTime": 1520955821717}, {"current_trial": 175, "trialdata": {"rt": -1000, "trial_type": "single-audio", "word": "hawk", "stimulus": "/static/audio/wordpool/HAWK.wav", "conditions": [24, 1600, "a", 24000], "internal_node_id": "0.0-130.0", "trial": 4, "time_elapsed": 853985, "serialpos": 18, "key_press": -1, "wordID": 691, "type": "PRES_AUD", "trial_index": 175}, "uniqueid": "MTK3675:34FNN24DCNG0863YECGP5IAG3X65YL", "dateTime": 1520955824286}, {"current_trial": 176, "trialdata": {"rt": -1000, "trial_type": "single-audio", "word": "convict", "stimulus": "/static/audio/wordpool/CONVICT.wav", "conditions": [24, 1600, "a", 24000], "internal_node_id": "0.0-131.0", "trial": 4, "time_elapsed": 856600, "serialpos": 19, "key_press": -1, "wordID": 370, "type": "PRES_AUD", "trial_index": 176}, "uniqueid": "MTK3675:34FNN24DCNG0863YECGP5IAG3X65YL", "dateTime": 1520955826901}, {"current_trial": 177, "trialdata": {"rt": -1000, "trial_type": "single-audio", "word": "staple", "stimulus": "/static/audio/wordpool/STAPLE.wav", "conditions": [24, 1600, "a", 24000], "internal_node_id": "0.0-132.0", "trial": 4, "time_elapsed": 859134, "serialpos": 20, "key_press": -1, "wordID": 1370, "type": "PRES_AUD", "trial_index": 177}, "uniqueid": "MTK3675:34FNN24DCNG0863YECGP5IAG3X65YL", "dateTime": 1520955829436}, {"current_trial": 178, "trialdata": {"rt": -1000, "trial_type": "single-audio", "word": "shoulder", "stimulus": "/static/audio/wordpool/SHOULDER.wav", "conditions": [24, 1600, "a", 24000], "internal_node_id": "0.0-133.0", "trial": 4, "time_elapsed": 861722, "serialpos": 21, "key_press": -1, "wordID": 1293, "type": "PRES_AUD", "trial_index": 178}, "uniqueid": "MTK3675:34FNN24DCNG0863YECGP5IAG3X65YL", "dateTime": 1520955832023}, {"current_trial": 179, "trialdata": {"rt": -1000, "trial_type": "single-audio", "word": "hamper", "stimulus": "/static/audio/wordpool/HAMPER.wav", "conditions": [24, 1600, "a", 24000], "internal_node_id": "0.0-134.0", "trial": 4, "time_elapsed": 864323, "serialpos": 22, "key_press": -1, "wordID": 681, "type": "PRES_AUD", "trial_index": 179}, "uniqueid": "MTK3675:34FNN24DCNG0863YECGP5IAG3X65YL", "dateTime": 1520955834624}, {"current_trial": 180, "trialdata": {"rt": -1000, "trial_type": "single-audio", "word": "lake", "stimulus": "/static/audio/wordpool/LAKE.wav", "conditions": [24, 1600, "a", 24000], "internal_node_id": "0.0-135.0", "trial": 4, "time_elapsed": 866930, "serialpos": 23, "key_press": -1, "wordID": 795, "type": "PRES_AUD", "trial_index": 180}, "uniqueid": "MTK3675:34FNN24DCNG0863YECGP5IAG3X65YL", "dateTime": 1520955837232}, {"current_trial": 181, "trialdata": {"rt": -1, "trial_type": "single-stim", "stimulus": "", "internal_node_id": "0.0-136.0-0.0", "time_elapsed": 868188, "key_press": -1, "type": "PRE_RECALL_DELAY", "trial_index": 181}, "uniqueid": "MTK3675:34FNN24DCNG0863YECGP5IAG3X65YL", "dateTime": 1520955838489}, {"current_trial": 182, "trialdata": {"rt": -1000, "trial_type": "single-audio", "stimulus": "/static/audio/400Hz.wav", "internal_node_id": "0.0-137.0", "time_elapsed": 868691, "key_press": -1, "type": "PRE_RECALL_ALERT", "trial_index": 182}, "uniqueid": "MTK3675:34FNN24DCNG0863YECGP5IAG3X65YL", "dateTime": 1520955838992}, {"current_trial": 183, "trialdata": {"rt": [2716, 5556, 8541, 12015, 16581, 18070, 24914, 33109, 42116], "recwords": ["lake", "student", "banjo", "cottage", "snail", "lake", "college", "iceing", "rattle"], "key_times": [1582, 1747, 1964, 2134, 2716, 3557, 4023, 4247, 4500, 4795, 4952, 5113, 5556, 6796, 7044, 7194, 7778, 8126, 8541, 9798, 9962, 10226, 10407, 10819, 11164, 11436, 12015, 14730, 15305, 15663, 16020, 16281, 16581, 17242, 17428, 17593, 17731, 18070, 23217, 23417, 23729, 23903, 24061, 24422, 24665, 24914, 30756, 30957, 31775, 31991, 32188, 32410, 33109, 40452, 40705, 41310, 41516, 41738, 41895, 42116], "trial_type": "free-recall", "conditions": [24, 1600, "a", 24000], "internal_node_id": "0.0-138.0-0.0", "key_presses": [76, 65, 75, 69, 32, 83, 84, 85, 68, 69, 78, 84, 13, 66, 65, 78, 74, 79, 13, 67, 79, 84, 84, 65, 71, 69, 13, 83, 78, 65, 73, 76, 13, 76, 65, 75, 69, 13, 67, 79, 76, 76, 69, 71, 69, 13, 73, 67, 69, 73, 78, 71, 13, 82, 65, 84, 84, 76, 69, 13], "trial": 4, "time_elapsed": 928698, "type": "FREE_RECALL", "trial_index": 183}, "uniqueid": "MTK3675:34FNN24DCNG0863YECGP5IAG3X65YL", "dateTime": 1520955899010}, {"current_trial": 184, "trialdata": {"rt": 1309, "trial_type": "text", "internal_node_id": "0.0-139.0", "time_elapsed": 932021, "key_press": 13, "type": "INSTRUCTIONS", "trial_index": 184}, "uniqueid": "MTK3675:34FNN24DCNG0863YECGP5IAG3X65YL", "dateTime": 1520955902322}, {"current_trial": 185, "trialdata": {"rt": [3186, 6400, 9321, 15583, 20324], "trial_type": "math-distractor", "key_times": [1955, 2589, 3186, 4787, 5792, 6400, 8126, 8734, 9321, 14809, 15011, 15583, 19001, 19762, 20324], "responses": ["18", "16", "18", "21", "19"], "num2": [7, 2, 8, 7, 6, 4], "num3": [2, 7, 5, 9, 6, 7], "conditions": [12, 800, "a", 24000], "internal_node_id": "0.0-140.0", "key_presses": [49, 56, 13, 49, 54, 13, 49, 56, 13, 50, 49, 13, 49, 57, 13], "trial": 5, "time_elapsed": 958045, "type": "DISTRACTOR", "trial_index": 185, "num1": [9, 7, 5, 6, 7, 9]}, "uniqueid": "MTK3675:34FNN24DCNG0863YECGP5IAG3X65YL", "dateTime": 1520955928346}, {"current_trial": 186, "trialdata": {"rt": -1, "trial_type": "single-stim", "stimulus": "<p id=\"stim\">10</p>", "internal_node_id": "0.0-141.0-0.0", "time_elapsed": 961071, "key_press": -1, "trial_index": 186}, "uniqueid": "MTK3675:34FNN24DCNG0863YECGP5IAG3X65YL", "dateTime": 1520955931372}, {"current_trial": 187, "trialdata": {"rt": -1, "trial_type": "single-stim", "stimulus": "<p id=\"stim\">9</p>", "internal_node_id": "0.0-141.0-1.0", "time_elapsed": 962074, "key_press": -1, "trial_index": 187}, "uniqueid": "MTK3675:34FNN24DCNG0863YECGP5IAG3X65YL", "dateTime": 1520955932375}, {"current_trial": 188, "trialdata": {"rt": -1, "trial_type": "single-stim", "stimulus": "<p id=\"stim\">8</p>", "internal_node_id": "0.0-141.0-2.0", "time_elapsed": 963077, "key_press": -1, "trial_index": 188}, "uniqueid": "MTK3675:34FNN24DCNG0863YECGP5IAG3X65YL", "dateTime": 1520955933379}, {"current_trial": 189, "trialdata": {"rt": -1, "trial_type": "single-stim", "stimulus": "<p id=\"stim\">7</p>", "internal_node_id": "0.0-141.0-3.0", "time_elapsed": 964081, "key_press": -1, "trial_index": 189}, "uniqueid": "MTK3675:34FNN24DCNG0863YECGP5IAG3X65YL", "dateTime": 1520955934382}, {"current_trial": 190, "trialdata": {"rt": -1, "trial_type": "single-stim", "stimulus": "<p id=\"stim\">6</p>", "internal_node_id": "0.0-141.0-4.0", "time_elapsed": 965084, "key_press": -1, "trial_index": 190}, "uniqueid": "MTK3675:34FNN24DCNG0863YECGP5IAG3X65YL", "dateTime": 1520955935385}, {"current_trial": 191, "trialdata": {"rt": -1, "trial_type": "single-stim", "stimulus": "<p id=\"stim\">5</p>", "internal_node_id": "0.0-141.0-5.0", "time_elapsed": 966088, "key_press": -1, "trial_index": 191}, "uniqueid": "MTK3675:34FNN24DCNG0863YECGP5IAG3X65YL", "dateTime": 1520955936389}, {"current_trial": 192, "trialdata": {"rt": -1, "trial_type": "single-stim", "stimulus": "<p id=\"stim\">4</p>", "internal_node_id": "0.0-141.0-6.0", "time_elapsed": 967091, "key_press": -1, "trial_index": 192}, "uniqueid": "MTK3675:34FNN24DCNG0863YECGP5IAG3X65YL", "dateTime": 1520955937393}, {"current_trial": 193, "trialdata": {"rt": -1, "trial_type": "single-stim", "stimulus": "<p id=\"stim\">3</p>", "internal_node_id": "0.0-141.0-7.0", "time_elapsed": 968093, "key_press": -1, "trial_index": 193}, "uniqueid": "MTK3675:34FNN24DCNG0863YECGP5IAG3X65YL", "dateTime": 1520955938394}, {"current_trial": 194, "trialdata": {"rt": -1, "trial_type": "single-stim", "stimulus": "<p id=\"stim\">2</p>", "internal_node_id": "0.0-141.0-8.0", "time_elapsed": 969096, "key_press": -1, "trial_index": 194}, "uniqueid": "MTK3675:34FNN24DCNG0863YECGP5IAG3X65YL", "dateTime": 1520955939397}, {"current_trial": 195, "trialdata": {"rt": -1, "trial_type": "single-stim", "stimulus": "<p id=\"stim\">1</p>", "internal_node_id": "0.0-141.0-9.0", "time_elapsed": 970100, "key_press": -1, "trial_index": 195}, "uniqueid": "MTK3675:34FNN24DCNG0863YECGP5IAG3X65YL", "dateTime": 1520955940401}, {"current_trial": 196, "trialdata": {"rt": -1, "trial_type": "single-stim", "stimulus": "<p id=\"stim\">+</p>", "internal_node_id": "0.0-142.0-0.0", "time_elapsed": 971603, "key_press": -1, "type": "FIXATION", "trial_index": 196}, "uniqueid": "MTK3675:34FNN24DCNG0863YECGP5IAG3X65YL", "dateTime": 1520955941904}, {"current_trial": 197, "trialdata": {"rt": -1000, "trial_type": "single-audio", "word": "puddle", "stimulus": "/static/audio/wordpool/PUDDLE.wav", "conditions": [12, 800, "a", 24000], "internal_node_id": "0.0-143.0", "trial": 5, "time_elapsed": 973605, "serialpos": 0, "key_press": -1, "wordID": 1139, "type": "PRES_AUD", "trial_index": 197}, "uniqueid": "MTK3675:34FNN24DCNG0863YECGP5IAG3X65YL", "dateTime": 1520955943906}, {"current_trial": 198, "trialdata": {"rt": -1000, "trial_type": "single-audio", "word": "camel", "stimulus": "/static/audio/wordpool/CAMEL.wav", "conditions": [12, 800, "a", 24000], "internal_node_id": "0.0-144.0", "trial": 5, "time_elapsed": 975593, "serialpos": 1, "key_press": -1, "wordID": 222, "type": "PRES_AUD", "trial_index": 198}, "uniqueid": "MTK3675:34FNN24DCNG0863YECGP5IAG3X65YL", "dateTime": 1520955945894}, {"current_trial": 199, "trialdata": {"rt": -1000, "trial_type": "single-audio", "word": "brick", "stimulus": "/static/audio/wordpool/BRICK.wav", "conditions": [12, 800, "a", 24000], "internal_node_id": "0.0-145.0", "trial": 5, "time_elapsed": 977585, "serialpos": 2, "key_press": -1, "wordID": 171, "type": "PRES_AUD", "trial_index": 199}, "uniqueid": "MTK3675:34FNN24DCNG0863YECGP5IAG3X65YL", "dateTime": 1520955947886}, {"current_trial": 200, "trialdata": {"rt": -1000, "trial_type": "single-audio", "word": "luggage", "stimulus": "/static/audio/wordpool/LUGGAGE.wav", "conditions": [12, 800, "a", 24000], "internal_node_id": "0.0-146.0", "trial": 5, "time_elapsed": 979331, "serialpos": 3, "key_press": -1, "wordID": 846, "type": "PRES_AUD", "trial_index": 200}, "uniqueid": "MTK3675:34FNN24DCNG0863YECGP5IAG3X65YL", "dateTime": 1520955949632}, {"current_trial": 201, "trialdata": {"rt": -1000, "trial_type": "single-audio", "word": "tweezers", "stimulus": "/static/audio/wordpool/TWEEZERS.wav", "conditions": [12, 800, "a", 24000], "internal_node_id": "0.0-147.0", "trial": 5, "time_elapsed": 981160, "serialpos": 4, "key_press": -1, "wordID": 1525, "type": "PRES_AUD", "trial_index": 201}, "uniqueid": "MTK3675:34FNN24DCNG0863YECGP5IAG3X65YL", "dateTime": 1520955951463}, {"current_trial": 202, "trialdata": {"rt": -1000, "trial_type": "single-audio", "word": "honey", "stimulus": "/static/audio/wordpool/HONEY.wav", "conditions": [12, 800, "a", 24000], "internal_node_id": "0.0-148.0", "trial": 5, "time_elapsed": 983062, "serialpos": 5, "key_press": -1, "wordID": 712, "type": "PRES_AUD", "trial_index": 202}, "uniqueid": "MTK3675:34FNN24DCNG0863YECGP5IAG3X65YL", "dateTime": 1520955953363}, {"current_trial": 203, "trialdata": {"rt": -1000, "trial_type": "single-audio", "word": "stove", "stimulus": "/static/audio/wordpool/STOVE.wav", "conditions": [12, 800, "a", 24000], "internal_node_id": "0.0-149.0", "trial": 5, "time_elapsed": 984707, "serialpos": 6, "key_press": -1, "wordID": 1387, "type": "PRES_AUD", "trial_index": 203}, "uniqueid": "MTK3675:34FNN24DCNG0863YECGP5IAG3X65YL", "dateTime": 1520955955009}, {"current_trial": 204, "trialdata": {"rt": -1000, "trial_type": "single-audio", "word": "fireplace", "stimulus": "/static/audio/wordpool/FIREPLACE.wav", "conditions": [12, 800, "a", 24000], "internal_node_id": "0.0-150.0", "trial": 5, "time_elapsed": 986559, "serialpos": 7, "key_press": -1, "wordID": 569, "type": "PRES_AUD", "trial_index": 204}, "uniqueid": "MTK3675:34FNN24DCNG0863YECGP5IAG3X65YL", "dateTime": 1520955956861}, {"current_trial": 205, "trialdata": {"rt": -1000, "trial_type": "single-audio", "word": "keeper", "stimulus": "/static/audio/wordpool/KEEPER.wav", "conditions": [12, 800, "a", 24000], "internal_node_id": "0.0-151.0", "trial": 5, "time_elapsed": 988491, "serialpos": 8, "key_press": -1, "wordID": 768, "type": "PRES_AUD", "trial_index": 205}, "uniqueid": "MTK3675:34FNN24DCNG0863YECGP5IAG3X65YL", "dateTime": 1520955958794}, {"current_trial": 206, "trialdata": {"rt": -1000, "trial_type": "single-audio", "word": "guitar", "stimulus": "/static/audio/wordpool/GUITAR.wav", "conditions": [12, 800, "a", 24000], "internal_node_id": "0.0-152.0", "trial": 5, "time_elapsed": 990260, "serialpos": 9, "key_press": -1, "wordID": 669, "type": "PRES_AUD", "trial_index": 206}, "uniqueid": "MTK3675:34FNN24DCNG0863YECGP5IAG3X65YL", "dateTime": 1520955960563}, {"current_trial": 207, "trialdata": {"rt": -1000, "trial_type": "single-audio", "word": "grape", "stimulus": "/static/audio/wordpool/GRAPE.wav", "conditions": [12, 800, "a", 24000], "internal_node_id": "0.0-153.0", "trial": 5, "time_elapsed": 992213, "serialpos": 10, "key_press": -1, "wordID": 653, "type": "PRES_AUD", "trial_index": 207}, "uniqueid": "MTK3675:34FNN24DCNG0863YECGP5IAG3X65YL", "dateTime": 1520955962514}, {"current_trial": 208, "trialdata": {"rt": -1000, "trial_type": "single-audio", "word": "basement", "stimulus": "/static/audio/wordpool/BASEMENT.wav", "conditions": [12, 800, "a", 24000], "internal_node_id": "0.0-154.0", "trial": 5, "time_elapsed": 993883, "serialpos": 11, "key_press": -1, "wordID": 93, "type": "PRES_AUD", "trial_index": 208}, "uniqueid": "MTK3675:34FNN24DCNG0863YECGP5IAG3X65YL", "dateTime": 1520955964184}, {"current_trial": 209, "trialdata": {"rt": 652, "trial_type": "single-stim", "stimulus": "", "internal_node_id": "0.0-155.0-0.0", "time_elapsed": 995429, "key_press": 175, "type": "PRE_RECALL_DELAY", "trial_index": 209}, "uniqueid": "MTK3675:34FNN24DCNG0863YECGP5IAG3X65YL", "dateTime": 1520955965730}, {"current_trial": 210, "trialdata": {"rt": -1000, "trial_type": "single-audio", "stimulus": "/static/audio/400Hz.wav", "internal_node_id": "0.0-156.0", "time_elapsed": 995931, "key_press": -1, "type": "PRE_RECALL_ALERT", "trial_index": 210}, "uniqueid": "MTK3675:34FNN24DCNG0863YECGP5IAG3X65YL", "dateTime": 1520955966234}, {"current_trial": 211, "trialdata": {"rt": [4352, 7694, 11103, 14479, 19833, 28207, 38501], "recwords": ["puddle", "tweezers", "basement", "guitar", "grape", "brick", "camel"], "key_times": [55, 2558, 2945, 3126, 3286, 3566, 3833, 4352, 5073, 5433, 5722, 5856, 6216, 6498, 6950, 7258, 7694, 8766, 8974, 9358, 9792, 10266, 10404, 10558, 10693, 11103, 12873, 13137, 13413, 13702, 13972, 14148, 14479, 18599, 18840, 19133, 19435, 19605, 19833, 27007, 27310, 27503, 27713, 27874, 28207, 37476, 37752, 38030, 38166, 38254, 38501], "trial_type": "free-recall", "conditions": [12, 800, "a", 24000], "internal_node_id": "0.0-157.0-0.0", "key_presses": [174, 80, 85, 68, 68, 76, 69, 13, 84, 87, 69, 69, 90, 69, 82, 83, 13, 66, 65, 83, 69, 77, 69, 78, 84, 13, 71, 85, 73, 84, 65, 82, 13, 71, 82, 65, 80, 69, 13, 66, 82, 73, 67, 75, 13, 67, 65, 77, 69, 76, 13], "trial": 5, "time_elapsed": 1055939, "type": "FREE_RECALL", "trial_index": 211}, "uniqueid": "MTK3675:34FNN24DCNG0863YECGP5IAG3X65YL", "dateTime": 1520956026251}, {"current_trial": 212, "trialdata": {"rt": 2892, "trial_type": "text", "internal_node_id": "0.0-158.0", "time_elapsed": 1060845, "key_press": 13, "type": "INSTRUCTIONS", "trial_index": 212}, "uniqueid": "MTK3675:34FNN24DCNG0863YECGP5IAG3X65YL", "dateTime": 1520956031146}, {"current_trial": 213, "trialdata": {"rt": [4512, 9376, 12515, 16297, 19103, 22406], "trial_type": "math-distractor", "key_times": [3183, 4012, 4512, 8356, 8592, 9376, 11537, 11756, 12515, 15449, 15743, 16297, 18157, 18349, 19103, 21106, 21877, 22406], "responses": ["15", "11", "12", "13", "11", "16"], "num2": [9, 2, 1, 5, 2, 6, 3], "num3": [2, 5, 7, 1, 2, 8, 2], "conditions": [12, 800, "a", 24000], "internal_node_id": "0.0-159.0", "key_presses": [49, 53, 13, 49, 49, 13, 49, 50, 13, 49, 51, 13, 49, 49, 13, 49, 54, 13], "trial": 6, "time_elapsed": 1086887, "type": "DISTRACTOR", "trial_index": 213, "num1": [4, 4, 4, 7, 7, 2, 1]}, "uniqueid": "MTK3675:34FNN24DCNG0863YECGP5IAG3X65YL", "dateTime": 1520956057188}, {"current_trial": 214, "trialdata": {"rt": -1, "trial_type": "single-stim", "stimulus": "<p id=\"stim\">10</p>", "internal_node_id": "0.0-160.0-0.0", "time_elapsed": 1089890, "key_press": -1, "trial_index": 214}, "uniqueid": "MTK3675:34FNN24DCNG0863YECGP5IAG3X65YL", "dateTime": 1520956060191}, {"current_trial": 215, "trialdata": {"rt": -1, "trial_type": "single-stim", "stimulus": "<p id=\"stim\">9</p>", "internal_node_id": "0.0-160.0-1.0", "time_elapsed": 1090892, "key_press": -1, "trial_index": 215}, "uniqueid": "MTK3675:34FNN24DCNG0863YECGP5IAG3X65YL", "dateTime": 1520956061195}, {"current_trial": 216, "trialdata": {"rt": -1, "trial_type": "single-stim", "stimulus": "<p id=\"stim\">8</p>", "internal_node_id": "0.0-160.0-2.0", "time_elapsed": 1091897, "key_press": -1, "trial_index": 216}, "uniqueid": "MTK3675:34FNN24DCNG0863YECGP5IAG3X65YL", "dateTime": 1520956062198}, {"current_trial": 217, "trialdata": {"rt": -1, "trial_type": "single-stim", "stimulus": "<p id=\"stim\">7</p>", "internal_node_id": "0.0-160.0-3.0", "time_elapsed": 1092900, "key_press": -1, "trial_index": 217}, "uniqueid": "MTK3675:34FNN24DCNG0863YECGP5IAG3X65YL", "dateTime": 1520956063201}, {"current_trial": 218, "trialdata": {"rt": -1, "trial_type": "single-stim", "stimulus": "<p id=\"stim\">6</p>", "internal_node_id": "0.0-160.0-4.0", "time_elapsed": 1093905, "key_press": -1, "trial_index": 218}, "uniqueid": "MTK3675:34FNN24DCNG0863YECGP5IAG3X65YL", "dateTime": 1520956064206}, {"current_trial": 219, "trialdata": {"rt": -1, "trial_type": "single-stim", "stimulus": "<p id=\"stim\">5</p>", "internal_node_id": "0.0-160.0-5.0", "time_elapsed": 1094907, "key_press": -1, "trial_index": 219}, "uniqueid": "MTK3675:34FNN24DCNG0863YECGP5IAG3X65YL", "dateTime": 1520956065208}, {"current_trial": 220, "trialdata": {"rt": -1, "trial_type": "single-stim", "stimulus": "<p id=\"stim\">4</p>", "internal_node_id": "0.0-160.0-6.0", "time_elapsed": 1095911, "key_press": -1, "trial_index": 220}, "uniqueid": "MTK3675:34FNN24DCNG0863YECGP5IAG3X65YL", "dateTime": 1520956066212}, {"current_trial": 221, "trialdata": {"rt": -1, "trial_type": "single-stim", "stimulus": "<p id=\"stim\">3</p>", "internal_node_id": "0.0-160.0-7.0", "time_elapsed": 1096915, "key_press": -1, "trial_index": 221}, "uniqueid": "MTK3675:34FNN24DCNG0863YECGP5IAG3X65YL", "dateTime": 1520956067216}, {"current_trial": 222, "trialdata": {"rt": -1, "trial_type": "single-stim", "stimulus": "<p id=\"stim\">2</p>", "internal_node_id": "0.0-160.0-8.0", "time_elapsed": 1097921, "key_press": -1, "trial_index": 222}, "uniqueid": "MTK3675:34FNN24DCNG0863YECGP5IAG3X65YL", "dateTime": 1520956068223}, {"current_trial": 223, "trialdata": {"rt": -1, "trial_type": "single-stim", "stimulus": "<p id=\"stim\">1</p>", "internal_node_id": "0.0-160.0-9.0", "time_elapsed": 1098924, "key_press": -1, "trial_index": 223}, "uniqueid": "MTK3675:34FNN24DCNG0863YECGP5IAG3X65YL", "dateTime": 1520956069226}, {"current_trial": 224, "trialdata": {"rt": -1, "trial_type": "single-stim", "stimulus": "<p id=\"stim\">+</p>", "internal_node_id": "0.0-161.0-0.0", "time_elapsed": 1100428, "key_press": -1, "type": "FIXATION", "trial_index": 224}, "uniqueid": "MTK3675:34FNN24DCNG0863YECGP5IAG3X65YL", "dateTime": 1520956070730}, {"current_trial": 225, "trialdata": {"rt": 1041.3333333333412, "trial_type": "single-audio", "word": "yacht", "stimulus": "/static/audio/wordpool/YACHT.wav", "conditions": [12, 800, "a", 24000], "internal_node_id": "0.0-162.0", "trial": 6, "time_elapsed": 1102037, "serialpos": 0, "key_press": 175, "wordID": 1628, "type": "PRES_AUD", "trial_index": 225}, "uniqueid": "MTK3675:34FNN24DCNG0863YECGP5IAG3X65YL", "dateTime": 1520956072340}, {"current_trial": 226, "trialdata": {"rt": 140.00000000010004, "trial_type": "single-audio", "word": "police", "stimulus": "/static/audio/wordpool/POLICE.wav", "conditions": [12, 800, "a", 24000], "internal_node_id": "0.0-163.0", "trial": 6, "time_elapsed": 1103740, "serialpos": 1, "key_press": 175, "wordID": 1097, "type": "PRES_AUD", "trial_index": 226}, "uniqueid": "MTK3675:34FNN24DCNG0863YECGP5IAG3X65YL", "dateTime": 1520956074041}, {"current_trial": 227, "trialdata": {"rt": -1000, "trial_type": "single-audio", "word": "concert", "stimulus": "/static/audio/wordpool/CONCERT.wav", "conditions": [12, 800, "a", 24000], "internal_node_id": "0.0-164.0", "trial": 6, "time_elapsed": 1105528, "serialpos": 2, "key_press": -1, "wordID": 359, "type": "PRES_AUD", "trial_index": 227}, "uniqueid": "MTK3675:34FNN24DCNG0863YECGP5IAG3X65YL", "dateTime": 1520956075839}, {"current_trial": 228, "trialdata": {"rt": -1000, "trial_type": "single-audio", "word": "branch", "stimulus": "/static/audio/wordpool/BRANCH.wav", "conditions": [12, 800, "a", 24000], "internal_node_id": "0.0-165.0", "trial": 6, "time_elapsed": 1107535, "serialpos": 3, "key_press": -1, "wordID": 167, "type": "PRES_AUD", "trial_index": 228}, "uniqueid": "MTK3675:34FNN24DCNG0863YECGP5IAG3X65YL", "dateTime": 1520956077836}, {"current_trial": 229, "trialdata": {"rt": -1000, "trial_type": "single-audio", "word": "bank", "stimulus": "/static/audio/wordpool/BANK.wav", "conditions": [12, 800, "a", 24000], "internal_node_id": "0.0-166.0", "trial": 6, "time_elapsed": 1109279, "serialpos": 4, "key_press": -1, "wordID": 82, "type": "PRES_AUD", "trial_index": 229}, "uniqueid": "MTK3675:34FNN24DCNG0863YECGP5IAG3X65YL", "dateTime": 1520956079581}, {"current_trial": 230, "trialdata": {"rt": -1000, "trial_type": "single-audio", "word": "bathtub", "stimulus": "/static/audio/wordpool/BATHTUB.wav", "conditions": [12, 800, "a", 24000], "internal_node_id": "0.0-167.0", "trial": 6, "time_elapsed": 1110909, "serialpos": 5, "key_press": -1, "wordID": 99, "type": "PRES_AUD", "trial_index": 230}, "uniqueid": "MTK3675:34FNN24DCNG0863YECGP5IAG3X65YL", "dateTime": 1520956081210}, {"current_trial": 231, "trialdata": {"rt": -1000, "trial_type": "single-audio", "word": "journal", "stimulus": "/static/audio/wordpool/JOURNAL.wav", "conditions": [12, 800, "a", 24000], "internal_node_id": "0.0-168.0", "trial": 6, "time_elapsed": 1112819, "serialpos": 6, "key_press": -1, "wordID": 759, "type": "PRES_AUD", "trial_index": 231}, "uniqueid": "MTK3675:34FNN24DCNG0863YECGP5IAG3X65YL", "dateTime": 1520956083121}, {"current_trial": 232, "trialdata": {"rt": -1000, "trial_type": "single-audio", "word": "patrol", "stimulus": "/static/audio/wordpool/PATROL.wav", "conditions": [12, 800, "a", 24000], "internal_node_id": "0.0-169.0", "trial": 6, "time_elapsed": 1114426, "serialpos": 7, "key_press": -1, "wordID": 1026, "type": "PRES_AUD", "trial_index": 232}, "uniqueid": "MTK3675:34FNN24DCNG0863YECGP5IAG3X65YL", "dateTime": 1520956084729}, {"current_trial": 233, "trialdata": {"rt": -1000, "trial_type": "single-audio", "word": "turtle", "stimulus": "/static/audio/wordpool/TURTLE.wav", "conditions": [12, 800, "a", 24000], "internal_node_id": "0.0-170.0", "trial": 6, "time_elapsed": 1116415, "serialpos": 8, "key_press": -1, "wordID": 1521, "type": "PRES_AUD", "trial_index": 233}, "uniqueid": "MTK3675:34FNN24DCNG0863YECGP5IAG3X65YL", "dateTime": 1520956086716}, {"current_trial": 234, "trialdata": {"rt": -1000, "trial_type": "single-audio", "word": "blueprint", "stimulus": "/static/audio/wordpool/BLUEPRINT.wav", "conditions": [12, 800, "a", 24000], "internal_node_id": "0.0-171.0", "trial": 6, "time_elapsed": 1118088, "serialpos": 9, "key_press": -1, "wordID": 141, "type": "PRES_AUD", "trial_index": 234}, "uniqueid": "MTK3675:34FNN24DCNG0863YECGP5IAG3X65YL", "dateTime": 1520956088390}, {"current_trial": 235, "trialdata": {"rt": -1000, "trial_type": "single-audio", "word": "salt", "stimulus": "/static/audio/wordpool/SALT.wav", "conditions": [12, 800, "a", 24000], "internal_node_id": "0.0-172.0", "trial": 6, "time_elapsed": 1119980, "serialpos": 10, "key_press": -1, "wordID": 1228, "type": "PRES_AUD", "trial_index": 235}, "uniqueid": "MTK3675:34FNN24DCNG0863YECGP5IAG3X65YL", "dateTime": 1520956090282}, {"current_trial": 236, "trialdata": {"rt": -1000, "trial_type": "single-audio", "word": "smog", "stimulus": "/static/audio/wordpool/SMOG.wav", "conditions": [12, 800, "a", 24000], "internal_node_id": "0.0-173.0", "trial": 6, "time_elapsed": 1121950, "serialpos": 11, "key_press": -1, "wordID": 1329, "type": "PRES_AUD", "trial_index": 236}, "uniqueid": "MTK3675:34FNN24DCNG0863YECGP5IAG3X65YL", "dateTime": 1520956092251}, {"current_trial": 237, "trialdata": {"rt": -1, "trial_type": "single-stim", "stimulus": "", "internal_node_id": "0.0-174.0-0.0", "time_elapsed": 1123250, "key_press": -1, "type": "PRE_RECALL_DELAY", "trial_index": 237}, "uniqueid": "MTK3675:34FNN24DCNG0863YECGP5IAG3X65YL", "dateTime": 1520956093551}, {"current_trial": 238, "trialdata": {"rt": -1000, "trial_type": "single-audio", "stimulus": "/static/audio/400Hz.wav", "internal_node_id": "0.0-175.0", "time_elapsed": 1123758, "key_press": -1, "type": "PRE_RECALL_ALERT", "trial_index": 238}, "uniqueid": "MTK3675:34FNN24DCNG0863YECGP5IAG3X65YL", "dateTime": 1520956094059}, {"current_trial": 239, "trialdata": {"rt": [2547, 7550, 10684, 13405, 18739, 21810, 26025, 29575, 42843], "recwords": ["smog", "yahct", "policeman", "concert", "branch", "salt", "blueprint", "smog", "patrol"], "key_times": [1203, 1472, 1603, 1894, 2547, 3303, 3484, 4635, 5085, 5440, 5465, 6024, 6211, 6533, 7550, 8302, 8544, 8848, 9066, 9325, 9550, 9806, 10001, 10150, 10684, 11485, 11563, 11787, 12170, 12440, 12676, 12933, 13405, 17244, 17570, 17810, 18014, 18231, 18416, 18739, 20352, 20750, 21306, 21516, 21810, 22450, 22635, 23181, 23331, 23792, 24709, 24859, 25100, 25409, 26025, 28535, 28856, 29053, 29332, 29575, 41225, 41356, 41766, 41994, 42140, 42456, 42843], "trial_type": "free-recall", "conditions": [12, 800, "a", 24000], "internal_node_id": "0.0-176.0-0.0", "key_presses": [83, 77, 79, 71, 13, 89, 65, 72, 67, 82, 84, 8, 8, 84, 13, 80, 79, 76, 73, 67, 69, 77, 65, 78, 13, 67, 79, 78, 67, 69, 82, 84, 13, 66, 82, 65, 78, 67, 72, 13, 83, 65, 76, 84, 13, 66, 76, 85, 69, 80, 82, 73, 78, 84, 13, 83, 77, 79, 71, 13, 80, 65, 84, 82, 79, 76, 13], "trial": 6, "time_elapsed": 1183768, "type": "FREE_RECALL", "trial_index": 239}, "uniqueid": "MTK3675:34FNN24DCNG0863YECGP5IAG3X65YL", "dateTime": 1520956154079}, {"current_trial": 240, "trialdata": {"rt": 2465, "trial_type": "text", "internal_node_id": "0.0-177.0", "time_elapsed": 1188248, "key_press": 13, "type": "INSTRUCTIONS", "trial_index": 240}, "uniqueid": "MTK3675:34FNN24DCNG0863YECGP5IAG3X65YL", "dateTime": 1520956158549}, {"current_trial": 241, "trialdata": {"rt": [5270, 11065], "trial_type": "math-distractor", "key_times": [4004, 4705, 5270, 9965, 10533, 11065], "responses": ["15", "18"], "num2": [8, 9, 4], "num3": [6, 4, 2], "conditions": [12, 800, "a", 12000], "internal_node_id": "0.0-178.0", "key_presses": [49, 53, 13, 49, 56, 13], "trial": 7, "time_elapsed": 1202258, "type": "DISTRACTOR", "trial_index": 241, "num1": [1, 5, 2]}, "uniqueid": "MTK3675:34FNN24DCNG0863YECGP5IAG3X65YL", "dateTime": 1520956172559}, {"current_trial": 242, "trialdata": {"rt": -1, "trial_type": "single-stim", "stimulus": "<p id=\"stim\">10</p>", "internal_node_id": "0.0-179.0-0.0", "time_elapsed": 1205261, "key_press": -1, "trial_index": 242}, "uniqueid": "MTK3675:34FNN24DCNG0863YECGP5IAG3X65YL", "dateTime": 1520956175562}, {"current_trial": 243, "trialdata": {"rt": -1, "trial_type": "single-stim", "stimulus": "<p id=\"stim\">9</p>", "internal_node_id": "0.0-179.0-1.0", "time_elapsed": 1206264, "key_press": -1, "trial_index": 243}, "uniqueid": "MTK3675:34FNN24DCNG0863YECGP5IAG3X65YL", "dateTime": 1520956176565}, {"current_trial": 244, "trialdata": {"rt": -1, "trial_type": "single-stim", "stimulus": "<p id=\"stim\">8</p>", "internal_node_id": "0.0-179.0-2.0", "time_elapsed": 1207266, "key_press": -1, "trial_index": 244}, "uniqueid": "MTK3675:34FNN24DCNG0863YECGP5IAG3X65YL", "dateTime": 1520956177569}, {"current_trial": 245, "trialdata": {"rt": -1, "trial_type": "single-stim", "stimulus": "<p id=\"stim\">7</p>", "internal_node_id": "0.0-179.0-3.0", "time_elapsed": 1208269, "key_press": -1, "trial_index": 245}, "uniqueid": "MTK3675:34FNN24DCNG0863YECGP5IAG3X65YL", "dateTime": 1520956178572}, {"current_trial": 246, "trialdata": {"rt": -1, "trial_type": "single-stim", "stimulus": "<p id=\"stim\">6</p>", "internal_node_id": "0.0-179.0-4.0", "time_elapsed": 1209272, "key_press": -1, "trial_index": 246}, "uniqueid": "MTK3675:34FNN24DCNG0863YECGP5IAG3X65YL", "dateTime": 1520956179574}, {"current_trial": 247, "trialdata": {"rt": -1, "trial_type": "single-stim", "stimulus": "<p id=\"stim\">5</p>", "internal_node_id": "0.0-179.0-5.0", "time_elapsed": 1210276, "key_press": -1, "trial_index": 247}, "uniqueid": "MTK3675:34FNN24DCNG0863YECGP5IAG3X65YL", "dateTime": 1520956180577}, {"current_trial": 248, "trialdata": {"rt": -1, "trial_type": "single-stim", "stimulus": "<p id=\"stim\">4</p>", "internal_node_id": "0.0-179.0-6.0", "time_elapsed": 1211278, "key_press": -1, "trial_index": 248}, "uniqueid": "MTK3675:34FNN24DCNG0863YECGP5IAG3X65YL", "dateTime": 1520956181580}, {"current_trial": 249, "trialdata": {"rt": -1, "trial_type": "single-stim", "stimulus": "<p id=\"stim\">3</p>", "internal_node_id": "0.0-179.0-7.0", "time_elapsed": 1212281, "key_press": -1, "trial_index": 249}, "uniqueid": "MTK3675:34FNN24DCNG0863YECGP5IAG3X65YL", "dateTime": 1520956182583}, {"current_trial": 250, "trialdata": {"rt": -1, "trial_type": "single-stim", "stimulus": "<p id=\"stim\">2</p>", "internal_node_id": "0.0-179.0-8.0", "time_elapsed": 1213290, "key_press": -1, "trial_index": 250}, "uniqueid": "MTK3675:34FNN24DCNG0863YECGP5IAG3X65YL", "dateTime": 1520956183591}, {"current_trial": 251, "trialdata": {"rt": -1, "trial_type": "single-stim", "stimulus": "<p id=\"stim\">1</p>", "internal_node_id": "0.0-179.0-9.0", "time_elapsed": 1214295, "key_press": -1, "trial_index": 251}, "uniqueid": "MTK3675:34FNN24DCNG0863YECGP5IAG3X65YL",