{"assignmentId": "3BQU611VFQR48SX29Q1QIHMRGAP99S", "workerId": "MTK3512", "questiondata": {"origin": "United States", "strat-rehearsal": "1", "marital": "Single", "education": "Bachelor's degree", "ethnicity": "Not Hispanic", "color_depth": 24, "distracted": "No", "wrote-notes": "No", "strat-other": "by the end i got better at doing the mental pictures", "screen_width": 1920, "avail_screen_width": 1920, "avail_screen_height": 1040, "strat-image": "28", "language": "english", "gender": "Female", "age": "33", "gender_other": "", "race": ["White"], "strat-categorize": "74", "pixel_depth": 24, "strat-spatial": "1", "strat-story": "2", "race_other": "", "screen_height": 1080}, "bonus": 0, "hitId": "3C8QQOM6JP8QXBTKCF5RBZG5ELVLI8", "counterbalance": 2096, "useragent": "Mozilla/5.0 (Windows NT 10.0; Win64; x64) AppleWebKit/537.36 (KHTML, like Gecko) Chrome/65.0.3325.146 Safari/537.36", "eventdata": [{"eventtype": "initialized", "interval": 0, "value": null, "timestamp": 1520626090417}, {"eventtype": "window_resize", "interval": 0, "value": [1920, 1033], "timestamp": 1520626090417}, {"eventtype": "window_resize", "interval": 5258, "value": [1920, 989], "timestamp": 1520626095675}, {"eventtype": "window_resize", "interval": 1455, "value": [1920, 1033], "timestamp": 1520626097130}, {"eventtype": "window_resize", "interval": 3410, "value": [1747, 860], "timestamp": 1520626100540}, {"eventtype": "focus", "interval": 399621, "value": "off", "timestamp": 1520626500161}, {"eventtype": "focus", "interval": 75706, "value": "on", "timestamp": 1520626575867}, {"eventtype": "focus", "interval": 81760, "value": "off", "timestamp": 1520626657627}, {"eventtype": "focus", "interval": 20114, "value": "on", "timestamp": 1520626677741}, {"eventtype": "focus", "interval": 267782, "value": "off", "timestamp": 1520626945523}, {"eventtype": "focus", "interval": 54084, "value": "on", "timestamp": 1520626999607}, {"eventtype": "focus", "interval": 92260, "value": "off", "timestamp": 1520627091867}, {"eventtype": "focus", "interval": 19637, "value": "on", "timestamp": 1520627111504}, {"eventtype": "focus", "interval": 43561, "value": "off", "timestamp": 1520627155065}, {"eventtype": "focus", "interval": 15048, "value": "on", "timestamp": 1520627170113}, {"eventtype": "focus", "interval": 178495, "value": "off", "timestamp": 1520627348608}, {"eventtype": "focus", "interval": 46051, "value": "on", "timestamp": 1520627394659}, {"eventtype": "focus", "interval": 26736, "value": "off", "timestamp": 1520627421395}, {"eventtype": "focus", "interval": 34781, "value": "on", "timestamp": 1520627456176}, {"eventtype": "focus", "interval": 34493, "value": "off", "timestamp": 1520627490669}, {"eventtype": "focus", "interval": 42348, "value": "on", "timestamp": 1520627533017}, {"eventtype": "focus", "interval": 27435, "value": "off", "timestamp": 1520627560452}, {"eventtype": "focus", "interval": 93061, "value": "on", "timestamp": 1520627653513}, {"eventtype": "focus", "interval": 19612, "value": "off", "timestamp": 1520627673125}, {"eventtype": "focus", "interval": 37378, "value": "on", "timestamp": 1520627710503}, {"eventtype": "focus", "interval": 10989, "value": "off", "timestamp": 1520627721492}, {"eventtype": "focus", "interval": 161227, "value": "on", "timestamp": 1520627882719}], "data": [{"current_trial": 0, "trialdata": {"rt": 7808, "trial_type": "text", "internal_node_id": "0.0-0.0", "time_elapsed": 7811, "key_press": 78, "type": "INSTRUCTIONS", "trial_index": 0}, "uniqueid": "MTK3512:3BQU611VFQR48SX29Q1QIHMRGAP99S", "dateTime": 1520626106291}, {"current_trial": 1, "trialdata": {"rt": 11, "trial_type": "text", "internal_node_id": "0.0-1.0", "time_elapsed": 7825, "key_press": 32, "type": "INSTRUCTIONS", "trial_index": 1}, "uniqueid": "MTK3512:3BQU611VFQR48SX29Q1QIHMRGAP99S", "dateTime": 1520626106303}, {"current_trial": 2, "trialdata": {"rt": [6399], "trial_type": "audio-test", "responses": ["ocean"], "internal_node_id": "0.0-2.0", "time_elapsed": 14246, "type": "AUDIO_TEST", "trial_index": 2}, "uniqueid": "MTK3512:3BQU611VFQR48SX29Q1QIHMRGAP99S", "dateTime": 1520626112724}, {"current_trial": 3, "trialdata": {"rt": [9773], "trial_type": "audio-test", "responses": ["crystal"], "internal_node_id": "0.0-3.0", "time_elapsed": 24022, "type": "AUDIO_TEST", "trial_index": 3}, "uniqueid": "MTK3512:3BQU611VFQR48SX29Q1QIHMRGAP99S", "dateTime": 1520626122500}, {"current_trial": 4, "trialdata": {"rt": [5431], "trial_type": "audio-test", "responses": ["spice"], "internal_node_id": "0.0-4.0", "time_elapsed": 29454, "type": "AUDIO_TEST", "trial_index": 4}, "uniqueid": "MTK3512:3BQU611VFQR48SX29Q1QIHMRGAP99S", "dateTime": 1520626127932}, {"current_trial": 5, "trialdata": {"rt": 20757, "trial_type": "survey-text", "responses": "{\"Q0\":\"1145pm\",\"Q1\":\"805am\",\"Q2\":\"2\"}", "internal_node_id": "0.0-5.0", "time_elapsed": 50966, "type": "SLEEP_SURVEY", "trial_index": 5}, "uniqueid": "MTK3512:3BQU611VFQR48SX29Q1QIHMRGAP99S", "dateTime": 1520626149444}, {"current_trial": 6, "trialdata": {"rt": 23719, "trial_type": "text", "internal_node_id": "0.0-6.0", "time_elapsed": 75687, "key_press": 32, "type": "INSTRUCTIONS", "trial_index": 6}, "uniqueid": "MTK3512:3BQU611VFQR48SX29Q1QIHMRGAP99S", "dateTime": 1520626174165}, {"current_trial": 7, "trialdata": {"rt": 13175, "trial_type": "text", "internal_node_id": "0.0-7.0", "time_elapsed": 89365, "key_press": 32, "type": "INSTRUCTIONS", "trial_index": 7}, "uniqueid": "MTK3512:3BQU611VFQR48SX29Q1QIHMRGAP99S", "dateTime": 1520626187843}, {"current_trial": 8, "trialdata": {"rt": 2972, "trial_type": "text", "internal_node_id": "0.0-8.0", "time_elapsed": 92838, "key_press": 32, "type": "INSTRUCTIONS", "trial_index": 8}, "uniqueid": "MTK3512:3BQU611VFQR48SX29Q1QIHMRGAP99S", "dateTime": 1520626191316}, {"current_trial": 9, "trialdata": {"rt": [4145, 6625, 8673, 11104, 13561, 15609], "trial_type": "math-distractor", "key_times": [3286, 3397, 4145, 6058, 6281, 6625, 8192, 8393, 8673, 10697, 10872, 11104, 12792, 12921, 13561, 14905, 15121, 15609], "responses": ["17", "15", "10", "20", "17", "18"], "num2": [8, 8, 3, 9, 5, 6, 3], "num3": [8, 2, 6, 3, 8, 8, 7], "conditions": [18, 1200, "a", 18000], "internal_node_id": "0.0-9.0", "key_presses": [97, 103, 13, 97, 101, 13, 97, 96, 13, 98, 96, 13, 97, 103, 13, 97, 104, 13], "trial": 0, "time_elapsed": 111848, "type": "DISTRACTOR", "trial_index": 9, "num1": [1, 5, 1, 8, 4, 4, 2]}, "uniqueid": "MTK3512:3BQU611VFQR48SX29Q1QIHMRGAP99S", "dateTime": 1520626210326}, {"current_trial": 10, "trialdata": {"rt": -1, "trial_type": "single-stim", "stimulus": "<p id=\"stim\">10</p>", "internal_node_id": "0.0-10.0-0.0", "time_elapsed": 114852, "key_press": -1, "trial_index": 10}, "uniqueid": "MTK3512:3BQU611VFQR48SX29Q1QIHMRGAP99S", "dateTime": 1520626213330}, {"current_trial": 11, "trialdata": {"rt": -1, "trial_type": "single-stim", "stimulus": "<p id=\"stim\">9</p>", "internal_node_id": "0.0-10.0-1.0", "time_elapsed": 115853, "key_press": -1, "trial_index": 11}, "uniqueid": "MTK3512:3BQU611VFQR48SX29Q1QIHMRGAP99S", "dateTime": 1520626214331}, {"current_trial": 12, "trialdata": {"rt": -1, "trial_type": "single-stim", "stimulus": "<p id=\"stim\">8</p>", "internal_node_id": "0.0-10.0-2.0", "time_elapsed": 116856, "key_press": -1, "trial_index": 12}, "uniqueid": "MTK3512:3BQU611VFQR48SX29Q1QIHMRGAP99S", "dateTime": 1520626215334}, {"current_trial": 13, "trialdata": {"rt": -1, "trial_type": "single-stim", "stimulus": "<p id=\"stim\">7</p>", "internal_node_id": "0.0-10.0-3.0", "time_elapsed": 117857, "key_press": -1, "trial_index": 13}, "uniqueid": "MTK3512:3BQU611VFQR48SX29Q1QIHMRGAP99S", "dateTime": 1520626216336}, {"current_trial": 14, "trialdata": {"rt": -1, "trial_type": "single-stim", "stimulus": "<p id=\"stim\">6</p>", "internal_node_id": "0.0-10.0-4.0", "time_elapsed": 118861, "key_press": -1, "trial_index": 14}, "uniqueid": "MTK3512:3BQU611VFQR48SX29Q1QIHMRGAP99S", "dateTime": 1520626217339}, {"current_trial": 15, "trialdata": {"rt": -1, "trial_type": "single-stim", "stimulus": "<p id=\"stim\">5</p>", "internal_node_id": "0.0-10.0-5.0", "time_elapsed": 119866, "key_press": -1, "trial_index": 15}, "uniqueid": "MTK3512:3BQU611VFQR48SX29Q1QIHMRGAP99S", "dateTime": 1520626218344}, {"current_trial": 16, "trialdata": {"rt": -1, "trial_type": "single-stim", "stimulus": "<p id=\"stim\">4</p>", "internal_node_id": "0.0-10.0-6.0", "time_elapsed": 120868, "key_press": -1, "trial_index": 16}, "uniqueid": "MTK3512:3BQU611VFQR48SX29Q1QIHMRGAP99S", "dateTime": 1520626219346}, {"current_trial": 17, "trialdata": {"rt": -1, "trial_type": "single-stim", "stimulus": "<p id=\"stim\">3</p>", "internal_node_id": "0.0-10.0-7.0", "time_elapsed": 121871, "key_press": -1, "trial_index": 17}, "uniqueid": "MTK3512:3BQU611VFQR48SX29Q1QIHMRGAP99S", "dateTime": 1520626220349}, {"current_trial": 18, "trialdata": {"rt": -1, "trial_type": "single-stim", "stimulus": "<p id=\"stim\">2</p>", "internal_node_id": "0.0-10.0-8.0", "time_elapsed": 122874, "key_press": -1, "trial_index": 18}, "uniqueid": "MTK3512:3BQU611VFQR48SX29Q1QIHMRGAP99S", "dateTime": 1520626221352}, {"current_trial": 19, "trialdata": {"rt": -1, "trial_type": "single-stim", "stimulus": "<p id=\"stim\">1</p>", "internal_node_id": "0.0-10.0-9.0", "time_elapsed": 123875, "key_press": -1, "trial_index": 19}, "uniqueid": "MTK3512:3BQU611VFQR48SX29Q1QIHMRGAP99S", "dateTime": 1520626222353}, {"current_trial": 20, "trialdata": {"rt": -1, "trial_type": "single-stim", "stimulus": "<p id=\"stim\">+</p>", "internal_node_id": "0.0-11.0-0.0", "time_elapsed": 125377, "key_press": -1, "type": "FIXATION", "trial_index": 20}, "uniqueid": "MTK3512:3BQU611VFQR48SX29Q1QIHMRGAP99S", "dateTime": 1520626223855}, {"current_trial": 21, "trialdata": {"rt": -1000, "trial_type": "single-audio", "word": "film", "stimulus": "/static/audio/wordpool/FILM.wav", "conditions": [18, 1200, "a", 18000], "internal_node_id": "0.0-12.0", "trial": 0, "time_elapsed": 127623, "serialpos": 0, "key_press": -1, "wordID": 564, "type": "PRES_AUD", "trial_index": 21}, "uniqueid": "MTK3512:3BQU611VFQR48SX29Q1QIHMRGAP99S", "dateTime": 1520626226101}, {"current_trial": 22, "trialdata": {"rt": -1000, "trial_type": "single-audio", "word": "transplant", "stimulus": "/static/audio/wordpool/TRANSPLANT.wav", "conditions": [18, 1200, "a", 18000], "internal_node_id": "0.0-13.0", "trial": 0, "time_elapsed": 129907, "serialpos": 1, "key_press": -1, "wordID": 1495, "type": "PRES_AUD", "trial_index": 22}, "uniqueid": "MTK3512:3BQU611VFQR48SX29Q1QIHMRGAP99S", "dateTime": 1520626228385}, {"current_trial": 23, "trialdata": {"rt": -1000, "trial_type": "single-audio", "word": "pigeon", "stimulus": "/static/audio/wordpool/PIGEON.wav", "conditions": [18, 1200, "a", 18000], "internal_node_id": "0.0-14.0", "trial": 0, "time_elapsed": 132242, "serialpos": 2, "key_press": -1, "wordID": 1064, "type": "PRES_AUD", "trial_index": 23}, "uniqueid": "MTK3512:3BQU611VFQR48SX29Q1QIHMRGAP99S", "dateTime": 1520626230721}, {"current_trial": 24, "trialdata": {"rt": -1000, "trial_type": "single-audio", "word": "dust", "stimulus": "/static/audio/wordpool/DUST.wav", "conditions": [18, 1200, "a", 18000], "internal_node_id": "0.0-15.0", "trial": 0, "time_elapsed": 134374, "serialpos": 3, "key_press": -1, "wordID": 507, "type": "PRES_AUD", "trial_index": 24}, "uniqueid": "MTK3512:3BQU611VFQR48SX29Q1QIHMRGAP99S", "dateTime": 1520626232852}, {"current_trial": 25, "trialdata": {"rt": -1000, "trial_type": "single-audio", "word": "briefcase", "stimulus": "/static/audio/wordpool/BRIEFCASE.wav", "conditions": [18, 1200, "a", 18000], "internal_node_id": "0.0-16.0", "trial": 0, "time_elapsed": 136749, "serialpos": 4, "key_press": -1, "wordID": 174, "type": "PRES_AUD", "trial_index": 25}, "uniqueid": "MTK3512:3BQU611VFQR48SX29Q1QIHMRGAP99S", "dateTime": 1520626235227}, {"current_trial": 26, "trialdata": {"rt": -1000, "trial_type": "single-audio", "word": "chipmunk", "stimulus": "/static/audio/wordpool/CHIPMUNK.wav", "conditions": [18, 1200, "a", 18000], "internal_node_id": "0.0-17.0", "trial": 0, "time_elapsed": 138837, "serialpos": 5, "key_press": -1, "wordID": 303, "type": "PRES_AUD", "trial_index": 26}, "uniqueid": "MTK3512:3BQU611VFQR48SX29Q1QIHMRGAP99S", "dateTime": 1520626237315}, {"current_trial": 27, "trialdata": {"rt": -1000, "trial_type": "single-audio", "word": "bullet", "stimulus": "/static/audio/wordpool/BULLET.wav", "conditions": [18, 1200, "a", 18000], "internal_node_id": "0.0-18.0", "trial": 0, "time_elapsed": 140894, "serialpos": 6, "key_press": -1, "wordID": 193, "type": "PRES_AUD", "trial_index": 27}, "uniqueid": "MTK3512:3BQU611VFQR48SX29Q1QIHMRGAP99S", "dateTime": 1520626239372}, {"current_trial": 28, "trialdata": {"rt": -1000, "trial_type": "single-audio", "word": "queen", "stimulus": "/static/audio/wordpool/QUEEN.wav", "conditions": [18, 1200, "a", 18000], "internal_node_id": "0.0-19.0", "trial": 0, "time_elapsed": 143213, "serialpos": 7, "key_press": -1, "wordID": 1148, "type": "PRES_AUD", "trial_index": 28}, "uniqueid": "MTK3512:3BQU611VFQR48SX29Q1QIHMRGAP99S", "dateTime": 1520626241691}, {"current_trial": 29, "trialdata": {"rt": -1000, "trial_type": "single-audio", "word": "crib", "stimulus": "/static/audio/wordpool/CRIB.wav", "conditions": [18, 1200, "a", 18000], "internal_node_id": "0.0-20.0", "trial": 0, "time_elapsed": 145490, "serialpos": 8, "key_press": -1, "wordID": 406, "type": "PRES_AUD", "trial_index": 29}, "uniqueid": "MTK3512:3BQU611VFQR48SX29Q1QIHMRGAP99S", "dateTime": 1520626243969}, {"current_trial": 30, "trialdata": {"rt": -1000, "trial_type": "single-audio", "word": "flesh", "stimulus": "/static/audio/wordpool/FLESH.wav", "conditions": [18, 1200, "a", 18000], "internal_node_id": "0.0-21.0", "trial": 0, "time_elapsed": 147789, "serialpos": 9, "key_press": -1, "wordID": 578, "type": "PRES_AUD", "trial_index": 30}, "uniqueid": "MTK3512:3BQU611VFQR48SX29Q1QIHMRGAP99S", "dateTime": 1520626246267}, {"current_trial": 31, "trialdata": {"rt": -1000, "trial_type": "single-audio", "word": "cupboard", "stimulus": "/static/audio/wordpool/CUPBOARD.wav", "conditions": [18, 1200, "a", 18000], "internal_node_id": "0.0-22.0", "trial": 0, "time_elapsed": 150077, "serialpos": 10, "key_press": -1, "wordID": 424, "type": "PRES_AUD", "trial_index": 31}, "uniqueid": "MTK3512:3BQU611VFQR48SX29Q1QIHMRGAP99S", "dateTime": 1520626248555}, {"current_trial": 32, "trialdata": {"rt": -1000, "trial_type": "single-audio", "word": "shirt", "stimulus": "/static/audio/wordpool/SHIRT.wav", "conditions": [18, 1200, "a", 18000], "internal_node_id": "0.0-23.0", "trial": 0, "time_elapsed": 152191, "serialpos": 11, "key_press": -1, "wordID": 1286, "type": "PRES_AUD", "trial_index": 32}, "uniqueid": "MTK3512:3BQU611VFQR48SX29Q1QIHMRGAP99S", "dateTime": 1520626250670}, {"current_trial": 33, "trialdata": {"rt": -1000, "trial_type": "single-audio", "word": "pistol", "stimulus": "/static/audio/wordpool/PISTOL.wav", "conditions": [18, 1200, "a", 18000], "internal_node_id": "0.0-24.0", "trial": 0, "time_elapsed": 154221, "serialpos": 12, "key_press": -1, "wordID": 1074, "type": "PRES_AUD", "trial_index": 33}, "uniqueid": "MTK3512:3BQU611VFQR48SX29Q1QIHMRGAP99S", "dateTime": 1520626252699}, {"current_trial": 34, "trialdata": {"rt": -1000, "trial_type": "single-audio", "word": "nurse", "stimulus": "/static/audio/wordpool/NURSE.wav", "conditions": [18, 1200, "a", 18000], "internal_node_id": "0.0-25.0", "trial": 0, "time_elapsed": 156433, "serialpos": 13, "key_press": -1, "wordID": 962, "type": "PRES_AUD", "trial_index": 34}, "uniqueid": "MTK3512:3BQU611VFQR48SX29Q1QIHMRGAP99S", "dateTime": 1520626254911}, {"current_trial": 35, "trialdata": {"rt": -1000, "trial_type": "single-audio", "word": "lion", "stimulus": "/static/audio/wordpool/LION.wav", "conditions": [18, 1200, "a", 18000], "internal_node_id": "0.0-26.0", "trial": 0, "time_elapsed": 158767, "serialpos": 14, "key_press": -1, "wordID": 826, "type": "PRES_AUD", "trial_index": 35}, "uniqueid": "MTK3512:3BQU611VFQR48SX29Q1QIHMRGAP99S", "dateTime": 1520626257246}, {"current_trial": 36, "trialdata": {"rt": -1000, "trial_type": "single-audio", "word": "lake", "stimulus": "/static/audio/wordpool/LAKE.wav", "conditions": [18, 1200, "a", 18000], "internal_node_id": "0.0-27.0", "trial": 0, "time_elapsed": 161159, "serialpos": 15, "key_press": -1, "wordID": 795, "type": "PRES_AUD", "trial_index": 36}, "uniqueid": "MTK3512:3BQU611VFQR48SX29Q1QIHMRGAP99S", "dateTime": 1520626259637}, {"current_trial": 37, "trialdata": {"rt": -1000, "trial_type": "single-audio", "word": "rebel", "stimulus": "/static/audio/wordpool/REBEL.wav", "conditions": [18, 1200, "a", 18000], "internal_node_id": "0.0-28.0", "trial": 0, "time_elapsed": 163471, "serialpos": 16, "key_press": -1, "wordID": 1171, "type": "PRES_AUD", "trial_index": 37}, "uniqueid": "MTK3512:3BQU611VFQR48SX29Q1QIHMRGAP99S", "dateTime": 1520626261949}, {"current_trial": 38, "trialdata": {"rt": -1000, "trial_type": "single-audio", "word": "mask", "stimulus": "/static/audio/wordpool/MASK.wav", "conditions": [18, 1200, "a", 18000], "internal_node_id": "0.0-29.0", "trial": 0, "time_elapsed": 165631, "serialpos": 17, "key_press": -1, "wordID": 875, "type": "PRES_AUD", "trial_index": 38}, "uniqueid": "MTK3512:3BQU611VFQR48SX29Q1QIHMRGAP99S", "dateTime": 1520626264109}, {"current_trial": 39, "trialdata": {"rt": -1, "trial_type": "single-stim", "stimulus": "", "internal_node_id": "0.0-30.0-0.0", "time_elapsed": 167029, "key_press": -1, "type": "PRE_RECALL_DELAY", "trial_index": 39}, "uniqueid": "MTK3512:3BQU611VFQR48SX29Q1QIHMRGAP99S", "dateTime": 1520626265507}, {"current_trial": 40, "trialdata": {"rt": -1000, "trial_type": "single-audio", "stimulus": "/static/audio/400Hz.wav", "internal_node_id": "0.0-31.0", "time_elapsed": 167531, "key_press": -1, "type": "PRE_RECALL_ALERT", "trial_index": 40}, "uniqueid": "MTK3512:3BQU611VFQR48SX29Q1QIHMRGAP99S", "dateTime": 1520626266009}, {"current_trial": 41, "trialdata": {"rt": [4784, 8000, 10079, 11823, 12806, 16344, 18575, 21945, 31376, 34575, 45439, 53063], "recwords": ["pigeon", "breifcase", "pistol", "gun", "shirt", "lion", "chimpmunk", "lamp", "tshirt", "gun", "transplant", ""], "key_times": [1937, 2034, 2165, 2289, 2290, 2433, 2977, 3105, 3321, 3323, 3394, 3745, 3889, 4568, 4784, 5961, 6072, 6712, 6864, 7020, 7302, 7408, 7592, 7680, 8000, 8592, 8720, 8808, 8959, 9135, 9631, 10079, 11088, 11239, 11439, 11823, 12071, 12183, 12299, 12394, 12543, 12806, 15664, 15848, 15928, 16135, 16344, 16663, 16767, 16831, 17015, 17215, 17706, 17847, 17959, 18113, 18575, 20914, 21416, 21536, 21664, 21945, 30723, 30879, 31003, 31081, 31128, 31272, 31376, 34183, 34280, 34380, 34575, 43644, 43808, 43913, 44049, 44151, 44432, 44607, 44743, 44936, 45040, 45439, 53063], "trial_type": "free-recall", "conditions": [18, 1200, "a", 18000], "internal_node_id": "0.0-32.0-0.0", "key_presses": [80, 73, 71, 69, 82, 79, 8, 8, 79, 80, 78, 8, 8, 78, 13, 66, 82, 69, 73, 70, 67, 65, 83, 69, 13, 80, 73, 83, 84, 79, 76, 13, 71, 85, 78, 13, 83, 72, 73, 82, 84, 13, 76, 73, 79, 78, 13, 67, 72, 73, 77, 80, 77, 85, 78, 75, 13, 76, 65, 77, 80, 13, 84, 83, 72, 73, 82, 84, 13, 71, 85, 78, 13, 84, 82, 65, 78, 83, 80, 76, 65, 78, 84, 13, 13], "trial": 0, "time_elapsed": 227533, "type": "FREE_RECALL", "trial_index": 41}, "uniqueid": "MTK3512:3BQU611VFQR48SX29Q1QIHMRGAP99S", "dateTime": 1520626326016}, {"current_trial": 42, "trialdata": {"rt": 2120, "trial_type": "text", "internal_node_id": "0.0-33.0", "time_elapsed": 231659, "key_press": 13, "type": "INSTRUCTIONS", "trial_index": 42}, "uniqueid": "MTK3512:3BQU611VFQR48SX29Q1QIHMRGAP99S", "dateTime": 1520626330137}, {"current_trial": 43, "trialdata": {"rt": [3484, 5780, 7661, 9476, 10933, 14724, 16565], "trial_type": "math-distractor", "key_times": [2577, 2613, 3484, 5486, 5645, 5780, 7253, 7429, 7661, 9233, 9312, 9476, 10612, 10933, 14333, 14444, 14724, 16137, 16326, 16565], "responses": ["16", "11", "14", "12", "3", "18", "17"], "num2": [5, 6, 8, 2, 1, 5, 9, 7], "num3": [6, 3, 5, 2, 1, 6, 1, 6], "conditions": [18, 1200, "a", 18000], "internal_node_id": "0.0-34.0", "key_presses": [97, 102, 13, 97, 97, 13, 97, 100, 13, 97, 98, 13, 99, 13, 97, 104, 13, 97, 103, 13], "trial": 1, "time_elapsed": 251664, "type": "DISTRACTOR", "trial_index": 43, "num1": [5, 2, 1, 8, 1, 6, 7, 6]}, "uniqueid": "MTK3512:3BQU611VFQR48SX29Q1QIHMRGAP99S", "dateTime": 1520626350142}, {"current_trial": 44, "trialdata": {"rt": -1, "trial_type": "single-stim", "stimulus": "<p id=\"stim\">10</p>", "internal_node_id": "0.0-35.0-0.0", "time_elapsed": 254664, "key_press": -1, "trial_index": 44}, "uniqueid": "MTK3512:3BQU611VFQR48SX29Q1QIHMRGAP99S", "dateTime": 1520626353142}, {"current_trial": 45, "trialdata": {"rt": -1, "trial_type": "single-stim", "stimulus": "<p id=\"stim\">9</p>", "internal_node_id": "0.0-35.0-1.0", "time_elapsed": 255666, "key_press": -1, "trial_index": 45}, "uniqueid": "MTK3512:3BQU611VFQR48SX29Q1QIHMRGAP99S", "dateTime": 1520626354144}, {"current_trial": 46, "trialdata": {"rt": -1, "trial_type": "single-stim", "stimulus": "<p id=\"stim\">8</p>", "internal_node_id": "0.0-35.0-2.0", "time_elapsed": 256668, "key_press": -1, "trial_index": 46}, "uniqueid": "MTK3512:3BQU611VFQR48SX29Q1QIHMRGAP99S", "dateTime": 1520626355146}, {"current_trial": 47, "trialdata": {"rt": -1, "trial_type": "single-stim", "stimulus": "<p id=\"stim\">7</p>", "internal_node_id": "0.0-35.0-3.0", "time_elapsed": 257671, "key_press": -1, "trial_index": 47}, "uniqueid": "MTK3512:3BQU611VFQR48SX29Q1QIHMRGAP99S", "dateTime": 1520626356149}, {"current_trial": 48, "trialdata": {"rt": -1, "trial_type": "single-stim", "stimulus": "<p id=\"stim\">6</p>", "internal_node_id": "0.0-35.0-4.0", "time_elapsed": 258672, "key_press": -1, "trial_index": 48}, "uniqueid": "MTK3512:3BQU611VFQR48SX29Q1QIHMRGAP99S", "dateTime": 1520626357150}, {"current_trial": 49, "trialdata": {"rt": -1, "trial_type": "single-stim", "stimulus": "<p id=\"stim\">5</p>", "internal_node_id": "0.0-35.0-5.0", "time_elapsed": 259673, "key_press": -1, "trial_index": 49}, "uniqueid": "MTK3512:3BQU611VFQR48SX29Q1QIHMRGAP99S", "dateTime": 1520626358152}, {"current_trial": 50, "trialdata": {"rt": -1, "trial_type": "single-stim", "stimulus": "<p id=\"stim\">4</p>", "internal_node_id": "0.0-35.0-6.0", "time_elapsed": 260675, "key_press": -1, "trial_index": 50}, "uniqueid": "MTK3512:3BQU611VFQR48SX29Q1QIHMRGAP99S", "dateTime": 1520626359153}, {"current_trial": 51, "trialdata": {"rt": -1, "trial_type": "single-stim", "stimulus": "<p id=\"stim\">3</p>", "internal_node_id": "0.0-35.0-7.0", "time_elapsed": 261677, "key_press": -1, "trial_index": 51}, "uniqueid": "MTK3512:3BQU611VFQR48SX29Q1QIHMRGAP99S", "dateTime": 1520626360155}, {"current_trial": 52, "trialdata": {"rt": -1, "trial_type": "single-stim", "stimulus": "<p id=\"stim\">2</p>", "internal_node_id": "0.0-35.0-8.0", "time_elapsed": 262678, "key_press": -1, "trial_index": 52}, "uniqueid": "MTK3512:3BQU611VFQR48SX29Q1QIHMRGAP99S", "dateTime": 1520626361156}, {"current_trial": 53, "trialdata": {"rt": -1, "trial_type": "single-stim", "stimulus": "<p id=\"stim\">1</p>", "internal_node_id": "0.0-35.0-9.0", "time_elapsed": 263680, "key_press": -1, "trial_index": 53}, "uniqueid": "MTK3512:3BQU611VFQR48SX29Q1QIHMRGAP99S", "dateTime": 1520626362158}, {"current_trial": 54, "trialdata": {"rt": -1, "trial_type": "single-stim", "stimulus": "<p id=\"stim\">+</p>", "internal_node_id": "0.0-36.0-0.0", "time_elapsed": 265182, "key_press": -1, "type": "FIXATION", "trial_index": 54}, "uniqueid": "MTK3512:3BQU611VFQR48SX29Q1QIHMRGAP99S", "dateTime": 1520626363660}, {"current_trial": 55, "trialdata": {"rt": -1000, "trial_type": "single-audio", "word": "maple", "stimulus": "/static/audio/wordpool/MAPLE.wav", "conditions": [18, 1200, "a", 18000], "internal_node_id": "0.0-37.0", "trial": 1, "time_elapsed": 267493, "serialpos": 0, "key_press": -1, "wordID": 865, "type": "PRES_AUD", "trial_index": 55}, "uniqueid": "MTK3512:3BQU611VFQR48SX29Q1QIHMRGAP99S", "dateTime": 1520626365971}, {"current_trial": 56, "trialdata": {"rt": -1000, "trial_type": "single-audio", "word": "whistle", "stimulus": "/static/audio/wordpool/WHISTLE.wav", "conditions": [18, 1200, "a", 18000], "internal_node_id": "0.0-38.0", "trial": 1, "time_elapsed": 269503, "serialpos": 1, "key_press": -1, "wordID": 1605, "type": "PRES_AUD", "trial_index": 56}, "uniqueid": "MTK3512:3BQU611VFQR48SX29Q1QIHMRGAP99S", "dateTime": 1520626367981}, {"current_trial": 57, "trialdata": {"rt": -1000, "trial_type": "single-audio", "word": "apple", "stimulus": "/static/audio/wordpool/APPLE.wav", "conditions": [18, 1200, "a", 18000], "internal_node_id": "0.0-39.0", "trial": 1, "time_elapsed": 271829, "serialpos": 2, "key_press": -1, "wordID": 32, "type": "PRES_AUD", "trial_index": 57}, "uniqueid": "MTK3512:3BQU611VFQR48SX29Q1QIHMRGAP99S", "dateTime": 1520626370307}, {"current_trial": 58, "trialdata": {"rt": -1000, "trial_type": "single-audio", "word": "quail", "stimulus": "/static/audio/wordpool/QUAIL.wav", "conditions": [18, 1200, "a", 18000], "internal_node_id": "0.0-40.0", "trial": 1, "time_elapsed": 274034, "serialpos": 3, "key_press": -1, "wordID": 1146, "type": "PRES_AUD", "trial_index": 58}, "uniqueid": "MTK3512:3BQU611VFQR48SX29Q1QIHMRGAP99S", "dateTime": 1520626372512}, {"current_trial": 59, "trialdata": {"rt": -1000, "trial_type": "single-audio", "word": "frame", "stimulus": "/static/audio/wordpool/FRAME.wav", "conditions": [18, 1200, "a", 18000], "internal_node_id": "0.0-41.0", "trial": 1, "time_elapsed": 276210, "serialpos": 4, "key_press": -1, "wordID": 599, "type": "PRES_AUD", "trial_index": 59}, "uniqueid": "MTK3512:3BQU611VFQR48SX29Q1QIHMRGAP99S", "dateTime": 1520626374688}, {"current_trial": 60, "trialdata": {"rt": -1000, "trial_type": "single-audio", "word": "breast", "stimulus": "/static/audio/wordpool/BREAST.wav", "conditions": [18, 1200, "a", 18000], "internal_node_id": "0.0-42.0", "trial": 1, "time_elapsed": 278611, "serialpos": 5, "key_press": -1, "wordID": 170, "type": "PRES_AUD", "trial_index": 60}, "uniqueid": "MTK3512:3BQU611VFQR48SX29Q1QIHMRGAP99S", "dateTime": 1520626377089}, {"current_trial": 61, "trialdata": {"rt": -1000, "trial_type": "single-audio", "word": "fireman", "stimulus": "/static/audio/wordpool/FIREMAN.wav", "conditions": [18, 1200, "a", 18000], "internal_node_id": "0.0-43.0", "trial": 1, "time_elapsed": 280907, "serialpos": 6, "key_press": -1, "wordID": 568, "type": "PRES_AUD", "trial_index": 61}, "uniqueid": "MTK3512:3BQU611VFQR48SX29Q1QIHMRGAP99S", "dateTime": 1520626379385}, {"current_trial": 62, "trialdata": {"rt": -1000, "trial_type": "single-audio", "word": "dresser", "stimulus": "/static/audio/wordpool/DRESSER.wav", "conditions": [18, 1200, "a", 18000], "internal_node_id": "0.0-44.0", "trial": 1, "time_elapsed": 283286, "serialpos": 7, "key_press": -1, "wordID": 495, "type": "PRES_AUD", "trial_index": 62}, "uniqueid": "MTK3512:3BQU611VFQR48SX29Q1QIHMRGAP99S", "dateTime": 1520626381764}, {"current_trial": 63, "trialdata": {"rt": -1000, "trial_type": "single-audio", "word": "sandwich", "stimulus": "/static/audio/wordpool/SANDWICH.wav", "conditions": [18, 1200, "a", 18000], "internal_node_id": "0.0-45.0", "trial": 1, "time_elapsed": 285332, "serialpos": 8, "key_press": -1, "wordID": 1231, "type": "PRES_AUD", "trial_index": 63}, "uniqueid": "MTK3512:3BQU611VFQR48SX29Q1QIHMRGAP99S", "dateTime": 1520626383810}, {"current_trial": 64, "trialdata": {"rt": -1000, "trial_type": "single-audio", "word": "princess", "stimulus": "/static/audio/wordpool/PRINCESS.wav", "conditions": [18, 1200, "a", 18000], "internal_node_id": "0.0-46.0", "trial": 1, "time_elapsed": 287562, "serialpos": 9, "key_press": -1, "wordID": 1124, "type": "PRES_AUD", "trial_index": 64}, "uniqueid": "MTK3512:3BQU611VFQR48SX29Q1QIHMRGAP99S", "dateTime": 1520626386040}, {"current_trial": 65, "trialdata": {"rt": -1000, "trial_type": "single-audio", "word": "money", "stimulus": "/static/audio/wordpool/MONEY.wav", "conditions": [18, 1200, "a", 18000], "internal_node_id": "0.0-47.0", "trial": 1, "time_elapsed": 289768, "serialpos": 10, "key_press": -1, "wordID": 907, "type": "PRES_AUD", "trial_index": 65}, "uniqueid": "MTK3512:3BQU611VFQR48SX29Q1QIHMRGAP99S", "dateTime": 1520626388246}, {"current_trial": 66, "trialdata": {"rt": -1000, "trial_type": "single-audio", "word": "message", "stimulus": "/static/audio/wordpool/MESSAGE.wav", "conditions": [18, 1200, "a", 18000], "internal_node_id": "0.0-48.0", "trial": 1, "time_elapsed": 291794, "serialpos": 11, "key_press": -1, "wordID": 887, "type": "PRES_AUD", "trial_index": 66}, "uniqueid": "MTK3512:3BQU611VFQR48SX29Q1QIHMRGAP99S", "dateTime": 1520626390272}, {"current_trial": 67, "trialdata": {"rt": -1000, "trial_type": "single-audio", "word": "canal", "stimulus": "/static/audio/wordpool/CANAL.wav", "conditions": [18, 1200, "a", 18000], "internal_node_id": "0.0-49.0", "trial": 1, "time_elapsed": 294039, "serialpos": 12, "key_press": -1, "wordID": 225, "type": "PRES_AUD", "trial_index": 67}, "uniqueid": "MTK3512:3BQU611VFQR48SX29Q1QIHMRGAP99S", "dateTime": 1520626392517}, {"current_trial": 68, "trialdata": {"rt": -1000, "trial_type": "single-audio", "word": "eagle", "stimulus": "/static/audio/wordpool/EAGLE.wav", "conditions": [18, 1200, "a", 18000], "internal_node_id": "0.0-50.0", "trial": 1, "time_elapsed": 296095, "serialpos": 13, "key_press": -1, "wordID": 511, "type": "PRES_AUD", "trial_index": 68}, "uniqueid": "MTK3512:3BQU611VFQR48SX29Q1QIHMRGAP99S", "dateTime": 1520626394578}, {"current_trial": 69, "trialdata": {"rt": -1000, "trial_type": "single-audio", "word": "mister", "stimulus": "/static/audio/wordpool/MISTER.wav", "conditions": [18, 1200, "a", 18000], "internal_node_id": "0.0-51.0", "trial": 1, "time_elapsed": 298307, "serialpos": 14, "key_press": -1, "wordID": 900, "type": "PRES_AUD", "trial_index": 69}, "uniqueid": "MTK3512:3BQU611VFQR48SX29Q1QIHMRGAP99S", "dateTime": 1520626396785}, {"current_trial": 70, "trialdata": {"rt": -1000, "trial_type": "single-audio", "word": "drawing", "stimulus": "/static/audio/wordpool/DRAWING.wav", "conditions": [18, 1200, "a", 18000], "internal_node_id": "0.0-52.0", "trial": 1, "time_elapsed": 300330, "serialpos": 15, "key_press": -1, "wordID": 493, "type": "PRES_AUD", "trial_index": 70}, "uniqueid": "MTK3512:3BQU611VFQR48SX29Q1QIHMRGAP99S", "dateTime": 1520626398808}, {"current_trial": 71, "trialdata": {"rt": -1000, "trial_type": "single-audio", "word": "valley", "stimulus": "/static/audio/wordpool/VALLEY.wav", "conditions": [18, 1200, "a", 18000], "internal_node_id": "0.0-53.0", "trial": 1, "time_elapsed": 302502, "serialpos": 16, "key_press": -1, "wordID": 1544, "type": "PRES_AUD", "trial_index": 71}, "uniqueid": "MTK3512:3BQU611VFQR48SX29Q1QIHMRGAP99S", "dateTime": 1520626400980}, {"current_trial": 72, "trialdata": {"rt": -1000, "trial_type": "single-audio", "word": "cowboy", "stimulus": "/static/audio/wordpool/COWBOY.wav", "conditions": [18, 1200, "a", 18000], "internal_node_id": "0.0-54.0", "trial": 1, "time_elapsed": 304671, "serialpos": 17, "key_press": -1, "wordID": 394, "type": "PRES_AUD", "trial_index": 72}, "uniqueid": "MTK3512:3BQU611VFQR48SX29Q1QIHMRGAP99S", "dateTime": 1520626403149}, {"current_trial": 73, "trialdata": {"rt": -1, "trial_type": "single-stim", "stimulus": "", "internal_node_id": "0.0-55.0-0.0", "time_elapsed": 306011, "key_press": -1, "type": "PRE_RECALL_DELAY", "trial_index": 73}, "uniqueid": "MTK3512:3BQU611VFQR48SX29Q1QIHMRGAP99S", "dateTime": 1520626404489}, {"current_trial": 74, "trialdata": {"rt": -1000, "trial_type": "single-audio", "stimulus": "/static/audio/400Hz.wav", "internal_node_id": "0.0-56.0", "time_elapsed": 306514, "key_press": -1, "type": "PRE_RECALL_ALERT", "trial_index": 74}, "uniqueid": "MTK3512:3BQU611VFQR48SX29Q1QIHMRGAP99S", "dateTime": 1520626404992}, {"current_trial": 75, "trialdata": {"rt": [1271, 3790, 5437, 8982, 16741, 20742, 26438, 32981, 38909, 59517], "recwords": ["", "cowboy", "drawing", "dresser", "eagle", "maple", "quail", "sandwich", "fireman", "flashlight"], "key_times": [1271, 2318, 2974, 3113, 3317, 3477, 3638, 3790, 4376, 4598, 4709, 4854, 5017, 5152, 5254, 5437, 5974, 6182, 6269, 6486, 6678, 6798, 7379, 7614, 7707, 7799, 8222, 8390, 8510, 8566, 8749, 8982, 15935, 16049, 16285, 16409, 16591, 16741, 19626, 19974, 20166, 20266, 20405, 20494, 20605, 20742, 25358, 25526, 25690, 25894, 26064, 26438, 31742, 31887, 32110, 32191, 32337, 32455, 32670, 32798, 32981, 37942, 38054, 38166, 38246, 38598, 38662, 38773, 38909, 57813, 57932, 58044, 58117, 58245, 58557, 58661, 58733, 58901, 59045, 59517], "trial_type": "free-recall", "conditions": [18, 1200, "a", 18000], "internal_node_id": "0.0-57.0-0.0", "key_presses": [32, 67, 79, 87, 66, 79, 89, 13, 68, 82, 65, 87, 73, 78, 71, 13, 68, 82, 69, 83, 83, 69, 8, 8, 69, 82, 8, 8, 83, 69, 82, 13, 69, 65, 71, 76, 69, 13, 65, 8, 77, 65, 80, 76, 69, 13, 81, 85, 65, 73, 76, 13, 83, 65, 78, 68, 87, 73, 67, 72, 13, 70, 73, 82, 69, 77, 65, 78, 13, 70, 76, 65, 83, 72, 76, 73, 71, 72, 84, 13], "trial": 1, "time_elapsed": 366517, "type": "FREE_RECALL", "trial_index": 75}, "uniqueid": "MTK3512:3BQU611VFQR48SX29Q1QIHMRGAP99S", "dateTime": 1520626464999}, {"current_trial": 76, "trialdata": {"rt": 1712, "trial_type": "text", "internal_node_id": "0.0-58.0", "time_elapsed": 370233, "key_press": 13, "type": "INSTRUCTIONS", "trial_index": 76}, "uniqueid": "MTK3512:3BQU611VFQR48SX29Q1QIHMRGAP99S", "dateTime": 1520626468711}, {"current_trial": 77, "trialdata": {"rt": [2284, 4741, 8228, 11229, 18501, 20101, 23917], "trial_type": "math-distractor", "key_times": [1938, 2005, 2284, 4249, 4381, 4741, 7934, 8016, 8228, 10789, 10928, 11229, 18198, 18360, 18501, 19821, 20101, 23285, 23469, 23917], "responses": ["19", "17", "13", "17", "22", "9", "13"], "num2": [7, 6, 4, 5, 8, 4, 2, 2], "num3": [9, 8, 7, 3, 6, 1, 6, 4], "conditions": [24, 1600, "a", 24000], "internal_node_id": "0.0-59.0", "key_presses": [97, 105, 13, 97, 103, 13, 97, 99, 13, 97, 103, 13, 98, 98, 13, 105, 13, 97, 99, 13], "trial": 2, "time_elapsed": 395237, "type": "DISTRACTOR", "trial_index": 77, "num1": [3, 3, 2, 9, 7, 4, 5, 4]}, "uniqueid": "MTK3512:3BQU611VFQR48SX29Q1QIHMRGAP99S", "dateTime": 1520626493715}, {"current_trial": 78, "trialdata": {"rt": -1, "trial_type": "single-stim", "stimulus": "<p id=\"stim\">10</p>", "internal_node_id": "0.0-60.0-0.0", "time_elapsed": 398239, "key_press": -1, "trial_index": 78}, "uniqueid": "MTK3512:3BQU611VFQR48SX29Q1QIHMRGAP99S", "dateTime": 1520626496718}, {"current_trial": 79, "trialdata": {"rt": -1, "trial_type": "single-stim", "stimulus": "<p id=\"stim\">9</p>", "internal_node_id": "0.0-60.0-1.0", "time_elapsed": 399241, "key_press": -1, "trial_index": 79}, "uniqueid": "MTK3512:3BQU611VFQR48SX29Q1QIHMRGAP99S", "dateTime": 1520626497719}, {"current_trial": 80, "trialdata": {"rt": -1, "trial_type": "single-stim", "stimulus": "<p id=\"stim\">8</p>", "internal_node_id": "0.0-60.0-2.0", "time_elapsed": 400243, "key_press": -1, "trial_index": 80}, "uniqueid": "MTK3512:3BQU611VFQR48SX29Q1QIHMRGAP99S", "dateTime": 1520626498721}, {"current_trial": 81, "trialdata": {"rt": -1, "trial_type": "single-stim", "stimulus": "<p id=\"stim\">7</p>", "internal_node_id": "0.0-60.0-3.0", "time_elapsed": 401244, "key_press": -1, "trial_index": 81}, "uniqueid": "MTK3512:3BQU611VFQR48SX29Q1QIHMRGAP99S", "dateTime": 1520626499722}, {"current_trial": 82, "trialdata": {"rt": -1, "trial_type": "single-stim", "stimulus": "<p id=\"stim\">6</p>", "internal_node_id": "0.0-60.0-4.0", "time_elapsed": 402246, "key_press": -1, "trial_index": 82}, "uniqueid": "MTK3512:3BQU611VFQR48SX29Q1QIHMRGAP99S", "dateTime": 1520626500724}, {"current_trial": 83, "trialdata": {"rt": -1, "trial_type": "single-stim", "stimulus": "<p id=\"stim\">5</p>", "internal_node_id": "0.0-60.0-5.0", "time_elapsed": 403247, "key_press": -1, "trial_index": 83}, "uniqueid": "MTK3512:3BQU611VFQR48SX29Q1QIHMRGAP99S", "dateTime": 1520626501725}, {"current_trial": 84, "trialdata": {"rt": -1, "trial_type": "single-stim", "stimulus": "<p id=\"stim\">4</p>", "internal_node_id": "0.0-60.0-6.0", "time_elapsed": 404249, "key_press": -1, "trial_index": 84}, "uniqueid": "MTK3512:3BQU611VFQR48SX29Q1QIHMRGAP99S", "dateTime": 1520626502727}, {"current_trial": 85, "trialdata": {"rt": -1, "trial_type": "single-stim", "stimulus": "<p id=\"stim\">3</p>", "internal_node_id": "0.0-60.0-7.0", "time_elapsed": 405251, "key_press": -1, "trial_index": 85}, "uniqueid": "MTK3512:3BQU611VFQR48SX29Q1QIHMRGAP99S", "dateTime": 1520626503729}, {"current_trial": 86, "trialdata": {"rt": -1, "trial_type": "single-stim", "stimulus": "<p id=\"stim\">2</p>", "internal_node_id": "0.0-60.0-8.0", "time_elapsed": 406252, "key_press": -1, "trial_index": 86}, "uniqueid": "MTK3512:3BQU611VFQR48SX29Q1QIHMRGAP99S", "dateTime": 1520626504730}, {"current_trial": 87, "trialdata": {"rt": -1, "trial_type": "single-stim", "stimulus": "<p id=\"stim\">1</p>", "internal_node_id": "0.0-60.0-9.0", "time_elapsed": 407253, "key_press": -1, "trial_index": 87}, "uniqueid": "MTK3512:3BQU611VFQR48SX29Q1QIHMRGAP99S", "dateTime": 1520626505731}, {"current_trial": 88, "trialdata": {"rt": -1, "trial_type": "single-stim", "stimulus": "<p id=\"stim\">+</p>", "internal_node_id": "0.0-61.0-0.0", "time_elapsed": 408754, "key_press": -1, "type": "FIXATION", "trial_index": 88}, "uniqueid": "MTK3512:3BQU611VFQR48SX29Q1QIHMRGAP99S", "dateTime": 1520626507232}, {"current_trial": 89, "trialdata": {"rt": -1000, "trial_type": "single-audio", "word": "jelly", "stimulus": "/static/audio/wordpool/JELLY.wav", "conditions": [24, 1600, "a", 24000], "internal_node_id": "0.0-62.0", "trial": 2, "time_elapsed": 411237, "serialpos": 0, "key_press": -1, "wordID": 754, "type": "PRES_AUD", "trial_index": 89}, "uniqueid": "MTK3512:3BQU611VFQR48SX29Q1QIHMRGAP99S", "dateTime": 1520626509715}, {"current_trial": 90, "trialdata": {"rt": -1000, "trial_type": "single-audio", "word": "washer", "stimulus": "/static/audio/wordpool/WASHER.wav", "conditions": [24, 1600, "a", 24000], "internal_node_id": "0.0-63.0", "trial": 2, "time_elapsed": 413991, "serialpos": 1, "key_press": -1, "wordID": 1591, "type": "PRES_AUD", "trial_index": 90}, "uniqueid": "MTK3512:3BQU611VFQR48SX29Q1QIHMRGAP99S", "dateTime": 1520626512470}, {"current_trial": 91, "trialdata": {"rt": -1000, "trial_type": "single-audio", "word": "stomach", "stimulus": "/static/audio/wordpool/STOMACH.wav", "conditions": [24, 1600, "a", 24000], "internal_node_id": "0.0-64.0", "trial": 2, "time_elapsed": 416399, "serialpos": 2, "key_press": -1, "wordID": 1383, "type": "PRES_AUD", "trial_index": 91}, "uniqueid": "MTK3512:3BQU611VFQR48SX29Q1QIHMRGAP99S", "dateTime": 1520626514877}, {"current_trial": 92, "trialdata": {"rt": -1000, "trial_type": "single-audio", "word": "jello", "stimulus": "/static/audio/wordpool/JELLO.wav", "conditions": [24, 1600, "a", 24000], "internal_node_id": "0.0-65.0", "trial": 2, "time_elapsed": 418898, "serialpos": 3, "key_press": -1, "wordID": 753, "type": "PRES_AUD", "trial_index": 92}, "uniqueid": "MTK3512:3BQU611VFQR48SX29Q1QIHMRGAP99S", "dateTime": 1520626517376}, {"current_trial": 93, "trialdata": {"rt": -1000, "trial_type": "single-audio", "word": "citrus", "stimulus": "/static/audio/wordpool/CITRUS.wav", "conditions": [24, 1600, "a", 24000], "internal_node_id": "0.0-66.0", "trial": 2, "time_elapsed": 421371, "serialpos": 4, "key_press": -1, "wordID": 312, "type": "PRES_AUD", "trial_index": 93}, "uniqueid": "MTK3512:3BQU611VFQR48SX29Q1QIHMRGAP99S", "dateTime": 1520626519849}, {"current_trial": 94, "trialdata": {"rt": -1000, "trial_type": "single-audio", "word": "pecan", "stimulus": "/static/audio/wordpool/PECAN.wav", "conditions": [24, 1600, "a", 24000], "internal_node_id": "0.0-67.0", "trial": 2, "time_elapsed": 423938, "serialpos": 5, "key_press": -1, "wordID": 1035, "type": "PRES_AUD", "trial_index": 94}, "uniqueid": "MTK3512:3BQU611VFQR48SX29Q1QIHMRGAP99S", "dateTime": 1520626522417}, {"current_trial": 95, "trialdata": {"rt": -1000, "trial_type": "single-audio", "word": "champagne", "stimulus": "/static/audio/wordpool/CHAMPAGNE.wav", "conditions": [24, 1600, "a", 24000], "internal_node_id": "0.0-68.0", "trial": 2, "time_elapsed": 426678, "serialpos": 6, "key_press": -1, "wordID": 277, "type": "PRES_AUD", "trial_index": 95}, "uniqueid": "MTK3512:3BQU611VFQR48SX29Q1QIHMRGAP99S", "dateTime": 1520626525156}, {"current_trial": 96, "trialdata": {"rt": -1000, "trial_type": "single-audio", "word": "lamp", "stimulus": "/static/audio/wordpool/LAMP.wav", "conditions": [24, 1600, "a", 24000], "internal_node_id": "0.0-69.0", "trial": 2, "time_elapsed": 429123, "serialpos": 7, "key_press": -1, "wordID": 797, "type": "PRES_AUD", "trial_index": 96}, "uniqueid": "MTK3512:3BQU611VFQR48SX29Q1QIHMRGAP99S", "dateTime": 1520626527601}, {"current_trial": 97, "trialdata": {"rt": -1000, "trial_type": "single-audio", "word": "yacht", "stimulus": "/static/audio/wordpool/YACHT.wav", "conditions": [24, 1600, "a", 24000], "internal_node_id": "0.0-70.0", "trial": 2, "time_elapsed": 431681, "serialpos": 8, "key_press": -1, "wordID": 1628, "type": "PRES_AUD", "trial_index": 97}, "uniqueid": "MTK3512:3BQU611VFQR48SX29Q1QIHMRGAP99S", "dateTime": 1520626530159}, {"current_trial": 98, "trialdata": {"rt": -1000, "trial_type": "single-audio", "word": "cyclone", "stimulus": "/static/audio/wordpool/CYCLONE.wav", "conditions": [24, 1600, "a", 24000], "internal_node_id": "0.0-71.0", "trial": 2, "time_elapsed": 434449, "serialpos": 9, "key_press": -1, "wordID": 430, "type": "PRES_AUD", "trial_index": 98}, "uniqueid": "MTK3512:3BQU611VFQR48SX29Q1QIHMRGAP99S", "dateTime": 1520626532927}, {"current_trial": 99, "trialdata": {"rt": -1000, "trial_type": "single-audio", "word": "raft", "stimulus": "/static/audio/wordpool/RAFT.wav", "conditions": [24, 1600, "a", 24000], "internal_node_id": "0.0-72.0", "trial": 2, "time_elapsed": 437056, "serialpos": 10, "key_press": -1, "wordID": 1158, "type": "PRES_AUD", "trial_index": 99}, "uniqueid": "MTK3512:3BQU611VFQR48SX29Q1QIHMRGAP99S", "dateTime": 1520626535534}, {"current_trial": 100, "trialdata": {"rt": -1000, "trial_type": "single-audio", "word": "motel", "stimulus": "/static/audio/wordpool/MOTEL.wav", "conditions": [24, 1600, "a", 24000], "internal_node_id": "0.0-73.0", "trial": 2, "time_elapsed": 439815, "serialpos": 11, "key_press": -1, "wordID": 918, "type": "PRES_AUD", "trial_index": 100}, "uniqueid": "MTK3512:3BQU611VFQR48SX29Q1QIHMRGAP99S", "dateTime": 1520626538293}, {"current_trial": 101, "trialdata": {"rt": -1000, "trial_type": "single-audio", "word": "bureau", "stimulus": "/static/audio/wordpool/BUREAU.wav", "conditions": [24, 1600, "a", 24000], "internal_node_id": "0.0-74.0", "trial": 2, "time_elapsed": 442261, "serialpos": 12, "key_press": -1, "wordID": 198, "type": "PRES_AUD", "trial_index": 101}, "uniqueid": "MTK3512:3BQU611VFQR48SX29Q1QIHMRGAP99S", "dateTime": 1520626540739}, {"current_trial": 102, "trialdata": {"rt": -1000, "trial_type": "single-audio", "word": "child", "stimulus": "/static/audio/wordpool/CHILD.wav", "conditions": [24, 1600, "a", 24000], "internal_node_id": "0.0-75.0", "trial": 2, "time_elapsed": 444895, "serialpos": 13, "key_press": -1, "wordID": 298, "type": "PRES_AUD", "trial_index": 102}, "uniqueid": "MTK3512:3BQU611VFQR48SX29Q1QIHMRGAP99S", "dateTime": 1520626543373}, {"current_trial": 103, "trialdata": {"rt": -1000, "trial_type": "single-audio", "word": "razor", "stimulus": "/static/audio/wordpool/RAZOR.wav", "conditions": [24, 1600, "a", 24000], "internal_node_id": "0.0-76.0", "trial": 2, "time_elapsed": 447605, "serialpos": 14, "key_press": -1, "wordID": 1170, "type": "PRES_AUD", "trial_index": 103}, "uniqueid": "MTK3512:3BQU611VFQR48SX29Q1QIHMRGAP99S", "dateTime": 1520626546083}, {"current_trial": 104, "trialdata": {"rt": -1000, "trial_type": "single-audio", "word": "crayon", "stimulus": "/static/audio/wordpool/CRAYON.wav", "conditions": [24, 1600, "a", 24000], "internal_node_id": "0.0-77.0", "trial": 2, "time_elapsed": 450223, "serialpos": 15, "key_press": -1, "wordID": 400, "type": "PRES_AUD", "trial_index": 104}, "uniqueid": "MTK3512:3BQU611VFQR48SX29Q1QIHMRGAP99S", "dateTime": 1520626548702}, {"current_trial": 105, "trialdata": {"rt": -1000, "trial_type": "single-audio", "word": "nightgown", "stimulus": "/static/audio/wordpool/NIGHTGOWN.wav", "conditions": [24, 1600, "a", 24000], "internal_node_id": "0.0-78.0", "trial": 2, "time_elapsed": 452715, "serialpos": 16, "key_press": -1, "wordID": 952, "type": "PRES_AUD", "trial_index": 105}, "uniqueid": "MTK3512:3BQU611VFQR48SX29Q1QIHMRGAP99S", "dateTime": 1520626551193}, {"current_trial": 106, "trialdata": {"rt": -1000, "trial_type": "single-audio", "word": "police", "stimulus": "/static/audio/wordpool/POLICE.wav", "conditions": [24, 1600, "a", 24000], "internal_node_id": "0.0-79.0", "trial": 2, "time_elapsed": 455347, "serialpos": 17, "key_press": -1, "wordID": 1097, "type": "PRES_AUD", "trial_index": 106}, "uniqueid": "MTK3512:3BQU611VFQR48SX29Q1QIHMRGAP99S", "dateTime": 1520626553825}, {"current_trial": 107, "trialdata": {"rt": -1000, "trial_type": "single-audio", "word": "patrol", "stimulus": "/static/audio/wordpool/PATROL.wav", "conditions": [24, 1600, "a", 24000], "internal_node_id": "0.0-80.0", "trial": 2, "time_elapsed": 458085, "serialpos": 18, "key_press": -1, "wordID": 1026, "type": "PRES_AUD", "trial_index": 107}, "uniqueid": "MTK3512:3BQU611VFQR48SX29Q1QIHMRGAP99S", "dateTime": 1520626556563}, {"current_trial": 108, "trialdata": {"rt": -1000, "trial_type": "single-audio", "word": "dashboard", "stimulus": "/static/audio/wordpool/DASHBOARD.wav", "conditions": [24, 1600, "a", 24000], "internal_node_id": "0.0-81.0", "trial": 2, "time_elapsed": 460681, "serialpos": 19, "key_press": -1, "wordID": 440, "type": "PRES_AUD", "trial_index": 108}, "uniqueid": "MTK3512:3BQU611VFQR48SX29Q1QIHMRGAP99S", "dateTime": 1520626559159}, {"current_trial": 109, "trialdata": {"rt": -1000, "trial_type": "single-audio", "word": "postage", "stimulus": "/static/audio/wordpool/POSTAGE.wav", "conditions": [24, 1600, "a", 24000], "internal_node_id": "0.0-82.0", "trial": 2, "time_elapsed": 463236, "serialpos": 20, "key_press": -1, "wordID": 1112, "type": "PRES_AUD", "trial_index": 109}, "uniqueid": "MTK3512:3BQU611VFQR48SX29Q1QIHMRGAP99S", "dateTime": 1520626561714}, {"current_trial": 110, "trialdata": {"rt": -1000, "trial_type": "single-audio", "word": "pimple", "stimulus": "/static/audio/wordpool/PIMPLE.wav", "conditions": [24, 1600, "a", 24000], "internal_node_id": "0.0-83.0", "trial": 2, "time_elapsed": 465974, "serialpos": 21, "key_press": -1, "wordID": 1070, "type": "PRES_AUD", "trial_index": 110}, "uniqueid": "MTK3512:3BQU611VFQR48SX29Q1QIHMRGAP99S", "dateTime": 1520626564452}, {"current_trial": 111, "trialdata": {"rt": -1000, "trial_type": "single-audio", "word": "helmet", "stimulus": "/static/audio/wordpool/HELMET.wav", "conditions": [24, 1600, "a", 24000], "internal_node_id": "0.0-84.0", "trial": 2, "time_elapsed": 468527, "serialpos": 22, "key_press": -1, "wordID": 701, "type": "PRES_AUD", "trial_index": 111}, "uniqueid": "MTK3512:3BQU611VFQR48SX29Q1QIHMRGAP99S", "dateTime": 1520626567005}, {"current_trial": 112, "trialdata": {"rt": -1000, "trial_type": "single-audio", "word": "infant", "stimulus": "/static/audio/wordpool/INFANT.wav", "conditions": [24, 1600, "a", 24000], "internal_node_id": "0.0-85.0", "trial": 2, "time_elapsed": 471115, "serialpos": 23, "key_press": -1, "wordID": 736, "type": "PRES_AUD", "trial_index": 112}, "uniqueid": "MTK3512:3BQU611VFQR48SX29Q1QIHMRGAP99S", "dateTime": 1520626569593}, {"current_trial": 113, "trialdata": {"rt": -1, "trial_type": "single-stim", "stimulus": "", "internal_node_id": "0.0-86.0-0.0", "time_elapsed": 472317, "key_press": -1, "type": "PRE_RECALL_DELAY", "trial_index": 113}, "uniqueid": "MTK3512:3BQU611VFQR48SX29Q1QIHMRGAP99S", "dateTime": 1520626570795}, {"current_trial": 114, "trialdata": {"rt": -1000, "trial_type": "single-audio", "stimulus": "/static/audio/400Hz.wav", "internal_node_id": "0.0-87.0", "time_elapsed": 472820, "key_press": -1, "type": "PRE_RECALL_ALERT", "trial_index": 114}, "uniqueid": "MTK3512:3BQU611VFQR48SX29Q1QIHMRGAP99S", "dateTime": 1520626571298}, {"current_trial": 115, "trialdata": {"rt": [6556, 7932, 9852, 11413, 13075, 14676, 24413, 27571, 34500], "recwords": ["infant", "patrol", "police", "dashboard", "jello", "razor", "bureau", "child", "lamp"], "key_times": [5744, 5852, 6044, 6124, 6252, 6404, 6556, 7088, 7180, 7292, 7483, 7588, 7771, 7932, 8501, 8612, 8932, 9071, 9268, 9404, 9563, 9683, 9852, 10116, 10237, 10357, 10508, 10685, 10844, 10925, 11028, 11228, 11413, 12021, 12228, 12436, 12573, 12758, 13075, 13717, 13835, 14037, 14132, 14324, 14676, 22430, 22612, 22893, 22996, 23341, 23980, 24092, 24187, 24413, 26285, 26437, 26528, 26692, 26860, 27571, 33917, 34012, 34110, 34203, 34500], "trial_type": "free-recall", "conditions": [24, 1600, "a", 24000], "internal_node_id": "0.0-88.0-0.0", "key_presses": [73, 78, 70, 65, 78, 84, 13, 80, 65, 84, 82, 79, 76, 13, 80, 65, 8, 79, 76, 73, 67, 69, 13, 68, 65, 83, 72, 66, 79, 65, 82, 68, 13, 74, 69, 76, 76, 79, 13, 82, 65, 90, 79, 82, 13, 66, 85, 82, 69, 85, 8, 65, 85, 13, 67, 72, 73, 76, 68, 13, 76, 65, 77, 80, 13], "trial": 2, "time_elapsed": 532822, "type": "FREE_RECALL", "trial_index": 115}, "uniqueid": "MTK3512:3BQU611VFQR48SX29Q1QIHMRGAP99S", "dateTime": 1520626631305}, {"current_trial": 116, "trialdata": {"rt": 1525, "trial_type": "text", "internal_node_id": "0.0-89.0", "time_elapsed": 536352, "key_press": 32, "type": "INSTRUCTIONS", "trial_index": 116}, "uniqueid": "MTK3512:3BQU611VFQR48SX29Q1QIHMRGAP99S", "dateTime": 1520626634831}, {"current_trial": 117, "trialdata": {"rt": [6429, 11036], "trial_type": "math-distractor", "key_times": [6221, 6292, 6429, 10727, 10782, 11036], "responses": ["23", "21"], "num2": [9, 7, 8], "num3": [7, 5, 8], "conditions": [12, 1600, "a", 12000], "internal_node_id": "0.0-90.0", "key_presses": [98, 99, 13, 98, 97, 13], "trial": 3, "time_elapsed": 550356, "type": "DISTRACTOR", "trial_index": 117, "num1": [7, 9, 4]}, "uniqueid": "MTK3512:3BQU611VFQR48SX29Q1QIHMRGAP99S", "dateTime": 1520626648834}, {"current_trial": 118, "trialdata": {"rt": -1, "trial_type": "single-stim", "stimulus": "<p id=\"stim\">10</p>", "internal_node_id": "0.0-91.0-0.0", "time_elapsed": 553358, "key_press": -1, "trial_index": 118}, "uniqueid": "MTK3512:3BQU611VFQR48SX29Q1QIHMRGAP99S", "dateTime": 1520626651836}, {"current_trial": 119, "trialdata": {"rt": -1, "trial_type": "single-stim", "stimulus": "<p id=\"stim\">9</p>", "internal_node_id": "0.0-91.0-1.0", "time_elapsed": 554362, "key_press": -1, "trial_index": 119}, "uniqueid": "MTK3512:3BQU611VFQR48SX29Q1QIHMRGAP99S", "dateTime": 1520626652840}, {"current_trial": 120, "trialdata": {"rt": -1, "trial_type": "single-stim", "stimulus": "<p id=\"stim\">8</p>", "internal_node_id": "0.0-91.0-2.0", "time_elapsed": 555363, "key_press": -1, "trial_index": 120}, "uniqueid": "MTK3512:3BQU611VFQR48SX29Q1QIHMRGAP99S", "dateTime": 1520626653841}, {"current_trial": 121, "trialdata": {"rt": -1, "trial_type": "single-stim", "stimulus": "<p id=\"stim\">7</p>", "internal_node_id": "0.0-91.0-3.0", "time_elapsed": 556364, "key_press": -1, "trial_index": 121}, "uniqueid": "MTK3512:3BQU611VFQR48SX29Q1QIHMRGAP99S", "dateTime": 1520626654842}, {"current_trial": 122, "trialdata": {"rt": -1, "trial_type": "single-stim", "stimulus": "<p id=\"stim\">6</p>", "internal_node_id": "0.0-91.0-4.0", "time_elapsed": 557366, "key_press": -1, "trial_index": 122}, "uniqueid": "MTK3512:3BQU611VFQR48SX29Q1QIHMRGAP99S", "dateTime": 1520626655844}, {"current_trial": 123, "trialdata": {"rt": -1, "trial_type": "single-stim", "stimulus": "<p id=\"stim\">5</p>", "internal_node_id": "0.0-91.0-5.0", "time_elapsed": 558368, "key_press": -1, "trial_index": 123}, "uniqueid": "MTK3512:3BQU611VFQR48SX29Q1QIHMRGAP99S", "dateTime": 1520626656846}, {"current_trial": 124, "trialdata": {"rt": -1, "trial_type": "single-stim", "stimulus": "<p id=\"stim\">4</p>", "internal_node_id": "0.0-91.0-6.0", "time_elapsed": 559369, "key_press": -1, "trial_index": 124}, "uniqueid": "MTK3512:3BQU611VFQR48SX29Q1QIHMRGAP99S", "dateTime": 1520626657847}, {"current_trial": 125, "trialdata": {"rt": -1, "trial_type": "single-stim", "stimulus": "<p id=\"stim\">3</p>", "internal_node_id": "0.0-91.0-7.0", "time_elapsed": 560371, "key_press": -1, "trial_index": 125}, "uniqueid": "MTK3512:3BQU611VFQR48SX29Q1QIHMRGAP99S", "dateTime": 1520626658849}, {"current_trial": 126, "trialdata": {"rt": -1, "trial_type": "single-stim", "stimulus": "<p id=\"stim\">2</p>", "internal_node_id": "0.0-91.0-8.0", "time_elapsed": 561373, "key_press": -1, "trial_index": 126}, "uniqueid": "MTK3512:3BQU611VFQR48SX29Q1QIHMRGAP99S", "dateTime": 1520626659851}, {"current_trial": 127, "trialdata": {"rt": -1, "trial_type": "single-stim", "stimulus": "<p id=\"stim\">1</p>", "internal_node_id": "0.0-91.0-9.0", "time_elapsed": 562375, "key_press": -1, "trial_index": 127}, "uniqueid": "MTK3512:3BQU611VFQR48SX29Q1QIHMRGAP99S", "dateTime": 1520626660853}, {"current_trial": 128, "trialdata": {"rt": -1, "trial_type": "single-stim", "stimulus": "<p id=\"stim\">+</p>", "internal_node_id": "0.0-92.0-0.0", "time_elapsed": 563876, "key_press": -1, "type": "FIXATION", "trial_index": 128}, "uniqueid": "MTK3512:3BQU611VFQR48SX29Q1QIHMRGAP99S", "dateTime": 1520626662355}, {"current_trial": 129, "trialdata": {"rt": -1000, "trial_type": "single-audio", "word": "swimmer", "stimulus": "/static/audio/wordpool/SWIMMER.wav", "conditions": [12, 1600, "a", 12000], "internal_node_id": "0.0-93.0", "trial": 3, "time_elapsed": 566632, "serialpos": 0, "key_press": -1, "wordID": 1419, "type": "PRES_AUD", "trial_index": 129}, "uniqueid": "MTK3512:3BQU611VFQR48SX29Q1QIHMRGAP99S", "dateTime": 1520626665110}, {"current_trial": 130, "trialdata": {"rt": -1000, "trial_type": "single-audio", "word": "pudding", "stimulus": "/static/audio/wordpool/PUDDING.wav", "conditions": [12, 1600, "a", 12000], "internal_node_id": "0.0-94.0", "trial": 3, "time_elapsed": 569076, "serialpos": 1, "key_press": -1, "wordID": 1138, "type": "PRES_AUD", "trial_index": 130}, "uniqueid": "MTK3512:3BQU611VFQR48SX29Q1QIHMRGAP99S", "dateTime": 1520626667554}, {"current_trial": 131, "trialdata": {"rt": -1000, "trial_type": "single-audio", "word": "ankle", "stimulus": "/static/audio/wordpool/ANKLE.wav", "conditions": [12, 1600, "a", 12000], "internal_node_id": "0.0-95.0", "trial": 3, "time_elapsed": 571540, "serialpos": 2, "key_press": -1, "wordID": 23, "type": "PRES_AUD", "trial_index": 131}, "uniqueid": "MTK3512:3BQU611VFQR48SX29Q1QIHMRGAP99S", "dateTime": 1520626670018}, {"current_trial": 132, "trialdata": {"rt": -1000, "trial_type": "single-audio", "word": "wrist", "stimulus": "/static/audio/wordpool/WRIST.wav", "conditions": [12, 1600, "a", 12000], "internal_node_id": "0.0-96.0", "trial": 3, "time_elapsed": 574220, "serialpos": 3, "key_press": -1, "wordID": 1625, "type": "PRES_AUD", "trial_index": 132}, "uniqueid": "MTK3512:3BQU611VFQR48SX29Q1QIHMRGAP99S", "dateTime": 1520626672698}, {"current_trial": 133, "trialdata": {"rt": -1000, "trial_type": "single-audio", "word": "foot", "stimulus": "/static/audio/wordpool/FOOT.wav", "conditions": [12, 1600, "a", 12000], "internal_node_id": "0.0-97.0", "trial": 3, "time_elapsed": 576940, "serialpos": 4, "key_press": -1, "wordID": 589, "type": "PRES_AUD", "trial_index": 133}, "uniqueid": "MTK3512:3BQU611VFQR48SX29Q1QIHMRGAP99S", "dateTime": 1520626675418}, {"current_trial": 134, "trialdata": {"rt": -1000, "trial_type": "single-audio", "word": "record", "stimulus": "/static/audio/wordpool/RECORD.wav", "conditions": [12, 1600, "a", 12000], "internal_node_id": "0.0-98.0", "trial": 3, "time_elapsed": 579585, "serialpos": 5, "key_press": -1, "wordID": 1175, "type": "PRES_AUD", "trial_index": 134}, "uniqueid": "MTK3512:3BQU611VFQR48SX29Q1QIHMRGAP99S", "dateTime": 1520626678063}, {"current_trial": 135, "trialdata": {"rt": -1000, "trial_type": "single-audio", "word": "custard", "stimulus": "/static/audio/wordpool/CUSTARD.wav", "conditions": [12, 1600, "a", 12000], "internal_node_id": "0.0-99.0", "trial": 3, "time_elapsed": 582167, "serialpos": 6, "key_press": -1, "wordID": 428, "type": "PRES_AUD", "trial_index": 135}, "uniqueid": "MTK3512:3BQU611VFQR48SX29Q1QIHMRGAP99S", "dateTime": 1520626680645}, {"current_trial": 136, "trialdata": {"rt": -1000, "trial_type": "single-audio", "word": "author", "stimulus": "/static/audio/wordpool/AUTHOR.wav", "conditions": [12, 1600, "a", 12000], "internal_node_id": "0.0-100.0", "trial": 3, "time_elapsed": 584685, "serialpos": 7, "key_press": -1, "wordID": 60, "type": "PRES_AUD", "trial_index": 136}, "uniqueid": "MTK3512:3BQU611VFQR48SX29Q1QIHMRGAP99S", "dateTime": 1520626683164}, {"current_trial": 137, "trialdata": {"rt": -1000, "trial_type": "single-audio", "word": "harp", "stimulus": "/static/audio/wordpool/HARP.wav", "conditions": [12, 1600, "a", 12000], "internal_node_id": "0.0-101.0", "trial": 3, "time_elapsed": 587457, "serialpos": 8, "key_press": -1, "wordID": 688, "type": "PRES_AUD", "trial_index": 137}, "uniqueid": "MTK3512:3BQU611VFQR48SX29Q1QIHMRGAP99S", "dateTime": 1520626685935}, {"current_trial": 138, "trialdata": {"rt": -1000, "trial_type": "single-audio", "word": "puppy", "stimulus": "/static/audio/wordpool/PUPPY.wav", "conditions": [12, 1600, "a", 12000], "internal_node_id": "0.0-102.0", "trial": 3, "time_elapsed": 590128, "serialpos": 9, "key_press": -1, "wordID": 1143, "type": "PRES_AUD", "trial_index": 138}, "uniqueid": "MTK3512:3BQU611VFQR48SX29Q1QIHMRGAP99S", "dateTime": 1520626688607}, {"current_trial": 139, "trialdata": {"rt": -1000, "trial_type": "single-audio", "word": "igloo", "stimulus": "/static/audio/wordpool/IGLOO.wav", "conditions": [12, 1600, "a", 12000], "internal_node_id": "0.0-103.0", "trial": 3, "time_elapsed": 592839, "serialpos": 10, "key_press": -1, "wordID": 733, "type": "PRES_AUD", "trial_index": 139}, "uniqueid": "MTK3512:3BQU611VFQR48SX29Q1QIHMRGAP99S", "dateTime": 1520626691318}, {"current_trial": 140, "trialdata": {"rt": -1000, "trial_type": "single-audio", "word": "plaza", "stimulus": "/static/audio/wordpool/PLAZA.wav", "conditions": [12, 1600, "a", 12000], "internal_node_id": "0.0-104.0", "trial": 3, "time_elapsed": 595611, "serialpos": 11, "key_press": -1, "wordID": 1087, "type": "PRES_AUD", "trial_index": 140}, "uniqueid": "MTK3512:3BQU611VFQR48SX29Q1QIHMRGAP99S", "dateTime": 1520626694089}, {"current_trial": 141, "trialdata": {"rt": -1, "trial_type": "single-stim", "stimulus": "", "internal_node_id": "0.0-105.0-0.0", "time_elapsed": 596856, "key_press": -1, "type": "PRE_RECALL_DELAY", "trial_index": 141}, "uniqueid": "MTK3512:3BQU611VFQR48SX29Q1QIHMRGAP99S", "dateTime": 1520626695334}, {"current_trial": 142, "trialdata": {"rt": -1000, "trial_type": "single-audio", "stimulus": "/static/audio/400Hz.wav", "internal_node_id": "0.0-106.0", "time_elapsed": 597358, "key_press": -1, "type": "PRE_RECALL_ALERT", "trial_index": 142}, "uniqueid": "MTK3512:3BQU611VFQR48SX29Q1QIHMRGAP99S", "dateTime": 1520626695836}, {"current_trial": 143, "trialdata": {"rt": [2342, 4839, 6063, 9119, 10766, 13262, 23205], "recwords": ["plaza", "igloo", "puppy", "foot", "wrist", "knee", "harp"], "key_times": [1204, 1303, 1390, 1583, 1782, 2342, 3071, 3233, 3606, 3894, 4367, 4486, 4640, 4839, 5358, 5535, 5703, 5846, 5943, 6063, 8399, 8513, 8647, 8782, 9119, 9927, 10022, 10126, 10239, 10359, 10766, 12760, 12872, 12998, 13174, 13262, 22598, 22670, 22750, 22831, 23205], "trial_type": "free-recall", "conditions": [12, 1600, "a", 12000], "internal_node_id": "0.0-107.0-0.0", "key_presses": [80, 76, 65, 90, 65, 13, 73, 71, 76, 85, 8, 79, 79, 13, 80, 85, 80, 80, 89, 13, 70, 79, 79, 84, 13, 87, 82, 73, 83, 84, 13, 75, 78, 69, 69, 13, 72, 65, 82, 80, 13], "trial": 3, "time_elapsed": 657361, "type": "FREE_RECALL", "trial_index": 143}, "uniqueid": "MTK3512:3BQU611VFQR48SX29Q1QIHMRGAP99S", "dateTime": 1520626755844}, {"current_trial": 144, "trialdata": {"rt": 7470, "trial_type": "text", "internal_node_id": "0.0-108.0", "time_elapsed": 666836, "key_press": 32, "type": "INSTRUCTIONS", "trial_index": 144}, "uniqueid": "MTK3512:3BQU611VFQR48SX29Q1QIHMRGAP99S", "dateTime": 1520626765314}, {"current_trial": 145, "trialdata": {"rt": [3239, 5222, 7558, 11598, 16200, 19295, 21494], "trial_type": "math-distractor", "key_times": [3008, 3239, 4769, 4856, 5222, 7128, 7224, 7558, 11199, 11272, 11598, 13555, 13656, 14696, 14935, 14944, 15927, 16200, 18987, 19020, 19295, 21119, 21256, 21494, 23776, 23833], "responses": ["8", "18", "17", "15", "19", "19", "11"], "num2": [4, 9, 7, 3, 8, 8, 5, 5], "num3": [3, 1, 8, 7, 2, 5, 4, 6], "conditions": [24, 800, "a", 24000], "internal_node_id": "0.0-109.0", "key_presses": [104, 13, 97, 104, 13, 97, 103, 13, 97, 101, 13, 97, 103, 8, 105, 104, 8, 13, 97, 105, 13, 97, 97, 13, 97, 101], "trial": 4, "time_elapsed": 692841, "type": "DISTRACTOR", "trial_index": 145, "num1": [1, 8, 2, 5, 9, 6, 2, 4]}, "uniqueid": "MTK3512:3BQU611VFQR48SX29Q1QIHMRGAP99S", "dateTime": 1520626791319}, {"current_trial": 146, "trialdata": {"rt": -1, "trial_type": "single-stim", "stimulus": "<p id=\"stim\">10</p>", "internal_node_id": "0.0-110.0-0.0", "time_elapsed": 695844, "key_press": -1, "trial_index": 146}, "uniqueid": "MTK3512:3BQU611VFQR48SX29Q1QIHMRGAP99S", "dateTime": 1520626794322}, {"current_trial": 147, "trialdata": {"rt": -1, "trial_type": "single-stim", "stimulus": "<p id=\"stim\">9</p>", "internal_node_id": "0.0-110.0-1.0", "time_elapsed": 696845, "key_press": -1, "trial_index": 147}, "uniqueid": "MTK3512:3BQU611VFQR48SX29Q1QIHMRGAP99S", "dateTime": 1520626795323}, {"current_trial": 148, "trialdata": {"rt": -1, "trial_type": "single-stim", "stimulus": "<p id=\"stim\">8</p>", "internal_node_id": "0.0-110.0-2.0", "time_elapsed": 697847, "key_press": -1, "trial_index": 148}, "uniqueid": "MTK3512:3BQU611VFQR48SX29Q1QIHMRGAP99S", "dateTime": 1520626796325}, {"current_trial": 149, "trialdata": {"rt": -1, "trial_type": "single-stim", "stimulus": "<p id=\"stim\">7</p>", "internal_node_id": "0.0-110.0-3.0", "time_elapsed": 698848, "key_press": -1, "trial_index": 149}, "uniqueid": "MTK3512:3BQU611VFQR48SX29Q1QIHMRGAP99S", "dateTime": 1520626797326}, {"current_trial": 150, "trialdata": {"rt": -1, "trial_type": "single-stim", "stimulus": "<p id=\"stim\">6</p>", "internal_node_id": "0.0-110.0-4.0", "time_elapsed": 699851, "key_press": -1, "trial_index": 150}, "uniqueid": "MTK3512:3BQU611VFQR48SX29Q1QIHMRGAP99S", "dateTime": 1520626798329}, {"current_trial": 151, "trialdata": {"rt": -1, "trial_type": "single-stim", "stimulus": "<p id=\"stim\">5</p>", "internal_node_id": "0.0-110.0-5.0", "time_elapsed": 700852, "key_press": -1, "trial_index": 151}, "uniqueid": "MTK3512:3BQU611VFQR48SX29Q1QIHMRGAP99S", "dateTime": 1520626799330}, {"current_trial": 152, "trialdata": {"rt": -1, "trial_type": "single-stim", "stimulus": "<p id=\"stim\">4</p>", "internal_node_id": "0.0-110.0-6.0", "time_elapsed": 701852, "key_press": -1, "trial_index": 152}, "uniqueid": "MTK3512:3BQU611VFQR48SX29Q1QIHMRGAP99S", "dateTime": 1520626800331}, {"current_trial": 153, "trialdata": {"rt": -1, "trial_type": "single-stim", "stimulus": "<p id=\"stim\">3</p>", "internal_node_id": "0.0-110.0-7.0", "time_elapsed": 702855, "key_press": -1, "trial_index": 153}, "uniqueid": "MTK3512:3BQU611VFQR48SX29Q1QIHMRGAP99S", "dateTime": 1520626801333}, {"current_trial": 154, "trialdata": {"rt": -1, "trial_type": "single-stim", "stimulus": "<p id=\"stim\">2</p>", "internal_node_id": "0.0-110.0-8.0", "time_elapsed": 703857, "key_press": -1, "trial_index": 154}, "uniqueid": "MTK3512:3BQU611VFQR48SX29Q1QIHMRGAP99S", "dateTime": 1520626802335}, {"current_trial": 155, "trialdata": {"rt": -1, "trial_type": "single-stim", "stimulus": "<p id=\"stim\">1</p>", "internal_node_id": "0.0-110.0-9.0", "time_elapsed": 704858, "key_press": -1, "trial_index": 155}, "uniqueid": "MTK3512:3BQU611VFQR48SX29Q1QIHMRGAP99S", "dateTime": 1520626803336}, {"current_trial": 156, "trialdata": {"rt": -1, "trial_type": "single-stim", "stimulus": "<p id=\"stim\">+</p>", "internal_node_id": "0.0-111.0-0.0", "time_elapsed": 706360, "key_press": -1, "type": "FIXATION", "trial_index": 156}, "uniqueid": "MTK3512:3BQU611VFQR48SX29Q1QIHMRGAP99S", "dateTime": 1520626804838}, {"current_trial": 157, "trialdata": {"rt": -1000, "trial_type": "single-audio", "word": "bathtub", "stimulus": "/static/audio/wordpool/BATHTUB.wav", "conditions": [24, 800, "a", 24000], "internal_node_id": "0.0-112.0", "trial": 4, "time_elapsed": 708316, "serialpos": 0, "key_press": -1, "wordID": 99, "type": "PRES_AUD", "trial_index": 157}, "uniqueid": "MTK3512:3BQU611VFQR48SX29Q1QIHMRGAP99S", "dateTime": 1520626806794}, {"current_trial": 158, "trialdata": {"rt": -1000, "trial_type": "single-audio", "word": "keeper", "stimulus": "/static/audio/wordpool/KEEPER.wav", "conditions": [24, 800, "a", 24000], "internal_node_id": "0.0-113.0", "trial": 4, "time_elapsed": 710032, "serialpos": 1, "key_press": -1, "wordID": 768, "type": "PRES_AUD", "trial_index": 158}, "uniqueid": "MTK3512:3BQU611VFQR48SX29Q1QIHMRGAP99S", "dateTime": 1520626808510}, {"current_trial": 159, "trialdata": {"rt": -1000, "trial_type": "single-audio", "word": "bunny", "stimulus": "/static/audio/wordpool/BUNNY.wav", "conditions": [24, 800, "a", 24000], "internal_node_id": "0.0-114.0", "trial": 4, "time_elapsed": 711919, "serialpos": 2, "key_press": -1, "wordID": 197, "type": "PRES_AUD", "trial_index": 159}, "uniqueid": "MTK3512:3BQU611VFQR48SX29Q1QIHMRGAP99S", "dateTime": 1520626810397}, {"current_trial": 160, "trialdata": {"rt": -1000, "trial_type": "single-audio", "word": "turtle", "stimulus": "/static/audio/wordpool/TURTLE.wav", "conditions": [24, 800, "a", 24000], "internal_node_id": "0.0-115.0", "trial": 4, "time_elapsed": 713670, "serialpos": 3, "key_press": -1, "wordID": 1521, "type": "PRES_AUD", "trial_index": 160}, "uniqueid": "MTK3512:3BQU611VFQR48SX29Q1QIHMRGAP99S", "dateTime": 1520626812148}, {"current_trial": 161, "trialdata": {"rt": -1000, "trial_type": "single-audio", "word": "dime", "stimulus": "/static/audio/wordpool/DIME.wav", "conditions": [24, 800, "a", 24000], "internal_node_id": "0.0-116.0", "trial": 4, "time_elapsed": 715431, "serialpos": 4, "key_press": -1, "wordID": 465, "type": "PRES_AUD", "trial_index": 161}, "uniqueid": "MTK3512:3BQU611VFQR48SX29Q1QIHMRGAP99S", "dateTime": 1520626813909}, {"current_trial": 162, "trialdata": {"rt": -1000, "trial_type": "single-audio", "word": "eyelash", "stimulus": "/static/audio/wordpool/EYELASH.wav", "conditions": [24, 800, "a", 24000], "internal_node_id": "0.0-117.0", "trial": 4, "time_elapsed": 717406, "serialpos": 5, "key_press": -1, "wordID": 545, "type": "PRES_AUD", "trial_index": 162}, "uniqueid": "MTK3512:3BQU611VFQR48SX29Q1QIHMRGAP99S", "dateTime": 1520626815884}, {"current_trial": 163, "trialdata": {"rt": -1000, "trial_type": "single-audio", "word": "sunset", "stimulus": "/static/audio/wordpool/SUNSET.wav", "conditions": [24, 800, "a", 24000], "internal_node_id": "0.0-118.0", "trial": 4, "time_elapsed": 719091, "serialpos": 6, "key_press": -1, "wordID": 1407, "type": "PRES_AUD", "trial_index": 163}, "uniqueid": "MTK3512:3BQU611VFQR48SX29Q1QIHMRGAP99S", "dateTime": 1520626817569}, {"current_trial": 164, "trialdata": {"rt": -1000, "trial_type": "single-audio", "word": "penguin", "stimulus": "/static/audio/wordpool/PENGUIN.wav", "conditions": [24, 800, "a", 24000], "internal_node_id": "0.0-119.0", "trial": 4, "time_elapsed": 720903, "serialpos": 7, "key_press": -1, "wordID": 1043, "type": "PRES_AUD", "trial_index": 164}, "uniqueid": "MTK3512:3BQU611VFQR48SX29Q1QIHMRGAP99S", "dateTime": 1520626819381}, {"current_trial": 165, "trialdata": {"rt": -1000, "trial_type": "single-audio", "word": "brick", "stimulus": "/static/audio/wordpool/BRICK.wav", "conditions": [24, 800, "a", 24000], "internal_node_id": "0.0-120.0", "trial": 4, "time_elapsed": 722812, "serialpos": 8, "key_press": -1, "wordID": 171, "type": "PRES_AUD", "trial_index": 165}, "uniqueid": "MTK3512:3BQU611VFQR48SX29Q1QIHMRGAP99S", "dateTime": 1520626821290}, {"current_trial": 166, "trialdata": {"rt": -1000, "trial_type": "single-audio", "word": "stone", "stimulus": "/static/audio/wordpool/STONE.wav", "conditions": [24, 800, "a", 24000], "internal_node_id": "0.0-121.0", "trial": 4, "time_elapsed": 724712, "serialpos": 9, "key_press": -1, "wordID": 1384, "type": "PRES_AUD", "trial_index": 166}, "uniqueid": "MTK3512:3BQU611VFQR48SX29Q1QIHMRGAP99S", "dateTime": 1520626823190}, {"current_trial": 167, "trialdata": {"rt": -1000, "trial_type": "single-audio", "word": "hamper", "stimulus": "/static/audio/wordpool/HAMPER.wav", "conditions": [24, 800, "a", 24000], "internal_node_id": "0.0-122.0", "trial": 4, "time_elapsed": 726317, "serialpos": 10, "key_press": -1, "wordID": 681, "type": "PRES_AUD", "trial_index": 167}, "uniqueid": "MTK3512:3BQU611VFQR48SX29Q1QIHMRGAP99S", "dateTime": 1520626824795}, {"current_trial": 168, "trialdata": {"rt": -1000, "trial_type": "single-audio", "word": "barrel", "stimulus": "/static/audio/wordpool/BARREL.wav", "conditions": [24, 800, "a", 24000], "internal_node_id": "0.0-123.0", "trial": 4, "time_elapsed": 728085, "serialpos": 11, "key_press": -1, "wordID": 90, "type": "PRES_AUD", "trial_index": 168}, "uniqueid": "MTK3512:3BQU611VFQR48SX29Q1QIHMRGAP99S", "dateTime": 1520626826563}, {"current_trial": 169, "trialdata": {"rt": -1000, "trial_type": "single-audio", "word": "witness", "stimulus": "/static/audio/wordpool/WITNESS.wav", "conditions": [24, 800, "a", 24000], "internal_node_id": "0.0-124.0", "trial": 4, "time_elapsed": 729738, "serialpos": 12, "key_press": -1, "wordID": 1617, "type": "PRES_AUD", "trial_index": 169}, "uniqueid": "MTK3512:3BQU611VFQR48SX29Q1QIHMRGAP99S", "dateTime": 1520626828216}, {"current_trial": 170, "trialdata": {"rt": -1000, "trial_type": "single-audio", "word": "ketchup", "stimulus": "/static/audio/wordpool/KETCHUP.wav", "conditions": [24, 800, "a", 24000], "internal_node_id": "0.0-125.0", "trial": 4, "time_elapsed": 731469, "serialpos": 13, "key_press": -1, "wordID": 770, "type": "PRES_AUD", "trial_index": 170}, "uniqueid": "MTK3512:3BQU611VFQR48SX29Q1QIHMRGAP99S", "dateTime": 1520626829947}, {"current_trial": 171, "trialdata": {"rt": -1000, "trial_type": "single-audio", "word": "piston", "stimulus": "/static/audio/wordpool/PISTON.wav", "conditions": [24, 800, "a", 24000], "internal_node_id": "0.0-126.0", "trial": 4, "time_elapsed": 733179, "serialpos": 14, "key_press": -1, "wordID": 1075, "type": "PRES_AUD", "trial_index": 171}, "uniqueid": "MTK3512:3BQU611VFQR48SX29Q1QIHMRGAP99S", "dateTime": 1520626831657}, {"current_trial": 172, "trialdata": {"rt": -1000, "trial_type": "single-audio", "word": "valve", "stimulus": "/static/audio/wordpool/VALVE.wav", "conditions": [24, 800, "a", 24000], "internal_node_id": "0.0-127.0", "trial": 4, "time_elapsed": 735074, "serialpos": 15, "key_press": -1, "wordID": 1545, "type": "PRES_AUD", "trial_index": 172}, "uniqueid": "MTK3512:3BQU611VFQR48SX29Q1QIHMRGAP99S", "dateTime": 1520626833552}, {"current_trial": 173, "trialdata": {"rt": -1000, "trial_type": "single-audio", "word": "arm", "stimulus": "/static/audio/wordpool/ARM.wav", "conditions": [24, 800, "a", 24000], "internal_node_id": "0.0-128.0", "trial": 4, "time_elapsed": 736687, "serialpos": 16, "key_press": -1, "wordID": 37, "type": "PRES_AUD", "trial_index": 173}, "uniqueid": "MTK3512:3BQU611VFQR48SX29Q1QIHMRGAP99S", "dateTime": 1520626835165}, {"current_trial": 174, "trialdata": {"rt": -1000, "trial_type": "single-audio", "word": "journal", "stimulus": "/static/audio/wordpool/JOURNAL.wav", "conditions": [24, 800, "a", 24000], "internal_node_id": "0.0-129.0", "trial": 4, "time_elapsed": 738553, "serialpos": 17, "key_press": -1, "wordID": 759, "type": "PRES_AUD", "trial_index": 174}, "uniqueid": "MTK3512:3BQU611VFQR48SX29Q1QIHMRGAP99S", "dateTime": 1520626837032}, {"current_trial": 175, "trialdata": {"rt": -1000, "trial_type": "single-audio", "word": "survey", "stimulus": "/static/audio/wordpool/SURVEY.wav", "conditions": [24, 800, "a", 24000], "internal_node_id": "0.0-130.0", "trial": 4, "time_elapsed": 740258, "serialpos": 18, "key_press": -1, "wordID": 1413, "type": "PRES_AUD", "trial_index": 175}, "uniqueid": "MTK3512:3BQU611VFQR48SX29Q1QIHMRGAP99S", "dateTime": 1520626838736}, {"current_trial": 176, "trialdata": {"rt": -1000, "trial_type": "single-audio", "word": "shoulder", "stimulus": "/static/audio/wordpool/SHOULDER.wav", "conditions": [24, 800, "a", 24000], "internal_node_id": "0.0-131.0", "trial": 4, "time_elapsed": 741907, "serialpos": 19, "key_press": -1, "wordID": 1293, "type": "PRES_AUD", "trial_index": 176}, "uniqueid": "MTK3512:3BQU611VFQR48SX29Q1QIHMRGAP99S", "dateTime": 1520626840385}, {"current_trial": 177, "trialdata": {"rt": -1000, "trial_type": "single-audio", "word": "friend", "stimulus": "/static/audio/wordpool/FRIEND.wav", "conditions": [24, 800, "a", 24000], "internal_node_id": "0.0-132.0", "trial": 4, "time_elapsed": 743787, "serialpos": 20, "key_press": -1, "wordID": 605, "type": "PRES_AUD", "trial_index": 177}, "uniqueid": "MTK3512:3BQU611VFQR48SX29Q1QIHMRGAP99S", "dateTime": 1520626842265}, {"current_trial": 178, "trialdata": {"rt": -1000, "trial_type": "single-audio", "word": "outdoors", "stimulus": "/static/audio/wordpool/OUTDOORS.wav", "conditions": [24, 800, "a", 24000], "internal_node_id": "0.0-133.0", "trial": 4, "time_elapsed": 745592, "serialpos": 21, "key_press": -1, "wordID": 986, "type": "PRES_AUD", "trial_index": 178}, "uniqueid": "MTK3512:3BQU611VFQR48SX29Q1QIHMRGAP99S", "dateTime": 1520626844070}, {"current_trial": 179, "trialdata": {"rt": -1000, "trial_type": "single-audio", "word": "monster", "stimulus": "/static/audio/wordpool/MONSTER.wav", "conditions": [24, 800, "a", 24000], "internal_node_id": "0.0-134.0", "trial": 4, "time_elapsed": 747365, "serialpos": 22, "key_press": -1, "wordID": 911, "type": "PRES_AUD", "trial_index": 179}, "uniqueid": "MTK3512:3BQU611VFQR48SX29Q1QIHMRGAP99S", "dateTime": 1520626845844}, {"current_trial": 180, "trialdata": {"rt": -1000, "trial_type": "single-audio", "word": "hook", "stimulus": "/static/audio/wordpool/HOOK.wav", "conditions": [24, 800, "a", 24000], "internal_node_id": "0.0-135.0", "trial": 4, "time_elapsed": 749307, "serialpos": 23, "key_press": -1, "wordID": 714, "type": "PRES_AUD", "trial_index": 180}, "uniqueid": "MTK3512:3BQU611VFQR48SX29Q1QIHMRGAP99S", "dateTime": 1520626847786}, {"current_trial": 181, "trialdata": {"rt": -1, "trial_type": "single-stim", "stimulus": "", "internal_node_id": "0.0-136.0-0.0", "time_elapsed": 750692, "key_press": -1, "type": "PRE_RECALL_DELAY", "trial_index": 181}, "uniqueid": "MTK3512:3BQU611VFQR48SX29Q1QIHMRGAP99S", "dateTime": 1520626849170}, {"current_trial": 182, "trialdata": {"rt": -1000, "trial_type": "single-audio", "stimulus": "/static/audio/400Hz.wav", "internal_node_id": "0.0-137.0", "time_elapsed": 751195, "key_press": -1, "type": "PRE_RECALL_ALERT", "trial_index": 182}, "uniqueid": "MTK3512:3BQU611VFQR48SX29Q1QIHMRGAP99S", "dateTime": 1520626849673}, {"current_trial": 183, "trialdata": {"rt": [2353, 3170, 4986, 8003, 12194, 14544, 26873, 38880, 43992], "recwords": ["monster", "hook", "outdoors", "rabbit", "turtle", "arm", "hook", "pistol", "sunset"], "key_times": [1130, 1186, 1364, 1554, 1778, 1891, 2057, 2353, 2625, 2826, 2970, 3041, 3170, 3938, 4037, 4145, 4410, 4529, 4677, 4745, 4889, 4986, 7008, 7089, 7227, 7364, 7449, 7585, 8003, 11258, 11345, 11466, 11713, 11825, 11958, 12194, 13988, 14113, 14333, 14544, 26307, 26522, 26675, 26787, 26873, 35642, 38185, 38273, 38396, 38489, 38771, 38880, 42834, 42947, 43067, 43217, 43448, 43569, 43992], "trial_type": "free-recall", "conditions": [24, 800, "a", 24000], "internal_node_id": "0.0-138.0-0.0", "key_presses": [77, 79, 78, 83, 84, 69, 82, 13, 72, 79, 79, 75, 32, 79, 85, 84, 68, 79, 79, 82, 83, 13, 82, 65, 66, 66, 73, 84, 13, 84, 85, 82, 84, 76, 69, 13, 65, 82, 77, 13, 72, 79, 79, 75, 13, 80, 73, 83, 84, 79, 76, 13, 83, 85, 78, 83, 69, 84, 13], "trial": 4, "time_elapsed": 811197, "type": "FREE_RECALL", "trial_index": 183}, "uniqueid": "MTK3512:3BQU611VFQR48SX29Q1QIHMRGAP99S", "dateTime": 1520626909679}, {"current_trial": 184, "trialdata": {"rt": 1358, "trial_type": "text", "internal_node_id": "0.0-139.0", "time_elapsed": 814559, "key_press": 13, "type": "INSTRUCTIONS", "trial_index": 184}, "uniqueid": "MTK3512:3BQU611VFQR48SX29Q1QIHMRGAP99S", "dateTime": 1520626913037}, {"current_trial": 185, "trialdata": {"rt": [2701, 5733, 9164, 12437, 15532, 18628, 20980], "trial_type": "math-distractor", "key_times": [2324, 2406, 2701, 5428, 5492, 5733, 8391, 8510, 9164, 12085, 12213, 12437, 15262, 15356, 15532, 18253, 18334, 18628, 20709, 20980], "responses": ["14", "21", "18", "13", "20", "14", "8"], "num2": [6, 9, 8, 7, 9, 3, 1, 8], "num3": [6, 7, 3, 4, 6, 2, 3, 5], "conditions": [24, 800, "a", 24000], "internal_node_id": "0.0-140.0", "key_presses": [97, 100, 13, 98, 97, 13, 97, 104, 13, 97, 99, 13, 98, 96, 13, 97, 100, 13, 104, 13], "trial": 5, "time_elapsed": 840561, "type": "DISTRACTOR", "trial_index": 185, "num1": [2, 5, 7, 2, 5, 9, 4, 9]}, "uniqueid": "MTK3512:3BQU611VFQR48SX29Q1QIHMRGAP99S", "dateTime": 1520626939039}, {"current_trial": 186, "trialdata": {"rt": -1, "trial_type": "single-stim", "stimulus": "<p id=\"stim\">10</p>", "internal_node_id": "0.0-141.0-0.0", "time_elapsed": 843565, "key_press": -1, "trial_index": 186}, "uniqueid": "MTK3512:3BQU611VFQR48SX29Q1QIHMRGAP99S", "dateTime": 1520626942043}, {"current_trial": 187, "trialdata": {"rt": -1, "trial_type": "single-stim", "stimulus": "<p id=\"stim\">9</p>", "internal_node_id": "0.0-141.0-1.0", "time_elapsed": 844565, "key_press": -1, "trial_index": 187}, "uniqueid": "MTK3512:3BQU611VFQR48SX29Q1QIHMRGAP99S", "dateTime": 1520626943043}, {"current_trial": 188, "trialdata": {"rt": -1, "trial_type": "single-stim", "stimulus": "<p id=\"stim\">8</p>", "internal_node_id": "0.0-141.0-2.0", "time_elapsed": 845568, "key_press": -1, "trial_index": 188}, "uniqueid": "MTK3512:3BQU611VFQR48SX29Q1QIHMRGAP99S", "dateTime": 1520626944046}, {"current_trial": 189, "trialdata": {"rt": -1, "trial_type": "single-stim", "stimulus": "<p id=\"stim\">7</p>", "internal_node_id": "0.0-141.0-3.0", "time_elapsed": 846569, "key_press": -1, "trial_index": 189}, "uniqueid": "MTK3512:3BQU611VFQR48SX29Q1QIHMRGAP99S", "dateTime": 1520626945047}, {"current_trial": 190, "trialdata": {"rt": -1, "trial_type": "single-stim", "stimulus": "<p id=\"stim\">6</p>", "internal_node_id": "0.0-141.0-4.0", "time_elapsed": 847571, "key_press": -1, "trial_index": 190}, "uniqueid": "MTK3512:3BQU611VFQR48SX29Q1QIHMRGAP99S", "dateTime": 1520626946050}, {"current_trial": 191, "trialdata": {"rt": -1, "trial_type": "single-stim", "stimulus": "<p id=\"stim\">5</p>", "internal_node_id": "0.0-141.0-5.0", "time_elapsed": 848573, "key_press": -1, "trial_index": 191}, "uniqueid": "MTK3512:3BQU611VFQR48SX29Q1QIHMRGAP99S", "dateTime": 1520626947052}, {"current_trial": 192, "trialdata": {"rt": -1, "trial_type": "single-stim", "stimulus": "<p id=\"stim\">4</p>", "internal_node_id": "0.0-141.0-6.0", "time_elapsed": 849575, "key_press": -1, "trial_index": 192}, "uniqueid": "MTK3512:3BQU611VFQR48SX29Q1QIHMRGAP99S", "dateTime": 1520626948053}, {"current_trial": 193, "trialdata": {"rt": -1, "trial_type": "single-stim", "stimulus": "<p id=\"stim\">3</p>", "internal_node_id": "0.0-141.0-7.0", "time_elapsed": 850577, "key_press": -1, "trial_index": 193}, "uniqueid": "MTK3512:3BQU611VFQR48SX29Q1QIHMRGAP99S", "dateTime": 1520626949055}, {"current_trial": 194, "trialdata": {"rt": -1, "trial_type": "single-stim", "stimulus": "<p id=\"stim\">2</p>", "internal_node_id": "0.0-141.0-8.0", "time_elapsed": 851578, "key_press": -1, "trial_index": 194}, "uniqueid": "MTK3512:3BQU611VFQR48SX29Q1QIHMRGAP99S", "dateTime": 1520626950056}, {"current_trial": 195, "trialdata": {"rt": -1, "trial_type": "single-stim", "stimulus": "<p id=\"stim\">1</p>", "internal_node_id": "0.0-141.0-9.0", "time_elapsed": 852580, "key_press": -1, "trial_index": 195}, "uniqueid": "MTK3512:3BQU611VFQR48SX29Q1QIHMRGAP99S", "dateTime": 1520626951058}, {"current_trial": 196, "trialdata": {"rt": -1, "trial_type": "single-stim", "stimulus": "<p id=\"stim\">+</p>", "internal_node_id": "0.0-142.0-0.0", "time_elapsed": 854081, "key_press": -1, "type": "FIXATION", "trial_index": 196}, "uniqueid": "MTK3512:3BQU611VFQR48SX29Q1QIHMRGAP99S", "dateTime": 1520626952559}, {"current_trial": 197, "trialdata": {"rt": -1000, "trial_type": "single-audio", "word": "perfume", "stimulus": "/static/audio/wordpool/PERFUME.wav", "conditions": [24, 800, "a", 24000], "internal_node_id": "0.0-143.0", "trial": 5, "time_elapsed": 855740, "serialpos": 0, "key_press": -1, "wordID": 1048, "type": "PRES_AUD", "trial_index": 197}, "uniqueid": "MTK3512:3BQU611VFQR48SX29Q1QIHMRGAP99S", "dateTime": 1520626954218}, {"current_trial": 198, "trialdata": {"rt": -1000, "trial_type": "single-audio", "word": "label", "stimulus": "/static/audio/wordpool/LABEL.wav", "conditions": [24, 800, "a", 24000], "internal_node_id": "0.0-144.0", "trial": 5, "time_elapsed": 857567, "serialpos": 1, "key_press": -1, "wordID": 789, "type": "PRES_AUD", "trial_index": 198}, "uniqueid": "MTK3512:3BQU611VFQR48SX29Q1QIHMRGAP99S", "dateTime": 1520626956045}, {"current_trial": 199, "trialdata": {"rt": -1000, "trial_type": "single-audio", "word": "cricket", "stimulus": "/static/audio/wordpool/CRICKET.wav", "conditions": [24, 800, "a", 24000], "internal_node_id": "0.0-145.0", "trial": 5, "time_elapsed": 859181, "serialpos": 2, "key_press": -1, "wordID": 407, "type": "PRES_AUD", "trial_index": 199}, "uniqueid": "MTK3512:3BQU611VFQR48SX29Q1QIHMRGAP99S", "dateTime": 1520626957659}, {"current_trial": 200, "trialdata": {"rt": -1000, "trial_type": "single-audio", "word": "husband", "stimulus": "/static/audio/wordpool/HUSBAND.wav", "conditions": [24, 800, "a", 24000], "internal_node_id": "0.0-146.0", "trial": 5, "time_elapsed": 860996, "serialpos": 3, "key_press": -1, "wordID": 727, "type": "PRES_AUD", "trial_index": 200}, "uniqueid": "MTK3512:3BQU611VFQR48SX29Q1QIHMRGAP99S", "dateTime": 1520626959474}, {"current_trial": 201, "trialdata": {"rt": -1000, "trial_type": "single-audio", "word": "sticker", "stimulus": "/static/audio/wordpool/STICKER.wav", "conditions": [24, 800, "a", 24000], "internal_node_id": "0.0-147.0", "trial": 5, "time_elapsed": 862963, "serialpos": 4, "key_press": -1, "wordID": 1381, "type": "PRES_AUD", "trial_index": 201}, "uniqueid": "MTK3512:3BQU611VFQR48SX29Q1QIHMRGAP99S", "dateTime": 1520626961441}, {"current_trial": 202, "trialdata": {"rt": -1000, "trial_type": "single-audio", "word": "badge", "stimulus": "/static/audio/wordpool/BADGE.wav", "conditions": [24, 800, "a", 24000], "internal_node_id": "0.0-148.0", "trial": 5, "time_elapsed": 864607, "serialpos": 5, "key_press": -1, "wordID": 67, "type": "PRES_AUD", "trial_index": 202}, "uniqueid": "MTK3512:3BQU611VFQR48SX29Q1QIHMRGAP99S", "dateTime": 1520626963085}, {"current_trial": 203, "trialdata": {"rt": -1000, "trial_type": "single-audio", "word": "brook", "stimulus": "/static/audio/wordpool/BROOK.wav", "conditions": [24, 800, "a", 24000], "internal_node_id": "0.0-149.0", "trial": 5, "time_elapsed": 866247, "serialpos": 6, "key_press": -1, "wordID": 176, "type": "PRES_AUD", "trial_index": 203}, "uniqueid": "MTK3512:3BQU611VFQR48SX29Q1QIHMRGAP99S", "dateTime": 1520626964725}, {"current_trial": 204, "trialdata": {"rt": -1000, "trial_type": "single-audio", "word": "lipstick", "stimulus": "/static/audio/wordpool/LIPSTICK.wav", "conditions": [24, 800, "a", 24000], "internal_node_id": "0.0-150.0", "trial": 5, "time_elapsed": 868110, "serialpos": 7, "key_press": -1, "wordID": 828, "type": "PRES_AUD", "trial_index": 204}, "uniqueid": "MTK3512:3BQU611VFQR48SX29Q1QIHMRGAP99S", "dateTime": 1520626966588}, {"current_trial": 205, "trialdata": {"rt": -1000, "trial_type": "single-audio", "word": "daisy", "stimulus": "/static/audio/wordpool/DAISY.wav", "conditions": [24, 800, "a", 24000], "internal_node_id": "0.0-151.0", "trial": 5, "time_elapsed": 869891, "serialpos": 8, "key_press": -1, "wordID": 434, "type": "PRES_AUD", "trial_index": 205}, "uniqueid": "MTK3512:3BQU611VFQR48SX29Q1QIHMRGAP99S", "dateTime": 1520626968369}, {"current_trial": 206, "trialdata": {"rt": -1000, "trial_type": "single-audio", "word": "spouse", "stimulus": "/static/audio/wordpool/SPOUSE.wav", "conditions": [24, 800, "a", 24000], "internal_node_id": "0.0-152.0", "trial": 5, "time_elapsed": 871765, "serialpos": 9, "key_press": -1, "wordID": 1357, "type": "PRES_AUD", "trial_index": 206}, "uniqueid": "MTK3512:3BQU611VFQR48SX29Q1QIHMRGAP99S", "dateTime": 1520626970243}, {"current_trial": 207, "trialdata": {"rt": -1000, "trial_type": "single-audio", "word": "fragrance", "stimulus": "/static/audio/wordpool/FRAGRANCE.wav", "conditions": [24, 800, "a", 24000], "internal_node_id": "0.0-153.0", "trial": 5, "time_elapsed": 873555, "serialpos": 10, "key_press": -1, "wordID": 598, "type": "PRES_AUD", "trial_index": 207}, "uniqueid": "MTK3512:3BQU611VFQR48SX29Q1QIHMRGAP99S", "dateTime": 1520626972033}, {"current_trial": 208, "trialdata": {"rt": -1000, "trial_type": "single-audio", "word": "london", "stimulus": "/static/audio/wordpool/LONDON.wav", "conditions": [24, 800, "a", 24000], "internal_node_id": "0.0-154.0", "trial": 5, "time_elapsed": 875216, "serialpos": 11, "key_press": -1, "wordID": 842, "type": "PRES_AUD", "trial_index": 208}, "uniqueid": "MTK3512:3BQU611VFQR48SX29Q1QIHMRGAP99S", "dateTime": 1520626973694}, {"current_trial": 209, "trialdata": {"rt": -1000, "trial_type": "single-audio", "word": "grape", "stimulus": "/static/audio/wordpool/GRAPE.wav", "conditions": [24, 800, "a", 24000], "internal_node_id": "0.0-155.0", "trial": 5, "time_elapsed": 877024, "serialpos": 12, "key_press": -1, "wordID": 653, "type": "PRES_AUD", "trial_index": 209}, "uniqueid": "MTK3512:3BQU611VFQR48SX29Q1QIHMRGAP99S", "dateTime": 1520626975502}, {"current_trial": 210, "trialdata": {"rt": -1000, "trial_type": "single-audio", "word": "peach", "stimulus": "/static/audio/wordpool/PEACH.wav", "conditions": [24, 800, "a", 24000], "internal_node_id": "0.0-156.0", "trial": 5, "time_elapsed": 878910, "serialpos": 13, "key_press": -1, "wordID": 1030, "type": "PRES_AUD", "trial_index": 210}, "uniqueid": "MTK3512:3BQU611VFQR48SX29Q1QIHMRGAP99S", "dateTime": 1520626977388}, {"current_trial": 211, "trialdata": {"rt": -1000, "trial_type": "single-audio", "word": "backbone", "stimulus": "/static/audio/wordpool/BACKBONE.wav", "conditions": [24, 800, "a", 24000], "internal_node_id": "0.0-157.0", "trial": 5, "time_elapsed": 880526, "serialpos": 14, "key_press": -1, "wordID": 65, "type": "PRES_AUD", "trial_index": 211}, "uniqueid": "MTK3512:3BQU611VFQR48SX29Q1QIHMRGAP99S", "dateTime": 1520626979004}, {"current_trial": 212, "trialdata": {"rt": -1000, "trial_type": "single-audio", "word": "staple", "stimulus": "/static/audio/wordpool/STAPLE.wav", "conditions": [24, 800, "a", 24000], "internal_node_id": "0.0-158.0", "trial": 5, "time_elapsed": 882168, "serialpos": 15, "key_press": -1, "wordID": 1370, "type": "PRES_AUD", "trial_index": 212}, "uniqueid": "MTK3512:3BQU611VFQR48SX29Q1QIHMRGAP99S", "dateTime": 1520626980647}, {"current_trial": 213, "trialdata": {"rt": -1000, "trial_type": "single-audio", "word": "cellar", "stimulus": "/static/audio/wordpool/CELLAR.wav", "conditions": [24, 800, "a", 24000], "internal_node_id": "0.0-159.0", "trial": 5, "time_elapsed": 884050, "serialpos": 16, "key_press": -1, "wordID": 266, "type": "PRES_AUD", "trial_index": 213}, "uniqueid": "MTK3512:3BQU611VFQR48SX29Q1QIHMRGAP99S", "dateTime": 1520626982528}, {"current_trial": 214, "trialdata": {"rt": -1000, "trial_type": "single-audio", "word": "tweezers", "stimulus": "/static/audio/wordpool/TWEEZERS.wav", "conditions": [24, 800, "a", 24000], "internal_node_id": "0.0-160.0", "trial": 5, "time_elapsed": 885719, "serialpos": 17, "key_press": -1, "wordID": 1525, "type": "PRES_AUD", "trial_index": 214}, "uniqueid": "MTK3512:3BQU611VFQR48SX29Q1QIHMRGAP99S", "dateTime": 1520626984197}, {"current_trial": 215, "trialdata": {"rt": -1000, "trial_type": "single-audio", "word": "japan", "stimulus": "/static/audio/wordpool/JAPAN.wav", "conditions": [24, 800, "a", 24000], "internal_node_id": "0.0-161.0", "trial": 5, "time_elapsed": 887383, "serialpos": 18, "key_press": -1, "wordID": 748, "type": "PRES_AUD", "trial_index": 215}, "uniqueid": "MTK3512:3BQU611VFQR48SX29Q1QIHMRGAP99S", "dateTime": 1520626985861}, {"current_trial": 216, "trialdata": {"rt": -1000, "trial_type": "single-audio", "word": "marrow", "stimulus": "/static/audio/wordpool/MARROW.wav", "conditions": [24, 800, "a", 24000], "internal_node_id": "0.0-162.0", "trial": 5, "time_elapsed": 889018, "serialpos": 19, "key_press": -1, "wordID": 871, "type": "PRES_AUD", "trial_index": 216}, "uniqueid": "MTK3512:3BQU611VFQR48SX29Q1QIHMRGAP99S", "dateTime": 1520626987496}, {"current_trial": 217, "trialdata": {"rt": -1000, "trial_type": "single-audio", "word": "chest", "stimulus": "/static/audio/wordpool/CHEST.wav", "conditions": [24, 800, "a", 24000], "internal_node_id": "0.0-163.0", "trial": 5, "time_elapsed": 890968, "serialpos": 20, "key_press": -1, "wordID": 294, "type": "PRES_AUD", "trial_index": 217}, "uniqueid": "MTK3512:3BQU611VFQR48SX29Q1QIHMRGAP99S", "dateTime": 1520626989446}, {"current_trial": 218, "trialdata": {"rt": -1000, "trial_type": "single-audio", "word": "rabbit", "stimulus": "/static/audio/wordpool/RABBIT.wav", "conditions": [24, 800, "a", 24000], "internal_node_id": "0.0-164.0", "trial": 5, "time_elapsed": 892632, "serialpos": 21, "key_press": -1, "wordID": 1151, "type": "PRES_AUD", "trial_index": 218}, "uniqueid": "MTK3512:3BQU611VFQR48SX29Q1QIHMRGAP99S", "dateTime": 1520626991111}, {"current_trial": 219, "trialdata": {"rt": -1000, "trial_type": "single-audio", "word": "robber", "stimulus": "/static/audio/wordpool/ROBBER.wav", "conditions": [24, 800, "a", 24000], "internal_node_id": "0.0-165.0", "trial": 5, "time_elapsed": 894234, "serialpos": 22, "key_press": -1, "wordID": 1196, "type": "PRES_AUD", "trial_index": 219}, "uniqueid": "MTK3512:3BQU611VFQR48SX29Q1QIHMRGAP99S", "dateTime": 1520626992712}, {"current_trial": 220, "trialdata": {"rt": -1000, "trial_type": "single-audio", "word": "forehead", "stimulus": "/static/audio/wordpool/FOREHEAD.wav", "conditions": [24, 800, "a", 24000], "internal_node_id": "0.0-166.0", "trial": 5, "time_elapsed": 896035, "serialpos": 23, "key_press": -1, "wordID": 591, "type": "PRES_AUD", "trial_index": 220}, "uniqueid": "MTK3512:3BQU611VFQR48SX29Q1QIHMRGAP99S", "dateTime": 1520626994513}, {"current_trial": 221, "trialdata": {"rt": -1, "trial_type": "single-stim", "stimulus": "", "internal_node_id": "0.0-167.0-0.0", "time_elapsed": 897430, "key_press": -1, "type": "PRE_RECALL_DELAY", "trial_index": 221}, "uniqueid": "MTK3512:3BQU611VFQR48SX29Q1QIHMRGAP99S", "dateTime": 1520626995908}, {"current_trial": 222, "trialdata": {"rt": -1000, "trial_type": "single-audio", "stimulus": "/static/audio/400Hz.wav", "internal_node_id": "0.0-168.0", "time_elapsed": 897932, "key_press": -1, "type": "PRE_RECALL_ALERT", "trial_index": 222}, "uniqueid": "MTK3512:3BQU611VFQR48SX29Q1QIHMRGAP99S", "dateTime": 1520626996410}, {"current_trial": 223, "trialdata": {"rt": [5191, 6951, 7999, 9119, 10446, 16086, 23575, 26926, 39854], "recwords": ["robber", "forehead", "marrow", "chest", "rabbit", "robber", "lamp", "brook", "spine"], "key_times": [4402, 4521, 4672, 4824, 4906, 5047, 5191, 5458, 5735, 5887, 5982, 6281, 6416, 6544, 6783, 6951, 7267, 7359, 7457, 7632, 7704, 7856, 7999, 8303, 8383, 8568, 8679, 8863, 9119, 9511, 9647, 9855, 10007, 10104, 10216, 10446, 14992, 15144, 15267, 15416, 15512, 15663, 16086, 22547, 22991, 23144, 23239, 23575, 26224, 26282, 26458, 26600, 26686, 26926, 39232, 39315, 39425, 39648, 39728, 39854], "trial_type": "free-recall", "conditions": [24, 800, "a", 24000], "internal_node_id": "0.0-169.0-0.0", "key_presses": [82, 79, 66, 66, 69, 82, 13, 70, 79, 82, 69, 72, 69, 65, 68, 13, 77, 65, 82, 82, 79, 87, 13, 67, 72, 69, 83, 84, 13, 82, 65, 66, 66, 73, 84, 13, 82, 79, 66, 66, 69, 82, 13, 76, 65, 77, 80, 13, 66, 82, 79, 79, 75, 13, 83, 80, 73, 78, 69, 13], "trial": 5, "time_elapsed": 957934, "type": "FREE_RECALL", "trial_index": 223}, "uniqueid": "MTK3512:3BQU611VFQR48SX29Q1QIHMRGAP99S", "dateTime": 1520627056418}, {"current_trial": 224, "trialdata": {"rt": 1374, "trial_type": "text", "internal_node_id": "0.0-170.0", "time_elapsed": 961315, "key_press": 32, "type": "INSTRUCTIONS", "trial_index": 224}, "uniqueid": "MTK3512:3BQU611VFQR48SX29Q1QIHMRGAP99S", "dateTime": 1520627059793}, {"current_trial": 225, "trialdata": {"rt": [2647, 4589, 6406, 10751], "trial_type": "math-distractor", "key_times": [2359, 2398, 2647, 4215, 4294, 4589, 6070, 6135, 6406, 9654, 10491, 10751], "responses": ["18", "17", "13", "26"], "num2": [4, 7, 2, 8, 4], "num3": [6, 7, 3, 9, 8], "conditions": [12, 800, "a", 12000], "internal_node_id": "0.0-171.0", "key_presses": [97, 104, 13, 97, 103, 13, 97, 99, 13, 98, 102, 13], "trial": 6, "time_elapsed": 975319, "type": "DISTRACTOR", "trial_index": 225, "num1": [8, 3, 8, 8, 5]}, "uniqueid": "MTK3512:3BQU611VFQR48SX29Q1QIHMRGAP99S", "dateTime": 1520627073797}, {"current_trial": 226, "trialdata": {"rt": -1, "trial_type": "single-stim", "stimulus": "<p id=\"stim\">10</p>", "internal_node_id": "0.0-172.0-0.0", "time_elapsed": 978323, "key_press": -1, "trial_index": 226}, "uniqueid": "MTK3512:3BQU611VFQR48SX29Q1QIHMRGAP99S", "dateTime": 1520627076801}, {"current_trial": 227, "trialdata": {"rt": -1, "trial_type": "single-stim", "stimulus": "<p id=\"stim\">9</p>", "internal_node_id": "0.0-172.0-1.0", "time_elapsed": 979324, "key_press": -1, "trial_index": 227}, "uniqueid": "MTK3512:3BQU611VFQR48SX29Q1QIHMRGAP99S", "dateTime": 1520627077803}, {"current_trial": 228, "trialdata": {"rt": -1, "trial_type": "single-stim", "stimulus": "<p id=\"stim\">8</p>", "internal_node_id": "0.0-172.0-2.0", "time_elapsed": 980326, "key_press": -1, "trial_index": 228}, "uniqueid": "MTK3512:3BQU611VFQR48SX29Q1QIHMRGAP99S", "dateTime": 1520627078804}, {"current_trial": 229, "trialdata": {"rt": -1, "trial_type": "single-stim", "stimulus": "<p id=\"stim\">7</p>", "internal_node_id": "0.0-172.0-3.0", "time_elapsed": 981328, "key_press": -1, "trial_index": 229}, "uniqueid": "MTK3512:3BQU611VFQR48SX29Q1QIHMRGAP99S", "dateTime": 1520627079806}, {"current_trial": 230, "trialdata": {"rt": -1, "trial_type": "single-stim", "stimulus": "<p id=\"stim\">6</p>", "internal_node_id": "0.0-172.0-4.0", "time_elapsed": 982330, "key_press": -1, "trial_index": 230}, "uniqueid": "MTK3512:3BQU611VFQR48SX29Q1QIHMRGAP99S", "dateTime": 1520627080808}, {"current_trial": 231, "trialdata": {"rt": -1, "trial_type": "single-stim", "stimulus": "<p id=\"stim\">5</p>", "internal_node_id": "0.0-172.0-5.0", "time_elapsed": 983331, "key_press": -1, "trial_index": 231}, "uniqueid": "MTK3512:3BQU611VFQR48SX29Q1QIHMRGAP99S", "dateTime": 1520627081809}, {"current_trial": 232, "trialdata": {"rt": -1, "trial_type": "single-stim", "stimulus": "<p id=\"stim\">4</p>", "internal_node_id": "0.0-172.0-6.0", "time_elapsed": 984333, "key_press": -1, "trial_index": 232}, "uniqueid": "MTK3512:3BQU611VFQR48SX29Q1QIHMRGAP99S", "dateTime": 1520627082811}, {"current_trial": 233, "trialdata": {"rt": -1, "trial_type": "single-stim", "stimulus": "<p id=\"stim\">3</p>", "internal_node_id": "0.0-172.0-7.0", "time_elapsed": 985335, "key_press": -1, "trial_index": 233}, "uniqueid": "MTK3512:3BQU611VFQR48SX29Q1QIHMRGAP99S", "dateTime": 1520627083813}, {"current_trial": 234, "trialdata": {"rt": -1, "trial_type": "single-stim", "stimulus": "<p id=\"stim\">2</p>", "internal_node_id": "0.0-172.0-8.0", "time_elapsed": 986336, "key_press": -1, "trial_index": 234}, "uniqueid": "MTK3512:3BQU611VFQR48SX29Q1QIHMRGAP99S", "dateTime": 1520627084814}, {"current_trial": 235, "trialdata": {"rt": -1, "trial_type": "single-stim", "stimulus": "<p id=\"stim\">1</p>", "internal_node_id": "0.0-172.0-9.0", "time_elapsed": 987338, "key_press": -1, "trial_index": 235}, "uniqueid": "MTK3512:3BQU611VFQR48SX29Q1QIHMRGAP99S", "dateTime": 1520627085817}, {"current_trial": 236, "trialdata": {"rt": -1, "trial_type": "single-stim", "stimulus": "<p id=\"stim\">+</p>", "internal_node_id": "0.0-173.0-0.0", "time_elapsed": 988840, "key_press": -1, "type": "FIXATION", "trial_index": 236}, "uniqueid": "MTK3512:3BQU611VFQR48SX29Q1QIHMRGAP99S", "dateTime": 1520627087318}, {"current_trial": 237, "trialdata": {"rt": -1000, "trial_type": "single-audio", "word": "hero", "stimulus": "/static/audio/wordpool/HERO.wav", "conditions": [12, 800, "a", 12000], "internal_node_id": "0.0-174.0", "trial": 6, "time_elapsed": 990761, "serialpos": 0, "key_press": -1, "wordID": 705, "type": "PRES_AUD", "trial_index": 237}, "uniqueid": "MTK3512:3BQU611VFQR48SX29Q1QIHMRGAP99S", "dateTime": 1520627089239}, {"current_trial": 238, "trialdata": {"rt": -1000, "trial_type": "single-audio", "word": "victim", "stimulus": "/static/audio/wordpool/VICTIM.wav", "conditions": [12, 800, "a", 12000], "internal_node_id": "0.0-175.0", "trial": 6, "time_elapsed": 992385, "serialpos": 1, "key_press": -1, "wordID": 1561, "type": "PRES_AUD", "trial_index": 238}, "uniqueid": "MTK3512:3BQU611VFQR48SX29Q1QIHMRGAP99S", "dateTime": 1520627090864}, {"current_trial": 239, "trialdata": {"rt": -1000, "trial_type": "single-audio", "word": "mattress", "stimulus": "/static/audio/wordpool/MATTRESS.wav", "conditions": [12, 800, "a", 12000], "internal_node_id": "0.0-176.0", "trial": 6, "time_elapsed": 993989, "serialpos": 2, "key_press": -1, "wordID": 878, "type": "PRES_AUD", "trial_index": 239}, "uniqueid": "MTK3512:3BQU611VFQR48SX29Q1QIHMRGAP99S", "dateTime": 1520627092467}, {"current_trial": 240, "trialdata": {"rt": -1000, "trial_type": "single-audio", "word": "turnip", "stimulus": "/static/audio/wordpool/TURNIP.wav", "conditions": [12, 800, "a", 12000], "internal_node_id": "0.0-177.0", "trial": 6, "time_elapsed": 995718, "serialpos": 3, "key_press": -1, "wordID": 1520, "type": "PRES_AUD", "trial_index": 240}, "uniqueid": "MTK3512:3BQU611VFQR48SX29Q1QIHMRGAP99S", "dateTime": 1520627094197}, {"current_trial": 241, "trialdata": {"rt": -1000, "trial_type": "single-audio", "word": "beef", "stimulus": "/static/audio/wordpool/BEEF.wav", "conditions": [12, 800, "a", 12000], "internal_node_id": "0.0-178.0", "trial": 6, "time_elapsed": 997410, "serialpos": 4, "key_press": -1, "wordID": 112, "type": "PRES_AUD", "trial_index": 241}, "uniqueid": "MTK3512:3BQU611VFQR48SX29Q1QIHMRGAP99S", "dateTime": 1520627095889}, {"current_trial": 242, "trialdata": {"rt": -1000, "trial_type": "single-audio", "word": "pork", "stimulus": "/static/audio/wordpool/PORK.wav", "conditions": [12, 800, "a", 12000], "internal_node_id": "0.0-179.0", "trial": 6, "time_elapsed": 999361, "serialpos": 5, "key_press": -1, "wordID": 1107, "type": "PRES_AUD", "trial_index": 242}, "uniqueid": "MTK3512:3BQU611VFQR48SX29Q1QIHMRGAP99S", "dateTime": 1520627097839}, {"current_trial": 243, "trialdata": {"rt": -1000, "trial_type": "single-audio", "word": "popcorn", "stimulus": "/static/audio/wordpool/POPCORN.wav", "conditions": [12, 800, "a", 12000], "internal_node_id": "0.0-180.0", "trial": 6, "time_elapsed": 1001082, "serialpos": 6, "key_press": -1, "wordID": 1103, "type": "PRES_AUD", "trial_index": 243}, "uniqueid": "MTK3512:3BQU611VFQR48SX29Q1QIHMRGAP99S", "dateTime": 1520627099560}, {"current_trial": 244, "trialdata": {"rt": -1000, "trial_type": "single-audio", "word": "bank", "stimulus": "/static/audio/wordpool/BANK.wav", "conditions": [12, 800, "a", 12000], "internal_node_id": "0.0-181.0", "trial": 6, "time_elapsed": 1002848, "serialpos": 7, "key_press": -1, "wordID": 82, "type": "PRES_AUD", "trial_index": 244},