{"assignmentId": "39L1G8WVWRY04L5RO4LNCY1MHNC13C", "workerId": "MTK3151", "questiondata": {"avail_screen_height": 690, "color_depth": 24, "screen_width": 1280, "pixel_depth": 24, "avail_screen_width": 1280, "screen_height": 720}, "bonus": 0, "hitId": "35ZRNT9RUI5JDTEY44EWZAIAQ3U3OO", "counterbalance": 2007, "useragent": "Mozilla/5.0 (Windows NT 10.0; Win64; x64) AppleWebKit/537.36 (KHTML, like Gecko) Chrome/64.0.3282.186 Safari/537.36", "eventdata": [{"eventtype": "initialized", "interval": 0, "value": null, "timestamp": 1520107371475}, {"eventtype": "window_resize", "interval": 0, "value": [1283, 672], "timestamp": 1520107371475}, {"eventtype": "focus", "interval": 59326, "value": "off", "timestamp": 1520107430801}, {"eventtype": "focus", "interval": 1, "value": "on", "timestamp": 1520107430802}, {"eventtype": "window_resize", "interval": 22412, "value": [1283, 623], "timestamp": 1520107453214}, {"eventtype": "focus", "interval": 4203, "value": "off", "timestamp": 1520107457417}, {"eventtype": "window_resize", "interval": 5342, "value": [1283, 672], "timestamp": 1520107462759}, {"eventtype": "focus", "interval": 5202, "value": "on", "timestamp": 1520107467961}], "data": [{"current_trial": 0, "trialdata": {"rt": 2767, "trial_type": "text", "internal_node_id": "0.0-0.0", "time_elapsed": 2769, "key_press": 13, "type": "INSTRUCTIONS", "trial_index": 0}, "uniqueid": "MTK3151:39L1G8WVWRY04L5RO4LNCY1MHNC13C", "dateTime": 1520107398348}, {"current_trial": 1, "trialdata": {"rt": 4788, "trial_type": "text", "internal_node_id": "0.0-1.0", "time_elapsed": 7558, "key_press": 175, "type": "INSTRUCTIONS", "trial_index": 1}, "uniqueid": "MTK3151:39L1G8WVWRY04L5RO4LNCY1MHNC13C", "dateTime": 1520107403136}, {"current_trial": 2, "trialdata": {"rt": [22766, 67565], "trial_type": "audio-test", "responses": ["up", "ocean"], "internal_node_id": "0.0-2.0", "time_elapsed": 75136, "type": "AUDIO_TEST", "trial_index": 2}, "uniqueid": "MTK3151:39L1G8WVWRY04L5RO4LNCY1MHNC13C", "dateTime": 1520107470714}, {"current_trial": 3, "trialdata": {"rt": [6968], "trial_type": "audio-test", "responses": ["crystal"], "internal_node_id": "0.0-3.0", "time_elapsed": 82108, "type": "AUDIO_TEST", "trial_index": 3}, "uniqueid": "MTK3151:39L1G8WVWRY04L5RO4LNCY1MHNC13C", "dateTime": 1520107477687}, {"current_trial": 4, "trialdata": {"rt": [7173], "trial_type": "audio-test", "responses": ["spice"], "internal_node_id": "0.0-4.0", "time_elapsed": 89285, "type": "AUDIO_TEST", "trial_index": 4}, "uniqueid": "MTK3151:39L1G8WVWRY04L5RO4LNCY1MHNC13C", "dateTime": 1520107484863}, {"current_trial": 5, "trialdata": {"rt": 29122, "trial_type": "survey-text", "responses": "{\"Q0\":\"10:30PM\",\"Q1\":\"8:00AM\",\"Q2\":\"4\"}", "internal_node_id": "0.0-5.0", "time_elapsed": 119162, "type": "SLEEP_SURVEY", "trial_index": 5}, "uniqueid": "MTK3151:39L1G8WVWRY04L5RO4LNCY1MHNC13C", "dateTime": 1520107514740}, {"current_trial": 6, "trialdata": {"rt": 88920, "trial_type": "text", "internal_node_id": "0.0-6.0", "time_elapsed": 209085, "key_press": 13, "type": "INSTRUCTIONS", "trial_index": 6}, "uniqueid": "MTK3151:39L1G8WVWRY04L5RO4LNCY1MHNC13C", "dateTime": 1520107604663}, {"current_trial": 7, "trialdata": {"rt": 35416, "trial_type": "text", "internal_node_id": "0.0-7.0", "time_elapsed": 245002, "key_press": 75, "type": "INSTRUCTIONS", "trial_index": 7}, "uniqueid": "MTK3151:39L1G8WVWRY04L5RO4LNCY1MHNC13C", "dateTime": 1520107640580}, {"current_trial": 8, "trialdata": {"rt": 25861, "trial_type": "text", "internal_node_id": "0.0-8.0", "time_elapsed": 271364, "key_press": 74, "type": "INSTRUCTIONS", "trial_index": 8}, "uniqueid": "MTK3151:39L1G8WVWRY04L5RO4LNCY1MHNC13C", "dateTime": 1520107666942}, {"current_trial": 9, "trialdata": {"rt": [5177, 8175, 10607, 14423, 17370], "trial_type": "math-distractor", "key_times": [4099, 4319, 5177, 7772, 8006, 8175, 10231, 10354, 10607, 13943, 14145, 14423, 17056, 17207, 17370], "responses": ["16", "14", "10", "17", "11"], "num2": [5, 2, 5, 4, 5, 9], "num3": [3, 3, 1, 9, 1, 1], "conditions": [18, 1200, "a", 18000], "internal_node_id": "0.0-9.0", "key_presses": [49, 54, 13, 49, 52, 13, 49, 48, 13, 49, 55, 13, 49, 49, 13], "trial": 0, "time_elapsed": 290370, "type": "DISTRACTOR", "trial_index": 9, "num1": [8, 9, 4, 4, 5, 1]}, "uniqueid": "MTK3151:39L1G8WVWRY04L5RO4LNCY1MHNC13C", "dateTime": 1520107685948}, {"current_trial": 10, "trialdata": {"rt": -1, "trial_type": "single-stim", "stimulus": "<p id=\"stim\">10</p>", "internal_node_id": "0.0-10.0-0.0", "time_elapsed": 293372, "key_press": -1, "trial_index": 10}, "uniqueid": "MTK3151:39L1G8WVWRY04L5RO4LNCY1MHNC13C", "dateTime": 1520107688950}, {"current_trial": 11, "trialdata": {"rt": -1, "trial_type": "single-stim", "stimulus": "<p id=\"stim\">9</p>", "internal_node_id": "0.0-10.0-1.0", "time_elapsed": 294373, "key_press": -1, "trial_index": 11}, "uniqueid": "MTK3151:39L1G8WVWRY04L5RO4LNCY1MHNC13C", "dateTime": 1520107689951}, {"current_trial": 12, "trialdata": {"rt": -1, "trial_type": "single-stim", "stimulus": "<p id=\"stim\">8</p>", "internal_node_id": "0.0-10.0-2.0", "time_elapsed": 295374, "key_press": -1, "trial_index": 12}, "uniqueid": "MTK3151:39L1G8WVWRY04L5RO4LNCY1MHNC13C", "dateTime": 1520107690953}, {"current_trial": 13, "trialdata": {"rt": -1, "trial_type": "single-stim", "stimulus": "<p id=\"stim\">7</p>", "internal_node_id": "0.0-10.0-3.0", "time_elapsed": 296376, "key_press": -1, "trial_index": 13}, "uniqueid": "MTK3151:39L1G8WVWRY04L5RO4LNCY1MHNC13C", "dateTime": 1520107691954}, {"current_trial": 14, "trialdata": {"rt": -1, "trial_type": "single-stim", "stimulus": "<p id=\"stim\">6</p>", "internal_node_id": "0.0-10.0-4.0", "time_elapsed": 297377, "key_press": -1, "trial_index": 14}, "uniqueid": "MTK3151:39L1G8WVWRY04L5RO4LNCY1MHNC13C", "dateTime": 1520107692955}, {"current_trial": 15, "trialdata": {"rt": -1, "trial_type": "single-stim", "stimulus": "<p id=\"stim\">5</p>", "internal_node_id": "0.0-10.0-5.0", "time_elapsed": 298380, "key_press": -1, "trial_index": 15}, "uniqueid": "MTK3151:39L1G8WVWRY04L5RO4LNCY1MHNC13C", "dateTime": 1520107693958}, {"current_trial": 16, "trialdata": {"rt": -1, "trial_type": "single-stim", "stimulus": "<p id=\"stim\">4</p>", "internal_node_id": "0.0-10.0-6.0", "time_elapsed": 299382, "key_press": -1, "trial_index": 16}, "uniqueid": "MTK3151:39L1G8WVWRY04L5RO4LNCY1MHNC13C", "dateTime": 1520107694960}, {"current_trial": 17, "trialdata": {"rt": -1, "trial_type": "single-stim", "stimulus": "<p id=\"stim\">3</p>", "internal_node_id": "0.0-10.0-7.0", "time_elapsed": 300382, "key_press": -1, "trial_index": 17}, "uniqueid": "MTK3151:39L1G8WVWRY04L5RO4LNCY1MHNC13C", "dateTime": 1520107695960}, {"current_trial": 18, "trialdata": {"rt": -1, "trial_type": "single-stim", "stimulus": "<p id=\"stim\">2</p>", "internal_node_id": "0.0-10.0-8.0", "time_elapsed": 301385, "key_press": -1, "trial_index": 18}, "uniqueid": "MTK3151:39L1G8WVWRY04L5RO4LNCY1MHNC13C", "dateTime": 1520107696963}, {"current_trial": 19, "trialdata": {"rt": -1, "trial_type": "single-stim", "stimulus": "<p id=\"stim\">1</p>", "internal_node_id": "0.0-10.0-9.0", "time_elapsed": 302386, "key_press": -1, "trial_index": 19}, "uniqueid": "MTK3151:39L1G8WVWRY04L5RO4LNCY1MHNC13C", "dateTime": 1520107697964}, {"current_trial": 20, "trialdata": {"rt": -1, "trial_type": "single-stim", "stimulus": "<p id=\"stim\">+</p>", "internal_node_id": "0.0-11.0-0.0", "time_elapsed": 303888, "key_press": -1, "type": "FIXATION", "trial_index": 20}, "uniqueid": "MTK3151:39L1G8WVWRY04L5RO4LNCY1MHNC13C", "dateTime": 1520107699466}, {"current_trial": 21, "trialdata": {"rt": -1000, "trial_type": "single-audio", "word": "flute", "stimulus": "/static/audio/wordpool/FLUTE.wav", "conditions": [18, 1200, "a", 18000], "internal_node_id": "0.0-12.0", "trial": 0, "time_elapsed": 306127, "serialpos": 0, "key_press": -1, "wordID": 584, "type": "PRES_AUD", "trial_index": 21}, "uniqueid": "MTK3151:39L1G8WVWRY04L5RO4LNCY1MHNC13C", "dateTime": 1520107701705}, {"current_trial": 22, "trialdata": {"rt": -1000, "trial_type": "single-audio", "word": "record", "stimulus": "/static/audio/wordpool/RECORD.wav", "conditions": [18, 1200, "a", 18000], "internal_node_id": "0.0-13.0", "trial": 0, "time_elapsed": 308367, "serialpos": 1, "key_press": -1, "wordID": 1175, "type": "PRES_AUD", "trial_index": 22}, "uniqueid": "MTK3151:39L1G8WVWRY04L5RO4LNCY1MHNC13C", "dateTime": 1520107703945}, {"current_trial": 23, "trialdata": {"rt": -1000, "trial_type": "single-audio", "word": "captive", "stimulus": "/static/audio/wordpool/CAPTIVE.wav", "conditions": [18, 1200, "a", 18000], "internal_node_id": "0.0-14.0", "trial": 0, "time_elapsed": 310504, "serialpos": 2, "key_press": -1, "wordID": 239, "type": "PRES_AUD", "trial_index": 23}, "uniqueid": "MTK3151:39L1G8WVWRY04L5RO4LNCY1MHNC13C", "dateTime": 1520107706082}, {"current_trial": 24, "trialdata": {"rt": -1000, "trial_type": "single-audio", "word": "scissors", "stimulus": "/static/audio/wordpool/SCISSORS.wav", "conditions": [18, 1200, "a", 18000], "internal_node_id": "0.0-15.0", "trial": 0, "time_elapsed": 312824, "serialpos": 3, "key_press": -1, "wordID": 1249, "type": "PRES_AUD", "trial_index": 24}, "uniqueid": "MTK3151:39L1G8WVWRY04L5RO4LNCY1MHNC13C", "dateTime": 1520107708403}, {"current_trial": 25, "trialdata": {"rt": -1000, "trial_type": "single-audio", "word": "brook", "stimulus": "/static/audio/wordpool/BROOK.wav", "conditions": [18, 1200, "a", 18000], "internal_node_id": "0.0-16.0", "trial": 0, "time_elapsed": 315156, "serialpos": 4, "key_press": -1, "wordID": 176, "type": "PRES_AUD", "trial_index": 25}, "uniqueid": "MTK3151:39L1G8WVWRY04L5RO4LNCY1MHNC13C", "dateTime": 1520107710734}, {"current_trial": 26, "trialdata": {"rt": -1000, "trial_type": "single-audio", "word": "gallon", "stimulus": "/static/audio/wordpool/GALLON.wav", "conditions": [18, 1200, "a", 18000], "internal_node_id": "0.0-17.0", "trial": 0, "time_elapsed": 317190, "serialpos": 5, "key_press": -1, "wordID": 617, "type": "PRES_AUD", "trial_index": 26}, "uniqueid": "MTK3151:39L1G8WVWRY04L5RO4LNCY1MHNC13C", "dateTime": 1520107712768}, {"current_trial": 27, "trialdata": {"rt": -1000, "trial_type": "single-audio", "word": "switch", "stimulus": "/static/audio/wordpool/SWITCH.wav", "conditions": [18, 1200, "a", 18000], "internal_node_id": "0.0-18.0", "trial": 0, "time_elapsed": 319252, "serialpos": 6, "key_press": -1, "wordID": 1421, "type": "PRES_AUD", "trial_index": 27}, "uniqueid": "MTK3151:39L1G8WVWRY04L5RO4LNCY1MHNC13C", "dateTime": 1520107714830}, {"current_trial": 28, "trialdata": {"rt": -1000, "trial_type": "single-audio", "word": "cloud", "stimulus": "/static/audio/wordpool/CLOUD.wav", "conditions": [18, 1200, "a", 18000], "internal_node_id": "0.0-19.0", "trial": 0, "time_elapsed": 321474, "serialpos": 7, "key_press": -1, "wordID": 327, "type": "PRES_AUD", "trial_index": 28}, "uniqueid": "MTK3151:39L1G8WVWRY04L5RO4LNCY1MHNC13C", "dateTime": 1520107717052}, {"current_trial": 29, "trialdata": {"rt": -1000, "trial_type": "single-audio", "word": "victim", "stimulus": "/static/audio/wordpool/VICTIM.wav", "conditions": [18, 1200, "a", 18000], "internal_node_id": "0.0-20.0", "trial": 0, "time_elapsed": 323480, "serialpos": 8, "key_press": -1, "wordID": 1561, "type": "PRES_AUD", "trial_index": 29}, "uniqueid": "MTK3151:39L1G8WVWRY04L5RO4LNCY1MHNC13C", "dateTime": 1520107719058}, {"current_trial": 30, "trialdata": {"rt": -1000, "trial_type": "single-audio", "word": "rattle", "stimulus": "/static/audio/wordpool/RATTLE.wav", "conditions": [18, 1200, "a", 18000], "internal_node_id": "0.0-21.0", "trial": 0, "time_elapsed": 325747, "serialpos": 9, "key_press": -1, "wordID": 1169, "type": "PRES_AUD", "trial_index": 30}, "uniqueid": "MTK3151:39L1G8WVWRY04L5RO4LNCY1MHNC13C", "dateTime": 1520107721325}, {"current_trial": 31, "trialdata": {"rt": -1000, "trial_type": "single-audio", "word": "marsh", "stimulus": "/static/audio/wordpool/MARSH.wav", "conditions": [18, 1200, "a", 18000], "internal_node_id": "0.0-22.0", "trial": 0, "time_elapsed": 328097, "serialpos": 10, "key_press": -1, "wordID": 873, "type": "PRES_AUD", "trial_index": 31}, "uniqueid": "MTK3151:39L1G8WVWRY04L5RO4LNCY1MHNC13C", "dateTime": 1520107723675}, {"current_trial": 32, "trialdata": {"rt": -1000, "trial_type": "single-audio", "word": "permit", "stimulus": "/static/audio/wordpool/PERMIT.wav", "conditions": [18, 1200, "a", 18000], "internal_node_id": "0.0-23.0", "trial": 0, "time_elapsed": 330311, "serialpos": 11, "key_press": -1, "wordID": 1050, "type": "PRES_AUD", "trial_index": 32}, "uniqueid": "MTK3151:39L1G8WVWRY04L5RO4LNCY1MHNC13C", "dateTime": 1520107725889}, {"current_trial": 33, "trialdata": {"rt": -1000, "trial_type": "single-audio", "word": "paddle", "stimulus": "/static/audio/wordpool/PADDLE.wav", "conditions": [18, 1200, "a", 18000], "internal_node_id": "0.0-24.0", "trial": 0, "time_elapsed": 332551, "serialpos": 12, "key_press": -1, "wordID": 999, "type": "PRES_AUD", "trial_index": 33}, "uniqueid": "MTK3151:39L1G8WVWRY04L5RO4LNCY1MHNC13C", "dateTime": 1520107728129}, {"current_trial": 34, "trialdata": {"rt": -1000, "trial_type": "single-audio", "word": "rabbit", "stimulus": "/static/audio/wordpool/RABBIT.wav", "conditions": [18, 1200, "a", 18000], "internal_node_id": "0.0-25.0", "trial": 0, "time_elapsed": 334712, "serialpos": 13, "key_press": -1, "wordID": 1151, "type": "PRES_AUD", "trial_index": 34}, "uniqueid": "MTK3151:39L1G8WVWRY04L5RO4LNCY1MHNC13C", "dateTime": 1520107730290}, {"current_trial": 35, "trialdata": {"rt": -1000, "trial_type": "single-audio", "word": "cabin", "stimulus": "/static/audio/wordpool/CABIN.wav", "conditions": [18, 1200, "a", 18000], "internal_node_id": "0.0-26.0", "trial": 0, "time_elapsed": 336968, "serialpos": 14, "key_press": -1, "wordID": 210, "type": "PRES_AUD", "trial_index": 35}, "uniqueid": "MTK3151:39L1G8WVWRY04L5RO4LNCY1MHNC13C", "dateTime": 1520107732546}, {"current_trial": 36, "trialdata": {"rt": -1000, "trial_type": "single-audio", "word": "police", "stimulus": "/static/audio/wordpool/POLICE.wav", "conditions": [18, 1200, "a", 18000], "internal_node_id": "0.0-27.0", "trial": 0, "time_elapsed": 339113, "serialpos": 15, "key_press": -1, "wordID": 1097, "type": "PRES_AUD", "trial_index": 36}, "uniqueid": "MTK3151:39L1G8WVWRY04L5RO4LNCY1MHNC13C", "dateTime": 1520107734691}, {"current_trial": 37, "trialdata": {"rt": -1000, "trial_type": "single-audio", "word": "crutch", "stimulus": "/static/audio/wordpool/CRUTCH.wav", "conditions": [18, 1200, "a", 18000], "internal_node_id": "0.0-28.0", "trial": 0, "time_elapsed": 341153, "serialpos": 16, "key_press": -1, "wordID": 416, "type": "PRES_AUD", "trial_index": 37}, "uniqueid": "MTK3151:39L1G8WVWRY04L5RO4LNCY1MHNC13C", "dateTime": 1520107736731}, {"current_trial": 38, "trialdata": {"rt": -1000, "trial_type": "single-audio", "word": "denim", "stimulus": "/static/audio/wordpool/DENIM.wav", "conditions": [18, 1200, "a", 18000], "internal_node_id": "0.0-29.0", "trial": 0, "time_elapsed": 343516, "serialpos": 17, "key_press": -1, "wordID": 445, "type": "PRES_AUD", "trial_index": 38}, "uniqueid": "MTK3151:39L1G8WVWRY04L5RO4LNCY1MHNC13C", "dateTime": 1520107739094}, {"current_trial": 39, "trialdata": {"rt": -1, "trial_type": "single-stim", "stimulus": "", "internal_node_id": "0.0-30.0-0.0", "time_elapsed": 344892, "key_press": -1, "type": "PRE_RECALL_DELAY", "trial_index": 39}, "uniqueid": "MTK3151:39L1G8WVWRY04L5RO4LNCY1MHNC13C", "dateTime": 1520107740470}, {"current_trial": 40, "trialdata": {"rt": -1000, "trial_type": "single-audio", "stimulus": "/static/audio/400Hz.wav", "internal_node_id": "0.0-31.0", "time_elapsed": 345393, "key_press": -1, "type": "PRE_RECALL_ALERT", "trial_index": 40}, "uniqueid": "MTK3151:39L1G8WVWRY04L5RO4LNCY1MHNC13C", "dateTime": 1520107740972}, {"current_trial": 41, "trialdata": {"rt": [2753, 3949, 5366, 6693, 8731, 23185, 47344], "recwords": ["rabbit", "cabin", "record", "crunch", "captain", "scissors", "paddle"], "key_times": [1420, 1597, 1878, 2052, 2213, 2324, 2753, 3179, 3295, 3434, 3644, 3682, 3949, 4269, 4408, 4590, 4759, 4938, 5197, 5366, 5637, 5854, 5998, 6229, 6361, 6455, 6693, 7385, 7544, 7714, 7830, 7968, 8072, 8165, 8731, 20830, 21056, 21322, 21452, 21971, 22134, 22322, 22561, 22683, 22850, 23185, 46261, 46375, 46585, 46743, 46853, 46972, 47344], "trial_type": "free-recall", "conditions": [18, 1200, "a", 18000], "internal_node_id": "0.0-32.0-0.0", "key_presses": [82, 65, 66, 66, 73, 84, 13, 67, 65, 66, 73, 78, 13, 82, 69, 67, 79, 82, 68, 13, 67, 82, 85, 78, 67, 72, 13, 67, 65, 80, 84, 65, 73, 78, 13, 83, 67, 73, 67, 8, 83, 83, 79, 82, 83, 13, 80, 65, 68, 68, 76, 69, 13], "trial": 0, "time_elapsed": 405396, "type": "FREE_RECALL", "trial_index": 41}, "uniqueid": "MTK3151:39L1G8WVWRY04L5RO4LNCY1MHNC13C", "dateTime": 1520107800975}, {"current_trial": 42, "trialdata": {"rt": 1699, "trial_type": "text", "internal_node_id": "0.0-33.0", "time_elapsed": 409097, "key_press": 13, "type": "INSTRUCTIONS", "trial_index": 42}, "uniqueid": "MTK3151:39L1G8WVWRY04L5RO4LNCY1MHNC13C", "dateTime": 1520107804675}, {"current_trial": 43, "trialdata": {"rt": [3492, 12589, 16722], "trial_type": "math-distractor", "key_times": [2835, 3492, 12244, 12331, 12589, 16361, 16486, 16722], "responses": ["9", "21", "17"], "num2": [1, 6, 5, 8], "num3": [3, 9, 3, 6], "conditions": [18, 1200, "a", 18000], "internal_node_id": "0.0-34.0", "key_presses": [57, 13, 50, 49, 13, 49, 55, 13], "trial": 1, "time_elapsed": 429100, "type": "DISTRACTOR", "trial_index": 43, "num1": [5, 7, 9, 7]}, "uniqueid": "MTK3151:39L1G8WVWRY04L5RO4LNCY1MHNC13C", "dateTime": 1520107824678}, {"current_trial": 44, "trialdata": {"rt": -1, "trial_type": "single-stim", "stimulus": "<p id=\"stim\">10</p>", "internal_node_id": "0.0-35.0-0.0", "time_elapsed": 432102, "key_press": -1, "trial_index": 44}, "uniqueid": "MTK3151:39L1G8WVWRY04L5RO4LNCY1MHNC13C", "dateTime": 1520107827680}, {"current_trial": 45, "trialdata": {"rt": -1, "trial_type": "single-stim", "stimulus": "<p id=\"stim\">9</p>", "internal_node_id": "0.0-35.0-1.0", "time_elapsed": 433104, "key_press": -1, "trial_index": 45}, "uniqueid": "MTK3151:39L1G8WVWRY04L5RO4LNCY1MHNC13C", "dateTime": 1520107828682}, {"current_trial": 46, "trialdata": {"rt": -1, "trial_type": "single-stim", "stimulus": "<p id=\"stim\">8</p>", "internal_node_id": "0.0-35.0-2.0", "time_elapsed": 434105, "key_press": -1, "trial_index": 46}, "uniqueid": "MTK3151:39L1G8WVWRY04L5RO4LNCY1MHNC13C", "dateTime": 1520107829683}, {"current_trial": 47, "trialdata": {"rt": -1, "trial_type": "single-stim", "stimulus": "<p id=\"stim\">7</p>", "internal_node_id": "0.0-35.0-3.0", "time_elapsed": 435107, "key_press": -1, "trial_index": 47}, "uniqueid": "MTK3151:39L1G8WVWRY04L5RO4LNCY1MHNC13C", "dateTime": 1520107830685}, {"current_trial": 48, "trialdata": {"rt": -1, "trial_type": "single-stim", "stimulus": "<p id=\"stim\">6</p>", "internal_node_id": "0.0-35.0-4.0", "time_elapsed": 436108, "key_press": -1, "trial_index": 48}, "uniqueid": "MTK3151:39L1G8WVWRY04L5RO4LNCY1MHNC13C", "dateTime": 1520107831686}, {"current_trial": 49, "trialdata": {"rt": -1, "trial_type": "single-stim", "stimulus": "<p id=\"stim\">5</p>", "internal_node_id": "0.0-35.0-5.0", "time_elapsed": 437110, "key_press": -1, "trial_index": 49}, "uniqueid": "MTK3151:39L1G8WVWRY04L5RO4LNCY1MHNC13C", "dateTime": 1520107832688}, {"current_trial": 50, "trialdata": {"rt": -1, "trial_type": "single-stim", "stimulus": "<p id=\"stim\">4</p>", "internal_node_id": "0.0-35.0-6.0", "time_elapsed": 438112, "key_press": -1, "trial_index": 50}, "uniqueid": "MTK3151:39L1G8WVWRY04L5RO4LNCY1MHNC13C", "dateTime": 1520107833690}, {"current_trial": 51, "trialdata": {"rt": -1, "trial_type": "single-stim", "stimulus": "<p id=\"stim\">3</p>", "internal_node_id": "0.0-35.0-7.0", "time_elapsed": 439113, "key_press": -1, "trial_index": 51}, "uniqueid": "MTK3151:39L1G8WVWRY04L5RO4LNCY1MHNC13C", "dateTime": 1520107834691}, {"current_trial": 52, "trialdata": {"rt": -1, "trial_type": "single-stim", "stimulus": "<p id=\"stim\">2</p>", "internal_node_id": "0.0-35.0-8.0", "time_elapsed": 440114, "key_press": -1, "trial_index": 52}, "uniqueid": "MTK3151:39L1G8WVWRY04L5RO4LNCY1MHNC13C", "dateTime": 1520107835692}, {"current_trial": 53, "trialdata": {"rt": -1, "trial_type": "single-stim", "stimulus": "<p id=\"stim\">1</p>", "internal_node_id": "0.0-35.0-9.0", "time_elapsed": 441115, "key_press": -1, "trial_index": 53}, "uniqueid": "MTK3151:39L1G8WVWRY04L5RO4LNCY1MHNC13C", "dateTime": 1520107836693}, {"current_trial": 54, "trialdata": {"rt": -1, "trial_type": "single-stim", "stimulus": "<p id=\"stim\">+</p>", "internal_node_id": "0.0-36.0-0.0", "time_elapsed": 442617, "key_press": -1, "type": "FIXATION", "trial_index": 54}, "uniqueid": "MTK3151:39L1G8WVWRY04L5RO4LNCY1MHNC13C", "dateTime": 1520107838196}, {"current_trial": 55, "trialdata": {"rt": -1000, "trial_type": "single-audio", "word": "window", "stimulus": "/static/audio/wordpool/WINDOW.wav", "conditions": [18, 1200, "a", 18000], "internal_node_id": "0.0-37.0", "trial": 1, "time_elapsed": 444804, "serialpos": 0, "key_press": -1, "wordID": 1610, "type": "PRES_AUD", "trial_index": 55}, "uniqueid": "MTK3151:39L1G8WVWRY04L5RO4LNCY1MHNC13C", "dateTime": 1520107840382}, {"current_trial": 56, "trialdata": {"rt": -1000, "trial_type": "single-audio", "word": "lamp", "stimulus": "/static/audio/wordpool/LAMP.wav", "conditions": [18, 1200, "a", 18000], "internal_node_id": "0.0-38.0", "trial": 1, "time_elapsed": 446931, "serialpos": 1, "key_press": -1, "wordID": 797, "type": "PRES_AUD", "trial_index": 56}, "uniqueid": "MTK3151:39L1G8WVWRY04L5RO4LNCY1MHNC13C", "dateTime": 1520107842509}, {"current_trial": 57, "trialdata": {"rt": -1000, "trial_type": "single-audio", "word": "gravel", "stimulus": "/static/audio/wordpool/GRAVEL.wav", "conditions": [18, 1200, "a", 18000], "internal_node_id": "0.0-39.0", "trial": 1, "time_elapsed": 449039, "serialpos": 2, "key_press": -1, "wordID": 658, "type": "PRES_AUD", "trial_index": 57}, "uniqueid": "MTK3151:39L1G8WVWRY04L5RO4LNCY1MHNC13C", "dateTime": 1520107844617}, {"current_trial": 58, "trialdata": {"rt": -1000, "trial_type": "single-audio", "word": "marrow", "stimulus": "/static/audio/wordpool/MARROW.wav", "conditions": [18, 1200, "a", 18000], "internal_node_id": "0.0-40.0", "trial": 1, "time_elapsed": 451339, "serialpos": 3, "key_press": -1, "wordID": 871, "type": "PRES_AUD", "trial_index": 58}, "uniqueid": "MTK3151:39L1G8WVWRY04L5RO4LNCY1MHNC13C", "dateTime": 1520107846918}, {"current_trial": 59, "trialdata": {"rt": -1000, "trial_type": "single-audio", "word": "shark", "stimulus": "/static/audio/wordpool/SHARK.wav", "conditions": [18, 1200, "a", 18000], "internal_node_id": "0.0-41.0", "trial": 1, "time_elapsed": 453622, "serialpos": 4, "key_press": -1, "wordID": 1274, "type": "PRES_AUD", "trial_index": 59}, "uniqueid": "MTK3151:39L1G8WVWRY04L5RO4LNCY1MHNC13C", "dateTime": 1520107849200}, {"current_trial": 60, "trialdata": {"rt": -1000, "trial_type": "single-audio", "word": "valve", "stimulus": "/static/audio/wordpool/VALVE.wav", "conditions": [18, 1200, "a", 18000], "internal_node_id": "0.0-42.0", "trial": 1, "time_elapsed": 455969, "serialpos": 5, "key_press": -1, "wordID": 1545, "type": "PRES_AUD", "trial_index": 60}, "uniqueid": "MTK3151:39L1G8WVWRY04L5RO4LNCY1MHNC13C", "dateTime": 1520107851547}, {"current_trial": 61, "trialdata": {"rt": -1000, "trial_type": "single-audio", "word": "chest", "stimulus": "/static/audio/wordpool/CHEST.wav", "conditions": [18, 1200, "a", 18000], "internal_node_id": "0.0-43.0", "trial": 1, "time_elapsed": 458219, "serialpos": 6, "key_press": -1, "wordID": 294, "type": "PRES_AUD", "trial_index": 61}, "uniqueid": "MTK3151:39L1G8WVWRY04L5RO4LNCY1MHNC13C", "dateTime": 1520107853797}, {"current_trial": 62, "trialdata": {"rt": -1000, "trial_type": "single-audio", "word": "hornet", "stimulus": "/static/audio/wordpool/HORNET.wav", "conditions": [18, 1200, "a", 18000], "internal_node_id": "0.0-44.0", "trial": 1, "time_elapsed": 460471, "serialpos": 7, "key_press": -1, "wordID": 717, "type": "PRES_AUD", "trial_index": 62}, "uniqueid": "MTK3151:39L1G8WVWRY04L5RO4LNCY1MHNC13C", "dateTime": 1520107856049}, {"current_trial": 63, "trialdata": {"rt": -1000, "trial_type": "single-audio", "word": "banjo", "stimulus": "/static/audio/wordpool/BANJO.wav", "conditions": [18, 1200, "a", 18000], "internal_node_id": "0.0-45.0", "trial": 1, "time_elapsed": 462512, "serialpos": 8, "key_press": -1, "wordID": 81, "type": "PRES_AUD", "trial_index": 63}, "uniqueid": "MTK3151:39L1G8WVWRY04L5RO4LNCY1MHNC13C", "dateTime": 1520107858090}, {"current_trial": 64, "trialdata": {"rt": -1000, "trial_type": "single-audio", "word": "fragrance", "stimulus": "/static/audio/wordpool/FRAGRANCE.wav", "conditions": [18, 1200, "a", 18000], "internal_node_id": "0.0-46.0", "trial": 1, "time_elapsed": 464572, "serialpos": 9, "key_press": -1, "wordID": 598, "type": "PRES_AUD", "trial_index": 64}, "uniqueid": "MTK3151:39L1G8WVWRY04L5RO4LNCY1MHNC13C", "dateTime": 1520107860150}, {"current_trial": 65, "trialdata": {"rt": -1000, "trial_type": "single-audio", "word": "servant", "stimulus": "/static/audio/wordpool/SERVANT.wav", "conditions": [18, 1200, "a", 18000], "internal_node_id": "0.0-47.0", "trial": 1, "time_elapsed": 466965, "serialpos": 10, "key_press": -1, "wordID": 1270, "type": "PRES_AUD", "trial_index": 65}, "uniqueid": "MTK3151:39L1G8WVWRY04L5RO4LNCY1MHNC13C", "dateTime": 1520107862543}, {"current_trial": 66, "trialdata": {"rt": -1000, "trial_type": "single-audio", "word": "honey", "stimulus": "/static/audio/wordpool/HONEY.wav", "conditions": [18, 1200, "a", 18000], "internal_node_id": "0.0-48.0", "trial": 1, "time_elapsed": 469272, "serialpos": 11, "key_press": -1, "wordID": 712, "type": "PRES_AUD", "trial_index": 66}, "uniqueid": "MTK3151:39L1G8WVWRY04L5RO4LNCY1MHNC13C", "dateTime": 1520107864850}, {"current_trial": 67, "trialdata": {"rt": -1000, "trial_type": "single-audio", "word": "cottage", "stimulus": "/static/audio/wordpool/COTTAGE.wav", "conditions": [18, 1200, "a", 18000], "internal_node_id": "0.0-49.0", "trial": 1, "time_elapsed": 471468, "serialpos": 12, "key_press": -1, "wordID": 383, "type": "PRES_AUD", "trial_index": 67}, "uniqueid": "MTK3151:39L1G8WVWRY04L5RO4LNCY1MHNC13C", "dateTime": 1520107867046}, {"current_trial": 68, "trialdata": {"rt": -1000, "trial_type": "single-audio", "word": "washer", "stimulus": "/static/audio/wordpool/WASHER.wav", "conditions": [18, 1200, "a", 18000], "internal_node_id": "0.0-50.0", "trial": 1, "time_elapsed": 473743, "serialpos": 13, "key_press": -1, "wordID": 1591, "type": "PRES_AUD", "trial_index": 68}, "uniqueid": "MTK3151:39L1G8WVWRY04L5RO4LNCY1MHNC13C", "dateTime": 1520107869322}, {"current_trial": 69, "trialdata": {"rt": -1000, "trial_type": "single-audio", "word": "hedge", "stimulus": "/static/audio/wordpool/HEDGE.wav", "conditions": [18, 1200, "a", 18000], "internal_node_id": "0.0-51.0", "trial": 1, "time_elapsed": 475835, "serialpos": 14, "key_press": -1, "wordID": 698, "type": "PRES_AUD", "trial_index": 69}, "uniqueid": "MTK3151:39L1G8WVWRY04L5RO4LNCY1MHNC13C", "dateTime": 1520107871413}, {"current_trial": 70, "trialdata": {"rt": -1000, "trial_type": "single-audio", "word": "cocoon", "stimulus": "/static/audio/wordpool/COCOON.wav", "conditions": [18, 1200, "a", 18000], "internal_node_id": "0.0-52.0", "trial": 1, "time_elapsed": 478138, "serialpos": 15, "key_press": -1, "wordID": 338, "type": "PRES_AUD", "trial_index": 70}, "uniqueid": "MTK3151:39L1G8WVWRY04L5RO4LNCY1MHNC13C", "dateTime": 1520107873716}, {"current_trial": 71, "trialdata": {"rt": -1000, "trial_type": "single-audio", "word": "award", "stimulus": "/static/audio/wordpool/AWARD.wav", "conditions": [18, 1200, "a", 18000], "internal_node_id": "0.0-53.0", "trial": 1, "time_elapsed": 480308, "serialpos": 16, "key_press": -1, "wordID": 62, "type": "PRES_AUD", "trial_index": 71}, "uniqueid": "MTK3151:39L1G8WVWRY04L5RO4LNCY1MHNC13C", "dateTime": 1520107875886}, {"current_trial": 72, "trialdata": {"rt": -1000, "trial_type": "single-audio", "word": "radish", "stimulus": "/static/audio/wordpool/RADISH.wav", "conditions": [18, 1200, "a", 18000], "internal_node_id": "0.0-54.0", "trial": 1, "time_elapsed": 482309, "serialpos": 17, "key_press": -1, "wordID": 1157, "type": "PRES_AUD", "trial_index": 72}, "uniqueid": "MTK3151:39L1G8WVWRY04L5RO4LNCY1MHNC13C", "dateTime": 1520107877887}, {"current_trial": 73, "trialdata": {"rt": -1, "trial_type": "single-stim", "stimulus": "", "internal_node_id": "0.0-55.0-0.0", "time_elapsed": 483552, "key_press": -1, "type": "PRE_RECALL_DELAY", "trial_index": 73}, "uniqueid": "MTK3151:39L1G8WVWRY04L5RO4LNCY1MHNC13C", "dateTime": 1520107879130}, {"current_trial": 74, "trialdata": {"rt": -1000, "trial_type": "single-audio", "stimulus": "/static/audio/400Hz.wav", "internal_node_id": "0.0-56.0", "time_elapsed": 484054, "key_press": -1, "type": "PRE_RECALL_ALERT", "trial_index": 74}, "uniqueid": "MTK3151:39L1G8WVWRY04L5RO4LNCY1MHNC13C", "dateTime": 1520107879632}, {"current_trial": 75, "trialdata": {"rt": [4185, 8409, 11072, 17685, 38374], "recwords": ["raddish", "cocoon", "hedge", "chest", "cloud"], "key_times": [1542, 1798, 2148, 2399, 2952, 3083, 3310, 3516, 3839, 4185, 4682, 4814, 5076, 6637, 6826, 7094, 7195, 7434, 7605, 7830, 8409, 10199, 10330, 10541, 10691, 10824, 11072, 16079, 16291, 16458, 16713, 16882, 17685, 37042, 37174, 37486, 37676, 37869, 38374], "trial_type": "free-recall", "conditions": [18, 1200, "a", 18000], "internal_node_id": "0.0-57.0-0.0", "key_presses": [82, 65, 68, 83, 8, 68, 73, 83, 72, 13, 67, 65, 67, 8, 8, 79, 67, 79, 79, 78, 13, 72, 69, 68, 71, 69, 13, 67, 72, 69, 83, 84, 13, 67, 76, 79, 85, 68, 13], "trial": 1, "time_elapsed": 544056, "type": "FREE_RECALL", "trial_index": 75}, "uniqueid": "MTK3151:39L1G8WVWRY04L5RO4LNCY1MHNC13C", "dateTime": 1520107939635}, {"current_trial": 76, "trialdata": {"rt": 4813, "trial_type": "text", "internal_node_id": "0.0-58.0", "time_elapsed": 550872, "key_press": 68, "type": "INSTRUCTIONS", "trial_index": 76}, "uniqueid": "MTK3151:39L1G8WVWRY04L5RO4LNCY1MHNC13C", "dateTime": 1520107946450}, {"current_trial": 77, "trialdata": {"rt": [3211, 5865, 9525, 12670, 17942, 21589], "trial_type": "math-distractor", "key_times": [2758, 2986, 3211, 5646, 5865, 9043, 9362, 9525, 12261, 12492, 12670, 16980, 17615, 17942, 21061, 21325, 21589], "responses": ["16", "9", "15", "14", "16", "16"], "num2": [7, 2, 9, 2, 8, 1, 8], "num3": [1, 2, 4, 7, 3, 8, 6], "conditions": [12, 1600, "a", 24000], "internal_node_id": "0.0-59.0", "key_presses": [49, 54, 13, 57, 13, 49, 53, 13, 49, 52, 13, 49, 54, 13, 49, 54, 13], "trial": 2, "time_elapsed": 575875, "type": "DISTRACTOR", "trial_index": 77, "num1": [8, 5, 2, 5, 5, 7, 8]}, "uniqueid": "MTK3151:39L1G8WVWRY04L5RO4LNCY1MHNC13C", "dateTime": 1520107971453}, {"current_trial": 78, "trialdata": {"rt": -1, "trial_type": "single-stim", "stimulus": "<p id=\"stim\">10</p>", "internal_node_id": "0.0-60.0-0.0", "time_elapsed": 578877, "key_press": -1, "trial_index": 78}, "uniqueid": "MTK3151:39L1G8WVWRY04L5RO4LNCY1MHNC13C", "dateTime": 1520107974455}, {"current_trial": 79, "trialdata": {"rt": -1, "trial_type": "single-stim", "stimulus": "<p id=\"stim\">9</p>", "internal_node_id": "0.0-60.0-1.0", "time_elapsed": 579879, "key_press": -1, "trial_index": 79}, "uniqueid": "MTK3151:39L1G8WVWRY04L5RO4LNCY1MHNC13C", "dateTime": 1520107975457}, {"current_trial": 80, "trialdata": {"rt": -1, "trial_type": "single-stim", "stimulus": "<p id=\"stim\">8</p>", "internal_node_id": "0.0-60.0-2.0", "time_elapsed": 580880, "key_press": -1, "trial_index": 80}, "uniqueid": "MTK3151:39L1G8WVWRY04L5RO4LNCY1MHNC13C", "dateTime": 1520107976458}, {"current_trial": 81, "trialdata": {"rt": -1, "trial_type": "single-stim", "stimulus": "<p id=\"stim\">7</p>", "internal_node_id": "0.0-60.0-3.0", "time_elapsed": 581882, "key_press": -1, "trial_index": 81}, "uniqueid": "MTK3151:39L1G8WVWRY04L5RO4LNCY1MHNC13C", "dateTime": 1520107977460}, {"current_trial": 82, "trialdata": {"rt": -1, "trial_type": "single-stim", "stimulus": "<p id=\"stim\">6</p>", "internal_node_id": "0.0-60.0-4.0", "time_elapsed": 582883, "key_press": -1, "trial_index": 82}, "uniqueid": "MTK3151:39L1G8WVWRY04L5RO4LNCY1MHNC13C", "dateTime": 1520107978461}, {"current_trial": 83, "trialdata": {"rt": -1, "trial_type": "single-stim", "stimulus": "<p id=\"stim\">5</p>", "internal_node_id": "0.0-60.0-5.0", "time_elapsed": 583885, "key_press": -1, "trial_index": 83}, "uniqueid": "MTK3151:39L1G8WVWRY04L5RO4LNCY1MHNC13C", "dateTime": 1520107979463}, {"current_trial": 84, "trialdata": {"rt": -1, "trial_type": "single-stim", "stimulus": "<p id=\"stim\">4</p>", "internal_node_id": "0.0-60.0-6.0", "time_elapsed": 584887, "key_press": -1, "trial_index": 84}, "uniqueid": "MTK3151:39L1G8WVWRY04L5RO4LNCY1MHNC13C", "dateTime": 1520107980465}, {"current_trial": 85, "trialdata": {"rt": -1, "trial_type": "single-stim", "stimulus": "<p id=\"stim\">3</p>", "internal_node_id": "0.0-60.0-7.0", "time_elapsed": 585887, "key_press": -1, "trial_index": 85}, "uniqueid": "MTK3151:39L1G8WVWRY04L5RO4LNCY1MHNC13C", "dateTime": 1520107981465}, {"current_trial": 86, "trialdata": {"rt": -1, "trial_type": "single-stim", "stimulus": "<p id=\"stim\">2</p>", "internal_node_id": "0.0-60.0-8.0", "time_elapsed": 586890, "key_press": -1, "trial_index": 86}, "uniqueid": "MTK3151:39L1G8WVWRY04L5RO4LNCY1MHNC13C", "dateTime": 1520107982468}, {"current_trial": 87, "trialdata": {"rt": -1, "trial_type": "single-stim", "stimulus": "<p id=\"stim\">1</p>", "internal_node_id": "0.0-60.0-9.0", "time_elapsed": 587892, "key_press": -1, "trial_index": 87}, "uniqueid": "MTK3151:39L1G8WVWRY04L5RO4LNCY1MHNC13C", "dateTime": 1520107983470}, {"current_trial": 88, "trialdata": {"rt": -1, "trial_type": "single-stim", "stimulus": "<p id=\"stim\">+</p>", "internal_node_id": "0.0-61.0-0.0", "time_elapsed": 589393, "key_press": -1, "type": "FIXATION", "trial_index": 88}, "uniqueid": "MTK3151:39L1G8WVWRY04L5RO4LNCY1MHNC13C", "dateTime": 1520107984971}, {"current_trial": 89, "trialdata": {"rt": -1000, "trial_type": "single-audio", "word": "sausage", "stimulus": "/static/audio/wordpool/SAUSAGE.wav", "conditions": [12, 1600, "a", 24000], "internal_node_id": "0.0-62.0", "trial": 2, "time_elapsed": 591956, "serialpos": 0, "key_press": -1, "wordID": 1237, "type": "PRES_AUD", "trial_index": 89}, "uniqueid": "MTK3151:39L1G8WVWRY04L5RO4LNCY1MHNC13C", "dateTime": 1520107987534}, {"current_trial": 90, "trialdata": {"rt": -1000, "trial_type": "single-audio", "word": "marker", "stimulus": "/static/audio/wordpool/MARKER.wav", "conditions": [12, 1600, "a", 24000], "internal_node_id": "0.0-63.0", "trial": 2, "time_elapsed": 594569, "serialpos": 1, "key_press": -1, "wordID": 869, "type": "PRES_AUD", "trial_index": 90}, "uniqueid": "MTK3151:39L1G8WVWRY04L5RO4LNCY1MHNC13C", "dateTime": 1520107990147}, {"current_trial": 91, "trialdata": {"rt": -1000, "trial_type": "single-audio", "word": "leg", "stimulus": "/static/audio/wordpool/LEG.wav", "conditions": [12, 1600, "a", 24000], "internal_node_id": "0.0-64.0", "trial": 2, "time_elapsed": 597268, "serialpos": 2, "key_press": -1, "wordID": 808, "type": "PRES_AUD", "trial_index": 91}, "uniqueid": "MTK3151:39L1G8WVWRY04L5RO4LNCY1MHNC13C", "dateTime": 1520107992846}, {"current_trial": 92, "trialdata": {"rt": -1000, "trial_type": "single-audio", "word": "arm", "stimulus": "/static/audio/wordpool/ARM.wav", "conditions": [12, 1600, "a", 24000], "internal_node_id": "0.0-65.0", "trial": 2, "time_elapsed": 599783, "serialpos": 3, "key_press": -1, "wordID": 37, "type": "PRES_AUD", "trial_index": 92}, "uniqueid": "MTK3151:39L1G8WVWRY04L5RO4LNCY1MHNC13C", "dateTime": 1520107995361}, {"current_trial": 93, "trialdata": {"rt": -1000, "trial_type": "single-audio", "word": "proton", "stimulus": "/static/audio/wordpool/PROTON.wav", "conditions": [12, 1600, "a", 24000], "internal_node_id": "0.0-66.0", "trial": 2, "time_elapsed": 602252, "serialpos": 4, "key_press": -1, "wordID": 1131, "type": "PRES_AUD", "trial_index": 93}, "uniqueid": "MTK3151:39L1G8WVWRY04L5RO4LNCY1MHNC13C", "dateTime": 1520107997830}, {"current_trial": 94, "trialdata": {"rt": -1000, "trial_type": "single-audio", "word": "sticker", "stimulus": "/static/audio/wordpool/STICKER.wav", "conditions": [12, 1600, "a", 24000], "internal_node_id": "0.0-67.0", "trial": 2, "time_elapsed": 604922, "serialpos": 5, "key_press": -1, "wordID": 1381, "type": "PRES_AUD", "trial_index": 94}, "uniqueid": "MTK3151:39L1G8WVWRY04L5RO4LNCY1MHNC13C", "dateTime": 1520108000500}, {"current_trial": 95, "trialdata": {"rt": -1000, "trial_type": "single-audio", "word": "drug", "stimulus": "/static/audio/wordpool/DRUG.wav", "conditions": [12, 1600, "a", 24000], "internal_node_id": "0.0-68.0", "trial": 2, "time_elapsed": 607471, "serialpos": 6, "key_press": -1, "wordID": 500, "type": "PRES_AUD", "trial_index": 95}, "uniqueid": "MTK3151:39L1G8WVWRY04L5RO4LNCY1MHNC13C", "dateTime": 1520108003049}, {"current_trial": 96, "trialdata": {"rt": -1000, "trial_type": "single-audio", "word": "casket", "stimulus": "/static/audio/wordpool/CASKET.wav", "conditions": [12, 1600, "a", 24000], "internal_node_id": "0.0-69.0", "trial": 2, "time_elapsed": 610208, "serialpos": 7, "key_press": -1, "wordID": 254, "type": "PRES_AUD", "trial_index": 96}, "uniqueid": "MTK3151:39L1G8WVWRY04L5RO4LNCY1MHNC13C", "dateTime": 1520108005786}, {"current_trial": 97, "trialdata": {"rt": -1000, "trial_type": "single-audio", "word": "france", "stimulus": "/static/audio/wordpool/FRANCE.wav", "conditions": [12, 1600, "a", 24000], "internal_node_id": "0.0-70.0", "trial": 2, "time_elapsed": 612922, "serialpos": 8, "key_press": -1, "wordID": 600, "type": "PRES_AUD", "trial_index": 97}, "uniqueid": "MTK3151:39L1G8WVWRY04L5RO4LNCY1MHNC13C", "dateTime": 1520108008500}, {"current_trial": 98, "trialdata": {"rt": -1000, "trial_type": "single-audio", "word": "asia", "stimulus": "/static/audio/wordpool/ASIA.wav", "conditions": [12, 1600, "a", 24000], "internal_node_id": "0.0-71.0", "trial": 2, "time_elapsed": 615470, "serialpos": 9, "key_press": -1, "wordID": 45, "type": "PRES_AUD", "trial_index": 98}, "uniqueid": "MTK3151:39L1G8WVWRY04L5RO4LNCY1MHNC13C", "dateTime": 1520108011048}, {"current_trial": 99, "trialdata": {"rt": -1000, "trial_type": "single-audio", "word": "pasta", "stimulus": "/static/audio/wordpool/PASTA.wav", "conditions": [12, 1600, "a", 24000], "internal_node_id": "0.0-72.0", "trial": 2, "time_elapsed": 618004, "serialpos": 10, "key_press": -1, "wordID": 1020, "type": "PRES_AUD", "trial_index": 99}, "uniqueid": "MTK3151:39L1G8WVWRY04L5RO4LNCY1MHNC13C", "dateTime": 1520108013582}, {"current_trial": 100, "trialdata": {"rt": -1000, "trial_type": "single-audio", "word": "lady", "stimulus": "/static/audio/wordpool/LADY.wav", "conditions": [12, 1600, "a", 24000], "internal_node_id": "0.0-73.0", "trial": 2, "time_elapsed": 620621, "serialpos": 11, "key_press": -1, "wordID": 793, "type": "PRES_AUD", "trial_index": 100}, "uniqueid": "MTK3151:39L1G8WVWRY04L5RO4LNCY1MHNC13C", "dateTime": 1520108016199}, {"current_trial": 101, "trialdata": {"rt": -1, "trial_type": "single-stim", "stimulus": "", "internal_node_id": "0.0-74.0-0.0", "time_elapsed": 621878, "key_press": -1, "type": "PRE_RECALL_DELAY", "trial_index": 101}, "uniqueid": "MTK3151:39L1G8WVWRY04L5RO4LNCY1MHNC13C", "dateTime": 1520108017456}, {"current_trial": 102, "trialdata": {"rt": -1000, "trial_type": "single-audio", "stimulus": "/static/audio/400Hz.wav", "internal_node_id": "0.0-75.0", "time_elapsed": 622379, "key_press": -1, "type": "PRE_RECALL_ALERT", "trial_index": 102}, "uniqueid": "MTK3151:39L1G8WVWRY04L5RO4LNCY1MHNC13C", "dateTime": 1520108017957}, {"current_trial": 103, "trialdata": {"rt": [1958, 3371, 4596, 6807, 8805, 12533, 14370, 19893, 21293, 22576, 26174], "recwords": ["lady", "hosta", "france", "aisa", "drugs", "sausage", "casket", "lady", "arm", "leg", "hosta"], "key_times": [1010, 1204, 1369, 1586, 1958, 2623, 2829, 2924, 3050, 3180, 3371, 3720, 3918, 4010, 4156, 4292, 4396, 4596, 4966, 5455, 5694, 5874, 6807, 7602, 7942, 8143, 8248, 8339, 8805, 11060, 11251, 11576, 11758, 11984, 12189, 12317, 12533, 13216, 13321, 13483, 13651, 13767, 14056, 14370, 18225, 18416, 18640, 18858, 19893, 20401, 20776, 21065, 21293, 21581, 21736, 21879, 22576, 25337, 25516, 25635, 25736, 25811, 26174], "trial_type": "free-recall", "conditions": [12, 1600, "a", 24000], "internal_node_id": "0.0-76.0-0.0", "key_presses": [76, 65, 68, 89, 13, 72, 79, 83, 84, 65, 13, 70, 82, 65, 78, 67, 69, 13, 65, 73, 83, 65, 13, 68, 82, 85, 71, 83, 13, 83, 65, 85, 83, 65, 71, 69, 13, 67, 65, 83, 75, 69, 84, 13, 76, 65, 68, 89, 13, 65, 82, 77, 13, 76, 69, 71, 13, 72, 79, 83, 84, 65, 13], "trial": 2, "time_elapsed": 682381, "type": "FREE_RECALL", "trial_index": 103}, "uniqueid": "MTK3151:39L1G8WVWRY04L5RO4LNCY1MHNC13C", "dateTime": 1520108077960}, {"current_trial": 104, "trialdata": {"rt": 1642, "trial_type": "text", "internal_node_id": "0.0-77.0", "time_elapsed": 686026, "key_press": 75, "type": "INSTRUCTIONS", "trial_index": 104}, "uniqueid": "MTK3151:39L1G8WVWRY04L5RO4LNCY1MHNC13C", "dateTime": 1520108081604}, {"current_trial": 105, "trialdata": {"rt": [4637, 6691, 9844], "trial_type": "math-distractor", "key_times": [4285, 4380, 4637, 6522, 6691, 9438, 9609, 9844], "responses": ["10", "4", "13"], "num2": [3, 1, 2, 8], "num3": [4, 2, 3, 2], "conditions": [12, 1600, "a", 12000], "internal_node_id": "0.0-78.0", "key_presses": [49, 48, 13, 52, 13, 49, 51, 13], "trial": 3, "time_elapsed": 700029, "type": "DISTRACTOR", "trial_index": 105, "num1": [3, 1, 8, 4]}, "uniqueid": "MTK3151:39L1G8WVWRY04L5RO4LNCY1MHNC13C", "dateTime": 1520108095607}, {"current_trial": 106, "trialdata": {"rt": -1, "trial_type": "single-stim", "stimulus": "<p id=\"stim\">10</p>", "internal_node_id": "0.0-79.0-0.0", "time_elapsed": 703031, "key_press": -1, "trial_index": 106}, "uniqueid": "MTK3151:39L1G8WVWRY04L5RO4LNCY1MHNC13C", "dateTime": 1520108098609}, {"current_trial": 107, "trialdata": {"rt": -1, "trial_type": "single-stim", "stimulus": "<p id=\"stim\">9</p>", "internal_node_id": "0.0-79.0-1.0", "time_elapsed": 704032, "key_press": -1, "trial_index": 107}, "uniqueid": "MTK3151:39L1G8WVWRY04L5RO4LNCY1MHNC13C", "dateTime": 1520108099610}, {"current_trial": 108, "trialdata": {"rt": -1, "trial_type": "single-stim", "stimulus": "<p id=\"stim\">8</p>", "internal_node_id": "0.0-79.0-2.0", "time_elapsed": 705033, "key_press": -1, "trial_index": 108}, "uniqueid": "MTK3151:39L1G8WVWRY04L5RO4LNCY1MHNC13C", "dateTime": 1520108100611}, {"current_trial": 109, "trialdata": {"rt": -1, "trial_type": "single-stim", "stimulus": "<p id=\"stim\">7</p>", "internal_node_id": "0.0-79.0-3.0", "time_elapsed": 706034, "key_press": -1, "trial_index": 109}, "uniqueid": "MTK3151:39L1G8WVWRY04L5RO4LNCY1MHNC13C", "dateTime": 1520108101612}, {"current_trial": 110, "trialdata": {"rt": -1, "trial_type": "single-stim", "stimulus": "<p id=\"stim\">6</p>", "internal_node_id": "0.0-79.0-4.0", "time_elapsed": 707036, "key_press": -1, "trial_index": 110}, "uniqueid": "MTK3151:39L1G8WVWRY04L5RO4LNCY1MHNC13C", "dateTime": 1520108102614}, {"current_trial": 111, "trialdata": {"rt": -1, "trial_type": "single-stim", "stimulus": "<p id=\"stim\">5</p>", "internal_node_id": "0.0-79.0-5.0", "time_elapsed": 708037, "key_press": -1, "trial_index": 111}, "uniqueid": "MTK3151:39L1G8WVWRY04L5RO4LNCY1MHNC13C", "dateTime": 1520108103615}, {"current_trial": 112, "trialdata": {"rt": -1, "trial_type": "single-stim", "stimulus": "<p id=\"stim\">4</p>", "internal_node_id": "0.0-79.0-6.0", "time_elapsed": 709039, "key_press": -1, "trial_index": 112}, "uniqueid": "MTK3151:39L1G8WVWRY04L5RO4LNCY1MHNC13C", "dateTime": 1520108104617}, {"current_trial": 113, "trialdata": {"rt": -1, "trial_type": "single-stim", "stimulus": "<p id=\"stim\">3</p>", "internal_node_id": "0.0-79.0-7.0", "time_elapsed": 710040, "key_press": -1, "trial_index": 113}, "uniqueid": "MTK3151:39L1G8WVWRY04L5RO4LNCY1MHNC13C", "dateTime": 1520108105618}, {"current_trial": 114, "trialdata": {"rt": -1, "trial_type": "single-stim", "stimulus": "<p id=\"stim\">2</p>", "internal_node_id": "0.0-79.0-8.0", "time_elapsed": 711042, "key_press": -1, "trial_index": 114}, "uniqueid": "MTK3151:39L1G8WVWRY04L5RO4LNCY1MHNC13C", "dateTime": 1520108106620}, {"current_trial": 115, "trialdata": {"rt": -1, "trial_type": "single-stim", "stimulus": "<p id=\"stim\">1</p>", "internal_node_id": "0.0-79.0-9.0", "time_elapsed": 712043, "key_press": -1, "trial_index": 115}, "uniqueid": "MTK3151:39L1G8WVWRY04L5RO4LNCY1MHNC13C", "dateTime": 1520108107621}, {"current_trial": 116, "trialdata": {"rt": -1, "trial_type": "single-stim", "stimulus": "<p id=\"stim\">+</p>", "internal_node_id": "0.0-80.0-0.0", "time_elapsed": 713545, "key_press": -1, "type": "FIXATION", "trial_index": 116}, "uniqueid": "MTK3151:39L1G8WVWRY04L5RO4LNCY1MHNC13C", "dateTime": 1520108109123}, {"current_trial": 117, "trialdata": {"rt": -1000, "trial_type": "single-audio", "word": "beast", "stimulus": "/static/audio/wordpool/BEAST.wav", "conditions": [12, 1600, "a", 12000], "internal_node_id": "0.0-81.0", "trial": 3, "time_elapsed": 716322, "serialpos": 0, "key_press": -1, "wordID": 107, "type": "PRES_AUD", "trial_index": 117}, "uniqueid": "MTK3151:39L1G8WVWRY04L5RO4LNCY1MHNC13C", "dateTime": 1520108111900}, {"current_trial": 118, "trialdata": {"rt": -1000, "trial_type": "single-audio", "word": "sandwich", "stimulus": "/static/audio/wordpool/SANDWICH.wav", "conditions": [12, 1600, "a", 12000], "internal_node_id": "0.0-82.0", "trial": 3, "time_elapsed": 718980, "serialpos": 1, "key_press": -1, "wordID": 1231, "type": "PRES_AUD", "trial_index": 118}, "uniqueid": "MTK3151:39L1G8WVWRY04L5RO4LNCY1MHNC13C", "dateTime": 1520108114558}, {"current_trial": 119, "trialdata": {"rt": -1000, "trial_type": "single-audio", "word": "seafood", "stimulus": "/static/audio/wordpool/SEAFOOD.wav", "conditions": [12, 1600, "a", 12000], "internal_node_id": "0.0-83.0", "trial": 3, "time_elapsed": 721471, "serialpos": 2, "key_press": -1, "wordID": 1259, "type": "PRES_AUD", "trial_index": 119}, "uniqueid": "MTK3151:39L1G8WVWRY04L5RO4LNCY1MHNC13C", "dateTime": 1520108117049}, {"current_trial": 120, "trialdata": {"rt": -1000, "trial_type": "single-audio", "word": "swimmer", "stimulus": "/static/audio/wordpool/SWIMMER.wav", "conditions": [12, 1600, "a", 12000], "internal_node_id": "0.0-84.0", "trial": 3, "time_elapsed": 723879, "serialpos": 3, "key_press": -1, "wordID": 1419, "type": "PRES_AUD", "trial_index": 120}, "uniqueid": "MTK3151:39L1G8WVWRY04L5RO4LNCY1MHNC13C", "dateTime": 1520108119457}, {"current_trial": 121, "trialdata": {"rt": -1000, "trial_type": "single-audio", "word": "ground", "stimulus": "/static/audio/wordpool/GROUND.wav", "conditions": [12, 1600, "a", 12000], "internal_node_id": "0.0-85.0", "trial": 3, "time_elapsed": 726605, "serialpos": 4, "key_press": -1, "wordID": 665, "type": "PRES_AUD", "trial_index": 121}, "uniqueid": "MTK3151:39L1G8WVWRY04L5RO4LNCY1MHNC13C", "dateTime": 1520108122183}, {"current_trial": 122, "trialdata": {"rt": -1000, "trial_type": "single-audio", "word": "cousin", "stimulus": "/static/audio/wordpool/COUSIN.wav", "conditions": [12, 1600, "a", 12000], "internal_node_id": "0.0-86.0", "trial": 3, "time_elapsed": 729143, "serialpos": 5, "key_press": -1, "wordID": 391, "type": "PRES_AUD", "trial_index": 122}, "uniqueid": "MTK3151:39L1G8WVWRY04L5RO4LNCY1MHNC13C", "dateTime": 1520108124721}, {"current_trial": 123, "trialdata": {"rt": -1000, "trial_type": "single-audio", "word": "sister", "stimulus": "/static/audio/wordpool/SISTER.wav", "conditions": [12, 1600, "a", 12000], "internal_node_id": "0.0-87.0", "trial": 3, "time_elapsed": 731831, "serialpos": 6, "key_press": -1, "wordID": 1311, "type": "PRES_AUD", "trial_index": 123}, "uniqueid": "MTK3151:39L1G8WVWRY04L5RO4LNCY1MHNC13C", "dateTime": 1520108127409}, {"current_trial": 124, "trialdata": {"rt": -1000, "trial_type": "single-audio", "word": "beaker", "stimulus": "/static/audio/wordpool/BEAKER.wav", "conditions": [12, 1600, "a", 12000], "internal_node_id": "0.0-88.0", "trial": 3, "time_elapsed": 734462, "serialpos": 7, "key_press": -1, "wordID": 103, "type": "PRES_AUD", "trial_index": 124}, "uniqueid": "MTK3151:39L1G8WVWRY04L5RO4LNCY1MHNC13C", "dateTime": 1520108130041}, {"current_trial": 125, "trialdata": {"rt": -1000, "trial_type": "single-audio", "word": "transplant", "stimulus": "/static/audio/wordpool/TRANSPLANT.wav", "conditions": [12, 1600, "a", 12000], "internal_node_id": "0.0-89.0", "trial": 3, "time_elapsed": 737160, "serialpos": 8, "key_press": -1, "wordID": 1495, "type": "PRES_AUD", "trial_index": 125}, "uniqueid": "MTK3151:39L1G8WVWRY04L5RO4LNCY1MHNC13C", "dateTime": 1520108132738}, {"current_trial": 126, "trialdata": {"rt": -1000, "trial_type": "single-audio", "word": "freckle", "stimulus": "/static/audio/wordpool/FRECKLE.wav", "conditions": [12, 1600, "a", 12000], "internal_node_id": "0.0-90.0", "trial": 3, "time_elapsed": 739840, "serialpos": 9, "key_press": -1, "wordID": 601, "type": "PRES_AUD", "trial_index": 126}, "uniqueid": "MTK3151:39L1G8WVWRY04L5RO4LNCY1MHNC13C", "dateTime": 1520108135418}, {"current_trial": 127, "trialdata": {"rt": -1000, "trial_type": "single-audio", "word": "chemist", "stimulus": "/static/audio/wordpool/CHEMIST.wav", "conditions": [12, 1600, "a", 12000], "internal_node_id": "0.0-91.0", "trial": 3, "time_elapsed": 742475, "serialpos": 10, "key_press": -1, "wordID": 291, "type": "PRES_AUD", "trial_index": 127}, "uniqueid": "MTK3151:39L1G8WVWRY04L5RO4LNCY1MHNC13C", "dateTime": 1520108138053}, {"current_trial": 128, "trialdata": {"rt": -1000, "trial_type": "single-audio", "word": "scallop", "stimulus": "/static/audio/wordpool/SCALLOP.wav", "conditions": [12, 1600, "a", 12000], "internal_node_id": "0.0-92.0", "trial": 3, "time_elapsed": 745041, "serialpos": 11, "key_press": -1, "wordID": 1241, "type": "PRES_AUD", "trial_index": 128}, "uniqueid": "MTK3151:39L1G8WVWRY04L5RO4LNCY1MHNC13C", "dateTime": 1520108140619}, {"current_trial": 129, "trialdata": {"rt": -1, "trial_type": "single-stim", "stimulus": "", "internal_node_id": "0.0-93.0-0.0", "time_elapsed": 746297, "key_press": -1, "type": "PRE_RECALL_DELAY", "trial_index": 129}, "uniqueid": "MTK3151:39L1G8WVWRY04L5RO4LNCY1MHNC13C", "dateTime": 1520108141875}, {"current_trial": 130, "trialdata": {"rt": -1000, "trial_type": "single-audio", "stimulus": "/static/audio/400Hz.wav", "internal_node_id": "0.0-94.0", "time_elapsed": 746798, "key_press": -1, "type": "PRE_RECALL_ALERT", "trial_index": 130}, "uniqueid": "MTK3151:39L1G8WVWRY04L5RO4LNCY1MHNC13C", "dateTime": 1520108142376}, {"current_trial": 131, "trialdata": {"rt": [2522, 4630, 5975, 7829, 9456, 12063, 17446, 20905, 33774, 36104], "recwords": ["seafood", "scallop", "cousin", "sister", "chemist", "freckle", "sandwich", "giant", "seafood", "swimmer"], "key_times": [898, 1099, 1222, 1593, 1804, 1949, 2048, 2522, 2932, 3114, 3436, 3711, 3887, 4081, 4310, 4630, 4895, 5134, 5304, 5446, 5534, 5651, 5975, 6289, 6464, 6546, 6756, 6892, 7040, 7829, 8417, 8523, 8640, 8780, 8939, 9027, 9136, 9456, 10061, 10497, 10703, 10881, 11023, 11206, 11409, 12063, 15684, 15901, 16067, 16156, 16418, 16675, 16808, 16947, 17446, 19270, 19471, 19610, 19802, 19944, 20905, 32561, 32740, 32862, 33005, 33259, 33434, 33545, 33774, 34941, 35127, 35320, 35489, 35669, 35779, 35876, 36104, 59893], "trial_type": "free-recall", "conditions": [12, 1600, "a", 12000], "internal_node_id": "0.0-95.0-0.0", "key_presses": [83, 69, 65, 70, 79, 79, 68, 13, 83, 67, 65, 76, 76, 79, 80, 13, 67, 79, 85, 83, 73, 78, 13, 83, 73, 83, 84, 69, 82, 13, 67, 72, 69, 77, 73, 83, 84, 13, 70, 82, 69, 67, 75, 76, 69, 13, 83, 65, 78, 68, 87, 73, 67, 72, 13, 71, 73, 65, 78, 84, 13, 83, 69, 65, 70, 79, 79, 68, 13, 83, 87, 73, 77, 77, 69, 82, 13, 83], "trial": 3, "time_elapsed": 806800, "type": "FREE_RECALL", "trial_index": 131}, "uniqueid": "MTK3151:39L1G8WVWRY04L5RO4LNCY1MHNC13C", "dateTime": 1520108202380}, {"current_trial": 132, "trialdata": {"rt": 979, "trial_type": "text", "internal_node_id": "0.0-96.0", "time_elapsed": 809782, "key_press": 13, "type": "INSTRUCTIONS", "trial_index": 132}, "uniqueid": "MTK3151:39L1G8WVWRY04L5RO4LNCY1MHNC13C", "dateTime": 1520108205360}, {"current_trial": 133, "trialdata": {"rt": [2766, 5779, 9981], "trial_type": "math-distractor", "key_times": [2459, 2559, 2766, 5518, 5590, 5779, 9559, 9760, 9981], "responses": ["10", "19", "16"], "num2": [1, 9, 7, 6], "num3": [7, 9, 4, 3], "conditions": [12, 1600, "a", 12000], "internal_node_id": "0.0-97.0", "key_presses": [49, 48, 13, 49, 57, 13, 49, 54, 13], "trial": 4, "time_elapsed": 823784, "type": "DISTRACTOR", "trial_index": 133, "num1": [2, 1, 5, 4]}, "uniqueid": "MTK3151:39L1G8WVWRY04L5RO4LNCY1MHNC13C", "dateTime": 1520108219362}, {"current_trial": 134, "trialdata": {"rt": -1, "trial_type": "single-stim", "stimulus": "<p id=\"stim\">10</p>", "internal_node_id": "0.0-98.0-0.0", "time_elapsed": 826786, "key_press": -1, "trial_index": 134}, "uniqueid": "MTK3151:39L1G8WVWRY04L5RO4LNCY1MHNC13C", "dateTime": 1520108222364}, {"current_trial": 135, "trialdata": {"rt": -1, "trial_type": "single-stim", "stimulus": "<p id=\"stim\">9</p>", "internal_node_id": "0.0-98.0-1.0", "time_elapsed": 827788, "key_press": -1, "trial_index": 135}, "uniqueid": "MTK3151:39L1G8WVWRY04L5RO4LNCY1MHNC13C", "dateTime": 1520108223366}, {"current_trial": 136, "trialdata": {"rt": -1, "trial_type": "single-stim", "stimulus": "<p id=\"stim\">8</p>", "internal_node_id": "0.0-98.0-2.0", "time_elapsed": 828789, "key_press": -1, "trial_index": 136}, "uniqueid": "MTK3151:39L1G8WVWRY04L5RO4LNCY1MHNC13C", "dateTime": 1520108224367}, {"current_trial": 137, "trialdata": {"rt": -1, "trial_type": "single-stim", "stimulus": "<p id=\"stim\">7</p>", "internal_node_id": "0.0-98.0-3.0", "time_elapsed": 829789, "key_press": -1, "trial_index": 137}, "uniqueid": "MTK3151:39L1G8WVWRY04L5RO4LNCY1MHNC13C", "dateTime": 1520108225367}, {"current_trial": 138, "trialdata": {"rt": -1, "trial_type": "single-stim", "stimulus": "<p id=\"stim\">6</p>", "internal_node_id": "0.0-98.0-4.0", "time_elapsed": 830791, "key_press": -1, "trial_index": 138}, "uniqueid": "MTK3151:39L1G8WVWRY04L5RO4LNCY1MHNC13C", "dateTime": 1520108226369}, {"current_trial": 139, "trialdata": {"rt": -1, "trial_type": "single-stim", "stimulus": "<p id=\"stim\">5</p>", "internal_node_id": "0.0-98.0-5.0", "time_elapsed": 831794, "key_press": -1, "trial_index": 139}, "uniqueid": "MTK3151:39L1G8WVWRY04L5RO4LNCY1MHNC13C", "dateTime": 1520108227373}, {"current_trial": 140, "trialdata": {"rt": -1, "trial_type": "single-stim", "stimulus": "<p id=\"stim\">4</p>", "internal_node_id": "0.0-98.0-6.0", "time_elapsed": 832796, "key_press": -1, "trial_index": 140}, "uniqueid": "MTK3151:39L1G8WVWRY04L5RO4LNCY1MHNC13C", "dateTime": 1520108228374}, {"current_trial": 141, "trialdata": {"rt": -1, "trial_type": "single-stim", "stimulus": "<p id=\"stim\">3</p>", "internal_node_id": "0.0-98.0-7.0", "time_elapsed": 833796, "key_press": -1, "trial_index": 141}, "uniqueid": "MTK3151:39L1G8WVWRY04L5RO4LNCY1MHNC13C", "dateTime": 1520108229374}, {"current_trial": 142, "trialdata": {"rt": -1, "trial_type": "single-stim", "stimulus": "<p id=\"stim\">2</p>", "internal_node_id": "0.0-98.0-8.0", "time_elapsed": 834798, "key_press": -1, "trial_index": 142}, "uniqueid": "MTK3151:39L1G8WVWRY04L5RO4LNCY1MHNC13C", "dateTime": 1520108230376}, {"current_trial": 143, "trialdata": {"rt": -1, "trial_type": "single-stim", "stimulus": "<p id=\"stim\">1</p>", "internal_node_id": "0.0-98.0-9.0", "time_elapsed": 835800, "key_press": -1, "trial_index": 143}, "uniqueid": "MTK3151:39L1G8WVWRY04L5RO4LNCY1MHNC13C", "dateTime": 1520108231378}, {"current_trial": 144, "trialdata": {"rt": -1, "trial_type": "single-stim", "stimulus": "<p id=\"stim\">+</p>", "internal_node_id": "0.0-99.0-0.0", "time_elapsed": 837301, "key_press": -1, "type": "FIXATION", "trial_index": 144}, "uniqueid": "MTK3151:39L1G8WVWRY04L5RO4LNCY1MHNC13C", "dateTime": 1520108232879}, {"current_trial": 145, "trialdata": {"rt": -1000, "trial_type": "single-audio", "word": "flag", "stimulus": "/static/audio/wordpool/FLAG.wav", "conditions": [12, 1600, "a", 12000], "internal_node_id": "0.0-100.0", "trial": 4, "time_elapsed": 839939, "serialpos": 0, "key_press": -1, "wordID": 572, "type": "PRES_AUD", "trial_index": 145}, "uniqueid": "MTK3151:39L1G8WVWRY04L5RO4LNCY1MHNC13C", "dateTime": 1520108235517}, {"current_trial": 146, "trialdata": {"rt": -1000, "trial_type": "single-audio", "word": "jello", "stimulus": "/static/audio/wordpool/JELLO.wav", "conditions": [12, 1600, "a", 12000], "internal_node_id": "0.0-101.0", "trial": 4, "time_elapsed": 842437, "serialpos": 1, "key_press": -1, "wordID": 753, "type": "PRES_AUD", "trial_index": 146}, "uniqueid": "MTK3151:39L1G8WVWRY04L5RO4LNCY1MHNC13C", "dateTime": 1520108238015}, {"current_trial": 147, "trialdata": {"rt": -1000, "trial_type": "single-audio", "word": "county", "stimulus": "/static/audio/wordpool/COUNTY.wav", "conditions": [12, 1600, "a", 12000], "internal_node_id": "0.0-102.0", "trial": 4, "time_elapsed": 845151, "serialpos": 2, "key_press": -1, "wordID": 388, "type": "PRES_AUD", "trial_index": 147}, "uniqueid": "MTK3151:39L1G8WVWRY04L5RO4LNCY1MHNC13C", "dateTime": 1520108240729}, {"current_trial": 148, "trialdata": {"rt": -1000, "trial_type": "single-audio", "word": "cookbook", "stimulus": "/static/audio/wordpool/COOKBOOK.wav", "conditions": [12, 1600, "a", 12000], "internal_node_id": "0.0-103.0", "trial": 4, "time_elapsed": 847898, "serialpos": 3, "key_press": -1, "wordID": 372, "type": "PRES_AUD", "trial_index": 148}, "uniqueid": "MTK3151:39L1G8WVWRY04L5RO4LNCY1MHNC13C", "dateTime": 1520108243476}, {"current_trial": 149, "trialdata": {"rt": -1000, "trial_type": "single-audio", "word": "curtain", "stimulus": "/static/audio/wordpool/CURTAIN.wav", "conditions": [12, 1600, "a", 12000], "internal_node_id": "0.0-104.0", "trial": 4, "time_elapsed": 850417, "serialpos": 4, "key_press": -1, "wordID": 426, "type": "PRES_AUD", "trial_index": 149}, "uniqueid": "MTK3151:39L1G8WVWRY04L5RO4LNCY1MHNC13C", "dateTime": 1520108245995}, {"current_trial": 150, "trialdata": {"rt": -1000, "trial_type": "single-audio", "word": "valley", "stimulus": "/static/audio/wordpool/VALLEY.wav", "conditions": [12, 1600, "a", 12000], "internal_node_id": "0.0-105.0", "trial": 4, "time_elapsed": 852892, "serialpos": 5, "key_press": -1, "wordID": 1544, "type": "PRES_AUD", "trial_index": 150}, "uniqueid": "MTK3151:39L1G8WVWRY04L5RO4LNCY1MHNC13C", "dateTime": 1520108248470}, {"current_trial": 151, "trialdata": {"rt": -1000, "trial_type": "single-audio", "word": "statue", "stimulus": "/static/audio/wordpool/STATUE.wav", "conditions": [12, 1600, "a", 12000], "internal_node_id": "0.0-106.0", "trial": 4, "time_elapsed": 855649, "serialpos": 6, "key_press": -1, "wordID": 1373, "type": "PRES_AUD", "trial_index": 151}, "uniqueid": "MTK3151:39L1G8WVWRY04L5RO4LNCY1MHNC13C", "dateTime": 1520108251227}, {"current_trial": 152, "trialdata": {"rt": -1000, "trial_type": "single-audio", "word": "ox", "stimulus": "/static/audio/wordpool/OX.wav", "conditions": [12, 1600, "a", 12000], "internal_node_id": "0.0-107.0", "trial": 4, "time_elapsed": 858250, "serialpos": 7, "key_press": -1, "wordID": 993, "type": "PRES_AUD", "trial_index": 152}, "uniqueid": "MTK3151:39L1G8WVWRY04L5RO4LNCY1MHNC13C", "dateTime": 1520108253828}, {"current_trial": 153, "trialdata": {"rt": -1000, "trial_type": "single-audio", "word": "dandruff", "stimulus": "/static/audio/wordpool/DANDRUFF.wav", "conditions": [12, 1600, "a", 12000], "internal_node_id": "0.0-108.0", "trial": 4, "time_elapsed": 860804, "serialpos": 8, "key_press": -1, "wordID": 438, "type": "PRES_AUD", "trial_index": 153}, "uniqueid": "MTK3151:39L1G8WVWRY04L5RO4LNCY1MHNC13C", "dateTime": 1520108256382}, {"current_trial": 154, "trialdata": {"rt": -1000, "trial_type": "single-audio", "word": "jelly", "stimulus": "/static/audio/wordpool/JELLY.wav", "conditions": [12, 1600, "a", 12000], "internal_node_id": "0.0-109.0", "trial": 4, "time_elapsed": 863428, "serialpos": 9, "key_press": -1, "wordID": 754, "type": "PRES_AUD", "trial_index": 154}, "uniqueid": "MTK3151:39L1G8WVWRY04L5RO4LNCY1MHNC13C", "dateTime": 1520108259006}, {"current_trial": 155, "trialdata": {"rt": -1000, "trial_type": "single-audio", "word": "shoulder", "stimulus": "/static/audio/wordpool/SHOULDER.wav", "conditions": [12, 1600, "a", 12000], "internal_node_id": "0.0-110.0", "trial": 4, "time_elapsed": 865949, "serialpos": 10, "key_press": -1, "wordID": 1293, "type": "PRES_AUD", "trial_index": 155}, "uniqueid": "MTK3151:39L1G8WVWRY04L5RO4LNCY1MHNC13C", "dateTime": 1520108261527}, {"current_trial": 156, "trialdata": {"rt": -1000, "trial_type": "single-audio", "word": "wrist", "stimulus": "/static/audio/wordpool/WRIST.wav", "conditions": [12, 1600, "a", 12000], "internal_node_id": "0.0-111.0", "trial": 4, "time_elapsed": 868423, "serialpos": 11, "key_press": -1, "wordID": 1625, "type": "PRES_AUD", "trial_index": 156}, "uniqueid": "MTK3151:39L1G8WVWRY04L5RO4LNCY1MHNC13C", "dateTime": 1520108264001}, {"current_trial": 157, "trialdata": {"rt": -1, "trial_type": "single-stim", "stimulus": "", "internal_node_id": "0.0-112.0-0.0", "time_elapsed": 869767, "key_press": -1, "type": "PRE_RECALL_DELAY", "trial_index": 157}, "uniqueid": "MTK3151:39L1G8WVWRY04L5RO4LNCY1MHNC13C", "dateTime": 1520108265345}, {"current_trial": 158, "trialdata": {"rt": -1000, "trial_type": "single-audio", "stimulus": "/static/audio/400Hz.wav", "internal_node_id": "0.0-113.0", "time_elapsed": 870269, "key_press": -1, "type": "PRE_RECALL_ALERT", "trial_index": 158}, "uniqueid": "MTK3151:39L1G8WVWRY04L5RO4LNCY1MHNC13C", "dateTime": 1520108265847}, {"current_trial": 159, "trialdata": {"rt": [1997, 3415, 4442, 5859, 7072, 8443, 16408, 17305, 24080, 53561], "recwords": ["shoulder", "wrist", "flag", "valley", "jelly", "jello", "shoulder", "wrist", "flag", "shoulder"], "key_times": [603, 777, 960, 1087, 1247, 1404, 1673, 1770, 1997, 2235, 2455, 2659, 2780, 2937, 3415, 3764, 3956, 4055, 4242, 4442, 4984, 5109, 5248, 5390, 5490, 5652, 5859, 6209, 6407, 6541, 6702, 6886, 7072, 7320, 7465, 7611, 7755, 7945, 8443, 15095, 15291, 15465, 15624, 15798, 15950, 16129, 16246, 16408, 16556, 16725, 16930, 17047, 17163, 17305, 23404, 23597, 23742, 23878, 24080, 49552, 49715, 49904, 50291, 50572, 50710, 51340, 51479, 51702, 51847, 53561], "trial_type": "free-recall", "conditions": [12, 1600, "a", 12000], "internal_node_id": "0.0-114.0-0.0", "key_presses": [83, 72, 79, 85, 76, 68, 69, 82, 13, 87, 82, 73, 83, 84, 13, 70, 76, 65, 71, 13, 86, 65, 76, 76, 69, 89, 13, 74, 69, 76, 76, 89, 13, 74, 69, 76, 76, 79, 13, 83, 72, 79, 85, 76, 68, 69, 82, 13, 87, 82, 73, 83, 84, 13, 70, 76, 65, 71, 13, 83, 72, 79, 85, 76, 76, 8, 68, 69, 82, 13], "trial": 4, "time_elapsed": 930272, "type": "FREE_RECALL", "trial_index": 159}, "uniqueid": "MTK3151:39L1G8WVWRY04L5RO4LNCY1MHNC13C", "dateTime": 1520108325852}, {"current_trial": 160, "trialdata": {"rt": 1810, "trial_type": "text", "internal_node_id": "0.0-115.0", "time_elapsed": 934084, "key_press": 70, "type": "INSTRUCTIONS", "trial_index": 160}, "uniqueid": "MTK3151:39L1G8WVWRY04L5RO4LNCY1MHNC13C", "dateTime": 1520108329662}, {"current_trial": 161, "trialdata": {"rt": [3004, 5267, 7374, 14664, 20057], "trial_type": "math-distractor", "key_times": [2606, 2884, 3004, 4981, 5110, 5267, 7028, 7185, 7374, 13829, 14394, 14664, 19701, 19813, 20057, 23791, 23987], "responses": ["15", "13", "11", "14", "21"], "num2": [2, 4, 1, 2, 8, 4], "num3": [9, 4, 8, 6, 3, 7], "conditions": [12, 1600, "a", 24000], "internal_node_id": "0.0-116.0", "key_presses": [49, 53, 13, 49, 51, 13, 49, 49, 13, 49, 52, 13, 50, 49, 13, 49, 56], "trial": 5, "time_elapsed": 960087, "type": "DISTRACTOR", "trial_index": 161, "num1": [4, 5, 1, 7, 9, 7]}, "uniqueid": "MTK3151:39L1G8WVWRY04L5RO4LNCY1MHNC13C", "dateTime": 1520108355665}, {"current_trial": 162, "trialdata": {"rt": -1, "trial_type": "single-stim", "stimulus": "<p id=\"stim\">10</p>", "internal_node_id": "0.0-117.0-0.0", "time_elapsed": 963089, "key_press": -1, "trial_index": 162}, "uniqueid": "MTK3151:39L1G8WVWRY04L5RO4LNCY1MHNC13C", "dateTime": 1520108358667}, {"current_trial": 163, "trialdata": {"rt": -1, "trial_type": "single-stim", "stimulus": "<p id=\"stim\">9</p>", "internal_node_id": "0.0-117.0-1.0", "time_elapsed": 964091, "key_press": -1, "trial_index": 163}, "uniqueid": "MTK3151:39L1G8WVWRY04L5RO4LNCY1MHNC13C", "dateTime": 1520108359669}, {"current_trial": 164, "trialdata": {"rt": -1, "trial_type": "single-stim", "stimulus": "<p id=\"stim\">8</p>", "internal_node_id": "0.0-117.0-2.0", "time_elapsed": 965092, "key_press": -1, "trial_index": 164}, "uniqueid": "MTK3151:39L1G8WVWRY04L5RO4LNCY1MHNC13C", "dateTime": 1520108360670}, {"current_trial": 165, "trialdata": {"rt": -1, "trial_type": "single-stim", "stimulus": "<p id=\"stim\">7</p>", "internal_node_id": "0.0-117.0-3.0", "time_elapsed": 966093, "key_press": -1, "trial_index": 165}, "uniqueid": "MTK3151:39L1G8WVWRY04L5RO4LNCY1MHNC13C", "dateTime": 1520108361671}, {"current_trial": 166, "trialdata": {"rt": -1, "trial_type": "single-stim", "stimulus": "<p id=\"stim\">6</p>", "internal_node_id": "0.0-117.0-4.0", "time_elapsed": 967093, "key_press": -1, "trial_index": 166}, "uniqueid": "MTK3151:39L1G8WVWRY04L5RO4LNCY1MHNC13C", "dateTime": 1520108362671}, {"current_trial": 167, "trialdata": {"rt": -1, "trial_type": "single-stim", "stimulus": "<p id=\"stim\">5</p>", "internal_node_id": "0.0-117.0-5.0", "time_elapsed": 968095, "key_press": -1, "trial_index": 167}, "uniqueid": "MTK3151:39L1G8WVWRY04L5RO4LNCY1MHNC13C", "dateTime": 1520108363673}, {"current_trial": 168, "trialdata": {"rt": -1, "trial_type": "single-stim", "stimulus": "<p id=\"stim\">4</p>", "internal_node_id": "0.0-117.0-6.0", "time_elapsed": 969097, "key_press": -1, "trial_index": 168}, "uniqueid": "MTK3151:39L1G8WVWRY04L5RO4LNCY1MHNC13C", "dateTime": 1520108364675}, {"current_trial": 169, "trialdata": {"rt": -1, "trial_type": "single-stim", "stimulus": "<p id=\"stim\">3</p>", "internal_node_id": "0.0-117.0-7.0", "time_elapsed": 970098, "key_press": -1, "trial_index": 169}, "uniqueid": "MTK3151:39L1G8WVWRY04L5RO4LNCY1MHNC13C", "dateTime": 1520108365676}, {"current_trial": 170, "trialdata": {"rt": -1, "trial_type": "single-stim", "stimulus": "<p id=\"stim\">2</p>", "internal_node_id": "0.0-117.0-8.0", "time_elapsed": 971100, "key_press": -1, "trial_index": 170}, "uniqueid": "MTK3151:39L1G8WVWRY04L5RO4LNCY1MHNC13C", "dateTime": 1520108366678}, {"current_trial": 171, "trialdata": {"rt": -1, "trial_type": "single-stim", "stimulus": "<p id=\"stim\">1</p>", "internal_node_id": "0.0-117.0-9.0", "time_elapsed": 972101, "key_press": -1, "trial_index": 171}, "uniqueid": "MTK3151:39L1G8WVWRY04L5RO4LNCY1MHNC13C", "dateTime": 1520108367679}, {"current_trial": 172, "trialdata": {"rt": -1, "trial_type": "single-stim", "stimulus": "<p id=\"stim\">+</p>", "internal_node_id": "0.0-118.0-0.0", "time_elapsed": 973603, "key_press": -1, "type": "FIXATION", "trial_index": 172}, "uniqueid": "MTK3151:39L1G8WVWRY04L5RO4LNCY1MHNC13C", "dateTime": 1520108369181}, {"current_trial": 173, "trialdata": {"rt": -1000, "trial_type": "single-audio", "word": "eyelash", "stimulus": "/static/audio/wordpool/EYELASH.wav", "conditions": [12, 1600, "a", 24000], "internal_node_id": "0.0-119.0", "trial": 5, "time_elapsed": 976196, "serialpos": 0, "key_press": -1, "wordID": 545, "type": "PRES_AUD", "trial_index": 173}, "uniqueid": "MTK3151:39L1G8WVWRY04L5RO4LNCY1MHNC13C", "dateTime": 1520108371774}, {"current_trial": 174, "trialdata": {"rt": -1000, "trial_type": "single-audio", "word": "puddle", "stimulus": "/static/audio/wordpool/PUDDLE.wav", "conditions": [12, 1600, "a", 24000], "internal_node_id": "0.0-120.0", "trial": 5, "time_elapsed": 978715, "serialpos": 1, "key_press": -1, "wordID": 1139, "type": "PRES_AUD", "trial_index": 174}, "uniqueid": "MTK3151:39L1G8WVWRY04L5RO4LNCY1MHNC13C", "dateTime": 1520108374293}, {"current_trial": 175, "trialdata": {"rt": -1000, "trial_type": "single-audio", "word": "pebble", "stimulus": "/static/audio/wordpool/PEBBLE.wav", "conditions": [12, 1600, "a", 24000], "internal_node_id": "0.0-121.0", "trial": 5, "time_elapsed": 981193, "serialpos": 2, "key_press": -1, "wordID": 1034, "type": "PRES_AUD", "trial_index": 175}, "uniqueid": "MTK3151:39L1G8WVWRY04L5RO4LNCY1MHNC13C", "dateTime": 1520108376771}, {"current_trial": 176, "trialdata": {"rt": -1000, "trial_type": "single-audio", "word": "london", "stimulus": "/static/audio/wordpool/LONDON.wav", "conditions": [12, 1600, "a", 24000], "internal_node_id": "0.0-122.0", "trial": 5, "time_elapsed": 983886, "serialpos": 3, "key_press": -1, "wordID": 842, "type": "PRES_AUD", "trial_index": 176}, "uniqueid": "MTK3151:39L1G8WVWRY04L5RO4LNCY1MHNC13C", "dateTime": 1520108379465}, {"current_trial": 177, "trialdata": {"rt": -1000, "trial_type": "single-audio", "word": "twig", "stimulus": "/static/audio/wordpool/TWIG.wav", "conditions": [12, 1600, "a", 24000], "internal_node_id": "0.0-123.0", "trial": 5, "time_elapsed": 986316, "serialpos": 4, "key_press": -1, "wordID": 1526, "type": "PRES_AUD", "trial_index": 177}, "uniqueid": "MTK3151:39L1G8WVWRY04L5RO4LNCY1MHNC13C", "dateTime": 1520108381895}, {"current_trial": 178, "trialdata": {"rt": -1000, "trial_type": "single-audio", "word": "spouse", "stimulus": "/static/audio/wordpool/SPOUSE.wav", "conditions": [12, 1600, "a", 24000], "internal_node_id": "0.0-124.0", "trial": 5, "time_elapsed": 989001, "serialpos": 5, "key_press": -1, "wordID": 1357, "type": "PRES_AUD", "trial_index": 178}, "uniqueid": "MTK3151:39L1G8WVWRY04L5RO4LNCY1MHNC13C", "dateTime": 1520108384579}, {"current_trial": 179, "trialdata": {"rt": -1000, "trial_type": "single-audio", "word": "wife", "stimulus": "/static/audio/wordpool/WIFE.wav", "conditions": [12, 1600, "a", 24000], "internal_node_id": "0.0-125.0", "trial": 5, "time_elapsed": 991659, "serialpos": 6, "key_press": -1, "wordID": 1608, "type": "PRES_AUD", "trial_index": 179}, "uniqueid": "MTK3151:39L1G8WVWRY04L5RO4LNCY1MHNC13C", "dateTime": 1520108387237}, {"current_trial": 180, "trialdata": {"rt": -1000, "trial_type": "single-audio", "word": "human", "stimulus": "/static/audio/wordpool/HUMAN.wav", "conditions": [12, 1600, "a", 24000], "internal_node_id": "0.0-126.0", "trial": 5, "time_elapsed": 994229, "serialpos": 7, "key_press": -1, "wordID": 725, "type": "PRES_AUD", "trial_index": 180}, "uniqueid": "MTK3151:39L1G8WVWRY04L5RO4LNCY1MHNC13C", "dateTime": 1520108389808}, {"current_trial": 181, "trialdata": {"rt": -1000, "trial_type": "single-audio", "word": "europe", "stimulus": "/static/audio/wordpool/EUROPE.wav", "conditions": [12, 1600, "a", 24000], "internal_node_id": "0.0-127.0", "trial": 5, "time_elapsed": 996645, "serialpos": 8, "key_press": -1, "wordID": 540, "type": "PRES_AUD", "trial_index": 181}, "uniqueid": "MTK3151:39L1G8WVWRY04L5RO4LNCY1MHNC13C", "dateTime": 1520108392223}, {"current_trial": 182, "trialdata": {"rt": -1000, "trial_type": "single-audio", "word": "badge", "stimulus": "/static/audio/wordpool/BADGE.wav", "conditions": [12, 1600, "a", 24000], "internal_node_id": "0.0-128.0", "trial": 5, "time_elapsed": 999122, "serialpos": 9, "key_press": -1, "wordID": 67, "type": "PRES_AUD", "trial_index": 182}, "uniqueid": "MTK3151:39L1G8WVWRY04L5RO4LNCY1MHNC13C", "dateTime": 1520108394700}, {"current_trial": 183, "trialdata": {"rt": -1000, "trial_type": "single-audio", "word": "frame", "stimulus": "/static/audio/wordpool/FRAME.wav", "conditions": [12, 1600, "a", 24000], "internal_node_id": "0.0-129.0", "trial": 5, "time_elapsed": 1001566, "serialpos": 10, "key_press": -1, "wordID": 599, "type": "PRES_AUD", "trial_index": 183}, "uniqueid": "MTK3151:39L1G8WVWRY04L5RO4LNCY1MHNC13C", "dateTime": 1520108397144}, {"current_trial": 184, "trialdata": {"rt": -1000, "trial_type": "single-audio", "word": "zipper", "stimulus": "/static/audio/wordpool/ZIPPER.wav", "conditions": [12, 1600, "a", 24000], "internal_node_id": "0.0-130.0", "trial": 5, "time_elapsed": 1003995, "serialpos": 11, "key_press": -1, "wordID": 1635, "type": "PRES_AUD", "trial_index": 184}, "uniqueid": "MTK3151:39L1G8WVWRY04L5RO4LNCY1MHNC13C", "dateTime": 1520108399573}, {"current_trial": 185, "trialdata": {"rt": -1, "trial_type": "single-stim", "stimulus": "", "internal_node_id": "0.0-131.0-0.0", "time_elapsed": 1005393, "key_press": -1, "type": "PRE_RECALL_DELAY", "trial_index": 185}, "uniqueid": "MTK3151:39L1G8WVWRY04L5RO4LNCY1MHNC13C", "dateTime": 1520108400971}, {"current_trial": 186, "trialdata": {"rt": -1000, "trial_type": "single-audio", "stimulus": "/static/audio/400Hz.wav", "internal_node_id": "0.0-132.0", "time_elapsed": 1005894, "key_press": -1, "type": "PRE_RECALL_ALERT", "trial_index": 186}, "uniqueid": "MTK3151:39L1G8WVWRY04L5RO4LNCY1MHNC13C", "dateTime": 1520108401472}, {"current_trial": 187, "trialdata": {"rt": [1828, 3543, 5144, 6564, 7587, 10278, 13085, 15657, 27488], "recwords": ["frame", "zipper", "london", "europe", "twig", "badge", "eyelash", "puddle", "zipper"], "key_times": [784, 1017, 1116, 1255, 1378, 1828, 2260, 2594, 2859, 3029, 3189, 3303, 3543, 4034, 4312, 4481, 4622, 4693, 4824, 5144, 5469, 5617, 5735, 5846, 6057, 6302, 6564, 6842, 6968, 7136, 7291, 7587, 8449, 8554, 8691, 9006, 9641, 9778, 9870, 10278, 11773, 12148, 12293, 12445, 12592, 12732, 12897, 13085, 13662, 14103, 14366, 14541, 14685, 14858, 15004, 15119, 15657, 26408, 26572, 26805, 26948, 27115, 27238, 27488], "trial_type": "free-recall", "conditions": [12, 1600, "a", 24000], "internal_node_id": "0.0-133.0-0.0", "key_presses": [70, 82, 65, 77, 69, 13, 90, 73, 80, 80, 69, 82, 13, 76, 79, 78, 68, 79, 78, 13, 69, 85, 82, 79, 80, 69, 13, 84, 87, 73, 71, 13, 66, 65, 68, 69, 8, 71, 69, 13, 69, 89, 69, 76, 65, 83, 72, 13, 85, 8, 80, 85, 68, 68, 76, 69, 13, 90, 73, 80, 80, 69, 82, 13], "trial": 5, "time_elapsed": 1065896, "type": "FREE_RECALL", "trial_index": 187}, "uniqueid": "MTK3151:39L1G8WVWRY04L5RO4LNCY1MHNC13C", "dateTime": 1520108461476}, {"current_trial": 188, "trialdata": {"rt": 941, "trial_type": "text", "internal_node_id": "0.0-134.0", "time_elapsed": 1068840, "key_press": 74, "type": "INSTRUCTIONS", "trial_index": 188}, "uniqueid": "MTK3151:39L1G8WVWRY04L5RO4LNCY1MHNC13C", "dateTime": 1520108464418}, {"current_trial": 189, "trialdata": {"rt": [3240, 5913, 8424, 10928], "trial_type": "math-distractor", "key_times": [2844, 3006, 3240, 5683, 5913, 8130, 8424, 10520, 10674, 10928], "responses": ["18", "8", "8", "18"], "num2": [4, 3, 3, 8, 1], "num3": [5, 4, 2, 8, 2], "conditions": [12, 800, "a", 12000], "internal_node_id": "0.0-135.0", "key_presses": [49, 56, 13, 56, 13, 56, 13, 49, 56, 13], "trial": 6, "time_elapsed": 1082843, "type": "DISTRACTOR", "trial_index": 189, "num1": [9, 1, 3, 2, 4]}, "uniqueid": "MTK3151:39L1G8WVWRY04L5RO4LNCY1MHNC13C", "dateTime": 1520108478421}, {"current_trial": 190, "trialdata": {"rt": -1, "trial_type": "single-stim", "stimulus": "<p id=\"stim\">10</p>", "internal_node_id": "0.0-136.0-0.0", "time_elapsed": 1085848, "key_press": -1, "trial_index": 190}, "uniqueid": "MTK3151:39L1G8WVWRY04L5RO4LNCY1MHNC13C", "dateTime": 1520108481426}, {"current_trial": 191, "trialdata": {"rt": -1, "trial_type": "single-stim", "stimulus": "<p id=\"stim\">9</p>", "internal_node_id": "0.0-136.0-1.0", "time_elapsed": 1086849, "key_press": -1, "trial_index": 191}, "uniqueid": "MTK3151:39L1G8WVWRY04L5RO4LNCY1MHNC13C", "dateTime": 1520108482427}, {"current_trial": 192, "trialdata": {"rt": -1, "trial_type": "single-stim", "stimulus": "<p id=\"stim\">8</p>", "internal_node_id": "0.0-136.0-2.0", "time_elapsed": 1087851, "key_press": -1, "trial_index": 192}, "uniqueid": "MTK3151:39L1G8WVWRY04L5RO4LNCY1MHNC13C", "dateTime": 1520108483429}, {"current_trial": 193, "trialdata": {"rt": -1, "trial_type": "single-stim", "stimulus": "<p id=\"stim\">7</p>", "internal_node_id": "0.0-136.0-3.0", "time_elapsed": 1088854, "key_press": -1, "trial_index": 193}, "uniqueid": "MTK3151:39L1G8WVWRY04L5RO4LNCY1MHNC13C", "dateTime": 1520108484432}, {"current_trial": 194, "trialdata": {"rt": -1, "trial_type": "single-stim", "stimulus": "<p id=\"stim\">6</p>", "internal_node_id": "0.0-136.0-4.0", "time_elapsed": 1089855, "key_press": -1, "trial_index": 194}, "uniqueid": "MTK3151:39L1G8WVWRY04L5RO4LNCY1MHNC13C", "dateTime": 1520108485433}, {"current_trial": 195, "trialdata": {"rt": -1, "trial_type": "single-stim", "stimulus": "<p id=\"stim\">5</p>", "internal_node_id": "0.0-136.0-5.0", "time_elapsed": 1090858, "key_press": -1, "trial_index": 195}, "uniqueid": "MTK3151:39L1G8WVWRY04L5RO4LNCY1MHNC13C", "dateTime": 1520108486436}, {"current_trial": 196, "trialdata": {"rt": -1, "trial_type": "single-stim", "stimulus": "<p id=\"stim\">4</p>", "internal_node_id": "0.0-136.0-6.0", "time_elapsed": 1091859, "key_press": -1, "trial_index": 196}, "uniqueid": "MTK3151:39L1G8WVWRY04L5RO4LNCY1MHNC13C", "dateTime": 1520108487437}, {"current_trial": 197, "trialdata": {"rt": -1, "trial_type": "single-stim", "stimulus": "<p id=\"stim\">3</p>", "internal_node_id": "0.0-136.0-7.0", "time_elapsed": 1092861, "key_press": -1, "trial_index": 197}, "uniqueid": "MTK3151:39L1G8WVWRY04L5RO4LNCY1MHNC13C", "dateTime": 1520108488439}, {"current_trial": 198, "trialdata": {"rt": -1, "trial_type": "single-stim", "stimulus": "<p id=\"stim\">2</p>", "internal_node_id": "0.0-136.0-8.0", "time_elapsed": 1093862, "key_press": -1, "trial_index": 198}, "uniqueid": "MTK3151:39L1G8WVWRY04L5RO4LNCY1MHNC13C", "dateTime": 1520108489440}, {"current_trial": 199, "trialdata": {"rt": -1, "trial_type": "single-stim", "stimulus": "<p id=\"stim\">1</p>", "internal_node_id": "0.0-136.0-9.0", "time_elapsed": 1094865, "key_press": -1, "trial_index": 199}, "uniqueid": "MTK3151:39L1G8WVWRY04L5RO4LNCY1MHNC13C", "dateTime": 1520108490443}, {"current_trial": 200, "trialdata": {"rt": -1, "trial_type": "single-stim", "stimulus": "<p id=\"stim\">+</p>", "internal_node_id": "0.0-137.0-0.0", "time_elapsed": 1096365, "key_press": -1, "type": "FIXATION", "trial_index": 200}, "uniqueid": "MTK3151:39L1G8WVWRY04L5RO4LNCY1MHNC13C", "dateTime": 1520108491943}, {"current_trial": 201, "trialdata": {"rt": -1000, "trial_type": "single-audio", "word": "crown", "stimulus": "/static/audio/wordpool/CROWN.wav", "conditions": [12, 800, "a", 12000], "internal_node_id": "0.0-138.0", "trial": 6, "time_elapsed": 1098309, "serialpos": 0, "key_press": -1, "wordID": 414, "type": "PRES_AUD", "trial_index": 201}, "uniqueid": "MTK3151:39L1G8WVWRY04L5RO4LNCY1MHNC13C", "dateTime": 1520108493887}, {"current_trial": 202, "trialdata": {"rt": -1000, "trial_type": "single-audio", "word": "fungus", "stimulus": "/static/audio/wordpool/FUNGUS.wav", "conditions": [12, 800, "a", 12000], "internal_node_id": "0.0-139.0", "trial": 6, "time_elapsed": 1100055, "serialpos": 1, "key_press": -1, "wordID": 613, "type": "PRES_AUD", "trial_index": 202}, "uniqueid": "MTK3151:39L1G8WVWRY04L5RO4LNCY1MHNC13C", "dateTime": 1520108495633}, {"current_trial": 203, "trialdata": {"rt": -1000, "trial_type": "single-audio", "word": "temple", "stimulus": "/static/audio/wordpool/TEMPLE.wav", "conditions": [12, 800, "a", 12000], "internal_node_id": "0.0-140.0", "trial": 6, "time_elapsed": 1101924, "serialpos": 2, "key_press": -1, "wordID": 1447, "type": "PRES_AUD", "trial_index": 203}, "uniqueid": "MTK3151:39L1G8WVWRY04L5RO4LNCY1MHNC13C", "dateTime": 1520108497502}, {"current_trial": 204, "trialdata": {"rt": -1000, "trial_type": "single-audio", "word": "dress", "stimulus": "/static/audio/wordpool/DRESS.wav", "conditions": [12, 800, "a", 12000], "internal_node_id": "0.0-141.0", "trial": 6, "time_elapsed": 1103559, "serialpos": 3, "key_press": -1, "wordID": 494, "type": "PRES_AUD", "trial_index": 204}, "uniqueid": "MTK3151:39L1G8WVWRY04L5RO4LNCY1MHNC13C", "dateTime": 1520108499137}, {"current_trial": 205, "trialdata": {"rt": -1000, "trial_type": "single-audio", "word": "scarf", "stimulus": "/static/audio/wordpool/SCARF.wav", "conditions": [12, 800, "a", 12000], "internal_node_id": "0.0-142.0", "trial": 6, "time_elapsed": 1105176, "serialpos": 4, "key_press": -1, "wordID": 1245, "type": "PRES_AUD", "trial_index": 205}, "uniqueid": "MTK3151:39L1G8WVWRY04L5RO4LNCY1MHNC13C", "dateTime": 1520108500754}, {"current_trial": 206, "trialdata": {"rt": -1000, "trial_type": "single-audio", "word": "cigar", "stimulus": "/static/audio/wordpool/CIGAR.wav", "conditions": [12, 800, "a", 12000], "internal_node_id": "0.0-143.0", "trial": 6, "time_elapsed": 1106808, "serialpos": 5, "key_press": -1, "wordID": 307, "type": "PRES_AUD", "trial_index": 206}, "uniqueid": "MTK3151:39L1G8WVWRY04L5RO4LNCY1MHNC13C", "dateTime": 1520108502386}, {"current_trial": 207, "trialdata": {"rt": -1000, "trial_type": "single-audio", "word": "champagne", "stimulus": "/static/audio/wordpool/CHAMPAGNE.wav", "conditions": [12, 800, "a", 12000], "internal_node_id": "0.0-144.0", "trial": 6, "time_elapsed": 1108757, "serialpos": 6, "key_press": -1, "wordID": 277, "type": "PRES_AUD", "trial_index": 207}, "uniqueid": "MTK3151:39L1G8WVWRY04L5RO4LNCY1MHNC13C", "dateTime": 1520108504335}, {"current_trial": 208, "trialdata": {"rt": -1000, "trial_type": "single-audio", "word": "mildew", "stimulus": "/static/audio/wordpool/MILDEW.wav", "conditions": [12, 800, "a", 12000], "internal_node_id": "0.0-145.0", "trial": 6, "time_elapsed": 1110545, "serialpos": 7, "key_press": -1, "wordID": 892, "type": "PRES_AUD", "trial_index": 208}, "uniqueid": "MTK3151:39L1G8WVWRY04L5RO4LNCY1MHNC13C", "dateTime": 1520108506123}, {"current_trial": 209, "trialdata": {"rt": -1000, "trial_type": "single-audio", "word": "yarn", "stimulus": "/static/audio/wordpool/YARN.wav", "conditions": [12, 800, "a", 12000], "internal_node_id": "0.0-146.0", "trial": 6, "time_elapsed": 1112223, "serialpos": 8, "key_press": -1, "wordID": 1630, "type": "PRES_AUD", "trial_index": 209}, "uniqueid": "MTK3151:39L1G8WVWRY04L5RO4LNCY1MHNC13C", "dateTime": 1520108507801}, {"current_trial": 210, "trialdata": {"rt": -1000, "trial_type": "single-audio", "word": "world", "stimulus": "/static/audio/wordpool/WORLD.wav", "conditions": [12, 800, "a", 12000], "internal_node_id": "0.0-147.0", "trial": 6, "time_elapsed": 1114069, "serialpos": 9, "key_press": -1, "wordID": 1621, "type": "PRES_AUD", "trial_index": 210}, "uniqueid": "MTK3151:39L1G8WVWRY04L5RO4LNCY1MHNC13C", "dateTime": 1520108509647}, {"current_trial": 211, "trialdata": {"rt": -1000, "trial_type": "single-audio", "word": "turkey", "stimulus": "/static/audio/wordpool/TURKEY.wav", "conditions": [12, 800, "a", 12000], "internal_node_id": "0.0-148.0", "trial": 6, "time_elapsed": 1115849, "serialpos": 10, "key_press": -1, "wordID": 1519, "type": "PRES_AUD", "trial_index": 211}, "uniqueid": "MTK3151:39L1G8WVWRY04L5RO4LNCY1MHNC13C", "dateTime": 1520108511428}, {"current_trial": 212, "trialdata": {"rt": -1000, "trial_type": "single-audio", "word": "pigeon", "stimulus": "/static/audio/wordpool/PIGEON.wav", "conditions": [12, 800, "a", 12000], "internal_node_id": "0.0-149.0", "trial": 6, "time_elapsed": 1117782, "serialpos": 11, "key_press": -1, "wordID": 1064, "type": "PRES_AUD", "trial_index": 212}, "uniqueid": "MTK3151:39L1G8WVWRY04L5RO4LNCY1MHNC13C", "dateTime": 1520108513361}, {"current_trial": 213, "trialdata": {"rt": -1, "trial_type": "single-stim", "stimulus": "", "internal_node_id": "0.0-150.0-0.0", "time_elapsed": 1119090, "key_press": -1, "type": "PRE_RECALL_DELAY", "trial_index": 213}, "uniqueid": "MTK3151:39L1G8WVWRY04L5RO4LNCY1MHNC13C", "dateTime": 1520108514668}, {"current_trial": 214, "trialdata": {"rt": -1000, "trial_type": "single-audio", "stimulus": "/static/audio/400Hz.wav", "internal_node_id": "0.0-151.0", "time_elapsed": 1119591, "key_press": -1, "type": "PRE_RECALL_ALERT", "trial_index": 214}, "uniqueid": "MTK3151:39L1G8WVWRY04L5RO4LNCY1MHNC13C", "dateTime": 1520108515169}, {"current_trial": 215, "trialdata": {"rt": [2275, 3774, 5261, 7010, 10426, 11697, 13340, 14321, 42426], "recwords": ["world", "tricky", "yarn", "pigeon", "temple", "dress", "scarf", "yarn", "tricky"], "key_times": [1288, 1512, 1635, 1793, 1913, 2275, 2593, 2774, 2913, 3056, 3147, 3544, 3774, 4233, 4372, 4550, 4896, 5261, 5577, 5785, 5880, 6105, 6459, 6655, 7010, 9336, 9509, 9602, 9805, 10066, 10190, 10426, 10785, 10948, 11058, 11357, 11522, 11697, 11880, 12058, 12198, 12888, 13107, 13340, 13686, 13810, 13944, 14104, 14321, 40845, 40995, 41201, 41322, 41429, 42137, 42426], "trial_type": "free-recall", "conditions": [12, 800, "a", 12000], "internal_node_id": "0.0-152.0-0.0", "key_presses": [87, 79, 82, 76, 68, 13, 84, 82, 73, 67, 75, 89, 13, 89, 65, 82, 78, 13, 80, 73, 71, 69, 79, 78, 13, 84, 69, 77, 80, 76, 69, 13, 68, 82, 69, 83, 83, 13, 83, 67, 65, 82, 70, 13, 89, 65, 82, 78, 13, 84, 82, 73, 67, 75, 89, 13], "trial": 6, "time_elapsed": 1179593, "type": "FREE_RECALL", "trial_index": 215}, "uniqueid": "MTK3151:39L1G8WVWRY04L5RO4LNCY1MHNC13C", "dateTime": 1520108575173}, {"current_trial": 216, "trialdata": {"rt": 9325, "trial_type": "text", "internal_node_id": "0.0-153.0", "time_elapsed": 1190923, "key_press": 74, "type": "INSTRUCTIONS", "trial_index": 216}, "uniqueid": "MTK3151:39L1G8WVWRY04L5RO4LNCY1MHNC13C", "dateTime": 1520108586501}, {"current_trial": 217, "trialdata": {"rt": [6264, 8187, 10571], "trial_type": "math-distractor", "key_times": [5903, 6048, 6264, 7878, 7967, 8187, 10165, 10292, 10571], "responses": ["20", "12", "12"], "num2": [5, 5, 1, 4], "num3": [8, 2, 6, 6], "conditions": [24, 800, "a", 12000], "internal_node_id": "0.0-154.0", "key_presses": [50, 48, 13, 49, 50, 13, 49, 50, 13], "trial": 7, "time_elapsed": 1204930, "type": "DISTRACTOR", "trial_index": 217, "num1": [7, 5, 5, 8]}, "uniqueid": "MTK3151:39L1G8WVWRY04L5RO4LNCY1MHNC13C", "dateTime": 1520108600508}, {"current_trial": 218, "trialdata": {"rt": -1, "trial_type": "single-stim", "stimulus": "<p id=\"stim\">10</p>", "internal_node_id": "0.0-155.0-0.0", "time_elapsed": 1207934, "key_press": -1, "trial_index": 218}, "uniqueid": "MTK3151:39L1G8WVWRY04L5RO4LNCY1MHNC13C", "dateTime": 1520108603513}, {"current_trial": 219, "trialdata": {"rt": -1, "trial_type": "single-stim", "stimulus": "<p id=\"stim\">9</p>", "internal_node_id": "0.0-155.0-1.0", "time_elapsed": 1208939, "key_press": -1, "trial_index": 219}, "uniqueid": "MTK3151:39L1G8WVWRY04L5RO4LNCY1MHNC13C", "dateTime": 1520108604517}, {"current_trial": 220, "trialdata": {"rt": -1, "trial_type": "single-stim", "stimulus": "<p id=\"stim\">8</p>", "internal_node_id": "0.0-155.0-2.0", "time_elapsed": 1209940, "key_press": -1, "trial_index": 220}, "uniqueid": "MTK3151:39L1G8WVWRY04L5RO4LNCY1MHNC13C", "dateTime": 1520108605518}, {"current_trial": 221, "trialdata": {"rt": -1, "trial_type": "single-stim", "stimulus": "<p id=\"stim\">7</p>", "internal_node_id": "0.0-155.0-3.0", "time_elapsed": 1210942, "key_press": -1, "trial_index": 221}, "uniqueid": "MTK3151:39L1G8WVWRY04L5RO4LNCY1MHNC13C", "dateTime": 1520108606520}, {"current_trial": 222, "trialdata": {"rt": -1, "trial_type": "single-stim", "stimulus": "<p id=\"stim\">6</p>", "internal_node_id": "0.0-155.0-4.0", "time_elapsed": 1211943, "key_press": -1, "trial_index": 222}, "uniqueid": "MTK3151:39L1G8WVWRY04L5RO4LNCY1MHNC13C", "dateTime": 1520108607521}, {"current_trial": 223, "trialdata": {"rt": -1, "trial_type": "single-stim", "stimulus": "<p id=\"stim\">5</p>", "internal_node_id": "0.0-155.0-5.0", "time_elapsed": 1212948, "key_press": -1, "trial_index": 223}, "uniqueid": "MTK3151:39L1G8WVWRY04L5RO4LNCY1MHNC13C", "dateTime": 1520108608526}, {"current_trial": 224, "trialdata": {"rt": -1, "trial_type": "single-stim", "stimulus": "<p id=\"stim\">4</p>", "internal_node_id": "0.0-155.0-6.0", "time_elapsed": 1213951, "key_press": -1, "trial_index": 224}, "uniqueid": "MTK3151:39L1G8WVWRY04L5RO4LNCY1MHNC13C", "dateTime": 1520108609529}, {"current_trial": 225, "trialdata": {"rt": -1, "trial_type": "single-stim", "stimulus": "<p id=\"stim\">3</p>", "internal_node_id": "0.0-155.0-7.0", "time_elapsed": 1214955, "key_press": -1, "trial_index": 225}, "uniqueid": "MTK3151:39L1G8WVWRY04L5RO4LNCY1MHNC13C", "dateTime": 1520108610533}, {"current_trial": 226, "trialdata": {"rt": -1, "trial_type": "single-stim", "stimulus": "<p id=\"stim\">2</p>", "internal_node_id": "0.0-155.0-8.0", "time_elapsed": 1215957, "key_press": -1, "trial_index": 226}, "uniqueid": "MTK3151:39L1G8WVWRY04L5RO4LNCY1MHNC13C", "dateTime": 1520108611535}, {"current_trial": 227, "trialdata": {"rt": -1, "trial_type": "single-stim", "stimulus": "<p id=\"stim\">1</p>", "internal_node_id": "0.0-155.0-9.0", "time_elapsed": 1216959, "key_press": -1, "trial_index": 227}, "uniqueid": "MTK3151:39L1G8WVWRY04L5RO4LNCY1MHNC13C", "dateTime": 1520108612537}, {"current_trial": 228, "trialdata": {"rt": -1, "trial_type": "single-stim", "stimulus": "<p id=\"stim\">+</p>", "internal_node_id": "0.0-156.0-0.0", "time_elapsed": 1218460, "key_press": -1, "type": "FIXATION", "trial_index": 228}, "uniqueid": "MTK3151:39L1G8WVWRY04L5RO4LNCY1MHNC13C", "dateTime": 1520108614038}, {"current_trial": 229, "trialdata": {"rt": -1000, "trial_type": "single-audio", "word": "forest", "stimulus": "/static/audio/wordpool/FOREST.wav", "conditions": [24, 800, "a", 12000], "internal_node_id": "0.0-157.0", "trial": 7, "time_elapsed": 1220232, "serialpos": 0, "key_press": -1, "wordID": 592, "type": "PRES_AUD", "trial_index": 229}, "uniqueid": "MTK3151:39L1G8WVWRY04L5RO4LNCY1MHNC13C", "dateTime": 1520108615810}, {"current_trial": 230, "trialdata": {"rt": -1000, "trial_type": "single-audio", "word": "flower", "stimulus": "/static/audio/wordpool/FLOWER.wav", "conditions": [24, 800, "a", 12000], "internal_node_id": "0.0-158.0", "trial": 7, "time_elapsed": 1221870, "serialpos": 1, "key_press": -1, "wordID": 583, "type": "PRES_AUD", "trial_index": 230}, "uniqueid": "MTK3151:39L1G8WVWRY04L5RO4LNCY1MHNC13C", "dateTime": 1520108617449}, {"current_trial": 231, "trialdata": {"rt": -1000, "trial_type": "single-audio", "word": "bison", "stimulus": "/static/audio/wordpool/BISON.wav", "conditions": [24, 800, "a", 12000], "internal_node_id": "0.0-159.0", "trial": 7, "time_elapsed": 1223478, "serialpos": 2, "key_press": -1, "wordID": 130, "type": "PRES_AUD", "trial_index": 231}, "uniqueid": "MTK3151:39L1G8WVWRY04L5RO4LNCY1MHNC13C", "dateTime": 1520108619056}, {"current_trial": 232, "trialdata": {"rt": -1000, "trial_type": "single-audio", "word": "cattle", "stimulus": "/static/audio/wordpool/CATTLE.wav", "conditions": [24, 800, "a", 12000], "internal_node_id": "0.0-160.0", "trial": 7, "time_elapsed": 1225335, "serialpos": 3, "key_press": -1, "wordID": 260, "type": "PRES_AUD", "trial_index": 232}, "uniqueid": "MTK3151:39L1G8WVWRY04L5RO4LNCY1MHNC13C", "dateTime": 1520108620913}, {"current_trial": 233, "trialdata": {"rt": -1000, "trial_type": "single-audio", "word": "lodge", "stimulus": "/static/audio/wordpool/LODGE.wav", "conditions": [24, 800, "a", 12000], "internal_node_id": "0.0-161.0", "trial": 7, "time_elapsed": 1227155, "serialpos": 4, "key_press": -1, "wordID": 838, "type": "PRES_AUD", "trial_index": 233}, "uniqueid": "MTK3151:39L1G8WVWRY04L5RO4LNCY1MHNC13C", "dateTime": 1520108622733}, {"current_trial": 234, "trialdata": {"rt": -1000, "trial_type": "single-audio", "word": "omelet", "stimulus": "/static/audio/wordpool/OMELET.wav", "conditions": [24, 800, "a", 12000], "internal_node_id": "0.0-162.0", "trial": 7, "time_elapsed": 1229050, "serialpos": 5, "key_press": -1, "wordID": 975, "type": "PRES_AUD", "trial_index": 234}, "uniqueid": "MTK3151:39L1G8WVWRY04L5RO4LNCY1MHNC13C", "dateTime": 1520108624628}, {"current_trial": 235, "trialdata": {"rt": -1000, "trial_type": "single-audio", "word": "sunset", "stimulus": "/static/audio/wordpool/SUNSET.wav", "conditions": [24, 800, "a", 12000], "internal_node_id": "0.0-163.0", "trial": 7, "time_elapsed": 1230942, "serialpos": 6, "key_press": -1, "wordID": 1407, "type": "PRES_AUD", "trial_index": 235}, "uniqueid": "MTK3151:39L1G8WVWRY04L5RO4LNCY1MHNC13C", "dateTime": 1520108626520}, {"current_trial": 236, "trialdata": {"rt": -1000, "trial_type": "single-audio", "word": "skillet", "stimulus": "/static/audio/wordpool/SKILLET.wav", "conditions": [24, 800, "a", 12000], "internal_node_id": "0.0-164.0", "trial": 7, "time_elapsed": 1232662, "serialpos": 7, "key_press": -1, "wordID": 1316, "type": "PRES_AUD", "trial_index": 236}, "uniqueid": "MTK3151:39L1G8WVWRY04L5RO4LNCY1MHNC13C", "dateTime": 1520108628241}, {"current_trial": 237, "trialdata": {"rt": -1000, "trial_type": "single-audio", "word": "japan", "stimulus": "/static/audio/wordpool/JAPAN.wav", "conditions": [24, 800, "a", 12000], "internal_node_id": "0.0-165.0", "trial": 7, "time_elapsed": 1234447, "serialpos": 8, "key_press": -1, "wordID": 748, "type": "PRES_AUD", "trial_index": 237}, "uniqueid": "MTK3151:39L1G8WVWRY04L5RO4LNCY1MHNC13C", "dateTime": 1520108630025}, {"current_trial": 238, "trialdata": {"rt": -1000, "trial_type": "single-audio", "word": "briefcase", "stimulus": "/static/audio/wordpool/BRIEFCASE.wav", "conditions": [24, 800, "a", 12000], "internal_node_id": "0.0-166.0", "trial": 7, "time_elapsed": 1236260, "serialpos": 9, "key_press": -1, "wordID": 174, "type": "PRES_AUD", "trial_index": 238}, "uniqueid": "MTK3151:39L1G8WVWRY04L5RO4LNCY1MHNC13C", "dateTime": 1520108631838}, {"current_trial": 239, "trialdata": {"rt": -1000, "trial_type": "single-audio", "word": "icing", "stimulus": "/static/audio/wordpool/ICING.wav", "conditions": [24, 800, "a", 12000], "internal_node_id": "0.0-167.0", "trial": 7, "time_elapsed": 1237928, "serialpos": 10, "key_press": -1, "wordID": 731, "type": "PRES_AUD", "trial_index": 239}, "uniqueid": "MTK3151:39L1G8WVWRY04L5RO4LNCY1MHNC13C", "dateTime": 1520108633506}, {"current_trial": 240, "trialdata": {"rt": -1000, "trial_type": "single-audio", "word": "spoon", "stimulus": "/static/audio/wordpool/SPOON.wav", "conditions": [24, 800, "a", 12000], "internal_node_id": "0.0-168.0", "trial": 7, "time_elapsed": 1239894, "serialpos": 11, "key_press": -1, "wordID": 1356, "type": "PRES_AUD", "trial_index": 240}, "uniqueid": "MTK3151:39L1G8WVWRY04L5RO4LNCY1MHNC13C", "dateTime": 1520108635473}, {"current_trial": 241, "trialdata": {"rt": -1000, "trial_type": "single-audio", "word": "costume", "stimulus": "/static/audio/wordpool/COSTUME.wav", "conditions": [24, 800, "a", 12000], "internal_node_id": "0.0-169.0", "trial": 7, "time_elapsed": 1241748, "serialpos": 12, "key_press": -1, "wordID": 382, "type": "PRES_AUD", "trial_index": 241}, "uniqueid": "MTK3151:39L1G8WVWRY04L5RO4LNCY1MHNC13C", "dateTime": 1520108637326}, {"current_trial": 242, "trialdata": {"rt": -1000, "trial_type": "single-audio", "word": "scarecrow", "stimulus": "/static/audio/wordpool/SCARECROW.wav", "conditions": [24, 800, "a", 12000], "internal_node_id": "0.0-170.0", "trial": 7, "time_elapsed": 1243609, "serialpos": 13, "key_press": -1, "wordID": 1244, "type": "PRES_AUD", "trial_index": 242}, "uniqueid": "MTK3151:39L1G8WVWRY04L5RO4LNCY1MHNC13C", "dateTime": 1520108639187}, {"current_trial": 243, "trialdata": {"rt": -1000, "trial_type": "single-audio", "word": "neutron", "stimulus": "/static/audio/wordpool/NEUTRON.wav", "conditions": [24, 800, "a", 12000], "internal_node_id": "0.0-171.0", "trial": 7, "time_elapsed": 1245246, "serialpos": 14, "key_press": -1, "wordID": 946, "type": "PRES_AUD", "trial_index": 243}, "uniqueid": "MTK3151:39L1G8WVWRY04L5RO4LNCY1MHNC13C", "dateTime": 1520108640824}, {"current_trial": 244, "trialdata": {"rt": -1000, "trial_type": "single-audio", "word": "mister", "stimulus": "/static/audio/wordpool/MISTER.wav", "conditions": [24, 800, "a", 12000], "internal_node_id": "0.0-172.0", "trial": 7, "time_elapsed": 1247211, "serialpos": 15, "key_press": -1, "wordID": 900, "type": "PRES_AUD", "trial_index": 244}, "uniqueid": "MTK3151:39L1G8WVWRY04L5RO4LNCY1MHNC13C", "dateTime": 1520108642789}, {"current_trial": 245, "trialdata": {"rt": -1000, "trial_type": "single-audio", "word": "raft", "stimulus": "/static/audio/wordpool/RAFT.wav", "conditions": [24, 800, "a", 12000], "internal_node_id": "0.0-173.0", "trial": 7, "time_elapsed": 1249196, "serialpos": 16, "key_press": -1, "wordID": 1158, "type": "PRES_AUD", "trial_index": 245}, "uniqueid": "MTK3151:39L1G8WVWRY04L5RO4LNCY1MHNC13C", "dateTime": 1520108644774}, {"current_trial": 246, "trialdata": {"rt": -1000, "trial_type": "single-audio", "word": "liver", "stimulus": "/static/audio/wordpool/LIVER.wav", "conditions": [24, 800, "a", 12000], "internal_node_id": "0.0-174.0", "trial": 7, "time_elapsed": 1251174, "serialpos": 17, "key_press": -1, "wordID": 832, "type": "PRES_AUD", "trial_index": 246}, "uniqueid": "MTK3151:39L1G8WVWRY04L5RO4LNCY1MHNC13C", "dateTime": 1520108646752}, {"current_trial": 247, "trialdata": {"rt": -1000, "trial_type": "single-audio", "word": "truck", "stimulus": "/static/audio/wordpool/TRUCK.wav", "conditions": [24, 800, "a", 12000], "internal_node_id": "0.0-175.0", "trial": 7, "time_elapsed": 1252789, "serialpos": 18, "key_press": -1, "wordID": 1511, "type": "PRES_AUD", "trial_index": 247}, "uniqueid": "MTK3151:39L1G8WVWRY04L5RO4LNCY1MHNC13C", "dateTime": 1520108648367}, {"current_trial": 248, "trialdata": {"rt": -1000, "trial_type": "single-audio", "word": "custard", "stimulus": "/static/audio/wordpool/CUSTARD.wav", "conditions": [24, 800, "a", 12000], "internal_node_id": "0.0-176.0", "trial": 7, "time_elapsed": 1254412, "serialpos": 19, "key_press": -1, "wordID": 428, "type": "PRES_AUD", "trial_index": 248}, "uniqueid": "MTK3151:39L1G8WVWRY04L5RO4LNCY1MHNC13C", "dateTime": 1520108649990}, {"current_trial": 249, "trialdata": {"rt": -1000, "trial_type": "single-audio", "word": "peanut", "stimulus": "/static/audio/wordpool/PEANUT.wav", "conditions": [24, 800, "a", 12000], "internal_node_id": "0.0-177.0", "trial": 7, "time_elapsed": 1256223, "serialpos": 20, "key_press": -1, "wordID": 1031, "type": "PRES_AUD", "trial_index": 249}, "uniqueid": "MTK3151:39L1G8WVWRY04L5RO4LNCY1MHNC13C", "dateTime": 1520108651801}, {"current_trial": 250, "trialdata": {"rt": -1000, "trial_type": "single-audio", "word": "pilot", "stimulus": "/static/audio/wordpool/PILOT.wav", "conditions": [24, 800, "a", 12000], "internal_node_id": "0.0-178.0", "trial": 7, "time_elapsed": 1258111, "serialpos": 21, "key_press": -1, "wordID": 1069, "type": "PRES_AUD", "trial_index": 250}, "uniqueid": "MTK3151:39L1G8WVWRY04L5RO4LNCY1MHNC13C", "dateTime": 1520108653689}, {"current_trial": 251, "trialdata": {"rt": -1000, "trial_type": "single-audio", "word": "stream", "stimulus": "/static/audio/wordpool/STREAM.wav", "conditions": [24, 800, "a", 12000], "internal_node_id": "0.0-179.0", "trial": 7, "time_elapsed": 1260083, "serialpos": 22, "key_press": -1, "wordID": 1391, "type": "PRES_AUD", "trial_index": 251}, "uniqueid": "MTK3151:39L1G8WVWRY04L5RO4LNCY1MHNC13C", "dateTime": 1520108655661}, {"current_trial": 252, "trialdata": {"rt": -1000, "trial_type": "single-audio", "word": "tractor", "stimulus": "/static/audio/wordpool/TRACTOR.wav", "conditions": [24, 800, "a", 12000], "internal_node_id": "0.0-180.0", "trial": 7, "time_elapsed": 1261830, "serialpos": 23, "key_press": -1, "wordID": 1492, "type": "PRES_AUD", "trial_index": 252}, "uniqueid": "MTK3151:39L1G8WVWRY04L5RO4LNCY1MHNC13C", "dateTime": 1520108657409}, {"current_trial": 253, "trialdata": {"rt": -1, "trial_type": "single-stim", "stimulus": "", "internal_node_id": "0.0-181.0-0.0", "time_elapsed": 1263036, "key_press": -1, "type": "PRE_RECALL_DELAY", "trial_index": 253}, "uniqueid": "MTK3151:39L1G8WVWRY04L5RO4LNCY1MHNC13C", "dateTime": 1520108658614}, {"current_trial": 254, "trialdata": {"rt": -1000, "trial_type": "single-audio", "stimulus": "/static/audio/400Hz.wav", "internal_node_id": "0.0-182.0", "time_elapsed": 1263538, "key_press": -1, "type": "PRE_RECALL_ALERT", "trial_index": 254}, "uniqueid": "MTK3151:39L1G8WVWRY04L5RO4LNCY1MHNC13C", "dateTim