{"assignmentId": "3VFJCI1K406PR2GWHD7M1J88Q1ORG6", "workerId": "MTK3364", "questiondata": {"origin": "United States", "strat-rehearsal": "38", "marital": "Married/Domestic Partnership", "education": "Some college", "ethnicity": "Not Hispanic", "color_depth": 24, "distracted": "No", "wrote-notes": "No", "strat-other": "", "screen_width": 1093, "avail_screen_width": 1093, "avail_screen_height": 575, "strat-image": "62", "language": "English", "gender": "Female", "age": "54", "gender_other": "", "race": ["Black"], "strat-categorize": "84", "pixel_depth": 24, "strat-spatial": "89", "strat-story": "33", "race_other": "", "screen_height": 615}, "bonus": 0, "hitId": "3IVKZBIBJ0GD5TDQQ6K7N9TL60KHSH", "counterbalance": 1136, "useragent": "Mozilla/5.0 (Windows NT 10.0; Win64; x64) AppleWebKit/537.36 (KHTML, like Gecko) Chrome/64.0.3282.186 Safari/537.36", "eventdata": [{"eventtype": "initialized", "interval": 0, "value": null, "timestamp": 1520452511085}, {"eventtype": "window_resize", "interval": 0, "value": [1096, 567], "timestamp": 1520452511085}, {"eventtype": "focus", "interval": 7083, "value": "off", "timestamp": 1520452518168}, {"eventtype": "focus", "interval": 8814, "value": "on", "timestamp": 1520452526982}, {"eventtype": "focus", "interval": 5608, "value": "off", "timestamp": 1520452532590}, {"eventtype": "focus", "interval": 28496, "value": "on", "timestamp": 1520452561086}, {"eventtype": "window_resize", "interval": 88965, "value": [1218, 630], "timestamp": 1520452650051}, {"eventtype": "window_resize", "interval": 16653, "value": [1370, 709], "timestamp": 1520452666704}], "data": [{"current_trial": 0, "trialdata": {"rt": 2459, "trial_type": "text", "internal_node_id": "0.0-0.0", "time_elapsed": 2473, "key_press": 18, "type": "INSTRUCTIONS", "trial_index": 0}, "uniqueid": "MTK3364:3VFJCI1K406PR2GWHD7M1J88Q1ORG6", "dateTime": 1520452517870}, {"current_trial": 1, "trialdata": {"rt": 60122, "trial_type": "text", "internal_node_id": "0.0-1.0", "time_elapsed": 62605, "key_press": 32, "type": "INSTRUCTIONS", "trial_index": 1}, "uniqueid": "MTK3364:3VFJCI1K406PR2GWHD7M1J88Q1ORG6", "dateTime": 1520452578000}, {"current_trial": 2, "trialdata": {"rt": [17143], "trial_type": "audio-test", "responses": ["ocean"], "internal_node_id": "0.0-2.0", "time_elapsed": 79873, "type": "AUDIO_TEST", "trial_index": 2}, "uniqueid": "MTK3364:3VFJCI1K406PR2GWHD7M1J88Q1ORG6", "dateTime": 1520452595267}, {"current_trial": 3, "trialdata": {"rt": [13809], "trial_type": "audio-test", "responses": ["crystal"], "internal_node_id": "0.0-3.0", "time_elapsed": 93704, "type": "AUDIO_TEST", "trial_index": 3}, "uniqueid": "MTK3364:3VFJCI1K406PR2GWHD7M1J88Q1ORG6", "dateTime": 1520452609097}, {"current_trial": 4, "trialdata": {"rt": [17610], "trial_type": "audio-test", "responses": ["spice"], "internal_node_id": "0.0-4.0", "time_elapsed": 111334, "type": "AUDIO_TEST", "trial_index": 4}, "uniqueid": "MTK3364:3VFJCI1K406PR2GWHD7M1J88Q1ORG6", "dateTime": 1520452626728}, {"current_trial": 5, "trialdata": {"rt": 41368, "trial_type": "survey-text", "responses": "{\"Q0\":\"10\",\"Q1\":\"8\",\"Q2\":\"5 \"}", "internal_node_id": "0.0-5.0", "time_elapsed": 153467, "type": "SLEEP_SURVEY", "trial_index": 5}, "uniqueid": "MTK3364:3VFJCI1K406PR2GWHD7M1J88Q1ORG6", "dateTime": 1520452668860}, {"current_trial": 6, "trialdata": {"rt": 48312, "trial_type": "text", "internal_node_id": "0.0-6.0", "time_elapsed": 202808, "key_press": 17, "type": "INSTRUCTIONS", "trial_index": 6}, "uniqueid": "MTK3364:3VFJCI1K406PR2GWHD7M1J88Q1ORG6", "dateTime": 1520452718202}, {"current_trial": 7, "trialdata": {"rt": 18725, "trial_type": "text", "internal_node_id": "0.0-7.0", "time_elapsed": 222038, "key_press": 32, "type": "INSTRUCTIONS", "trial_index": 7}, "uniqueid": "MTK3364:3VFJCI1K406PR2GWHD7M1J88Q1ORG6", "dateTime": 1520452737431}, {"current_trial": 8, "trialdata": {"rt": 20077, "trial_type": "text", "internal_node_id": "0.0-8.0", "time_elapsed": 242619, "key_press": 32, "type": "INSTRUCTIONS", "trial_index": 8}, "uniqueid": "MTK3364:3VFJCI1K406PR2GWHD7M1J88Q1ORG6", "dateTime": 1520452758013}, {"current_trial": 9, "trialdata": {"rt": [3174, 5642, 9032, 11127, 14149, 15813], "trial_type": "math-distractor", "key_times": [2318, 2542, 3174, 5164, 5388, 5642, 8613, 8794, 9032, 10481, 10604, 11127, 13388, 13569, 14149, 15280, 15364, 15813, 17433, 17555], "responses": ["15", "16", "22", "10", "15", "18"], "num2": [1, 9, 9, 4, 7, 5, 3], "num3": [7, 5, 9, 3, 6, 8, 7], "conditions": [18, 1200, "v", 18000], "internal_node_id": "0.0-9.0", "key_presses": [49, 53, 13, 49, 54, 13, 50, 50, 13, 49, 48, 13, 49, 53, 13, 49, 56, 13, 49, 56], "trial": 0, "time_elapsed": 261654, "type": "DISTRACTOR", "trial_index": 9, "num1": [7, 2, 4, 3, 2, 5, 8]}, "uniqueid": "MTK3364:3VFJCI1K406PR2GWHD7M1J88Q1ORG6", "dateTime": 1520452777047}, {"current_trial": 10, "trialdata": {"rt": -1, "trial_type": "single-stim", "stimulus": "<p id=\"stim\">10</p>", "internal_node_id": "0.0-10.0-0.0", "time_elapsed": 264674, "key_press": -1, "trial_index": 10}, "uniqueid": "MTK3364:3VFJCI1K406PR2GWHD7M1J88Q1ORG6", "dateTime": 1520452780069}, {"current_trial": 11, "trialdata": {"rt": -1, "trial_type": "single-stim", "stimulus": "<p id=\"stim\">9</p>", "internal_node_id": "0.0-10.0-1.0", "time_elapsed": 265686, "key_press": -1, "trial_index": 11}, "uniqueid": "MTK3364:3VFJCI1K406PR2GWHD7M1J88Q1ORG6", "dateTime": 1520452781079}, {"current_trial": 12, "trialdata": {"rt": -1, "trial_type": "single-stim", "stimulus": "<p id=\"stim\">8</p>", "internal_node_id": "0.0-10.0-2.0", "time_elapsed": 266690, "key_press": -1, "trial_index": 12}, "uniqueid": "MTK3364:3VFJCI1K406PR2GWHD7M1J88Q1ORG6", "dateTime": 1520452782083}, {"current_trial": 13, "trialdata": {"rt": -1, "trial_type": "single-stim", "stimulus": "<p id=\"stim\">7</p>", "internal_node_id": "0.0-10.0-3.0", "time_elapsed": 267703, "key_press": -1, "trial_index": 13}, "uniqueid": "MTK3364:3VFJCI1K406PR2GWHD7M1J88Q1ORG6", "dateTime": 1520452783096}, {"current_trial": 14, "trialdata": {"rt": -1, "trial_type": "single-stim", "stimulus": "<p id=\"stim\">6</p>", "internal_node_id": "0.0-10.0-4.0", "time_elapsed": 268708, "key_press": -1, "trial_index": 14}, "uniqueid": "MTK3364:3VFJCI1K406PR2GWHD7M1J88Q1ORG6", "dateTime": 1520452784101}, {"current_trial": 15, "trialdata": {"rt": -1, "trial_type": "single-stim", "stimulus": "<p id=\"stim\">5</p>", "internal_node_id": "0.0-10.0-5.0", "time_elapsed": 269715, "key_press": -1, "trial_index": 15}, "uniqueid": "MTK3364:3VFJCI1K406PR2GWHD7M1J88Q1ORG6", "dateTime": 1520452785108}, {"current_trial": 16, "trialdata": {"rt": -1, "trial_type": "single-stim", "stimulus": "<p id=\"stim\">4</p>", "internal_node_id": "0.0-10.0-6.0", "time_elapsed": 270719, "key_press": -1, "trial_index": 16}, "uniqueid": "MTK3364:3VFJCI1K406PR2GWHD7M1J88Q1ORG6", "dateTime": 1520452786112}, {"current_trial": 17, "trialdata": {"rt": -1, "trial_type": "single-stim", "stimulus": "<p id=\"stim\">3</p>", "internal_node_id": "0.0-10.0-7.0", "time_elapsed": 271726, "key_press": -1, "trial_index": 17}, "uniqueid": "MTK3364:3VFJCI1K406PR2GWHD7M1J88Q1ORG6", "dateTime": 1520452787119}, {"current_trial": 18, "trialdata": {"rt": -1, "trial_type": "single-stim", "stimulus": "<p id=\"stim\">2</p>", "internal_node_id": "0.0-10.0-8.0", "time_elapsed": 272768, "key_press": -1, "trial_index": 18}, "uniqueid": "MTK3364:3VFJCI1K406PR2GWHD7M1J88Q1ORG6", "dateTime": 1520452788161}, {"current_trial": 19, "trialdata": {"rt": -1, "trial_type": "single-stim", "stimulus": "<p id=\"stim\">1</p>", "internal_node_id": "0.0-10.0-9.0", "time_elapsed": 273774, "key_press": -1, "trial_index": 19}, "uniqueid": "MTK3364:3VFJCI1K406PR2GWHD7M1J88Q1ORG6", "dateTime": 1520452789167}, {"current_trial": 20, "trialdata": {"rt": -1, "trial_type": "single-stim", "stimulus": "<p id=\"stim\">+</p>", "internal_node_id": "0.0-11.0-0.0", "time_elapsed": 275277, "key_press": -1, "type": "FIXATION", "trial_index": 20}, "uniqueid": "MTK3364:3VFJCI1K406PR2GWHD7M1J88Q1ORG6", "dateTime": 1520452790670}, {"current_trial": 21, "trialdata": {"rt": -1, "trial_type": "single-stim", "word": "tombstone", "stimulus": "<p id=\"stim\">TOMBSTONE</p>", "conditions": [18, 1200, "v", 18000], "internal_node_id": "0.0-12.0", "trial": 0, "time_elapsed": 276480, "serialpos": 0, "key_press": -1, "wordID": 1477, "type": "PRES_VIS", "trial_index": 21}, "uniqueid": "MTK3364:3VFJCI1K406PR2GWHD7M1J88Q1ORG6", "dateTime": 1520452791873}, {"current_trial": 22, "trialdata": {"rt": -1, "trial_type": "single-stim", "word": "jungle", "stimulus": "<p id=\"stim\">JUNGLE</p>", "conditions": [18, 1200, "v", 18000], "internal_node_id": "0.0-13.0", "trial": 0, "time_elapsed": 278609, "serialpos": 1, "key_press": -1, "wordID": 763, "type": "PRES_VIS", "trial_index": 22}, "uniqueid": "MTK3364:3VFJCI1K406PR2GWHD7M1J88Q1ORG6", "dateTime": 1520452794006}, {"current_trial": 23, "trialdata": {"rt": -1, "trial_type": "single-stim", "word": "queen", "stimulus": "<p id=\"stim\">QUEEN</p>", "conditions": [18, 1200, "v", 18000], "internal_node_id": "0.0-14.0", "trial": 0, "time_elapsed": 280791, "serialpos": 2, "key_press": -1, "wordID": 1148, "type": "PRES_VIS", "trial_index": 23}, "uniqueid": "MTK3364:3VFJCI1K406PR2GWHD7M1J88Q1ORG6", "dateTime": 1520452796185}, {"current_trial": 24, "trialdata": {"rt": -1, "trial_type": "single-stim", "word": "tablet", "stimulus": "<p id=\"stim\">TABLET</p>", "conditions": [18, 1200, "v", 18000], "internal_node_id": "0.0-15.0", "trial": 0, "time_elapsed": 283126, "serialpos": 3, "key_press": -1, "wordID": 1426, "type": "PRES_VIS", "trial_index": 24}, "uniqueid": "MTK3364:3VFJCI1K406PR2GWHD7M1J88Q1ORG6", "dateTime": 1520452798519}, {"current_trial": 25, "trialdata": {"rt": -1, "trial_type": "single-stim", "word": "diner", "stimulus": "<p id=\"stim\">DINER</p>", "conditions": [18, 1200, "v", 18000], "internal_node_id": "0.0-16.0", "trial": 0, "time_elapsed": 285331, "serialpos": 4, "key_press": -1, "wordID": 466, "type": "PRES_VIS", "trial_index": 25}, "uniqueid": "MTK3364:3VFJCI1K406PR2GWHD7M1J88Q1ORG6", "dateTime": 1520452800724}, {"current_trial": 26, "trialdata": {"rt": -1, "trial_type": "single-stim", "word": "wasp", "stimulus": "<p id=\"stim\">WASP</p>", "conditions": [18, 1200, "v", 18000], "internal_node_id": "0.0-17.0", "trial": 0, "time_elapsed": 287734, "serialpos": 5, "key_press": -1, "wordID": 1592, "type": "PRES_VIS", "trial_index": 26}, "uniqueid": "MTK3364:3VFJCI1K406PR2GWHD7M1J88Q1ORG6", "dateTime": 1520452803128}, {"current_trial": 27, "trialdata": {"rt": -1, "trial_type": "single-stim", "word": "banquet", "stimulus": "<p id=\"stim\">BANQUET</p>", "conditions": [18, 1200, "v", 18000], "internal_node_id": "0.0-18.0", "trial": 0, "time_elapsed": 289748, "serialpos": 6, "key_press": -1, "wordID": 85, "type": "PRES_VIS", "trial_index": 27}, "uniqueid": "MTK3364:3VFJCI1K406PR2GWHD7M1J88Q1ORG6", "dateTime": 1520452805141}, {"current_trial": 28, "trialdata": {"rt": -1, "trial_type": "single-stim", "word": "witness", "stimulus": "<p id=\"stim\">WITNESS</p>", "conditions": [18, 1200, "v", 18000], "internal_node_id": "0.0-19.0", "trial": 0, "time_elapsed": 292010, "serialpos": 7, "key_press": -1, "wordID": 1617, "type": "PRES_VIS", "trial_index": 28}, "uniqueid": "MTK3364:3VFJCI1K406PR2GWHD7M1J88Q1ORG6", "dateTime": 1520452807405}, {"current_trial": 29, "trialdata": {"rt": -1, "trial_type": "single-stim", "word": "handbag", "stimulus": "<p id=\"stim\">HANDBAG</p>", "conditions": [18, 1200, "v", 18000], "internal_node_id": "0.0-20.0", "trial": 0, "time_elapsed": 294253, "serialpos": 8, "key_press": -1, "wordID": 683, "type": "PRES_VIS", "trial_index": 29}, "uniqueid": "MTK3364:3VFJCI1K406PR2GWHD7M1J88Q1ORG6", "dateTime": 1520452809648}, {"current_trial": 30, "trialdata": {"rt": -1, "trial_type": "single-stim", "word": "sponge", "stimulus": "<p id=\"stim\">SPONGE</p>", "conditions": [18, 1200, "v", 18000], "internal_node_id": "0.0-21.0", "trial": 0, "time_elapsed": 296298, "serialpos": 9, "key_press": -1, "wordID": 1354, "type": "PRES_VIS", "trial_index": 30}, "uniqueid": "MTK3364:3VFJCI1K406PR2GWHD7M1J88Q1ORG6", "dateTime": 1520452811691}, {"current_trial": 31, "trialdata": {"rt": -1, "trial_type": "single-stim", "word": "cupboard", "stimulus": "<p id=\"stim\">CUPBOARD</p>", "conditions": [18, 1200, "v", 18000], "internal_node_id": "0.0-22.0", "trial": 0, "time_elapsed": 298574, "serialpos": 10, "key_press": -1, "wordID": 424, "type": "PRES_VIS", "trial_index": 31}, "uniqueid": "MTK3364:3VFJCI1K406PR2GWHD7M1J88Q1ORG6", "dateTime": 1520452813967}, {"current_trial": 32, "trialdata": {"rt": -1, "trial_type": "single-stim", "word": "shelter", "stimulus": "<p id=\"stim\">SHELTER</p>", "conditions": [18, 1200, "v", 18000], "internal_node_id": "0.0-23.0", "trial": 0, "time_elapsed": 300976, "serialpos": 11, "key_press": -1, "wordID": 1281, "type": "PRES_VIS", "trial_index": 32}, "uniqueid": "MTK3364:3VFJCI1K406PR2GWHD7M1J88Q1ORG6", "dateTime": 1520452816369}, {"current_trial": 33, "trialdata": {"rt": -1, "trial_type": "single-stim", "word": "donkey", "stimulus": "<p id=\"stim\">DONKEY</p>", "conditions": [18, 1200, "v", 18000], "internal_node_id": "0.0-24.0", "trial": 0, "time_elapsed": 303199, "serialpos": 12, "key_press": -1, "wordID": 483, "type": "PRES_VIS", "trial_index": 33}, "uniqueid": "MTK3364:3VFJCI1K406PR2GWHD7M1J88Q1ORG6", "dateTime": 1520452818593}, {"current_trial": 34, "trialdata": {"rt": -1, "trial_type": "single-stim", "word": "cowboy", "stimulus": "<p id=\"stim\">COWBOY</p>", "conditions": [18, 1200, "v", 18000], "internal_node_id": "0.0-25.0", "trial": 0, "time_elapsed": 305535, "serialpos": 13, "key_press": -1, "wordID": 394, "type": "PRES_VIS", "trial_index": 34}, "uniqueid": "MTK3364:3VFJCI1K406PR2GWHD7M1J88Q1ORG6", "dateTime": 1520452820929}, {"current_trial": 35, "trialdata": {"rt": -1, "trial_type": "single-stim", "word": "keeper", "stimulus": "<p id=\"stim\">KEEPER</p>", "conditions": [18, 1200, "v", 18000], "internal_node_id": "0.0-26.0", "trial": 0, "time_elapsed": 307836, "serialpos": 14, "key_press": -1, "wordID": 768, "type": "PRES_VIS", "trial_index": 35}, "uniqueid": "MTK3364:3VFJCI1K406PR2GWHD7M1J88Q1ORG6", "dateTime": 1520452823229}, {"current_trial": 36, "trialdata": {"rt": -1, "trial_type": "single-stim", "word": "blade", "stimulus": "<p id=\"stim\">BLADE</p>", "conditions": [18, 1200, "v", 18000], "internal_node_id": "0.0-27.0", "trial": 0, "time_elapsed": 309890, "serialpos": 15, "key_press": -1, "wordID": 133, "type": "PRES_VIS", "trial_index": 36}, "uniqueid": "MTK3364:3VFJCI1K406PR2GWHD7M1J88Q1ORG6", "dateTime": 1520452825284}, {"current_trial": 37, "trialdata": {"rt": -1, "trial_type": "single-stim", "word": "expert", "stimulus": "<p id=\"stim\">EXPERT</p>", "conditions": [18, 1200, "v", 18000], "internal_node_id": "0.0-28.0", "trial": 0, "time_elapsed": 312098, "serialpos": 16, "key_press": -1, "wordID": 542, "type": "PRES_VIS", "trial_index": 37}, "uniqueid": "MTK3364:3VFJCI1K406PR2GWHD7M1J88Q1ORG6", "dateTime": 1520452827492}, {"current_trial": 38, "trialdata": {"rt": -1, "trial_type": "single-stim", "word": "human", "stimulus": "<p id=\"stim\">HUMAN</p>", "conditions": [18, 1200, "v", 18000], "internal_node_id": "0.0-29.0", "trial": 0, "time_elapsed": 314196, "serialpos": 17, "key_press": -1, "wordID": 725, "type": "PRES_VIS", "trial_index": 38}, "uniqueid": "MTK3364:3VFJCI1K406PR2GWHD7M1J88Q1ORG6", "dateTime": 1520452829589}, {"current_trial": 39, "trialdata": {"rt": -1, "trial_type": "single-stim", "stimulus": "", "internal_node_id": "0.0-30.0-0.0", "time_elapsed": 316317, "key_press": -1, "type": "PRE_RECALL_DELAY", "trial_index": 39}, "uniqueid": "MTK3364:3VFJCI1K406PR2GWHD7M1J88Q1ORG6", "dateTime": 1520452831712}, {"current_trial": 40, "trialdata": {"rt": -1000, "trial_type": "single-audio", "stimulus": "/static/audio/400Hz.wav", "internal_node_id": "0.0-31.0", "time_elapsed": 316877, "key_press": -1, "type": "PRE_RECALL_ALERT", "trial_index": 40}, "uniqueid": "MTK3364:3VFJCI1K406PR2GWHD7M1J88Q1ORG6", "dateTime": 1520452832270}, {"current_trial": 41, "trialdata": {"rt": [5317, 8563, 11582, 13595, 16393, 20685, 22780, 28161, 33755, 37755], "recwords": ["human", "wasp", "cowboy", "keepter", "expert", "witness", "queen", "handbag", "sponge", "tombstone"], "key_times": [3657, 3857, 4165, 4689, 4798, 5317, 6645, 6863, 7051, 7207, 8563, 10072, 10165, 10391, 10789, 10919, 11156, 11582, 12162, 12348, 12573, 12743, 13006, 13250, 13466, 13595, 15090, 15369, 15517, 15731, 15909, 16116, 16393, 18777, 18895, 19120, 19672, 19953, 20255, 20434, 20685, 21890, 22035, 22228, 22423, 22524, 22780, 26537, 26716, 26842, 27017, 27305, 27521, 27701, 28161, 32330, 32466, 32684, 32845, 33112, 33449, 33755, 35331, 35445, 35621, 36292, 36818, 37183, 37295, 37413, 37524, 37755], "trial_type": "free-recall", "conditions": [18, 1200, "v", 18000], "internal_node_id": "0.0-32.0-0.0", "key_presses": [72, 85, 77, 65, 78, 13, 87, 65, 83, 80, 13, 67, 79, 87, 66, 79, 89, 13, 75, 69, 69, 80, 84, 69, 82, 13, 69, 88, 80, 69, 82, 84, 13, 87, 73, 84, 78, 69, 83, 83, 13, 81, 85, 69, 69, 78, 13, 72, 65, 78, 68, 66, 65, 71, 13, 83, 80, 79, 78, 71, 69, 13, 84, 79, 77, 66, 83, 84, 79, 78, 69, 13], "trial": 0, "time_elapsed": 376893, "type": "FREE_RECALL", "trial_index": 41}, "uniqueid": "MTK3364:3VFJCI1K406PR2GWHD7M1J88Q1ORG6", "dateTime": 1520452892316}, {"current_trial": 42, "trialdata": {"rt": 2423, "trial_type": "text", "internal_node_id": "0.0-33.0", "time_elapsed": 381354, "key_press": 32, "type": "INSTRUCTIONS", "trial_index": 42}, "uniqueid": "MTK3364:3VFJCI1K406PR2GWHD7M1J88Q1ORG6", "dateTime": 1520452896747}, {"current_trial": 43, "trialdata": {"rt": [4223, 7451, 9454, 12819, 14355, 16776], "trial_type": "math-distractor", "key_times": [3224, 3717, 4223, 5918, 6046, 7451, 9014, 9179, 9454, 11186, 11850, 12213, 12415, 12819, 13957, 14154, 14355, 16281, 16410, 16776], "responses": ["13", "10", "14", "16", "12", "10"], "num2": [5, 4, 3, 5, 4, 4, 7], "num3": [6, 3, 7, 5, 1, 4, 8], "conditions": [18, 1200, "v", 18000], "internal_node_id": "0.0-34.0", "key_presses": [49, 51, 13, 49, 48, 13, 49, 52, 13, 54, 8, 49, 54, 13, 49, 50, 13, 49, 48, 13], "trial": 1, "time_elapsed": 401373, "type": "DISTRACTOR", "trial_index": 43, "num1": [2, 3, 4, 6, 7, 2, 1]}, "uniqueid": "MTK3364:3VFJCI1K406PR2GWHD7M1J88Q1ORG6", "dateTime": 1520452916768}, {"current_trial": 44, "trialdata": {"rt": -1, "trial_type": "single-stim", "stimulus": "<p id=\"stim\">10</p>", "internal_node_id": "0.0-35.0-0.0", "time_elapsed": 404382, "key_press": -1, "trial_index": 44}, "uniqueid": "MTK3364:3VFJCI1K406PR2GWHD7M1J88Q1ORG6", "dateTime": 1520452919778}, {"current_trial": 45, "trialdata": {"rt": -1, "trial_type": "single-stim", "stimulus": "<p id=\"stim\">9</p>", "internal_node_id": "0.0-35.0-1.0", "time_elapsed": 405399, "key_press": -1, "trial_index": 45}, "uniqueid": "MTK3364:3VFJCI1K406PR2GWHD7M1J88Q1ORG6", "dateTime": 1520452920793}, {"current_trial": 46, "trialdata": {"rt": -1, "trial_type": "single-stim", "stimulus": "<p id=\"stim\">8</p>", "internal_node_id": "0.0-35.0-2.0", "time_elapsed": 406405, "key_press": -1, "trial_index": 46}, "uniqueid": "MTK3364:3VFJCI1K406PR2GWHD7M1J88Q1ORG6", "dateTime": 1520452921799}, {"current_trial": 47, "trialdata": {"rt": -1, "trial_type": "single-stim", "stimulus": "<p id=\"stim\">7</p>", "internal_node_id": "0.0-35.0-3.0", "time_elapsed": 407410, "key_press": -1, "trial_index": 47}, "uniqueid": "MTK3364:3VFJCI1K406PR2GWHD7M1J88Q1ORG6", "dateTime": 1520452922805}, {"current_trial": 48, "trialdata": {"rt": -1, "trial_type": "single-stim", "stimulus": "<p id=\"stim\">6</p>", "internal_node_id": "0.0-35.0-4.0", "time_elapsed": 408434, "key_press": -1, "trial_index": 48}, "uniqueid": "MTK3364:3VFJCI1K406PR2GWHD7M1J88Q1ORG6", "dateTime": 1520452923828}, {"current_trial": 49, "trialdata": {"rt": -1, "trial_type": "single-stim", "stimulus": "<p id=\"stim\">5</p>", "internal_node_id": "0.0-35.0-5.0", "time_elapsed": 409438, "key_press": -1, "trial_index": 49}, "uniqueid": "MTK3364:3VFJCI1K406PR2GWHD7M1J88Q1ORG6", "dateTime": 1520452924832}, {"current_trial": 50, "trialdata": {"rt": -1, "trial_type": "single-stim", "stimulus": "<p id=\"stim\">4</p>", "internal_node_id": "0.0-35.0-6.0", "time_elapsed": 410470, "key_press": -1, "trial_index": 50}, "uniqueid": "MTK3364:3VFJCI1K406PR2GWHD7M1J88Q1ORG6", "dateTime": 1520452925864}, {"current_trial": 51, "trialdata": {"rt": -1, "trial_type": "single-stim", "stimulus": "<p id=\"stim\">3</p>", "internal_node_id": "0.0-35.0-7.0", "time_elapsed": 411473, "key_press": -1, "trial_index": 51}, "uniqueid": "MTK3364:3VFJCI1K406PR2GWHD7M1J88Q1ORG6", "dateTime": 1520452926867}, {"current_trial": 52, "trialdata": {"rt": -1, "trial_type": "single-stim", "stimulus": "<p id=\"stim\">2</p>", "internal_node_id": "0.0-35.0-8.0", "time_elapsed": 412484, "key_press": -1, "trial_index": 52}, "uniqueid": "MTK3364:3VFJCI1K406PR2GWHD7M1J88Q1ORG6", "dateTime": 1520452927877}, {"current_trial": 53, "trialdata": {"rt": -1, "trial_type": "single-stim", "stimulus": "<p id=\"stim\">1</p>", "internal_node_id": "0.0-35.0-9.0", "time_elapsed": 413491, "key_press": -1, "trial_index": 53}, "uniqueid": "MTK3364:3VFJCI1K406PR2GWHD7M1J88Q1ORG6", "dateTime": 1520452928884}, {"current_trial": 54, "trialdata": {"rt": -1, "trial_type": "single-stim", "stimulus": "<p id=\"stim\">+</p>", "internal_node_id": "0.0-36.0-0.0", "time_elapsed": 414996, "key_press": -1, "type": "FIXATION", "trial_index": 54}, "uniqueid": "MTK3364:3VFJCI1K406PR2GWHD7M1J88Q1ORG6", "dateTime": 1520452930391}, {"current_trial": 55, "trialdata": {"rt": -1, "trial_type": "single-stim", "word": "luggage", "stimulus": "<p id=\"stim\">LUGGAGE</p>", "conditions": [18, 1200, "v", 18000], "internal_node_id": "0.0-37.0", "trial": 1, "time_elapsed": 416201, "serialpos": 0, "key_press": -1, "wordID": 846, "type": "PRES_VIS", "trial_index": 55}, "uniqueid": "MTK3364:3VFJCI1K406PR2GWHD7M1J88Q1ORG6", "dateTime": 1520452931595}, {"current_trial": 56, "trialdata": {"rt": -1, "trial_type": "single-stim", "word": "climber", "stimulus": "<p id=\"stim\">CLIMBER</p>", "conditions": [18, 1200, "v", 18000], "internal_node_id": "0.0-38.0", "trial": 1, "time_elapsed": 418546, "serialpos": 1, "key_press": -1, "wordID": 322, "type": "PRES_VIS", "trial_index": 56}, "uniqueid": "MTK3364:3VFJCI1K406PR2GWHD7M1J88Q1ORG6", "dateTime": 1520452933939}, {"current_trial": 57, "trialdata": {"rt": -1, "trial_type": "single-stim", "word": "eagle", "stimulus": "<p id=\"stim\">EAGLE</p>", "conditions": [18, 1200, "v", 18000], "internal_node_id": "0.0-39.0", "trial": 1, "time_elapsed": 420595, "serialpos": 2, "key_press": -1, "wordID": 511, "type": "PRES_VIS", "trial_index": 57}, "uniqueid": "MTK3364:3VFJCI1K406PR2GWHD7M1J88Q1ORG6", "dateTime": 1520452935989}, {"current_trial": 58, "trialdata": {"rt": -1, "trial_type": "single-stim", "word": "rooster", "stimulus": "<p id=\"stim\">ROOSTER</p>", "conditions": [18, 1200, "v", 18000], "internal_node_id": "0.0-40.0", "trial": 1, "time_elapsed": 422661, "serialpos": 3, "key_press": -1, "wordID": 1208, "type": "PRES_VIS", "trial_index": 58}, "uniqueid": "MTK3364:3VFJCI1K406PR2GWHD7M1J88Q1ORG6", "dateTime": 1520452938055}, {"current_trial": 59, "trialdata": {"rt": -1, "trial_type": "single-stim", "word": "shrub", "stimulus": "<p id=\"stim\">SHRUB</p>", "conditions": [18, 1200, "v", 18000], "internal_node_id": "0.0-41.0", "trial": 1, "time_elapsed": 424964, "serialpos": 4, "key_press": -1, "wordID": 1298, "type": "PRES_VIS", "trial_index": 59}, "uniqueid": "MTK3364:3VFJCI1K406PR2GWHD7M1J88Q1ORG6", "dateTime": 1520452940359}, {"current_trial": 60, "trialdata": {"rt": -1, "trial_type": "single-stim", "word": "river", "stimulus": "<p id=\"stim\">RIVER</p>", "conditions": [18, 1200, "v", 18000], "internal_node_id": "0.0-42.0", "trial": 1, "time_elapsed": 427167, "serialpos": 5, "key_press": -1, "wordID": 1193, "type": "PRES_VIS", "trial_index": 60}, "uniqueid": "MTK3364:3VFJCI1K406PR2GWHD7M1J88Q1ORG6", "dateTime": 1520452942561}, {"current_trial": 61, "trialdata": {"rt": -1, "trial_type": "single-stim", "word": "flute", "stimulus": "<p id=\"stim\">FLUTE</p>", "conditions": [18, 1200, "v", 18000], "internal_node_id": "0.0-43.0", "trial": 1, "time_elapsed": 429535, "serialpos": 6, "key_press": -1, "wordID": 584, "type": "PRES_VIS", "trial_index": 61}, "uniqueid": "MTK3364:3VFJCI1K406PR2GWHD7M1J88Q1ORG6", "dateTime": 1520452944929}, {"current_trial": 62, "trialdata": {"rt": -1, "trial_type": "single-stim", "word": "marine", "stimulus": "<p id=\"stim\">MARINE</p>", "conditions": [18, 1200, "v", 18000], "internal_node_id": "0.0-44.0", "trial": 1, "time_elapsed": 431867, "serialpos": 7, "key_press": -1, "wordID": 868, "type": "PRES_VIS", "trial_index": 62}, "uniqueid": "MTK3364:3VFJCI1K406PR2GWHD7M1J88Q1ORG6", "dateTime": 1520452947260}, {"current_trial": 63, "trialdata": {"rt": -1, "trial_type": "single-stim", "word": "sticker", "stimulus": "<p id=\"stim\">STICKER</p>", "conditions": [18, 1200, "v", 18000], "internal_node_id": "0.0-45.0", "trial": 1, "time_elapsed": 434085, "serialpos": 8, "key_press": -1, "wordID": 1381, "type": "PRES_VIS", "trial_index": 63}, "uniqueid": "MTK3364:3VFJCI1K406PR2GWHD7M1J88Q1ORG6", "dateTime": 1520452949478}, {"current_trial": 64, "trialdata": {"rt": -1, "trial_type": "single-stim", "word": "stream", "stimulus": "<p id=\"stim\">STREAM</p>", "conditions": [18, 1200, "v", 18000], "internal_node_id": "0.0-46.0", "trial": 1, "time_elapsed": 436277, "serialpos": 9, "key_press": -1, "wordID": 1391, "type": "PRES_VIS", "trial_index": 64}, "uniqueid": "MTK3364:3VFJCI1K406PR2GWHD7M1J88Q1ORG6", "dateTime": 1520452951670}, {"current_trial": 65, "trialdata": {"rt": -1, "trial_type": "single-stim", "word": "seagull", "stimulus": "<p id=\"stim\">SEAGULL</p>", "conditions": [18, 1200, "v", 18000], "internal_node_id": "0.0-47.0", "trial": 1, "time_elapsed": 438671, "serialpos": 10, "key_press": -1, "wordID": 1260, "type": "PRES_VIS", "trial_index": 65}, "uniqueid": "MTK3364:3VFJCI1K406PR2GWHD7M1J88Q1ORG6", "dateTime": 1520452954064}, {"current_trial": 66, "trialdata": {"rt": -1, "trial_type": "single-stim", "word": "police", "stimulus": "<p id=\"stim\">POLICE</p>", "conditions": [18, 1200, "v", 18000], "internal_node_id": "0.0-48.0", "trial": 1, "time_elapsed": 440884, "serialpos": 11, "key_press": -1, "wordID": 1097, "type": "PRES_VIS", "trial_index": 66}, "uniqueid": "MTK3364:3VFJCI1K406PR2GWHD7M1J88Q1ORG6", "dateTime": 1520452956277}, {"current_trial": 67, "trialdata": {"rt": -1, "trial_type": "single-stim", "word": "heart", "stimulus": "<p id=\"stim\">HEART</p>", "conditions": [18, 1200, "v", 18000], "internal_node_id": "0.0-49.0", "trial": 1, "time_elapsed": 443040, "serialpos": 12, "key_press": -1, "wordID": 696, "type": "PRES_VIS", "trial_index": 67}, "uniqueid": "MTK3364:3VFJCI1K406PR2GWHD7M1J88Q1ORG6", "dateTime": 1520452958433}, {"current_trial": 68, "trialdata": {"rt": -1, "trial_type": "single-stim", "word": "mask", "stimulus": "<p id=\"stim\">MASK</p>", "conditions": [18, 1200, "v", 18000], "internal_node_id": "0.0-50.0", "trial": 1, "time_elapsed": 445353, "serialpos": 13, "key_press": -1, "wordID": 875, "type": "PRES_VIS", "trial_index": 68}, "uniqueid": "MTK3364:3VFJCI1K406PR2GWHD7M1J88Q1ORG6", "dateTime": 1520452960768}, {"current_trial": 69, "trialdata": {"rt": -1, "trial_type": "single-stim", "word": "fruit", "stimulus": "<p id=\"stim\">FRUIT</p>", "conditions": [18, 1200, "v", 18000], "internal_node_id": "0.0-51.0", "trial": 1, "time_elapsed": 447575, "serialpos": 14, "key_press": -1, "wordID": 609, "type": "PRES_VIS", "trial_index": 69}, "uniqueid": "MTK3364:3VFJCI1K406PR2GWHD7M1J88Q1ORG6", "dateTime": 1520452962969}, {"current_trial": 70, "trialdata": {"rt": -1, "trial_type": "single-stim", "word": "thread", "stimulus": "<p id=\"stim\">THREAD</p>", "conditions": [18, 1200, "v", 18000], "internal_node_id": "0.0-52.0", "trial": 1, "time_elapsed": 449962, "serialpos": 15, "key_press": -1, "wordID": 1459, "type": "PRES_VIS", "trial_index": 70}, "uniqueid": "MTK3364:3VFJCI1K406PR2GWHD7M1J88Q1ORG6", "dateTime": 1520452965355}, {"current_trial": 71, "trialdata": {"rt": -1, "trial_type": "single-stim", "word": "notebook", "stimulus": "<p id=\"stim\">NOTEBOOK</p>", "conditions": [18, 1200, "v", 18000], "internal_node_id": "0.0-53.0", "trial": 1, "time_elapsed": 451991, "serialpos": 16, "key_press": -1, "wordID": 958, "type": "PRES_VIS", "trial_index": 71}, "uniqueid": "MTK3364:3VFJCI1K406PR2GWHD7M1J88Q1ORG6", "dateTime": 1520452967384}, {"current_trial": 72, "trialdata": {"rt": -1, "trial_type": "single-stim", "word": "frame", "stimulus": "<p id=\"stim\">FRAME</p>", "conditions": [18, 1200, "v", 18000], "internal_node_id": "0.0-54.0", "trial": 1, "time_elapsed": 454192, "serialpos": 17, "key_press": -1, "wordID": 599, "type": "PRES_VIS", "trial_index": 72}, "uniqueid": "MTK3364:3VFJCI1K406PR2GWHD7M1J88Q1ORG6", "dateTime": 1520452969587}, {"current_trial": 73, "trialdata": {"rt": -1, "trial_type": "single-stim", "stimulus": "", "internal_node_id": "0.0-55.0-0.0", "time_elapsed": 456588, "key_press": -1, "type": "PRE_RECALL_DELAY", "trial_index": 73}, "uniqueid": "MTK3364:3VFJCI1K406PR2GWHD7M1J88Q1ORG6", "dateTime": 1520452971983}, {"current_trial": 74, "trialdata": {"rt": -1000, "trial_type": "single-audio", "stimulus": "/static/audio/400Hz.wav", "internal_node_id": "0.0-56.0", "time_elapsed": 457098, "key_press": -1, "type": "PRE_RECALL_ALERT", "trial_index": 74}, "uniqueid": "MTK3364:3VFJCI1K406PR2GWHD7M1J88Q1ORG6", "dateTime": 1520452972491}, {"current_trial": 75, "trialdata": {"rt": [4259, 6933, 16705, 19601, 25033, 30686, 32301, 36284, 39221, 42341, 49814, 59810], "recwords": ["frame", "police", "luggage", "climg", "eagle", "marine", "flute", "shrub", "eagle", "fuit", "river", "stream"], "key_times": [2665, 2914, 3235, 3375, 3559, 4259, 4761, 5490, 5743, 5992, 6256, 6470, 6933, 13682, 13992, 14190, 14390, 14608, 14834, 15022, 16705, 17836, 17944, 18183, 18387, 18792, 19601, 19887, 22377, 22741, 22953, 23208, 23346, 23517, 25033, 28559, 28763, 28974, 29073, 29242, 29428, 30686, 31261, 31368, 31603, 31800, 32025, 32301, 35054, 35209, 35394, 35518, 35950, 36284, 38197, 38422, 38707, 38782, 38952, 39221, 41131, 41308, 41536, 41766, 42341, 48311, 48430, 48759, 49000, 49513, 49814, 57913, 58142, 58346, 58893, 59238, 59385, 59810], "trial_type": "free-recall", "conditions": [18, 1200, "v", 18000], "internal_node_id": "0.0-57.0-0.0", "key_presses": [70, 82, 65, 77, 69, 13, 80, 79, 76, 73, 67, 69, 13, 76, 85, 71, 71, 65, 71, 69, 13, 67, 76, 73, 77, 71, 13, 66, 8, 69, 65, 71, 76, 69, 13, 77, 65, 82, 73, 78, 69, 13, 70, 76, 85, 84, 69, 13, 83, 72, 82, 85, 66, 13, 69, 65, 71, 76, 69, 13, 70, 85, 73, 84, 13, 82, 73, 86, 69, 82, 13, 83, 84, 82, 69, 65, 77, 13], "trial": 1, "time_elapsed": 517115, "type": "FREE_RECALL", "trial_index": 75}, "uniqueid": "MTK3364:3VFJCI1K406PR2GWHD7M1J88Q1ORG6", "dateTime": 1520453032555}, {"current_trial": 76, "trialdata": {"rt": 1722, "trial_type": "text", "internal_node_id": "0.0-58.0", "time_elapsed": 520893, "key_press": 32, "type": "INSTRUCTIONS", "trial_index": 76}, "uniqueid": "MTK3364:3VFJCI1K406PR2GWHD7M1J88Q1ORG6", "dateTime": 1520453036286}, {"current_trial": 77, "trialdata": {"rt": [2199, 4412, 7103, 8840, 11259, 13474, 16506, 18195, 20674, 22592], "trial_type": "math-distractor", "key_times": [1692, 2199, 3874, 4079, 4412, 6310, 6486, 7103, 8437, 8650, 8840, 10363, 10776, 11259, 12982, 13130, 13474, 16081, 16250, 16506, 17812, 18195, 20244, 20337, 20674, 22103, 22245, 22592], "responses": ["7", "15", "17", "12", "16", "20", "15", "7", "18", "10"], "num2": [3, 8, 9, 5, 5, 9, 4, 1, 6, 3, 6], "num3": [2, 4, 6, 1, 8, 3, 5, 1, 5, 6, 1], "conditions": [12, 1600, "v", 24000], "internal_node_id": "0.0-59.0", "key_presses": [55, 13, 49, 53, 13, 49, 55, 13, 49, 50, 13, 49, 54, 13, 50, 48, 13, 49, 53, 13, 55, 13, 49, 56, 13, 49, 48, 13], "trial": 2, "time_elapsed": 545912, "type": "DISTRACTOR", "trial_index": 77, "num1": [2, 3, 2, 6, 3, 8, 6, 5, 7, 1, 2]}, "uniqueid": "MTK3364:3VFJCI1K406PR2GWHD7M1J88Q1ORG6", "dateTime": 1520453061305}, {"current_trial": 78, "trialdata": {"rt": -1, "trial_type": "single-stim", "stimulus": "<p id=\"stim\">10</p>", "internal_node_id": "0.0-60.0-0.0", "time_elapsed": 548919, "key_press": -1, "trial_index": 78}, "uniqueid": "MTK3364:3VFJCI1K406PR2GWHD7M1J88Q1ORG6", "dateTime": 1520453064312}, {"current_trial": 79, "trialdata": {"rt": -1, "trial_type": "single-stim", "stimulus": "<p id=\"stim\">9</p>", "internal_node_id": "0.0-60.0-1.0", "time_elapsed": 549929, "key_press": -1, "trial_index": 79}, "uniqueid": "MTK3364:3VFJCI1K406PR2GWHD7M1J88Q1ORG6", "dateTime": 1520453065323}, {"current_trial": 80, "trialdata": {"rt": -1, "trial_type": "single-stim", "stimulus": "<p id=\"stim\">8</p>", "internal_node_id": "0.0-60.0-2.0", "time_elapsed": 550934, "key_press": -1, "trial_index": 80}, "uniqueid": "MTK3364:3VFJCI1K406PR2GWHD7M1J88Q1ORG6", "dateTime": 1520453066328}, {"current_trial": 81, "trialdata": {"rt": -1, "trial_type": "single-stim", "stimulus": "<p id=\"stim\">7</p>", "internal_node_id": "0.0-60.0-3.0", "time_elapsed": 551938, "key_press": -1, "trial_index": 81}, "uniqueid": "MTK3364:3VFJCI1K406PR2GWHD7M1J88Q1ORG6", "dateTime": 1520453067331}, {"current_trial": 82, "trialdata": {"rt": -1, "trial_type": "single-stim", "stimulus": "<p id=\"stim\">6</p>", "internal_node_id": "0.0-60.0-4.0", "time_elapsed": 552940, "key_press": -1, "trial_index": 82}, "uniqueid": "MTK3364:3VFJCI1K406PR2GWHD7M1J88Q1ORG6", "dateTime": 1520453068334}, {"current_trial": 83, "trialdata": {"rt": -1, "trial_type": "single-stim", "stimulus": "<p id=\"stim\">5</p>", "internal_node_id": "0.0-60.0-5.0", "time_elapsed": 553943, "key_press": -1, "trial_index": 83}, "uniqueid": "MTK3364:3VFJCI1K406PR2GWHD7M1J88Q1ORG6", "dateTime": 1520453069336}, {"current_trial": 84, "trialdata": {"rt": -1, "trial_type": "single-stim", "stimulus": "<p id=\"stim\">4</p>", "internal_node_id": "0.0-60.0-6.0", "time_elapsed": 554958, "key_press": -1, "trial_index": 84}, "uniqueid": "MTK3364:3VFJCI1K406PR2GWHD7M1J88Q1ORG6", "dateTime": 1520453070352}, {"current_trial": 85, "trialdata": {"rt": -1, "trial_type": "single-stim", "stimulus": "<p id=\"stim\">3</p>", "internal_node_id": "0.0-60.0-7.0", "time_elapsed": 555964, "key_press": -1, "trial_index": 85}, "uniqueid": "MTK3364:3VFJCI1K406PR2GWHD7M1J88Q1ORG6", "dateTime": 1520453071357}, {"current_trial": 86, "trialdata": {"rt": -1, "trial_type": "single-stim", "stimulus": "<p id=\"stim\">2</p>", "internal_node_id": "0.0-60.0-8.0", "time_elapsed": 556971, "key_press": -1, "trial_index": 86}, "uniqueid": "MTK3364:3VFJCI1K406PR2GWHD7M1J88Q1ORG6", "dateTime": 1520453072364}, {"current_trial": 87, "trialdata": {"rt": -1, "trial_type": "single-stim", "stimulus": "<p id=\"stim\">1</p>", "internal_node_id": "0.0-60.0-9.0", "time_elapsed": 557975, "key_press": -1, "trial_index": 87}, "uniqueid": "MTK3364:3VFJCI1K406PR2GWHD7M1J88Q1ORG6", "dateTime": 1520453073368}, {"current_trial": 88, "trialdata": {"rt": -1, "trial_type": "single-stim", "stimulus": "<p id=\"stim\">+</p>", "internal_node_id": "0.0-61.0-0.0", "time_elapsed": 559492, "key_press": -1, "type": "FIXATION", "trial_index": 88}, "uniqueid": "MTK3364:3VFJCI1K406PR2GWHD7M1J88Q1ORG6", "dateTime": 1520453074885}, {"current_trial": 89, "trialdata": {"rt": -1, "trial_type": "single-stim", "word": "dress", "stimulus": "<p id=\"stim\">DRESS</p>", "conditions": [12, 1600, "v", 24000], "internal_node_id": "0.0-62.0", "trial": 2, "time_elapsed": 561108, "serialpos": 0, "key_press": -1, "wordID": 494, "type": "PRES_VIS", "trial_index": 89}, "uniqueid": "MTK3364:3VFJCI1K406PR2GWHD7M1J88Q1ORG6", "dateTime": 1520453076501}, {"current_trial": 90, "trialdata": {"rt": -1, "trial_type": "single-stim", "word": "seafood", "stimulus": "<p id=\"stim\">SEAFOOD</p>", "conditions": [12, 1600, "v", 24000], "internal_node_id": "0.0-63.0", "trial": 2, "time_elapsed": 563620, "serialpos": 1, "key_press": -1, "wordID": 1259, "type": "PRES_VIS", "trial_index": 90}, "uniqueid": "MTK3364:3VFJCI1K406PR2GWHD7M1J88Q1ORG6", "dateTime": 1520453079013}, {"current_trial": 91, "trialdata": {"rt": -1, "trial_type": "single-stim", "word": "package", "stimulus": "<p id=\"stim\">PACKAGE</p>", "conditions": [12, 1600, "v", 24000], "internal_node_id": "0.0-64.0", "trial": 2, "time_elapsed": 566060, "serialpos": 2, "key_press": -1, "wordID": 996, "type": "PRES_VIS", "trial_index": 91}, "uniqueid": "MTK3364:3VFJCI1K406PR2GWHD7M1J88Q1ORG6", "dateTime": 1520453081454}, {"current_trial": 92, "trialdata": {"rt": -1, "trial_type": "single-stim", "word": "butcher", "stimulus": "<p id=\"stim\">BUTCHER</p>", "conditions": [12, 1600, "v", 24000], "internal_node_id": "0.0-65.0", "trial": 2, "time_elapsed": 568508, "serialpos": 3, "key_press": -1, "wordID": 202, "type": "PRES_VIS", "trial_index": 92}, "uniqueid": "MTK3364:3VFJCI1K406PR2GWHD7M1J88Q1ORG6", "dateTime": 1520453083904}, {"current_trial": 93, "trialdata": {"rt": -1, "trial_type": "single-stim", "word": "banker", "stimulus": "<p id=\"stim\">BANKER</p>", "conditions": [12, 1600, "v", 24000], "internal_node_id": "0.0-66.0", "trial": 2, "time_elapsed": 571325, "serialpos": 4, "key_press": -1, "wordID": 83, "type": "PRES_VIS", "trial_index": 93}, "uniqueid": "MTK3364:3VFJCI1K406PR2GWHD7M1J88Q1ORG6", "dateTime": 1520453086718}, {"current_trial": 94, "trialdata": {"rt": -1, "trial_type": "single-stim", "word": "daughter", "stimulus": "<p id=\"stim\">DAUGHTER</p>", "conditions": [12, 1600, "v", 24000], "internal_node_id": "0.0-67.0", "trial": 2, "time_elapsed": 573816, "serialpos": 5, "key_press": -1, "wordID": 441, "type": "PRES_VIS", "trial_index": 94}, "uniqueid": "MTK3364:3VFJCI1K406PR2GWHD7M1J88Q1ORG6", "dateTime": 1520453089209}, {"current_trial": 95, "trialdata": {"rt": -1, "trial_type": "single-stim", "word": "girl", "stimulus": "<p id=\"stim\">GIRL</p>", "conditions": [12, 1600, "v", 24000], "internal_node_id": "0.0-68.0", "trial": 2, "time_elapsed": 576282, "serialpos": 6, "key_press": -1, "wordID": 636, "type": "PRES_VIS", "trial_index": 95}, "uniqueid": "MTK3364:3VFJCI1K406PR2GWHD7M1J88Q1ORG6", "dateTime": 1520453091675}, {"current_trial": 96, "trialdata": {"rt": -1, "trial_type": "single-stim", "word": "island", "stimulus": "<p id=\"stim\">ISLAND</p>", "conditions": [12, 1600, "v", 24000], "internal_node_id": "0.0-69.0", "trial": 2, "time_elapsed": 579053, "serialpos": 7, "key_press": -1, "wordID": 744, "type": "PRES_VIS", "trial_index": 96}, "uniqueid": "MTK3364:3VFJCI1K406PR2GWHD7M1J88Q1ORG6", "dateTime": 1520453094446}, {"current_trial": 97, "trialdata": {"rt": -1, "trial_type": "single-stim", "word": "crevice", "stimulus": "<p id=\"stim\">CREVICE</p>", "conditions": [12, 1600, "v", 24000], "internal_node_id": "0.0-70.0", "trial": 2, "time_elapsed": 581764, "serialpos": 8, "key_press": -1, "wordID": 404, "type": "PRES_VIS", "trial_index": 97}, "uniqueid": "MTK3364:3VFJCI1K406PR2GWHD7M1J88Q1ORG6", "dateTime": 1520453097160}, {"current_trial": 98, "trialdata": {"rt": -1, "trial_type": "single-stim", "word": "patrol", "stimulus": "<p id=\"stim\">PATROL</p>", "conditions": [12, 1600, "v", 24000], "internal_node_id": "0.0-71.0", "trial": 2, "time_elapsed": 584298, "serialpos": 9, "key_press": -1, "wordID": 1026, "type": "PRES_VIS", "trial_index": 98}, "uniqueid": "MTK3364:3VFJCI1K406PR2GWHD7M1J88Q1ORG6", "dateTime": 1520453099692}, {"current_trial": 99, "trialdata": {"rt": -1, "trial_type": "single-stim", "word": "rabbit", "stimulus": "<p id=\"stim\">RABBIT</p>", "conditions": [12, 1600, "v", 24000], "internal_node_id": "0.0-72.0", "trial": 2, "time_elapsed": 586927, "serialpos": 10, "key_press": -1, "wordID": 1151, "type": "PRES_VIS", "trial_index": 99}, "uniqueid": "MTK3364:3VFJCI1K406PR2GWHD7M1J88Q1ORG6", "dateTime": 1520453102320}, {"current_trial": 100, "trialdata": {"rt": -1, "trial_type": "single-stim", "word": "wardrobe", "stimulus": "<p id=\"stim\">WARDROBE</p>", "conditions": [12, 1600, "v", 24000], "internal_node_id": "0.0-73.0", "trial": 2, "time_elapsed": 589524, "serialpos": 11, "key_press": -1, "wordID": 1586, "type": "PRES_VIS", "trial_index": 100}, "uniqueid": "MTK3364:3VFJCI1K406PR2GWHD7M1J88Q1ORG6", "dateTime": 1520453104919}, {"current_trial": 101, "trialdata": {"rt": -1, "trial_type": "single-stim", "stimulus": "", "internal_node_id": "0.0-74.0-0.0", "time_elapsed": 591889, "key_press": -1, "type": "PRE_RECALL_DELAY", "trial_index": 101}, "uniqueid": "MTK3364:3VFJCI1K406PR2GWHD7M1J88Q1ORG6", "dateTime": 1520453107282}, {"current_trial": 102, "trialdata": {"rt": -1000, "trial_type": "single-audio", "stimulus": "/static/audio/400Hz.wav", "internal_node_id": "0.0-75.0", "time_elapsed": 592396, "key_press": -1, "type": "PRE_RECALL_ALERT", "trial_index": 102}, "uniqueid": "MTK3364:3VFJCI1K406PR2GWHD7M1J88Q1ORG6", "dateTime": 1520453107789}, {"current_trial": 103, "trialdata": {"rt": [5582, 10706, 16809, 18839, 20441, 26025, 27994, 32484], "recwords": ["dress", "seafood", "package", "daughter", "girl", "butcher", "baker", "island"], "key_times": [4512, 4745, 4976, 5274, 5448, 5582, 5911, 6097, 6432, 6763, 7600, 7774, 7987, 10706, 11162, 11396, 11695, 11805, 12069, 12447, 13729, 16324, 16530, 16809, 17269, 17493, 17609, 17976, 18114, 18288, 18508, 18655, 18839, 19439, 19579, 19768, 19948, 20441, 21836, 21973, 22175, 22409, 22532, 22896, 23088, 23231, 23683, 24136, 24269, 24424, 24601, 26025, 26871, 27150, 27316, 27452, 27663, 27994, 30359, 30546, 30714, 30925, 31076, 31809, 32484], "trial_type": "free-recall", "conditions": [12, 1600, "v", 24000], "internal_node_id": "0.0-76.0-0.0", "key_presses": [68, 82, 69, 83, 83, 32, 83, 69, 65, 70, 79, 79, 68, 13, 80, 65, 67, 75, 65, 69, 8, 71, 69, 13, 68, 65, 85, 71, 72, 84, 69, 82, 32, 71, 73, 82, 76, 13, 66, 85, 82, 84, 72, 8, 8, 8, 84, 67, 72, 69, 82, 13, 66, 65, 75, 69, 82, 13, 73, 83, 76, 65, 78, 68, 13], "trial": 2, "time_elapsed": 652417, "type": "FREE_RECALL", "trial_index": 103}, "uniqueid": "MTK3364:3VFJCI1K406PR2GWHD7M1J88Q1ORG6", "dateTime": 1520453167820}, {"current_trial": 104, "trialdata": {"rt": 1673, "trial_type": "text", "internal_node_id": "0.0-77.0", "time_elapsed": 656101, "key_press": 32, "type": "INSTRUCTIONS", "trial_index": 104}, "uniqueid": "MTK3364:3VFJCI1K406PR2GWHD7M1J88Q1ORG6", "dateTime": 1520453171495}, {"current_trial": 105, "trialdata": {"rt": [2274, 4139, 6168, 8502, 11496], "trial_type": "math-distractor", "key_times": [1675, 1808, 2274, 3689, 3779, 4139, 5783, 5957, 6168, 8041, 8133, 8502, 11088, 11496], "responses": ["17", "19", "11", "17", "6"], "num2": [9, 4, 4, 9, 3, 4], "num3": [1, 7, 6, 5, 1, 4], "conditions": [24, 1600, "v", 12000], "internal_node_id": "0.0-78.0", "key_presses": [49, 55, 13, 49, 57, 13, 49, 49, 13, 49, 55, 13, 54, 13], "trial": 3, "time_elapsed": 670111, "type": "DISTRACTOR", "trial_index": 105, "num1": [7, 8, 1, 7, 2, 8]}, "uniqueid": "MTK3364:3VFJCI1K406PR2GWHD7M1J88Q1ORG6", "dateTime": 1520453185504}, {"current_trial": 106, "trialdata": {"rt": -1, "trial_type": "single-stim", "stimulus": "<p id=\"stim\">10</p>", "internal_node_id": "0.0-79.0-0.0", "time_elapsed": 673117, "key_press": -1, "trial_index": 106}, "uniqueid": "MTK3364:3VFJCI1K406PR2GWHD7M1J88Q1ORG6", "dateTime": 1520453188510}, {"current_trial": 107, "trialdata": {"rt": -1, "trial_type": "single-stim", "stimulus": "<p id=\"stim\">9</p>", "internal_node_id": "0.0-79.0-1.0", "time_elapsed": 674122, "key_press": -1, "trial_index": 107}, "uniqueid": "MTK3364:3VFJCI1K406PR2GWHD7M1J88Q1ORG6", "dateTime": 1520453189515}, {"current_trial": 108, "trialdata": {"rt": -1, "trial_type": "single-stim", "stimulus": "<p id=\"stim\">8</p>", "internal_node_id": "0.0-79.0-2.0", "time_elapsed": 675134, "key_press": -1, "trial_index": 108}, "uniqueid": "MTK3364:3VFJCI1K406PR2GWHD7M1J88Q1ORG6", "dateTime": 1520453190527}, {"current_trial": 109, "trialdata": {"rt": -1, "trial_type": "single-stim", "stimulus": "<p id=\"stim\">7</p>", "internal_node_id": "0.0-79.0-3.0", "time_elapsed": 676139, "key_press": -1, "trial_index": 109}, "uniqueid": "MTK3364:3VFJCI1K406PR2GWHD7M1J88Q1ORG6", "dateTime": 1520453191532}, {"current_trial": 110, "trialdata": {"rt": -1, "trial_type": "single-stim", "stimulus": "<p id=\"stim\">6</p>", "internal_node_id": "0.0-79.0-4.0", "time_elapsed": 677142, "key_press": -1, "trial_index": 110}, "uniqueid": "MTK3364:3VFJCI1K406PR2GWHD7M1J88Q1ORG6", "dateTime": 1520453192535}, {"current_trial": 111, "trialdata": {"rt": -1, "trial_type": "single-stim", "stimulus": "<p id=\"stim\">5</p>", "internal_node_id": "0.0-79.0-5.0", "time_elapsed": 678161, "key_press": -1, "trial_index": 111}, "uniqueid": "MTK3364:3VFJCI1K406PR2GWHD7M1J88Q1ORG6", "dateTime": 1520453193555}, {"current_trial": 112, "trialdata": {"rt": -1, "trial_type": "single-stim", "stimulus": "<p id=\"stim\">4</p>", "internal_node_id": "0.0-79.0-6.0", "time_elapsed": 679177, "key_press": -1, "trial_index": 112}, "uniqueid": "MTK3364:3VFJCI1K406PR2GWHD7M1J88Q1ORG6", "dateTime": 1520453194570}, {"current_trial": 113, "trialdata": {"rt": -1, "trial_type": "single-stim", "stimulus": "<p id=\"stim\">3</p>", "internal_node_id": "0.0-79.0-7.0", "time_elapsed": 680178, "key_press": -1, "trial_index": 113}, "uniqueid": "MTK3364:3VFJCI1K406PR2GWHD7M1J88Q1ORG6", "dateTime": 1520453195573}, {"current_trial": 114, "trialdata": {"rt": -1, "trial_type": "single-stim", "stimulus": "<p id=\"stim\">2</p>", "internal_node_id": "0.0-79.0-8.0", "time_elapsed": 681184, "key_press": -1, "trial_index": 114}, "uniqueid": "MTK3364:3VFJCI1K406PR2GWHD7M1J88Q1ORG6", "dateTime": 1520453196577}, {"current_trial": 115, "trialdata": {"rt": -1, "trial_type": "single-stim", "stimulus": "<p id=\"stim\">1</p>", "internal_node_id": "0.0-79.0-9.0", "time_elapsed": 682202, "key_press": -1, "trial_index": 115}, "uniqueid": "MTK3364:3VFJCI1K406PR2GWHD7M1J88Q1ORG6", "dateTime": 1520453197595}, {"current_trial": 116, "trialdata": {"rt": -1, "trial_type": "single-stim", "stimulus": "<p id=\"stim\">+</p>", "internal_node_id": "0.0-80.0-0.0", "time_elapsed": 683706, "key_press": -1, "type": "FIXATION", "trial_index": 116}, "uniqueid": "MTK3364:3VFJCI1K406PR2GWHD7M1J88Q1ORG6", "dateTime": 1520453199099}, {"current_trial": 117, "trialdata": {"rt": -1, "trial_type": "single-stim", "word": "flashlight", "stimulus": "<p id=\"stim\">FLASHLIGHT</p>", "conditions": [24, 1600, "v", 12000], "internal_node_id": "0.0-81.0", "trial": 3, "time_elapsed": 685326, "serialpos": 0, "key_press": -1, "wordID": 574, "type": "PRES_VIS", "trial_index": 117}, "uniqueid": "MTK3364:3VFJCI1K406PR2GWHD7M1J88Q1ORG6", "dateTime": 1520453200721}, {"current_trial": 118, "trialdata": {"rt": -1, "trial_type": "single-stim", "word": "fireplace", "stimulus": "<p id=\"stim\">FIREPLACE</p>", "conditions": [24, 1600, "v", 12000], "internal_node_id": "0.0-82.0", "trial": 3, "time_elapsed": 688059, "serialpos": 1, "key_press": -1, "wordID": 569, "type": "PRES_VIS", "trial_index": 118}, "uniqueid": "MTK3364:3VFJCI1K406PR2GWHD7M1J88Q1ORG6", "dateTime": 1520453203454}, {"current_trial": 119, "trialdata": {"rt": -1, "trial_type": "single-stim", "word": "widow", "stimulus": "<p id=\"stim\">WIDOW</p>", "conditions": [24, 1600, "v", 12000], "internal_node_id": "0.0-83.0", "trial": 3, "time_elapsed": 690836, "serialpos": 2, "key_press": -1, "wordID": 1607, "type": "PRES_VIS", "trial_index": 119}, "uniqueid": "MTK3364:3VFJCI1K406PR2GWHD7M1J88Q1ORG6", "dateTime": 1520453206229}, {"current_trial": 120, "trialdata": {"rt": -1, "trial_type": "single-stim", "word": "plaid", "stimulus": "<p id=\"stim\">PLAID</p>", "conditions": [24, 1600, "v", 12000], "internal_node_id": "0.0-84.0", "trial": 3, "time_elapsed": 693258, "serialpos": 3, "key_press": -1, "wordID": 1079, "type": "PRES_VIS", "trial_index": 120}, "uniqueid": "MTK3364:3VFJCI1K406PR2GWHD7M1J88Q1ORG6", "dateTime": 1520453208651}, {"current_trial": 121, "trialdata": {"rt": -1, "trial_type": "single-stim", "word": "panther", "stimulus": "<p id=\"stim\">PANTHER</p>", "conditions": [24, 1600, "v", 12000], "internal_node_id": "0.0-85.0", "trial": 3, "time_elapsed": 695849, "serialpos": 4, "key_press": -1, "wordID": 1008, "type": "PRES_VIS", "trial_index": 121}, "uniqueid": "MTK3364:3VFJCI1K406PR2GWHD7M1J88Q1ORG6", "dateTime": 1520453211243}, {"current_trial": 122, "trialdata": {"rt": -1, "trial_type": "single-stim", "word": "beef", "stimulus": "<p id=\"stim\">BEEF</p>", "conditions": [24, 1600, "v", 12000], "internal_node_id": "0.0-86.0", "trial": 3, "time_elapsed": 698420, "serialpos": 5, "key_press": -1, "wordID": 112, "type": "PRES_VIS", "trial_index": 122}, "uniqueid": "MTK3364:3VFJCI1K406PR2GWHD7M1J88Q1ORG6", "dateTime": 1520453213813}, {"current_trial": 123, "trialdata": {"rt": -1, "trial_type": "single-stim", "word": "pork", "stimulus": "<p id=\"stim\">PORK</p>", "conditions": [24, 1600, "v", 12000], "internal_node_id": "0.0-87.0", "trial": 3, "time_elapsed": 700957, "serialpos": 6, "key_press": -1, "wordID": 1107, "type": "PRES_VIS", "trial_index": 123}, "uniqueid": "MTK3364:3VFJCI1K406PR2GWHD7M1J88Q1ORG6", "dateTime": 1520453216350}, {"current_trial": 124, "trialdata": {"rt": -1, "trial_type": "single-stim", "word": "harp", "stimulus": "<p id=\"stim\">HARP</p>", "conditions": [24, 1600, "v", 12000], "internal_node_id": "0.0-88.0", "trial": 3, "time_elapsed": 703610, "serialpos": 7, "key_press": -1, "wordID": 688, "type": "PRES_VIS", "trial_index": 124}, "uniqueid": "MTK3364:3VFJCI1K406PR2GWHD7M1J88Q1ORG6", "dateTime": 1520453219006}, {"current_trial": 125, "trialdata": {"rt": -1, "trial_type": "single-stim", "word": "breast", "stimulus": "<p id=\"stim\">BREAST</p>", "conditions": [24, 1600, "v", 12000], "internal_node_id": "0.0-89.0", "trial": 3, "time_elapsed": 706036, "serialpos": 8, "key_press": -1, "wordID": 170, "type": "PRES_VIS", "trial_index": 125}, "uniqueid": "MTK3364:3VFJCI1K406PR2GWHD7M1J88Q1ORG6", "dateTime": 1520453221429}, {"current_trial": 126, "trialdata": {"rt": -1, "trial_type": "single-stim", "word": "table", "stimulus": "<p id=\"stim\">TABLE</p>", "conditions": [24, 1600, "v", 12000], "internal_node_id": "0.0-90.0", "trial": 3, "time_elapsed": 708512, "serialpos": 9, "key_press": -1, "wordID": 1425, "type": "PRES_VIS", "trial_index": 126}, "uniqueid": "MTK3364:3VFJCI1K406PR2GWHD7M1J88Q1ORG6", "dateTime": 1520453223905}, {"current_trial": 127, "trialdata": {"rt": -1, "trial_type": "single-stim", "word": "denim", "stimulus": "<p id=\"stim\">DENIM</p>", "conditions": [24, 1600, "v", 12000], "internal_node_id": "0.0-91.0", "trial": 3, "time_elapsed": 711023, "serialpos": 10, "key_press": -1, "wordID": 445, "type": "PRES_VIS", "trial_index": 127}, "uniqueid": "MTK3364:3VFJCI1K406PR2GWHD7M1J88Q1ORG6", "dateTime": 1520453226416}, {"current_trial": 128, "trialdata": {"rt": -1, "trial_type": "single-stim", "word": "puppy", "stimulus": "<p id=\"stim\">PUPPY</p>", "conditions": [24, 1600, "v", 12000], "internal_node_id": "0.0-92.0", "trial": 3, "time_elapsed": 713453, "serialpos": 11, "key_press": -1, "wordID": 1143, "type": "PRES_VIS", "trial_index": 128}, "uniqueid": "MTK3364:3VFJCI1K406PR2GWHD7M1J88Q1ORG6", "dateTime": 1520453228846}, {"current_trial": 129, "trialdata": {"rt": -1, "trial_type": "single-stim", "word": "pecan", "stimulus": "<p id=\"stim\">PECAN</p>", "conditions": [24, 1600, "v", 12000], "internal_node_id": "0.0-93.0", "trial": 3, "time_elapsed": 716089, "serialpos": 12, "key_press": -1, "wordID": 1035, "type": "PRES_VIS", "trial_index": 129}, "uniqueid": "MTK3364:3VFJCI1K406PR2GWHD7M1J88Q1ORG6", "dateTime": 1520453231482}, {"current_trial": 130, "trialdata": {"rt": -1, "trial_type": "single-stim", "word": "citrus", "stimulus": "<p id=\"stim\">CITRUS</p>", "conditions": [24, 1600, "v", 12000], "internal_node_id": "0.0-94.0", "trial": 3, "time_elapsed": 718705, "serialpos": 13, "key_press": -1, "wordID": 312, "type": "PRES_VIS", "trial_index": 130}, "uniqueid": "MTK3364:3VFJCI1K406PR2GWHD7M1J88Q1ORG6", "dateTime": 1520453234098}, {"current_trial": 131, "trialdata": {"rt": -1, "trial_type": "single-stim", "word": "hook", "stimulus": "<p id=\"stim\">HOOK</p>", "conditions": [24, 1600, "v", 12000], "internal_node_id": "0.0-95.0", "trial": 3, "time_elapsed": 721536, "serialpos": 14, "key_press": -1, "wordID": 714, "type": "PRES_VIS", "trial_index": 131}, "uniqueid": "MTK3364:3VFJCI1K406PR2GWHD7M1J88Q1ORG6", "dateTime": 1520453236929}, {"current_trial": 132, "trialdata": {"rt": -1, "trial_type": "single-stim", "word": "knapsack", "stimulus": "<p id=\"stim\">KNAPSACK</p>", "conditions": [24, 1600, "v", 12000], "internal_node_id": "0.0-96.0", "trial": 3, "time_elapsed": 724328, "serialpos": 15, "key_press": -1, "wordID": 782, "type": "PRES_VIS", "trial_index": 132}, "uniqueid": "MTK3364:3VFJCI1K406PR2GWHD7M1J88Q1ORG6", "dateTime": 1520453239722}, {"current_trial": 133, "trialdata": {"rt": -1, "trial_type": "single-stim", "word": "crab", "stimulus": "<p id=\"stim\">CRAB</p>", "conditions": [24, 1600, "v", 12000], "internal_node_id": "0.0-97.0", "trial": 3, "time_elapsed": 726931, "serialpos": 16, "key_press": -1, "wordID": 396, "type": "PRES_VIS", "trial_index": 133}, "uniqueid": "MTK3364:3VFJCI1K406PR2GWHD7M1J88Q1ORG6", "dateTime": 1520453242324}, {"current_trial": 134, "trialdata": {"rt": -1, "trial_type": "single-stim", "word": "parsley", "stimulus": "<p id=\"stim\">PARSLEY</p>", "conditions": [24, 1600, "v", 12000], "internal_node_id": "0.0-98.0", "trial": 3, "time_elapsed": 729493, "serialpos": 17, "key_press": -1, "wordID": 1015, "type": "PRES_VIS", "trial_index": 134}, "uniqueid": "MTK3364:3VFJCI1K406PR2GWHD7M1J88Q1ORG6", "dateTime": 1520453244888}, {"current_trial": 135, "trialdata": {"rt": -1, "trial_type": "single-stim", "word": "london", "stimulus": "<p id=\"stim\">LONDON</p>", "conditions": [24, 1600, "v", 12000], "internal_node_id": "0.0-99.0", "trial": 3, "time_elapsed": 732244, "serialpos": 18, "key_press": -1, "wordID": 842, "type": "PRES_VIS", "trial_index": 135}, "uniqueid": "MTK3364:3VFJCI1K406PR2GWHD7M1J88Q1ORG6", "dateTime": 1520453247637}, {"current_trial": 136, "trialdata": {"rt": -1, "trial_type": "single-stim", "word": "child", "stimulus": "<p id=\"stim\">CHILD</p>", "conditions": [24, 1600, "v", 12000], "internal_node_id": "0.0-100.0", "trial": 3, "time_elapsed": 734984, "serialpos": 19, "key_press": -1, "wordID": 298, "type": "PRES_VIS", "trial_index": 136}, "uniqueid": "MTK3364:3VFJCI1K406PR2GWHD7M1J88Q1ORG6", "dateTime": 1520453250377}, {"current_trial": 137, "trialdata": {"rt": -1, "trial_type": "single-stim", "word": "uncle", "stimulus": "<p id=\"stim\">UNCLE</p>", "conditions": [24, 1600, "v", 12000], "internal_node_id": "0.0-101.0", "trial": 3, "time_elapsed": 737615, "serialpos": 20, "key_press": -1, "wordID": 1535, "type": "PRES_VIS", "trial_index": 137}, "uniqueid": "MTK3364:3VFJCI1K406PR2GWHD7M1J88Q1ORG6", "dateTime": 1520453253008}, {"current_trial": 138, "trialdata": {"rt": -1, "trial_type": "single-stim", "word": "poet", "stimulus": "<p id=\"stim\">POET</p>", "conditions": [24, 1600, "v", 12000], "internal_node_id": "0.0-102.0", "trial": 3, "time_elapsed": 740112, "serialpos": 21, "key_press": -1, "wordID": 1094, "type": "PRES_VIS", "trial_index": 138}, "uniqueid": "MTK3364:3VFJCI1K406PR2GWHD7M1J88Q1ORG6", "dateTime": 1520453255505}, {"current_trial": 139, "trialdata": {"rt": -1, "trial_type": "single-stim", "word": "briefcase", "stimulus": "<p id=\"stim\">BRIEFCASE</p>", "conditions": [24, 1600, "v", 12000], "internal_node_id": "0.0-103.0", "trial": 3, "time_elapsed": 742567, "serialpos": 22, "key_press": -1, "wordID": 174, "type": "PRES_VIS", "trial_index": 139}, "uniqueid": "MTK3364:3VFJCI1K406PR2GWHD7M1J88Q1ORG6", "dateTime": 1520453257960}, {"current_trial": 140, "trialdata": {"rt": -1, "trial_type": "single-stim", "word": "bug", "stimulus": "<p id=\"stim\">BUG</p>", "conditions": [24, 1600, "v", 12000], "internal_node_id": "0.0-104.0", "trial": 3, "time_elapsed": 745034, "serialpos": 23, "key_press": -1, "wordID": 186, "type": "PRES_VIS", "trial_index": 140}, "uniqueid": "MTK3364:3VFJCI1K406PR2GWHD7M1J88Q1ORG6", "dateTime": 1520453260428}, {"current_trial": 141, "trialdata": {"rt": -1, "trial_type": "single-stim", "stimulus": "", "internal_node_id": "0.0-105.0-0.0", "time_elapsed": 747185, "key_press": -1, "type": "PRE_RECALL_DELAY", "trial_index": 141}, "uniqueid": "MTK3364:3VFJCI1K406PR2GWHD7M1J88Q1ORG6", "dateTime": 1520453262578}, {"current_trial": 142, "trialdata": {"rt": -1000, "trial_type": "single-audio", "stimulus": "/static/audio/400Hz.wav", "internal_node_id": "0.0-106.0", "time_elapsed": 747688, "key_press": -1, "type": "PRE_RECALL_ALERT", "trial_index": 142}, "uniqueid": "MTK3364:3VFJCI1K406PR2GWHD7M1J88Q1ORG6", "dateTime": 1520453263081}, {"current_trial": 143, "trialdata": {"rt": [4180, 7700, 17909, 19953, 21605, 29009, 33115, 39464, 43041, 45117, 50450, 55273, 59537], "recwords": ["bug", "briefcase", "child", "london", "uncle", "flashlight", "fireplace", "[", "plaid", "panther", "butcher", "breast", "puppy"], "key_times": [2776, 2894, 3255, 4180, 5451, 5723, 5862, 6034, 6398, 6787, 6983, 7153, 7440, 7700, 16370, 16532, 16776, 17014, 17242, 17909, 18757, 18999, 19157, 19470, 19587, 19750, 19953, 20232, 20522, 21079, 21185, 21397, 21605, 26567, 26787, 27005, 27232, 27389, 27889, 28109, 28284, 28405, 28644, 29009, 30284, 30411, 30578, 30765, 31018, 31270, 31463, 31924, 32338, 33115, 39149, 39464, 40871, 41230, 41748, 42183, 42414, 43041, 43670, 43935, 44050, 44265, 44396, 44578, 44749, 45117, 48902, 49057, 49297, 49664, 49785, 49976, 50213, 50450, 53874, 54130, 54322, 54551, 54744, 54974, 55273, 57919, 58214, 58475, 58643, 59100, 59537], "trial_type": "free-recall", "conditions": [24, 1600, "v", 12000], "internal_node_id": "0.0-107.0-0.0", "key_presses": [66, 85, 71, 13, 66, 82, 73, 69, 70, 67, 65, 83, 69, 13, 67, 72, 73, 76, 68, 13, 76, 79, 78, 68, 79, 78, 13, 85, 78, 67, 76, 69, 13, 70, 76, 65, 83, 72, 76, 73, 71, 72, 84, 13, 70, 73, 82, 69, 80, 76, 65, 67, 69, 13, 219, 186, 80, 76, 65, 73, 68, 13, 80, 65, 78, 84, 72, 69, 82, 13, 66, 85, 84, 67, 72, 69, 82, 13, 66, 82, 69, 65, 83, 84, 13, 80, 85, 80, 80, 89, 13], "trial": 3, "time_elapsed": 807698, "type": "FREE_RECALL", "trial_index": 143}, "uniqueid": "MTK3364:3VFJCI1K406PR2GWHD7M1J88Q1ORG6", "dateTime": 1520453323104}, {"current_trial": 144, "trialdata": {"rt": 7545, "trial_type": "text", "internal_node_id": "0.0-108.0", "time_elapsed": 817272, "key_press": 32, "type": "INSTRUCTIONS", "trial_index": 144}, "uniqueid": "MTK3364:3VFJCI1K406PR2GWHD7M1J88Q1ORG6", "dateTime": 1520453332666}, {"current_trial": 145, "trialdata": {"rt": [4651, 6578, 9713, 12355, 15133, 17515, 19881, 22466], "trial_type": "math-distractor", "key_times": [3915, 4286, 4651, 6048, 6306, 6578, 9077, 9303, 9713, 11791, 11902, 12355, 14596, 14815, 15133, 16934, 17057, 17515, 19452, 19674, 19881, 22057, 22295, 22466, 23769, 23934], "responses": ["16", "13", "21", "20", "23", "10", "12", "14"], "num2": [3, 6, 6, 9, 9, 5, 6, 4, 1], "num3": [8, 2, 7, 3, 5, 2, 3, 9, 6], "conditions": [12, 1600, "v", 24000], "internal_node_id": "0.0-109.0", "key_presses": [49, 54, 13, 49, 51, 13, 50, 49, 13, 50, 48, 13, 50, 51, 13, 49, 48, 13, 49, 50, 13, 49, 52, 13, 49, 54], "trial": 4, "time_elapsed": 843283, "type": "DISTRACTOR", "trial_index": 145, "num1": [5, 5, 8, 8, 9, 3, 3, 1, 9]}, "uniqueid": "MTK3364:3VFJCI1K406PR2GWHD7M1J88Q1ORG6", "dateTime": 1520453358677}, {"current_trial": 146, "trialdata": {"rt": -1, "trial_type": "single-stim", "stimulus": "<p id=\"stim\">10</p>", "internal_node_id": "0.0-110.0-0.0", "time_elapsed": 846289, "key_press": -1, "trial_index": 146}, "uniqueid": "MTK3364:3VFJCI1K406PR2GWHD7M1J88Q1ORG6", "dateTime": 1520453361682}, {"current_trial": 147, "trialdata": {"rt": -1, "trial_type": "single-stim", "stimulus": "<p id=\"stim\">9</p>", "internal_node_id": "0.0-110.0-1.0", "time_elapsed": 847294, "key_press": -1, "trial_index": 147}, "uniqueid": "MTK3364:3VFJCI1K406PR2GWHD7M1J88Q1ORG6", "dateTime": 1520453362688}, {"current_trial": 148, "trialdata": {"rt": -1, "trial_type": "single-stim", "stimulus": "<p id=\"stim\">8</p>", "internal_node_id": "0.0-110.0-2.0", "time_elapsed": 848297, "key_press": -1, "trial_index": 148}, "uniqueid": "MTK3364:3VFJCI1K406PR2GWHD7M1J88Q1ORG6", "dateTime": 1520453363692}, {"current_trial": 149, "trialdata": {"rt": -1, "trial_type": "single-stim", "stimulus": "<p id=\"stim\">7</p>", "internal_node_id": "0.0-110.0-3.0", "time_elapsed": 849328, "key_press": -1, "trial_index": 149}, "uniqueid": "MTK3364:3VFJCI1K406PR2GWHD7M1J88Q1ORG6", "dateTime": 1520453364723}, {"current_trial": 150, "trialdata": {"rt": -1, "trial_type": "single-stim", "stimulus": "<p id=\"stim\">6</p>", "internal_node_id": "0.0-110.0-4.0", "time_elapsed": 850334, "key_press": -1, "trial_index": 150}, "uniqueid": "MTK3364:3VFJCI1K406PR2GWHD7M1J88Q1ORG6", "dateTime": 1520453365727}, {"current_trial": 151, "trialdata": {"rt": -1, "trial_type": "single-stim", "stimulus": "<p id=\"stim\">5</p>", "internal_node_id": "0.0-110.0-5.0", "time_elapsed": 851337, "key_press": -1, "trial_index": 151}, "uniqueid": "MTK3364:3VFJCI1K406PR2GWHD7M1J88Q1ORG6", "dateTime": 1520453366731}, {"current_trial": 152, "trialdata": {"rt": -1, "trial_type": "single-stim", "stimulus": "<p id=\"stim\">4</p>", "internal_node_id": "0.0-110.0-6.0", "time_elapsed": 852343, "key_press": -1, "trial_index": 152}, "uniqueid": "MTK3364:3VFJCI1K406PR2GWHD7M1J88Q1ORG6", "dateTime": 1520453367736}, {"current_trial": 153, "trialdata": {"rt": -1, "trial_type": "single-stim", "stimulus": "<p id=\"stim\">3</p>", "internal_node_id": "0.0-110.0-7.0", "time_elapsed": 853373, "key_press": -1, "trial_index": 153}, "uniqueid": "MTK3364:3VFJCI1K406PR2GWHD7M1J88Q1ORG6", "dateTime": 1520453368766}, {"current_trial": 154, "trialdata": {"rt": -1, "trial_type": "single-stim", "stimulus": "<p id=\"stim\">2</p>", "internal_node_id": "0.0-110.0-8.0", "time_elapsed": 854377, "key_press": -1, "trial_index": 154}, "uniqueid": "MTK3364:3VFJCI1K406PR2GWHD7M1J88Q1ORG6", "dateTime": 1520453369770}, {"current_trial": 155, "trialdata": {"rt": -1, "trial_type": "single-stim", "stimulus": "<p id=\"stim\">1</p>", "internal_node_id": "0.0-110.0-9.0", "time_elapsed": 855379, "key_press": -1, "trial_index": 155}, "uniqueid": "MTK3364:3VFJCI1K406PR2GWHD7M1J88Q1ORG6", "dateTime": 1520453370773}, {"current_trial": 156, "trialdata": {"rt": -1, "trial_type": "single-stim", "stimulus": "<p id=\"stim\">+</p>", "internal_node_id": "0.0-111.0-0.0", "time_elapsed": 856882, "key_press": -1, "type": "FIXATION", "trial_index": 156}, "uniqueid": "MTK3364:3VFJCI1K406PR2GWHD7M1J88Q1ORG6", "dateTime": 1520453372277}, {"current_trial": 157, "trialdata": {"rt": -1, "trial_type": "single-stim", "word": "pluto", "stimulus": "<p id=\"stim\">PLUTO</p>", "conditions": [12, 1600, "v", 24000], "internal_node_id": "0.0-112.0", "trial": 4, "time_elapsed": 858488, "serialpos": 0, "key_press": -1, "wordID": 1091, "type": "PRES_VIS", "trial_index": 157}, "uniqueid": "MTK3364:3VFJCI1K406PR2GWHD7M1J88Q1ORG6", "dateTime": 1520453373883}, {"current_trial": 158, "trialdata": {"rt": -1, "trial_type": "single-stim", "word": "parrot", "stimulus": "<p id=\"stim\">PARROT</p>", "conditions": [12, 1600, "v", 24000], "internal_node_id": "0.0-113.0", "trial": 4, "time_elapsed": 860967, "serialpos": 1, "key_press": -1, "wordID": 1014, "type": "PRES_VIS", "trial_index": 158}, "uniqueid": "MTK3364:3VFJCI1K406PR2GWHD7M1J88Q1ORG6", "dateTime": 1520453376360}, {"current_trial": 159, "trialdata": {"rt": -1, "trial_type": "single-stim", "word": "viking", "stimulus": "<p id=\"stim\">VIKING</p>", "conditions": [12, 1600, "v", 24000], "internal_node_id": "0.0-114.0", "trial": 4, "time_elapsed": 863407, "serialpos": 2, "key_press": -1, "wordID": 1564, "type": "PRES_VIS", "trial_index": 159}, "uniqueid": "MTK3364:3VFJCI1K406PR2GWHD7M1J88Q1ORG6", "dateTime": 1520453378801}, {"current_trial": 160, "trialdata": {"rt": -1, "trial_type": "single-stim", "word": "kidney", "stimulus": "<p id=\"stim\">KIDNEY</p>", "conditions": [12, 1600, "v", 24000], "internal_node_id": "0.0-115.0", "trial": 4, "time_elapsed": 866118, "serialpos": 3, "key_press": -1, "wordID": 775, "type": "PRES_VIS", "trial_index": 160}, "uniqueid": "MTK3364:3VFJCI1K406PR2GWHD7M1J88Q1ORG6", "dateTime": 1520453381511}, {"current_trial": 161, "trialdata": {"rt": -1, "trial_type": "single-stim", "word": "jury", "stimulus": "<p id=\"stim\">JURY</p>", "conditions": [12, 1600, "v", 24000], "internal_node_id": "0.0-116.0", "trial": 4, "time_elapsed": 868559, "serialpos": 4, "key_press": -1, "wordID": 765, "type": "PRES_VIS", "trial_index": 161}, "uniqueid": "MTK3364:3VFJCI1K406PR2GWHD7M1J88Q1ORG6", "dateTime": 1520453383952}, {"current_trial": 162, "trialdata": {"rt": -1, "trial_type": "single-stim", "word": "burglar", "stimulus": "<p id=\"stim\">BURGLAR</p>", "conditions": [12, 1600, "v", 24000], "internal_node_id": "0.0-117.0", "trial": 4, "time_elapsed": 871307, "serialpos": 5, "key_press": -1, "wordID": 199, "type": "PRES_VIS", "trial_index": 162}, "uniqueid": "MTK3364:3VFJCI1K406PR2GWHD7M1J88Q1ORG6", "dateTime": 1520453386700}, {"current_trial": 163, "trialdata": {"rt": -1, "trial_type": "single-stim", "word": "rifle", "stimulus": "<p id=\"stim\">RIFLE</p>", "conditions": [12, 1600, "v", 24000], "internal_node_id": "0.0-118.0", "trial": 4, "time_elapsed": 873871, "serialpos": 6, "key_press": -1, "wordID": 1191, "type": "PRES_VIS", "trial_index": 163}, "uniqueid": "MTK3364:3VFJCI1K406PR2GWHD7M1J88Q1ORG6", "dateTime": 1520453389266}, {"current_trial": 164, "trialdata": {"rt": -1, "trial_type": "single-stim", "word": "swimmer", "stimulus": "<p id=\"stim\">SWIMMER</p>", "conditions": [12, 1600, "v", 24000], "internal_node_id": "0.0-119.0", "trial": 4, "time_elapsed": 876381, "serialpos": 7, "key_press": -1, "wordID": 1419, "type": "PRES_VIS", "trial_index": 164}, "uniqueid": "MTK3364:3VFJCI1K406PR2GWHD7M1J88Q1ORG6", "dateTime": 1520453391776}, {"current_trial": 165, "trialdata": {"rt": -1, "trial_type": "single-stim", "word": "diver", "stimulus": "<p id=\"stim\">DIVER</p>", "conditions": [12, 1600, "v", 24000], "internal_node_id": "0.0-120.0", "trial": 4, "time_elapsed": 879023, "serialpos": 8, "key_press": -1, "wordID": 475, "type": "PRES_VIS", "trial_index": 165}, "uniqueid": "MTK3364:3VFJCI1K406PR2GWHD7M1J88Q1ORG6", "dateTime": 1520453394417}, {"current_trial": 166, "trialdata": {"rt": -1, "trial_type": "single-stim", "word": "zipper", "stimulus": "<p id=\"stim\">ZIPPER</p>", "conditions": [12, 1600, "v", 24000], "internal_node_id": "0.0-121.0", "trial": 4, "time_elapsed": 881534, "serialpos": 9, "key_press": -1, "wordID": 1635, "type": "PRES_VIS", "trial_index": 166}, "uniqueid": "MTK3364:3VFJCI1K406PR2GWHD7M1J88Q1ORG6", "dateTime": 1520453396927}, {"current_trial": 167, "trialdata": {"rt": -1, "trial_type": "single-stim", "word": "asia", "stimulus": "<p id=\"stim\">ASIA</p>", "conditions": [12, 1600, "v", 24000], "internal_node_id": "0.0-122.0", "trial": 4, "time_elapsed": 884156, "serialpos": 10, "key_press": -1, "wordID": 45, "type": "PRES_VIS", "trial_index": 167}, "uniqueid": "MTK3364:3VFJCI1K406PR2GWHD7M1J88Q1ORG6", "dateTime": 1520453399549}, {"current_trial": 168, "trialdata": {"rt": -1, "trial_type": "single-stim", "word": "liver", "stimulus": "<p id=\"stim\">LIVER</p>", "conditions": [12, 1600, "v", 24000], "internal_node_id": "0.0-123.0", "trial": 4, "time_elapsed": 886588, "serialpos": 11, "key_press": -1, "wordID": 832, "type": "PRES_VIS", "trial_index": 168}, "uniqueid": "MTK3364:3VFJCI1K406PR2GWHD7M1J88Q1ORG6", "dateTime": 1520453401981}, {"current_trial": 169, "trialdata": {"rt": -1, "trial_type": "single-stim", "stimulus": "", "internal_node_id": "0.0-124.0-0.0", "time_elapsed": 888785, "key_press": -1, "type": "PRE_RECALL_DELAY", "trial_index": 169}, "uniqueid": "MTK3364:3VFJCI1K406PR2GWHD7M1J88Q1ORG6", "dateTime": 1520453404178}, {"current_trial": 170, "trialdata": {"rt": -1000, "trial_type": "single-audio", "stimulus": "/static/audio/400Hz.wav", "internal_node_id": "0.0-125.0", "time_elapsed": 889288, "key_press": -1, "type": "PRE_RECALL_ALERT", "trial_index": 170}, "uniqueid": "MTK3364:3VFJCI1K406PR2GWHD7M1J88Q1ORG6", "dateTime": 1520453404681}, {"current_trial": 171, "trialdata": {"rt": [4849, 7531, 8943, 12445, 15539, 18283, 25700, 27465, 32536], "recwords": ["pluto", "swimmer", "diver", "jury", "burglar", "rifle", "pluto", "parrot", "viking"], "key_times": [3277, 3857, 4100, 4346, 4468, 4849, 5915, 6172, 6296, 6485, 6648, 6795, 6983, 7531, 8005, 8096, 8297, 8501, 8687, 8943, 11296, 11559, 11731, 11953, 12445, 13753, 13859, 14115, 14508, 14662, 14894, 15094, 15539, 16048, 16196, 16809, 17538, 17867, 18283, 24371, 24718, 24945, 25228, 25372, 25700, 26229, 26418, 26653, 26852, 26965, 27181, 27465, 31218, 31345, 31558, 31779, 31929, 32162, 32536], "trial_type": "free-recall", "conditions": [12, 1600, "v", 24000], "internal_node_id": "0.0-126.0-0.0", "key_presses": [80, 76, 85, 84, 79, 13, 83, 87, 73, 77, 77, 69, 82, 13, 68, 73, 86, 69, 82, 13, 74, 85, 82, 89, 13, 66, 85, 82, 71, 76, 65, 82, 13, 82, 73, 70, 76, 69, 13, 80, 76, 85, 84, 79, 13, 80, 65, 82, 82, 79, 84, 13, 86, 73, 75, 73, 78, 71, 13], "trial": 4, "time_elapsed": 949303, "type": "FREE_RECALL", "trial_index": 171}, "uniqueid": "MTK3364:3VFJCI1K406PR2GWHD7M1J88Q1ORG6", "dateTime": 1520453464703}, {"current_trial": 172, "trialdata": {"rt": 1491, "trial_type": "text", "internal_node_id": "0.0-127.0", "time_elapsed": 952803, "key_press": 32, "type": "INSTRUCTIONS", "trial_index": 172}, "uniqueid": "MTK3364:3VFJCI1K406PR2GWHD7M1J88Q1ORG6", "dateTime": 1520453468197}, {"current_trial": 173, "trialdata": {"rt": [4783, 6529, 8065, 9723, 11033], "trial_type": "math-distractor", "key_times": [4251, 4399, 4783, 6134, 6233, 6529, 7701, 7865, 8065, 9275, 9481, 9723, 10684, 10903, 11033, 11948], "responses": ["17", "10", "14", "16", "12"], "num2": [6, 2, 5, 5, 8, 3], "num3": [8, 3, 6, 3, 1, 1], "conditions": [24, 1600, "v", 12000], "internal_node_id": "0.0-128.0", "key_presses": [49, 55, 13, 49, 48, 13, 49, 52, 13, 49, 54, 13, 49, 50, 13, 49], "trial": 5, "time_elapsed": 966819, "type": "DISTRACTOR", "trial_index": 173, "num1": [3, 5, 3, 8, 3, 7]}, "uniqueid": "MTK3364:3VFJCI1K406PR2GWHD7M1J88Q1ORG6", "dateTime": 1520453482212}, {"current_trial": 174, "trialdata": {"rt": -1, "trial_type": "single-stim", "stimulus": "<p id=\"stim\">10</p>", "internal_node_id": "0.0-129.0-0.0", "time_elapsed": 969825, "key_press": -1, "trial_index": 174}, "uniqueid": "MTK3364:3VFJCI1K406PR2GWHD7M1J88Q1ORG6", "dateTime": 1520453485218}, {"current_trial": 175, "trialdata": {"rt": -1, "trial_type": "single-stim", "stimulus": "<p id=\"stim\">9</p>", "internal_node_id": "0.0-129.0-1.0", "time_elapsed": 970830, "key_press": -1, "trial_index": 175}, "uniqueid": "MTK3364:3VFJCI1K406PR2GWHD7M1J88Q1ORG6", "dateTime": 1520453486223}, {"current_trial": 176, "trialdata": {"rt": -1, "trial_type": "single-stim", "stimulus": "<p id=\"stim\">8</p>", "internal_node_id": "0.0-129.0-2.0", "time_elapsed": 971864, "key_press": -1, "trial_index": 176}, "uniqueid": "MTK3364:3VFJCI1K406PR2GWHD7M1J88Q1ORG6", "dateTime": 1520453487257}, {"current_trial": 177, "trialdata": {"rt": -1, "trial_type": "single-stim", "stimulus": "<p id=\"stim\">7</p>", "internal_node_id": "0.0-129.0-3.0", "time_elapsed": 972881, "key_press": -1, "trial_index": 177}, "uniqueid": "MTK3364:3VFJCI1K406PR2GWHD7M1J88Q1ORG6", "dateTime": 1520453488274}, {"current_trial": 178, "trialdata": {"rt": -1, "trial_type": "single-stim", "stimulus": "<p id=\"stim\">6</p>", "internal_node_id": "0.0-129.0-4.0", "time_elapsed": 973884, "key_press": -1, "trial_index": 178}, "uniqueid": "MTK3364:3VFJCI1K406PR2GWHD7M1J88Q1ORG6", "dateTime": 1520453489280}, {"current_trial": 179, "trialdata": {"rt": -1, "trial_type": "single-stim", "stimulus": "<p id=\"stim\">5</p>", "internal_node_id": "0.0-129.0-5.0", "time_elapsed": 974890, "key_press": -1, "trial_index": 179}, "uniqueid": "MTK3364:3VFJCI1K406PR2GWHD7M1J88Q1ORG6", "dateTime": 1520453490283}, {"current_trial": 180, "trialdata": {"rt": -1, "trial_type": "single-stim", "stimulus": "<p id=\"stim\">4</p>", "internal_node_id": "0.0-129.0-6.0", "time_elapsed": 975913, "key_press": -1, "trial_index": 180}, "uniqueid": "MTK3364:3VFJCI1K406PR2GWHD7M1J88Q1ORG6", "dateTime": 1520453491306}, {"current_trial": 181, "trialdata": {"rt": -1, "trial_type": "single-stim", "stimulus": "<p id=\"stim\">3</p>", "internal_node_id": "0.0-129.0-7.0", "time_elapsed": 976919, "key_press": -1, "trial_index": 181}, "uniqueid": "MTK3364:3VFJCI1K406PR2GWHD7M1J88Q1ORG6", "dateTime": 1520453492313}, {"current_trial": 182, "trialdata": {"rt": -1, "trial_type": "single-stim", "stimulus": "<p id=\"stim\">2</p>", "internal_node_id": "0.0-129.0-8.0", "time_elapsed": 977939, "key_press": -1, "trial_index": 182}, "uniqueid": "MTK3364:3VFJCI1K406PR2GWHD7M1J88Q1ORG6", "dateTime": 1520453493332}, {"current_trial": 183, "trialdata": {"rt": -1, "trial_type": "single-stim", "stimulus": "<p id=\"stim\">1</p>", "internal_node_id": "0.0-129.0-9.0", "time_elapsed": 978942, "key_press": -1, "trial_index": 183}, "uniqueid": "MTK3364:3VFJCI1K406PR2GWHD7M1J88Q1ORG6", "dateTime": 1520453494335}, {"current_trial": 184, "trialdata": {"rt": -1, "trial_type": "single-stim", "stimulus": "<p id=\"stim\">+</p>", "internal_node_id": "0.0-130.0-0.0", "time_elapsed": 980446, "key_press": -1, "type": "FIXATION", "trial_index": 184}, "uniqueid": "MTK3364:3VFJCI1K406PR2GWHD7M1J88Q1ORG6", "dateTime": 1520453495840}, {"current_trial": 185, "trialdata": {"rt": -1, "trial_type": "single-stim", "word": "lagoon", "stimulus": "<p id=\"stim\">LAGOON</p>", "conditions": [24, 1600, "v", 12000], "internal_node_id": "0.0-131.0", "trial": 5, "time_elapsed": 982057, "serialpos": 0, "key_press": -1, "wordID": 794, "type": "PRES_VIS", "trial_index": 185}, "uniqueid": "MTK3364:3VFJCI1K406PR2GWHD7M1J88Q1ORG6", "dateTime": 1520453497451}, {"current_trial": 186, "trialdata": {"rt": -1, "trial_type": "single-stim", "word": "teacher", "stimulus": "<p id=\"stim\">TEACHER</p>", "conditions": [24, 1600, "v", 12000], "internal_node_id": "0.0-132.0", "trial": 5, "time_elapsed": 984664, "serialpos": 1, "key_press": -1, "wordID": 1439, "type": "PRES_VIS", "trial_index": 186}, "uniqueid": "MTK3364:3VFJCI1K406PR2GWHD7M1J88Q1ORG6", "dateTime": 1520453500057}, {"current_trial": 187, "trialdata": {"rt": -1, "trial_type": "single-stim", "word": "leg", "stimulus": "<p id=\"stim\">LEG</p>", "conditions": [24, 1600, "v", 12000], "internal_node_id": "0.0-133.0", "trial": 5, "time_elapsed": 987271, "serialpos": 2, "key_press": -1, "wordID": 808, "type": "PRES_VIS", "trial_index": 187}, "uniqueid": "MTK3364:3VFJCI1K406PR2GWHD7M1J88Q1ORG6", "dateTime": 1520453502664}, {"current_trial": 188, "trialdata": {"rt": -1, "trial_type": "single-stim", "word": "rod", "stimulus": "<p id=\"stim\">ROD</p>", "conditions": [24, 1600, "v", 12000], "internal_node_id": "0.0-134.0", "trial": 5, "time_elapsed": 989825, "serialpos": 3, "key_press": -1, "wordID": 1202, "type": "PRES_VIS", "trial_index": 188}, "uniqueid": "MTK3364:3VFJCI1K406PR2GWHD7M1J88Q1ORG6", "dateTime": 1520453505219}, {"current_trial": 189, "trialdata": {"rt": -1, "trial_type": "single-stim", "word": "oyster", "stimulus": "<p id=\"stim\">OYSTER</p>", "conditions": [24, 1600, "v", 12000], "internal_node_id": "0.0-135.0", "trial": 5, "time_elapsed": 992295, "serialpos": 4, "key_press": -1, "wordID": 994, "type": "PRES_VIS", "trial_index": 189}, "uniqueid": "MTK3364:3VFJCI1K406PR2GWHD7M1J88Q1ORG6", "dateTime": 1520453507688}, {"current_trial": 190, "trialdata": {"rt": -1, "trial_type": "single-stim", "word": "salmon", "stimulus": "<p id=\"stim\">SALMON</p>", "conditions": [24, 1600, "v", 12000], "internal_node_id": "0.0-136.0", "trial": 5, "time_elapsed": 994725, "serialpos": 5, "key_press": -1, "wordID": 1226, "type": "PRES_VIS", "trial_index": 190}, "uniqueid": "MTK3364:3VFJCI1K406PR2GWHD7M1J88Q1ORG6", "dateTime": 1520453510118}, {"current_trial": 191, "trialdata": {"rt": -1, "trial_type": "single-stim", "word": "barley", "stimulus": "<p id=\"stim\">BARLEY</p>", "conditions": [24, 1600, "v", 12000], "internal_node_id": "0.0-137.0", "trial": 5, "time_elapsed": 997546, "serialpos": 6, "key_press": -1, "wordID": 87, "type": "PRES_VIS", "trial_index": 191}, "uniqueid": "MTK3364:3VFJCI1K406PR2GWHD7M1J88Q1ORG6", "dateTime": 1520453512939}, {"current_trial": 192, "trialdata": {"rt": -1, "trial_type": "single-stim", "word": "atom", "stimulus": "<p id=\"stim\">ATOM</p>", "conditions": [24, 1600, "v", 12000], "internal_node_id": "0.0-138.0", "trial": 5, "time_elapsed": 1000156, "serialpos": 7, "key_press": -1, "wordID": 54, "type": "PRES_VIS", "trial_index": 192}, "uniqueid": "MTK3364:3VFJCI1K406PR2GWHD7M1J88Q1ORG6", "dateTime": 1520453515550}, {"current_trial": 193, "trialdata": {"rt": -1, "trial_type": "single-stim", "word": "driver", "stimulus": "<p id=\"stim\">DRIVER</p>", "conditions": [24, 1600, "v", 12000], "internal_node_id": "0.0-139.0", "trial": 5, "time_elapsed": 1002726, "serialpos": 8, "key_press": -1, "wordID": 498, "type": "PRES_VIS", "trial_index": 193}, "uniqueid": "MTK3364:3VFJCI1K406PR2GWHD7M1J88Q1ORG6", "dateTime": 1520453518120}, {"current_trial": 194, "trialdata": {"rt": -1, "trial_type": "single-stim", "word": "honey", "stimulus": "<p id=\"stim\">HONEY</p>", "conditions": [24, 1600, "v", 12000], "internal_node_id": "0.0-140.0", "trial": 5, "time_elapsed": 1005218, "serialpos": 9, "key_press": -1, "wordID": 712, "type": "PRES_VIS", "trial_index": 194}, "uniqueid": "MTK3364:3VFJCI1K406PR2GWHD7M1J88Q1ORG6", "dateTime": 1520453520611}, {"current_trial": 195, "trialdata": {"rt": -1, "trial_type": "single-stim", "word": "sandwich", "stimulus": "<p id=\"stim\">SANDWICH</p>", "conditions": [24, 1600, "v", 12000], "internal_node_id": "0.0-141.0", "trial": 5, "time_elapsed": 1007948, "serialpos": 10, "key_press": -1, "wordID": 1231, "type": "PRES_VIS", "trial_index": 195}, "uniqueid": "MTK3364:3VFJCI1K406PR2GWHD7M1J88Q1ORG6", "dateTime": 1520453523341}, {"current_trial": 196, "trialdata": {"rt": -1, "trial_type": "single-stim", "word": "lake", "stimulus": "<p id=\"stim\">LAKE</p>", "conditions": [24, 1600, "v", 12000], "internal_node_id": "0.0-142.0", "trial": 5, "time_elapsed": 1010610, "serialpos": 11, "key_press": -1, "wordID": 795, "type": "PRES_VIS", "trial_index": 196}, "uniqueid": "MTK3364:3VFJCI1K406PR2GWHD7M1J88Q1ORG6", "dateTime": 1520453526003}, {"current_trial": 197, "trialdata": {"rt": -1, "trial_type": "single-stim", "word": "blueprint", "stimulus": "<p id=\"stim\">BLUEPRINT</p>", "conditions": [24, 1600, "v", 12000], "internal_node_id": "0.0-143.0", "trial": 5, "time_elapsed": 1013216, "serialpos": 12, "key_press": -1, "wordID": 141, "type": "PRES_VIS", "trial_index": 197}, "uniqueid": "MTK3364:3VFJCI1K406PR2GWHD7M1J88Q1ORG6", "dateTime": 1520453528610}, {"current_trial": 198, "trialdata": {"rt": -1, "trial_type": "single-stim", "word": "slime", "stimulus": "<p id=\"stim\">SLIME</p>", "conditions": [24, 1600, "v", 12000], "internal_node_id": "0.0-144.0", "trial": 5, "time_elapsed": 1015945, "serialpos": 13, "key_press": -1, "wordID": 1326, "type": "PRES_VIS", "trial_index": 198}, "uniqueid": "MTK3364:3VFJCI1K406PR2GWHD7M1J88Q1ORG6", "dateTime": 1520453531338}, {"current_trial": 199, "trialdata": {"rt": -1, "trial_type": "single-stim", "word": "woman", "stimulus": "<p id=\"stim\">WOMAN</p>", "conditions": [24, 1600, "v", 12000], "internal_node_id": "0.0-145.0", "trial": 5, "time_elapsed": 1018425, "serialpos": 14, "key_press": -1, "wordID": 1619, "type": "PRES_VIS", "trial_index": 199}, "uniqueid": "MTK3364:3VFJCI1K406PR2GWHD7M1J88Q1ORG6", "dateTime": 1520453533819}, {"current_trial": 200, "trialdata": {"rt": -1, "trial_type": "single-stim", "word": "turnip", "stimulus": "<p id=\"stim\">TURNIP</p>", "conditions": [24, 1600, "v", 12000], "internal_node_id": "0.0-146.0", "trial": 5, "time_elapsed": 1021220, "serialpos": 15, "key_press": -1, "wordID": 1520, "type": "PRES_VIS", "trial_index": 200}, "uniqueid": "MTK3364:3VFJCI1K406PR2GWHD7M1J88Q1ORG6", "dateTime": 1520453536613}, {"current_trial": 201, "trialdata": {"rt": -1, "trial_type": "single-stim", "word": "laser", "stimulus": "<p id=\"stim\">LASER</p>", "conditions": [24, 1600, "v", 12000], "internal_node_id": "0.0-147.0", "trial": 5, "time_elapsed": 1023891, "serialpos": 16, "key_press": -1, "wordID": 800, "type": "PRES_VIS", "trial_index": 201}, "uniqueid": "MTK3364:3VFJCI1K406PR2GWHD7M1J88Q1ORG6", "dateTime": 1520453539285}, {"current_trial": 202, "trialdata": {"rt": -1, "trial_type": "single-stim", "word": "lace", "stimulus": "<p id=\"stim\">LACE</p>", "conditions": [24, 1600, "v", 12000], "internal_node_id": "0.0-148.0", "trial": 5, "time_elapsed": 1026588, "serialpos": 17, "key_press": -1, "wordID": 791, "type": "PRES_VIS", "trial_index": 202}, "uniqueid": "MTK3364:3VFJCI1K406PR2GWHD7M1J88Q1ORG6", "dateTime": 1520453541981}, {"current_trial": 203, "trialdata": {"rt": -1, "trial_type": "single-stim", "word": "velvet", "stimulus": "<p id=\"stim\">VELVET</p>", "conditions": [24, 1600, "v", 12000], "internal_node_id": "0.0-149.0", "trial": 5, "time_elapsed": 1029196, "serialpos": 18, "key_press": -1, "wordID": 1554, "type": "PRES_VIS", "trial_index": 203}, "uniqueid": "MTK3364:3VFJCI1K406PR2GWHD7M1J88Q1ORG6", "dateTime": 1520453544591}, {"current_trial": 204, "trialdata": {"rt": -1, "trial_type": "single-stim", "word": "cabbage", "stimulus": "<p id=\"stim\">CABBAGE</p>", "conditions": [24, 1600, "v", 12000], "internal_node_id": "0.0-150.0", "trial": 5, "time_elapsed": 1031917, "serialpos": 19, "key_press": -1, "wordID": 209, "type": "PRES_VIS", "trial_index": 204}, "uniqueid": "MTK3364:3VFJCI1K406PR2GWHD7M1J88Q1ORG6", "dateTime": 1520453547310}, {"current_trial": 205, "trialdata": {"rt": -1, "trial_type": "single-stim", "word": "cross", "stimulus": "<p id=\"stim\">CROSS</p>", "conditions": [24, 1600, "v", 12000], "internal_node_id": "0.0-151.0", "trial": 5, "time_elapsed": 1034421, "serialpos": 20, "key_press": -1, "wordID": 412, "type": "PRES_VIS", "trial_index": 205}, "uniqueid": "MTK3364:3VFJCI1K406PR2GWHD7M1J88Q1ORG6", "dateTime": 1520453549814}, {"current_trial": 206, "trialdata": {"rt": -1, "trial_type": "single-stim", "word": "foot", "stimulus": "<p id=\"stim\">FOOT</p>", "conditions": [24, 1600, "v", 12000], "internal_node_id": "0.0-152.0", "trial": 5, "time_elapsed": 1037059, "serialpos": 21, "key_press": -1, "wordID": 589, "type": "PRES_VIS", "trial_index": 206}, "uniqueid": "MTK3364:3VFJCI1K406PR2GWHD7M1J88Q1ORG6", "dateTime": 1520453552454}, {"current_trial": 207, "trialdata": {"rt": -1, "trial_type": "single-stim", "word": "freckle", "stimulus": "<p id=\"stim\">FRECKLE</p>", "conditions": [24, 1600, "v", 12000], "internal_node_id": "0.0-153.0", "trial": 5, "time_elapsed": 1039568, "serialpos": 22, "key_press": -1, "wordID": 601, "type": "PRES_VIS", "trial_index": 207}, "uniqueid": "MTK3364:3VFJCI1K406PR2GWHD7M1J88Q1ORG6", "dateTime": 1520453554961}, {"current_trial": 208, "trialdata": {"rt": -1, "trial_type": "single-stim", "word": "star", "stimulus": "<p id=\"stim\">STAR</p>", "conditions": [24, 1600, "v", 12000], "internal_node_id": "0.0-154.0", "trial": 5, "time_elapsed": 1042316, "serialpos": 23, "key_press": -1, "wordID": 1372, "type": "PRES_VIS", "trial_index": 208}, "uniqueid": "MTK3364:3VFJCI1K406PR2GWHD7M1J88Q1ORG6", "dateTime": 1520453557709}, {"current_trial": 209, "trialdata": {"rt": -1, "trial_type": "single-stim", "stimulus": "", "internal_node_id": "0.0-155.0-0.0", "time_elapsed": 1044571, "key_press": -1, "type": "PRE_RECALL_DELAY", "trial_index": 209}, "uniqueid": "MTK3364:3VFJCI1K406PR2GWHD7M1J88Q1ORG6", "dateTime": 1520453559965}, {"current_trial": 210, "trialdata": {"rt": -1000, "trial_type": "single-audio", "stimulus": "/static/audio/400Hz.wav", "internal_node_id": "0.0-156.0", "time_elapsed": 1045074, "key_press": -1, "type": "PRE_RECALL_ALERT", "trial_index": 210}, "uniqueid": "MTK3364:3VFJCI1K406PR2GWHD7M1J88Q1ORG6", "dateTime": 1520453560467}, {"current_trial": 211, "trialdata": {"rt": [5613, 7772, 13647, 14827, 19364, 22684, 30441, 36716, 38661], "recwords": ["star", "freckle", "laser", "lace", "salmon", "oyster", "woman", "honey", "sandwich"], "key_times": [4131, 4484, 4726, 4883, 5613, 5956, 6166, 6369, 6669, 6783, 7149, 7392, 7772, 11234, 11609, 11919, 12402, 12575, 12743, 13004, 13232, 13424, 13647, 13930, 14111, 14347, 14589, 14827, 17895, 18109, 18216, 18655, 18797, 18947, 19364, 21287, 21537, 21758, 21957, 22140, 22332, 22684, 29389, 29513, 29673, 29868, 29961, 30441, 33876, 34797, 35562, 35758, 35873, 36112, 36424, 36716, 37017, 37251, 37386, 37591, 37827, 38008, 38237, 38334, 38661], "trial_type": "free-recall", "conditions": [24, 1600, "v", 12000], "internal_node_id": "0.0-157.0-0.0", "key_presses": [83, 84, 65, 82, 13, 70, 82, 69, 67, 75, 76, 69, 13, 76, 83, 69, 8, 8, 65, 83, 69, 82, 13, 76, 65, 67, 69, 13, 83, 65, 76, 77, 79, 78, 13, 79, 89, 83, 84, 69, 82, 13, 87, 79, 77, 65, 78, 13, 74, 8, 72, 79, 78, 69, 89, 13, 83, 65, 78, 68, 87, 73, 67, 72, 13], "trial": 5, "time_elapsed": 1105084, "type": "FREE_RECALL", "trial_index": 211}, "uniqueid": "MTK3364:3VFJCI1K406PR2GWHD7M1J88Q1ORG6", "dateTime": 1520453620489}, {"current_trial": 212, "trialdata": {"rt": 1126, "trial_type": "text", "internal_node_id": "0.0-158.0", "time_elapsed": 1108223, "key_press": 32, "type": "INSTRUCTIONS", "trial_index": 212}, "uniqueid": "MTK3364:3VFJCI1K406PR2GWHD7M1J88Q1ORG6", "dateTime": 1520453623618}, {"current_trial": 213, "trialdata": {"rt": [3791, 6095, 8316, 10522], "trial_type": "math-distractor", "key_times": [3339, 3568, 3791, 5718, 5899, 6095, 7811, 7971, 8316, 10071, 10297, 10522, 12012], "responses": ["12", "12", "10", "24"], "num2": [6, 1, 1, 9, 4], "num3": [2, 9, 3, 7, 2], "conditions": [12, 800, "v", 12000], "internal_node_id": "0.0-159.0", "key_presses": [49, 50, 13, 49, 50, 13, 49, 48, 13, 50, 52, 13, 57], "trial": 6, "time_elapsed": 1122260, "type": "DISTRACTOR", "trial_index": 213, "num1": [4, 2, 6, 8, 3]}, "uniqueid": "MTK3364:3VFJCI1K406PR2GWHD7M1J88Q1ORG6", "dateTime": 1520453637654}, {"current_trial": 214, "trialdata": {"rt": -1, "trial_type": "single-stim", "stimulus": "<p id=\"stim\">10</p>", "internal_node_id": "0.0-160.0-0.0", "time_elapsed": 1125264, "key_press": -1, "trial_index": 214}, "uniqueid": "MTK3364:3VFJCI1K406PR2GWHD7M1J88Q1ORG6", "dateTime": 1520453640657}, {"current_trial": 215, "trialdata": {"rt": -1, "trial_type": "single-stim", "stimulus": "<p id=\"stim\">9</p>", "internal_node_id": "0.0-160.0-1.0", "time_elapsed": 1126270, "key_press": -1, "trial_index": 215}, "uniqueid": "MTK3364:3VFJCI1K406PR2GWHD7M1J88Q1ORG6", "dateTime": 1520453641664}, {"current_trial": 216, "trialdata": {"rt": -1, "trial_type": "single-stim", "stimulus": "<p id=\"stim\">8</p>", "internal_node_id": "0.0-160.0-2.0", "time_elapsed": 1127275, "key_press": -1, "trial_index": 216}, "uniqueid": "MTK3364:3VFJCI1K406PR2GWHD7M1J88Q1ORG6", "dateTime": 1520453642668}, {"current_trial": 217, "trialdata": {"rt": -1, "trial_type": "single-stim", "stimulus": "<p id=\"stim\">7</p>", "internal_node_id": "0.0-160.0-3.0", "time_elapsed": 1128284, "key_press": -1, "trial_index": 217}, "uniqueid": "MTK3364:3VFJCI1K406PR2GWHD7M1J88Q1ORG6", "dateTime": 1520453643677}, {"current_trial": 218, "trialdata": {"rt": -1, "trial_type": "single-stim", "stimulus": "<p id=\"stim\">6</p>", "internal_node_id": "0.0-160.0-4.0", "time_elapsed": 1129296, "key_press": -1, "trial_index": 218}, "uniqueid": "MTK3364:3VFJCI1K406PR2GWHD7M1J88Q1ORG6", "dateTime": 1520453644690}, {"current_trial": 219, "trialdata": {"rt": -1, "trial_type": "single-stim", "stimulus": "<p id=\"stim\">5</p>", "internal_node_id": "0.0-160.0-5.0", "time_elapsed": 1130333, "key_press": -1, "trial_index": 219}, "uniqueid": "MTK3364:3VFJCI1K406PR2GWHD7M1J88Q1ORG6", "dateTime": 1520453645727}, {"current_trial": 220, "trialdata": {"rt": -1, "trial_type": "single-stim", "stimulus": "<p id=\"stim\">4</p>", "internal_node_id": "0.0-160.0-6.0", "time_elapsed": 1131339, "key_press": -1, "trial_index": 220}, "uniqueid": "MTK3364:3VFJCI1K406PR2GWHD7M1J88Q1ORG6", "dateTime": 1520453646733}, {"current_trial": 221, "trialdata": {"rt": -1, "trial_type": "single-stim", "stimulus": "<p id=\"stim\">3</p>", "internal_node_id": "0.0-160.0-7.0", "time_elapsed": 1132342, "key_press": -1, "trial_index": 221}, "uniqueid": "MTK3364:3VFJCI1K406PR2GWHD7M1J88Q1ORG6", "dateTime": 1520453647738}, {"current_trial": 222, "trialdata": {"rt": -1, "trial_type": "single-stim", "stimulus": "<p id=\"stim\">2</p>", "internal_node_id": "0.0-160.0-8.0", "time_elapsed": 1133348, "key_press": -1, "trial_index": 222}, "uniqueid": "MTK3364:3VFJCI1K406PR2GWHD7M1J88Q1ORG6", "dateTime": 1520453648741}, {"current_trial": 223, "trialdata": {"rt": -1, "trial_type": "single-stim", "stimulus": "<p id=\"stim\">1</p>", "internal_node_id": "0.0-160.0-9.0", "time_elapsed": 1134354, "key_press": -1, "trial_index": 223}, "uniqueid": "MTK3364:3VFJCI1K406PR2GWHD7M1J88Q1ORG6", "dateTime": 1520453649749}, {"current_trial": 224, "trialdata": {"rt": -1, "trial_type": "single-stim", "stimulus": "<p id=\"stim\">+</p>", "internal_node_id": "0.0-161.0-0.0", "time_elapsed": 1135857, "key_press": -1, "type": "FIXATION", "trial_index": 224}, "uniqueid": "MTK3364:3VFJCI1K406PR2GWHD7M1J88Q1ORG6", "dateTime": 1520453651251}, {"current_trial": 225, "trialdata": {"rt": -1, "trial_type": "single-stim", "word": "sibling", "stimulus": "<p id=\"stim\">SIBLING</p>", "conditions": [12, 800, "v", 12000], "internal_node_id": "0.0-162.0", "trial": 6, "time_elapsed": 1136665, "serialpos": 0, "key_press": -1, "wordID": 1300, "type": "PRES_VIS", "trial_index": 225}, "uniqueid": "MTK3364:3VFJCI1K406PR2GWHD7M1J88Q1ORG6", "dateTime": 1520453652058}, {"current_trial": 226, "trialdata": {"rt": -1, "trial_type": "single-stim", "word": "taxi", "stimulus": "<p id=\"stim\">TAXI</p>", "conditions": [12, 800, "v", 12000], "internal_node_id": "0.0-163.0", "trial": 6, "time_elapsed": 1138448, "serialpos": 1, "key_press": -1, "wordID": 1437, "type": "PRES_VIS", "trial_index": 226}, "uniqueid": "MTK3364:3VFJCI1K406PR2GWHD7M1J88Q1ORG6", "dateTime": 1520453653841}, {"current_trial": 227, "trialdata": {"rt": -1, "trial_type": "single-stim", "word": "sparrow", "stimulus": "<p id=\"stim\">SPARROW</p>", "conditions": [12, 800, "v", 12000], "internal_node_id": "0.0-164.0", "trial": 6, "time_elapsed": 1140275, "serialpos": 2, "key_press": -1, "wordID": 1346, "type": "PRES_VIS", "trial_index": 227}, "uniqueid": "MTK3364:3VFJCI1K406PR2GWHD7M1J88Q1ORG6", "dateTime": 1520453655668}, {"current_trial": 228, "trialdata": {"rt": -1, "trial_type": "single-stim", "word": "tile", "stimulus": "<p id=\"stim\">TILE</p>", "conditions": [12, 800, "v", 12000], "internal_node_id": "0.0-165.0", "trial": 6, "time_elapsed": 1142280, "serialpos": 3, "key_press": -1, "wordID": 1467, "type": "PRES_VIS", "trial_index": 228}, "uniqueid": "MTK3364:3VFJCI1K406PR2GWHD7M1J88Q1ORG6", "dateTime": 1520453657673}, {"current_trial": 229, "trialdata": {"rt": -1, "trial_type": "single-stim", "word": "stallion", "stimulus": "<p id=\"stim\">STALLION</p>", "conditions": [12, 800, "v", 12000], "internal_node_id": "0.0-166.0", "trial": 6, "time_elapsed": 1144210, "serialpos": 4, "key_press": -1, "wordID": 1368, "type": "PRES_VIS", "trial_index": 229}, "uniqueid": "MTK3364:3VFJCI1K406PR2GWHD7M1J88Q1ORG6", "dateTime": 1520453659604}, {"current_trial": 230, "trialdata": {"rt": -1, "trial_type": "single-stim", "word": "robin", "stimulus": "<p id=\"stim\">ROBIN</p>", "conditions": [12, 800, "v", 12000], "internal_node_id": "0.0-167.0", "trial": 6, "time_elapsed": 1145834, "serialpos": 5, "key_press": -1, "wordID": 1198, "type": "PRES_VIS", "trial_index": 230}, "uniqueid": "MTK3364:3VFJCI1K406PR2GWHD7M1J88Q1ORG6", "dateTime": 1520453661229}, {"current_trial": 231, "trialdata": {"rt": -1, "trial_type": "single-stim", "word": "igloo", "stimulus": "<p id=\"stim\">IGLOO</p>", "conditions": [12, 800, "v", 12000], "internal_node_id": "0.0-168.0", "trial": 6, "time_elapsed": 1147586, "serialpos": 6, "key_press": -1, "wordID": 733, "type": "PRES_VIS", "trial_index": 231}, "uniqueid": "MTK3364:3VFJCI1K406PR2GWHD7M1J88Q1ORG6", "dateTime": 1520453662979}, {"current_trial": 232, "trialdata": {"rt": -1, "trial_type": "single-stim", "word": "orchid", "stimulus": "<p id=\"stim\">ORCHID</p>", "conditions": [12, 800, "v", 12000], "internal_node_id": "0.0-169.0", "trial": 6, "time_elapsed": 1149614, "serialpos": 7, "key_press": -1, "wordID": 981, "type": "PRES_VIS", "trial_index": 232}, "uniqueid": "MTK3364:3VFJCI1K406PR2GWHD7M1J88Q1ORG6", "dateTime": 1520453665007}, {"current_trial": 233, "trialdata": {"rt": -1, "trial_type": "single-stim", "word": "temple", "stimulus": "<p id=\"stim\">TEMPLE</p>", "conditions": [12, 800, "v", 12000], "internal_node_id": "0.0-170.0", "trial": 6, "time_elapsed": 1151531, "serialpos": 8, "key_press": -1, "wordID": 1447, "type": "PRES_VIS", "trial_index": 233}, "uniqueid": "MTK3364:3VFJCI1K406PR2GWHD7M1J88Q1ORG6", "dateTime": 1520453666929}, {"current_trial": 234, "trialdata": {"rt": -1, "trial_type": "single-stim", "word": "globe", "stimulus": "<p id=\"stim\">GLOBE</p>", "conditions": [12, 800, "v", 12000], "internal_node_id": "0.0-171.0", "trial": 6, "time_elapsed": 1153242, "serialpos": 9, "key_press": -1, "wordID": 640, "type": "PRES_VIS", "trial_index": 234}, "uniqueid": "MTK3364:3VFJCI1K406PR2GWHD7M1J88Q1ORG6", "dateTime": 1520453668635}, {"current_trial": 235, "trialdata": {"rt": -1, "trial_type": "single-stim", "word": "world", "stimulus": "<p id=\"stim\">WORLD</p>", "conditions": [12, 800, "v", 12000], "internal_node_id": "0.0-172.0", "trial": 6, "time_elapsed": 1155136, "serialpos": 10, "key_press": -1, "wordID": 1621, "type": "PRES_VIS", "trial_index": 235}, "uniqueid": "MTK3364:3VFJCI1K406PR2GWHD7M1J88Q1ORG6", "dateTime": 1520453670529}, {"current_trial": 236, "trialdata": {"rt": -1, "trial_type": "single-stim", "word": "jelly", "stimulus": "<p id=\"stim\">JELLY</p>", "conditions": [12, 800, "v", 12000], "internal_node_id": "0.0-173.0", "trial": 6, "time_elapsed": 1157135, "serialpos": 11, "key_press": -1, "wordID": 754, "type": "PRES_VIS", "trial_index": 236}, "uniqueid": "MTK3364:3VFJCI1K406PR2GWHD7M1J88Q1ORG6", "dateTime": 1520453672528}, {"current_trial": 237, "trialdata": {"rt": -1, "trial_type": "single-stim", "stimulus": "", "internal_node_id": "0.0-174.0-0.0", "time_elapsed": 1159278, "key_press": -1, "type": "PRE_RECALL_DELAY", "trial_index": 237}, "uniqueid": "MTK3364:3VFJCI1K406PR2GWHD7M1J88Q1ORG6", "dateTime": 1520453674671}, {"current_trial": 238, "trialdata": {"rt": -1000, "trial_type": "single-audio", "stimulus": "/static/audio/400Hz.wav", "internal_node_id": "0.0-175.0", "time_elapsed": 1159785, "key_press": -1, "type": "PRE_RECALL_ALERT", "trial_index": 238}, "uniqueid": "MTK3364:3VFJCI1K406PR2GWHD7M1J88Q1ORG6", "dateTime": 1520453675178}, {"current_trial": 239, "trialdata": {"rt": [4862, 6334, 8016, 13904, 16419, 19582, 24717, 34799], "recwords": ["globe", "world", "temple", "sparrow", "sibling", "taxi", "tire", "igloo"], "key_times": [3250, 3360, 3563, 4225, 4577, 4862, 5298, 5416, 5665, 5812, 6092, 6334, 6809, 7031, 7146, 7324, 7589, 7783, 8016, 12391, 12598, 12909, 13127, 13303, 13436, 13603, 13904, 14316, 14497, 14728, 14838, 15811, 16008, 16249, 16419, 18345, 18662, 19107, 19256, 19582, 23907, 24098, 24206, 24440, 24717, 32837, 33088, 33426, 34105, 34367, 34799], "trial_type": "free-recall", "conditions": [12, 800, "v", 12000], "internal_node_id": "0.0-176.0-0.0", "key_presses": [71, 76, 79, 66, 69, 13, 87, 79, 82, 76, 68, 13, 84, 69, 77, 80, 76, 69, 13, 83, 80, 65, 82, 82, 79, 87, 13, 83, 73, 66, 76, 73, 78, 71, 13, 84, 65, 88, 73, 13, 84, 73, 82, 69, 13, 73, 71, 76, 79, 79, 13], "trial": 6, "time_elapsed": 1219799, "type": "FREE_RECALL", "trial_index": 239}, "uniqueid": "MTK3364:3VFJCI1K406PR2GWHD7M1J88Q1ORG6", "dateTime": 1520453735204}, {"current_trial": 240, "trialdata": {"rt": 1774, "trial_type": "text", "internal_node_id": "0.0-177.0", "time_elapsed": 1223591, "key_press": 32, "type": "INSTRUCTIONS", "trial_index": 240}, "uniqueid": "MTK3364:3VFJCI1K406PR2GWHD7M1J88Q1ORG6", "dateTime": 1520453738984}, {"current_trial": 241, "trialdata": {"rt": [2556, 4586, 6833, 9278, 11170, 12867, 14861, 16880, 18932, 20516, 22954], "trial_type": "math-distractor", "key_times": [1968, 2109, 2556, 4143, 4341, 4586, 6323, 6440, 6833, 8826, 9054, 9278, 10771, 10984, 11170, 12493, 12709, 12867, 14471, 14694, 14861, 16515, 16750, 16880, 18453, 18698, 18932, 20161, 20375, 20516, 22412, 22570, 22954, 24017], "responses": ["19", "24", "17", "12", "21", "12", "12", "12", "21", "14", "18"], "num2": [3, 6, 2, 5, 8, 6, 5, 9, 7, 2, 5, 6], "num3": [7, 9, 6, 5, 8, 3, 4, 2, 8, 4, 5, 9], "conditions": [12, 800, "v", 24000], "internal_node_id": "0.0-178.0", "key_presses": [49, 57, 13, 50, 52, 13, 49, 55, 13, 49, 50, 13, 50, 49, 13, 49, 50, 13, 49, 50, 13, 49, 50, 13, 50, 49, 13, 49, 52, 13, 49, 56, 13, 49], "trial": 7, "time_elapsed": 1249671, "type": "DISTRACTOR", "trial_index": 241, "num1": [9, 9, 9, 2, 5, 3, 3, 1, 6, 8, 8, 4]}, "uniqueid": "MTK3364:3VFJCI1K406PR2GWHD7M1J88Q1ORG6", "dateTime": 1520453765064}, {"current_trial": 242, "trialdata": {"rt": -1, "trial_type": "single-stim", "stimulus": "<p id=\"stim\">10</p>", "internal_node_id": "0.0-179.0-0.0", "time_elapsed": 1252677, "key_press": -1, "trial_index": 242}, "uniqueid": "MTK3364:3VFJCI1K406PR2GWHD7M1J88Q1ORG6", "dateTime": 1520453768071}, {"current_trial": 243, "trialdata": {"rt": -1, "trial_type": "single-stim", "stimulus": "<p id=\"stim\">9</p>", "internal_node_id": "0.0-179.0-1.0", "time_elapsed": 1253679, "key_press": -1, "trial_index": 243}, "uniqueid": "MTK3364:3VFJCI1K406PR2GWHD7M1J88Q1ORG6", "dateTime": 1520453769074}, {"current_trial": 244, "trialdata": {"rt": -1, "trial_type": "single-stim", "stimulus": "<p id=\"stim\">8</p>", "internal_node_id": "0.0-179.0-2.0", "time_elapsed": 1254683, "key_press": -1, "trial_index": 244}, "uniqueid": "MTK3364:3VFJCI1K406PR2GWHD7M1J88Q1ORG6", "dateTime": 1520453770077}, {"current_trial": 245, "trialdata": {"rt": -1, "trial_type": "single-stim", "stimulus": "<p id=\"stim\">7</p>", "internal_node_id": "0.0-179.0-3.0", "time_elapsed": 1255692, "key_press": -1, "trial_index": 245}, "uniqueid": "MTK3364:3VFJCI1K406PR2GWHD7M1J88Q1ORG6", "dateTime": 1520453771092}, {"current_trial": 246, "trialdata": {"rt": -1, "trial_type": "single-stim", "stimulus": "<p id=\"stim\">6</p>", "internal_node_id": "0.0-179.0-4.0", "time_elapsed": 1256708, "key_press": -1, "trial_index": 246}, "uniqueid": "MTK3364:3VFJCI1K406PR2GWHD7M1J88Q1ORG6", "dateTime": 1520453772101}, {"current_trial": 247, "trialdata": {"rt": -1, "trial_type": "single-stim", "stimulus": "<p id=\"stim\">5</p>", "internal_node_id": "0.0-179.0-5.0", "time_elapsed": 1257710, "key_press": -1, "trial_index": 247}, "uniqueid": "MTK3364:3VFJCI1K406PR2GWHD7M1J88Q1ORG6", "dateTime": 1520453773103}, {"current_trial": 248, "trialdata": {"rt": -1, "trial_type": "single-stim", "stimulus": "<p id=\"stim\">4</p>", "internal_node_id": "0.0-179.0-6.0", "time_elapsed": 1258714, "key_press": -1, "trial_index": 248}, "uniqueid": "MTK3364:3VFJCI1K406PR2GWHD7M1J88Q1ORG6", "dateTime": 1520453774107}, {"current_trial": 249, "trialdata": {"rt": -1, "trial_type": "single-stim", "stimulus": "<p id=\"stim\">3</p>", "internal_node_id": "0.0-179.0-7.0", "time_elapsed": 1259743, "key_press": -1, "trial_index": 249}, "uniqueid": "MTK3364:3VFJCI1K406PR2GWHD7M1J88Q1ORG6", "dateTime": 1520453775136}, {"current_trial": 250, "trialdata": {"rt": -1, "trial_type": "single-stim", "stimulus": "<p id=\"stim\">2</p>", "internal_node_id": "0.0-179.0-8.0", "time_elapsed": 1260747, "key_press": -1, "trial_index": 250}, "uniqueid": "MTK3364:3VFJCI1K406PR2GWHD7M1J88Q1ORG6", "dat