{"assignmentId": "3O6CYIULEE8D4GYD0C69SXHGR1MUW6", "workerId": "MTK3597", "questiondata": {"origin": "United States", "strat-rehearsal": "73", "marital": "Divorced", "education": "Doctorate degree", "ethnicity": "Not Hispanic", "color_depth": 24, "distracted": "No", "wrote-notes": "No", "strat-other": "", "screen_width": 1366, "avail_screen_width": 1366, "avail_screen_height": 728, "strat-image": "71", "language": "english", "gender": "Male", "age": "55", "gender_other": "", "race": ["White"], "strat-categorize": "73", "pixel_depth": 24, "strat-spatial": "21", "strat-story": "54", "race_other": "", "screen_height": 768}, "bonus": 0, "hitId": "3HEADTGN2PZ6MF8XG616C0FYSHKVRD", "counterbalance": 745, "useragent": "Mozilla/5.0 (Windows NT 10.0; Win64; x64) AppleWebKit/537.36 (KHTML, like Gecko) Chrome/64.0.3282.186 Safari/537.36", "eventdata": [{"eventtype": "initialized", "interval": 0, "value": null, "timestamp": 1520799688341}, {"eventtype": "window_resize", "interval": 0, "value": [1366, 721], "timestamp": 1520799688341}, {"eventtype": "focus", "interval": 308315, "value": "off", "timestamp": 1520799996656}, {"eventtype": "focus", "interval": 55929, "value": "on", "timestamp": 1520800052585}], "data": [{"current_trial": 0, "trialdata": {"rt": 1801, "trial_type": "text", "internal_node_id": "0.0-0.0", "time_elapsed": 1806, "key_press": 69, "type": "INSTRUCTIONS", "trial_index": 0}, "uniqueid": "MTK3597:3O6CYIULEE8D4GYD0C69SXHGR1MUW6", "dateTime": 1520799696924}, {"current_trial": 1, "trialdata": {"rt": 1015, "trial_type": "text", "internal_node_id": "0.0-1.0", "time_elapsed": 2825, "key_press": 69, "type": "INSTRUCTIONS", "trial_index": 1}, "uniqueid": "MTK3597:3O6CYIULEE8D4GYD0C69SXHGR1MUW6", "dateTime": 1520799697941}, {"current_trial": 2, "trialdata": {"rt": [11900], "trial_type": "audio-test", "responses": ["ocean"], "internal_node_id": "0.0-2.0", "time_elapsed": 14734, "type": "AUDIO_TEST", "trial_index": 2}, "uniqueid": "MTK3597:3O6CYIULEE8D4GYD0C69SXHGR1MUW6", "dateTime": 1520799709850}, {"current_trial": 3, "trialdata": {"rt": [14560], "trial_type": "audio-test", "responses": ["crystal"], "internal_node_id": "0.0-3.0", "time_elapsed": 29299, "type": "AUDIO_TEST", "trial_index": 3}, "uniqueid": "MTK3597:3O6CYIULEE8D4GYD0C69SXHGR1MUW6", "dateTime": 1520799724415}, {"current_trial": 4, "trialdata": {"rt": [9770], "trial_type": "audio-test", "responses": ["spice"], "internal_node_id": "0.0-4.0", "time_elapsed": 39072, "type": "AUDIO_TEST", "trial_index": 4}, "uniqueid": "MTK3597:3O6CYIULEE8D4GYD0C69SXHGR1MUW6", "dateTime": 1520799734188}, {"current_trial": 5, "trialdata": {"rt": 22412, "trial_type": "survey-text", "responses": "{\"Q0\":\"11 pm\",\"Q1\":\"7 pm\",\"Q2\":\"5\"}", "internal_node_id": "0.0-5.0", "time_elapsed": 62236, "type": "SLEEP_SURVEY", "trial_index": 5}, "uniqueid": "MTK3597:3O6CYIULEE8D4GYD0C69SXHGR1MUW6", "dateTime": 1520799757352}, {"current_trial": 6, "trialdata": {"rt": 40697, "trial_type": "text", "internal_node_id": "0.0-6.0", "time_elapsed": 103934, "key_press": 75, "type": "INSTRUCTIONS", "trial_index": 6}, "uniqueid": "MTK3597:3O6CYIULEE8D4GYD0C69SXHGR1MUW6", "dateTime": 1520799799051}, {"current_trial": 7, "trialdata": {"rt": 15580, "trial_type": "text", "internal_node_id": "0.0-7.0", "time_elapsed": 120016, "key_press": 75, "type": "INSTRUCTIONS", "trial_index": 7}, "uniqueid": "MTK3597:3O6CYIULEE8D4GYD0C69SXHGR1MUW6", "dateTime": 1520799815132}, {"current_trial": 8, "trialdata": {"rt": 10995, "trial_type": "text", "internal_node_id": "0.0-8.0", "time_elapsed": 131513, "key_press": 84, "type": "INSTRUCTIONS", "trial_index": 8}, "uniqueid": "MTK3597:3O6CYIULEE8D4GYD0C69SXHGR1MUW6", "dateTime": 1520799826630}, {"current_trial": 9, "trialdata": {"rt": [6374, 10699, 14300, 17720], "trial_type": "math-distractor", "key_times": [3838, 4346, 6374, 9112, 9891, 10699, 12774, 13450, 14300, 16232, 16894, 17720], "responses": ["14", "20", "17", "16"], "num2": [5, 6, 2, 1, 9], "num3": [7, 5, 7, 8, 5], "conditions": [18, 1200, "a", 18000], "internal_node_id": "0.0-9.0", "key_presses": [49, 52, 13, 50, 48, 13, 49, 55, 13, 49, 54, 13], "trial": 0, "time_elapsed": 150556, "type": "DISTRACTOR", "trial_index": 9, "num1": [2, 9, 8, 7, 8]}, "uniqueid": "MTK3597:3O6CYIULEE8D4GYD0C69SXHGR1MUW6", "dateTime": 1520799845672}, {"current_trial": 10, "trialdata": {"rt": -1, "trial_type": "single-stim", "stimulus": "<p id=\"stim\">10</p>", "internal_node_id": "0.0-10.0-0.0", "time_elapsed": 153560, "key_press": -1, "trial_index": 10}, "uniqueid": "MTK3597:3O6CYIULEE8D4GYD0C69SXHGR1MUW6", "dateTime": 1520799848676}, {"current_trial": 11, "trialdata": {"rt": -1, "trial_type": "single-stim", "stimulus": "<p id=\"stim\">9</p>", "internal_node_id": "0.0-10.0-1.0", "time_elapsed": 154561, "key_press": -1, "trial_index": 11}, "uniqueid": "MTK3597:3O6CYIULEE8D4GYD0C69SXHGR1MUW6", "dateTime": 1520799849677}, {"current_trial": 12, "trialdata": {"rt": -1, "trial_type": "single-stim", "stimulus": "<p id=\"stim\">8</p>", "internal_node_id": "0.0-10.0-2.0", "time_elapsed": 155564, "key_press": -1, "trial_index": 12}, "uniqueid": "MTK3597:3O6CYIULEE8D4GYD0C69SXHGR1MUW6", "dateTime": 1520799850680}, {"current_trial": 13, "trialdata": {"rt": -1, "trial_type": "single-stim", "stimulus": "<p id=\"stim\">7</p>", "internal_node_id": "0.0-10.0-3.0", "time_elapsed": 156566, "key_press": -1, "trial_index": 13}, "uniqueid": "MTK3597:3O6CYIULEE8D4GYD0C69SXHGR1MUW6", "dateTime": 1520799851682}, {"current_trial": 14, "trialdata": {"rt": -1, "trial_type": "single-stim", "stimulus": "<p id=\"stim\">6</p>", "internal_node_id": "0.0-10.0-4.0", "time_elapsed": 157568, "key_press": -1, "trial_index": 14}, "uniqueid": "MTK3597:3O6CYIULEE8D4GYD0C69SXHGR1MUW6", "dateTime": 1520799852684}, {"current_trial": 15, "trialdata": {"rt": -1, "trial_type": "single-stim", "stimulus": "<p id=\"stim\">5</p>", "internal_node_id": "0.0-10.0-5.0", "time_elapsed": 158570, "key_press": -1, "trial_index": 15}, "uniqueid": "MTK3597:3O6CYIULEE8D4GYD0C69SXHGR1MUW6", "dateTime": 1520799853686}, {"current_trial": 16, "trialdata": {"rt": -1, "trial_type": "single-stim", "stimulus": "<p id=\"stim\">4</p>", "internal_node_id": "0.0-10.0-6.0", "time_elapsed": 159573, "key_press": -1, "trial_index": 16}, "uniqueid": "MTK3597:3O6CYIULEE8D4GYD0C69SXHGR1MUW6", "dateTime": 1520799854689}, {"current_trial": 17, "trialdata": {"rt": -1, "trial_type": "single-stim", "stimulus": "<p id=\"stim\">3</p>", "internal_node_id": "0.0-10.0-7.0", "time_elapsed": 160575, "key_press": -1, "trial_index": 17}, "uniqueid": "MTK3597:3O6CYIULEE8D4GYD0C69SXHGR1MUW6", "dateTime": 1520799855691}, {"current_trial": 18, "trialdata": {"rt": -1, "trial_type": "single-stim", "stimulus": "<p id=\"stim\">2</p>", "internal_node_id": "0.0-10.0-8.0", "time_elapsed": 161577, "key_press": -1, "trial_index": 18}, "uniqueid": "MTK3597:3O6CYIULEE8D4GYD0C69SXHGR1MUW6", "dateTime": 1520799856693}, {"current_trial": 19, "trialdata": {"rt": -1, "trial_type": "single-stim", "stimulus": "<p id=\"stim\">1</p>", "internal_node_id": "0.0-10.0-9.0", "time_elapsed": 162580, "key_press": -1, "trial_index": 19}, "uniqueid": "MTK3597:3O6CYIULEE8D4GYD0C69SXHGR1MUW6", "dateTime": 1520799857696}, {"current_trial": 20, "trialdata": {"rt": -1, "trial_type": "single-stim", "stimulus": "<p id=\"stim\">+</p>", "internal_node_id": "0.0-11.0-0.0", "time_elapsed": 164082, "key_press": -1, "type": "FIXATION", "trial_index": 20}, "uniqueid": "MTK3597:3O6CYIULEE8D4GYD0C69SXHGR1MUW6", "dateTime": 1520799859198}, {"current_trial": 21, "trialdata": {"rt": -1000, "trial_type": "single-audio", "word": "mop", "stimulus": "/static/audio/wordpool/MOP.wav", "conditions": [18, 1200, "a", 18000], "internal_node_id": "0.0-12.0", "trial": 0, "time_elapsed": 166169, "serialpos": 0, "key_press": -1, "wordID": 915, "type": "PRES_AUD", "trial_index": 21}, "uniqueid": "MTK3597:3O6CYIULEE8D4GYD0C69SXHGR1MUW6", "dateTime": 1520799861285}, {"current_trial": 22, "trialdata": {"rt": -1000, "trial_type": "single-audio", "word": "cupboard", "stimulus": "/static/audio/wordpool/CUPBOARD.wav", "conditions": [18, 1200, "a", 18000], "internal_node_id": "0.0-13.0", "trial": 0, "time_elapsed": 168224, "serialpos": 1, "key_press": -1, "wordID": 424, "type": "PRES_AUD", "trial_index": 22}, "uniqueid": "MTK3597:3O6CYIULEE8D4GYD0C69SXHGR1MUW6", "dateTime": 1520799863340}, {"current_trial": 23, "trialdata": {"rt": -1000, "trial_type": "single-audio", "word": "gazelle", "stimulus": "/static/audio/wordpool/GAZELLE.wav", "conditions": [18, 1200, "a", 18000], "internal_node_id": "0.0-14.0", "trial": 0, "time_elapsed": 170619, "serialpos": 2, "key_press": -1, "wordID": 627, "type": "PRES_AUD", "trial_index": 23}, "uniqueid": "MTK3597:3O6CYIULEE8D4GYD0C69SXHGR1MUW6", "dateTime": 1520799865735}, {"current_trial": 24, "trialdata": {"rt": -1000, "trial_type": "single-audio", "word": "sketch", "stimulus": "/static/audio/wordpool/SKETCH.wav", "conditions": [18, 1200, "a", 18000], "internal_node_id": "0.0-15.0", "trial": 0, "time_elapsed": 172959, "serialpos": 3, "key_press": -1, "wordID": 1314, "type": "PRES_AUD", "trial_index": 24}, "uniqueid": "MTK3597:3O6CYIULEE8D4GYD0C69SXHGR1MUW6", "dateTime": 1520799868075}, {"current_trial": 25, "trialdata": {"rt": -1000, "trial_type": "single-audio", "word": "slime", "stimulus": "/static/audio/wordpool/SLIME.wav", "conditions": [18, 1200, "a", 18000], "internal_node_id": "0.0-16.0", "trial": 0, "time_elapsed": 175263, "serialpos": 4, "key_press": -1, "wordID": 1326, "type": "PRES_AUD", "trial_index": 25}, "uniqueid": "MTK3597:3O6CYIULEE8D4GYD0C69SXHGR1MUW6", "dateTime": 1520799870380}, {"current_trial": 26, "trialdata": {"rt": -1000, "trial_type": "single-audio", "word": "xerox", "stimulus": "/static/audio/wordpool/XEROX.wav", "conditions": [18, 1200, "a", 18000], "internal_node_id": "0.0-17.0", "trial": 0, "time_elapsed": 177581, "serialpos": 5, "key_press": -1, "wordID": 1627, "type": "PRES_AUD", "trial_index": 26}, "uniqueid": "MTK3597:3O6CYIULEE8D4GYD0C69SXHGR1MUW6", "dateTime": 1520799872697}, {"current_trial": 27, "trialdata": {"rt": -1000, "trial_type": "single-audio", "word": "stream", "stimulus": "/static/audio/wordpool/STREAM.wav", "conditions": [18, 1200, "a", 18000], "internal_node_id": "0.0-18.0", "trial": 0, "time_elapsed": 179680, "serialpos": 6, "key_press": -1, "wordID": 1391, "type": "PRES_AUD", "trial_index": 27}, "uniqueid": "MTK3597:3O6CYIULEE8D4GYD0C69SXHGR1MUW6", "dateTime": 1520799874796}, {"current_trial": 28, "trialdata": {"rt": -1000, "trial_type": "single-audio", "word": "atom", "stimulus": "/static/audio/wordpool/ATOM.wav", "conditions": [18, 1200, "a", 18000], "internal_node_id": "0.0-19.0", "trial": 0, "time_elapsed": 181989, "serialpos": 7, "key_press": -1, "wordID": 54, "type": "PRES_AUD", "trial_index": 28}, "uniqueid": "MTK3597:3O6CYIULEE8D4GYD0C69SXHGR1MUW6", "dateTime": 1520799877105}, {"current_trial": 29, "trialdata": {"rt": -1000, "trial_type": "single-audio", "word": "pigeon", "stimulus": "/static/audio/wordpool/PIGEON.wav", "conditions": [18, 1200, "a", 18000], "internal_node_id": "0.0-20.0", "trial": 0, "time_elapsed": 184004, "serialpos": 8, "key_press": -1, "wordID": 1064, "type": "PRES_AUD", "trial_index": 29}, "uniqueid": "MTK3597:3O6CYIULEE8D4GYD0C69SXHGR1MUW6", "dateTime": 1520799879120}, {"current_trial": 30, "trialdata": {"rt": -1000, "trial_type": "single-audio", "word": "outlaw", "stimulus": "/static/audio/wordpool/OUTLAW.wav", "conditions": [18, 1200, "a", 18000], "internal_node_id": "0.0-21.0", "trial": 0, "time_elapsed": 186017, "serialpos": 9, "key_press": -1, "wordID": 988, "type": "PRES_AUD", "trial_index": 30}, "uniqueid": "MTK3597:3O6CYIULEE8D4GYD0C69SXHGR1MUW6", "dateTime": 1520799881133}, {"current_trial": 31, "trialdata": {"rt": -1000, "trial_type": "single-audio", "word": "bike", "stimulus": "/static/audio/wordpool/BIKE.wav", "conditions": [18, 1200, "a", 18000], "internal_node_id": "0.0-22.0", "trial": 0, "time_elapsed": 188102, "serialpos": 10, "key_press": -1, "wordID": 124, "type": "PRES_AUD", "trial_index": 31}, "uniqueid": "MTK3597:3O6CYIULEE8D4GYD0C69SXHGR1MUW6", "dateTime": 1520799883219}, {"current_trial": 32, "trialdata": {"rt": -1000, "trial_type": "single-audio", "word": "glass", "stimulus": "/static/audio/wordpool/GLASS.wav", "conditions": [18, 1200, "a", 18000], "internal_node_id": "0.0-23.0", "trial": 0, "time_elapsed": 190256, "serialpos": 11, "key_press": -1, "wordID": 638, "type": "PRES_AUD", "trial_index": 32}, "uniqueid": "MTK3597:3O6CYIULEE8D4GYD0C69SXHGR1MUW6", "dateTime": 1520799885372}, {"current_trial": 33, "trialdata": {"rt": -1000, "trial_type": "single-audio", "word": "tablet", "stimulus": "/static/audio/wordpool/TABLET.wav", "conditions": [18, 1200, "a", 18000], "internal_node_id": "0.0-24.0", "trial": 0, "time_elapsed": 192622, "serialpos": 12, "key_press": -1, "wordID": 1426, "type": "PRES_AUD", "trial_index": 33}, "uniqueid": "MTK3597:3O6CYIULEE8D4GYD0C69SXHGR1MUW6", "dateTime": 1520799887739}, {"current_trial": 34, "trialdata": {"rt": -1000, "trial_type": "single-audio", "word": "nurse", "stimulus": "/static/audio/wordpool/NURSE.wav", "conditions": [18, 1200, "a", 18000], "internal_node_id": "0.0-25.0", "trial": 0, "time_elapsed": 194769, "serialpos": 13, "key_press": -1, "wordID": 962, "type": "PRES_AUD", "trial_index": 34}, "uniqueid": "MTK3597:3O6CYIULEE8D4GYD0C69SXHGR1MUW6", "dateTime": 1520799889885}, {"current_trial": 35, "trialdata": {"rt": -1000, "trial_type": "single-audio", "word": "casket", "stimulus": "/static/audio/wordpool/CASKET.wav", "conditions": [18, 1200, "a", 18000], "internal_node_id": "0.0-26.0", "trial": 0, "time_elapsed": 196779, "serialpos": 14, "key_press": -1, "wordID": 254, "type": "PRES_AUD", "trial_index": 35}, "uniqueid": "MTK3597:3O6CYIULEE8D4GYD0C69SXHGR1MUW6", "dateTime": 1520799891895}, {"current_trial": 36, "trialdata": {"rt": -1000, "trial_type": "single-audio", "word": "barrel", "stimulus": "/static/audio/wordpool/BARREL.wav", "conditions": [18, 1200, "a", 18000], "internal_node_id": "0.0-27.0", "trial": 0, "time_elapsed": 198896, "serialpos": 15, "key_press": -1, "wordID": 90, "type": "PRES_AUD", "trial_index": 36}, "uniqueid": "MTK3597:3O6CYIULEE8D4GYD0C69SXHGR1MUW6", "dateTime": 1520799894012}, {"current_trial": 37, "trialdata": {"rt": -1000, "trial_type": "single-audio", "word": "cocoon", "stimulus": "/static/audio/wordpool/COCOON.wav", "conditions": [18, 1200, "a", 18000], "internal_node_id": "0.0-28.0", "trial": 0, "time_elapsed": 201125, "serialpos": 16, "key_press": -1, "wordID": 338, "type": "PRES_AUD", "trial_index": 37}, "uniqueid": "MTK3597:3O6CYIULEE8D4GYD0C69SXHGR1MUW6", "dateTime": 1520799896241}, {"current_trial": 38, "trialdata": {"rt": -1000, "trial_type": "single-audio", "word": "lily", "stimulus": "/static/audio/wordpool/LILY.wav", "conditions": [18, 1200, "a", 18000], "internal_node_id": "0.0-29.0", "trial": 0, "time_elapsed": 203278, "serialpos": 17, "key_press": -1, "wordID": 820, "type": "PRES_AUD", "trial_index": 38}, "uniqueid": "MTK3597:3O6CYIULEE8D4GYD0C69SXHGR1MUW6", "dateTime": 1520799898394}, {"current_trial": 39, "trialdata": {"rt": -1, "trial_type": "single-stim", "stimulus": "", "internal_node_id": "0.0-30.0-0.0", "time_elapsed": 204592, "key_press": -1, "type": "PRE_RECALL_DELAY", "trial_index": 39}, "uniqueid": "MTK3597:3O6CYIULEE8D4GYD0C69SXHGR1MUW6", "dateTime": 1520799899708}, {"current_trial": 40, "trialdata": {"rt": -1000, "trial_type": "single-audio", "stimulus": "/static/audio/400Hz.wav", "internal_node_id": "0.0-31.0", "time_elapsed": 205095, "key_press": -1, "type": "PRE_RECALL_ALERT", "trial_index": 40}, "uniqueid": "MTK3597:3O6CYIULEE8D4GYD0C69SXHGR1MUW6", "dateTime": 1520799900211}, {"current_trial": 41, "trialdata": {"rt": [6639, 10478, 17018, 20394, 25257, 30959, 31099, 35305, 38661, 42404, 48790, 54514], "recwords": ["village", "casket", "cocoon", "list", "pigeon", "apple", "", "spice", "list", "bill", "tablet", "casket"], "key_times": [3521, 3911, 4268, 4472, 4698, 5350, 6160, 6639, 7505, 7955, 8952, 9278, 9786, 10236, 10478, 11059, 11420, 11623, 12063, 12249, 13280, 15689, 16707, 17018, 17599, 17905, 18269, 18811, 20394, 21782, 22519, 23130, 23651, 23988, 24465, 25257, 26215, 27584, 27875, 29753, 30495, 30959, 31099, 33151, 33575, 33957, 34312, 34855, 35305, 36027, 36359, 36735, 37333, 38661, 39677, 40244, 40846, 41068, 42404, 45800, 46094, 46277, 46882, 47354, 48010, 48790, 50088, 50518, 50854, 51298, 51720, 52273, 54514, 57822, 58126, 58492, 58699, 58946, 59307, 59617], "trial_type": "free-recall", "conditions": [18, 1200, "a", 18000], "internal_node_id": "0.0-32.0-0.0", "key_presses": [86, 73, 76, 76, 65, 71, 69, 32, 67, 65, 83, 75, 69, 84, 32, 67, 79, 67, 79, 79, 67, 8, 78, 32, 76, 73, 83, 84, 32, 80, 73, 71, 69, 79, 78, 32, 65, 80, 80, 76, 69, 32, 32, 83, 80, 73, 67, 69, 32, 76, 73, 83, 84, 32, 66, 73, 76, 76, 32, 84, 65, 66, 76, 69, 84, 32, 67, 65, 83, 75, 69, 84, 32, 86, 73, 76, 76, 65, 71, 69], "trial": 0, "time_elapsed": 265101, "type": "FREE_RECALL", "trial_index": 41}, "uniqueid": "MTK3597:3O6CYIULEE8D4GYD0C69SXHGR1MUW6", "dateTime": 1520799960220}, {"current_trial": 42, "trialdata": {"rt": 5066, "trial_type": "text", "internal_node_id": "0.0-33.0", "time_elapsed": 272171, "key_press": 32, "type": "INSTRUCTIONS", "trial_index": 42}, "uniqueid": "MTK3597:3O6CYIULEE8D4GYD0C69SXHGR1MUW6", "dateTime": 1520799967287}, {"current_trial": 43, "trialdata": {"rt": [14753], "trial_type": "math-distractor", "key_times": [4503, 4842, 10219, 13898, 14753, 16785, 17210], "responses": ["20  "], "num2": [7, 4], "num3": [6, 1], "conditions": [18, 1200, "a", 18000], "internal_node_id": "0.0-34.0", "key_presses": [50, 48, 32, 32, 13, 49, 51], "trial": 1, "time_elapsed": 292176, "type": "DISTRACTOR", "trial_index": 43, "num1": [7, 8]}, "uniqueid": "MTK3597:3O6CYIULEE8D4GYD0C69SXHGR1MUW6", "dateTime": 1520799987293}, {"current_trial": 44, "trialdata": {"rt": -1, "trial_type": "single-stim", "stimulus": "<p id=\"stim\">10</p>", "internal_node_id": "0.0-35.0-0.0", "time_elapsed": 295179, "key_press": -1, "trial_index": 44}, "uniqueid": "MTK3597:3O6CYIULEE8D4GYD0C69SXHGR1MUW6", "dateTime": 1520799990295}, {"current_trial": 45, "trialdata": {"rt": -1, "trial_type": "single-stim", "stimulus": "<p id=\"stim\">9</p>", "internal_node_id": "0.0-35.0-1.0", "time_elapsed": 296181, "key_press": -1, "trial_index": 45}, "uniqueid": "MTK3597:3O6CYIULEE8D4GYD0C69SXHGR1MUW6", "dateTime": 1520799991297}, {"current_trial": 46, "trialdata": {"rt": -1, "trial_type": "single-stim", "stimulus": "<p id=\"stim\">8</p>", "internal_node_id": "0.0-35.0-2.0", "time_elapsed": 297184, "key_press": -1, "trial_index": 46}, "uniqueid": "MTK3597:3O6CYIULEE8D4GYD0C69SXHGR1MUW6", "dateTime": 1520799992300}, {"current_trial": 47, "trialdata": {"rt": -1, "trial_type": "single-stim", "stimulus": "<p id=\"stim\">7</p>", "internal_node_id": "0.0-35.0-3.0", "time_elapsed": 298186, "key_press": -1, "trial_index": 47}, "uniqueid": "MTK3597:3O6CYIULEE8D4GYD0C69SXHGR1MUW6", "dateTime": 1520799993302}, {"current_trial": 48, "trialdata": {"rt": -1, "trial_type": "single-stim", "stimulus": "<p id=\"stim\">6</p>", "internal_node_id": "0.0-35.0-4.0", "time_elapsed": 299188, "key_press": -1, "trial_index": 48}, "uniqueid": "MTK3597:3O6CYIULEE8D4GYD0C69SXHGR1MUW6", "dateTime": 1520799994304}, {"current_trial": 49, "trialdata": {"rt": -1, "trial_type": "single-stim", "stimulus": "<p id=\"stim\">5</p>", "internal_node_id": "0.0-35.0-5.0", "time_elapsed": 300190, "key_press": -1, "trial_index": 49}, "uniqueid": "MTK3597:3O6CYIULEE8D4GYD0C69SXHGR1MUW6", "dateTime": 1520799995306}, {"current_trial": 50, "trialdata": {"rt": -1, "trial_type": "single-stim", "stimulus": "<p id=\"stim\">4</p>", "internal_node_id": "0.0-35.0-6.0", "time_elapsed": 301193, "key_press": -1, "trial_index": 50}, "uniqueid": "MTK3597:3O6CYIULEE8D4GYD0C69SXHGR1MUW6", "dateTime": 1520799996309}, {"current_trial": 51, "trialdata": {"rt": -1, "trial_type": "single-stim", "stimulus": "<p id=\"stim\">3</p>", "internal_node_id": "0.0-35.0-7.0", "time_elapsed": 302194, "key_press": -1, "trial_index": 51}, "uniqueid": "MTK3597:3O6CYIULEE8D4GYD0C69SXHGR1MUW6", "dateTime": 1520799997310}, {"current_trial": 52, "trialdata": {"rt": -1, "trial_type": "single-stim", "stimulus": "<p id=\"stim\">2</p>", "internal_node_id": "0.0-35.0-8.0", "time_elapsed": 303196, "key_press": -1, "trial_index": 52}, "uniqueid": "MTK3597:3O6CYIULEE8D4GYD0C69SXHGR1MUW6", "dateTime": 1520799998312}, {"current_trial": 53, "trialdata": {"rt": -1, "trial_type": "single-stim", "stimulus": "<p id=\"stim\">1</p>", "internal_node_id": "0.0-35.0-9.0", "time_elapsed": 304198, "key_press": -1, "trial_index": 53}, "uniqueid": "MTK3597:3O6CYIULEE8D4GYD0C69SXHGR1MUW6", "dateTime": 1520799999314}, {"current_trial": 54, "trialdata": {"rt": -1, "trial_type": "single-stim", "stimulus": "<p id=\"stim\">+</p>", "internal_node_id": "0.0-36.0-0.0", "time_elapsed": 305700, "key_press": -1, "type": "FIXATION", "trial_index": 54}, "uniqueid": "MTK3597:3O6CYIULEE8D4GYD0C69SXHGR1MUW6", "dateTime": 1520800000816}, {"current_trial": 55, "trialdata": {"rt": -1000, "trial_type": "single-audio", "word": "sunset", "stimulus": "/static/audio/wordpool/SUNSET.wav", "conditions": [18, 1200, "a", 18000], "internal_node_id": "0.0-37.0", "trial": 1, "time_elapsed": 307886, "serialpos": 0, "key_press": -1, "wordID": 1407, "type": "PRES_AUD", "trial_index": 55}, "uniqueid": "MTK3597:3O6CYIULEE8D4GYD0C69SXHGR1MUW6", "dateTime": 1520800003002}, {"current_trial": 56, "trialdata": {"rt": -1000, "trial_type": "single-audio", "word": "preacher", "stimulus": "/static/audio/wordpool/PREACHER.wav", "conditions": [18, 1200, "a", 18000], "internal_node_id": "0.0-38.0", "trial": 1, "time_elapsed": 310078, "serialpos": 1, "key_press": -1, "wordID": 1118, "type": "PRES_AUD", "trial_index": 56}, "uniqueid": "MTK3597:3O6CYIULEE8D4GYD0C69SXHGR1MUW6", "dateTime": 1520800005195}, {"current_trial": 57, "trialdata": {"rt": -1000, "trial_type": "single-audio", "word": "sponge", "stimulus": "/static/audio/wordpool/SPONGE.wav", "conditions": [18, 1200, "a", 18000], "internal_node_id": "0.0-39.0", "trial": 1, "time_elapsed": 312379, "serialpos": 2, "key_press": -1, "wordID": 1354, "type": "PRES_AUD", "trial_index": 57}, "uniqueid": "MTK3597:3O6CYIULEE8D4GYD0C69SXHGR1MUW6", "dateTime": 1520800007495}, {"current_trial": 58, "trialdata": {"rt": -1000, "trial_type": "single-audio", "word": "sidewalk", "stimulus": "/static/audio/wordpool/SIDEWALK.wav", "conditions": [18, 1200, "a", 18000], "internal_node_id": "0.0-40.0", "trial": 1, "time_elapsed": 314456, "serialpos": 3, "key_press": -1, "wordID": 1302, "type": "PRES_AUD", "trial_index": 58}, "uniqueid": "MTK3597:3O6CYIULEE8D4GYD0C69SXHGR1MUW6", "dateTime": 1520800009572}, {"current_trial": 59, "trialdata": {"rt": -1000, "trial_type": "single-audio", "word": "world", "stimulus": "/static/audio/wordpool/WORLD.wav", "conditions": [18, 1200, "a", 18000], "internal_node_id": "0.0-41.0", "trial": 1, "time_elapsed": 316621, "serialpos": 4, "key_press": -1, "wordID": 1621, "type": "PRES_AUD", "trial_index": 59}, "uniqueid": "MTK3597:3O6CYIULEE8D4GYD0C69SXHGR1MUW6", "dateTime": 1520800011737}, {"current_trial": 60, "trialdata": {"rt": -1000, "trial_type": "single-audio", "word": "buggy", "stimulus": "/static/audio/wordpool/BUGGY.wav", "conditions": [18, 1200, "a", 18000], "internal_node_id": "0.0-42.0", "trial": 1, "time_elapsed": 318809, "serialpos": 5, "key_press": -1, "wordID": 187, "type": "PRES_AUD", "trial_index": 60}, "uniqueid": "MTK3597:3O6CYIULEE8D4GYD0C69SXHGR1MUW6", "dateTime": 1520800013926}, {"current_trial": 61, "trialdata": {"rt": -1000, "trial_type": "single-audio", "word": "rabbit", "stimulus": "/static/audio/wordpool/RABBIT.wav", "conditions": [18, 1200, "a", 18000], "internal_node_id": "0.0-43.0", "trial": 1, "time_elapsed": 320823, "serialpos": 6, "key_press": -1, "wordID": 1151, "type": "PRES_AUD", "trial_index": 61}, "uniqueid": "MTK3597:3O6CYIULEE8D4GYD0C69SXHGR1MUW6", "dateTime": 1520800015939}, {"current_trial": 62, "trialdata": {"rt": -1000, "trial_type": "single-audio", "word": "survey", "stimulus": "/static/audio/wordpool/SURVEY.wav", "conditions": [18, 1200, "a", 18000], "internal_node_id": "0.0-44.0", "trial": 1, "time_elapsed": 323201, "serialpos": 7, "key_press": -1, "wordID": 1413, "type": "PRES_AUD", "trial_index": 62}, "uniqueid": "MTK3597:3O6CYIULEE8D4GYD0C69SXHGR1MUW6", "dateTime": 1520800018317}, {"current_trial": 63, "trialdata": {"rt": -1000, "trial_type": "single-audio", "word": "college", "stimulus": "/static/audio/wordpool/COLLEGE.wav", "conditions": [18, 1200, "a", 18000], "internal_node_id": "0.0-45.0", "trial": 1, "time_elapsed": 325538, "serialpos": 8, "key_press": -1, "wordID": 345, "type": "PRES_AUD", "trial_index": 63}, "uniqueid": "MTK3597:3O6CYIULEE8D4GYD0C69SXHGR1MUW6", "dateTime": 1520800020654}, {"current_trial": 64, "trialdata": {"rt": -1000, "trial_type": "single-audio", "word": "comet", "stimulus": "/static/audio/wordpool/COMET.wav", "conditions": [18, 1200, "a", 18000], "internal_node_id": "0.0-46.0", "trial": 1, "time_elapsed": 327847, "serialpos": 9, "key_press": -1, "wordID": 352, "type": "PRES_AUD", "trial_index": 64}, "uniqueid": "MTK3597:3O6CYIULEE8D4GYD0C69SXHGR1MUW6", "dateTime": 1520800022963}, {"current_trial": 65, "trialdata": {"rt": -1000, "trial_type": "single-audio", "word": "pasta", "stimulus": "/static/audio/wordpool/PASTA.wav", "conditions": [18, 1200, "a", 18000], "internal_node_id": "0.0-47.0", "trial": 1, "time_elapsed": 330156, "serialpos": 10, "key_press": -1, "wordID": 1020, "type": "PRES_AUD", "trial_index": 65}, "uniqueid": "MTK3597:3O6CYIULEE8D4GYD0C69SXHGR1MUW6", "dateTime": 1520800025272}, {"current_trial": 66, "trialdata": {"rt": -1000, "trial_type": "single-audio", "word": "actress", "stimulus": "/static/audio/wordpool/ACTRESS.wav", "conditions": [18, 1200, "a", 18000], "internal_node_id": "0.0-48.0", "trial": 1, "time_elapsed": 332169, "serialpos": 11, "key_press": -1, "wordID": 5, "type": "PRES_AUD", "trial_index": 66}, "uniqueid": "MTK3597:3O6CYIULEE8D4GYD0C69SXHGR1MUW6", "dateTime": 1520800027285}, {"current_trial": 67, "trialdata": {"rt": -1000, "trial_type": "single-audio", "word": "ulcer", "stimulus": "/static/audio/wordpool/ULCER.wav", "conditions": [18, 1200, "a", 18000], "internal_node_id": "0.0-49.0", "trial": 1, "time_elapsed": 334212, "serialpos": 12, "key_press": -1, "wordID": 1532, "type": "PRES_AUD", "trial_index": 67}, "uniqueid": "MTK3597:3O6CYIULEE8D4GYD0C69SXHGR1MUW6", "dateTime": 1520800029328}, {"current_trial": 68, "trialdata": {"rt": -1000, "trial_type": "single-audio", "word": "puppy", "stimulus": "/static/audio/wordpool/PUPPY.wav", "conditions": [18, 1200, "a", 18000], "internal_node_id": "0.0-50.0", "trial": 1, "time_elapsed": 336526, "serialpos": 13, "key_press": -1, "wordID": 1143, "type": "PRES_AUD", "trial_index": 68}, "uniqueid": "MTK3597:3O6CYIULEE8D4GYD0C69SXHGR1MUW6", "dateTime": 1520800031645}, {"current_trial": 69, "trialdata": {"rt": -1000, "trial_type": "single-audio", "word": "ozone", "stimulus": "/static/audio/wordpool/OZONE.wav", "conditions": [18, 1200, "a", 18000], "internal_node_id": "0.0-51.0", "trial": 1, "time_elapsed": 338905, "serialpos": 14, "key_press": -1, "wordID": 995, "type": "PRES_AUD", "trial_index": 69}, "uniqueid": "MTK3597:3O6CYIULEE8D4GYD0C69SXHGR1MUW6", "dateTime": 1520800034021}, {"current_trial": 70, "trialdata": {"rt": -1000, "trial_type": "single-audio", "word": "guitar", "stimulus": "/static/audio/wordpool/GUITAR.wav", "conditions": [18, 1200, "a", 18000], "internal_node_id": "0.0-52.0", "trial": 1, "time_elapsed": 341297, "serialpos": 15, "key_press": -1, "wordID": 669, "type": "PRES_AUD", "trial_index": 70}, "uniqueid": "MTK3597:3O6CYIULEE8D4GYD0C69SXHGR1MUW6", "dateTime": 1520800036413}, {"current_trial": 71, "trialdata": {"rt": -1000, "trial_type": "single-audio", "word": "leg", "stimulus": "/static/audio/wordpool/LEG.wav", "conditions": [18, 1200, "a", 18000], "internal_node_id": "0.0-53.0", "trial": 1, "time_elapsed": 343357, "serialpos": 16, "key_press": -1, "wordID": 808, "type": "PRES_AUD", "trial_index": 71}, "uniqueid": "MTK3597:3O6CYIULEE8D4GYD0C69SXHGR1MUW6", "dateTime": 1520800038473}, {"current_trial": 72, "trialdata": {"rt": -1000, "trial_type": "single-audio", "word": "river", "stimulus": "/static/audio/wordpool/RIVER.wav", "conditions": [18, 1200, "a", 18000], "internal_node_id": "0.0-54.0", "trial": 1, "time_elapsed": 345755, "serialpos": 17, "key_press": -1, "wordID": 1193, "type": "PRES_AUD", "trial_index": 72}, "uniqueid": "MTK3597:3O6CYIULEE8D4GYD0C69SXHGR1MUW6", "dateTime": 1520800040871}, {"current_trial": 73, "trialdata": {"rt": -1, "trial_type": "single-stim", "stimulus": "", "internal_node_id": "0.0-55.0-0.0", "time_elapsed": 347012, "key_press": -1, "type": "PRE_RECALL_DELAY", "trial_index": 73}, "uniqueid": "MTK3597:3O6CYIULEE8D4GYD0C69SXHGR1MUW6", "dateTime": 1520800042129}, {"current_trial": 74, "trialdata": {"rt": -1000, "trial_type": "single-audio", "stimulus": "/static/audio/400Hz.wav", "internal_node_id": "0.0-56.0", "time_elapsed": 347515, "key_press": -1, "type": "PRE_RECALL_ALERT", "trial_index": 74}, "uniqueid": "MTK3597:3O6CYIULEE8D4GYD0C69SXHGR1MUW6", "dateTime": 1520800042631}, {"current_trial": 75, "trialdata": {"rt": [12975, 18989, 23959, 30066, 39676, 43966, 50865, 56218], "recwords": ["liver", "guitar", "puppy", "pasta", "sunset", "preacher", "sidewalk", "rabbit"], "key_times": [11055, 11376, 11809, 12165, 12418, 12975, 16097, 17014, 17249, 17657, 18074, 18592, 18989, 21501, 21936, 22412, 22572, 23131, 23959, 26824, 27491, 27758, 28294, 28681, 30066, 35937, 36712, 37071, 37682, 38088, 38445, 39676, 40345, 40971, 41217, 41534, 42022, 42379, 42787, 43001, 43966, 46662, 47334, 47747, 47966, 48204, 48405, 49083, 50006, 50865, 52405, 52784, 53476, 53646, 54029, 54469, 56218, 57659, 58337, 58648, 59251, 59846], "trial_type": "free-recall", "conditions": [18, 1200, "a", 18000], "internal_node_id": "0.0-57.0-0.0", "key_presses": [76, 73, 86, 69, 82, 32, 71, 85, 73, 84, 65, 82, 32, 80, 85, 80, 80, 89, 13, 80, 65, 83, 84, 65, 32, 83, 85, 78, 83, 69, 84, 32, 80, 82, 69, 65, 67, 72, 69, 82, 32, 83, 73, 68, 69, 87, 65, 76, 75, 32, 82, 65, 66, 66, 73, 84, 32, 67, 79, 77, 69, 84], "trial": 1, "time_elapsed": 407521, "type": "FREE_RECALL", "trial_index": 75}, "uniqueid": "MTK3597:3O6CYIULEE8D4GYD0C69SXHGR1MUW6", "dateTime": 1520800102640}, {"current_trial": 76, "trialdata": {"rt": 7454, "trial_type": "text", "internal_node_id": "0.0-58.0", "time_elapsed": 416980, "key_press": 32, "type": "INSTRUCTIONS", "trial_index": 76}, "uniqueid": "MTK3597:3O6CYIULEE8D4GYD0C69SXHGR1MUW6", "dateTime": 1520800112096}, {"current_trial": 77, "trialdata": {"rt": [5856, 10149, 13544, 18415, 23330], "trial_type": "math-distractor", "key_times": [4074, 5164, 5856, 8034, 8634, 10149, 12400, 12650, 13544, 17041, 17521, 18415, 20966, 22213, 23330], "responses": ["16", "14", "23", "24", "17"], "num2": [6, 8, 9, 7, 1, 7], "num3": [9, 3, 9, 8, 9, 6], "conditions": [24, 1600, "a", 24000], "internal_node_id": "0.0-59.0", "key_presses": [49, 54, 13, 49, 52, 13, 50, 51, 13, 50, 52, 13, 49, 55, 13], "trial": 2, "time_elapsed": 441985, "type": "DISTRACTOR", "trial_index": 77, "num1": [1, 3, 5, 9, 7, 2]}, "uniqueid": "MTK3597:3O6CYIULEE8D4GYD0C69SXHGR1MUW6", "dateTime": 1520800137101}, {"current_trial": 78, "trialdata": {"rt": -1, "trial_type": "single-stim", "stimulus": "<p id=\"stim\">10</p>", "internal_node_id": "0.0-60.0-0.0", "time_elapsed": 444987, "key_press": -1, "trial_index": 78}, "uniqueid": "MTK3597:3O6CYIULEE8D4GYD0C69SXHGR1MUW6", "dateTime": 1520800140103}, {"current_trial": 79, "trialdata": {"rt": -1, "trial_type": "single-stim", "stimulus": "<p id=\"stim\">9</p>", "internal_node_id": "0.0-60.0-1.0", "time_elapsed": 445989, "key_press": -1, "trial_index": 79}, "uniqueid": "MTK3597:3O6CYIULEE8D4GYD0C69SXHGR1MUW6", "dateTime": 1520800141105}, {"current_trial": 80, "trialdata": {"rt": -1, "trial_type": "single-stim", "stimulus": "<p id=\"stim\">8</p>", "internal_node_id": "0.0-60.0-2.0", "time_elapsed": 446991, "key_press": -1, "trial_index": 80}, "uniqueid": "MTK3597:3O6CYIULEE8D4GYD0C69SXHGR1MUW6", "dateTime": 1520800142107}, {"current_trial": 81, "trialdata": {"rt": -1, "trial_type": "single-stim", "stimulus": "<p id=\"stim\">7</p>", "internal_node_id": "0.0-60.0-3.0", "time_elapsed": 447994, "key_press": -1, "trial_index": 81}, "uniqueid": "MTK3597:3O6CYIULEE8D4GYD0C69SXHGR1MUW6", "dateTime": 1520800143110}, {"current_trial": 82, "trialdata": {"rt": -1, "trial_type": "single-stim", "stimulus": "<p id=\"stim\">6</p>", "internal_node_id": "0.0-60.0-4.0", "time_elapsed": 448996, "key_press": -1, "trial_index": 82}, "uniqueid": "MTK3597:3O6CYIULEE8D4GYD0C69SXHGR1MUW6", "dateTime": 1520800144112}, {"current_trial": 83, "trialdata": {"rt": -1, "trial_type": "single-stim", "stimulus": "<p id=\"stim\">5</p>", "internal_node_id": "0.0-60.0-5.0", "time_elapsed": 449998, "key_press": -1, "trial_index": 83}, "uniqueid": "MTK3597:3O6CYIULEE8D4GYD0C69SXHGR1MUW6", "dateTime": 1520800145114}, {"current_trial": 84, "trialdata": {"rt": -1, "trial_type": "single-stim", "stimulus": "<p id=\"stim\">4</p>", "internal_node_id": "0.0-60.0-6.0", "time_elapsed": 450999, "key_press": -1, "trial_index": 84}, "uniqueid": "MTK3597:3O6CYIULEE8D4GYD0C69SXHGR1MUW6", "dateTime": 1520800146115}, {"current_trial": 85, "trialdata": {"rt": -1, "trial_type": "single-stim", "stimulus": "<p id=\"stim\">3</p>", "internal_node_id": "0.0-60.0-7.0", "time_elapsed": 452001, "key_press": -1, "trial_index": 85}, "uniqueid": "MTK3597:3O6CYIULEE8D4GYD0C69SXHGR1MUW6", "dateTime": 1520800147117}, {"current_trial": 86, "trialdata": {"rt": -1, "trial_type": "single-stim", "stimulus": "<p id=\"stim\">2</p>", "internal_node_id": "0.0-60.0-8.0", "time_elapsed": 453003, "key_press": -1, "trial_index": 86}, "uniqueid": "MTK3597:3O6CYIULEE8D4GYD0C69SXHGR1MUW6", "dateTime": 1520800148119}, {"current_trial": 87, "trialdata": {"rt": -1, "trial_type": "single-stim", "stimulus": "<p id=\"stim\">1</p>", "internal_node_id": "0.0-60.0-9.0", "time_elapsed": 454005, "key_press": -1, "trial_index": 87}, "uniqueid": "MTK3597:3O6CYIULEE8D4GYD0C69SXHGR1MUW6", "dateTime": 1520800149121}, {"current_trial": 88, "trialdata": {"rt": -1, "trial_type": "single-stim", "stimulus": "<p id=\"stim\">+</p>", "internal_node_id": "0.0-61.0-0.0", "time_elapsed": 455508, "key_press": -1, "type": "FIXATION", "trial_index": 88}, "uniqueid": "MTK3597:3O6CYIULEE8D4GYD0C69SXHGR1MUW6", "dateTime": 1520800150624}, {"current_trial": 89, "trialdata": {"rt": -1000, "trial_type": "single-audio", "word": "costume", "stimulus": "/static/audio/wordpool/COSTUME.wav", "conditions": [24, 1600, "a", 24000], "internal_node_id": "0.0-62.0", "trial": 2, "time_elapsed": 458029, "serialpos": 0, "key_press": -1, "wordID": 382, "type": "PRES_AUD", "trial_index": 89}, "uniqueid": "MTK3597:3O6CYIULEE8D4GYD0C69SXHGR1MUW6", "dateTime": 1520800153146}, {"current_trial": 90, "trialdata": {"rt": -1000, "trial_type": "single-audio", "word": "softball", "stimulus": "/static/audio/wordpool/SOFTBALL.wav", "conditions": [24, 1600, "a", 24000], "internal_node_id": "0.0-63.0", "trial": 2, "time_elapsed": 460663, "serialpos": 1, "key_press": -1, "wordID": 1342, "type": "PRES_AUD", "trial_index": 90}, "uniqueid": "MTK3597:3O6CYIULEE8D4GYD0C69SXHGR1MUW6", "dateTime": 1520800155779}, {"current_trial": 91, "trialdata": {"rt": -1000, "trial_type": "single-audio", "word": "bullet", "stimulus": "/static/audio/wordpool/BULLET.wav", "conditions": [24, 1600, "a", 24000], "internal_node_id": "0.0-64.0", "trial": 2, "time_elapsed": 463445, "serialpos": 2, "key_press": -1, "wordID": 193, "type": "PRES_AUD", "trial_index": 91}, "uniqueid": "MTK3597:3O6CYIULEE8D4GYD0C69SXHGR1MUW6", "dateTime": 1520800158561}, {"current_trial": 92, "trialdata": {"rt": -1000, "trial_type": "single-audio", "word": "slope", "stimulus": "/static/audio/wordpool/SLOPE.wav", "conditions": [24, 1600, "a", 24000], "internal_node_id": "0.0-65.0", "trial": 2, "time_elapsed": 466206, "serialpos": 3, "key_press": -1, "wordID": 1327, "type": "PRES_AUD", "trial_index": 92}, "uniqueid": "MTK3597:3O6CYIULEE8D4GYD0C69SXHGR1MUW6", "dateTime": 1520800161322}, {"current_trial": 93, "trialdata": {"rt": -1000, "trial_type": "single-audio", "word": "lion", "stimulus": "/static/audio/wordpool/LION.wav", "conditions": [24, 1600, "a", 24000], "internal_node_id": "0.0-66.0", "trial": 2, "time_elapsed": 468804, "serialpos": 4, "key_press": -1, "wordID": 826, "type": "PRES_AUD", "trial_index": 93}, "uniqueid": "MTK3597:3O6CYIULEE8D4GYD0C69SXHGR1MUW6", "dateTime": 1520800163920}, {"current_trial": 94, "trialdata": {"rt": -1000, "trial_type": "single-audio", "word": "wrench", "stimulus": "/static/audio/wordpool/WRENCH.wav", "conditions": [24, 1600, "a", 24000], "internal_node_id": "0.0-67.0", "trial": 2, "time_elapsed": 471375, "serialpos": 5, "key_press": -1, "wordID": 1624, "type": "PRES_AUD", "trial_index": 94}, "uniqueid": "MTK3597:3O6CYIULEE8D4GYD0C69SXHGR1MUW6", "dateTime": 1520800166492}, {"current_trial": 95, "trialdata": {"rt": -1000, "trial_type": "single-audio", "word": "crevice", "stimulus": "/static/audio/wordpool/CREVICE.wav", "conditions": [24, 1600, "a", 24000], "internal_node_id": "0.0-68.0", "trial": 2, "time_elapsed": 474148, "serialpos": 6, "key_press": -1, "wordID": 404, "type": "PRES_AUD", "trial_index": 95}, "uniqueid": "MTK3597:3O6CYIULEE8D4GYD0C69SXHGR1MUW6", "dateTime": 1520800169264}, {"current_trial": 96, "trialdata": {"rt": -1000, "trial_type": "single-audio", "word": "wardrobe", "stimulus": "/static/audio/wordpool/WARDROBE.wav", "conditions": [24, 1600, "a", 24000], "internal_node_id": "0.0-69.0", "trial": 2, "time_elapsed": 476575, "serialpos": 7, "key_press": -1, "wordID": 1586, "type": "PRES_AUD", "trial_index": 96}, "uniqueid": "MTK3597:3O6CYIULEE8D4GYD0C69SXHGR1MUW6", "dateTime": 1520800171692}, {"current_trial": 97, "trialdata": {"rt": -1000, "trial_type": "single-audio", "word": "blade", "stimulus": "/static/audio/wordpool/BLADE.wav", "conditions": [24, 1600, "a", 24000], "internal_node_id": "0.0-70.0", "trial": 2, "time_elapsed": 479264, "serialpos": 8, "key_press": -1, "wordID": 133, "type": "PRES_AUD", "trial_index": 97}, "uniqueid": "MTK3597:3O6CYIULEE8D4GYD0C69SXHGR1MUW6", "dateTime": 1520800174380}, {"current_trial": 98, "trialdata": {"rt": -1000, "trial_type": "single-audio", "word": "grill", "stimulus": "/static/audio/wordpool/GRILL.wav", "conditions": [24, 1600, "a", 24000], "internal_node_id": "0.0-71.0", "trial": 2, "time_elapsed": 481831, "serialpos": 9, "key_press": -1, "wordID": 660, "type": "PRES_AUD", "trial_index": 98}, "uniqueid": "MTK3597:3O6CYIULEE8D4GYD0C69SXHGR1MUW6", "dateTime": 1520800176947}, {"current_trial": 99, "trialdata": {"rt": -1000, "trial_type": "single-audio", "word": "cook", "stimulus": "/static/audio/wordpool/COOK.wav", "conditions": [24, 1600, "a", 24000], "internal_node_id": "0.0-72.0", "trial": 2, "time_elapsed": 484611, "serialpos": 10, "key_press": -1, "wordID": 371, "type": "PRES_AUD", "trial_index": 99}, "uniqueid": "MTK3597:3O6CYIULEE8D4GYD0C69SXHGR1MUW6", "dateTime": 1520800179728}, {"current_trial": 100, "trialdata": {"rt": -1000, "trial_type": "single-audio", "word": "garbage", "stimulus": "/static/audio/wordpool/GARBAGE.wav", "conditions": [24, 1600, "a", 24000], "internal_node_id": "0.0-73.0", "trial": 2, "time_elapsed": 487390, "serialpos": 11, "key_press": -1, "wordID": 621, "type": "PRES_AUD", "trial_index": 100}, "uniqueid": "MTK3597:3O6CYIULEE8D4GYD0C69SXHGR1MUW6", "dateTime": 1520800182506}, {"current_trial": 101, "trialdata": {"rt": -1000, "trial_type": "single-audio", "word": "milk", "stimulus": "/static/audio/wordpool/MILK.wav", "conditions": [24, 1600, "a", 24000], "internal_node_id": "0.0-74.0", "trial": 2, "time_elapsed": 490087, "serialpos": 12, "key_press": -1, "wordID": 894, "type": "PRES_AUD", "trial_index": 101}, "uniqueid": "MTK3597:3O6CYIULEE8D4GYD0C69SXHGR1MUW6", "dateTime": 1520800185204}, {"current_trial": 102, "trialdata": {"rt": -1000, "trial_type": "single-audio", "word": "waitress", "stimulus": "/static/audio/wordpool/WAITRESS.wav", "conditions": [24, 1600, "a", 24000], "internal_node_id": "0.0-75.0", "trial": 2, "time_elapsed": 492720, "serialpos": 13, "key_press": -1, "wordID": 1580, "type": "PRES_AUD", "trial_index": 102}, "uniqueid": "MTK3597:3O6CYIULEE8D4GYD0C69SXHGR1MUW6", "dateTime": 1520800187836}, {"current_trial": 103, "trialdata": {"rt": -1000, "trial_type": "single-audio", "word": "tombstone", "stimulus": "/static/audio/wordpool/TOMBSTONE.wav", "conditions": [24, 1600, "a", 24000], "internal_node_id": "0.0-76.0", "trial": 2, "time_elapsed": 495395, "serialpos": 14, "key_press": -1, "wordID": 1477, "type": "PRES_AUD", "trial_index": 103}, "uniqueid": "MTK3597:3O6CYIULEE8D4GYD0C69SXHGR1MUW6", "dateTime": 1520800190512}, {"current_trial": 104, "trialdata": {"rt": -1000, "trial_type": "single-audio", "word": "clamp", "stimulus": "/static/audio/wordpool/CLAMP.wav", "conditions": [24, 1600, "a", 24000], "internal_node_id": "0.0-77.0", "trial": 2, "time_elapsed": 498114, "serialpos": 15, "key_press": -1, "wordID": 315, "type": "PRES_AUD", "trial_index": 104}, "uniqueid": "MTK3597:3O6CYIULEE8D4GYD0C69SXHGR1MUW6", "dateTime": 1520800193230}, {"current_trial": 105, "trialdata": {"rt": -1000, "trial_type": "single-audio", "word": "honey", "stimulus": "/static/audio/wordpool/HONEY.wav", "conditions": [24, 1600, "a", 24000], "internal_node_id": "0.0-78.0", "trial": 2, "time_elapsed": 500521, "serialpos": 16, "key_press": -1, "wordID": 712, "type": "PRES_AUD", "trial_index": 105}, "uniqueid": "MTK3597:3O6CYIULEE8D4GYD0C69SXHGR1MUW6", "dateTime": 1520800195638}, {"current_trial": 106, "trialdata": {"rt": -1000, "trial_type": "single-audio", "word": "flag", "stimulus": "/static/audio/wordpool/FLAG.wav", "conditions": [24, 1600, "a", 24000], "internal_node_id": "0.0-79.0", "trial": 2, "time_elapsed": 503003, "serialpos": 17, "key_press": -1, "wordID": 572, "type": "PRES_AUD", "trial_index": 106}, "uniqueid": "MTK3597:3O6CYIULEE8D4GYD0C69SXHGR1MUW6", "dateTime": 1520800198119}, {"current_trial": 107, "trialdata": {"rt": -1000, "trial_type": "single-audio", "word": "badge", "stimulus": "/static/audio/wordpool/BADGE.wav", "conditions": [24, 1600, "a", 24000], "internal_node_id": "0.0-80.0", "trial": 2, "time_elapsed": 505731, "serialpos": 18, "key_press": -1, "wordID": 67, "type": "PRES_AUD", "trial_index": 107}, "uniqueid": "MTK3597:3O6CYIULEE8D4GYD0C69SXHGR1MUW6", "dateTime": 1520800200848}, {"current_trial": 108, "trialdata": {"rt": -1000, "trial_type": "single-audio", "word": "saddle", "stimulus": "/static/audio/wordpool/SADDLE.wav", "conditions": [24, 1600, "a", 24000], "internal_node_id": "0.0-81.0", "trial": 2, "time_elapsed": 508446, "serialpos": 19, "key_press": -1, "wordID": 1220, "type": "PRES_AUD", "trial_index": 108}, "uniqueid": "MTK3597:3O6CYIULEE8D4GYD0C69SXHGR1MUW6", "dateTime": 1520800203562}, {"current_trial": 109, "trialdata": {"rt": -1000, "trial_type": "single-audio", "word": "jello", "stimulus": "/static/audio/wordpool/JELLO.wav", "conditions": [24, 1600, "a", 24000], "internal_node_id": "0.0-82.0", "trial": 2, "time_elapsed": 511103, "serialpos": 20, "key_press": -1, "wordID": 753, "type": "PRES_AUD", "trial_index": 109}, "uniqueid": "MTK3597:3O6CYIULEE8D4GYD0C69SXHGR1MUW6", "dateTime": 1520800206219}, {"current_trial": 110, "trialdata": {"rt": -1000, "trial_type": "single-audio", "word": "diver", "stimulus": "/static/audio/wordpool/DIVER.wav", "conditions": [24, 1600, "a", 24000], "internal_node_id": "0.0-83.0", "trial": 2, "time_elapsed": 513622, "serialpos": 21, "key_press": -1, "wordID": 475, "type": "PRES_AUD", "trial_index": 110}, "uniqueid": "MTK3597:3O6CYIULEE8D4GYD0C69SXHGR1MUW6", "dateTime": 1520800208739}, {"current_trial": 111, "trialdata": {"rt": -1000, "trial_type": "single-audio", "word": "swimmer", "stimulus": "/static/audio/wordpool/SWIMMER.wav", "conditions": [24, 1600, "a", 24000], "internal_node_id": "0.0-84.0", "trial": 2, "time_elapsed": 516393, "serialpos": 22, "key_press": -1, "wordID": 1419, "type": "PRES_AUD", "trial_index": 111}, "uniqueid": "MTK3597:3O6CYIULEE8D4GYD0C69SXHGR1MUW6", "dateTime": 1520800211509}, {"current_trial": 112, "trialdata": {"rt": -1000, "trial_type": "single-audio", "word": "crutch", "stimulus": "/static/audio/wordpool/CRUTCH.wav", "conditions": [24, 1600, "a", 24000], "internal_node_id": "0.0-85.0", "trial": 2, "time_elapsed": 519064, "serialpos": 23, "key_press": -1, "wordID": 416, "type": "PRES_AUD", "trial_index": 112}, "uniqueid": "MTK3597:3O6CYIULEE8D4GYD0C69SXHGR1MUW6", "dateTime": 1520800214181}, {"current_trial": 113, "trialdata": {"rt": -1, "trial_type": "single-stim", "stimulus": "", "internal_node_id": "0.0-86.0-0.0", "time_elapsed": 520465, "key_press": -1, "type": "PRE_RECALL_DELAY", "trial_index": 113}, "uniqueid": "MTK3597:3O6CYIULEE8D4GYD0C69SXHGR1MUW6", "dateTime": 1520800215581}, {"current_trial": 114, "trialdata": {"rt": -1000, "trial_type": "single-audio", "stimulus": "/static/audio/400Hz.wav", "internal_node_id": "0.0-87.0", "time_elapsed": 520966, "key_press": -1, "type": "PRE_RECALL_ALERT", "trial_index": 114}, "uniqueid": "MTK3597:3O6CYIULEE8D4GYD0C69SXHGR1MUW6", "dateTime": 1520800216082}, {"current_trial": 115, "trialdata": {"rt": [6875, 11472, 17420, 22897, 31786, 34926, 38903, 42343, 50468], "recwords": ["crutch", "diver", "jello", "father", "tombstone", "cook", "grill", "rent", "lion"], "key_times": [2252, 4088, 4595, 4842, 5311, 5549, 6875, 9056, 9357, 9776, 10427, 10637, 11472, 14359, 15184, 16000, 16204, 16625, 17420, 19275, 19854, 20368, 20804, 21330, 21650, 22897, 24355, 25016, 25643, 26092, 27326, 28233, 28824, 29505, 30442, 31786, 32264, 32897, 33129, 33542, 34926, 35812, 36569, 37098, 37562, 37786, 38903, 39898, 40316, 40914, 41549, 42343, 48293, 49121, 49415, 49935, 50468, 54827, 55610, 56346, 56731, 57095, 57919, 58627, 58835], "trial_type": "free-recall", "conditions": [24, 1600, "a", 24000], "internal_node_id": "0.0-88.0-0.0", "key_presses": [67, 82, 85, 84, 67, 72, 13, 68, 73, 86, 69, 82, 13, 74, 69, 76, 76, 79, 32, 70, 65, 84, 72, 69, 82, 32, 84, 79, 77, 66, 83, 84, 79, 78, 69, 32, 67, 79, 79, 75, 32, 71, 82, 73, 76, 76, 32, 82, 69, 78, 84, 32, 76, 73, 79, 78, 32, 83, 79, 70, 84, 66, 65, 76, 76], "trial": 2, "time_elapsed": 580970, "type": "FREE_RECALL", "trial_index": 115}, "uniqueid": "MTK3597:3O6CYIULEE8D4GYD0C69SXHGR1MUW6", "dateTime": 1520800276090}, {"current_trial": 116, "trialdata": {"rt": 2792, "trial_type": "text", "internal_node_id": "0.0-89.0", "time_elapsed": 585767, "key_press": 32, "type": "INSTRUCTIONS", "trial_index": 116}, "uniqueid": "MTK3597:3O6CYIULEE8D4GYD0C69SXHGR1MUW6", "dateTime": 1520800280884}, {"current_trial": 117, "trialdata": {"rt": [3450, 7435, 12513, 15423, 20209], "trial_type": "math-distractor", "key_times": [2163, 2613, 3450, 5616, 5912, 7435, 9788, 10539, 11538, 12513, 14310, 14601, 15423, 18673, 19578, 20209, 22992, 23521], "responses": ["13", "12", "10 ", "12", "20"], "num2": [8, 7, 4, 4, 6, 4], "num3": [3, 4, 2, 6, 6, 6], "conditions": [12, 1600, "a", 24000], "internal_node_id": "0.0-90.0", "key_presses": [49, 51, 13, 49, 50, 13, 49, 48, 32, 13, 49, 50, 13, 50, 48, 13, 49, 52], "trial": 3, "time_elapsed": 611772, "type": "DISTRACTOR", "trial_index": 117, "num1": [2, 1, 4, 2, 8, 4]}, "uniqueid": "MTK3597:3O6CYIULEE8D4GYD0C69SXHGR1MUW6", "dateTime": 1520800306888}, {"current_trial": 118, "trialdata": {"rt": -1, "trial_type": "single-stim", "stimulus": "<p id=\"stim\">10</p>", "internal_node_id": "0.0-91.0-0.0", "time_elapsed": 614775, "key_press": -1, "trial_index": 118}, "uniqueid": "MTK3597:3O6CYIULEE8D4GYD0C69SXHGR1MUW6", "dateTime": 1520800309891}, {"current_trial": 119, "trialdata": {"rt": -1, "trial_type": "single-stim", "stimulus": "<p id=\"stim\">9</p>", "internal_node_id": "0.0-91.0-1.0", "time_elapsed": 615776, "key_press": -1, "trial_index": 119}, "uniqueid": "MTK3597:3O6CYIULEE8D4GYD0C69SXHGR1MUW6", "dateTime": 1520800310892}, {"current_trial": 120, "trialdata": {"rt": -1, "trial_type": "single-stim", "stimulus": "<p id=\"stim\">8</p>", "internal_node_id": "0.0-91.0-2.0", "time_elapsed": 616778, "key_press": -1, "trial_index": 120}, "uniqueid": "MTK3597:3O6CYIULEE8D4GYD0C69SXHGR1MUW6", "dateTime": 1520800311894}, {"current_trial": 121, "trialdata": {"rt": -1, "trial_type": "single-stim", "stimulus": "<p id=\"stim\">7</p>", "internal_node_id": "0.0-91.0-3.0", "time_elapsed": 617780, "key_press": -1, "trial_index": 121}, "uniqueid": "MTK3597:3O6CYIULEE8D4GYD0C69SXHGR1MUW6", "dateTime": 1520800312896}, {"current_trial": 122, "trialdata": {"rt": -1, "trial_type": "single-stim", "stimulus": "<p id=\"stim\">6</p>", "internal_node_id": "0.0-91.0-4.0", "time_elapsed": 618784, "key_press": -1, "trial_index": 122}, "uniqueid": "MTK3597:3O6CYIULEE8D4GYD0C69SXHGR1MUW6", "dateTime": 1520800313900}, {"current_trial": 123, "trialdata": {"rt": -1, "trial_type": "single-stim", "stimulus": "<p id=\"stim\">5</p>", "internal_node_id": "0.0-91.0-5.0", "time_elapsed": 619786, "key_press": -1, "trial_index": 123}, "uniqueid": "MTK3597:3O6CYIULEE8D4GYD0C69SXHGR1MUW6", "dateTime": 1520800314902}, {"current_trial": 124, "trialdata": {"rt": -1, "trial_type": "single-stim", "stimulus": "<p id=\"stim\">4</p>", "internal_node_id": "0.0-91.0-6.0", "time_elapsed": 620787, "key_press": -1, "trial_index": 124}, "uniqueid": "MTK3597:3O6CYIULEE8D4GYD0C69SXHGR1MUW6", "dateTime": 1520800315903}, {"current_trial": 125, "trialdata": {"rt": -1, "trial_type": "single-stim", "stimulus": "<p id=\"stim\">3</p>", "internal_node_id": "0.0-91.0-7.0", "time_elapsed": 621789, "key_press": -1, "trial_index": 125}, "uniqueid": "MTK3597:3O6CYIULEE8D4GYD0C69SXHGR1MUW6", "dateTime": 1520800316905}, {"current_trial": 126, "trialdata": {"rt": -1, "trial_type": "single-stim", "stimulus": "<p id=\"stim\">2</p>", "internal_node_id": "0.0-91.0-8.0", "time_elapsed": 622790, "key_press": -1, "trial_index": 126}, "uniqueid": "MTK3597:3O6CYIULEE8D4GYD0C69SXHGR1MUW6", "dateTime": 1520800317906}, {"current_trial": 127, "trialdata": {"rt": -1, "trial_type": "single-stim", "stimulus": "<p id=\"stim\">1</p>", "internal_node_id": "0.0-91.0-9.0", "time_elapsed": 623792, "key_press": -1, "trial_index": 127}, "uniqueid": "MTK3597:3O6CYIULEE8D4GYD0C69SXHGR1MUW6", "dateTime": 1520800318908}, {"current_trial": 128, "trialdata": {"rt": -1, "trial_type": "single-stim", "stimulus": "<p id=\"stim\">+</p>", "internal_node_id": "0.0-92.0-0.0", "time_elapsed": 625294, "key_press": -1, "type": "FIXATION", "trial_index": 128}, "uniqueid": "MTK3597:3O6CYIULEE8D4GYD0C69SXHGR1MUW6", "dateTime": 1520800320410}, {"current_trial": 129, "trialdata": {"rt": -1000, "trial_type": "single-audio", "word": "balloon", "stimulus": "/static/audio/wordpool/BALLOON.wav", "conditions": [12, 1600, "a", 24000], "internal_node_id": "0.0-93.0", "trial": 3, "time_elapsed": 627781, "serialpos": 0, "key_press": -1, "wordID": 74, "type": "PRES_AUD", "trial_index": 129}, "uniqueid": "MTK3597:3O6CYIULEE8D4GYD0C69SXHGR1MUW6", "dateTime": 1520800322898}, {"current_trial": 130, "trialdata": {"rt": -1000, "trial_type": "single-audio", "word": "twister", "stimulus": "/static/audio/wordpool/TWISTER.wav", "conditions": [12, 1600, "a", 24000], "internal_node_id": "0.0-94.0", "trial": 3, "time_elapsed": 630344, "serialpos": 1, "key_press": -1, "wordID": 1529, "type": "PRES_AUD", "trial_index": 130}, "uniqueid": "MTK3597:3O6CYIULEE8D4GYD0C69SXHGR1MUW6", "dateTime": 1520800325460}, {"current_trial": 131, "trialdata": {"rt": -1000, "trial_type": "single-audio", "word": "hamper", "stimulus": "/static/audio/wordpool/HAMPER.wav", "conditions": [12, 1600, "a", 24000], "internal_node_id": "0.0-95.0", "trial": 3, "time_elapsed": 633004, "serialpos": 2, "key_press": -1, "wordID": 681, "type": "PRES_AUD", "trial_index": 131}, "uniqueid": "MTK3597:3O6CYIULEE8D4GYD0C69SXHGR1MUW6", "dateTime": 1520800328121}, {"current_trial": 132, "trialdata": {"rt": -1000, "trial_type": "single-audio", "word": "thief", "stimulus": "/static/audio/wordpool/THIEF.wav", "conditions": [12, 1600, "a", 24000], "internal_node_id": "0.0-96.0", "trial": 3, "time_elapsed": 635417, "serialpos": 3, "key_press": -1, "wordID": 1455, "type": "PRES_AUD", "trial_index": 132}, "uniqueid": "MTK3597:3O6CYIULEE8D4GYD0C69SXHGR1MUW6", "dateTime": 1520800330534}, {"current_trial": 133, "trialdata": {"rt": -1000, "trial_type": "single-audio", "word": "razor", "stimulus": "/static/audio/wordpool/RAZOR.wav", "conditions": [12, 1600, "a", 24000], "internal_node_id": "0.0-97.0", "trial": 3, "time_elapsed": 638159, "serialpos": 4, "key_press": -1, "wordID": 1170, "type": "PRES_AUD", "trial_index": 133}, "uniqueid": "MTK3597:3O6CYIULEE8D4GYD0C69SXHGR1MUW6", "dateTime": 1520800333275}, {"current_trial": 134, "trialdata": {"rt": -1000, "trial_type": "single-audio", "word": "scalpel", "stimulus": "/static/audio/wordpool/SCALPEL.wav", "conditions": [12, 1600, "a", 24000], "internal_node_id": "0.0-98.0", "trial": 3, "time_elapsed": 640835, "serialpos": 5, "key_press": -1, "wordID": 1242, "type": "PRES_AUD", "trial_index": 134}, "uniqueid": "MTK3597:3O6CYIULEE8D4GYD0C69SXHGR1MUW6", "dateTime": 1520800335952}, {"current_trial": 135, "trialdata": {"rt": -1000, "trial_type": "single-audio", "word": "eagle", "stimulus": "/static/audio/wordpool/EAGLE.wav", "conditions": [12, 1600, "a", 24000], "internal_node_id": "0.0-99.0", "trial": 3, "time_elapsed": 643490, "serialpos": 6, "key_press": -1, "wordID": 511, "type": "PRES_AUD", "trial_index": 135}, "uniqueid": "MTK3597:3O6CYIULEE8D4GYD0C69SXHGR1MUW6", "dateTime": 1520800338606}, {"current_trial": 136, "trialdata": {"rt": -1000, "trial_type": "single-audio", "word": "scribble", "stimulus": "/static/audio/wordpool/SCRIBBLE.wav", "conditions": [12, 1600, "a", 24000], "internal_node_id": "0.0-100.0", "trial": 3, "time_elapsed": 646073, "serialpos": 7, "key_press": -1, "wordID": 1255, "type": "PRES_AUD", "trial_index": 136}, "uniqueid": "MTK3597:3O6CYIULEE8D4GYD0C69SXHGR1MUW6", "dateTime": 1520800341189}, {"current_trial": 137, "trialdata": {"rt": -1000, "trial_type": "single-audio", "word": "package", "stimulus": "/static/audio/wordpool/PACKAGE.wav", "conditions": [12, 1600, "a", 24000], "internal_node_id": "0.0-101.0", "trial": 3, "time_elapsed": 648651, "serialpos": 8, "key_press": -1, "wordID": 996, "type": "PRES_AUD", "trial_index": 137}, "uniqueid": "MTK3597:3O6CYIULEE8D4GYD0C69SXHGR1MUW6", "dateTime": 1520800343767}, {"current_trial": 138, "trialdata": {"rt": -1000, "trial_type": "single-audio", "word": "marker", "stimulus": "/static/audio/wordpool/MARKER.wav", "conditions": [12, 1600, "a", 24000], "internal_node_id": "0.0-102.0", "trial": 3, "time_elapsed": 651263, "serialpos": 9, "key_press": -1, "wordID": 869, "type": "PRES_AUD", "trial_index": 138}, "uniqueid": "MTK3597:3O6CYIULEE8D4GYD0C69SXHGR1MUW6", "dateTime": 1520800346379}, {"current_trial": 139, "trialdata": {"rt": -1000, "trial_type": "single-audio", "word": "burglar", "stimulus": "/static/audio/wordpool/BURGLAR.wav", "conditions": [12, 1600, "a", 24000], "internal_node_id": "0.0-103.0", "trial": 3, "time_elapsed": 653702, "serialpos": 10, "key_press": -1, "wordID": 199, "type": "PRES_AUD", "trial_index": 139}, "uniqueid": "MTK3597:3O6CYIULEE8D4GYD0C69SXHGR1MUW6", "dateTime": 1520800348819}, {"current_trial": 140, "trialdata": {"rt": -1000, "trial_type": "single-audio", "word": "passage", "stimulus": "/static/audio/wordpool/PASSAGE.wav", "conditions": [12, 1600, "a", 24000], "internal_node_id": "0.0-104.0", "trial": 3, "time_elapsed": 656393, "serialpos": 11, "key_press": -1, "wordID": 1018, "type": "PRES_AUD", "trial_index": 140}, "uniqueid": "MTK3597:3O6CYIULEE8D4GYD0C69SXHGR1MUW6", "dateTime": 1520800351510}, {"current_trial": 141, "trialdata": {"rt": -1, "trial_type": "single-stim", "stimulus": "", "internal_node_id": "0.0-105.0-0.0", "time_elapsed": 657650, "key_press": -1, "type": "PRE_RECALL_DELAY", "trial_index": 141}, "uniqueid": "MTK3597:3O6CYIULEE8D4GYD0C69SXHGR1MUW6", "dateTime": 1520800352766}, {"current_trial": 142, "trialdata": {"rt": -1000, "trial_type": "single-audio", "stimulus": "/static/audio/400Hz.wav", "internal_node_id": "0.0-106.0", "time_elapsed": 658151, "key_press": -1, "type": "PRE_RECALL_ALERT", "trial_index": 142}, "uniqueid": "MTK3597:3O6CYIULEE8D4GYD0C69SXHGR1MUW6", "dateTime": 1520800353267}, {"current_trial": 143, "trialdata": {"rt": [6273, 11331, 17254, 22568, 26243, 45401], "recwords": ["balloon", "burglar", "scribble", "thumper", "laser", "marker"], "key_times": [2952, 3745, 4061, 4232, 4601, 4755, 5626, 6273, 7662, 8052, 8435, 8824, 9223, 9628, 10091, 11331, 12820, 13307, 13925, 14233, 14777, 14978, 15247, 15906, 17254, 18050, 18304, 18983, 19426, 20028, 20412, 20881, 22568, 23571, 24004, 24346, 24732, 25224, 26243, 43395, 43724, 44144, 44549, 44847, 45098, 45401], "trial_type": "free-recall", "conditions": [12, 1600, "a", 24000], "internal_node_id": "0.0-107.0-0.0", "key_presses": [66, 65, 76, 76, 79, 79, 78, 32, 66, 85, 82, 71, 76, 65, 82, 32, 83, 67, 82, 73, 66, 66, 76, 69, 32, 84, 72, 85, 77, 80, 69, 82, 32, 76, 65, 83, 69, 82, 32, 77, 65, 82, 75, 69, 82, 32], "trial": 3, "time_elapsed": 718155, "type": "FREE_RECALL", "trial_index": 143}, "uniqueid": "MTK3597:3O6CYIULEE8D4GYD0C69SXHGR1MUW6", "dateTime": 1520800413274}, {"current_trial": 144, "trialdata": {"rt": 1936, "trial_type": "text", "internal_node_id": "0.0-108.0", "time_elapsed": 722095, "key_press": 32, "type": "INSTRUCTIONS", "trial_index": 144}, "uniqueid": "MTK3597:3O6CYIULEE8D4GYD0C69SXHGR1MUW6", "dateTime": 1520800417211}, {"current_trial": 145, "trialdata": {"rt": [4766, 8597], "trial_type": "math-distractor", "key_times": [2216, 3290, 4766, 6880, 7786, 8597], "responses": ["13", "19"], "num2": [5, 8, 2], "num3": [3, 4, 7], "conditions": [24, 1600, "a", 12000], "internal_node_id": "0.0-109.0", "key_presses": [49, 51, 13, 49, 57, 13], "trial": 4, "time_elapsed": 736100, "type": "DISTRACTOR", "trial_index": 145, "num1": [5, 7, 5]}, "uniqueid": "MTK3597:3O6CYIULEE8D4GYD0C69SXHGR1MUW6", "dateTime": 1520800431216}, {"current_trial": 146, "trialdata": {"rt": -1, "trial_type": "single-stim", "stimulus": "<p id=\"stim\">10</p>", "internal_node_id": "0.0-110.0-0.0", "time_elapsed": 739103, "key_press": -1, "trial_index": 146}, "uniqueid": "MTK3597:3O6CYIULEE8D4GYD0C69SXHGR1MUW6", "dateTime": 1520800434219}, {"current_trial": 147, "trialdata": {"rt": -1, "trial_type": "single-stim", "stimulus": "<p id=\"stim\">9</p>", "internal_node_id": "0.0-110.0-1.0", "time_elapsed": 740105, "key_press": -1, "trial_index": 147}, "uniqueid": "MTK3597:3O6CYIULEE8D4GYD0C69SXHGR1MUW6", "dateTime": 1520800435223}, {"current_trial": 148, "trialdata": {"rt": -1, "trial_type": "single-stim", "stimulus": "<p id=\"stim\">8</p>", "internal_node_id": "0.0-110.0-2.0", "time_elapsed": 741108, "key_press": -1, "trial_index": 148}, "uniqueid": "MTK3597:3O6CYIULEE8D4GYD0C69SXHGR1MUW6", "dateTime": 1520800436225}, {"current_trial": 149, "trialdata": {"rt": -1, "trial_type": "single-stim", "stimulus": "<p id=\"stim\">7</p>", "internal_node_id": "0.0-110.0-3.0", "time_elapsed": 742111, "key_press": -1, "trial_index": 149}, "uniqueid": "MTK3597:3O6CYIULEE8D4GYD0C69SXHGR1MUW6", "dateTime": 1520800437228}, {"current_trial": 150, "trialdata": {"rt": -1, "trial_type": "single-stim", "stimulus": "<p id=\"stim\">6</p>", "internal_node_id": "0.0-110.0-4.0", "time_elapsed": 743114, "key_press": -1, "trial_index": 150}, "uniqueid": "MTK3597:3O6CYIULEE8D4GYD0C69SXHGR1MUW6", "dateTime": 1520800438231}, {"current_trial": 151, "trialdata": {"rt": -1, "trial_type": "single-stim", "stimulus": "<p id=\"stim\">5</p>", "internal_node_id": "0.0-110.0-5.0", "time_elapsed": 744117, "key_press": -1, "trial_index": 151}, "uniqueid": "MTK3597:3O6CYIULEE8D4GYD0C69SXHGR1MUW6", "dateTime": 1520800439233}, {"current_trial": 152, "trialdata": {"rt": -1, "trial_type": "single-stim", "stimulus": "<p id=\"stim\">4</p>", "internal_node_id": "0.0-110.0-6.0", "time_elapsed": 745119, "key_press": -1, "trial_index": 152}, "uniqueid": "MTK3597:3O6CYIULEE8D4GYD0C69SXHGR1MUW6", "dateTime": 1520800440235}, {"current_trial": 153, "trialdata": {"rt": -1, "trial_type": "single-stim", "stimulus": "<p id=\"stim\">3</p>", "internal_node_id": "0.0-110.0-7.0", "time_elapsed": 746121, "key_press": -1, "trial_index": 153}, "uniqueid": "MTK3597:3O6CYIULEE8D4GYD0C69SXHGR1MUW6", "dateTime": 1520800441237}, {"current_trial": 154, "trialdata": {"rt": -1, "trial_type": "single-stim", "stimulus": "<p id=\"stim\">2</p>", "internal_node_id": "0.0-110.0-8.0", "time_elapsed": 747122, "key_press": -1, "trial_index": 154}, "uniqueid": "MTK3597:3O6CYIULEE8D4GYD0C69SXHGR1MUW6", "dateTime": 1520800442239}, {"current_trial": 155, "trialdata": {"rt": -1, "trial_type": "single-stim", "stimulus": "<p id=\"stim\">1</p>", "internal_node_id": "0.0-110.0-9.0", "time_elapsed": 748125, "key_press": -1, "trial_index": 155}, "uniqueid": "MTK3597:3O6CYIULEE8D4GYD0C69SXHGR1MUW6", "dateTime": 1520800443241}, {"current_trial": 156, "trialdata": {"rt": -1, "trial_type": "single-stim", "stimulus": "<p id=\"stim\">+</p>", "internal_node_id": "0.0-111.0-0.0", "time_elapsed": 749627, "key_press": -1, "type": "FIXATION", "trial_index": 156}, "uniqueid": "MTK3597:3O6CYIULEE8D4GYD0C69SXHGR1MUW6", "dateTime": 1520800444743}, {"current_trial": 157, "trialdata": {"rt": -1000, "trial_type": "single-audio", "word": "frame", "stimulus": "/static/audio/wordpool/FRAME.wav", "conditions": [24, 1600, "a", 12000], "internal_node_id": "0.0-112.0", "trial": 4, "time_elapsed": 752066, "serialpos": 0, "key_press": -1, "wordID": 599, "type": "PRES_AUD", "trial_index": 157}, "uniqueid": "MTK3597:3O6CYIULEE8D4GYD0C69SXHGR1MUW6", "dateTime": 1520800447182}, {"current_trial": 158, "trialdata": {"rt": -1000, "trial_type": "single-audio", "word": "picnic", "stimulus": "/static/audio/wordpool/PICNIC.wav", "conditions": [24, 1600, "a", 12000], "internal_node_id": "0.0-113.0", "trial": 4, "time_elapsed": 754764, "serialpos": 1, "key_press": -1, "wordID": 1059, "type": "PRES_AUD", "trial_index": 158}, "uniqueid": "MTK3597:3O6CYIULEE8D4GYD0C69SXHGR1MUW6", "dateTime": 1520800449880}, {"current_trial": 159, "trialdata": {"rt": -1000, "trial_type": "single-audio", "word": "beast", "stimulus": "/static/audio/wordpool/BEAST.wav", "conditions": [24, 1600, "a", 12000], "internal_node_id": "0.0-114.0", "trial": 4, "time_elapsed": 757505, "serialpos": 2, "key_press": -1, "wordID": 107, "type": "PRES_AUD", "trial_index": 159}, "uniqueid": "MTK3597:3O6CYIULEE8D4GYD0C69SXHGR1MUW6", "dateTime": 1520800452621}, {"current_trial": 160, "trialdata": {"rt": -1000, "trial_type": "single-audio", "word": "picture", "stimulus": "/static/audio/wordpool/PICTURE.wav", "conditions": [24, 1600, "a", 12000], "internal_node_id": "0.0-115.0", "trial": 4, "time_elapsed": 759974, "serialpos": 3, "key_press": -1, "wordID": 1060, "type": "PRES_AUD", "trial_index": 160}, "uniqueid": "MTK3597:3O6CYIULEE8D4GYD0C69SXHGR1MUW6", "dateTime": 1520800455090}, {"current_trial": 161, "trialdata": {"rt": -1000, "trial_type": "single-audio", "word": "dancer", "stimulus": "/static/audio/wordpool/DANCER.wav", "conditions": [24, 1600, "a", 12000], "internal_node_id": "0.0-116.0", "trial": 4, "time_elapsed": 762649, "serialpos": 4, "key_press": -1, "wordID": 436, "type": "PRES_AUD", "trial_index": 161}, "uniqueid": "MTK3597:3O6CYIULEE8D4GYD0C69SXHGR1MUW6", "dateTime": 1520800457765}, {"current_trial": 162, "trialdata": {"rt": -1000, "trial_type": "single-audio", "word": "supper", "stimulus": "/static/audio/wordpool/SUPPER.wav", "conditions": [24, 1600, "a", 12000], "internal_node_id": "0.0-117.0", "trial": 4, "time_elapsed": 765188, "serialpos": 5, "key_press": -1, "wordID": 1410, "type": "PRES_AUD", "trial_index": 162}, "uniqueid": "MTK3597:3O6CYIULEE8D4GYD0C69SXHGR1MUW6", "dateTime": 1520800460304}, {"current_trial": 163, "trialdata": {"rt": -1000, "trial_type": "single-audio", "word": "hook", "stimulus": "/static/audio/wordpool/HOOK.wav", "conditions": [24, 1600, "a", 12000], "internal_node_id": "0.0-118.0", "trial": 4, "time_elapsed": 767688, "serialpos": 6, "key_press": -1, "wordID": 714, "type": "PRES_AUD", "trial_index": 163}, "uniqueid": "MTK3597:3O6CYIULEE8D4GYD0C69SXHGR1MUW6", "dateTime": 1520800462804}, {"current_trial": 164, "trialdata": {"rt": -1000, "trial_type": "single-audio", "word": "fireplace", "stimulus": "/static/audio/wordpool/FIREPLACE.wav", "conditions": [24, 1600, "a", 12000], "internal_node_id": "0.0-119.0", "trial": 4, "time_elapsed": 770177, "serialpos": 7, "key_press": -1, "wordID": 569, "type": "PRES_AUD", "trial_index": 164}, "uniqueid": "MTK3597:3O6CYIULEE8D4GYD0C69SXHGR1MUW6", "dateTime": 1520800465293}, {"current_trial": 165, "trialdata": {"rt": -1000, "trial_type": "single-audio", "word": "lumber", "stimulus": "/static/audio/wordpool/LUMBER.wav", "conditions": [24, 1600, "a", 12000], "internal_node_id": "0.0-120.0", "trial": 4, "time_elapsed": 772957, "serialpos": 8, "key_press": -1, "wordID": 847, "type": "PRES_AUD", "trial_index": 165}, "uniqueid": "MTK3597:3O6CYIULEE8D4GYD0C69SXHGR1MUW6", "dateTime": 1520800468073}, {"current_trial": 166, "trialdata": {"rt": -1000, "trial_type": "single-audio", "word": "citrus", "stimulus": "/static/audio/wordpool/CITRUS.wav", "conditions": [24, 1600, "a", 12000], "internal_node_id": "0.0-121.0", "trial": 4, "time_elapsed": 775689, "serialpos": 9, "key_press": -1, "wordID": 312, "type": "PRES_AUD", "trial_index": 166}, "uniqueid": "MTK3597:3O6CYIULEE8D4GYD0C69SXHGR1MUW6", "dateTime": 1520800470805}, {"current_trial": 167, "trialdata": {"rt": -1000, "trial_type": "single-audio", "word": "grape", "stimulus": "/static/audio/wordpool/GRAPE.wav", "conditions": [24, 1600, "a", 12000], "internal_node_id": "0.0-122.0", "trial": 4, "time_elapsed": 778288, "serialpos": 10, "key_press": -1, "wordID": 653, "type": "PRES_AUD", "trial_index": 167}, "uniqueid": "MTK3597:3O6CYIULEE8D4GYD0C69SXHGR1MUW6", "dateTime": 1520800473405}, {"current_trial": 168, "trialdata": {"rt": -1000, "trial_type": "single-audio", "word": "statue", "stimulus": "/static/audio/wordpool/STATUE.wav", "conditions": [24, 1600, "a", 12000], "internal_node_id": "0.0-123.0", "trial": 4, "time_elapsed": 780804, "serialpos": 11, "key_press": -1, "wordID": 1373, "type": "PRES_AUD", "trial_index": 168}, "uniqueid": "MTK3597:3O6CYIULEE8D4GYD0C69SXHGR1MUW6", "dateTime": 1520800475920}, {"current_trial": 169, "trialdata": {"rt": -1000, "trial_type": "single-audio", "word": "spider", "stimulus": "/static/audio/wordpool/SPIDER.wav", "conditions": [24, 1600, "a", 12000], "internal_node_id": "0.0-124.0", "trial": 4, "time_elapsed": 783368, "serialpos": 12, "key_press": -1, "wordID": 1350, "type": "PRES_AUD", "trial_index": 169}, "uniqueid": "MTK3597:3O6CYIULEE8D4GYD0C69SXHGR1MUW6", "dateTime": 1520800478484}, {"current_trial": 170, "trialdata": {"rt": -1000, "trial_type": "single-audio", "word": "dandruff", "stimulus": "/static/audio/wordpool/DANDRUFF.wav", "conditions": [24, 1600, "a", 12000], "internal_node_id": "0.0-125.0", "trial": 4, "time_elapsed": 786122, "serialpos": 13, "key_press": -1, "wordID": 438, "type": "PRES_AUD", "trial_index": 170}, "uniqueid": "MTK3597:3O6CYIULEE8D4GYD0C69SXHGR1MUW6", "dateTime": 1520800481239}, {"current_trial": 171, "trialdata": {"rt": -1000, "trial_type": "single-audio", "word": "body", "stimulus": "/static/audio/wordpool/BODY.wav", "conditions": [24, 1600, "a", 12000], "internal_node_id": "0.0-126.0", "trial": 4, "time_elapsed": 788908, "serialpos": 14, "key_press": -1, "wordID": 144, "type": "PRES_AUD", "trial_index": 171}, "uniqueid": "MTK3597:3O6CYIULEE8D4GYD0C69SXHGR1MUW6", "dateTime": 1520800484024}, {"current_trial": 172, "trialdata": {"rt": -1000, "trial_type": "single-audio", "word": "lodge", "stimulus": "/static/audio/wordpool/LODGE.wav", "conditions": [24, 1600, "a", 12000], "internal_node_id": "0.0-127.0", "trial": 4, "time_elapsed": 791440, "serialpos": 15, "key_press": -1, "wordID": 838, "type": "PRES_AUD", "trial_index": 172}, "uniqueid": "MTK3597:3O6CYIULEE8D4GYD0C69SXHGR1MUW6", "dateTime": 1520800486556}, {"current_trial": 173, "trialdata": {"rt": -1000, "trial_type": "single-audio", "word": "handbag", "stimulus": "/static/audio/wordpool/HANDBAG.wav", "conditions": [24, 1600, "a", 12000], "internal_node_id": "0.0-128.0", "trial": 4, "time_elapsed": 793864, "serialpos": 16, "key_press": -1, "wordID": 683, "type": "PRES_AUD", "trial_index": 173}, "uniqueid": "MTK3597:3O6CYIULEE8D4GYD0C69SXHGR1MUW6", "dateTime": 1520800488981}, {"current_trial": 174, "trialdata": {"rt": -1000, "trial_type": "single-audio", "word": "kleenex", "stimulus": "/static/audio/wordpool/KLEENEX.wav", "conditions": [24, 1600, "a", 12000], "internal_node_id": "0.0-129.0", "trial": 4, "time_elapsed": 796278, "serialpos": 17, "key_press": -1, "wordID": 781, "type": "PRES_AUD", "trial_index": 174}, "uniqueid": "MTK3597:3O6CYIULEE8D4GYD0C69SXHGR1MUW6", "dateTime": 1520800491394}, {"current_trial": 175, "trialdata": {"rt": -1000, "trial_type": "single-audio", "word": "proton", "stimulus": "/static/audio/wordpool/PROTON.wav", "conditions": [24, 1600, "a", 12000], "internal_node_id": "0.0-130.0", "trial": 4, "time_elapsed": 798922, "serialpos": 18, "key_press": -1, "wordID": 1131, "type": "PRES_AUD", "trial_index": 175}, "uniqueid": "MTK3597:3O6CYIULEE8D4GYD0C69SXHGR1MUW6", "dateTime": 1520800494038}, {"current_trial": 176, "trialdata": {"rt": -1000, "trial_type": "single-audio", "word": "lake", "stimulus": "/static/audio/wordpool/LAKE.wav", "conditions": [24, 1600, "a", 12000], "internal_node_id": "0.0-131.0", "trial": 4, "time_elapsed": 801662, "serialpos": 19, "key_press": -1, "wordID": 795, "type": "PRES_AUD", "trial_index": 176}, "uniqueid": "MTK3597:3O6CYIULEE8D4GYD0C69SXHGR1MUW6", "dateTime": 1520800496778}, {"current_trial": 177, "trialdata": {"rt": -1000, "trial_type": "single-audio", "word": "marsh", "stimulus": "/static/audio/wordpool/MARSH.wav", "conditions": [24, 1600, "a", 12000], "internal_node_id": "0.0-132.0", "trial": 4, "time_elapsed": 804122, "serialpos": 20, "key_press": -1, "wordID": 873, "type": "PRES_AUD", "trial_index": 177}, "uniqueid": "MTK3597:3O6CYIULEE8D4GYD0C69SXHGR1MUW6", "dateTime": 1520800499238}, {"current_trial": 178, "trialdata": {"rt": -1000, "trial_type": "single-audio", "word": "mister", "stimulus": "/static/audio/wordpool/MISTER.wav", "conditions": [24, 1600, "a", 12000], "internal_node_id": "0.0-133.0", "trial": 4, "time_elapsed": 806721, "serialpos": 21, "key_press": -1, "wordID": 900, "type": "PRES_AUD", "trial_index": 178}, "uniqueid": "MTK3597:3O6CYIULEE8D4GYD0C69SXHGR1MUW6", "dateTime": 1520800501838}, {"current_trial": 179, "trialdata": {"rt": -1000, "trial_type": "single-audio", "word": "widow", "stimulus": "/static/audio/wordpool/WIDOW.wav", "conditions": [24, 1600, "a", 12000], "internal_node_id": "0.0-134.0", "trial": 4, "time_elapsed": 809125, "serialpos": 22, "key_press": -1, "wordID": 1607, "type": "PRES_AUD", "trial_index": 179}, "uniqueid": "MTK3597:3O6CYIULEE8D4GYD0C69SXHGR1MUW6", "dateTime": 1520800504241}, {"current_trial": 180, "trialdata": {"rt": -1000, "trial_type": "single-audio", "word": "suitcase", "stimulus": "/static/audio/wordpool/SUITCASE.wav", "conditions": [24, 1600, "a", 12000], "internal_node_id": "0.0-135.0", "trial": 4, "time_elapsed": 811794, "serialpos": 23, "key_press": -1, "wordID": 1402, "type": "PRES_AUD", "trial_index": 180}, "uniqueid": "MTK3597:3O6CYIULEE8D4GYD0C69SXHGR1MUW6", "dateTime": 1520800506910}, {"current_trial": 181, "trialdata": {"rt": -1, "trial_type": "single-stim", "stimulus": "", "internal_node_id": "0.0-136.0-0.0", "time_elapsed": 813013, "key_press": -1, "type": "PRE_RECALL_DELAY", "trial_index": 181}, "uniqueid": "MTK3597:3O6CYIULEE8D4GYD0C69SXHGR1MUW6", "dateTime": 1520800508131}, {"current_trial": 182, "trialdata": {"rt": -1000, "trial_type": "single-audio", "stimulus": "/static/audio/400Hz.wav", "internal_node_id": "0.0-137.0", "time_elapsed": 813518, "key_press": -1, "type": "PRE_RECALL_ALERT", "trial_index": 182}, "uniqueid": "MTK3597:3O6CYIULEE8D4GYD0C69SXHGR1MUW6", "dateTime": 1520800508634}, {"current_trial": 183, "trialdata": {"rt": [7896, 12348, 16951, 21856, 27401, 33128, 43747, 47961, 59465], "recwords": ["suitcase", "widow", "marsh", "proton", "handbag", "blood", "plate", "friend", "friend"], "key_times": [2881, 3268, 3475, 3973, 4369, 4597, 4847, 6479, 7896, 9313, 9679, 10198, 10605, 11230, 12348, 13122, 13442, 13883, 14222, 14571, 16951, 18694, 19058, 19320, 19842, 20114, 20648, 21856, 22614, 22841, 23135, 23633, 24083, 24296, 25482, 27401, 30509, 30886, 31205, 31367, 32508, 33128, 41644, 41937, 42312, 42736, 43174, 43747, 44873, 45147, 45593, 45779, 46055, 47003, 47961, 56797, 57128, 57655, 57824, 58111, 58779, 59465], "trial_type": "free-recall", "conditions": [24, 1600, "a", 12000], "internal_node_id": "0.0-138.0-0.0", "key_presses": [83, 85, 73, 84, 67, 65, 83, 69, 32, 87, 73, 68, 79, 87, 32, 77, 65, 82, 83, 72, 32, 80, 82, 79, 84, 79, 78, 32, 72, 65, 78, 68, 66, 65, 71, 32, 66, 76, 79, 79, 68, 32, 80, 76, 65, 84, 69, 32, 70, 82, 73, 69, 78, 68, 32, 70, 82, 73, 69, 78, 68, 32], "trial": 4, "time_elapsed": 873521, "type": "FREE_RECALL", "trial_index": 183}, "uniqueid": "MTK3597:3O6CYIULEE8D4GYD0C69SXHGR1MUW6", "dateTime": 1520800568641}, {"current_trial": 184, "trialdata": {"rt": 12239, "trial_type": "text", "internal_node_id": "0.0-139.0", "time_elapsed": 887765, "key_press": 222, "type": "INSTRUCTIONS", "trial_index": 184}, "uniqueid": "MTK3597:3O6CYIULEE8D4GYD0C69SXHGR1MUW6", "dateTime": 1520800582881}, {"current_trial": 185, "trialdata": {"rt": [3150, 6198, 8746, 11010], "trial_type": "math-distractor", "key_times": [1987, 2201, 3150, 5033, 5444, 6198, 8105, 8503, 8746, 10282, 10484, 11010], "responses": ["11", "19", "12", "22"], "num2": [4, 5, 4, 9, 1], "num3": [5, 9, 5, 4, 8], "conditions": [12, 1600, "a", 12000], "internal_node_id": "0.0-140.0", "key_presses": [49, 49, 13, 49, 57, 13, 49, 50, 13, 50, 50, 13], "trial": 5, "time_elapsed": 901770, "type": "DISTRACTOR", "trial_index": 185, "num1": [2, 5, 3, 9, 1]}, "uniqueid": "MTK3597:3O6CYIULEE8D4GYD0C69SXHGR1MUW6", "dateTime": 1520800596886}, {"current_trial": 186, "trialdata": {"rt": -1, "trial_type": "single-stim", "stimulus": "<p id=\"stim\">10</p>", "internal_node_id": "0.0-141.0-0.0", "time_elapsed": 904774, "key_press": -1, "trial_index": 186}, "uniqueid": "MTK3597:3O6CYIULEE8D4GYD0C69SXHGR1MUW6", "dateTime": 1520800599890}, {"current_trial": 187, "trialdata": {"rt": -1, "trial_type": "single-stim", "stimulus": "<p id=\"stim\">9</p>", "internal_node_id": "0.0-141.0-1.0", "time_elapsed": 905776, "key_press": -1, "trial_index": 187}, "uniqueid": "MTK3597:3O6CYIULEE8D4GYD0C69SXHGR1MUW6", "dateTime": 1520800600893}, {"current_trial": 188, "trialdata": {"rt": -1, "trial_type": "single-stim", "stimulus": "<p id=\"stim\">8</p>", "internal_node_id": "0.0-141.0-2.0", "time_elapsed": 906778, "key_press": -1, "trial_index": 188}, "uniqueid": "MTK3597:3O6CYIULEE8D4GYD0C69SXHGR1MUW6", "dateTime": 1520800601894}, {"current_trial": 189, "trialdata": {"rt": -1, "trial_type": "single-stim", "stimulus": "<p id=\"stim\">7</p>", "internal_node_id": "0.0-141.0-3.0", "time_elapsed": 907780, "key_press": -1, "trial_index": 189}, "uniqueid": "MTK3597:3O6CYIULEE8D4GYD0C69SXHGR1MUW6", "dateTime": 1520800602896}, {"current_trial": 190, "trialdata": {"rt": -1, "trial_type": "single-stim", "stimulus": "<p id=\"stim\">6</p>", "internal_node_id": "0.0-141.0-4.0", "time_elapsed": 908783, "key_press": -1, "trial_index": 190}, "uniqueid": "MTK3597:3O6CYIULEE8D4GYD0C69SXHGR1MUW6", "dateTime": 1520800603899}, {"current_trial": 191, "trialdata": {"rt": -1, "trial_type": "single-stim", "stimulus": "<p id=\"stim\">5</p>", "internal_node_id": "0.0-141.0-5.0", "time_elapsed": 909785, "key_press": -1, "trial_index": 191}, "uniqueid": "MTK3597:3O6CYIULEE8D4GYD0C69SXHGR1MUW6", "dateTime": 1520800604901}, {"current_trial": 192, "trialdata": {"rt": -1, "trial_type": "single-stim", "stimulus": "<p id=\"stim\">4</p>", "internal_node_id": "0.0-141.0-6.0", "time_elapsed": 910787, "key_press": -1, "trial_index": 192}, "uniqueid": "MTK3597:3O6CYIULEE8D4GYD0C69SXHGR1MUW6", "dateTime": 1520800605904}, {"current_trial": 193, "trialdata": {"rt": -1, "trial_type": "single-stim", "stimulus": "<p id=\"stim\">3</p>", "internal_node_id": "0.0-141.0-7.0", "time_elapsed": 911789, "key_press": -1, "trial_index": 193}, "uniqueid": "MTK3597:3O6CYIULEE8D4GYD0C69SXHGR1MUW6", "dateTime": 1520800606905}, {"current_trial": 194, "trialdata": {"rt": -1, "trial_type": "single-stim", "stimulus": "<p id=\"stim\">2</p>", "internal_node_id": "0.0-141.0-8.0", "time_elapsed": 912791, "key_press": -1, "trial_index": 194}, "uniqueid": "MTK3597:3O6CYIULEE8D4GYD0C69SXHGR1MUW6", "dateTime": 1520800607907}, {"current_trial": 195, "trialdata": {"rt": -1, "trial_type": "single-stim", "stimulus": "<p id=\"stim\">1</p>", "internal_node_id": "0.0-141.0-9.0", "time_elapsed": 913793, "key_press": -1, "trial_index": 195}, "uniqueid": "MTK3597:3O6CYIULEE8D4GYD0C69SXHGR1MUW6", "dateTime": 1520800608909}, {"current_trial": 196, "trialdata": {"rt": -1, "trial_type": "single-stim", "stimulus": "<p id=\"stim\">+</p>", "internal_node_id": "0.0-142.0-0.0", "time_elapsed": 915295, "key_press": -1, "type": "FIXATION", "trial_index": 196}, "uniqueid": "MTK3597:3O6CYIULEE8D4GYD0C69SXHGR1MUW6", "dateTime": 1520800610411}, {"current_trial": 197, "trialdata": {"rt": -1000, "trial_type": "single-audio", "word": "tuba", "stimulus": "/static/audio/wordpool/TUBA.wav", "conditions": [12, 1600, "a", 12000], "internal_node_id": "0.0-143.0", "trial": 5, "time_elapsed": 917921, "serialpos": 0, "key_press": -1, "wordID": 1514, "type": "PRES_AUD", "trial_index": 197}, "uniqueid": "MTK3597:3O6CYIULEE8D4GYD0C69SXHGR1MUW6", "dateTime": 1520800613037}, {"current_trial": 198, "trialdata": {"rt": -1000, "trial_type": "single-audio", "word": "piano", "stimulus": "/static/audio/wordpool/PIANO.wav", "conditions": [12, 1600, "a", 12000], "internal_node_id": "0.0-144.0", "trial": 5, "time_elapsed": 920651, "serialpos": 1, "key_press": -1, "wordID": 1056, "type": "PRES_AUD", "trial_index": 198}, "uniqueid": "MTK3597:3O6CYIULEE8D4GYD0C69SXHGR1MUW6", "dateTime": 1520800615767}, {"current_trial": 199, "trialdata": {"rt": -1000, "trial_type": "single-audio", "word": "basement", "stimulus": "/static/audio/wordpool/BASEMENT.wav", "conditions": [12, 1600, "a", 12000], "internal_node_id": "0.0-145.0", "trial": 5, "time_elapsed": 923121, "serialpos": 2, "key_press": -1, "wordID": 93, "type": "PRES_AUD", "trial_index": 199}, "uniqueid": "MTK3597:3O6CYIULEE8D4GYD0C69SXHGR1MUW6", "dateTime": 1520800618237}, {"current_trial": 200, "trialdata": {"rt": -1000, "trial_type": "single-audio", "word": "portrait", "stimulus": "/static/audio/wordpool/PORTRAIT.wav", "conditions": [12, 1600, "a", 12000], "internal_node_id": "0.0-146.0", "trial": 5, "time_elapsed": 925623, "serialpos": 3, "key_press": -1, "wordID": 1110, "type": "PRES_AUD", "trial_index": 200}, "uniqueid": "MTK3597:3O6CYIULEE8D4GYD0C69SXHGR1MUW6", "dateTime": 1520800620739}, {"current_trial": 201, "trialdata": {"rt": -1000, "trial_type": "single-audio", "word": "france", "stimulus": "/static/audio/wordpool/FRANCE.wav", "conditions": [12, 1600, "a", 12000], "internal_node_id": "0.0-147.0", "trial": 5, "time_elapsed": 928101, "serialpos": 4, "key_press": -1, "wordID": 600, "type": "PRES_AUD", "trial_index": 201}, "uniqueid": "MTK3597:3O6CYIULEE8D4GYD0C69SXHGR1MUW6", "dateTime": 1520800623217}, {"current_trial": 202, "trialdata": {"rt": -1000, "trial_type": "single-audio", "word": "viking", "stimulus": "/static/audio/wordpool/VIKING.wav", "conditions": [12, 1600, "a", 12000], "internal_node_id": "0.0-148.0", "trial": 5, "time_elapsed": 930665, "serialpos": 5, "key_press": -1, "wordID": 1564, "type": "PRES_AUD", "trial_index": 202}, "uniqueid": "MTK3597:3O6CYIULEE8D4GYD0C69SXHGR1MUW6", "dateTime": 1520800625782}, {"current_trial": 203, "trialdata": {"rt": -1000, "trial_type": "single-audio", "word": "record", "stimulus": "/static/audio/wordpool/RECORD.wav", "conditions": [12, 1600, "a", 12000], "internal_node_id": "0.0-149.0", "trial": 5, "time_elapsed": 933366, "serialpos": 6, "key_press": -1, "wordID": 1175, "type": "PRES_AUD", "trial_index": 203}, "uniqueid": "MTK3597:3O6CYIULEE8D4GYD0C69SXHGR1MUW6", "dateTime": 1520800628482}, {"current_trial": 204, "trialdata": {"rt": -1000, "trial_type": "single-audio", "word": "pocket", "stimulus": "/static/audio/wordpool/POCKET.wav", "conditions": [12, 1600, "a", 12000], "internal_node_id": "0.0-150.0", "trial": 5, "time_elapsed": 936023, "serialpos": 7, "key_press": -1, "wordID": 1092, "type": "PRES_AUD", "trial_index": 204}, "uniqueid": "MTK3597:3O6CYIULEE8D4GYD0C69SXHGR1MUW6", "dateTime": 1520800631139}, {"current_trial": 205, "trialdata": {"rt": -1000, "trial_type": "single-audio", "word": "tile", "stimulus": "/static/audio/wordpool/TILE.wav", "conditions": [12, 1600, "a", 12000], "internal_node_id": "0.0-151.0", "trial": 5, "time_elapsed": 938557, "serialpos": 8, "key_press": -1, "wordID": 1467, "type": "PRES_AUD", "trial_index": 205}, "uniqueid": "MTK3597:3O6CYIULEE8D4GYD0C69SXHGR1MUW6", "dateTime": 1520800633673}, {"current_trial": 206, "trialdata": {"rt": -1000, "trial_type": "single-audio", "word": "velvet", "stimulus": "/static/audio/wordpool/VELVET.wav", "conditions": [12, 1600, "a", 12000], "internal_node_id": "0.0-152.0", "trial": 5, "time_elapsed": 941185, "serialpos": 9, "key_press": -1, "wordID": 1554, "type": "PRES_AUD", "trial_index": 206}, "uniqueid": "MTK3597:3O6CYIULEE8D4GYD0C69SXHGR1MUW6", "dateTime": 1520800636302}, {"current_trial": 207, "trialdata": {"rt": -1000, "trial_type": "single-audio", "word": "bouquet", "stimulus": "/static/audio/wordpool/BOUQUET.wav", "conditions": [12, 1600, "a", 12000], "internal_node_id": "0.0-153.0", "trial": 5, "time_elapsed": 943608, "serialpos": 10, "key_press": -1, "wordID": 156, "type": "PRES_AUD", "trial_index": 207}, "uniqueid": "MTK3597:3O6CYIULEE8D4GYD0C69SXHGR1MUW6", "dateTime": 1520800638724}, {"current_trial": 208, "trialdata": {"rt": -1000, "trial_type": "single-audio", "word": "cellar", "stimulus": "/static/audio/wordpool/CELLAR.wav", "conditions": [12, 1600, "a", 12000], "internal_node_id": "0.0-154.0", "trial": 5, "time_elapsed": 946249, "serialpos": 11, "key_press": -1, "wordID": 266, "type": "PRES_AUD", "trial_index": 208}, "uniqueid": "MTK3597:3O6CYIULEE8D4GYD0C69SXHGR1MUW6", "dateTime": 1520800641366}, {"current_trial": 209, "trialdata": {"rt": -1, "trial_type": "single-stim", "stimulus": "", "internal_node_id": "0.0-155.0-0.0", "time_elapsed": 947605, "key_press": -1, "type": "PRE_RECALL_DELAY", "trial_index": 209}, "uniqueid": "MTK3597:3O6CYIULEE8D4GYD0C69SXHGR1MUW6", "dateTime": 1520800642722}, {"current_trial": 210, "trialdata": {"rt": -1000, "trial_type": "single-audio", "stimulus": "/static/audio/400Hz.wav", "internal_node_id": "0.0-156.0", "time_elapsed": 948109, "key_press": -1, "type": "PRE_RECALL_ALERT", "trial_index": 210}, "uniqueid": "MTK3597:3O6CYIULEE8D4GYD0C69SXHGR1MUW6", "dateTime": 1520800643225}, {"current_trial": 211, "trialdata": {"rt": [4672, 8444, 13994, 18921, 21993, 26270, 32908], "recwords": ["tuba", "piano", "portrait", "record", "tire", "velvet", "bouquet"], "key_times": [2121, 2445, 3105, 3317, 4672, 5490, 5820, 6221, 6624, 7193, 8444, 9977, 10287, 10861, 11088, 11677, 12176, 12495, 12880, 13994, 15024, 15280, 15667, 15987, 16474, 16759, 18921, 20337, 20694, 20996, 21308, 21993, 23399, 23781, 24243, 24749, 24917, 25384, 26270, 29585, 30205, 30584, 30953, 31499, 31944, 32181, 32908], "trial_type": "free-recall", "conditions": [12, 1600, "a", 12000], "internal_node_id": "0.0-157.0-0.0", "key_presses": [84, 85, 66, 65, 32, 80, 73, 65, 78, 79, 32, 80, 79, 82, 84, 82, 65, 73, 84, 32, 82, 69, 67, 79, 82, 68, 32, 84, 73, 82, 69, 32, 86, 69, 76, 86, 69, 84, 32, 66, 79, 85, 81, 85, 69, 84, 32], "trial": 5, "time_elapsed": 1008112, "type": "FREE_RECALL", "trial_index": 211}, "uniqueid": "MTK3597:3O6CYIULEE8D4GYD0C69SXHGR1MUW6", "dateTime": 1520800703235}, {"current_trial": 212, "trialdata": {"rt": 2426, "trial_type": "text", "internal_node_id": "0.0-158.0", "time_elapsed": 1012545, "key_press": 32, "type": "INSTRUCTIONS", "trial_index": 212}, "uniqueid": "MTK3597:3O6CYIULEE8D4GYD0C69SXHGR1MUW6", "dateTime": 1520800707662}, {"current_trial": 213, "trialdata": {"rt": [2890, 5521, 8802, 11920], "trial_type": "math-distractor", "key_times": [2165, 2890, 5199, 5521, 8344, 8560, 8802, 10771, 11639, 11920], "responses": ["7", "8", "22", "10"], "num2": [5, 2, 5, 3, 6], "num3": [1, 3, 9, 2, 4], "conditions": [12, 1600, "a", 12000], "internal_node_id": "0.0-159.0", "key_presses": [55, 13, 56, 13, 50, 50, 13, 49, 48, 13], "trial": 6, "time_elapsed": 1026551, "type": "DISTRACTOR", "trial_index": 213, "num1": [1, 3, 8, 5, 7]}, "uniqueid": "MTK3597:3O6CYIULEE8D4GYD0C69SXHGR1MUW6", "dateTime": 1520800721667}, {"current_trial": 214, "trialdata": {"rt": -1, "trial_type": "single-stim", "stimulus": "<p id=\"stim\">10</p>", "internal_node_id": "0.0-160.0-0.0", "time_elapsed": 1029553, "key_press": -1, "trial_index": 214}, "uniqueid": "MTK3597:3O6CYIULEE8D4GYD0C69SXHGR1MUW6", "dateTime": 1520800724669}, {"current_trial": 215, "trialdata": {"rt": -1, "trial_type": "single-stim", "stimulus": "<p id=\"stim\">9</p>", "internal_node_id": "0.0-160.0-1.0", "time_elapsed": 1030555, "key_press": -1, "trial_index": 215}, "uniqueid": "MTK3597:3O6CYIULEE8D4GYD0C69SXHGR1MUW6", "dateTime": 1520800725671}, {"current_trial": 216, "trialdata": {"rt": -1, "trial_type": "single-stim", "stimulus": "<p id=\"stim\">8</p>", "internal_node_id": "0.0-160.0-2.0", "time_elapsed": 1031557, "key_press": -1, "trial_index": 216}, "uniqueid": "MTK3597:3O6CYIULEE8D4GYD0C69SXHGR1MUW6", "dateTime": 1520800726673}, {"current_trial": 217, "trialdata": {"rt": -1, "trial_type": "single-stim", "stimulus": "<p id=\"stim\">7</p>", "internal_node_id": "0.0-160.0-3.0", "time_elapsed": 1032559, "key_press": -1, "trial_index": 217}, "uniqueid": "MTK3597:3O6CYIULEE8D4GYD0C69SXHGR1MUW6", "dateTime": 1520800727675}, {"current_trial": 218, "trialdata": {"rt": -1, "trial_type": "single-stim", "stimulus": "<p id=\"stim\">6</p>", "internal_node_id": "0.0-160.0-4.0", "time_elapsed": 1033561, "key_press": -1, "trial_index": 218}, "uniqueid": "MTK3597:3O6CYIULEE8D4GYD0C69SXHGR1MUW6", "dateTime": 1520800728678}, {"current_trial": 219, "trialdata": {"rt": -1, "trial_type": "single-stim", "stimulus": "<p id=\"stim\">5</p>", "internal_node_id": "0.0-160.0-5.0", "time_elapsed": 1034565, "key_press": -1, "trial_index": 219}, "uniqueid": "MTK3597:3O6CYIULEE8D4GYD0C69SXHGR1MUW6", "dateTime": 1520800729681}, {"current_trial": 220, "trialdata": {"rt": -1, "trial_type": "single-stim", "stimulus": "<p id=\"stim\">4</p>", "internal_node_id": "0.0-160.0-6.0", "time_elapsed": 1035567, "key_press": -1, "trial_index": 220}, "uniqueid": "MTK3597:3O6CYIULEE8D4GYD0C69SXHGR1MUW6", "dateTime": 1520800730683}, {"current_trial": 221, "trialdata": {"rt": -1, "trial_type": "single-stim", "stimulus": "<p id=\"stim\">3</p>", "internal_node_id": "0.0-160.0-7.0", "time_elapsed": 1036569, "key_press": -1, "trial_index": 221}, "uniqueid": "MTK3597:3O6CYIULEE8D4GYD0C69SXHGR1MUW6", "dateTime": 1520800731685}, {"current_trial": 222, "trialdata": {"rt": -1, "trial_type": "single-stim", "stimulus": "<p id=\"stim\">2</p>", "internal_node_id": "0.0-160.0-8.0", "time_elapsed": 1037571, "key_press": -1, "trial_index": 222}, "uniqueid": "MTK3597:3O6CYIULEE8D4GYD0C69SXHGR1MUW6", "dateTime": 1520800732688}, {"current_trial": 223, "trialdata": {"rt": -1, "trial_type": "single-stim", "stimulus": "<p id=\"stim\">1</p>", "internal_node_id": "0.0-160.0-9.0", "time_elapsed": 1038573, "key_press": -1, "trial_index": 223}, "uniqueid": "MTK3597:3O6CYIULEE8D4GYD0C69SXHGR1MUW6", "dateTime": 1520800733690}, {"current_trial": 224, "trialdata": {"rt": -1, "trial_type": "single-stim", "stimulus": "<p id=\"stim\">+</p>", "internal_node_id": "0.0-161.0-0.0", "time_elapsed": 1040075, "key_press": -1, "type": "FIXATION", "trial_index": 224}, "uniqueid": "MTK3597:3O6CYIULEE8D4GYD0C69SXHGR1MUW6", "dateTime": 1520800735191}, {"current_trial": 225, "trialdata": {"rt": -1000, "trial_type": "single-audio", "word": "quail", "stimulus": "/static/audio/wordpool/QUAIL.wav", "conditions": [12, 1600, "a", 12000], "internal_node_id": "0.0-162.0", "trial": 6, "time_elapsed": 1042815, "serialpos": 0, "key_press": -1, "wordID": 1146, "type": "PRES_AUD", "trial_index": 225}, "uniqueid": "MTK3597:3O6CYIULEE8D4GYD0C69SXHGR1MUW6", "dateTime": 1520800737931}, {"current_trial": 226, "trialdata": {"rt": -1000, "trial_type": "single-audio", "word": "flower", "stimulus": "/static/audio/wordpool/FLOWER.wav", "conditions": [12, 1600, "a", 12000], "internal_node_id": "0.0-163.0", "trial": 6, "time_elapsed": 1045393, "serialpos": 1, "key_press": -1, "wordID": 583, "type": "PRES_AUD", "trial_index": 226}, "uniqueid": "MTK3597:3O6CYIULEE8D4GYD0C69SXHGR1MUW6", "dateTime": 1520800740510}, {"current_trial": 227, "trialdata": {"rt": -1000, "trial_type": "single-audio", "word": "valve", "stimulus": "/static/audio/wordpool/VALVE.wav", "conditions": [12, 1600, "a", 12000], "internal_node_id": "0.0-164.0", "trial": 6, "time_elapsed": 1047820, "serialpos": 2, "key_press": -1, "wordID": 1545, "type": "PRES_AUD", "trial_index": 227}, "uniqueid": "MTK3597:3O6CYIULEE8D4GYD0C69SXHGR1MUW6", "dateTime": 1520800742936}, {"current_trial": 228, "trialdata": {"rt": -1000, "trial_type": "single-audio", "word": "zipper", "stimulus": "/static/audio/wordpool/ZIPPER.wav", "conditions": [12, 1600, "a", 12000], "internal_node_id": "0.0-165.0", "trial": 6, "time_elapsed": 1050567, "serialpos": 3, "key_press": -1, "wordID": 1635, "type": "PRES_AUD", "trial_index": 228}, "uniqueid": "MTK3597:3O6CYIULEE8D4GYD0C69SXHGR1MUW6", "dateTime": 1520800745684}, {"current_trial": 229, "trialdata": {"rt": -1000, "trial_type": "single-audio", "word": "turkey", "stimulus": "/static/audio/wordpool/TURKEY.wav", "conditions": [12, 1600, "a", 12000], "internal_node_id": "0.0-166.0", "trial": 6, "time_elapsed": 1052995, "serialpos": 4, "key_press": -1, "wordID": 1519, "type": "PRES_AUD", "trial_index": 229}, "uniqueid": "MTK3597:3O6CYIULEE8D4GYD0C69SXHGR1MUW6", "dateTime": 1520800748113}, {"current_trial": 230, "trialdata": {"rt": -1000, "trial_type": "single-audio", "word": "flesh", "stimulus": "/static/audio/wordpool/FLESH.wav", "conditions": [12, 1600, "a", 12000], "internal_node_id": "0.0-167.0", "trial": 6, "time_elapsed": 1055477, "serialpos": 5, "key_press": -1, "wordID": 578, "type": "PRES_AUD", "trial_index": 230}, "uniqueid": "MTK3597:3O6CYIULEE8D4GYD0C69SXHGR1MUW6", "dateTime": 1520800750594}, {"current_trial": 231, "trialdata": {"rt": -1000, "trial_type": "single-audio", "word": "shortcake", "stimulus": "/static/audio/wordpool/SHORTCAKE.wav", "conditions": [12, 1600, "a", 12000], "internal_node_id": "0.0-168.0", "trial": 6, "time_elapsed": 1057901, "serialpos": 6, "key_press": -1, "wordID": 1291, "type": "PRES_AUD", "trial_index": 231}, "uniqueid": "MTK3597:3O6CYIULEE8D4GYD0C69SXHGR1MUW6", "dateTime": 1520800753017}, {"current_trial": 232, "trialdata": {"rt": -1000, "trial_type": "single-audio", "word": "pastry", "stimulus": "/static/audio/wordpool/PASTRY.wav", "conditions": [12, 1600, "a", 12000], "internal_node_id": "0.0-169.0", "trial": 6, "time_elapsed": 1060581, "serialpos": 7, "key_press": -1, "wordID": 1021, "type": "PRES_AUD", "trial_index": 232}, "uniqueid": "MTK3597:3O6CYIULEE8D4GYD0C69SXHGR1MUW6", "dateTime": 1520800755697}, {"current_trial": 233, "trialdata": {"rt": -1000, "trial_type": "single-audio", "word": "jury", "stimulus": "/static/audio/wordpool/JURY.wav", "conditions": [12, 1600, "a", 12000], "internal_node_id": "0.0-170.0", "trial": 6, "time_elapsed": 1063355, "serialpos": 8, "key_press": -1, "wordID": 765, "type": "PRES_AUD", "trial_index": 233}, "uniqueid": "MTK3597:3O6CYIULEE8D4GYD0C69SXHGR1MUW6", "dateTime": 1520800758471}, {"current_trial": 234, "trialdata": {"rt": -1000, "trial_type": "single-audio", "word": "lapel", "stimulus": "/static/audio/wordpool/LAPEL.wav", "conditions": [12, 1600, "a", 12000], "internal_node_id": "0.0-171.0", "trial": 6, "time_elapsed": 1066138, "serialpos": 9, "key_press": -1, "wordID": 799, "type": "PRES_AUD", "trial_index": 234}, "uniqueid": "MTK3597:3O6CYIULEE8D4GYD0C69SXHGR1MUW6", "dateTime": 1520800761254}, {"current_trial": 235, "trialdata": {"rt": -1000, "trial_type": "single-audio", "word": "airplane", "stimulus": "/static/audio/wordpool/AIRPLANE.wav", "conditions": [12, 1600, "a", 12000], "internal_node_id": "0.0-172.0", "trial": 6, "time_elapsed": 1068866, "serialpos": 10, "key_press": -1, "wordID": 11, "type": "PRES_AUD", "trial_index": 235}, "uniqueid": "MTK3597:3O6CYIULEE8D4GYD0C69SXHGR1MUW6", "dateTime": 1520800763982}, {"current_trial": 236, "trialdata": {"rt": -1000, "trial_type": "single-audio", "word": "garlic", "stimulus": "/static/audio/wordpool/GARLIC.wav", "conditions": [12, 1600, "a", 12000], "internal_node_id": "0.0-173.0", "trial": 6, "time_elapsed": 1071493, "serialpos": 11, "key_press": -1, "wordID": 623, "type": "PRES_AUD", "trial_index": 236}, "uniqueid": "MTK3597:3O6CYIULEE8D4GYD0C69SXHGR1MUW6", "dateTime": 1520800766609}, {"current_trial": 237, "trialdata": {"rt": -1, "trial_type": "single-stim", "stimulus": "", "internal_node_id": "0.0-174.0-0.0", "time_elapsed": 1072831, "key_press": -1, "type": "PRE_RECALL_DELAY", "trial_index": 237}, "uniqueid": "MTK3597:3O6CYIULEE8D4GYD0C69SXHGR1MUW6", "dateTime": 1520800767947}, {"current_trial": 238, "trialdata": {"rt": -1000, "trial_type": "single-audio", "stimulus": "/static/audio/400Hz.wav", "internal_node_id": "0.0-175.0", "time_elapsed": 1073332, "key_press": -1, "type": "PRE_RECALL_ALERT", "trial_index": 238}, "uniqueid": "MTK3597:3O6CYIULEE8D4GYD0C69SXHGR1MUW6", "dateTime": 1520800768448}, {"current_trial": 239, "trialdata": {"rt": [3721, 8292, 14124, 19433, 23326, 27421, 35392], "recwords": ["pilot", "airplane", "shortcake", "turkey", "pastry", "love", "quail"], "key_times": [2002, 2307, 2650, 2894, 3397, 3721, 4381, 4741, 5040, 5663, 5905, 6229, 6516, 7174, 8292, 9074, 9460, 10177, 10365, 10607, 11172, 11458, 11951, 12365, 14124, 15924, 16241, 16959, 17297, 17863, 18276, 19433, 20471, 20738, 21093, 21676, 22055, 22350, 23326, 25154, 25418, 25997, 26193, 27421, 33317, 33643, 34075, 34223, 34677, 35392], "trial_type": "free-recall", "conditions": [12, 1600, "a", 12000], "internal_node_id": "0.0-176.0-0.0", "key_presses": [80, 73, 76, 79, 84, 32, 65, 73, 82, 80, 76, 65, 78, 69, 32, 83, 72, 79, 82, 84, 67, 65, 75, 69, 32, 84, 85, 82, 75, 69, 89, 32, 80, 65, 83, 84, 82, 89, 32, 76, 79, 86, 69, 32, 81, 85, 65, 73, 76, 32], "trial": 6, "time_elapsed": 1133338, "type": "FREE_RECALL", "trial_index": 239}, "uniqueid": "MTK3597:3O6CYIULEE8D4GYD0C69SXHGR1MUW6", "dateTime": 1520800828459}, {"current_trial": 240, "trialdata": {"rt": 2662, "trial_type": "text", "internal_node_id": "0.0-177.0", "time_elapsed": 1138005, "key_press": 32, "type": "INSTRUCTIONS", "trial_index": 240}, "uniqueid": "MTK3597:3O6CYIULEE8D4GYD0C69SXHGR1MUW6", "dateTime": 1520800833122}, {"current_trial": 241, "trialdata": {"rt": [2918, 5866, 9253, 11587], "trial_type": "math-distractor", "key_times": [2104, 2507, 2918, 5426, 5681, 5866, 7673, 8370, 9253, 11197, 11409, 11587], "responses": ["13", "22", "18", "22"], "num2": [1, 9, 9, 4, 3], "num3": [8, 6, 3, 9, 9], "conditions": [24, 1600, "a", 12000], "internal_node_id": "0.0-178.0", "key_presses": [49, 51, 13, 50, 50, 13, 49, 56, 13, 50, 50, 13], "trial": 7, "time_elapsed": 1152011, "type": "DISTRACTOR", "trial_index": 241, "num1": [4, 7, 6, 9, 3]}, "uniqueid": "MTK3597:3O6CYIULEE8D4GYD0C69SXHGR1MUW6", "dateTime": 1520800847127}, {"current_trial": 242, "trialdata": {"rt": -1, "trial_type": "single-stim", "stimulus": "<p id=\"stim\">10</p>", "internal_node_id": "0.0-179.0-0.0", "time_elapsed": 1155015, "key_press": -1, "trial_index": 242}, "uniqueid": "MTK3597:3O6CYIULEE8D4GYD0C69SXHGR1MUW6", "dateTime": 1520800850131}, {"current_trial": 243, "trialdata": {"rt": -1, "trial_type": "single-stim", "stimulus": "<p id=\"stim\">9</p>", "internal_node_id": "0.0-179.0-1.0", "time_elapsed": 1156017, "key_press": -1, "trial_index": 243}, "uniqueid": "MTK3597:3O6CYIULEE8D4GYD0C69SXHGR1MUW6", "dateTime": 1520800851134}, {"current_trial": 244, "trialdata": {"rt": -1, "trial_type": "single-stim", "stimulus": "<p id=\"stim\">8</p>", "internal_node_id": "0.0-179.0-2.0", "time_elapsed": 1157020, "key_press": -1, "trial_index": 244}, "uniqueid": "MTK3597:3O6CYIULEE8D4GYD0C69SXHGR1MUW6", "dateTime": 1520800852137}, {"current_trial": 245, "trialdata": {"rt": -1, "trial_type": "single-stim", "stimulus": "<p id=\"stim\">7</p>", "internal_node_id": "0.0-179.0-3.0", "time_elapsed": 1158022, "key_press": -1, "trial_index": 245}, "uniqueid": "MTK3597:3O6CYIULEE8D4GYD0C69SXHGR1MUW6", "dateTime": 1520800853139}, {"current_trial": 246, "trialdata": {"rt": -1, "trial_type": "single-stim", "stimulus": "<p id=\"stim\">6</p>", "internal_node_id": "0.0-179.0-4.0", "time_elapsed": 1159024, "key_press": -1, "trial_index": 246}, "uniqueid": "MTK3597:3O6CYIULEE8D4GYD0C69SXHGR1MUW6", "dateTime": 1520800854140}, {"current_trial": 247, "trialdata": {"rt": -1, "trial_type": "single-stim", "stimulus": "<p id=\"stim\">5</p>", "internal_node_id": "0.0-179.0-5.0", "time_elapsed": 1160027, "key_press": -1, "trial_index": 247}, "uniqueid": "MTK3597:3O6CYIULEE8D4GYD0C69SXHGR1MUW6", "dateTime": 1520800855143}, {"current_trial": 248, "trialdata": {"rt": -1, "trial_type": "single-stim", "stimulus": "<p id=\"stim\">4</p>", "internal_node_id": "0.0-179.0-6.0", "time_elapsed": 1161030, "key_press": -1, "trial_index": 248}, "uniqueid": "MTK3597:3O6CYIULEE8D4GYD0C69SXHGR1MUW6", "dateTime": 1520800856146}, {"current_trial": 249, "trialdata": {"rt": -1, "trial_type": "single-stim", "stimulus": "<p id=\"stim\">3</p>", "internal_node_id": "0.0-179.0-7.0", "time_elapsed": 1162032, "key_press": -1, "trial_index": 249}, "uniqueid": "MTK3597:3O6CYIULEE8D4GYD0C69SXHGR1MUW6", "dateTime": 1520800857149}, {"current_trial": 250, "trialdata": {"rt": -1, "trial_type": "single-stim", "stimulus": "<p id=\"stim\">2</p>", "internal_node_id": "0.0-179.0-8.0", "time_elapsed": 1163034, "key_press": -1, "trial_index": 250}, "uniqueid": "MTK3597:3O6CYIULEE8D4GYD0C69SXHGR1MUW6", "dateTime": 1520800858150}, {"current_trial": 251, "trialdata": {"rt": -1, "trial_type": "single-stim", "stimulus": "<p id=\"stim\">1</p>", "internal_node_id": "0.0-179.0-9.0", "time_elapsed": 1164036, "key_press": -1, "trial_index": 251}, "uniqueid": "MTK3597:3O6CYIULEE8D4GYD0C69SXHGR1MUW6", "dateTime": 1520800859152}, {"current_trial": 252, "trialdata": {"rt": -1, "trial_type": "single-stim", "stimulus": "<p id=\"stim\">+</p>", "internal_node_id": "0.0-180.0-0.0", "time_elapsed": 1165538, "key_press": -1, "type": "FIXATION", "trial_index": 252}, "uniqueid": "MTK3597:3O6CYIULEE8D4GYD0C69SXHGR1MUW6", "dateTime": 1520800860654}, {"current_trial": 253, "trialdata": {"rt": -1000, "trial_type": "single-audio", "word": "message", "stimulus": "/static/audio/wordpool/MESSAGE.wav", "conditions": [24, 1600, "a", 12000], "internal_node_id": "0.0-181.0", "trial": 7, "time_elapsed": 1168204, "serialpos": 0, "key_press": -1, "wordID": 887, "type": "PRES_AUD", "trial_index": 253}, "uniqueid": "MTK3597:3O6CYIULEE8D4GYD0C69SXHGR1MUW6", "dateTime": 1520800863321}, {"current_trial": 254, "trialdata": {"rt": -1000, "trial_type": "single-audio", "word": "snail", "stimulus": "/static/audio/wordpool/SNAIL.wav", "conditions": [24, 1600