{"assignmentId": "3JPSL1DZ5T632DB126YVWDSVRPMANL", "workerId": "MTK3672", "questiondata": {"origin": "United States", "strat-rehearsal": "58", "marital": "Married/Domestic Partnership", "education": "High school diploma", "ethnicity": "Not Hispanic", "color_depth": 24, "distracted": "No", "wrote-notes": "No", "strat-other": "", "screen_width": 1536, "avail_screen_width": 1536, "avail_screen_height": 816, "strat-image": "47", "language": "english", "gender": "Female", "age": "-53", "gender_other": "", "race": ["White"], "strat-categorize": "54", "pixel_depth": 24, "strat-spatial": "36", "strat-story": "37", "race_other": "", "screen_height": 864}, "bonus": 0, "hitId": "34ZTTGSNJXV1SDYDY2V2S9EKOGXHQY", "counterbalance": 2421, "useragent": "Mozilla/5.0 (X11; CrOS x86_64 10176.76.0) AppleWebKit/537.36 (KHTML, like Gecko) Chrome/64.0.3282.190 Safari/537.36", "eventdata": [{"eventtype": "initialized", "interval": 0, "value": null, "timestamp": 1520896531561}, {"eventtype": "window_resize", "interval": 0, "value": [1536, 759], "timestamp": 1520896531561}, {"eventtype": "window_resize", "interval": 119068, "value": [1516, 732], "timestamp": 1520896650629}, {"eventtype": "window_resize", "interval": 18876, "value": [1489, 732], "timestamp": 1520896669505}, {"eventtype": "window_resize", "interval": 2458, "value": [1344, 732], "timestamp": 1520896671963}], "data": [{"current_trial": 0, "trialdata": {"rt": 6371, "trial_type": "text", "internal_node_id": "0.0-0.0", "time_elapsed": 6375, "key_press": 32, "type": "INSTRUCTIONS", "trial_index": 0}, "uniqueid": "MTK3672:3JPSL1DZ5T632DB126YVWDSVRPMANL", "dateTime": 1520896538343}, {"current_trial": 1, "trialdata": {"rt": 36518, "trial_type": "text", "internal_node_id": "0.0-1.0", "time_elapsed": 42900, "key_press": 32, "type": "INSTRUCTIONS", "trial_index": 1}, "uniqueid": "MTK3672:3JPSL1DZ5T632DB126YVWDSVRPMANL", "dateTime": 1520896574866}, {"current_trial": 2, "trialdata": {"rt": [104367], "trial_type": "audio-test", "responses": ["ocean"], "internal_node_id": "0.0-2.0", "time_elapsed": 147337, "type": "AUDIO_TEST", "trial_index": 2}, "uniqueid": "MTK3672:3JPSL1DZ5T632DB126YVWDSVRPMANL", "dateTime": 1520896679303}, {"current_trial": 3, "trialdata": {"rt": [13323], "trial_type": "audio-test", "responses": ["crystal"], "internal_node_id": "0.0-3.0", "time_elapsed": 160674, "type": "AUDIO_TEST", "trial_index": 3}, "uniqueid": "MTK3672:3JPSL1DZ5T632DB126YVWDSVRPMANL", "dateTime": 1520896692640}, {"current_trial": 4, "trialdata": {"rt": [9136], "trial_type": "audio-test", "responses": ["spice"], "internal_node_id": "0.0-4.0", "time_elapsed": 169825, "type": "AUDIO_TEST", "trial_index": 4}, "uniqueid": "MTK3672:3JPSL1DZ5T632DB126YVWDSVRPMANL", "dateTime": 1520896701792}, {"current_trial": 5, "trialdata": {"rt": 30917, "trial_type": "survey-text", "responses": "{\"Q0\":\"11:15\",\"Q1\":\"5:50\",\"Q2\":\"5\"}", "internal_node_id": "0.0-5.0", "time_elapsed": 201500, "type": "SLEEP_SURVEY", "trial_index": 5}, "uniqueid": "MTK3672:3JPSL1DZ5T632DB126YVWDSVRPMANL", "dateTime": 1520896733466}, {"current_trial": 6, "trialdata": {"rt": 58302, "trial_type": "text", "internal_node_id": "0.0-6.0", "time_elapsed": 260812, "key_press": 32, "type": "INSTRUCTIONS", "trial_index": 6}, "uniqueid": "MTK3672:3JPSL1DZ5T632DB126YVWDSVRPMANL", "dateTime": 1520896792778}, {"current_trial": 7, "trialdata": {"rt": 20678, "trial_type": "text", "internal_node_id": "0.0-7.0", "time_elapsed": 281992, "key_press": 32, "type": "INSTRUCTIONS", "trial_index": 7}, "uniqueid": "MTK3672:3JPSL1DZ5T632DB126YVWDSVRPMANL", "dateTime": 1520896813958}, {"current_trial": 8, "trialdata": {"rt": 13823, "trial_type": "text", "internal_node_id": "0.0-8.0", "time_elapsed": 296318, "key_press": 32, "type": "INSTRUCTIONS", "trial_index": 8}, "uniqueid": "MTK3672:3JPSL1DZ5T632DB126YVWDSVRPMANL", "dateTime": 1520896828284}, {"current_trial": 9, "trialdata": {"rt": [11580, 16456], "trial_type": "math-distractor", "key_times": [4457, 5183, 6356, 9412, 11580, 14602, 15148, 16456], "responses": ["17  ", "16"], "num2": [3, 5, 5], "num3": [9, 9, 1], "conditions": [18, 1200, "v", 18000], "internal_node_id": "0.0-9.0", "key_presses": [49, 55, 32, 32, 13, 49, 54, 13], "trial": 0, "time_elapsed": 315357, "type": "DISTRACTOR", "trial_index": 9, "num1": [5, 2, 6]}, "uniqueid": "MTK3672:3JPSL1DZ5T632DB126YVWDSVRPMANL", "dateTime": 1520896847324}, {"current_trial": 10, "trialdata": {"rt": -1, "trial_type": "single-stim", "stimulus": "<p id=\"stim\">10</p>", "internal_node_id": "0.0-10.0-0.0", "time_elapsed": 318365, "key_press": -1, "trial_index": 10}, "uniqueid": "MTK3672:3JPSL1DZ5T632DB126YVWDSVRPMANL", "dateTime": 1520896850331}, {"current_trial": 11, "trialdata": {"rt": -1, "trial_type": "single-stim", "stimulus": "<p id=\"stim\">9</p>", "internal_node_id": "0.0-10.0-1.0", "time_elapsed": 319369, "key_press": -1, "trial_index": 11}, "uniqueid": "MTK3672:3JPSL1DZ5T632DB126YVWDSVRPMANL", "dateTime": 1520896851335}, {"current_trial": 12, "trialdata": {"rt": -1, "trial_type": "single-stim", "stimulus": "<p id=\"stim\">8</p>", "internal_node_id": "0.0-10.0-2.0", "time_elapsed": 320373, "key_press": -1, "trial_index": 12}, "uniqueid": "MTK3672:3JPSL1DZ5T632DB126YVWDSVRPMANL", "dateTime": 1520896852339}, {"current_trial": 13, "trialdata": {"rt": -1, "trial_type": "single-stim", "stimulus": "<p id=\"stim\">7</p>", "internal_node_id": "0.0-10.0-3.0", "time_elapsed": 321376, "key_press": -1, "trial_index": 13}, "uniqueid": "MTK3672:3JPSL1DZ5T632DB126YVWDSVRPMANL", "dateTime": 1520896853342}, {"current_trial": 14, "trialdata": {"rt": -1, "trial_type": "single-stim", "stimulus": "<p id=\"stim\">6</p>", "internal_node_id": "0.0-10.0-4.0", "time_elapsed": 322380, "key_press": -1, "trial_index": 14}, "uniqueid": "MTK3672:3JPSL1DZ5T632DB126YVWDSVRPMANL", "dateTime": 1520896854346}, {"current_trial": 15, "trialdata": {"rt": -1, "trial_type": "single-stim", "stimulus": "<p id=\"stim\">5</p>", "internal_node_id": "0.0-10.0-5.0", "time_elapsed": 323384, "key_press": -1, "trial_index": 15}, "uniqueid": "MTK3672:3JPSL1DZ5T632DB126YVWDSVRPMANL", "dateTime": 1520896855350}, {"current_trial": 16, "trialdata": {"rt": -1, "trial_type": "single-stim", "stimulus": "<p id=\"stim\">4</p>", "internal_node_id": "0.0-10.0-6.0", "time_elapsed": 324388, "key_press": -1, "trial_index": 16}, "uniqueid": "MTK3672:3JPSL1DZ5T632DB126YVWDSVRPMANL", "dateTime": 1520896856354}, {"current_trial": 17, "trialdata": {"rt": -1, "trial_type": "single-stim", "stimulus": "<p id=\"stim\">3</p>", "internal_node_id": "0.0-10.0-7.0", "time_elapsed": 325395, "key_press": -1, "trial_index": 17}, "uniqueid": "MTK3672:3JPSL1DZ5T632DB126YVWDSVRPMANL", "dateTime": 1520896857361}, {"current_trial": 18, "trialdata": {"rt": -1, "trial_type": "single-stim", "stimulus": "<p id=\"stim\">2</p>", "internal_node_id": "0.0-10.0-8.0", "time_elapsed": 326398, "key_press": -1, "trial_index": 18}, "uniqueid": "MTK3672:3JPSL1DZ5T632DB126YVWDSVRPMANL", "dateTime": 1520896858364}, {"current_trial": 19, "trialdata": {"rt": -1, "trial_type": "single-stim", "stimulus": "<p id=\"stim\">1</p>", "internal_node_id": "0.0-10.0-9.0", "time_elapsed": 327401, "key_press": -1, "trial_index": 19}, "uniqueid": "MTK3672:3JPSL1DZ5T632DB126YVWDSVRPMANL", "dateTime": 1520896859367}, {"current_trial": 20, "trialdata": {"rt": -1, "trial_type": "single-stim", "stimulus": "<p id=\"stim\">+</p>", "internal_node_id": "0.0-11.0-0.0", "time_elapsed": 328909, "key_press": -1, "type": "FIXATION", "trial_index": 20}, "uniqueid": "MTK3672:3JPSL1DZ5T632DB126YVWDSVRPMANL", "dateTime": 1520896860875}, {"current_trial": 21, "trialdata": {"rt": -1, "trial_type": "single-stim", "word": "lumber", "stimulus": "<p id=\"stim\">LUMBER</p>", "conditions": [18, 1200, "v", 18000], "internal_node_id": "0.0-12.0", "trial": 0, "time_elapsed": 330113, "serialpos": 0, "key_press": -1, "wordID": 847, "type": "PRES_VIS", "trial_index": 21}, "uniqueid": "MTK3672:3JPSL1DZ5T632DB126YVWDSVRPMANL", "dateTime": 1520896862080}, {"current_trial": 22, "trialdata": {"rt": -1, "trial_type": "single-stim", "word": "box", "stimulus": "<p id=\"stim\">BOX</p>", "conditions": [18, 1200, "v", 18000], "internal_node_id": "0.0-13.0", "trial": 0, "time_elapsed": 332136, "serialpos": 1, "key_press": -1, "wordID": 158, "type": "PRES_VIS", "trial_index": 22}, "uniqueid": "MTK3672:3JPSL1DZ5T632DB126YVWDSVRPMANL", "dateTime": 1520896864102}, {"current_trial": 23, "trialdata": {"rt": -1, "trial_type": "single-stim", "word": "clamp", "stimulus": "<p id=\"stim\">CLAMP</p>", "conditions": [18, 1200, "v", 18000], "internal_node_id": "0.0-14.0", "trial": 0, "time_elapsed": 334522, "serialpos": 2, "key_press": -1, "wordID": 315, "type": "PRES_VIS", "trial_index": 23}, "uniqueid": "MTK3672:3JPSL1DZ5T632DB126YVWDSVRPMANL", "dateTime": 1520896866488}, {"current_trial": 24, "trialdata": {"rt": -1, "trial_type": "single-stim", "word": "market", "stimulus": "<p id=\"stim\">MARKET</p>", "conditions": [18, 1200, "v", 18000], "internal_node_id": "0.0-15.0", "trial": 0, "time_elapsed": 336761, "serialpos": 3, "key_press": -1, "wordID": 870, "type": "PRES_VIS", "trial_index": 24}, "uniqueid": "MTK3672:3JPSL1DZ5T632DB126YVWDSVRPMANL", "dateTime": 1520896868727}, {"current_trial": 25, "trialdata": {"rt": -1, "trial_type": "single-stim", "word": "freckle", "stimulus": "<p id=\"stim\">FRECKLE</p>", "conditions": [18, 1200, "v", 18000], "internal_node_id": "0.0-16.0", "trial": 0, "time_elapsed": 338832, "serialpos": 4, "key_press": -1, "wordID": 601, "type": "PRES_VIS", "trial_index": 25}, "uniqueid": "MTK3672:3JPSL1DZ5T632DB126YVWDSVRPMANL", "dateTime": 1520896870799}, {"current_trial": 26, "trialdata": {"rt": -1, "trial_type": "single-stim", "word": "pliers", "stimulus": "<p id=\"stim\">PLIERS</p>", "conditions": [18, 1200, "v", 18000], "internal_node_id": "0.0-17.0", "trial": 0, "time_elapsed": 340893, "serialpos": 5, "key_press": -1, "wordID": 1088, "type": "PRES_VIS", "trial_index": 26}, "uniqueid": "MTK3672:3JPSL1DZ5T632DB126YVWDSVRPMANL", "dateTime": 1520896872860}, {"current_trial": 27, "trialdata": {"rt": -1, "trial_type": "single-stim", "word": "frame", "stimulus": "<p id=\"stim\">FRAME</p>", "conditions": [18, 1200, "v", 18000], "internal_node_id": "0.0-18.0", "trial": 0, "time_elapsed": 343154, "serialpos": 6, "key_press": -1, "wordID": 599, "type": "PRES_VIS", "trial_index": 27}, "uniqueid": "MTK3672:3JPSL1DZ5T632DB126YVWDSVRPMANL", "dateTime": 1520896875120}, {"current_trial": 28, "trialdata": {"rt": -1, "trial_type": "single-stim", "word": "cricket", "stimulus": "<p id=\"stim\">CRICKET</p>", "conditions": [18, 1200, "v", 18000], "internal_node_id": "0.0-19.0", "trial": 0, "time_elapsed": 345185, "serialpos": 7, "key_press": -1, "wordID": 407, "type": "PRES_VIS", "trial_index": 28}, "uniqueid": "MTK3672:3JPSL1DZ5T632DB126YVWDSVRPMANL", "dateTime": 1520896877152}, {"current_trial": 29, "trialdata": {"rt": -1, "trial_type": "single-stim", "word": "daughter", "stimulus": "<p id=\"stim\">DAUGHTER</p>", "conditions": [18, 1200, "v", 18000], "internal_node_id": "0.0-20.0", "trial": 0, "time_elapsed": 347424, "serialpos": 8, "key_press": -1, "wordID": 441, "type": "PRES_VIS", "trial_index": 29}, "uniqueid": "MTK3672:3JPSL1DZ5T632DB126YVWDSVRPMANL", "dateTime": 1520896879392}, {"current_trial": 30, "trialdata": {"rt": -1, "trial_type": "single-stim", "word": "pork", "stimulus": "<p id=\"stim\">PORK</p>", "conditions": [18, 1200, "v", 18000], "internal_node_id": "0.0-21.0", "trial": 0, "time_elapsed": 349488, "serialpos": 9, "key_press": -1, "wordID": 1107, "type": "PRES_VIS", "trial_index": 30}, "uniqueid": "MTK3672:3JPSL1DZ5T632DB126YVWDSVRPMANL", "dateTime": 1520896881454}, {"current_trial": 31, "trialdata": {"rt": -1, "trial_type": "single-stim", "word": "salt", "stimulus": "<p id=\"stim\">SALT</p>", "conditions": [18, 1200, "v", 18000], "internal_node_id": "0.0-22.0", "trial": 0, "time_elapsed": 351571, "serialpos": 10, "key_press": -1, "wordID": 1228, "type": "PRES_VIS", "trial_index": 31}, "uniqueid": "MTK3672:3JPSL1DZ5T632DB126YVWDSVRPMANL", "dateTime": 1520896883538}, {"current_trial": 32, "trialdata": {"rt": -1, "trial_type": "single-stim", "word": "award", "stimulus": "<p id=\"stim\">AWARD</p>", "conditions": [18, 1200, "v", 18000], "internal_node_id": "0.0-23.0", "trial": 0, "time_elapsed": 353862, "serialpos": 11, "key_press": -1, "wordID": 62, "type": "PRES_VIS", "trial_index": 32}, "uniqueid": "MTK3672:3JPSL1DZ5T632DB126YVWDSVRPMANL", "dateTime": 1520896885828}, {"current_trial": 33, "trialdata": {"rt": -1, "trial_type": "single-stim", "word": "trout", "stimulus": "<p id=\"stim\">TROUT</p>", "conditions": [18, 1200, "v", 18000], "internal_node_id": "0.0-24.0", "trial": 0, "time_elapsed": 356050, "serialpos": 12, "key_press": -1, "wordID": 1510, "type": "PRES_VIS", "trial_index": 33}, "uniqueid": "MTK3672:3JPSL1DZ5T632DB126YVWDSVRPMANL", "dateTime": 1520896888016}, {"current_trial": 34, "trialdata": {"rt": -1, "trial_type": "single-stim", "word": "spider", "stimulus": "<p id=\"stim\">SPIDER</p>", "conditions": [18, 1200, "v", 18000], "internal_node_id": "0.0-25.0", "trial": 0, "time_elapsed": 358066, "serialpos": 13, "key_press": -1, "wordID": 1350, "type": "PRES_VIS", "trial_index": 34}, "uniqueid": "MTK3672:3JPSL1DZ5T632DB126YVWDSVRPMANL", "dateTime": 1520896890033}, {"current_trial": 35, "trialdata": {"rt": -1, "trial_type": "single-stim", "word": "twister", "stimulus": "<p id=\"stim\">TWISTER</p>", "conditions": [18, 1200, "v", 18000], "internal_node_id": "0.0-26.0", "trial": 0, "time_elapsed": 360225, "serialpos": 14, "key_press": -1, "wordID": 1529, "type": "PRES_VIS", "trial_index": 35}, "uniqueid": "MTK3672:3JPSL1DZ5T632DB126YVWDSVRPMANL", "dateTime": 1520896892191}, {"current_trial": 36, "trialdata": {"rt": -1, "trial_type": "single-stim", "word": "scarecrow", "stimulus": "<p id=\"stim\">SCARECROW</p>", "conditions": [18, 1200, "v", 18000], "internal_node_id": "0.0-27.0", "trial": 0, "time_elapsed": 362366, "serialpos": 15, "key_press": -1, "wordID": 1244, "type": "PRES_VIS", "trial_index": 36}, "uniqueid": "MTK3672:3JPSL1DZ5T632DB126YVWDSVRPMANL", "dateTime": 1520896894332}, {"current_trial": 37, "trialdata": {"rt": -1, "trial_type": "single-stim", "word": "captive", "stimulus": "<p id=\"stim\">CAPTIVE</p>", "conditions": [18, 1200, "v", 18000], "internal_node_id": "0.0-28.0", "trial": 0, "time_elapsed": 364394, "serialpos": 16, "key_press": -1, "wordID": 239, "type": "PRES_VIS", "trial_index": 37}, "uniqueid": "MTK3672:3JPSL1DZ5T632DB126YVWDSVRPMANL", "dateTime": 1520896896360}, {"current_trial": 38, "trialdata": {"rt": -1, "trial_type": "single-stim", "word": "muffin", "stimulus": "<p id=\"stim\">MUFFIN</p>", "conditions": [18, 1200, "v", 18000], "internal_node_id": "0.0-29.0", "trial": 0, "time_elapsed": 366596, "serialpos": 17, "key_press": -1, "wordID": 928, "type": "PRES_VIS", "trial_index": 38}, "uniqueid": "MTK3672:3JPSL1DZ5T632DB126YVWDSVRPMANL", "dateTime": 1520896898563}, {"current_trial": 39, "trialdata": {"rt": -1, "trial_type": "single-stim", "stimulus": "", "internal_node_id": "0.0-30.0-0.0", "time_elapsed": 368711, "key_press": -1, "type": "PRE_RECALL_DELAY", "trial_index": 39}, "uniqueid": "MTK3672:3JPSL1DZ5T632DB126YVWDSVRPMANL", "dateTime": 1520896900677}, {"current_trial": 40, "trialdata": {"rt": -1000, "trial_type": "single-audio", "stimulus": "/static/audio/400Hz.wav", "internal_node_id": "0.0-31.0", "time_elapsed": 369217, "key_press": -1, "type": "PRE_RECALL_ALERT", "trial_index": 40}, "uniqueid": "MTK3672:3JPSL1DZ5T632DB126YVWDSVRPMANL", "dateTime": 1520896901183}, {"current_trial": 41, "trialdata": {"rt": [5275, 7719, 10442, 12604, 15359, 18088, 20831, 57548], "recwords": ["lumber", "box", "clamp", "market", "trout", "spider", "daughter", "play"], "key_times": [2979, 3299, 3607, 4094, 4255, 4409, 5275, 6217, 6622, 7097, 7719, 8687, 8939, 9096, 9255, 9552, 10442, 10884, 11016, 11355, 11624, 11823, 12091, 12604, 13751, 13950, 14186, 14437, 14891, 15359, 16166, 16447, 16697, 16929, 17123, 17338, 18088, 18479, 18584, 18851, 19092, 19271, 19559, 19625, 19756, 20831, 53611, 53906, 54130, 55085, 55228, 55583, 56105, 56195, 56392, 56648, 57548], "trial_type": "free-recall", "conditions": [18, 1200, "v", 18000], "internal_node_id": "0.0-32.0-0.0", "key_presses": [76, 85, 77, 66, 69, 82, 13, 66, 79, 88, 13, 67, 76, 65, 77, 80, 13, 77, 65, 82, 75, 69, 84, 13, 84, 82, 79, 85, 84, 13, 83, 80, 73, 68, 69, 82, 13, 68, 65, 85, 71, 72, 84, 69, 82, 13, 76, 65, 89, 8, 8, 8, 80, 76, 65, 89, 13], "trial": 0, "time_elapsed": 429228, "type": "FREE_RECALL", "trial_index": 41}, "uniqueid": "MTK3672:3JPSL1DZ5T632DB126YVWDSVRPMANL", "dateTime": 1520896961206}, {"current_trial": 42, "trialdata": {"rt": 3100, "trial_type": "text", "internal_node_id": "0.0-33.0", "time_elapsed": 434343, "key_press": 32, "type": "INSTRUCTIONS", "trial_index": 42}, "uniqueid": "MTK3672:3JPSL1DZ5T632DB126YVWDSVRPMANL", "dateTime": 1520896966310}, {"current_trial": 43, "trialdata": {"rt": [3295, 7816, 10981, 13520, 15934], "trial_type": "math-distractor", "key_times": [2160, 2371, 3295, 7323, 7458, 7816, 10102, 10612, 10981, 13113, 13520, 15576, 15758, 15934, 17673], "responses": ["21", "22", "15", "9", "21"], "num2": [8, 8, 9, 1, 5, 4], "num3": [5, 9, 3, 1, 8, 6], "conditions": [18, 1200, "v", 18000], "internal_node_id": "0.0-34.0", "key_presses": [50, 49, 13, 50, 50, 13, 49, 53, 13, 57, 13, 50, 49, 13, 49], "trial": 1, "time_elapsed": 454351, "type": "DISTRACTOR", "trial_index": 43, "num1": [8, 5, 3, 7, 8, 7]}, "uniqueid": "MTK3672:3JPSL1DZ5T632DB126YVWDSVRPMANL", "dateTime": 1520896986317}, {"current_trial": 44, "trialdata": {"rt": -1, "trial_type": "single-stim", "stimulus": "<p id=\"stim\">10</p>", "internal_node_id": "0.0-35.0-0.0", "time_elapsed": 457356, "key_press": -1, "trial_index": 44}, "uniqueid": "MTK3672:3JPSL1DZ5T632DB126YVWDSVRPMANL", "dateTime": 1520896989322}, {"current_trial": 45, "trialdata": {"rt": -1, "trial_type": "single-stim", "stimulus": "<p id=\"stim\">9</p>", "internal_node_id": "0.0-35.0-1.0", "time_elapsed": 458360, "key_press": -1, "trial_index": 45}, "uniqueid": "MTK3672:3JPSL1DZ5T632DB126YVWDSVRPMANL", "dateTime": 1520896990326}, {"current_trial": 46, "trialdata": {"rt": -1, "trial_type": "single-stim", "stimulus": "<p id=\"stim\">8</p>", "internal_node_id": "0.0-35.0-2.0", "time_elapsed": 459364, "key_press": -1, "trial_index": 46}, "uniqueid": "MTK3672:3JPSL1DZ5T632DB126YVWDSVRPMANL", "dateTime": 1520896991331}, {"current_trial": 47, "trialdata": {"rt": -1, "trial_type": "single-stim", "stimulus": "<p id=\"stim\">7</p>", "internal_node_id": "0.0-35.0-3.0", "time_elapsed": 460367, "key_press": -1, "trial_index": 47}, "uniqueid": "MTK3672:3JPSL1DZ5T632DB126YVWDSVRPMANL", "dateTime": 1520896992334}, {"current_trial": 48, "trialdata": {"rt": -1, "trial_type": "single-stim", "stimulus": "<p id=\"stim\">6</p>", "internal_node_id": "0.0-35.0-4.0", "time_elapsed": 461371, "key_press": -1, "trial_index": 48}, "uniqueid": "MTK3672:3JPSL1DZ5T632DB126YVWDSVRPMANL", "dateTime": 1520896993338}, {"current_trial": 49, "trialdata": {"rt": -1, "trial_type": "single-stim", "stimulus": "<p id=\"stim\">5</p>", "internal_node_id": "0.0-35.0-5.0", "time_elapsed": 462374, "key_press": -1, "trial_index": 49}, "uniqueid": "MTK3672:3JPSL1DZ5T632DB126YVWDSVRPMANL", "dateTime": 1520896994340}, {"current_trial": 50, "trialdata": {"rt": -1, "trial_type": "single-stim", "stimulus": "<p id=\"stim\">4</p>", "internal_node_id": "0.0-35.0-6.0", "time_elapsed": 463377, "key_press": -1, "trial_index": 50}, "uniqueid": "MTK3672:3JPSL1DZ5T632DB126YVWDSVRPMANL", "dateTime": 1520896995344}, {"current_trial": 51, "trialdata": {"rt": -1, "trial_type": "single-stim", "stimulus": "<p id=\"stim\">3</p>", "internal_node_id": "0.0-35.0-7.0", "time_elapsed": 464381, "key_press": -1, "trial_index": 51}, "uniqueid": "MTK3672:3JPSL1DZ5T632DB126YVWDSVRPMANL", "dateTime": 1520896996347}, {"current_trial": 52, "trialdata": {"rt": -1, "trial_type": "single-stim", "stimulus": "<p id=\"stim\">2</p>", "internal_node_id": "0.0-35.0-8.0", "time_elapsed": 465383, "key_press": -1, "trial_index": 52}, "uniqueid": "MTK3672:3JPSL1DZ5T632DB126YVWDSVRPMANL", "dateTime": 1520896997351}, {"current_trial": 53, "trialdata": {"rt": -1, "trial_type": "single-stim", "stimulus": "<p id=\"stim\">1</p>", "internal_node_id": "0.0-35.0-9.0", "time_elapsed": 466386, "key_press": -1, "trial_index": 53}, "uniqueid": "MTK3672:3JPSL1DZ5T632DB126YVWDSVRPMANL", "dateTime": 1520896998352}, {"current_trial": 54, "trialdata": {"rt": -1, "trial_type": "single-stim", "stimulus": "<p id=\"stim\">+</p>", "internal_node_id": "0.0-36.0-0.0", "time_elapsed": 467889, "key_press": -1, "type": "FIXATION", "trial_index": 54}, "uniqueid": "MTK3672:3JPSL1DZ5T632DB126YVWDSVRPMANL", "dateTime": 1520896999857}, {"current_trial": 55, "trialdata": {"rt": -1, "trial_type": "single-stim", "word": "neutron", "stimulus": "<p id=\"stim\">NEUTRON</p>", "conditions": [18, 1200, "v", 18000], "internal_node_id": "0.0-37.0", "trial": 1, "time_elapsed": 469094, "serialpos": 0, "key_press": -1, "wordID": 946, "type": "PRES_VIS", "trial_index": 55}, "uniqueid": "MTK3672:3JPSL1DZ5T632DB126YVWDSVRPMANL", "dateTime": 1520897001060}, {"current_trial": 56, "trialdata": {"rt": -1, "trial_type": "single-stim", "word": "coin", "stimulus": "<p id=\"stim\">COIN</p>", "conditions": [18, 1200, "v", 18000], "internal_node_id": "0.0-38.0", "trial": 1, "time_elapsed": 471248, "serialpos": 1, "key_press": -1, "wordID": 342, "type": "PRES_VIS", "trial_index": 56}, "uniqueid": "MTK3672:3JPSL1DZ5T632DB126YVWDSVRPMANL", "dateTime": 1520897003214}, {"current_trial": 57, "trialdata": {"rt": -1, "trial_type": "single-stim", "word": "icing", "stimulus": "<p id=\"stim\">ICING</p>", "conditions": [18, 1200, "v", 18000], "internal_node_id": "0.0-39.0", "trial": 1, "time_elapsed": 473458, "serialpos": 2, "key_press": -1, "wordID": 731, "type": "PRES_VIS", "trial_index": 57}, "uniqueid": "MTK3672:3JPSL1DZ5T632DB126YVWDSVRPMANL", "dateTime": 1520897005425}, {"current_trial": 58, "trialdata": {"rt": -1, "trial_type": "single-stim", "word": "trombone", "stimulus": "<p id=\"stim\">TROMBONE</p>", "conditions": [18, 1200, "v", 18000], "internal_node_id": "0.0-40.0", "trial": 1, "time_elapsed": 475545, "serialpos": 3, "key_press": -1, "wordID": 1507, "type": "PRES_VIS", "trial_index": 58}, "uniqueid": "MTK3672:3JPSL1DZ5T632DB126YVWDSVRPMANL", "dateTime": 1520897007512}, {"current_trial": 59, "trialdata": {"rt": -1, "trial_type": "single-stim", "word": "partner", "stimulus": "<p id=\"stim\">PARTNER</p>", "conditions": [18, 1200, "v", 18000], "internal_node_id": "0.0-41.0", "trial": 1, "time_elapsed": 477930, "serialpos": 4, "key_press": -1, "wordID": 1016, "type": "PRES_VIS", "trial_index": 59}, "uniqueid": "MTK3672:3JPSL1DZ5T632DB126YVWDSVRPMANL", "dateTime": 1520897009897}, {"current_trial": 60, "trialdata": {"rt": -1, "trial_type": "single-stim", "word": "crater", "stimulus": "<p id=\"stim\">CRATER</p>", "conditions": [18, 1200, "v", 18000], "internal_node_id": "0.0-42.0", "trial": 1, "time_elapsed": 479945, "serialpos": 5, "key_press": -1, "wordID": 399, "type": "PRES_VIS", "trial_index": 60}, "uniqueid": "MTK3672:3JPSL1DZ5T632DB126YVWDSVRPMANL", "dateTime": 1520897011912}, {"current_trial": 61, "trialdata": {"rt": -1, "trial_type": "single-stim", "word": "lady", "stimulus": "<p id=\"stim\">LADY</p>", "conditions": [18, 1200, "v", 18000], "internal_node_id": "0.0-43.0", "trial": 1, "time_elapsed": 482081, "serialpos": 6, "key_press": -1, "wordID": 793, "type": "PRES_VIS", "trial_index": 61}, "uniqueid": "MTK3672:3JPSL1DZ5T632DB126YVWDSVRPMANL", "dateTime": 1520897014048}, {"current_trial": 62, "trialdata": {"rt": -1, "trial_type": "single-stim", "word": "glove", "stimulus": "<p id=\"stim\">GLOVE</p>", "conditions": [18, 1200, "v", 18000], "internal_node_id": "0.0-44.0", "trial": 1, "time_elapsed": 484308, "serialpos": 7, "key_press": -1, "wordID": 641, "type": "PRES_VIS", "trial_index": 62}, "uniqueid": "MTK3672:3JPSL1DZ5T632DB126YVWDSVRPMANL", "dateTime": 1520897016274}, {"current_trial": 63, "trialdata": {"rt": -1, "trial_type": "single-stim", "word": "brook", "stimulus": "<p id=\"stim\">BROOK</p>", "conditions": [18, 1200, "v", 18000], "internal_node_id": "0.0-45.0", "trial": 1, "time_elapsed": 486685, "serialpos": 8, "key_press": -1, "wordID": 176, "type": "PRES_VIS", "trial_index": 63}, "uniqueid": "MTK3672:3JPSL1DZ5T632DB126YVWDSVRPMANL", "dateTime": 1520897018651}, {"current_trial": 64, "trialdata": {"rt": -1, "trial_type": "single-stim", "word": "basement", "stimulus": "<p id=\"stim\">BASEMENT</p>", "conditions": [18, 1200, "v", 18000], "internal_node_id": "0.0-46.0", "trial": 1, "time_elapsed": 488716, "serialpos": 9, "key_press": -1, "wordID": 93, "type": "PRES_VIS", "trial_index": 64}, "uniqueid": "MTK3672:3JPSL1DZ5T632DB126YVWDSVRPMANL", "dateTime": 1520897020683}, {"current_trial": 65, "trialdata": {"rt": -1, "trial_type": "single-stim", "word": "wagon", "stimulus": "<p id=\"stim\">WAGON</p>", "conditions": [18, 1200, "v", 18000], "internal_node_id": "0.0-47.0", "trial": 1, "time_elapsed": 491045, "serialpos": 10, "key_press": -1, "wordID": 1577, "type": "PRES_VIS", "trial_index": 65}, "uniqueid": "MTK3672:3JPSL1DZ5T632DB126YVWDSVRPMANL", "dateTime": 1520897023012}, {"current_trial": 66, "trialdata": {"rt": -1, "trial_type": "single-stim", "word": "perfume", "stimulus": "<p id=\"stim\">PERFUME</p>", "conditions": [18, 1200, "v", 18000], "internal_node_id": "0.0-48.0", "trial": 1, "time_elapsed": 493274, "serialpos": 11, "key_press": -1, "wordID": 1048, "type": "PRES_VIS", "trial_index": 66}, "uniqueid": "MTK3672:3JPSL1DZ5T632DB126YVWDSVRPMANL", "dateTime": 1520897025242}, {"current_trial": 67, "trialdata": {"rt": -1, "trial_type": "single-stim", "word": "plaza", "stimulus": "<p id=\"stim\">PLAZA</p>", "conditions": [18, 1200, "v", 18000], "internal_node_id": "0.0-49.0", "trial": 1, "time_elapsed": 495495, "serialpos": 12, "key_press": -1, "wordID": 1087, "type": "PRES_VIS", "trial_index": 67}, "uniqueid": "MTK3672:3JPSL1DZ5T632DB126YVWDSVRPMANL", "dateTime": 1520897027461}, {"current_trial": 68, "trialdata": {"rt": -1, "trial_type": "single-stim", "word": "backbone", "stimulus": "<p id=\"stim\">BACKBONE</p>", "conditions": [18, 1200, "v", 18000], "internal_node_id": "0.0-50.0", "trial": 1, "time_elapsed": 497601, "serialpos": 13, "key_press": -1, "wordID": 65, "type": "PRES_VIS", "trial_index": 68}, "uniqueid": "MTK3672:3JPSL1DZ5T632DB126YVWDSVRPMANL", "dateTime": 1520897029574}, {"current_trial": 69, "trialdata": {"rt": -1, "trial_type": "single-stim", "word": "agent", "stimulus": "<p id=\"stim\">AGENT</p>", "conditions": [18, 1200, "v", 18000], "internal_node_id": "0.0-51.0", "trial": 1, "time_elapsed": 499672, "serialpos": 14, "key_press": -1, "wordID": 9, "type": "PRES_VIS", "trial_index": 69}, "uniqueid": "MTK3672:3JPSL1DZ5T632DB126YVWDSVRPMANL", "dateTime": 1520897031638}, {"current_trial": 70, "trialdata": {"rt": -1, "trial_type": "single-stim", "word": "lava", "stimulus": "<p id=\"stim\">LAVA</p>", "conditions": [18, 1200, "v", 18000], "internal_node_id": "0.0-52.0", "trial": 1, "time_elapsed": 501891, "serialpos": 15, "key_press": -1, "wordID": 803, "type": "PRES_VIS", "trial_index": 70}, "uniqueid": "MTK3672:3JPSL1DZ5T632DB126YVWDSVRPMANL", "dateTime": 1520897033858}, {"current_trial": 71, "trialdata": {"rt": -1, "trial_type": "single-stim", "word": "mars", "stimulus": "<p id=\"stim\">MARS</p>", "conditions": [18, 1200, "v", 18000], "internal_node_id": "0.0-53.0", "trial": 1, "time_elapsed": 504209, "serialpos": 16, "key_press": -1, "wordID": 872, "type": "PRES_VIS", "trial_index": 71}, "uniqueid": "MTK3672:3JPSL1DZ5T632DB126YVWDSVRPMANL", "dateTime": 1520897036175}, {"current_trial": 72, "trialdata": {"rt": -1, "trial_type": "single-stim", "word": "helmet", "stimulus": "<p id=\"stim\">HELMET</p>", "conditions": [18, 1200, "v", 18000], "internal_node_id": "0.0-54.0", "trial": 1, "time_elapsed": 506241, "serialpos": 17, "key_press": -1, "wordID": 701, "type": "PRES_VIS", "trial_index": 72}, "uniqueid": "MTK3672:3JPSL1DZ5T632DB126YVWDSVRPMANL", "dateTime": 1520897038207}, {"current_trial": 73, "trialdata": {"rt": -1, "trial_type": "single-stim", "stimulus": "", "internal_node_id": "0.0-55.0-0.0", "time_elapsed": 508360, "key_press": -1, "type": "PRE_RECALL_DELAY", "trial_index": 73}, "uniqueid": "MTK3672:3JPSL1DZ5T632DB126YVWDSVRPMANL", "dateTime": 1520897040326}, {"current_trial": 74, "trialdata": {"rt": -1000, "trial_type": "single-audio", "stimulus": "/static/audio/400Hz.wav", "internal_node_id": "0.0-56.0", "time_elapsed": 508864, "key_press": -1, "type": "PRE_RECALL_ALERT", "trial_index": 74}, "uniqueid": "MTK3672:3JPSL1DZ5T632DB126YVWDSVRPMANL", "dateTime": 1520897040830}, {"current_trial": 75, "trialdata": {"rt": [4426, 7716, 11413, 16892, 34195], "recwords": ["lava", "perfume", "helmet", "trombone", "crater"], "key_times": [1642, 1858, 3349, 3573, 4426, 5433, 5670, 5902, 6145, 6346, 6656, 6953, 7716, 8670, 8965, 9346, 9655, 9887, 10345, 11413, 13551, 13654, 13982, 14275, 14581, 15193, 15465, 15795, 16892, 31734, 31984, 32638, 32973, 33185, 33421, 34195], "trial_type": "free-recall", "conditions": [18, 1200, "v", 18000], "internal_node_id": "0.0-57.0-0.0", "key_presses": [76, 65, 86, 65, 13, 80, 69, 82, 70, 85, 77, 69, 13, 72, 69, 76, 77, 69, 84, 13, 84, 82, 79, 77, 66, 79, 78, 69, 13, 67, 82, 65, 84, 69, 82, 13], "trial": 1, "time_elapsed": 568870, "type": "FREE_RECALL", "trial_index": 75}, "uniqueid": "MTK3672:3JPSL1DZ5T632DB126YVWDSVRPMANL", "dateTime": 1520897100840}, {"current_trial": 76, "trialdata": {"rt": 3574, "trial_type": "text", "internal_node_id": "0.0-58.0", "time_elapsed": 574454, "key_press": 32, "type": "INSTRUCTIONS", "trial_index": 76}, "uniqueid": "MTK3672:3JPSL1DZ5T632DB126YVWDSVRPMANL", "dateTime": 1520897106420}, {"current_trial": 77, "trialdata": {"rt": [2936, 5781, 8629, 11716, 14254, 16628, 18615, 20473, 23393], "trial_type": "math-distractor", "key_times": [1977, 2141, 2936, 4846, 5439, 5781, 7637, 8324, 8629, 10728, 11449, 11716, 13751, 13977, 14254, 15738, 16346, 16628, 18071, 18368, 18615, 20103, 20244, 20473, 22352, 22985, 23393], "responses": ["11", "17", "18", "10", "12", "17", "13", "11", "20"], "num2": [1, 6, 7, 3, 3, 7, 1, 4, 9, 5], "num3": [8, 4, 3, 2, 5, 7, 3, 5, 2, 2], "conditions": [24, 800, "v", 24000], "internal_node_id": "0.0-59.0", "key_presses": [49, 49, 13, 49, 55, 13, 49, 56, 13, 49, 48, 13, 49, 50, 13, 49, 55, 13, 49, 51, 13, 49, 49, 13, 50, 48, 13], "trial": 2, "time_elapsed": 599464, "type": "DISTRACTOR", "trial_index": 77, "num1": [2, 7, 8, 5, 4, 3, 9, 2, 9, 4]}, "uniqueid": "MTK3672:3JPSL1DZ5T632DB126YVWDSVRPMANL", "dateTime": 1520897131430}, {"current_trial": 78, "trialdata": {"rt": -1, "trial_type": "single-stim", "stimulus": "<p id=\"stim\">10</p>", "internal_node_id": "0.0-60.0-0.0", "time_elapsed": 602470, "key_press": -1, "trial_index": 78}, "uniqueid": "MTK3672:3JPSL1DZ5T632DB126YVWDSVRPMANL", "dateTime": 1520897134436}, {"current_trial": 79, "trialdata": {"rt": -1, "trial_type": "single-stim", "stimulus": "<p id=\"stim\">9</p>", "internal_node_id": "0.0-60.0-1.0", "time_elapsed": 603475, "key_press": -1, "trial_index": 79}, "uniqueid": "MTK3672:3JPSL1DZ5T632DB126YVWDSVRPMANL", "dateTime": 1520897135441}, {"current_trial": 80, "trialdata": {"rt": -1, "trial_type": "single-stim", "stimulus": "<p id=\"stim\">8</p>", "internal_node_id": "0.0-60.0-2.0", "time_elapsed": 604479, "key_press": -1, "trial_index": 80}, "uniqueid": "MTK3672:3JPSL1DZ5T632DB126YVWDSVRPMANL", "dateTime": 1520897136445}, {"current_trial": 81, "trialdata": {"rt": -1, "trial_type": "single-stim", "stimulus": "<p id=\"stim\">7</p>", "internal_node_id": "0.0-60.0-3.0", "time_elapsed": 605483, "key_press": -1, "trial_index": 81}, "uniqueid": "MTK3672:3JPSL1DZ5T632DB126YVWDSVRPMANL", "dateTime": 1520897137449}, {"current_trial": 82, "trialdata": {"rt": -1, "trial_type": "single-stim", "stimulus": "<p id=\"stim\">6</p>", "internal_node_id": "0.0-60.0-4.0", "time_elapsed": 606488, "key_press": -1, "trial_index": 82}, "uniqueid": "MTK3672:3JPSL1DZ5T632DB126YVWDSVRPMANL", "dateTime": 1520897138454}, {"current_trial": 83, "trialdata": {"rt": -1, "trial_type": "single-stim", "stimulus": "<p id=\"stim\">5</p>", "internal_node_id": "0.0-60.0-5.0", "time_elapsed": 607491, "key_press": -1, "trial_index": 83}, "uniqueid": "MTK3672:3JPSL1DZ5T632DB126YVWDSVRPMANL", "dateTime": 1520897139458}, {"current_trial": 84, "trialdata": {"rt": -1, "trial_type": "single-stim", "stimulus": "<p id=\"stim\">4</p>", "internal_node_id": "0.0-60.0-6.0", "time_elapsed": 608495, "key_press": -1, "trial_index": 84}, "uniqueid": "MTK3672:3JPSL1DZ5T632DB126YVWDSVRPMANL", "dateTime": 1520897140461}, {"current_trial": 85, "trialdata": {"rt": -1, "trial_type": "single-stim", "stimulus": "<p id=\"stim\">3</p>", "internal_node_id": "0.0-60.0-7.0", "time_elapsed": 609499, "key_press": -1, "trial_index": 85}, "uniqueid": "MTK3672:3JPSL1DZ5T632DB126YVWDSVRPMANL", "dateTime": 1520897141466}, {"current_trial": 86, "trialdata": {"rt": -1, "trial_type": "single-stim", "stimulus": "<p id=\"stim\">2</p>", "internal_node_id": "0.0-60.0-8.0", "time_elapsed": 610504, "key_press": -1, "trial_index": 86}, "uniqueid": "MTK3672:3JPSL1DZ5T632DB126YVWDSVRPMANL", "dateTime": 1520897142470}, {"current_trial": 87, "trialdata": {"rt": -1, "trial_type": "single-stim", "stimulus": "<p id=\"stim\">1</p>", "internal_node_id": "0.0-60.0-9.0", "time_elapsed": 611508, "key_press": -1, "trial_index": 87}, "uniqueid": "MTK3672:3JPSL1DZ5T632DB126YVWDSVRPMANL", "dateTime": 1520897143475}, {"current_trial": 88, "trialdata": {"rt": -1, "trial_type": "single-stim", "stimulus": "<p id=\"stim\">+</p>", "internal_node_id": "0.0-61.0-0.0", "time_elapsed": 613012, "key_press": -1, "type": "FIXATION", "trial_index": 88}, "uniqueid": "MTK3672:3JPSL1DZ5T632DB126YVWDSVRPMANL", "dateTime": 1520897144979}, {"current_trial": 89, "trialdata": {"rt": -1, "trial_type": "single-stim", "word": "smog", "stimulus": "<p id=\"stim\">SMOG</p>", "conditions": [24, 800, "v", 24000], "internal_node_id": "0.0-62.0", "trial": 2, "time_elapsed": 613819, "serialpos": 0, "key_press": -1, "wordID": 1329, "type": "PRES_VIS", "trial_index": 89}, "uniqueid": "MTK3672:3JPSL1DZ5T632DB126YVWDSVRPMANL", "dateTime": 1520897145786}, {"current_trial": 90, "trialdata": {"rt": -1, "trial_type": "single-stim", "word": "pudding", "stimulus": "<p id=\"stim\">PUDDING</p>", "conditions": [24, 800, "v", 24000], "internal_node_id": "0.0-63.0", "trial": 2, "time_elapsed": 615614, "serialpos": 1, "key_press": -1, "wordID": 1138, "type": "PRES_VIS", "trial_index": 90}, "uniqueid": "MTK3672:3JPSL1DZ5T632DB126YVWDSVRPMANL", "dateTime": 1520897147580}, {"current_trial": 91, "trialdata": {"rt": -1, "trial_type": "single-stim", "word": "rabbit", "stimulus": "<p id=\"stim\">RABBIT</p>", "conditions": [24, 800, "v", 24000], "internal_node_id": "0.0-64.0", "trial": 2, "time_elapsed": 617460, "serialpos": 2, "key_press": -1, "wordID": 1151, "type": "PRES_VIS", "trial_index": 91}, "uniqueid": "MTK3672:3JPSL1DZ5T632DB126YVWDSVRPMANL", "dateTime": 1520897149427}, {"current_trial": 92, "trialdata": {"rt": -1, "trial_type": "single-stim", "word": "garbage", "stimulus": "<p id=\"stim\">GARBAGE</p>", "conditions": [24, 800, "v", 24000], "internal_node_id": "0.0-65.0", "trial": 2, "time_elapsed": 619201, "serialpos": 3, "key_press": -1, "wordID": 621, "type": "PRES_VIS", "trial_index": 92}, "uniqueid": "MTK3672:3JPSL1DZ5T632DB126YVWDSVRPMANL", "dateTime": 1520897151167}, {"current_trial": 93, "trialdata": {"rt": -1, "trial_type": "single-stim", "word": "motor", "stimulus": "<p id=\"stim\">MOTOR</p>", "conditions": [24, 800, "v", 24000], "internal_node_id": "0.0-66.0", "trial": 2, "time_elapsed": 620987, "serialpos": 4, "key_press": -1, "wordID": 921, "type": "PRES_VIS", "trial_index": 93}, "uniqueid": "MTK3672:3JPSL1DZ5T632DB126YVWDSVRPMANL", "dateTime": 1520897152954}, {"current_trial": 94, "trialdata": {"rt": -1, "trial_type": "single-stim", "word": "chauffeur", "stimulus": "<p id=\"stim\">CHAUFFEUR</p>", "conditions": [24, 800, "v", 24000], "internal_node_id": "0.0-67.0", "trial": 2, "time_elapsed": 622660, "serialpos": 5, "key_press": -1, "wordID": 282, "type": "PRES_VIS", "trial_index": 94}, "uniqueid": "MTK3672:3JPSL1DZ5T632DB126YVWDSVRPMANL", "dateTime": 1520897154627}, {"current_trial": 95, "trialdata": {"rt": -1, "trial_type": "single-stim", "word": "crab", "stimulus": "<p id=\"stim\">CRAB</p>", "conditions": [24, 800, "v", 24000], "internal_node_id": "0.0-68.0", "trial": 2, "time_elapsed": 624391, "serialpos": 6, "key_press": -1, "wordID": 396, "type": "PRES_VIS", "trial_index": 95}, "uniqueid": "MTK3672:3JPSL1DZ5T632DB126YVWDSVRPMANL", "dateTime": 1520897156359}, {"current_trial": 96, "trialdata": {"rt": -1, "trial_type": "single-stim", "word": "chipmunk", "stimulus": "<p id=\"stim\">CHIPMUNK</p>", "conditions": [24, 800, "v", 24000], "internal_node_id": "0.0-69.0", "trial": 2, "time_elapsed": 626022, "serialpos": 7, "key_press": -1, "wordID": 303, "type": "PRES_VIS", "trial_index": 96}, "uniqueid": "MTK3672:3JPSL1DZ5T632DB126YVWDSVRPMANL", "dateTime": 1520897157989}, {"current_trial": 97, "trialdata": {"rt": -1, "trial_type": "single-stim", "word": "sparrow", "stimulus": "<p id=\"stim\">SPARROW</p>", "conditions": [24, 800, "v", 24000], "internal_node_id": "0.0-70.0", "trial": 2, "time_elapsed": 627826, "serialpos": 8, "key_press": -1, "wordID": 1346, "type": "PRES_VIS", "trial_index": 97}, "uniqueid": "MTK3672:3JPSL1DZ5T632DB126YVWDSVRPMANL", "dateTime": 1520897159793}, {"current_trial": 98, "trialdata": {"rt": -1, "trial_type": "single-stim", "word": "robin", "stimulus": "<p id=\"stim\">ROBIN</p>", "conditions": [24, 800, "v", 24000], "internal_node_id": "0.0-71.0", "trial": 2, "time_elapsed": 629575, "serialpos": 9, "key_press": -1, "wordID": 1198, "type": "PRES_VIS", "trial_index": 98}, "uniqueid": "MTK3672:3JPSL1DZ5T632DB126YVWDSVRPMANL", "dateTime": 1520897161542}, {"current_trial": 99, "trialdata": {"rt": -1, "trial_type": "single-stim", "word": "jelly", "stimulus": "<p id=\"stim\">JELLY</p>", "conditions": [24, 800, "v", 24000], "internal_node_id": "0.0-72.0", "trial": 2, "time_elapsed": 631370, "serialpos": 10, "key_press": -1, "wordID": 754, "type": "PRES_VIS", "trial_index": 99}, "uniqueid": "MTK3672:3JPSL1DZ5T632DB126YVWDSVRPMANL", "dateTime": 1520897163336}, {"current_trial": 100, "trialdata": {"rt": -1, "trial_type": "single-stim", "word": "island", "stimulus": "<p id=\"stim\">ISLAND</p>", "conditions": [24, 800, "v", 24000], "internal_node_id": "0.0-73.0", "trial": 2, "time_elapsed": 632989, "serialpos": 11, "key_press": -1, "wordID": 744, "type": "PRES_VIS", "trial_index": 100}, "uniqueid": "MTK3672:3JPSL1DZ5T632DB126YVWDSVRPMANL", "dateTime": 1520897164956}, {"current_trial": 101, "trialdata": {"rt": -1, "trial_type": "single-stim", "word": "pocket", "stimulus": "<p id=\"stim\">POCKET</p>", "conditions": [24, 800, "v", 24000], "internal_node_id": "0.0-74.0", "trial": 2, "time_elapsed": 634709, "serialpos": 12, "key_press": -1, "wordID": 1092, "type": "PRES_VIS", "trial_index": 101}, "uniqueid": "MTK3672:3JPSL1DZ5T632DB126YVWDSVRPMANL", "dateTime": 1520897166675}, {"current_trial": 102, "trialdata": {"rt": -1, "trial_type": "single-stim", "word": "knapsack", "stimulus": "<p id=\"stim\">KNAPSACK</p>", "conditions": [24, 800, "v", 24000], "internal_node_id": "0.0-75.0", "trial": 2, "time_elapsed": 636667, "serialpos": 13, "key_press": -1, "wordID": 782, "type": "PRES_VIS", "trial_index": 102}, "uniqueid": "MTK3672:3JPSL1DZ5T632DB126YVWDSVRPMANL", "dateTime": 1520897168634}, {"current_trial": 103, "trialdata": {"rt": -1, "trial_type": "single-stim", "word": "necklace", "stimulus": "<p id=\"stim\">NECKLACE</p>", "conditions": [24, 800, "v", 24000], "internal_node_id": "0.0-76.0", "trial": 2, "time_elapsed": 638401, "serialpos": 14, "key_press": -1, "wordID": 939, "type": "PRES_VIS", "trial_index": 103}, "uniqueid": "MTK3672:3JPSL1DZ5T632DB126YVWDSVRPMANL", "dateTime": 1520897170367}, {"current_trial": 104, "trialdata": {"rt": -1, "trial_type": "single-stim", "word": "sheriff", "stimulus": "<p id=\"stim\">SHERIFF</p>", "conditions": [24, 800, "v", 24000], "internal_node_id": "0.0-77.0", "trial": 2, "time_elapsed": 640353, "serialpos": 15, "key_press": -1, "wordID": 1283, "type": "PRES_VIS", "trial_index": 104}, "uniqueid": "MTK3672:3JPSL1DZ5T632DB126YVWDSVRPMANL", "dateTime": 1520897172319}, {"current_trial": 105, "trialdata": {"rt": -1, "trial_type": "single-stim", "word": "county", "stimulus": "<p id=\"stim\">COUNTY</p>", "conditions": [24, 800, "v", 24000], "internal_node_id": "0.0-78.0", "trial": 2, "time_elapsed": 642352, "serialpos": 16, "key_press": -1, "wordID": 388, "type": "PRES_VIS", "trial_index": 105}, "uniqueid": "MTK3672:3JPSL1DZ5T632DB126YVWDSVRPMANL", "dateTime": 1520897174319}, {"current_trial": 106, "trialdata": {"rt": -1, "trial_type": "single-stim", "word": "tombstone", "stimulus": "<p id=\"stim\">TOMBSTONE</p>", "conditions": [24, 800, "v", 24000], "internal_node_id": "0.0-79.0", "trial": 2, "time_elapsed": 644338, "serialpos": 17, "key_press": -1, "wordID": 1477, "type": "PRES_VIS", "trial_index": 106}, "uniqueid": "MTK3672:3JPSL1DZ5T632DB126YVWDSVRPMANL", "dateTime": 1520897176304}, {"current_trial": 107, "trialdata": {"rt": -1, "trial_type": "single-stim", "word": "hornet", "stimulus": "<p id=\"stim\">HORNET</p>", "conditions": [24, 800, "v", 24000], "internal_node_id": "0.0-80.0", "trial": 2, "time_elapsed": 645948, "serialpos": 18, "key_press": -1, "wordID": 717, "type": "PRES_VIS", "trial_index": 107}, "uniqueid": "MTK3672:3JPSL1DZ5T632DB126YVWDSVRPMANL", "dateTime": 1520897177915}, {"current_trial": 108, "trialdata": {"rt": -1, "trial_type": "single-stim", "word": "coffee", "stimulus": "<p id=\"stim\">COFFEE</p>", "conditions": [24, 800, "v", 24000], "internal_node_id": "0.0-81.0", "trial": 2, "time_elapsed": 647800, "serialpos": 19, "key_press": -1, "wordID": 340, "type": "PRES_VIS", "trial_index": 108}, "uniqueid": "MTK3672:3JPSL1DZ5T632DB126YVWDSVRPMANL", "dateTime": 1520897179766}, {"current_trial": 109, "trialdata": {"rt": -1, "trial_type": "single-stim", "word": "banquet", "stimulus": "<p id=\"stim\">BANQUET</p>", "conditions": [24, 800, "v", 24000], "internal_node_id": "0.0-82.0", "trial": 2, "time_elapsed": 649634, "serialpos": 20, "key_press": -1, "wordID": 85, "type": "PRES_VIS", "trial_index": 109}, "uniqueid": "MTK3672:3JPSL1DZ5T632DB126YVWDSVRPMANL", "dateTime": 1520897181600}, {"current_trial": 110, "trialdata": {"rt": -1, "trial_type": "single-stim", "word": "handbag", "stimulus": "<p id=\"stim\">HANDBAG</p>", "conditions": [24, 800, "v", 24000], "internal_node_id": "0.0-83.0", "trial": 2, "time_elapsed": 651428, "serialpos": 21, "key_press": -1, "wordID": 683, "type": "PRES_VIS", "trial_index": 110}, "uniqueid": "MTK3672:3JPSL1DZ5T632DB126YVWDSVRPMANL", "dateTime": 1520897183394}, {"current_trial": 111, "trialdata": {"rt": -1, "trial_type": "single-stim", "word": "truck", "stimulus": "<p id=\"stim\">TRUCK</p>", "conditions": [24, 800, "v", 24000], "internal_node_id": "0.0-84.0", "trial": 2, "time_elapsed": 653271, "serialpos": 22, "key_press": -1, "wordID": 1511, "type": "PRES_VIS", "trial_index": 111}, "uniqueid": "MTK3672:3JPSL1DZ5T632DB126YVWDSVRPMANL", "dateTime": 1520897185238}, {"current_trial": 112, "trialdata": {"rt": -1, "trial_type": "single-stim", "word": "infant", "stimulus": "<p id=\"stim\">INFANT</p>", "conditions": [24, 800, "v", 24000], "internal_node_id": "0.0-85.0", "trial": 2, "time_elapsed": 655003, "serialpos": 23, "key_press": -1, "wordID": 736, "type": "PRES_VIS", "trial_index": 112}, "uniqueid": "MTK3672:3JPSL1DZ5T632DB126YVWDSVRPMANL", "dateTime": 1520897186969}, {"current_trial": 113, "trialdata": {"rt": -1, "trial_type": "single-stim", "stimulus": "", "internal_node_id": "0.0-86.0-0.0", "time_elapsed": 657150, "key_press": -1, "type": "PRE_RECALL_DELAY", "trial_index": 113}, "uniqueid": "MTK3672:3JPSL1DZ5T632DB126YVWDSVRPMANL", "dateTime": 1520897189117}, {"current_trial": 114, "trialdata": {"rt": -1000, "trial_type": "single-audio", "stimulus": "/static/audio/400Hz.wav", "internal_node_id": "0.0-87.0", "time_elapsed": 657654, "key_press": -1, "type": "PRE_RECALL_ALERT", "trial_index": 114}, "uniqueid": "MTK3672:3JPSL1DZ5T632DB126YVWDSVRPMANL", "dateTime": 1520897189620}, {"current_trial": 115, "trialdata": {"rt": [3747, 7073, 9375, 13539, 16479, 22331, 29739, 39318, 50416], "recwords": ["coffee", "rabbit", "truck", "infant", "sparrow", "chipmunk", "robin", "truck", "tombstone"], "key_times": [1769, 2044, 2365, 2498, 2905, 3046, 3747, 4563, 5119, 5590, 5718, 6103, 6478, 7073, 7563, 7742, 8034, 8301, 8659, 9375, 10028, 10320, 11195, 11411, 11795, 11978, 13539, 13970, 14184, 14376, 14776, 14903, 15163, 15509, 16479, 17910, 18162, 18663, 19286, 19821, 20059, 20324, 21242, 22331, 27035, 27497, 28130, 28447, 28769, 29739, 37368, 37437, 37692, 37923, 38395, 39318, 45714, 45933, 46219, 47244, 48080, 48481, 48828, 49163, 49418, 50416], "trial_type": "free-recall", "conditions": [24, 800, "v", 24000], "internal_node_id": "0.0-88.0-0.0", "key_presses": [67, 79, 70, 70, 69, 69, 13, 82, 65, 66, 66, 73, 84, 13, 84, 82, 85, 67, 75, 13, 73, 78, 70, 65, 78, 84, 13, 83, 80, 65, 82, 82, 79, 87, 13, 67, 72, 73, 80, 77, 85, 78, 75, 13, 82, 79, 66, 73, 78, 13, 84, 82, 85, 67, 75, 13, 84, 79, 77, 66, 83, 84, 79, 78, 69, 13], "trial": 2, "time_elapsed": 717661, "type": "FREE_RECALL", "trial_index": 115}, "uniqueid": "MTK3672:3JPSL1DZ5T632DB126YVWDSVRPMANL", "dateTime": 1520897249634}, {"current_trial": 116, "trialdata": {"rt": 2646, "trial_type": "text", "internal_node_id": "0.0-89.0", "time_elapsed": 722318, "key_press": 13, "type": "INSTRUCTIONS", "trial_index": 116}, "uniqueid": "MTK3672:3JPSL1DZ5T632DB126YVWDSVRPMANL", "dateTime": 1520897254285}, {"current_trial": 117, "trialdata": {"rt": [3084, 5813, 9123, 11654], "trial_type": "math-distractor", "key_times": [2476, 3084, 5014, 5507, 5813, 8281, 8867, 9123, 11377, 11654], "responses": ["9", "14", "17", "8"], "num2": [1, 7, 8, 4, 2], "num3": [2, 2, 6, 2, 3], "conditions": [24, 800, "v", 12000], "internal_node_id": "0.0-90.0", "key_presses": [57, 13, 49, 52, 13, 49, 55, 13, 56, 13], "trial": 3, "time_elapsed": 736327, "type": "DISTRACTOR", "trial_index": 117, "num1": [6, 5, 3, 2, 5]}, "uniqueid": "MTK3672:3JPSL1DZ5T632DB126YVWDSVRPMANL", "dateTime": 1520897268293}, {"current_trial": 118, "trialdata": {"rt": -1, "trial_type": "single-stim", "stimulus": "<p id=\"stim\">10</p>", "internal_node_id": "0.0-91.0-0.0", "time_elapsed": 739334, "key_press": -1, "trial_index": 118}, "uniqueid": "MTK3672:3JPSL1DZ5T632DB126YVWDSVRPMANL", "dateTime": 1520897271301}, {"current_trial": 119, "trialdata": {"rt": -1, "trial_type": "single-stim", "stimulus": "<p id=\"stim\">9</p>", "internal_node_id": "0.0-91.0-1.0", "time_elapsed": 740336, "key_press": -1, "trial_index": 119}, "uniqueid": "MTK3672:3JPSL1DZ5T632DB126YVWDSVRPMANL", "dateTime": 1520897272303}, {"current_trial": 120, "trialdata": {"rt": -1, "trial_type": "single-stim", "stimulus": "<p id=\"stim\">8</p>", "internal_node_id": "0.0-91.0-2.0", "time_elapsed": 741339, "key_press": -1, "trial_index": 120}, "uniqueid": "MTK3672:3JPSL1DZ5T632DB126YVWDSVRPMANL", "dateTime": 1520897273305}, {"current_trial": 121, "trialdata": {"rt": -1, "trial_type": "single-stim", "stimulus": "<p id=\"stim\">7</p>", "internal_node_id": "0.0-91.0-3.0", "time_elapsed": 742343, "key_press": -1, "trial_index": 121}, "uniqueid": "MTK3672:3JPSL1DZ5T632DB126YVWDSVRPMANL", "dateTime": 1520897274309}, {"current_trial": 122, "trialdata": {"rt": -1, "trial_type": "single-stim", "stimulus": "<p id=\"stim\">6</p>", "internal_node_id": "0.0-91.0-4.0", "time_elapsed": 743347, "key_press": -1, "trial_index": 122}, "uniqueid": "MTK3672:3JPSL1DZ5T632DB126YVWDSVRPMANL", "dateTime": 1520897275313}, {"current_trial": 123, "trialdata": {"rt": -1, "trial_type": "single-stim", "stimulus": "<p id=\"stim\">5</p>", "internal_node_id": "0.0-91.0-5.0", "time_elapsed": 744349, "key_press": -1, "trial_index": 123}, "uniqueid": "MTK3672:3JPSL1DZ5T632DB126YVWDSVRPMANL", "dateTime": 1520897276316}, {"current_trial": 124, "trialdata": {"rt": -1, "trial_type": "single-stim", "stimulus": "<p id=\"stim\">4</p>", "internal_node_id": "0.0-91.0-6.0", "time_elapsed": 745351, "key_press": -1, "trial_index": 124}, "uniqueid": "MTK3672:3JPSL1DZ5T632DB126YVWDSVRPMANL", "dateTime": 1520897277317}, {"current_trial": 125, "trialdata": {"rt": -1, "trial_type": "single-stim", "stimulus": "<p id=\"stim\">3</p>", "internal_node_id": "0.0-91.0-7.0", "time_elapsed": 746354, "key_press": -1, "trial_index": 125}, "uniqueid": "MTK3672:3JPSL1DZ5T632DB126YVWDSVRPMANL", "dateTime": 1520897278321}, {"current_trial": 126, "trialdata": {"rt": -1, "trial_type": "single-stim", "stimulus": "<p id=\"stim\">2</p>", "internal_node_id": "0.0-91.0-8.0", "time_elapsed": 747358, "key_press": -1, "trial_index": 126}, "uniqueid": "MTK3672:3JPSL1DZ5T632DB126YVWDSVRPMANL", "dateTime": 1520897279324}, {"current_trial": 127, "trialdata": {"rt": -1, "trial_type": "single-stim", "stimulus": "<p id=\"stim\">1</p>", "internal_node_id": "0.0-91.0-9.0", "time_elapsed": 748360, "key_press": -1, "trial_index": 127}, "uniqueid": "MTK3672:3JPSL1DZ5T632DB126YVWDSVRPMANL", "dateTime": 1520897280327}, {"current_trial": 128, "trialdata": {"rt": -1, "trial_type": "single-stim", "stimulus": "<p id=\"stim\">+</p>", "internal_node_id": "0.0-92.0-0.0", "time_elapsed": 749864, "key_press": -1, "type": "FIXATION", "trial_index": 128}, "uniqueid": "MTK3672:3JPSL1DZ5T632DB126YVWDSVRPMANL", "dateTime": 1520897281831}, {"current_trial": 129, "trialdata": {"rt": -1, "trial_type": "single-stim", "word": "chest", "stimulus": "<p id=\"stim\">CHEST</p>", "conditions": [24, 800, "v", 12000], "internal_node_id": "0.0-93.0", "trial": 3, "time_elapsed": 750668, "serialpos": 0, "key_press": -1, "wordID": 294, "type": "PRES_VIS", "trial_index": 129}, "uniqueid": "MTK3672:3JPSL1DZ5T632DB126YVWDSVRPMANL", "dateTime": 1520897282635}, {"current_trial": 130, "trialdata": {"rt": -1, "trial_type": "single-stim", "word": "maple", "stimulus": "<p id=\"stim\">MAPLE</p>", "conditions": [24, 800, "v", 12000], "internal_node_id": "0.0-94.0", "trial": 3, "time_elapsed": 752568, "serialpos": 1, "key_press": -1, "wordID": 865, "type": "PRES_VIS", "trial_index": 130}, "uniqueid": "MTK3672:3JPSL1DZ5T632DB126YVWDSVRPMANL", "dateTime": 1520897284535}, {"current_trial": 131, "trialdata": {"rt": -1, "trial_type": "single-stim", "word": "possum", "stimulus": "<p id=\"stim\">POSSUM</p>", "conditions": [24, 800, "v", 12000], "internal_node_id": "0.0-95.0", "trial": 3, "time_elapsed": 754573, "serialpos": 2, "key_press": -1, "wordID": 1111, "type": "PRES_VIS", "trial_index": 131}, "uniqueid": "MTK3672:3JPSL1DZ5T632DB126YVWDSVRPMANL", "dateTime": 1520897286539}, {"current_trial": 132, "trialdata": {"rt": -1, "trial_type": "single-stim", "word": "gift", "stimulus": "<p id=\"stim\">GIFT</p>", "conditions": [24, 800, "v", 12000], "internal_node_id": "0.0-96.0", "trial": 3, "time_elapsed": 756566, "serialpos": 3, "key_press": -1, "wordID": 634, "type": "PRES_VIS", "trial_index": 132}, "uniqueid": "MTK3672:3JPSL1DZ5T632DB126YVWDSVRPMANL", "dateTime": 1520897288533}, {"current_trial": 133, "trialdata": {"rt": -1, "trial_type": "single-stim", "word": "knife", "stimulus": "<p id=\"stim\">KNIFE</p>", "conditions": [24, 800, "v", 12000], "internal_node_id": "0.0-97.0", "trial": 3, "time_elapsed": 758296, "serialpos": 4, "key_press": -1, "wordID": 784, "type": "PRES_VIS", "trial_index": 133}, "uniqueid": "MTK3672:3JPSL1DZ5T632DB126YVWDSVRPMANL", "dateTime": 1520897290262}, {"current_trial": 134, "trialdata": {"rt": -1, "trial_type": "single-stim", "word": "hand", "stimulus": "<p id=\"stim\">HAND</p>", "conditions": [24, 800, "v", 12000], "internal_node_id": "0.0-98.0", "trial": 3, "time_elapsed": 760180, "serialpos": 5, "key_press": -1, "wordID": 682, "type": "PRES_VIS", "trial_index": 134}, "uniqueid": "MTK3672:3JPSL1DZ5T632DB126YVWDSVRPMANL", "dateTime": 1520897292146}, {"current_trial": 135, "trialdata": {"rt": -1, "trial_type": "single-stim", "word": "pistol", "stimulus": "<p id=\"stim\">PISTOL</p>", "conditions": [24, 800, "v", 12000], "internal_node_id": "0.0-99.0", "trial": 3, "time_elapsed": 761954, "serialpos": 6, "key_press": -1, "wordID": 1074, "type": "PRES_VIS", "trial_index": 135}, "uniqueid": "MTK3672:3JPSL1DZ5T632DB126YVWDSVRPMANL", "dateTime": 1520897293921}, {"current_trial": 136, "trialdata": {"rt": -1, "trial_type": "single-stim", "word": "lake", "stimulus": "<p id=\"stim\">LAKE</p>", "conditions": [24, 800, "v", 12000], "internal_node_id": "0.0-100.0", "trial": 3, "time_elapsed": 763697, "serialpos": 7, "key_press": -1, "wordID": 795, "type": "PRES_VIS", "trial_index": 136}, "uniqueid": "MTK3672:3JPSL1DZ5T632DB126YVWDSVRPMANL", "dateTime": 1520897295664}, {"current_trial": 137, "trialdata": {"rt": -1, "trial_type": "single-stim", "word": "canal", "stimulus": "<p id=\"stim\">CANAL</p>", "conditions": [24, 800, "v", 12000], "internal_node_id": "0.0-101.0", "trial": 3, "time_elapsed": 765574, "serialpos": 8, "key_press": -1, "wordID": 225, "type": "PRES_VIS", "trial_index": 137}, "uniqueid": "MTK3672:3JPSL1DZ5T632DB126YVWDSVRPMANL", "dateTime": 1520897297540}, {"current_trial": 138, "trialdata": {"rt": -1, "trial_type": "single-stim", "word": "champagne", "stimulus": "<p id=\"stim\">CHAMPAGNE</p>", "conditions": [24, 800, "v", 12000], "internal_node_id": "0.0-102.0", "trial": 3, "time_elapsed": 767376, "serialpos": 9, "key_press": -1, "wordID": 277, "type": "PRES_VIS", "trial_index": 138}, "uniqueid": "MTK3672:3JPSL1DZ5T632DB126YVWDSVRPMANL", "dateTime": 1520897299342}, {"current_trial": 139, "trialdata": {"rt": -1, "trial_type": "single-stim", "word": "razor", "stimulus": "<p id=\"stim\">RAZOR</p>", "conditions": [24, 800, "v", 12000], "internal_node_id": "0.0-103.0", "trial": 3, "time_elapsed": 769032, "serialpos": 10, "key_press": -1, "wordID": 1170, "type": "PRES_VIS", "trial_index": 139}, "uniqueid": "MTK3672:3JPSL1DZ5T632DB126YVWDSVRPMANL", "dateTime": 1520897300999}, {"current_trial": 140, "trialdata": {"rt": -1, "trial_type": "single-stim", "word": "lodge", "stimulus": "<p id=\"stim\">LODGE</p>", "conditions": [24, 800, "v", 12000], "internal_node_id": "0.0-104.0", "trial": 3, "time_elapsed": 770678, "serialpos": 11, "key_press": -1, "wordID": 838, "type": "PRES_VIS", "trial_index": 140}, "uniqueid": "MTK3672:3JPSL1DZ5T632DB126YVWDSVRPMANL", "dateTime": 1520897302644}, {"current_trial": 141, "trialdata": {"rt": -1, "trial_type": "single-stim", "word": "fleet", "stimulus": "<p id=\"stim\">FLEET</p>", "conditions": [24, 800, "v", 12000], "internal_node_id": "0.0-105.0", "trial": 3, "time_elapsed": 772570, "serialpos": 12, "key_press": -1, "wordID": 577, "type": "PRES_VIS", "trial_index": 141}, "uniqueid": "MTK3672:3JPSL1DZ5T632DB126YVWDSVRPMANL", "dateTime": 1520897304536}, {"current_trial": 142, "trialdata": {"rt": -1, "trial_type": "single-stim", "word": "ketchup", "stimulus": "<p id=\"stim\">KETCHUP</p>", "conditions": [24, 800, "v", 12000], "internal_node_id": "0.0-106.0", "trial": 3, "time_elapsed": 774494, "serialpos": 13, "key_press": -1, "wordID": 770, "type": "PRES_VIS", "trial_index": 142}, "uniqueid": "MTK3672:3JPSL1DZ5T632DB126YVWDSVRPMANL", "dateTime": 1520897306461}, {"current_trial": 143, "trialdata": {"rt": -1, "trial_type": "single-stim", "word": "stomach", "stimulus": "<p id=\"stim\">STOMACH</p>", "conditions": [24, 800, "v", 12000], "internal_node_id": "0.0-107.0", "trial": 3, "time_elapsed": 776129, "serialpos": 14, "key_press": -1, "wordID": 1383, "type": "PRES_VIS", "trial_index": 143}, "uniqueid": "MTK3672:3JPSL1DZ5T632DB126YVWDSVRPMANL", "dateTime": 1520897308096}, {"current_trial": 144, "trialdata": {"rt": -1, "trial_type": "single-stim", "word": "cousin", "stimulus": "<p id=\"stim\">COUSIN</p>", "conditions": [24, 800, "v", 12000], "internal_node_id": "0.0-108.0", "trial": 3, "time_elapsed": 777826, "serialpos": 15, "key_press": -1, "wordID": 391, "type": "PRES_VIS", "trial_index": 144}, "uniqueid": "MTK3672:3JPSL1DZ5T632DB126YVWDSVRPMANL", "dateTime": 1520897309793}, {"current_trial": 145, "trialdata": {"rt": -1, "trial_type": "single-stim", "word": "denim", "stimulus": "<p id=\"stim\">DENIM</p>", "conditions": [24, 800, "v", 12000], "internal_node_id": "0.0-109.0", "trial": 3, "time_elapsed": 779742, "serialpos": 16, "key_press": -1, "wordID": 445, "type": "PRES_VIS", "trial_index": 145}, "uniqueid": "MTK3672:3JPSL1DZ5T632DB126YVWDSVRPMANL", "dateTime": 1520897311709}, {"current_trial": 146, "trialdata": {"rt": -1, "trial_type": "single-stim", "word": "brother", "stimulus": "<p id=\"stim\">BROTHER</p>", "conditions": [24, 800, "v", 12000], "internal_node_id": "0.0-110.0", "trial": 3, "time_elapsed": 781720, "serialpos": 17, "key_press": -1, "wordID": 178, "type": "PRES_VIS", "trial_index": 146}, "uniqueid": "MTK3672:3JPSL1DZ5T632DB126YVWDSVRPMANL", "dateTime": 1520897313686}, {"current_trial": 147, "trialdata": {"rt": -1, "trial_type": "single-stim", "word": "poison", "stimulus": "<p id=\"stim\">POISON</p>", "conditions": [24, 800, "v", 12000], "internal_node_id": "0.0-111.0", "trial": 3, "time_elapsed": 783626, "serialpos": 18, "key_press": -1, "wordID": 1095, "type": "PRES_VIS", "trial_index": 147}, "uniqueid": "MTK3672:3JPSL1DZ5T632DB126YVWDSVRPMANL", "dateTime": 1520897315592}, {"current_trial": 148, "trialdata": {"rt": -1, "trial_type": "single-stim", "word": "termite", "stimulus": "<p id=\"stim\">TERMITE</p>", "conditions": [24, 800, "v", 12000], "internal_node_id": "0.0-112.0", "trial": 3, "time_elapsed": 785435, "serialpos": 19, "key_press": -1, "wordID": 1450, "type": "PRES_VIS", "trial_index": 148}, "uniqueid": "MTK3672:3JPSL1DZ5T632DB126YVWDSVRPMANL", "dateTime": 1520897317402}, {"current_trial": 149, "trialdata": {"rt": -1, "trial_type": "single-stim", "word": "barley", "stimulus": "<p id=\"stim\">BARLEY</p>", "conditions": [24, 800, "v", 12000], "internal_node_id": "0.0-113.0", "trial": 3, "time_elapsed": 787055, "serialpos": 20, "key_press": -1, "wordID": 87, "type": "PRES_VIS", "trial_index": 149}, "uniqueid": "MTK3672:3JPSL1DZ5T632DB126YVWDSVRPMANL", "dateTime": 1520897319021}, {"current_trial": 150, "trialdata": {"rt": -1, "trial_type": "single-stim", "word": "dress", "stimulus": "<p id=\"stim\">DRESS</p>", "conditions": [24, 800, "v", 12000], "internal_node_id": "0.0-114.0", "trial": 3, "time_elapsed": 788691, "serialpos": 21, "key_press": -1, "wordID": 494, "type": "PRES_VIS", "trial_index": 150}, "uniqueid": "MTK3672:3JPSL1DZ5T632DB126YVWDSVRPMANL", "dateTime": 1520897320659}, {"current_trial": 151, "trialdata": {"rt": -1, "trial_type": "single-stim", "word": "skillet", "stimulus": "<p id=\"stim\">SKILLET</p>", "conditions": [24, 800, "v", 12000], "internal_node_id": "0.0-115.0", "trial": 3, "time_elapsed": 790563, "serialpos": 22, "key_press": -1, "wordID": 1316, "type": "PRES_VIS", "trial_index": 151}, "uniqueid": "MTK3672:3JPSL1DZ5T632DB126YVWDSVRPMANL", "dateTime": 1520897322531}, {"current_trial": 152, "trialdata": {"rt": -1, "trial_type": "single-stim", "word": "spoon", "stimulus": "<p id=\"stim\">SPOON</p>", "conditions": [24, 800, "v", 12000], "internal_node_id": "0.0-116.0", "trial": 3, "time_elapsed": 792466, "serialpos": 23, "key_press": -1, "wordID": 1356, "type": "PRES_VIS", "trial_index": 152}, "uniqueid": "MTK3672:3JPSL1DZ5T632DB126YVWDSVRPMANL", "dateTime": 1520897324432}, {"current_trial": 153, "trialdata": {"rt": -1, "trial_type": "single-stim", "stimulus": "", "internal_node_id": "0.0-117.0-0.0", "time_elapsed": 794983, "key_press": -1, "type": "PRE_RECALL_DELAY", "trial_index": 153}, "uniqueid": "MTK3672:3JPSL1DZ5T632DB126YVWDSVRPMANL", "dateTime": 1520897326950}, {"current_trial": 154, "trialdata": {"rt": -1000, "trial_type": "single-audio", "stimulus": "/static/audio/400Hz.wav", "internal_node_id": "0.0-118.0", "time_elapsed": 795487, "key_press": -1, "type": "PRE_RECALL_ALERT", "trial_index": 154}, "uniqueid": "MTK3672:3JPSL1DZ5T632DB126YVWDSVRPMANL", "dateTime": 1520897327453}, {"current_trial": 155, "trialdata": {"rt": [4131, 6855, 9734, 14330, 20676, 32862], "recwords": ["maple", "chest", "possum", "knife", "insect", "knife"], "key_times": [2082, 2474, 2765, 2979, 3185, 4131, 5057, 5276, 5446, 5633, 5871, 6855, 7468, 7705, 7972, 8123, 8447, 8727, 9734, 10329, 10547, 10839, 11124, 11854, 14330, 14778, 14991, 15453, 15645, 15880, 16470, 20676, 31095, 31252, 31573, 31783, 31958, 32862], "trial_type": "free-recall", "conditions": [24, 800, "v", 12000], "internal_node_id": "0.0-119.0-0.0", "key_presses": [77, 65, 80, 76, 69, 13, 67, 72, 69, 83, 84, 13, 80, 79, 83, 83, 85, 77, 13, 75, 78, 73, 70, 69, 13, 73, 78, 83, 69, 67, 84, 13, 75, 78, 73, 70, 69, 13], "trial": 3, "time_elapsed": 855493, "type": "FREE_RECALL", "trial_index": 155}, "uniqueid": "MTK3672:3JPSL1DZ5T632DB126YVWDSVRPMANL", "dateTime": 1520897387465}, {"current_trial": 156, "trialdata": {"rt": 2199, "trial_type": "text", "internal_node_id": "0.0-120.0", "time_elapsed": 859704, "key_press": 13, "type": "INSTRUCTIONS", "trial_index": 156}, "uniqueid": "MTK3672:3JPSL1DZ5T632DB126YVWDSVRPMANL", "dateTime": 1520897391670}, {"current_trial": 157, "trialdata": {"rt": [3500, 5980, 9358, 11645, 13244, 15635, 18179, 21137, 23414], "trial_type": "math-distractor", "key_times": [2129, 2587, 3500, 5708, 5980, 8462, 9070, 9358, 11250, 11446, 11645, 12821, 13045, 13244, 14966, 15414, 15635, 17479, 17964, 18179, 20183, 20834, 21137, 23181, 23414], "responses": ["14", "9", "15", "21", "12", "14", "15", "10", "9"], "num2": [7, 1, 3, 8, 6, 4, 6, 3, 2, 4], "num3": [4, 4, 6, 7, 4, 3, 8, 4, 2, 2], "conditions": [12, 1600, "v", 24000], "internal_node_id": "0.0-121.0", "key_presses": [49, 52, 13, 57, 13, 49, 53, 13, 50, 49, 13, 49, 50, 13, 49, 52, 13, 49, 53, 13, 49, 48, 13, 57, 13], "trial": 4, "time_elapsed": 885712, "type": "DISTRACTOR", "trial_index": 157, "num1": [2, 4, 6, 6, 2, 7, 1, 3, 5, 5]}, "uniqueid": "MTK3672:3JPSL1DZ5T632DB126YVWDSVRPMANL", "dateTime": 1520897417678}, {"current_trial": 158, "trialdata": {"rt": -1, "trial_type": "single-stim", "stimulus": "<p id=\"stim\">10</p>", "internal_node_id": "0.0-122.0-0.0", "time_elapsed": 888719, "key_press": -1, "trial_index": 158}, "uniqueid": "MTK3672:3JPSL1DZ5T632DB126YVWDSVRPMANL", "dateTime": 1520897420685}, {"current_trial": 159, "trialdata": {"rt": -1, "trial_type": "single-stim", "stimulus": "<p id=\"stim\">9</p>", "internal_node_id": "0.0-122.0-1.0", "time_elapsed": 889724, "key_press": -1, "trial_index": 159}, "uniqueid": "MTK3672:3JPSL1DZ5T632DB126YVWDSVRPMANL", "dateTime": 1520897421691}, {"current_trial": 160, "trialdata": {"rt": -1, "trial_type": "single-stim", "stimulus": "<p id=\"stim\">8</p>", "internal_node_id": "0.0-122.0-2.0", "time_elapsed": 890728, "key_press": -1, "trial_index": 160}, "uniqueid": "MTK3672:3JPSL1DZ5T632DB126YVWDSVRPMANL", "dateTime": 1520897422695}, {"current_trial": 161, "trialdata": {"rt": -1, "trial_type": "single-stim", "stimulus": "<p id=\"stim\">7</p>", "internal_node_id": "0.0-122.0-3.0", "time_elapsed": 891732, "key_press": -1, "trial_index": 161}, "uniqueid": "MTK3672:3JPSL1DZ5T632DB126YVWDSVRPMANL", "dateTime": 1520897423699}, {"current_trial": 162, "trialdata": {"rt": -1, "trial_type": "single-stim", "stimulus": "<p id=\"stim\">6</p>", "internal_node_id": "0.0-122.0-4.0", "time_elapsed": 892737, "key_press": -1, "trial_index": 162}, "uniqueid": "MTK3672:3JPSL1DZ5T632DB126YVWDSVRPMANL", "dateTime": 1520897424704}, {"current_trial": 163, "trialdata": {"rt": -1, "trial_type": "single-stim", "stimulus": "<p id=\"stim\">5</p>", "internal_node_id": "0.0-122.0-5.0", "time_elapsed": 893742, "key_press": -1, "trial_index": 163}, "uniqueid": "MTK3672:3JPSL1DZ5T632DB126YVWDSVRPMANL", "dateTime": 1520897425709}, {"current_trial": 164, "trialdata": {"rt": -1, "trial_type": "single-stim", "stimulus": "<p id=\"stim\">4</p>", "internal_node_id": "0.0-122.0-6.0", "time_elapsed": 894748, "key_press": -1, "trial_index": 164}, "uniqueid": "MTK3672:3JPSL1DZ5T632DB126YVWDSVRPMANL", "dateTime": 1520897426715}, {"current_trial": 165, "trialdata": {"rt": -1, "trial_type": "single-stim", "stimulus": "<p id=\"stim\">3</p>", "internal_node_id": "0.0-122.0-7.0", "time_elapsed": 895752, "key_press": -1, "trial_index": 165}, "uniqueid": "MTK3672:3JPSL1DZ5T632DB126YVWDSVRPMANL", "dateTime": 1520897427719}, {"current_trial": 166, "trialdata": {"rt": -1, "trial_type": "single-stim", "stimulus": "<p id=\"stim\">2</p>", "internal_node_id": "0.0-122.0-8.0", "time_elapsed": 896757, "key_press": -1, "trial_index": 166}, "uniqueid": "MTK3672:3JPSL1DZ5T632DB126YVWDSVRPMANL", "dateTime": 1520897428723}, {"current_trial": 167, "trialdata": {"rt": -1, "trial_type": "single-stim", "stimulus": "<p id=\"stim\">1</p>", "internal_node_id": "0.0-122.0-9.0", "time_elapsed": 897761, "key_press": -1, "trial_index": 167}, "uniqueid": "MTK3672:3JPSL1DZ5T632DB126YVWDSVRPMANL", "dateTime": 1520897429728}, {"current_trial": 168, "trialdata": {"rt": -1, "trial_type": "single-stim", "stimulus": "<p id=\"stim\">+</p>", "internal_node_id": "0.0-123.0-0.0", "time_elapsed": 899273, "key_press": -1, "type": "FIXATION", "trial_index": 168}, "uniqueid": "MTK3672:3JPSL1DZ5T632DB126YVWDSVRPMANL", "dateTime": 1520897431239}, {"current_trial": 169, "trialdata": {"rt": -1, "trial_type": "single-stim", "word": "bug", "stimulus": "<p id=\"stim\">BUG</p>", "conditions": [12, 1600, "v", 24000], "internal_node_id": "0.0-124.0", "trial": 4, "time_elapsed": 900877, "serialpos": 0, "key_press": -1, "wordID": 186, "type": "PRES_VIS", "trial_index": 169}, "uniqueid": "MTK3672:3JPSL1DZ5T632DB126YVWDSVRPMANL", "dateTime": 1520897432843}, {"current_trial": 170, "trialdata": {"rt": -1, "trial_type": "single-stim", "word": "turkey", "stimulus": "<p id=\"stim\">TURKEY</p>", "conditions": [12, 1600, "v", 24000], "internal_node_id": "0.0-125.0", "trial": 4, "time_elapsed": 903397, "serialpos": 1, "key_press": -1, "wordID": 1519, "type": "PRES_VIS", "trial_index": 170}, "uniqueid": "MTK3672:3JPSL1DZ5T632DB126YVWDSVRPMANL", "dateTime": 1520897435363}, {"current_trial": 171, "trialdata": {"rt": -1, "trial_type": "single-stim", "word": "honey", "stimulus": "<p id=\"stim\">HONEY</p>", "conditions": [12, 1600, "v", 24000], "internal_node_id": "0.0-126.0", "trial": 4, "time_elapsed": 905915, "serialpos": 2, "key_press": -1, "wordID": 712, "type": "PRES_VIS", "trial_index": 171}, "uniqueid": "MTK3672:3JPSL1DZ5T632DB126YVWDSVRPMANL", "dateTime": 1520897437882}, {"current_trial": 172, "trialdata": {"rt": -1, "trial_type": "single-stim", "word": "patrol", "stimulus": "<p id=\"stim\">PATROL</p>", "conditions": [12, 1600, "v", 24000], "internal_node_id": "0.0-127.0", "trial": 4, "time_elapsed": 908417, "serialpos": 3, "key_press": -1, "wordID": 1026, "type": "PRES_VIS", "trial_index": 172}, "uniqueid": "MTK3672:3JPSL1DZ5T632DB126YVWDSVRPMANL", "dateTime": 1520897440384}, {"current_trial": 173, "trialdata": {"rt": -1, "trial_type": "single-stim", "word": "report", "stimulus": "<p id=\"stim\">REPORT</p>", "conditions": [12, 1600, "v", 24000], "internal_node_id": "0.0-128.0", "trial": 4, "time_elapsed": 910896, "serialpos": 4, "key_press": -1, "wordID": 1183, "type": "PRES_VIS", "trial_index": 173}, "uniqueid": "MTK3672:3JPSL1DZ5T632DB126YVWDSVRPMANL", "dateTime": 1520897442862}, {"current_trial": 174, "trialdata": {"rt": -1, "trial_type": "single-stim", "word": "survey", "stimulus": "<p id=\"stim\">SURVEY</p>", "conditions": [12, 1600, "v", 24000], "internal_node_id": "0.0-129.0", "trial": 4, "time_elapsed": 913669, "serialpos": 5, "key_press": -1, "wordID": 1413, "type": "PRES_VIS", "trial_index": 174}, "uniqueid": "MTK3672:3JPSL1DZ5T632DB126YVWDSVRPMANL", "dateTime": 1520897445636}, {"current_trial": 175, "trialdata": {"rt": -1, "trial_type": "single-stim", "word": "concert", "stimulus": "<p id=\"stim\">CONCERT</p>", "conditions": [12, 1600, "v", 24000], "internal_node_id": "0.0-130.0", "trial": 4, "time_elapsed": 916079, "serialpos": 6, "key_press": -1, "wordID": 359, "type": "PRES_VIS", "trial_index": 175}, "uniqueid": "MTK3672:3JPSL1DZ5T632DB126YVWDSVRPMANL", "dateTime": 1520897448045}, {"current_trial": 176, "trialdata": {"rt": -1, "trial_type": "single-stim", "word": "lettuce", "stimulus": "<p id=\"stim\">LETTUCE</p>", "conditions": [12, 1600, "v", 24000], "internal_node_id": "0.0-131.0", "trial": 4, "time_elapsed": 918750, "serialpos": 7, "key_press": -1, "wordID": 813, "type": "PRES_VIS", "trial_index": 176}, "uniqueid": "MTK3672:3JPSL1DZ5T632DB126YVWDSVRPMANL", "dateTime": 1520897450717}, {"current_trial": 177, "trialdata": {"rt": -1, "trial_type": "single-stim", "word": "virus", "stimulus": "<p id=\"stim\">VIRUS</p>", "conditions": [12, 1600, "v", 24000], "internal_node_id": "0.0-132.0", "trial": 4, "time_elapsed": 921472, "serialpos": 8, "key_press": -1, "wordID": 1571, "type": "PRES_VIS", "trial_index": 177}, "uniqueid": "MTK3672:3JPSL1DZ5T632DB126YVWDSVRPMANL", "dateTime": 1520897453438}, {"current_trial": 178, "trialdata": {"rt": -1, "trial_type": "single-stim", "word": "clock", "stimulus": "<p id=\"stim\">CLOCK</p>", "conditions": [12, 1600, "v", 24000], "internal_node_id": "0.0-133.0", "trial": 4, "time_elapsed": 924042, "serialpos": 9, "key_press": -1, "wordID": 324, "type": "PRES_VIS", "trial_index": 178}, "uniqueid": "MTK3672:3JPSL1DZ5T632DB126YVWDSVRPMANL", "dateTime": 1520897456009}, {"current_trial": 179, "trialdata": {"rt": -1, "trial_type": "single-stim", "word": "fruit", "stimulus": "<p id=\"stim\">FRUIT</p>", "conditions": [12, 1600, "v", 24000], "internal_node_id": "0.0-134.0", "trial": 4, "time_elapsed": 926732, "serialpos": 10, "key_press": -1, "wordID": 609, "type": "PRES_VIS", "trial_index": 179}, "uniqueid": "MTK3672:3JPSL1DZ5T632DB126YVWDSVRPMANL", "dateTime": 1520897458699}, {"current_trial": 180, "trialdata": {"rt": -1, "trial_type": "single-stim", "word": "garlic", "stimulus": "<p id=\"stim\">GARLIC</p>", "conditions": [12, 1600, "v", 24000], "internal_node_id": "0.0-135.0", "trial": 4, "time_elapsed": 929493, "serialpos": 11, "key_press": -1, "wordID": 623, "type": "PRES_VIS", "trial_index": 180}, "uniqueid": "MTK3672:3JPSL1DZ5T632DB126YVWDSVRPMANL", "dateTime": 1520897461459}, {"current_trial": 181, "trialdata": {"rt": -1, "trial_type": "single-stim", "stimulus": "", "internal_node_id": "0.0-136.0-0.0", "time_elapsed": 931750, "key_press": -1, "type": "PRE_RECALL_DELAY", "trial_index": 181}, "uniqueid": "MTK3672:3JPSL1DZ5T632DB126YVWDSVRPMANL", "dateTime": 1520897463717}, {"current_trial": 182, "trialdata": {"rt": -1000, "trial_type": "single-audio", "stimulus": "/static/audio/400Hz.wav", "internal_node_id": "0.0-137.0", "time_elapsed": 932253, "key_press": -1, "type": "PRE_RECALL_ALERT", "trial_index": 182}, "uniqueid": "MTK3672:3JPSL1DZ5T632DB126YVWDSVRPMANL", "dateTime": 1520897464220}, {"current_trial": 183, "trialdata": {"rt": [3263, 5981, 10192, 16196, 38844], "recwords": ["bug", "turkey", "control", "juice", "support"], "key_times": [1557, 1778, 2328, 3263, 3705, 3935, 4069, 4268, 4708, 5183, 5981, 6577, 6812, 7114, 7398, 7584, 7870, 8108, 10192, 14631, 14831, 15042, 15319, 15574, 16196, 35760, 36155, 36751, 36873, 37114, 37388, 37706, 38844], "trial_type": "free-recall", "conditions": [12, 1600, "v", 24000], "internal_node_id": "0.0-138.0-0.0", "key_presses": [66, 85, 71, 13, 84, 85, 82, 75, 69, 89, 13, 67, 79, 78, 84, 82, 79, 76, 13, 74, 85, 73, 67, 69, 13, 83, 85, 80, 80, 79, 82, 84, 13], "trial": 4, "time_elapsed": 992259, "type": "FREE_RECALL", "trial_index": 183}, "uniqueid": "MTK3672:3JPSL1DZ5T632DB126YVWDSVRPMANL", "dateTime": 1520897524235}, {"current_trial": 184, "trialdata": {"rt": 1168, "trial_type": "text", "internal_node_id": "0.0-139.0", "time_elapsed": 995440, "key_press": 13, "type": "INSTRUCTIONS", "trial_index": 184}, "uniqueid": "MTK3672:3JPSL1DZ5T632DB126YVWDSVRPMANL", "dateTime": 1520897527406}, {"current_trial": 185, "trialdata": {"rt": [3805, 5898, 8816, 12073, 14434, 16846, 19512, 22453], "trial_type": "math-distractor", "key_times": [2125, 3049, 3805, 5688, 5898, 8041, 8603, 8816, 11379, 11784, 12073, 14008, 14273, 14434, 16622, 16846, 18615, 19229, 19512, 21770, 22251, 22453], "responses": ["14", "9", "20", "24", "24", "7", "10", "16"], "num2": [8, 6, 8, 6, 8, 2, 6, 6, 5], "num3": [5, 1, 5, 9, 8, 2, 1, 2, 8], "conditions": [12, 1600, "v", 24000], "internal_node_id": "0.0-140.0", "key_presses": [49, 52, 13, 57, 13, 50, 48, 13, 50, 52, 13, 50, 52, 13, 55, 13, 49, 48, 13, 49, 54, 13], "trial": 5, "time_elapsed": 1021452, "type": "DISTRACTOR", "trial_index": 185, "num1": [1, 2, 7, 9, 8, 3, 3, 8, 7]}, "uniqueid": "MTK3672:3JPSL1DZ5T632DB126YVWDSVRPMANL", "dateTime": 1520897553418}, {"current_trial": 186, "trialdata": {"rt": -1, "trial_type": "single-stim", "stimulus": "<p id=\"stim\">10</p>", "internal_node_id": "0.0-141.0-0.0", "time_elapsed": 1024457, "key_press": -1, "trial_index": 186}, "uniqueid": "MTK3672:3JPSL1DZ5T632DB126YVWDSVRPMANL", "dateTime": 1520897556423}, {"current_trial": 187, "trialdata": {"rt": -1, "trial_type": "single-stim", "stimulus": "<p id=\"stim\">9</p>", "internal_node_id": "0.0-141.0-1.0", "time_elapsed": 1025462, "key_press": -1, "trial_index": 187}, "uniqueid": "MTK3672:3JPSL1DZ5T632DB126YVWDSVRPMANL", "dateTime": 1520897557429}, {"current_trial": 188, "trialdata": {"rt": -1, "trial_type": "single-stim", "stimulus": "<p id=\"stim\">8</p>", "internal_node_id": "0.0-141.0-2.0", "time_elapsed": 1026465, "key_press": -1, "trial_index": 188}, "uniqueid": "MTK3672:3JPSL1DZ5T632DB126YVWDSVRPMANL", "dateTime": 1520897558432}, {"current_trial": 189, "trialdata": {"rt": -1, "trial_type": "single-stim", "stimulus": "<p id=\"stim\">7</p>", "internal_node_id": "0.0-141.0-3.0", "time_elapsed": 1027472, "key_press": -1, "trial_index": 189}, "uniqueid": "MTK3672:3JPSL1DZ5T632DB126YVWDSVRPMANL", "dateTime": 1520897559439}, {"current_trial": 190, "trialdata": {"rt": -1, "trial_type": "single-stim", "stimulus": "<p id=\"stim\">6</p>", "internal_node_id": "0.0-141.0-4.0", "time_elapsed": 1028478, "key_press": -1, "trial_index": 190}, "uniqueid": "MTK3672:3JPSL1DZ5T632DB126YVWDSVRPMANL", "dateTime": 1520897560444}, {"current_trial": 191, "trialdata": {"rt": -1, "trial_type": "single-stim", "stimulus": "<p id=\"stim\">5</p>", "internal_node_id": "0.0-141.0-5.0", "time_elapsed": 1029482, "key_press": -1, "trial_index": 191}, "uniqueid": "MTK3672:3JPSL1DZ5T632DB126YVWDSVRPMANL", "dateTime": 1520897561448}, {"current_trial": 192, "trialdata": {"rt": -1, "trial_type": "single-stim", "stimulus": "<p id=\"stim\">4</p>", "internal_node_id": "0.0-141.0-6.0", "time_elapsed": 1030485, "key_press": -1, "trial_index": 192}, "uniqueid": "MTK3672:3JPSL1DZ5T632DB126YVWDSVRPMANL", "dateTime": 1520897562452}, {"current_trial": 193, "trialdata": {"rt": -1, "trial_type": "single-stim", "stimulus": "<p id=\"stim\">3</p>", "internal_node_id": "0.0-141.0-7.0", "time_elapsed": 1031489, "key_press": -1, "trial_index": 193}, "uniqueid": "MTK3672:3JPSL1DZ5T632DB126YVWDSVRPMANL", "dateTime": 1520897563456}, {"current_trial": 194, "trialdata": {"rt": -1, "trial_type": "single-stim", "stimulus": "<p id=\"stim\">2</p>", "internal_node_id": "0.0-141.0-8.0", "time_elapsed": 1032495, "key_press": -1, "trial_index": 194}, "uniqueid": "MTK3672:3JPSL1DZ5T632DB126YVWDSVRPMANL", "dateTime": 1520897564461}, {"current_trial": 195, "trialdata": {"rt": -1, "trial_type": "single-stim", "stimulus": "<p id=\"stim\">1</p>", "internal_node_id": "0.0-141.0-9.0", "time_elapsed": 1033499, "key_press": -1, "trial_index": 195}, "uniqueid": "MTK3672:3JPSL1DZ5T632DB126YVWDSVRPMANL", "dateTime": 1520897565466}, {"current_trial": 196, "trialdata": {"rt": -1, "trial_type": "single-stim", "stimulus": "<p id=\"stim\">+</p>", "internal_node_id": "0.0-142.0-0.0", "time_elapsed": 1035004, "key_press": -1, "type": "FIXATION", "trial_index": 196}, "uniqueid": "MTK3672:3JPSL1DZ5T632DB126YVWDSVRPMANL", "dateTime": 1520897566971}, {"current_trial": 197, "trialdata": {"rt": -1, "trial_type": "single-stim", "word": "asia", "stimulus": "<p id=\"stim\">ASIA</p>", "conditions": [12, 1600, "v", 24000], "internal_node_id": "0.0-143.0", "trial": 5, "time_elapsed": 1036609, "serialpos": 0, "key_press": -1, "wordID": 45, "type": "PRES_VIS", "trial_index": 197}, "uniqueid": "MTK3672:3JPSL1DZ5T632DB126YVWDSVRPMANL", "dateTime": 1520897568575}, {"current_trial": 198, "trialdata": {"rt": -1, "trial_type": "single-stim", "word": "girl", "stimulus": "<p id=\"stim\">GIRL</p>", "conditions": [12, 1600, "v", 24000], "internal_node_id": "0.0-144.0", "trial": 5, "time_elapsed": 1039228, "serialpos": 1, "key_press": -1, "wordID": 636, "type": "PRES_VIS", "trial_index": 198}, "uniqueid": "MTK3672:3JPSL1DZ5T632DB126YVWDSVRPMANL", "dateTime": 1520897571194}, {"current_trial": 199, "trialdata": {"rt": -1, "trial_type": "single-stim", "word": "woman", "stimulus": "<p id=\"stim\">WOMAN</p>", "conditions": [12, 1600, "v", 24000], "internal_node_id": "0.0-145.0", "trial": 5, "time_elapsed": 1041731, "serialpos": 2, "key_press": -1, "wordID": 1619, "type": "PRES_VIS", "trial_index": 199}, "uniqueid": "MTK3672:3JPSL1DZ5T632DB126YVWDSVRPMANL", "dateTime": 1520897573698}, {"current_trial": 200, "trialdata": {"rt": -1, "trial_type": "single-stim", "word": "headband", "stimulus": "<p id=\"stim\">HEADBAND</p>", "conditions": [12, 1600, "v", 24000], "internal_node_id": "0.0-146.0", "trial": 5, "time_elapsed": 1044288, "serialpos": 3, "key_press": -1, "wordID": 695, "type": "PRES_VIS", "trial_index": 200}, "uniqueid": "MTK3672:3JPSL1DZ5T632DB126YVWDSVRPMANL", "dateTime": 1520897576254}, {"current_trial": 201, "trialdata": {"rt": -1, "trial_type": "single-stim", "word": "pigeon", "stimulus": "<p id=\"stim\">PIGEON</p>", "conditions": [12, 1600, "v", 24000], "internal_node_id": "0.0-147.0", "trial": 5, "time_elapsed": 1046699, "serialpos": 4, "key_press": -1, "wordID": 1064, "type": "PRES_VIS", "trial_index": 201}, "uniqueid": "MTK3672:3JPSL1DZ5T632DB126YVWDSVRPMANL", "dateTime": 1520897578665}, {"current_trial": 202, "trialdata": {"rt": -1, "trial_type": "single-stim", "word": "cattle", "stimulus": "<p id=\"stim\">CATTLE</p>", "conditions": [12, 1600, "v", 24000], "internal_node_id": "0.0-148.0", "trial": 5, "time_elapsed": 1049190, "serialpos": 5, "key_press": -1, "wordID": 260, "type": "PRES_VIS", "trial_index": 202}, "uniqueid": "MTK3672:3JPSL1DZ5T632DB126YVWDSVRPMANL", "dateTime": 1520897581157}, {"current_trial": 203, "trialdata": {"rt": -1, "trial_type": "single-stim", "word": "creature", "stimulus": "<p id=\"stim\">CREATURE</p>", "conditions": [12, 1600, "v", 24000], "internal_node_id": "0.0-149.0", "trial": 5, "time_elapsed": 1051732, "serialpos": 6, "key_press": -1, "wordID": 402, "type": "PRES_VIS", "trial_index": 203}, "uniqueid": "MTK3672:3JPSL1DZ5T632DB126YVWDSVRPMANL", "dateTime": 1520897583698}, {"current_trial": 204, "trialdata": {"rt": -1, "trial_type": "single-stim", "word": "airport", "stimulus": "<p id=\"stim\">AIRPORT</p>", "conditions": [12, 1600, "v", 24000], "internal_node_id": "0.0-150.0", "trial": 5, "time_elapsed": 1054519, "serialpos": 7, "key_press": -1, "wordID": 12, "type": "PRES_VIS", "trial_index": 204}, "uniqueid": "MTK3672:3JPSL1DZ5T632DB126YVWDSVRPMANL", "dateTime": 1520897586485}, {"current_trial": 205, "trialdata": {"rt": -1, "trial_type": "single-stim", "word": "bureau", "stimulus": "<p id=\"stim\">BUREAU</p>", "conditions": [12, 1600, "v", 24000], "internal_node_id": "0.0-151.0", "trial": 5, "time_elapsed": 1057058, "serialpos": 8, "key_press": -1, "wordID": 198, "type": "PRES_VIS", "trial_index": 205}, "uniqueid": "MTK3672:3JPSL1DZ5T632DB126YVWDSVRPMANL", "dateTime": 1520897589024}, {"current_trial": 206, "trialdata": {"rt": -1, "trial_type": "single-stim", "word": "egypt", "stimulus": "<p id=\"stim\">EGYPT</p>", "conditions": [12, 1600, "v", 24000], "internal_node_id": "0.0-152.0", "trial": 5, "time_elapsed": 1059650, "serialpos": 9, "key_press": -1, "wordID": 518, "type": "PRES_VIS", "trial_index": 206}, "uniqueid": "MTK3672:3JPSL1DZ5T632DB126YVWDSVRPMANL", "dateTime": 1520897591617}, {"current_trial": 207, "trialdata": {"rt": -1, "trial_type": "single-stim", "word": "france", "stimulus": "<p id=\"stim\">FRANCE</p>", "conditions": [12, 1600, "v", 24000], "internal_node_id": "0.0-153.0", "trial": 5, "time_elapsed": 1062327, "serialpos": 10, "key_press": -1, "wordID": 600, "type": "PRES_VIS", "trial_index": 207}, "uniqueid": "MTK3672:3JPSL1DZ5T632DB126YVWDSVRPMANL", "dateTime": 1520897594294}, {"current_trial": 208, "trialdata": {"rt": -1, "trial_type": "single-stim", "word": "fox", "stimulus": "<p id=\"stim\">FOX</p>", "conditions": [12, 1600, "v", 24000], "internal_node_id": "0.0-154.0", "trial": 5, "time_elapsed": 1064775, "serialpos": 11, "key_press": -1, "wordID": 597, "type": "PRES_VIS", "trial_index": 208}, "uniqueid": "MTK3672:3JPSL1DZ5T632DB126YVWDSVRPMANL", "dateTime": 1520897596742}, {"current_trial": 209, "trialdata": {"rt": -1, "trial_type": "single-stim", "stimulus": "", "internal_node_id": "0.0-155.0-0.0", "time_elapsed": 1066963, "key_press": -1, "type": "PRE_RECALL_DELAY", "trial_index": 209}, "uniqueid": "MTK3672:3JPSL1DZ5T632DB126YVWDSVRPMANL", "dateTime": 1520897598930}, {"current_trial": 210, "trialdata": {"rt": -1000, "trial_type": "single-audio", "stimulus": "/static/audio/400Hz.wav", "internal_node_id": "0.0-156.0", "time_elapsed": 1067465, "key_press": -1, "type": "PRE_RECALL_ALERT", "trial_index": 210}, "uniqueid": "MTK3672:3JPSL1DZ5T632DB126YVWDSVRPMANL", "dateTime": 1520897599432}, {"current_trial": 211, "trialdata": {"rt": [3704, 6175, 16248, 21000, 24706, 31383, 38486], "recwords": ["asia", "girl", "headband", "woman", "egypt", "girl", "pigeon"], "key_times": [2206, 2406, 2655, 2825, 3704, 4774, 5034, 5190, 5324, 6175, 7104, 7348, 8630, 8835, 9172, 9310, 9507, 11434, 11576, 11715, 11844, 12004, 12470, 12973, 13175, 13408, 13784, 13912, 14081, 14312, 16248, 17109, 17334, 17569, 18410, 18510, 21000, 22187, 22806, 23277, 23831, 24021, 24706, 30060, 30282, 30418, 30563, 31383, 34581, 34874, 36230, 36691, 37182, 37676, 38486], "trial_type": "free-recall", "conditions": [12, 1600, "v", 24000], "internal_node_id": "0.0-157.0-0.0", "key_presses": [65, 83, 73, 65, 13, 71, 73, 82, 76, 13, 72, 65, 69, 68, 66, 65, 78, 8, 8, 8, 8, 8, 8, 69, 65, 68, 66, 65, 78, 68, 13, 87, 79, 77, 65, 78, 13, 69, 71, 89, 80, 84, 13, 71, 73, 82, 76, 13, 80, 73, 71, 69, 79, 78, 13], "trial": 5, "time_elapsed": 1127474, "type": "FREE_RECALL", "trial_index": 211}, "uniqueid": "MTK3672:3JPSL1DZ5T632DB126YVWDSVRPMANL", "dateTime": 1520897659450}, {"current_trial": 212, "trialdata": {"rt": 1612, "trial_type": "text", "internal_node_id": "0.0-158.0", "time_elapsed": 1131101, "key_press": 13, "type": "INSTRUCTIONS", "trial_index": 212}, "uniqueid": "MTK3672:3JPSL1DZ5T632DB126YVWDSVRPMANL", "dateTime": 1520897663067}, {"current_trial": 213, "trialdata": {"rt": [3131, 5194, 7942, 10014, 12986, 15442, 18429, 20635, 22764], "trial_type": "math-distractor", "key_times": [1807, 2387, 3131, 4916, 5194, 7089, 7695, 7942, 9516, 9722, 10014, 12169, 12753, 12986, 14594, 15183, 15442, 17488, 18106, 18429, 20239, 20442, 20635, 22560, 22764], "responses": ["15", "9", "16", "12", "20", "20", "19", "12", "5"], "num2": [1, 1, 6, 6, 8, 7, 8, 7, 1, 4], "num3": [6, 6, 9, 5, 7, 7, 9, 1, 3, 5], "conditions": [24, 1600, "v", 24000], "internal_node_id": "0.0-159.0", "key_presses": [49, 53, 13, 57, 13, 49, 54, 13, 49, 50, 13, 50, 48, 13, 50, 48, 13, 49, 57, 13, 49, 50, 13, 53, 13], "trial": 6, "time_elapsed": 1157109, "type": "DISTRACTOR", "trial_index": 213, "num1": [8, 2, 1, 1, 5, 6, 2, 4, 2, 4]}, "uniqueid": "MTK3672:3JPSL1DZ5T632DB126YVWDSVRPMANL", "dateTime": 1520897689075}, {"current_trial": 214, "trialdata": {"rt": -1, "trial_type": "single-stim", "stimulus": "<p id=\"stim\">10</p>", "internal_node_id": "0.0-160.0-0.0", "time_elapsed": 1160112, "key_press": -1, "trial_index": 214}, "uniqueid": "MTK3672:3JPSL1DZ5T632DB126YVWDSVRPMANL", "dateTime": 1520897692079}, {"current_trial": 215, "trialdata": {"rt": -1, "trial_type": "single-stim", "stimulus": "<p id=\"stim\">9</p>", "internal_node_id": "0.0-160.0-1.0", "time_elapsed": 1161115, "key_press": -1, "trial_index": 215}, "uniqueid": "MTK3672:3JPSL1DZ5T632DB126YVWDSVRPMANL", "dateTime": 1520897693081}, {"current_trial": 216, "trialdata": {"rt": -1, "trial_type": "single-stim", "stimulus": "<p id=\"stim\">8</p>", "internal_node_id": "0.0-160.0-2.0", "time_elapsed": 1162117, "key_press": -1, "trial_index": 216}, "uniqueid": "MTK3672:3JPSL1DZ5T632DB126YVWDSVRPMANL", "dateTime": 1520897694083}, {"current_trial": 217, "trialdata": {"rt": -1, "trial_type": "single-stim", "stimulus": "<p id=\"stim\">7</p>", "internal_node_id": "0.0-160.0-3.0", "time_elapsed": 1163121, "key_press": -1, "trial_index": 217}, "uniqueid": "MTK3672:3JPSL1DZ5T632DB126YVWDSVRPMANL", "dateTime": 1520897695088}, {"current_trial": 218, "trialdata": {"rt": -1, "trial_type": "single-stim", "stimulus": "<p id=\"stim\">6</p>", "internal_node_id": "0.0-160.0-4.0", "time_elapsed": 1164127, "key_press": -1, "trial_index": 218}, "uniqueid": "MTK3672:3JPSL1DZ5T632DB126YVWDSVRPMANL", "dateTime": 1520897696094}, {"current_trial": 219, "trialdata": {"rt": -1, "trial_type": "single-stim", "stimulus": "<p id=\"stim\">5</p>", "internal_node_id": "0.0-160.0-5.0", "time_elapsed": 1165130, "key_press": -1, "trial_index": 219}, "uniqueid": "MTK3672:3JPSL1DZ5T632DB126YVWDSVRPMANL", "dateTime": 1520897697097}, {"current_trial": 220, "trialdata": {"rt": -1, "trial_type": "single-stim", "stimulus": "<p id=\"stim\">4</p>", "internal_node_id": "0.0-160.0-6.0", "time_elapsed": 1166133, "key_press": -1, "trial_index": 220}, "uniqueid": "MTK3672:3JPSL1DZ5T632DB126YVWDSVRPMANL", "dateTime": 1520897698099}, {"current_trial": 221, "trialdata": {"rt": -1, "trial_type": "single-stim", "stimulus": "<p id=\"stim\">3</p>", "internal_node_id": "0.0-160.0-7.0", "time_elapsed": 1167135, "key_press": -1, "trial_index": 221}, "uniqueid": "MTK3672:3JPSL1DZ5T632DB126YVWDSVRPMANL", "dateTime": 1520897699102}, {"current_trial": 222, "trialdata": {"rt": -1, "trial_type": "single-stim", "stimulus": "<p id=\"stim\">2</p>", "internal_node_id": "0.0-160.0-8.0", "time_elapsed": 1168137, "key_press": -1, "trial_index": 222}, "uniqueid": "MTK3672:3JPSL1DZ5T632DB126YVWDSVRPMANL", "dateTime": 1520897700104}, {"current_trial": 223, "trialdata": {"rt": -1, "trial_type": "single-stim", "stimulus": "<p id=\"stim\">1</p>", "internal_node_id": "0.0-160.0-9.0", "time_elapsed": 1169141, "key_press": -1, "trial_index": 223}, "uniqueid": "MTK3672:3JPSL1DZ5T632DB126YVWDSVRPMANL", "dateTime": 1520897701107}, {"current_trial": 224, "trialdata": {"rt": -1, "trial_type": "single-stim", "stimulus": "<p id=\"stim\">+</p>", "internal_node_id": "0.0-161.0-0.0", "time_elapsed": 1170644, "key_press": -1, "type": "FIXATION", "trial_index": 224}, "uniqueid": "MTK3672:3JPSL1DZ5T632DB126YVWDSVRPMANL", "dateTime": 1520897702611}, {"current_trial": 225, "trialdata": {"rt": -1, "trial_type": "single-stim", "word": "europe", "stimulus": "<p id=\"stim\">EUROPE</p>", "conditions": [24, 1600, "v", 24000], "internal_node_id": "0.0-162.0", "trial": 6, "time_elapsed": 1172249, "serialpos": 0, "key_press": -1, "wordID": 540, "type": "PRES_VIS", "trial_index": 225}, "uniqueid": "MTK3672:3JPSL1DZ5T632DB126YVWDSVRPMANL", "dateTime": 1520897704215}, {"current_trial": 226, "trialdata": {"rt": -1, "trial_type": "single-stim", "word": "wrist", "stimulus": "<p id=\"stim\">WRIST</p>", "conditions": [24, 1600, "v", 24000], "internal_node_id": "0.0-163.0", "trial": 6, "time_elapsed": 1174755, "serialpos": 1, "key_press": -1, "wordID": 1625, "type": "PRES_VIS", "trial_index": 226}, "uniqueid": "MTK3672:3JPSL1DZ5T632DB126YVWDSVRPMANL", "dateTime": 1520897706721}, {"current_trial": 227, "trialdata": {"rt": -1, "trial_type": "single-stim", "word": "marker", "stimulus": "<p id=\"stim\">MARKER</p>", "conditions": [24, 1600, "v", 24000], "internal_node_id": "0.0-164.0", "trial": 6, "time_elapsed": 1177424, "serialpos": 2, "key_press": -1, "wordID": 869, "type": "PRES_VIS", "trial_index": 227}, "uniqueid": "MTK3672:3JPSL1DZ5T632DB126YVWDSVRPMANL", "dateTime": 1520897709392}, {"current_trial": 228, "trialdata": {"rt": -1, "trial_type": "single-stim", "word": "keeper", "stimulus": "<p id=\"stim\">KEEPER</p>", "conditions": [24, 1600, "v", 24000], "internal_node_id": "0.0-165.0", "trial": 6, "time_elapsed": 1179963, "serialpos": 3, "key_press": -1, "wordID": 768, "type": "PRES_VIS", "trial_index": 228}, "uniqueid": "MTK3672:3JPSL1DZ5T632DB126YVWDSVRPMANL", "dateTime": 1520897711930}, {"current_trial": 229, "trialdata": {"rt": -1, "trial_type": "single-stim", "word": "uncle", "stimulus": "<p id=\"stim\">UNCLE</p>", "conditions": [24, 1600, "v", 24000], "internal_node_id": "0.0-166.0", "trial": 6, "time_elapsed": 1182635, "serialpos": 4, "key_press": -1, "wordID": 1535, "type": "PRES_VIS", "trial_index": 229}, "uniqueid": "MTK3672:3JPSL1DZ5T632DB126YVWDSVRPMANL", "dateTime": 1520897714601}, {"current_trial": 230, "trialdata": {"rt": -1, "trial_type": "single-stim", "word": "gazelle", "stimulus": "<p id=\"stim\">GAZELLE</p>", "conditions": [24, 1600, "v", 24000], "internal_node_id": "0.0-167.0", "trial": 6, "time_elapsed": 1185045, "serialpos": 5, "key_press": -1, "wordID": 627, "type": "PRES_VIS", "trial_index": 230}, "uniqueid": "MTK3672:3JPSL1DZ5T632DB126YVWDSVRPMANL", "dateTime": 1520897717011}, {"current_trial": 231, "trialdata": {"rt": -1, "trial_type": "single-stim", "word": "twig", "stimulus": "<p id=\"stim\">TWIG</p>", "conditions": [24, 1600, "v", 24000], "internal_node_id": "0.0-168.0", "trial": 6, "time_elapsed": 1187493, "serialpos": 6, "key_press": -1, "wordID": 1526, "type": "PRES_VIS", "trial_index": 231}, "uniqueid": "MTK3672:3JPSL1DZ5T632DB126YVWDSVRPMANL", "dateTime": 1520897719460}, {"current_trial": 232, "trialdata": {"rt": -1, "trial_type": "single-stim", "word": "college", "stimulus": "<p id=\"stim\">COLLEGE</p>", "conditions": [24, 1600, "v", 24000], "internal_node_id": "0.0-169.0", "trial": 6, "time_elapsed": 1190200, "serialpos": 7, "key_press": -1, "wordID": 345, "type": "PRES_VIS", "trial_index": 232}, "uniqueid": "MTK3672:3JPSL1DZ5T632DB126YVWDSVRPMANL", "dateTime": 1520897722166}, {"current_trial": 233, "trialdata": {"rt": -1, "trial_type": "single-stim", "word": "eagle", "stimulus": "<p id=\"stim\">EAGLE</p>", "conditions": [24, 1600, "v", 24000], "internal_node_id": "0.0-170.0", "trial": 6, "time_elapsed": 1192872, "serialpos": 8, "key_press": -1, "wordID": 511, "type": "PRES_VIS", "trial_index": 233}, "uniqueid": "MTK3672:3JPSL1DZ5T632DB126YVWDSVRPMANL", "dateTime": 1520897724841}, {"current_trial": 234, "trialdata": {"rt": -1, "trial_type": "single-stim", "word": "missile", "stimulus": "<p id=\"stim\">MISSILE</p>", "conditions": [24, 1600, "v", 24000], "internal_node_id": "0.0-171.0", "trial": 6, "time_elapsed": 1195279, "serialpos": 9, "key_press": -1, "wordID": 899, "type": "PRES_VIS", "trial_index": 234}, "uniqueid": "MTK3672:3JPSL1DZ5T632DB126YVWDSVRPMANL", "dateTime": 1520897727246}, {"current_trial": 235, "trialdata": {"rt": -1, "trial_type": "single-stim", "word": "rocket", "stimulus": "<p id=\"stim\">ROCKET</p>", "conditions": [24, 1600, "v", 24000], "internal_node_id": "0.0-172.0", "trial": 6, "time_elapsed": 1197984, "serialpos": 10, "key_press": -1, "wordID": 1201, "type": "PRES_VIS", "trial_index": 235}, "uniqueid": "MTK3672:3JPSL1DZ5T632DB126YVWDSVRPMANL", "dateTime": 1520897729951}, {"current_trial": 236, "trialdata": {"rt": -1, "trial_type": "single-stim", "word": "japan", "stimulus": "<p id=\"stim\">JAPAN</p>", "conditions": [24, 1600, "v", 24000], "internal_node_id": "0.0-173.0", "trial": 6, "time_elapsed": 1200545, "serialpos": 11, "key_press": -1, "wordID": 748, "type": "PRES_VIS", "trial_index": 236}, "uniqueid": "MTK3672:3JPSL1DZ5T632DB126YVWDSVRPMANL", "dateTime": 1520897732511}, {"current_trial": 237, "trialdata": {"rt": -1, "trial_type": "single-stim", "word": "marine", "stimulus": "<p id=\"stim\">MARINE</p>", "conditions": [24, 1600, "v", 24000], "internal_node_id": "0.0-174.0", "trial": 6, "time_elapsed": 1203241, "serialpos": 12, "key_press": -1, "wordID": 868, "type": "PRES_VIS", "trial_index": 237}, "uniqueid": "MTK3672:3JPSL1DZ5T632DB126YVWDSVRPMANL", "dateTime": 1520897735208}, {"current_trial": 238, "trialdata": {"rt": -1, "trial_type": "single-stim", "word": "sculpture", "stimulus": "<p id=\"stim\">SCULPTURE</p>", "conditions": [24, 1600, "v", 24000], "internal_node_id": "0.0-175.0", "trial": 6, "time_elapsed": 1206017, "serialpos": 13, "key_press": -1, "wordID": 1257, "type": "PRES_VIS", "trial_index": 238}, "uniqueid": "MTK3672:3JPSL1DZ5T632DB126YVWDSVRPMANL", "dateTime": 1520897737984}, {"current_trial": 239, "trialdata": {"rt": -1, "trial_type": "single-stim", "word": "whistle", "stimulus": "<p id=\"stim\">WHISTLE</p>", "conditions": [24, 1600, "v", 24000], "internal_node_id": "0.0-176.0", "trial": 6, "time_elapsed": 1208780, "serialpos": 14, "key_press": -1, "wordID": 1605, "type": "PRES_VIS", "trial_index": 239}, "uniqueid": "MTK3672:3JPSL1DZ5T632DB126YVWDSVRPMANL", "dateTime": 1520897740747}, {"current_trial": 240, "trialdata": {"rt": -1, "trial_type": "single-stim", "word": "cocoon", "stimulus": "<p id=\"stim\">COCOON</p>", "conditions": [24, 1600, "v", 24000], "internal_node_id": "0.0-177.0", "trial": 6, "time_elapsed": 1211483, "serialpos": 15, "key_press": -1, "wordID": 338, "type": "PRES_VIS", "trial_index": 240}, "uniqueid": "MTK3672:3JPSL1DZ5T632DB126YVWDSVRPMANL", "dateTime": 1520897743450}, {"current_trial": 241, "trialdata": {"rt": -1, "trial_type": "single-stim", "word": "dust", "stimulus": "<p id=\"stim\">DUST</p>", "conditions": [24, 1600, "v", 24000], "internal_node_id": "0.0-178.0", "trial": 6, "time_elapsed": 1214039, "serialpos": 16, "key_press": -1, "wordID": 507, "type": "PRES_VIS", "trial_index": 241}, "uniqueid": "MTK3672:3JPSL1DZ5T632DB126YVWDSVRPMANL", "dateTime": 1520897746005}, {"current_trial": 242, "trialdata": {"rt": -1, "trial_type": "single-stim", "word": "bathtub", "stimulus": "<p id=\"stim\">BATHTUB</p>", "conditions": [24, 1600, "v", 24000], "internal_node_id": "0.0-179.0", "trial": 6, "time_elapsed": 1216483, "serialpos": 17, "key_press": -1, "wordID": 99, "type": "PRES_VIS", "trial_index": 242}, "uniqueid": "MTK3672:3JPSL1DZ5T632DB126YVWDSVRPMANL", "dateTime": 1520897748450}, {"current_trial": 243, "trialdata": {"rt": -1, "trial_type": "single-stim", "word": "bunny", "stimulus": "<p id=\"stim\">BUNNY</p>", "conditions": [24, 1600, "v", 24000], "internal_node_id": "0.0-180.0", "trial": 6, "time_elapsed": 1219197, "serialpos": 18, "key_press": -1, "wordID": 197, "type": "PRES_VIS", "trial_index": 243}, "uniqueid": "MTK3672:3JPSL1DZ5T632DB126YVWDSVRPMANL", "dateTime": 1520897751163}, {"current_trial": 244, "trialdata": {"rt": -1, "trial_type": "single-stim", "word": "scissors", "stimulus": "<p id=\"stim\">SCISSORS</p>", "conditions": [24, 1600, "v", 24000], "internal_node_id": "0.0-181.0", "trial": 6, "time_elapsed": 1221957, "serialpos": 19, "key_press": -1, "wordID": 1249, "type": "PRES_VIS", "trial_index": 244}, "uniqueid": "MTK3672:3JPSL1DZ5T632DB126YVWDSVRPMANL", "dateTime": 1520897753924}, {"current_trial": 245, "trialdata": {"rt": -1, "trial_type": "single-stim", "word": "scalpel", "stimulus": "<p id=\"stim\">SCALPEL</p>", "conditions": [24, 1600, "v", 24000], "internal_node_id": "0.0-182.0", "trial": 6, "time_elapsed": 1224590, "serialpos": 20, "key_press": -1, "wordID": 1242, "type": "PRES_VIS", "trial_index": 245}, "uniqueid": "MTK3672:3JPSL1DZ5T632DB126YVWDSVRPMANL", "dateTime": 1520897756557}, {"current_trial": 246, "trialdata": {"rt": -1, "trial_type": "single-stim", "word": "yacht", "stimulus": "<p id=\"stim\">YACHT</p>", "conditions": [24, 1600, "v", 24000], "internal_node_id": "0.0-183.0", "trial": 6, "time_elapsed": 1227272, "serialpos": 21, "key_press": -1, "wordID": 1628, "type": "PRES_VIS", "trial_index": 246}, "uniqueid": "MTK3672:3JPSL1DZ5T632DB126YVWDSVRPMANL", "dateTime": 1520897759239}, {"current_trial": 247, "trialdata": {"rt": -1, "trial_type": "single-stim", "word": "puppy", "stimulus": "<p id=\"stim\">PUPPY</p>", "conditions": [24, 1600, "v", 24000], "internal_node_id": "0.0-184.0", "trial": 6, "time_elapsed": 1229843, "serialpos": 22, "key_press": -1, "wordID": 1143, "type": "PRES_VIS", "trial_index": 247}, "uniqueid": "MTK3672:3JPSL1DZ5T632DB126YVWDSVRPMANL", "dateTime": 1520897761810}, {"current_trial": 248, "trialdata": {"rt": -1, "trial_type": "single-stim", "word": "clam", "stimulus": "<p id=\"stim\">CLAM</p>", "conditions": [24, 1600, "v", 24000], "internal_node_id": "0.0-185.0", "trial": 6, "time_elapsed": 1232599, "serialpos": 23, "key_press": -1, "wordID": 314, "type": "PRES_VIS", "trial_index": 248}, "uniqueid": "MTK3672:3JPSL1DZ5T632DB126YVWDSVRPMANL", "dateTime": 1520897764566}, {"current_trial": 249, "trialdata": {"rt": -1, "trial_type": "single-stim", "stimulus": "", "internal_node_id": "0.0-186.0-0.0", "time_elapsed": 1234688, "key_press": -1, "type": "PRE_RECALL_DELAY", "trial_index": 249}, "uniqueid": "MTK3672:3JPSL1DZ5T632DB126YVWDSVRPMANL", "dateTime": 1520897766654}, {"current_trial": 250, "trialdata": {"rt": -1000, "trial_type": "single-audio", "stimulus": "/static/audio/400Hz.wav", "internal_node_id": "0.0-187.0", "time_elapsed": 1235191, "key_press": -1, "type": "PRE_RECALL_ALERT", "trial_index": 250}, "uniqueid": "MTK3672:3JPSL1DZ5T632DB126YVWDSVRPMANL", "dateTime": 1520897767157}, {"current_trial": 251, "trialdata": {"rt": [4335, 7085, 10258, 13955, 18439, 27320, 53541], "recwords": ["europe", "wrist", "marker", "keeper", "clam", "scissors", "puppy"], "key_times": [1646, 2210, 2758, 3042, 3218, 3391, 4335, 4819, 5104, 5496, 5764, 6202, 7085, 7675, 7859, 8344, 8813, 8979, 9282, 10258, 11016, 11563, 11723, 12023, 12283, 12557, 13955, 16207, 16539, 16846, 17222, 18439, 24281, 24568, 24906, 25285, 25423, 25678, 26235, 26726, 27320, 51439, 51760, 52442, 52565, 52759, 53541], "trial_type": "free-recall", "conditions": [24, 1600, "v", 24000], "internal_node_id": "0.0-188.0-0.0", "key_presses": [69, 85, 82, 79, 80, 69, 13, 87, 82, 73, 83, 84, 13, 77, 65, 82, 75, 69, 82, 13, 75, 69, 69, 80, 69, 82, 13, 67, 76, 65, 77, 13, 83, 67, 73, 83, 83, 79, 82, 83, 13, 80, 85, 80, 80, 89, 13], "trial": 6, "time_elapsed": 1295198, "type": "FREE_RECALL", "trial_index": 251}, "uniqueid": "MTK3672:3JPSL1DZ5T632DB126YVWDSVRPMANL", "dateTime": 1520897827176}, {"current_trial": 252, "trialdata": {"rt": 1568, "trial_type": "text", "internal_node_id": "0.0-189.0", "time_elapsed": 1298785, "key_press": 13, "type": "INSTRUCTIONS", "trial_index": 252}, "uniqueid": "MTK3672:3JPSL1DZ5T632DB126YVWDSVRPMANL", "dateTime": 1520897830751}, {"current_trial": 253, "trialdata": {"rt": [2597, 4889, 7001, 9466, 11963], "trial_type": "math-distractor", "key_times": [1491, 2065, 2597, 4162, 4633, 4889, 6785, 7001, 8780, 9216, 9466, 11138, 11726, 11963], "responses": ["16", "15", "9", "14", "18"], "num2": [8, 2, 5, 7, 7, 8], "num3": [7, 8, 1, 4, 9, 3], "conditions": [24, 800, "v", 12000], "internal_node_id": "0.0-190.0", "key_presses": [49, 54, 13, 49, 53, 13, 57, 13, 49, 52, 13, 49, 56, 13], "trial": 7, "time_elapsed": 1312795, "type": "DISTRACTOR", "trial_index": 253, "num1": [1, 5, 3, 3, 2, 4]}, "uniqueid": "MTK3672:3JPSL1DZ5T632DB126YVWDSVRPMANL", "dateTime": 1520897844761}, {"current_trial": 254, "trialdata": {"rt": -1, "trial_type": "single-stim", "stimulus": "<p id=\"stim\">10</p>", "internal_node_id": "0.0-191.0-0.0", "time_elapsed": 1315802, "key_press": -1, "trial_index": 254}, "uniqueid": "MTK3672:3JPSL1DZ5T632DB126YVWDSVRPMANL", "d