{"assignmentId": "374TNBHA8C2P1SMWY44S3T5706WQYD", "workerId": "MTK3777", "questiondata": {"origin": "United States", "strat-rehearsal": "27", "marital": "Single", "education": "Some graduate education", "ethnicity": "Not Hispanic", "color_depth": 24, "distracted": "No", "wrote-notes": "No", "strat-other": "I tried to just focus on each word as described in the instructions and not think of the other words that had come before but it wasn't a great method.", "screen_width": 1280, "avail_screen_width": 1280, "avail_screen_height": 713, "strat-image": "67", "language": "English", "gender": "Female", "age": "34", "gender_other": "", "race": ["White"], "strat-categorize": "91", "pixel_depth": 24, "strat-spatial": "31", "strat-story": "83", "race_other": "", "screen_height": 800}, "bonus": 0, "hitId": "3J9L0X0VDFTDX4CGCZ6G7HYIT8Z9W5", "counterbalance": 1038, "useragent": "Mozilla/5.0 (Macintosh; Intel Mac OS X 10_12_6) AppleWebKit/537.36 (KHTML, like Gecko) Chrome/64.0.3282.186 Safari/537.36", "eventdata": [{"eventtype": "initialized", "interval": 0, "value": null, "timestamp": 1521387027202}, {"eventtype": "window_resize", "interval": 0, "value": [1280, 726], "timestamp": 1521387027202}, {"eventtype": "focus", "interval": 1356700, "value": "off", "timestamp": 1521388383902}, {"eventtype": "focus", "interval": 5856, "value": "on", "timestamp": 1521388389758}, {"eventtype": "focus", "interval": 492682, "value": "off", "timestamp": 1521388882440}, {"eventtype": "focus", "interval": 4705, "value": "on", "timestamp": 1521388887145}, {"eventtype": "focus", "interval": 255531, "value": "off", "timestamp": 1521389142676}, {"eventtype": "focus", "interval": 1968, "value": "on", "timestamp": 1521389144644}, {"eventtype": "focus", "interval": 167134, "value": "off", "timestamp": 1521389311778}, {"eventtype": "focus", "interval": 2395, "value": "on", "timestamp": 1521389314173}, {"eventtype": "focus", "interval": 153137, "value": "off", "timestamp": 1521389467310}, {"eventtype": "focus", "interval": 4098, "value": "on", "timestamp": 1521389471408}], "data": [{"current_trial": 0, "trialdata": {"rt": 2378, "trial_type": "text", "internal_node_id": "0.0-0.0", "time_elapsed": 2380, "key_press": 32, "type": "INSTRUCTIONS", "trial_index": 0}, "uniqueid": "MTK3777:374TNBHA8C2P1SMWY44S3T5706WQYD", "dateTime": 1521387039958}, {"current_trial": 1, "trialdata": {"rt": 20911, "trial_type": "text", "internal_node_id": "0.0-1.0", "time_elapsed": 23293, "key_press": 32, "type": "INSTRUCTIONS", "trial_index": 1}, "uniqueid": "MTK3777:374TNBHA8C2P1SMWY44S3T5706WQYD", "dateTime": 1521387060871}, {"current_trial": 2, "trialdata": {"rt": [6171], "trial_type": "audio-test", "responses": ["ocean"], "internal_node_id": "0.0-2.0", "time_elapsed": 29481, "type": "AUDIO_TEST", "trial_index": 2}, "uniqueid": "MTK3777:374TNBHA8C2P1SMWY44S3T5706WQYD", "dateTime": 1521387067058}, {"current_trial": 3, "trialdata": {"rt": [5779], "trial_type": "audio-test", "responses": ["crystal"], "internal_node_id": "0.0-3.0", "time_elapsed": 35265, "type": "AUDIO_TEST", "trial_index": 3}, "uniqueid": "MTK3777:374TNBHA8C2P1SMWY44S3T5706WQYD", "dateTime": 1521387072842}, {"current_trial": 4, "trialdata": {"rt": [5497], "trial_type": "audio-test", "responses": ["spice"], "internal_node_id": "0.0-4.0", "time_elapsed": 40765, "type": "AUDIO_TEST", "trial_index": 4}, "uniqueid": "MTK3777:374TNBHA8C2P1SMWY44S3T5706WQYD", "dateTime": 1521387078343}, {"current_trial": 5, "trialdata": {"rt": 18106, "trial_type": "survey-text", "responses": "{\"Q0\":\"2am\",\"Q1\":\"9:30am\",\"Q2\":\"5\"}", "internal_node_id": "0.0-5.0", "time_elapsed": 59627, "type": "SLEEP_SURVEY", "trial_index": 5}, "uniqueid": "MTK3777:374TNBHA8C2P1SMWY44S3T5706WQYD", "dateTime": 1521387097204}, {"current_trial": 6, "trialdata": {"rt": 88067, "trial_type": "text", "internal_node_id": "0.0-6.0", "time_elapsed": 148700, "key_press": 32, "type": "INSTRUCTIONS", "trial_index": 6}, "uniqueid": "MTK3777:374TNBHA8C2P1SMWY44S3T5706WQYD", "dateTime": 1521387186277}, {"current_trial": 7, "trialdata": {"rt": 17596, "trial_type": "text", "internal_node_id": "0.0-7.0", "time_elapsed": 166801, "key_press": 32, "type": "INSTRUCTIONS", "trial_index": 7}, "uniqueid": "MTK3777:374TNBHA8C2P1SMWY44S3T5706WQYD", "dateTime": 1521387204379}, {"current_trial": 8, "trialdata": {"rt": 13075, "trial_type": "text", "internal_node_id": "0.0-8.0", "time_elapsed": 180380, "key_press": 32, "type": "INSTRUCTIONS", "trial_index": 8}, "uniqueid": "MTK3777:374TNBHA8C2P1SMWY44S3T5706WQYD", "dateTime": 1521387217957}, {"current_trial": 9, "trialdata": {"rt": [5423, 9147, 12252, 15480, 17663], "trial_type": "math-distractor", "key_times": [3185, 3386, 5423, 8336, 8493, 9147, 11790, 11948, 12252, 14906, 15289, 15480, 17123, 17347, 17663], "responses": ["11", "16", "19", "16", "18"], "num2": [8, 8, 7, 5, 8, 1], "num3": [1, 7, 7, 4, 2, 1], "conditions": [18, 1200, "a", 18000], "internal_node_id": "0.0-9.0", "key_presses": [49, 49, 13, 49, 54, 13, 49, 57, 13, 49, 54, 13, 49, 56, 13], "trial": 0, "time_elapsed": 199396, "type": "DISTRACTOR", "trial_index": 9, "num1": [2, 1, 5, 7, 8, 3]}, "uniqueid": "MTK3777:374TNBHA8C2P1SMWY44S3T5706WQYD", "dateTime": 1521387236973}, {"current_trial": 10, "trialdata": {"rt": -1, "trial_type": "single-stim", "stimulus": "<p id=\"stim\">10</p>", "internal_node_id": "0.0-10.0-0.0", "time_elapsed": 202402, "key_press": -1, "trial_index": 10}, "uniqueid": "MTK3777:374TNBHA8C2P1SMWY44S3T5706WQYD", "dateTime": 1521387239979}, {"current_trial": 11, "trialdata": {"rt": -1, "trial_type": "single-stim", "stimulus": "<p id=\"stim\">9</p>", "internal_node_id": "0.0-10.0-1.0", "time_elapsed": 203407, "key_press": -1, "trial_index": 11}, "uniqueid": "MTK3777:374TNBHA8C2P1SMWY44S3T5706WQYD", "dateTime": 1521387240984}, {"current_trial": 12, "trialdata": {"rt": -1, "trial_type": "single-stim", "stimulus": "<p id=\"stim\">8</p>", "internal_node_id": "0.0-10.0-2.0", "time_elapsed": 204410, "key_press": -1, "trial_index": 12}, "uniqueid": "MTK3777:374TNBHA8C2P1SMWY44S3T5706WQYD", "dateTime": 1521387241987}, {"current_trial": 13, "trialdata": {"rt": -1, "trial_type": "single-stim", "stimulus": "<p id=\"stim\">7</p>", "internal_node_id": "0.0-10.0-3.0", "time_elapsed": 205415, "key_press": -1, "trial_index": 13}, "uniqueid": "MTK3777:374TNBHA8C2P1SMWY44S3T5706WQYD", "dateTime": 1521387242992}, {"current_trial": 14, "trialdata": {"rt": -1, "trial_type": "single-stim", "stimulus": "<p id=\"stim\">6</p>", "internal_node_id": "0.0-10.0-4.0", "time_elapsed": 206420, "key_press": -1, "trial_index": 14}, "uniqueid": "MTK3777:374TNBHA8C2P1SMWY44S3T5706WQYD", "dateTime": 1521387243997}, {"current_trial": 15, "trialdata": {"rt": -1, "trial_type": "single-stim", "stimulus": "<p id=\"stim\">5</p>", "internal_node_id": "0.0-10.0-5.0", "time_elapsed": 207423, "key_press": -1, "trial_index": 15}, "uniqueid": "MTK3777:374TNBHA8C2P1SMWY44S3T5706WQYD", "dateTime": 1521387245000}, {"current_trial": 16, "trialdata": {"rt": -1, "trial_type": "single-stim", "stimulus": "<p id=\"stim\">4</p>", "internal_node_id": "0.0-10.0-6.0", "time_elapsed": 208426, "key_press": -1, "trial_index": 16}, "uniqueid": "MTK3777:374TNBHA8C2P1SMWY44S3T5706WQYD", "dateTime": 1521387246004}, {"current_trial": 17, "trialdata": {"rt": -1, "trial_type": "single-stim", "stimulus": "<p id=\"stim\">3</p>", "internal_node_id": "0.0-10.0-7.0", "time_elapsed": 209432, "key_press": -1, "trial_index": 17}, "uniqueid": "MTK3777:374TNBHA8C2P1SMWY44S3T5706WQYD", "dateTime": 1521387247009}, {"current_trial": 18, "trialdata": {"rt": -1, "trial_type": "single-stim", "stimulus": "<p id=\"stim\">2</p>", "internal_node_id": "0.0-10.0-8.0", "time_elapsed": 210435, "key_press": -1, "trial_index": 18}, "uniqueid": "MTK3777:374TNBHA8C2P1SMWY44S3T5706WQYD", "dateTime": 1521387248012}, {"current_trial": 19, "trialdata": {"rt": -1, "trial_type": "single-stim", "stimulus": "<p id=\"stim\">1</p>", "internal_node_id": "0.0-10.0-9.0", "time_elapsed": 211438, "key_press": -1, "trial_index": 19}, "uniqueid": "MTK3777:374TNBHA8C2P1SMWY44S3T5706WQYD", "dateTime": 1521387249016}, {"current_trial": 20, "trialdata": {"rt": -1, "trial_type": "single-stim", "stimulus": "<p id=\"stim\">+</p>", "internal_node_id": "0.0-11.0-0.0", "time_elapsed": 212942, "key_press": -1, "type": "FIXATION", "trial_index": 20}, "uniqueid": "MTK3777:374TNBHA8C2P1SMWY44S3T5706WQYD", "dateTime": 1521387250519}, {"current_trial": 21, "trialdata": {"rt": -1000, "trial_type": "single-audio", "word": "river", "stimulus": "/static/audio/wordpool/RIVER.wav", "conditions": [18, 1200, "a", 18000], "internal_node_id": "0.0-12.0", "trial": 0, "time_elapsed": 215140, "serialpos": 0, "key_press": -1, "wordID": 1193, "type": "PRES_AUD", "trial_index": 21}, "uniqueid": "MTK3777:374TNBHA8C2P1SMWY44S3T5706WQYD", "dateTime": 1521387252717}, {"current_trial": 22, "trialdata": {"rt": -1000, "trial_type": "single-audio", "word": "slime", "stimulus": "/static/audio/wordpool/SLIME.wav", "conditions": [18, 1200, "a", 18000], "internal_node_id": "0.0-13.0", "trial": 0, "time_elapsed": 217219, "serialpos": 1, "key_press": -1, "wordID": 1326, "type": "PRES_AUD", "trial_index": 22}, "uniqueid": "MTK3777:374TNBHA8C2P1SMWY44S3T5706WQYD", "dateTime": 1521387254796}, {"current_trial": 23, "trialdata": {"rt": -1000, "trial_type": "single-audio", "word": "wardrobe", "stimulus": "/static/audio/wordpool/WARDROBE.wav", "conditions": [18, 1200, "a", 18000], "internal_node_id": "0.0-14.0", "trial": 0, "time_elapsed": 219367, "serialpos": 2, "key_press": -1, "wordID": 1586, "type": "PRES_AUD", "trial_index": 23}, "uniqueid": "MTK3777:374TNBHA8C2P1SMWY44S3T5706WQYD", "dateTime": 1521387256944}, {"current_trial": 24, "trialdata": {"rt": -1000, "trial_type": "single-audio", "word": "hook", "stimulus": "/static/audio/wordpool/HOOK.wav", "conditions": [18, 1200, "a", 18000], "internal_node_id": "0.0-15.0", "trial": 0, "time_elapsed": 221557, "serialpos": 3, "key_press": -1, "wordID": 714, "type": "PRES_AUD", "trial_index": 24}, "uniqueid": "MTK3777:374TNBHA8C2P1SMWY44S3T5706WQYD", "dateTime": 1521387259134}, {"current_trial": 25, "trialdata": {"rt": -1000, "trial_type": "single-audio", "word": "pigeon", "stimulus": "/static/audio/wordpool/PIGEON.wav", "conditions": [18, 1200, "a", 18000], "internal_node_id": "0.0-16.0", "trial": 0, "time_elapsed": 223789, "serialpos": 4, "key_press": -1, "wordID": 1064, "type": "PRES_AUD", "trial_index": 25}, "uniqueid": "MTK3777:374TNBHA8C2P1SMWY44S3T5706WQYD", "dateTime": 1521387261366}, {"current_trial": 26, "trialdata": {"rt": -1000, "trial_type": "single-audio", "word": "nomad", "stimulus": "/static/audio/wordpool/NOMAD.wav", "conditions": [18, 1200, "a", 18000], "internal_node_id": "0.0-17.0", "trial": 0, "time_elapsed": 225989, "serialpos": 5, "key_press": -1, "wordID": 954, "type": "PRES_AUD", "trial_index": 26}, "uniqueid": "MTK3777:374TNBHA8C2P1SMWY44S3T5706WQYD", "dateTime": 1521387263566}, {"current_trial": 27, "trialdata": {"rt": -1000, "trial_type": "single-audio", "word": "stomach", "stimulus": "/static/audio/wordpool/STOMACH.wav", "conditions": [18, 1200, "a", 18000], "internal_node_id": "0.0-18.0", "trial": 0, "time_elapsed": 228195, "serialpos": 6, "key_press": -1, "wordID": 1383, "type": "PRES_AUD", "trial_index": 27}, "uniqueid": "MTK3777:374TNBHA8C2P1SMWY44S3T5706WQYD", "dateTime": 1521387265772}, {"current_trial": 28, "trialdata": {"rt": -1000, "trial_type": "single-audio", "word": "cloud", "stimulus": "/static/audio/wordpool/CLOUD.wav", "conditions": [18, 1200, "a", 18000], "internal_node_id": "0.0-19.0", "trial": 0, "time_elapsed": 230593, "serialpos": 7, "key_press": -1, "wordID": 327, "type": "PRES_AUD", "trial_index": 28}, "uniqueid": "MTK3777:374TNBHA8C2P1SMWY44S3T5706WQYD", "dateTime": 1521387268170}, {"current_trial": 29, "trialdata": {"rt": -1000, "trial_type": "single-audio", "word": "tile", "stimulus": "/static/audio/wordpool/TILE.wav", "conditions": [18, 1200, "a", 18000], "internal_node_id": "0.0-20.0", "trial": 0, "time_elapsed": 232600, "serialpos": 8, "key_press": -1, "wordID": 1467, "type": "PRES_AUD", "trial_index": 29}, "uniqueid": "MTK3777:374TNBHA8C2P1SMWY44S3T5706WQYD", "dateTime": 1521387270177}, {"current_trial": 30, "trialdata": {"rt": -1000, "trial_type": "single-audio", "word": "rabbit", "stimulus": "/static/audio/wordpool/RABBIT.wav", "conditions": [18, 1200, "a", 18000], "internal_node_id": "0.0-21.0", "trial": 0, "time_elapsed": 234771, "serialpos": 9, "key_press": -1, "wordID": 1151, "type": "PRES_AUD", "trial_index": 30}, "uniqueid": "MTK3777:374TNBHA8C2P1SMWY44S3T5706WQYD", "dateTime": 1521387272348}, {"current_trial": 31, "trialdata": {"rt": -1000, "trial_type": "single-audio", "word": "cobra", "stimulus": "/static/audio/wordpool/COBRA.wav", "conditions": [18, 1200, "a", 18000], "internal_node_id": "0.0-22.0", "trial": 0, "time_elapsed": 237059, "serialpos": 10, "key_press": -1, "wordID": 335, "type": "PRES_AUD", "trial_index": 31}, "uniqueid": "MTK3777:374TNBHA8C2P1SMWY44S3T5706WQYD", "dateTime": 1521387274636}, {"current_trial": 32, "trialdata": {"rt": -1000, "trial_type": "single-audio", "word": "seagull", "stimulus": "/static/audio/wordpool/SEAGULL.wav", "conditions": [18, 1200, "a", 18000], "internal_node_id": "0.0-23.0", "trial": 0, "time_elapsed": 239197, "serialpos": 11, "key_press": -1, "wordID": 1260, "type": "PRES_AUD", "trial_index": 32}, "uniqueid": "MTK3777:374TNBHA8C2P1SMWY44S3T5706WQYD", "dateTime": 1521387276774}, {"current_trial": 33, "trialdata": {"rt": -1000, "trial_type": "single-audio", "word": "item", "stimulus": "/static/audio/wordpool/ITEM.wav", "conditions": [18, 1200, "a", 18000], "internal_node_id": "0.0-24.0", "trial": 0, "time_elapsed": 241365, "serialpos": 12, "key_press": -1, "wordID": 745, "type": "PRES_AUD", "trial_index": 33}, "uniqueid": "MTK3777:374TNBHA8C2P1SMWY44S3T5706WQYD", "dateTime": 1521387278943}, {"current_trial": 34, "trialdata": {"rt": -1000, "trial_type": "single-audio", "word": "record", "stimulus": "/static/audio/wordpool/RECORD.wav", "conditions": [18, 1200, "a", 18000], "internal_node_id": "0.0-25.0", "trial": 0, "time_elapsed": 243523, "serialpos": 13, "key_press": -1, "wordID": 1175, "type": "PRES_AUD", "trial_index": 34}, "uniqueid": "MTK3777:374TNBHA8C2P1SMWY44S3T5706WQYD", "dateTime": 1521387281100}, {"current_trial": 35, "trialdata": {"rt": -1000, "trial_type": "single-audio", "word": "friend", "stimulus": "/static/audio/wordpool/FRIEND.wav", "conditions": [18, 1200, "a", 18000], "internal_node_id": "0.0-26.0", "trial": 0, "time_elapsed": 245630, "serialpos": 14, "key_press": -1, "wordID": 605, "type": "PRES_AUD", "trial_index": 35}, "uniqueid": "MTK3777:374TNBHA8C2P1SMWY44S3T5706WQYD", "dateTime": 1521387283207}, {"current_trial": 36, "trialdata": {"rt": -1000, "trial_type": "single-audio", "word": "treat", "stimulus": "/static/audio/wordpool/TREAT.wav", "conditions": [18, 1200, "a", 18000], "internal_node_id": "0.0-27.0", "trial": 0, "time_elapsed": 248028, "serialpos": 15, "key_press": -1, "wordID": 1500, "type": "PRES_AUD", "trial_index": 36}, "uniqueid": "MTK3777:374TNBHA8C2P1SMWY44S3T5706WQYD", "dateTime": 1521387285605}, {"current_trial": 37, "trialdata": {"rt": -1000, "trial_type": "single-audio", "word": "marrow", "stimulus": "/static/audio/wordpool/MARROW.wav", "conditions": [18, 1200, "a", 18000], "internal_node_id": "0.0-28.0", "trial": 0, "time_elapsed": 250076, "serialpos": 16, "key_press": -1, "wordID": 871, "type": "PRES_AUD", "trial_index": 37}, "uniqueid": "MTK3777:374TNBHA8C2P1SMWY44S3T5706WQYD", "dateTime": 1521387287653}, {"current_trial": 38, "trialdata": {"rt": -1000, "trial_type": "single-audio", "word": "headband", "stimulus": "/static/audio/wordpool/HEADBAND.wav", "conditions": [18, 1200, "a", 18000], "internal_node_id": "0.0-29.0", "trial": 0, "time_elapsed": 252282, "serialpos": 17, "key_press": -1, "wordID": 695, "type": "PRES_AUD", "trial_index": 38}, "uniqueid": "MTK3777:374TNBHA8C2P1SMWY44S3T5706WQYD", "dateTime": 1521387289859}, {"current_trial": 39, "trialdata": {"rt": -1, "trial_type": "single-stim", "stimulus": "", "internal_node_id": "0.0-30.0-0.0", "time_elapsed": 253487, "key_press": -1, "type": "PRE_RECALL_DELAY", "trial_index": 39}, "uniqueid": "MTK3777:374TNBHA8C2P1SMWY44S3T5706WQYD", "dateTime": 1521387291064}, {"current_trial": 40, "trialdata": {"rt": -1000, "trial_type": "single-audio", "stimulus": "/static/audio/400Hz.wav", "internal_node_id": "0.0-31.0", "time_elapsed": 253988, "key_press": -1, "type": "PRE_RECALL_ALERT", "trial_index": 40}, "uniqueid": "MTK3777:374TNBHA8C2P1SMWY44S3T5706WQYD", "dateTime": 1521387291565}, {"current_trial": 41, "trialdata": {"rt": [1405, 2519, 4309, 5623, 7166, 8234, 9538, 11778, 14680, 16413, 25030, 33435, 47690, 48859, 58298], "recwords": ["river", "cloud", "wardrobe", "river", "headband", "marrow", "friend", "sweet", "wardrobe", "river", "friend", "marrow", "sweet", "treat", "stream"], "key_times": [574, 708, 876, 1101, 1168, 1405, 1901, 1956, 2192, 2282, 2407, 2519, 2789, 2935, 3025, 3352, 3588, 3767, 3926, 4117, 4309, 4432, 4938, 5096, 5354, 5453, 5623, 5895, 5964, 5995, 6142, 6378, 6468, 6629, 6715, 7166, 7491, 7615, 7637, 7807, 7941, 8043, 8234, 8370, 8560, 8707, 8785, 8954, 9078, 9538, 9944, 10135, 10349, 10586, 10686, 11778, 13006, 13060, 13139, 13398, 13634, 13769, 13949, 14174, 14680, 14815, 14973, 15154, 15401, 15491, 16413, 24243, 24423, 24547, 24682, 24783, 24907, 25030, 32605, 32700, 32737, 32894, 32997, 33098, 33435, 46625, 46801, 47014, 47295, 47498, 47690, 48251, 48453, 48511, 48646, 48712, 48859, 57331, 57577, 57770, 57837, 57905, 58039, 58298], "trial_type": "free-recall", "conditions": [18, 1200, "a", 18000], "internal_node_id": "0.0-32.0-0.0", "key_presses": [82, 73, 86, 69, 82, 32, 67, 76, 79, 85, 68, 32, 87, 65, 82, 68, 82, 79, 66, 69, 32, 82, 73, 86, 69, 82, 32, 72, 69, 65, 68, 66, 65, 78, 68, 32, 77, 65, 82, 82, 79, 87, 32, 70, 82, 73, 69, 78, 68, 32, 83, 87, 69, 69, 84, 32, 87, 65, 82, 68, 82, 79, 66, 69, 32, 82, 73, 86, 69, 82, 32, 70, 82, 73, 69, 78, 68, 32, 77, 65, 82, 82, 79, 87, 32, 83, 87, 69, 69, 84, 13, 84, 82, 69, 65, 84, 13, 83, 84, 82, 69, 65, 77, 13], "trial": 0, "time_elapsed": 313997, "type": "FREE_RECALL", "trial_index": 41}, "uniqueid": "MTK3777:374TNBHA8C2P1SMWY44S3T5706WQYD", "dateTime": 1521387351575}, {"current_trial": 42, "trialdata": {"rt": 1775, "trial_type": "text", "internal_node_id": "0.0-33.0", "time_elapsed": 317778, "key_press": 32, "type": "INSTRUCTIONS", "trial_index": 42}, "uniqueid": "MTK3777:374TNBHA8C2P1SMWY44S3T5706WQYD", "dateTime": 1521387355355}, {"current_trial": 43, "trialdata": {"rt": [3855, 9040, 13328, 15488, 17737], "trial_type": "math-distractor", "key_times": [3328, 3494, 3855, 8828, 8894, 9040, 12978, 13181, 13328, 15297, 15353, 15488, 17244, 17435, 17737], "responses": ["23", "21", "24", "12", "18"], "num2": [7, 5, 9, 3, 6, 7], "num3": [7, 8, 6, 6, 8, 1], "conditions": [18, 1200, "a", 18000], "internal_node_id": "0.0-34.0", "key_presses": [50, 51, 13, 50, 49, 13, 50, 52, 13, 49, 50, 13, 49, 56, 13], "trial": 1, "time_elapsed": 337791, "type": "DISTRACTOR", "trial_index": 43, "num1": [9, 8, 9, 3, 4, 7]}, "uniqueid": "MTK3777:374TNBHA8C2P1SMWY44S3T5706WQYD", "dateTime": 1521387375368}, {"current_trial": 44, "trialdata": {"rt": -1, "trial_type": "single-stim", "stimulus": "<p id=\"stim\">10</p>", "internal_node_id": "0.0-35.0-0.0", "time_elapsed": 340800, "key_press": -1, "trial_index": 44}, "uniqueid": "MTK3777:374TNBHA8C2P1SMWY44S3T5706WQYD", "dateTime": 1521387378377}, {"current_trial": 45, "trialdata": {"rt": -1, "trial_type": "single-stim", "stimulus": "<p id=\"stim\">9</p>", "internal_node_id": "0.0-35.0-1.0", "time_elapsed": 341804, "key_press": -1, "trial_index": 45}, "uniqueid": "MTK3777:374TNBHA8C2P1SMWY44S3T5706WQYD", "dateTime": 1521387379381}, {"current_trial": 46, "trialdata": {"rt": -1, "trial_type": "single-stim", "stimulus": "<p id=\"stim\">8</p>", "internal_node_id": "0.0-35.0-2.0", "time_elapsed": 342808, "key_press": -1, "trial_index": 46}, "uniqueid": "MTK3777:374TNBHA8C2P1SMWY44S3T5706WQYD", "dateTime": 1521387380385}, {"current_trial": 47, "trialdata": {"rt": -1, "trial_type": "single-stim", "stimulus": "<p id=\"stim\">7</p>", "internal_node_id": "0.0-35.0-3.0", "time_elapsed": 343812, "key_press": -1, "trial_index": 47}, "uniqueid": "MTK3777:374TNBHA8C2P1SMWY44S3T5706WQYD", "dateTime": 1521387381389}, {"current_trial": 48, "trialdata": {"rt": -1, "trial_type": "single-stim", "stimulus": "<p id=\"stim\">6</p>", "internal_node_id": "0.0-35.0-4.0", "time_elapsed": 344817, "key_press": -1, "trial_index": 48}, "uniqueid": "MTK3777:374TNBHA8C2P1SMWY44S3T5706WQYD", "dateTime": 1521387382394}, {"current_trial": 49, "trialdata": {"rt": -1, "trial_type": "single-stim", "stimulus": "<p id=\"stim\">5</p>", "internal_node_id": "0.0-35.0-5.0", "time_elapsed": 345821, "key_press": -1, "trial_index": 49}, "uniqueid": "MTK3777:374TNBHA8C2P1SMWY44S3T5706WQYD", "dateTime": 1521387383399}, {"current_trial": 50, "trialdata": {"rt": -1, "trial_type": "single-stim", "stimulus": "<p id=\"stim\">4</p>", "internal_node_id": "0.0-35.0-6.0", "time_elapsed": 346825, "key_press": -1, "trial_index": 50}, "uniqueid": "MTK3777:374TNBHA8C2P1SMWY44S3T5706WQYD", "dateTime": 1521387384402}, {"current_trial": 51, "trialdata": {"rt": -1, "trial_type": "single-stim", "stimulus": "<p id=\"stim\">3</p>", "internal_node_id": "0.0-35.0-7.0", "time_elapsed": 347828, "key_press": -1, "trial_index": 51}, "uniqueid": "MTK3777:374TNBHA8C2P1SMWY44S3T5706WQYD", "dateTime": 1521387385406}, {"current_trial": 52, "trialdata": {"rt": -1, "trial_type": "single-stim", "stimulus": "<p id=\"stim\">2</p>", "internal_node_id": "0.0-35.0-8.0", "time_elapsed": 348833, "key_press": -1, "trial_index": 52}, "uniqueid": "MTK3777:374TNBHA8C2P1SMWY44S3T5706WQYD", "dateTime": 1521387386410}, {"current_trial": 53, "trialdata": {"rt": -1, "trial_type": "single-stim", "stimulus": "<p id=\"stim\">1</p>", "internal_node_id": "0.0-35.0-9.0", "time_elapsed": 349837, "key_press": -1, "trial_index": 53}, "uniqueid": "MTK3777:374TNBHA8C2P1SMWY44S3T5706WQYD", "dateTime": 1521387387415}, {"current_trial": 54, "trialdata": {"rt": -1, "trial_type": "single-stim", "stimulus": "<p id=\"stim\">+</p>", "internal_node_id": "0.0-36.0-0.0", "time_elapsed": 351343, "key_press": -1, "type": "FIXATION", "trial_index": 54}, "uniqueid": "MTK3777:374TNBHA8C2P1SMWY44S3T5706WQYD", "dateTime": 1521387388920}, {"current_trial": 55, "trialdata": {"rt": -1000, "trial_type": "single-audio", "word": "viking", "stimulus": "/static/audio/wordpool/VIKING.wav", "conditions": [18, 1200, "a", 18000], "internal_node_id": "0.0-37.0", "trial": 1, "time_elapsed": 353746, "serialpos": 0, "key_press": -1, "wordID": 1564, "type": "PRES_AUD", "trial_index": 55}, "uniqueid": "MTK3777:374TNBHA8C2P1SMWY44S3T5706WQYD", "dateTime": 1521387391323}, {"current_trial": 56, "trialdata": {"rt": -1000, "trial_type": "single-audio", "word": "france", "stimulus": "/static/audio/wordpool/FRANCE.wav", "conditions": [18, 1200, "a", 18000], "internal_node_id": "0.0-38.0", "trial": 1, "time_elapsed": 356040, "serialpos": 1, "key_press": -1, "wordID": 600, "type": "PRES_AUD", "trial_index": 56}, "uniqueid": "MTK3777:374TNBHA8C2P1SMWY44S3T5706WQYD", "dateTime": 1521387393617}, {"current_trial": 57, "trialdata": {"rt": -1000, "trial_type": "single-audio", "word": "swimmer", "stimulus": "/static/audio/wordpool/SWIMMER.wav", "conditions": [18, 1200, "a", 18000], "internal_node_id": "0.0-39.0", "trial": 1, "time_elapsed": 358109, "serialpos": 2, "key_press": -1, "wordID": 1419, "type": "PRES_AUD", "trial_index": 57}, "uniqueid": "MTK3777:374TNBHA8C2P1SMWY44S3T5706WQYD", "dateTime": 1521387395686}, {"current_trial": 58, "trialdata": {"rt": -1000, "trial_type": "single-audio", "word": "fox", "stimulus": "/static/audio/wordpool/FOX.wav", "conditions": [18, 1200, "a", 18000], "internal_node_id": "0.0-40.0", "trial": 1, "time_elapsed": 360467, "serialpos": 3, "key_press": -1, "wordID": 597, "type": "PRES_AUD", "trial_index": 58}, "uniqueid": "MTK3777:374TNBHA8C2P1SMWY44S3T5706WQYD", "dateTime": 1521387398044}, {"current_trial": 59, "trialdata": {"rt": -1000, "trial_type": "single-audio", "word": "female", "stimulus": "/static/audio/wordpool/FEMALE.wav", "conditions": [18, 1200, "a", 18000], "internal_node_id": "0.0-41.0", "trial": 1, "time_elapsed": 362616, "serialpos": 4, "key_press": -1, "wordID": 558, "type": "PRES_AUD", "trial_index": 59}, "uniqueid": "MTK3777:374TNBHA8C2P1SMWY44S3T5706WQYD", "dateTime": 1521387400193}, {"current_trial": 60, "trialdata": {"rt": -1000, "trial_type": "single-audio", "word": "stallion", "stimulus": "/static/audio/wordpool/STALLION.wav", "conditions": [18, 1200, "a", 18000], "internal_node_id": "0.0-42.0", "trial": 1, "time_elapsed": 364736, "serialpos": 5, "key_press": -1, "wordID": 1368, "type": "PRES_AUD", "trial_index": 60}, "uniqueid": "MTK3777:374TNBHA8C2P1SMWY44S3T5706WQYD", "dateTime": 1521387402314}, {"current_trial": 61, "trialdata": {"rt": -1000, "trial_type": "single-audio", "word": "buggy", "stimulus": "/static/audio/wordpool/BUGGY.wav", "conditions": [18, 1200, "a", 18000], "internal_node_id": "0.0-43.0", "trial": 1, "time_elapsed": 366980, "serialpos": 6, "key_press": -1, "wordID": 187, "type": "PRES_AUD", "trial_index": 61}, "uniqueid": "MTK3777:374TNBHA8C2P1SMWY44S3T5706WQYD", "dateTime": 1521387404557}, {"current_trial": 62, "trialdata": {"rt": -1000, "trial_type": "single-audio", "word": "basement", "stimulus": "/static/audio/wordpool/BASEMENT.wav", "conditions": [18, 1200, "a", 18000], "internal_node_id": "0.0-44.0", "trial": 1, "time_elapsed": 369221, "serialpos": 7, "key_press": -1, "wordID": 93, "type": "PRES_AUD", "trial_index": 62}, "uniqueid": "MTK3777:374TNBHA8C2P1SMWY44S3T5706WQYD", "dateTime": 1521387406798}, {"current_trial": 63, "trialdata": {"rt": -1000, "trial_type": "single-audio", "word": "relish", "stimulus": "/static/audio/wordpool/RELISH.wav", "conditions": [18, 1200, "a", 18000], "internal_node_id": "0.0-45.0", "trial": 1, "time_elapsed": 371542, "serialpos": 8, "key_press": -1, "wordID": 1182, "type": "PRES_AUD", "trial_index": 63}, "uniqueid": "MTK3777:374TNBHA8C2P1SMWY44S3T5706WQYD", "dateTime": 1521387409119}, {"current_trial": 64, "trialdata": {"rt": -1000, "trial_type": "single-audio", "word": "loft", "stimulus": "/static/audio/wordpool/LOFT.wav", "conditions": [18, 1200, "a", 18000], "internal_node_id": "0.0-46.0", "trial": 1, "time_elapsed": 373684, "serialpos": 9, "key_press": -1, "wordID": 839, "type": "PRES_AUD", "trial_index": 64}, "uniqueid": "MTK3777:374TNBHA8C2P1SMWY44S3T5706WQYD", "dateTime": 1521387411261}, {"current_trial": 65, "trialdata": {"rt": -1000, "trial_type": "single-audio", "word": "sunset", "stimulus": "/static/audio/wordpool/SUNSET.wav", "conditions": [18, 1200, "a", 18000], "internal_node_id": "0.0-47.0", "trial": 1, "time_elapsed": 375753, "serialpos": 10, "key_press": -1, "wordID": 1407, "type": "PRES_AUD", "trial_index": 65}, "uniqueid": "MTK3777:374TNBHA8C2P1SMWY44S3T5706WQYD", "dateTime": 1521387413330}, {"current_trial": 66, "trialdata": {"rt": -1000, "trial_type": "single-audio", "word": "switch", "stimulus": "/static/audio/wordpool/SWITCH.wav", "conditions": [18, 1200, "a", 18000], "internal_node_id": "0.0-48.0", "trial": 1, "time_elapsed": 378047, "serialpos": 11, "key_press": -1, "wordID": 1421, "type": "PRES_AUD", "trial_index": 66}, "uniqueid": "MTK3777:374TNBHA8C2P1SMWY44S3T5706WQYD", "dateTime": 1521387415624}, {"current_trial": 67, "trialdata": {"rt": -1000, "trial_type": "single-audio", "word": "comet", "stimulus": "/static/audio/wordpool/COMET.wav", "conditions": [18, 1200, "a", 18000], "internal_node_id": "0.0-49.0", "trial": 1, "time_elapsed": 380291, "serialpos": 12, "key_press": -1, "wordID": 352, "type": "PRES_AUD", "trial_index": 67}, "uniqueid": "MTK3777:374TNBHA8C2P1SMWY44S3T5706WQYD", "dateTime": 1521387417868}, {"current_trial": 68, "trialdata": {"rt": -1000, "trial_type": "single-audio", "word": "dentist", "stimulus": "/static/audio/wordpool/DENTIST.wav", "conditions": [18, 1200, "a", 18000], "internal_node_id": "0.0-50.0", "trial": 1, "time_elapsed": 382631, "serialpos": 13, "key_press": -1, "wordID": 446, "type": "PRES_AUD", "trial_index": 68}, "uniqueid": "MTK3777:374TNBHA8C2P1SMWY44S3T5706WQYD", "dateTime": 1521387420208}, {"current_trial": 69, "trialdata": {"rt": -1000, "trial_type": "single-audio", "word": "blouse", "stimulus": "/static/audio/wordpool/BLOUSE.wav", "conditions": [18, 1200, "a", 18000], "internal_node_id": "0.0-51.0", "trial": 1, "time_elapsed": 384705, "serialpos": 14, "key_press": -1, "wordID": 138, "type": "PRES_AUD", "trial_index": 69}, "uniqueid": "MTK3777:374TNBHA8C2P1SMWY44S3T5706WQYD", "dateTime": 1521387422282}, {"current_trial": 70, "trialdata": {"rt": -1000, "trial_type": "single-audio", "word": "robin", "stimulus": "/static/audio/wordpool/ROBIN.wav", "conditions": [18, 1200, "a", 18000], "internal_node_id": "0.0-52.0", "trial": 1, "time_elapsed": 386905, "serialpos": 15, "key_press": -1, "wordID": 1198, "type": "PRES_AUD", "trial_index": 70}, "uniqueid": "MTK3777:374TNBHA8C2P1SMWY44S3T5706WQYD", "dateTime": 1521387424482}, {"current_trial": 71, "trialdata": {"rt": -1000, "trial_type": "single-audio", "word": "rifle", "stimulus": "/static/audio/wordpool/RIFLE.wav", "conditions": [18, 1200, "a", 18000], "internal_node_id": "0.0-53.0", "trial": 1, "time_elapsed": 389143, "serialpos": 16, "key_press": -1, "wordID": 1191, "type": "PRES_AUD", "trial_index": 71}, "uniqueid": "MTK3777:374TNBHA8C2P1SMWY44S3T5706WQYD", "dateTime": 1521387426720}, {"current_trial": 72, "trialdata": {"rt": -1000, "trial_type": "single-audio", "word": "primate", "stimulus": "/static/audio/wordpool/PRIMATE.wav", "conditions": [18, 1200, "a", 18000], "internal_node_id": "0.0-54.0", "trial": 1, "time_elapsed": 391294, "serialpos": 17, "key_press": -1, "wordID": 1122, "type": "PRES_AUD", "trial_index": 72}, "uniqueid": "MTK3777:374TNBHA8C2P1SMWY44S3T5706WQYD", "dateTime": 1521387428871}, {"current_trial": 73, "trialdata": {"rt": -1, "trial_type": "single-stim", "stimulus": "", "internal_node_id": "0.0-55.0-0.0", "time_elapsed": 392578, "key_press": -1, "type": "PRE_RECALL_DELAY", "trial_index": 73}, "uniqueid": "MTK3777:374TNBHA8C2P1SMWY44S3T5706WQYD", "dateTime": 1521387430155}, {"current_trial": 74, "trialdata": {"rt": -1000, "trial_type": "single-audio", "stimulus": "/static/audio/400Hz.wav", "internal_node_id": "0.0-56.0", "time_elapsed": 393080, "key_press": -1, "type": "PRE_RECALL_ALERT", "trial_index": 74}, "uniqueid": "MTK3777:374TNBHA8C2P1SMWY44S3T5706WQYD", "dateTime": 1521387430657}, {"current_trial": 75, "trialdata": {"rt": [1726, 2722, 3990, 7576, 9039, 13055, 18454, 19264, 23435, 36074], "recwords": ["viking", "france", "dentist", "primate", "viking", "stream", "dentist", "friend", "swimmer", "primate"], "key_times": [602, 668, 870, 1073, 1208, 1355, 1726, 1928, 2086, 2154, 2221, 2401, 2581, 2722, 2840, 3008, 3132, 3210, 3391, 3493, 3571, 3990, 6687, 6755, 6911, 7105, 7193, 7261, 7373, 7576, 8183, 8262, 8419, 8566, 8701, 8870, 9039, 11671, 12312, 12527, 12627, 12717, 12841, 13055, 17398, 17601, 17825, 17959, 18094, 18218, 18297, 18454, 18601, 18748, 18849, 18949, 19051, 19164, 19264, 22011, 22178, 22268, 22448, 22639, 23158, 23237, 23435, 35038, 35150, 35251, 35409, 35567, 35635, 35724, 36074], "trial_type": "free-recall", "conditions": [18, 1200, "a", 18000], "internal_node_id": "0.0-57.0-0.0", "key_presses": [86, 73, 75, 73, 78, 71, 13, 70, 82, 65, 78, 67, 69, 13, 68, 69, 78, 84, 73, 83, 84, 13, 80, 82, 73, 77, 65, 84, 69, 13, 86, 73, 75, 73, 78, 71, 13, 83, 84, 82, 69, 65, 77, 13, 68, 69, 78, 84, 73, 83, 84, 13, 70, 82, 73, 69, 78, 68, 13, 83, 87, 73, 77, 77, 69, 82, 13, 80, 82, 73, 77, 65, 84, 69, 13], "trial": 1, "time_elapsed": 453085, "type": "FREE_RECALL", "trial_index": 75}, "uniqueid": "MTK3777:374TNBHA8C2P1SMWY44S3T5706WQYD", "dateTime": 1521387490664}, {"current_trial": 76, "trialdata": {"rt": 2517, "trial_type": "text", "internal_node_id": "0.0-58.0", "time_elapsed": 457608, "key_press": 32, "type": "INSTRUCTIONS", "trial_index": 76}, "uniqueid": "MTK3777:374TNBHA8C2P1SMWY44S3T5706WQYD", "dateTime": 1521387495185}, {"current_trial": 77, "trialdata": {"rt": [2577, 5503, 7718], "trial_type": "math-distractor", "key_times": [2319, 2577, 5345, 5503, 7439, 7528, 7718, 11992], "responses": ["8", "7", "13"], "num2": [4, 2, 3, 4], "num3": [3, 4, 8, 8], "conditions": [24, 1600, "a", 12000], "internal_node_id": "0.0-59.0", "key_presses": [56, 13, 55, 13, 49, 51, 13, 49], "trial": 2, "time_elapsed": 470644, "type": "DISTRACTOR", "trial_index": 77, "num1": [1, 1, 2, 7]}, "uniqueid": "MTK3777:374TNBHA8C2P1SMWY44S3T5706WQYD", "dateTime": 1521387508221}, {"current_trial": 78, "trialdata": {"rt": -1, "trial_type": "single-stim", "stimulus": "<p id=\"stim\">10</p>", "internal_node_id": "0.0-60.0-0.0", "time_elapsed": 473678, "key_press": -1, "trial_index": 78}, "uniqueid": "MTK3777:374TNBHA8C2P1SMWY44S3T5706WQYD", "dateTime": 1521387511255}, {"current_trial": 79, "trialdata": {"rt": -1, "trial_type": "single-stim", "stimulus": "<p id=\"stim\">9</p>", "internal_node_id": "0.0-60.0-1.0", "time_elapsed": 474689, "key_press": -1, "trial_index": 79}, "uniqueid": "MTK3777:374TNBHA8C2P1SMWY44S3T5706WQYD", "dateTime": 1521387512266}, {"current_trial": 80, "trialdata": {"rt": -1, "trial_type": "single-stim", "stimulus": "<p id=\"stim\">8</p>", "internal_node_id": "0.0-60.0-2.0", "time_elapsed": 475692, "key_press": -1, "trial_index": 80}, "uniqueid": "MTK3777:374TNBHA8C2P1SMWY44S3T5706WQYD", "dateTime": 1521387513269}, {"current_trial": 81, "trialdata": {"rt": -1, "trial_type": "single-stim", "stimulus": "<p id=\"stim\">7</p>", "internal_node_id": "0.0-60.0-3.0", "time_elapsed": 476696, "key_press": -1, "trial_index": 81}, "uniqueid": "MTK3777:374TNBHA8C2P1SMWY44S3T5706WQYD", "dateTime": 1521387514273}, {"current_trial": 82, "trialdata": {"rt": -1, "trial_type": "single-stim", "stimulus": "<p id=\"stim\">6</p>", "internal_node_id": "0.0-60.0-4.0", "time_elapsed": 477700, "key_press": -1, "trial_index": 82}, "uniqueid": "MTK3777:374TNBHA8C2P1SMWY44S3T5706WQYD", "dateTime": 1521387515278}, {"current_trial": 83, "trialdata": {"rt": -1, "trial_type": "single-stim", "stimulus": "<p id=\"stim\">5</p>", "internal_node_id": "0.0-60.0-5.0", "time_elapsed": 478704, "key_press": -1, "trial_index": 83}, "uniqueid": "MTK3777:374TNBHA8C2P1SMWY44S3T5706WQYD", "dateTime": 1521387516281}, {"current_trial": 84, "trialdata": {"rt": -1, "trial_type": "single-stim", "stimulus": "<p id=\"stim\">4</p>", "internal_node_id": "0.0-60.0-6.0", "time_elapsed": 479708, "key_press": -1, "trial_index": 84}, "uniqueid": "MTK3777:374TNBHA8C2P1SMWY44S3T5706WQYD", "dateTime": 1521387517285}, {"current_trial": 85, "trialdata": {"rt": -1, "trial_type": "single-stim", "stimulus": "<p id=\"stim\">3</p>", "internal_node_id": "0.0-60.0-7.0", "time_elapsed": 480723, "key_press": -1, "trial_index": 85}, "uniqueid": "MTK3777:374TNBHA8C2P1SMWY44S3T5706WQYD", "dateTime": 1521387518300}, {"current_trial": 86, "trialdata": {"rt": -1, "trial_type": "single-stim", "stimulus": "<p id=\"stim\">2</p>", "internal_node_id": "0.0-60.0-8.0", "time_elapsed": 481729, "key_press": -1, "trial_index": 86}, "uniqueid": "MTK3777:374TNBHA8C2P1SMWY44S3T5706WQYD", "dateTime": 1521387519306}, {"current_trial": 87, "trialdata": {"rt": -1, "trial_type": "single-stim", "stimulus": "<p id=\"stim\">1</p>", "internal_node_id": "0.0-60.0-9.0", "time_elapsed": 482732, "key_press": -1, "trial_index": 87}, "uniqueid": "MTK3777:374TNBHA8C2P1SMWY44S3T5706WQYD", "dateTime": 1521387520309}, {"current_trial": 88, "trialdata": {"rt": -1, "trial_type": "single-stim", "stimulus": "<p id=\"stim\">+</p>", "internal_node_id": "0.0-61.0-0.0", "time_elapsed": 484238, "key_press": -1, "type": "FIXATION", "trial_index": 88}, "uniqueid": "MTK3777:374TNBHA8C2P1SMWY44S3T5706WQYD", "dateTime": 1521387521815}, {"current_trial": 89, "trialdata": {"rt": -1000, "trial_type": "single-audio", "word": "sketch", "stimulus": "/static/audio/wordpool/SKETCH.wav", "conditions": [24, 1600, "a", 12000], "internal_node_id": "0.0-62.0", "trial": 2, "time_elapsed": 486830, "serialpos": 0, "key_press": -1, "wordID": 1314, "type": "PRES_AUD", "trial_index": 89}, "uniqueid": "MTK3777:374TNBHA8C2P1SMWY44S3T5706WQYD", "dateTime": 1521387524407}, {"current_trial": 90, "trialdata": {"rt": -1000, "trial_type": "single-audio", "word": "silk", "stimulus": "/static/audio/wordpool/SILK.wav", "conditions": [24, 1600, "a", 12000], "internal_node_id": "0.0-63.0", "trial": 2, "time_elapsed": 489483, "serialpos": 1, "key_press": -1, "wordID": 1306, "type": "PRES_AUD", "trial_index": 90}, "uniqueid": "MTK3777:374TNBHA8C2P1SMWY44S3T5706WQYD", "dateTime": 1521387527060}, {"current_trial": 91, "trialdata": {"rt": -1000, "trial_type": "single-audio", "word": "football", "stimulus": "/static/audio/wordpool/FOOTBALL.wav", "conditions": [24, 1600, "a", 12000], "internal_node_id": "0.0-64.0", "trial": 2, "time_elapsed": 492096, "serialpos": 2, "key_press": -1, "wordID": 590, "type": "PRES_AUD", "trial_index": 91}, "uniqueid": "MTK3777:374TNBHA8C2P1SMWY44S3T5706WQYD", "dateTime": 1521387529674}, {"current_trial": 92, "trialdata": {"rt": -1000, "trial_type": "single-audio", "word": "helmet", "stimulus": "/static/audio/wordpool/HELMET.wav", "conditions": [24, 1600, "a", 12000], "internal_node_id": "0.0-65.0", "trial": 2, "time_elapsed": 494549, "serialpos": 3, "key_press": -1, "wordID": 701, "type": "PRES_AUD", "trial_index": 92}, "uniqueid": "MTK3777:374TNBHA8C2P1SMWY44S3T5706WQYD", "dateTime": 1521387532126}, {"current_trial": 93, "trialdata": {"rt": -1000, "trial_type": "single-audio", "word": "report", "stimulus": "/static/audio/wordpool/REPORT.wav", "conditions": [24, 1600, "a", 12000], "internal_node_id": "0.0-66.0", "trial": 2, "time_elapsed": 497086, "serialpos": 4, "key_press": -1, "wordID": 1183, "type": "PRES_AUD", "trial_index": 93}, "uniqueid": "MTK3777:374TNBHA8C2P1SMWY44S3T5706WQYD", "dateTime": 1521387534664}, {"current_trial": 94, "trialdata": {"rt": -1000, "trial_type": "single-audio", "word": "velvet", "stimulus": "/static/audio/wordpool/VELVET.wav", "conditions": [24, 1600, "a", 12000], "internal_node_id": "0.0-67.0", "trial": 2, "time_elapsed": 499525, "serialpos": 5, "key_press": -1, "wordID": 1554, "type": "PRES_AUD", "trial_index": 94}, "uniqueid": "MTK3777:374TNBHA8C2P1SMWY44S3T5706WQYD", "dateTime": 1521387537102}, {"current_trial": 95, "trialdata": {"rt": -1000, "trial_type": "single-audio", "word": "plaid", "stimulus": "/static/audio/wordpool/PLAID.wav", "conditions": [24, 1600, "a", 12000], "internal_node_id": "0.0-68.0", "trial": 2, "time_elapsed": 502282, "serialpos": 6, "key_press": -1, "wordID": 1079, "type": "PRES_AUD", "trial_index": 95}, "uniqueid": "MTK3777:374TNBHA8C2P1SMWY44S3T5706WQYD", "dateTime": 1521387539859}, {"current_trial": 96, "trialdata": {"rt": -1000, "trial_type": "single-audio", "word": "beaker", "stimulus": "/static/audio/wordpool/BEAKER.wav", "conditions": [24, 1600, "a", 12000], "internal_node_id": "0.0-69.0", "trial": 2, "time_elapsed": 504685, "serialpos": 7, "key_press": -1, "wordID": 103, "type": "PRES_AUD", "trial_index": 96}, "uniqueid": "MTK3777:374TNBHA8C2P1SMWY44S3T5706WQYD", "dateTime": 1521387542262}, {"current_trial": 97, "trialdata": {"rt": -1000, "trial_type": "single-audio", "word": "zebra", "stimulus": "/static/audio/wordpool/ZEBRA.wav", "conditions": [24, 1600, "a", 12000], "internal_node_id": "0.0-70.0", "trial": 2, "time_elapsed": 507320, "serialpos": 8, "key_press": -1, "wordID": 1634, "type": "PRES_AUD", "trial_index": 97}, "uniqueid": "MTK3777:374TNBHA8C2P1SMWY44S3T5706WQYD", "dateTime": 1521387544897}, {"current_trial": 98, "trialdata": {"rt": -1000, "trial_type": "single-audio", "word": "coffee", "stimulus": "/static/audio/wordpool/COFFEE.wav", "conditions": [24, 1600, "a", 12000], "internal_node_id": "0.0-71.0", "trial": 2, "time_elapsed": 510035, "serialpos": 9, "key_press": -1, "wordID": 340, "type": "PRES_AUD", "trial_index": 98}, "uniqueid": "MTK3777:374TNBHA8C2P1SMWY44S3T5706WQYD", "dateTime": 1521387547612}, {"current_trial": 99, "trialdata": {"rt": -1000, "trial_type": "single-audio", "word": "survey", "stimulus": "/static/audio/wordpool/SURVEY.wav", "conditions": [24, 1600, "a", 12000], "internal_node_id": "0.0-72.0", "trial": 2, "time_elapsed": 512609, "serialpos": 10, "key_press": -1, "wordID": 1413, "type": "PRES_AUD", "trial_index": 99}, "uniqueid": "MTK3777:374TNBHA8C2P1SMWY44S3T5706WQYD", "dateTime": 1521387550187}, {"current_trial": 100, "trialdata": {"rt": -1000, "trial_type": "single-audio", "word": "dragon", "stimulus": "/static/audio/wordpool/DRAGON.wav", "conditions": [24, 1600, "a", 12000], "internal_node_id": "0.0-73.0", "trial": 2, "time_elapsed": 515132, "serialpos": 11, "key_press": -1, "wordID": 491, "type": "PRES_AUD", "trial_index": 100}, "uniqueid": "MTK3777:374TNBHA8C2P1SMWY44S3T5706WQYD", "dateTime": 1521387552709}, {"current_trial": 101, "trialdata": {"rt": -1000, "trial_type": "single-audio", "word": "fiddle", "stimulus": "/static/audio/wordpool/FIDDLE.wav", "conditions": [24, 1600, "a", 12000], "internal_node_id": "0.0-74.0", "trial": 2, "time_elapsed": 517628, "serialpos": 12, "key_press": -1, "wordID": 560, "type": "PRES_AUD", "trial_index": 101}, "uniqueid": "MTK3777:374TNBHA8C2P1SMWY44S3T5706WQYD", "dateTime": 1521387555205}, {"current_trial": 102, "trialdata": {"rt": -1000, "trial_type": "single-audio", "word": "whistle", "stimulus": "/static/audio/wordpool/WHISTLE.wav", "conditions": [24, 1600, "a", 12000], "internal_node_id": "0.0-75.0", "trial": 2, "time_elapsed": 520340, "serialpos": 13, "key_press": -1, "wordID": 1605, "type": "PRES_AUD", "trial_index": 102}, "uniqueid": "MTK3777:374TNBHA8C2P1SMWY44S3T5706WQYD", "dateTime": 1521387557917}, {"current_trial": 103, "trialdata": {"rt": -1000, "trial_type": "single-audio", "word": "apron", "stimulus": "/static/audio/wordpool/APRON.wav", "conditions": [24, 1600, "a", 12000], "internal_node_id": "0.0-76.0", "trial": 2, "time_elapsed": 523008, "serialpos": 14, "key_press": -1, "wordID": 34, "type": "PRES_AUD", "trial_index": 103}, "uniqueid": "MTK3777:374TNBHA8C2P1SMWY44S3T5706WQYD", "dateTime": 1521387560586}, {"current_trial": 104, "trialdata": {"rt": -1000, "trial_type": "single-audio", "word": "hound", "stimulus": "/static/audio/wordpool/HOUND.wav", "conditions": [24, 1600, "a", 12000], "internal_node_id": "0.0-77.0", "trial": 2, "time_elapsed": 525520, "serialpos": 15, "key_press": -1, "wordID": 723, "type": "PRES_AUD", "trial_index": 104}, "uniqueid": "MTK3777:374TNBHA8C2P1SMWY44S3T5706WQYD", "dateTime": 1521387563097}, {"current_trial": 105, "trialdata": {"rt": -1000, "trial_type": "single-audio", "word": "piano", "stimulus": "/static/audio/wordpool/PIANO.wav", "conditions": [24, 1600, "a", 12000], "internal_node_id": "0.0-78.0", "trial": 2, "time_elapsed": 528019, "serialpos": 16, "key_press": -1, "wordID": 1056, "type": "PRES_AUD", "trial_index": 105}, "uniqueid": "MTK3777:374TNBHA8C2P1SMWY44S3T5706WQYD", "dateTime": 1521387565596}, {"current_trial": 106, "trialdata": {"rt": -1000, "trial_type": "single-audio", "word": "scissors", "stimulus": "/static/audio/wordpool/SCISSORS.wav", "conditions": [24, 1600, "a", 12000], "internal_node_id": "0.0-79.0", "trial": 2, "time_elapsed": 530576, "serialpos": 17, "key_press": -1, "wordID": 1249, "type": "PRES_AUD", "trial_index": 106}, "uniqueid": "MTK3777:374TNBHA8C2P1SMWY44S3T5706WQYD", "dateTime": 1521387568153}, {"current_trial": 107, "trialdata": {"rt": -1000, "trial_type": "single-audio", "word": "lava", "stimulus": "/static/audio/wordpool/LAVA.wav", "conditions": [24, 1600, "a", 12000], "internal_node_id": "0.0-80.0", "trial": 2, "time_elapsed": 532986, "serialpos": 18, "key_press": -1, "wordID": 803, "type": "PRES_AUD", "trial_index": 107}, "uniqueid": "MTK3777:374TNBHA8C2P1SMWY44S3T5706WQYD", "dateTime": 1521387570563}, {"current_trial": 108, "trialdata": {"rt": -1000, "trial_type": "single-audio", "word": "candy", "stimulus": "/static/audio/wordpool/CANDY.wav", "conditions": [24, 1600, "a", 12000], "internal_node_id": "0.0-81.0", "trial": 2, "time_elapsed": 535683, "serialpos": 19, "key_press": -1, "wordID": 229, "type": "PRES_AUD", "trial_index": 108}, "uniqueid": "MTK3777:374TNBHA8C2P1SMWY44S3T5706WQYD", "dateTime": 1521387573260}, {"current_trial": 109, "trialdata": {"rt": -1000, "trial_type": "single-audio", "word": "snack", "stimulus": "/static/audio/wordpool/SNACK.wav", "conditions": [24, 1600, "a", 12000], "internal_node_id": "0.0-82.0", "trial": 2, "time_elapsed": 538186, "serialpos": 20, "key_press": -1, "wordID": 1330, "type": "PRES_AUD", "trial_index": 109}, "uniqueid": "MTK3777:374TNBHA8C2P1SMWY44S3T5706WQYD", "dateTime": 1521387575764}, {"current_trial": 110, "trialdata": {"rt": -1000, "trial_type": "single-audio", "word": "beef", "stimulus": "/static/audio/wordpool/BEEF.wav", "conditions": [24, 1600, "a", 12000], "internal_node_id": "0.0-83.0", "trial": 2, "time_elapsed": 540897, "serialpos": 21, "key_press": -1, "wordID": 112, "type": "PRES_AUD", "trial_index": 110}, "uniqueid": "MTK3777:374TNBHA8C2P1SMWY44S3T5706WQYD", "dateTime": 1521387578474}, {"current_trial": 111, "trialdata": {"rt": -1000, "trial_type": "single-audio", "word": "crater", "stimulus": "/static/audio/wordpool/CRATER.wav", "conditions": [24, 1600, "a", 12000], "internal_node_id": "0.0-84.0", "trial": 2, "time_elapsed": 543584, "serialpos": 22, "key_press": -1, "wordID": 399, "type": "PRES_AUD", "trial_index": 111}, "uniqueid": "MTK3777:374TNBHA8C2P1SMWY44S3T5706WQYD", "dateTime": 1521387581161}, {"current_trial": 112, "trialdata": {"rt": -1000, "trial_type": "single-audio", "word": "badge", "stimulus": "/static/audio/wordpool/BADGE.wav", "conditions": [24, 1600, "a", 12000], "internal_node_id": "0.0-85.0", "trial": 2, "time_elapsed": 546150, "serialpos": 23, "key_press": -1, "wordID": 67, "type": "PRES_AUD", "trial_index": 112}, "uniqueid": "MTK3777:374TNBHA8C2P1SMWY44S3T5706WQYD", "dateTime": 1521387583727}, {"current_trial": 113, "trialdata": {"rt": -1, "trial_type": "single-stim", "stimulus": "", "internal_node_id": "0.0-86.0-0.0", "time_elapsed": 547513, "key_press": -1, "type": "PRE_RECALL_DELAY", "trial_index": 113}, "uniqueid": "MTK3777:374TNBHA8C2P1SMWY44S3T5706WQYD", "dateTime": 1521387585091}, {"current_trial": 114, "trialdata": {"rt": -1000, "trial_type": "single-audio", "stimulus": "/static/audio/400Hz.wav", "internal_node_id": "0.0-87.0", "time_elapsed": 548016, "key_press": -1, "type": "PRE_RECALL_ALERT", "trial_index": 114}, "uniqueid": "MTK3777:374TNBHA8C2P1SMWY44S3T5706WQYD", "dateTime": 1521387585593}, {"current_trial": 115, "trialdata": {"rt": [2101, 2912, 4115, 6994, 9008, 12226, 18932, 25400, 30777, 34265, 37135, 40555, 56979], "recwords": ["crater", "badge", "football", "hemet", "crater", "silk", "basement", "crater", "football", "survey", "silk", "report", "screen"], "key_times": [1056, 1313, 1438, 1539, 1684, 1774, 2101, 2236, 2371, 2482, 2709, 2832, 2912, 3080, 3181, 3316, 3373, 3597, 3687, 3767, 3924, 4115, 4294, 4420, 4520, 4733, 5241, 5431, 5678, 5836, 6016, 6994, 8220, 8469, 8581, 8671, 8840, 8884, 9008, 11484, 11630, 11708, 11866, 12226, 17930, 18053, 18133, 18278, 18424, 18507, 18661, 18774, 18932, 24646, 24860, 24973, 25063, 25186, 25265, 25400, 29518, 29641, 29776, 29878, 30102, 30204, 30340, 30497, 30777, 33005, 33163, 33288, 33523, 33681, 33838, 34265, 36607, 36707, 36780, 36910, 37135, 39779, 39857, 39970, 40014, 40105, 40296, 40555, 55911, 56113, 56338, 56500, 56665, 56778, 56979], "trial_type": "free-recall", "conditions": [24, 1600, "a", 12000], "internal_node_id": "0.0-88.0-0.0", "key_presses": [67, 82, 65, 84, 69, 82, 13, 66, 65, 68, 71, 69, 13, 70, 79, 79, 84, 66, 65, 76, 76, 13, 72, 69, 76, 80, 8, 8, 77, 69, 84, 13, 67, 82, 65, 84, 69, 82, 13, 83, 73, 76, 75, 13, 66, 65, 83, 69, 77, 69, 78, 84, 13, 67, 82, 65, 84, 69, 82, 13, 70, 79, 79, 84, 66, 65, 76, 76, 13, 83, 85, 82, 86, 69, 89, 13, 83, 73, 76, 75, 13, 82, 69, 80, 79, 82, 84, 13, 83, 67, 82, 69, 69, 78, 13], "trial": 2, "time_elapsed": 608023, "type": "FREE_RECALL", "trial_index": 115}, "uniqueid": "MTK3777:374TNBHA8C2P1SMWY44S3T5706WQYD", "dateTime": 1521387645603}, {"current_trial": 116, "trialdata": {"rt": 1231, "trial_type": "text", "internal_node_id": "0.0-89.0", "time_elapsed": 611262, "key_press": 32, "type": "INSTRUCTIONS", "trial_index": 116}, "uniqueid": "MTK3777:374TNBHA8C2P1SMWY44S3T5706WQYD", "dateTime": 1521387648840}, {"current_trial": 117, "trialdata": {"rt": [1947, 4116, 6469, 10991], "trial_type": "math-distractor", "key_times": [1834, 1947, 3689, 3881, 4116, 6311, 6469, 10550, 10765, 10991], "responses": ["7", "13", "8", "20"], "num2": [3, 4, 4, 3, 8], "num3": [1, 1, 3, 9, 6], "conditions": [24, 1600, "a", 12000], "internal_node_id": "0.0-90.0", "key_presses": [55, 13, 49, 51, 13, 56, 13, 50, 48, 13], "trial": 3, "time_elapsed": 625266, "type": "DISTRACTOR", "trial_index": 117, "num1": [3, 8, 1, 8, 5]}, "uniqueid": "MTK3777:374TNBHA8C2P1SMWY44S3T5706WQYD", "dateTime": 1521387662843}, {"current_trial": 118, "trialdata": {"rt": -1, "trial_type": "single-stim", "stimulus": "<p id=\"stim\">10</p>", "internal_node_id": "0.0-91.0-0.0", "time_elapsed": 628274, "key_press": -1, "trial_index": 118}, "uniqueid": "MTK3777:374TNBHA8C2P1SMWY44S3T5706WQYD", "dateTime": 1521387665851}, {"current_trial": 119, "trialdata": {"rt": -1, "trial_type": "single-stim", "stimulus": "<p id=\"stim\">9</p>", "internal_node_id": "0.0-91.0-1.0", "time_elapsed": 629278, "key_press": -1, "trial_index": 119}, "uniqueid": "MTK3777:374TNBHA8C2P1SMWY44S3T5706WQYD", "dateTime": 1521387666855}, {"current_trial": 120, "trialdata": {"rt": -1, "trial_type": "single-stim", "stimulus": "<p id=\"stim\">8</p>", "internal_node_id": "0.0-91.0-2.0", "time_elapsed": 630282, "key_press": -1, "trial_index": 120}, "uniqueid": "MTK3777:374TNBHA8C2P1SMWY44S3T5706WQYD", "dateTime": 1521387667860}, {"current_trial": 121, "trialdata": {"rt": -1, "trial_type": "single-stim", "stimulus": "<p id=\"stim\">7</p>", "internal_node_id": "0.0-91.0-3.0", "time_elapsed": 631286, "key_press": -1, "trial_index": 121}, "uniqueid": "MTK3777:374TNBHA8C2P1SMWY44S3T5706WQYD", "dateTime": 1521387668863}, {"current_trial": 122, "trialdata": {"rt": -1, "trial_type": "single-stim", "stimulus": "<p id=\"stim\">6</p>", "internal_node_id": "0.0-91.0-4.0", "time_elapsed": 632290, "key_press": -1, "trial_index": 122}, "uniqueid": "MTK3777:374TNBHA8C2P1SMWY44S3T5706WQYD", "dateTime": 1521387669867}, {"current_trial": 123, "trialdata": {"rt": -1, "trial_type": "single-stim", "stimulus": "<p id=\"stim\">5</p>", "internal_node_id": "0.0-91.0-5.0", "time_elapsed": 633294, "key_press": -1, "trial_index": 123}, "uniqueid": "MTK3777:374TNBHA8C2P1SMWY44S3T5706WQYD", "dateTime": 1521387670871}, {"current_trial": 124, "trialdata": {"rt": -1, "trial_type": "single-stim", "stimulus": "<p id=\"stim\">4</p>", "internal_node_id": "0.0-91.0-6.0", "time_elapsed": 634299, "key_press": -1, "trial_index": 124}, "uniqueid": "MTK3777:374TNBHA8C2P1SMWY44S3T5706WQYD", "dateTime": 1521387671876}, {"current_trial": 125, "trialdata": {"rt": -1, "trial_type": "single-stim", "stimulus": "<p id=\"stim\">3</p>", "internal_node_id": "0.0-91.0-7.0", "time_elapsed": 635303, "key_press": -1, "trial_index": 125}, "uniqueid": "MTK3777:374TNBHA8C2P1SMWY44S3T5706WQYD", "dateTime": 1521387672880}, {"current_trial": 126, "trialdata": {"rt": -1, "trial_type": "single-stim", "stimulus": "<p id=\"stim\">2</p>", "internal_node_id": "0.0-91.0-8.0", "time_elapsed": 636307, "key_press": -1, "trial_index": 126}, "uniqueid": "MTK3777:374TNBHA8C2P1SMWY44S3T5706WQYD", "dateTime": 1521387673884}, {"current_trial": 127, "trialdata": {"rt": -1, "trial_type": "single-stim", "stimulus": "<p id=\"stim\">1</p>", "internal_node_id": "0.0-91.0-9.0", "time_elapsed": 637311, "key_press": -1, "trial_index": 127}, "uniqueid": "MTK3777:374TNBHA8C2P1SMWY44S3T5706WQYD", "dateTime": 1521387674888}, {"current_trial": 128, "trialdata": {"rt": -1, "trial_type": "single-stim", "stimulus": "<p id=\"stim\">+</p>", "internal_node_id": "0.0-92.0-0.0", "time_elapsed": 638814, "key_press": -1, "type": "FIXATION", "trial_index": 128}, "uniqueid": "MTK3777:374TNBHA8C2P1SMWY44S3T5706WQYD", "dateTime": 1521387676391}, {"current_trial": 129, "trialdata": {"rt": -1000, "trial_type": "single-audio", "word": "balloon", "stimulus": "/static/audio/wordpool/BALLOON.wav", "conditions": [24, 1600, "a", 12000], "internal_node_id": "0.0-93.0", "trial": 3, "time_elapsed": 641589, "serialpos": 0, "key_press": -1, "wordID": 74, "type": "PRES_AUD", "trial_index": 129}, "uniqueid": "MTK3777:374TNBHA8C2P1SMWY44S3T5706WQYD", "dateTime": 1521387679166}, {"current_trial": 130, "trialdata": {"rt": -1000, "trial_type": "single-audio", "word": "doughnut", "stimulus": "/static/audio/wordpool/DOUGHNUT.wav", "conditions": [24, 1600, "a", 12000], "internal_node_id": "0.0-94.0", "trial": 3, "time_elapsed": 644108, "serialpos": 1, "key_press": -1, "wordID": 489, "type": "PRES_AUD", "trial_index": 130}, "uniqueid": "MTK3777:374TNBHA8C2P1SMWY44S3T5706WQYD", "dateTime": 1521387681687}, {"current_trial": 131, "trialdata": {"rt": -1000, "trial_type": "single-audio", "word": "keeper", "stimulus": "/static/audio/wordpool/KEEPER.wav", "conditions": [24, 1600, "a", 12000], "internal_node_id": "0.0-95.0", "trial": 3, "time_elapsed": 646543, "serialpos": 2, "key_press": -1, "wordID": 768, "type": "PRES_AUD", "trial_index": 131}, "uniqueid": "MTK3777:374TNBHA8C2P1SMWY44S3T5706WQYD", "dateTime": 1521387684120}, {"current_trial": 132, "trialdata": {"rt": -1000, "trial_type": "single-audio", "word": "notebook", "stimulus": "/static/audio/wordpool/NOTEBOOK.wav", "conditions": [24, 1600, "a", 12000], "internal_node_id": "0.0-96.0", "trial": 3, "time_elapsed": 649036, "serialpos": 3, "key_press": -1, "wordID": 958, "type": "PRES_AUD", "trial_index": 132}, "uniqueid": "MTK3777:374TNBHA8C2P1SMWY44S3T5706WQYD", "dateTime": 1521387686613}, {"current_trial": 133, "trialdata": {"rt": -1000, "trial_type": "single-audio", "word": "pizza", "stimulus": "/static/audio/wordpool/PIZZA.wav", "conditions": [24, 1600, "a", 12000], "internal_node_id": "0.0-97.0", "trial": 3, "time_elapsed": 651597, "serialpos": 4, "key_press": -1, "wordID": 1078, "type": "PRES_AUD", "trial_index": 133}, "uniqueid": "MTK3777:374TNBHA8C2P1SMWY44S3T5706WQYD", "dateTime": 1521387689174}, {"current_trial": 134, "trialdata": {"rt": -1000, "trial_type": "single-audio", "word": "mop", "stimulus": "/static/audio/wordpool/MOP.wav", "conditions": [24, 1600, "a", 12000], "internal_node_id": "0.0-98.0", "trial": 3, "time_elapsed": 654078, "serialpos": 5, "key_press": -1, "wordID": 915, "type": "PRES_AUD", "trial_index": 134}, "uniqueid": "MTK3777:374TNBHA8C2P1SMWY44S3T5706WQYD", "dateTime": 1521387691655}, {"current_trial": 135, "trialdata": {"rt": -1000, "trial_type": "single-audio", "word": "rocket", "stimulus": "/static/audio/wordpool/ROCKET.wav", "conditions": [24, 1600, "a", 12000], "internal_node_id": "0.0-99.0", "trial": 3, "time_elapsed": 656819, "serialpos": 6, "key_press": -1, "wordID": 1201, "type": "PRES_AUD", "trial_index": 135}, "uniqueid": "MTK3777:374TNBHA8C2P1SMWY44S3T5706WQYD", "dateTime": 1521387694396}, {"current_trial": 136, "trialdata": {"rt": -1000, "trial_type": "single-audio", "word": "marker", "stimulus": "/static/audio/wordpool/MARKER.wav", "conditions": [24, 1600, "a", 12000], "internal_node_id": "0.0-100.0", "trial": 3, "time_elapsed": 659465, "serialpos": 7, "key_press": -1, "wordID": 869, "type": "PRES_AUD", "trial_index": 136}, "uniqueid": "MTK3777:374TNBHA8C2P1SMWY44S3T5706WQYD", "dateTime": 1521387697042}, {"current_trial": 137, "trialdata": {"rt": -1000, "trial_type": "single-audio", "word": "empire", "stimulus": "/static/audio/wordpool/EMPIRE.wav", "conditions": [24, 1600, "a", 12000], "internal_node_id": "0.0-101.0", "trial": 3, "time_elapsed": 661910, "serialpos": 8, "key_press": -1, "wordID": 529, "type": "PRES_AUD", "trial_index": 137}, "uniqueid": "MTK3777:374TNBHA8C2P1SMWY44S3T5706WQYD", "dateTime": 1521387699487}, {"current_trial": 138, "trialdata": {"rt": -1000, "trial_type": "single-audio", "word": "valley", "stimulus": "/static/audio/wordpool/VALLEY.wav", "conditions": [24, 1600, "a", 12000], "internal_node_id": "0.0-102.0", "trial": 3, "time_elapsed": 664521, "serialpos": 9, "key_press": -1, "wordID": 1544, "type": "PRES_AUD", "trial_index": 138}, "uniqueid": "MTK3777:374TNBHA8C2P1SMWY44S3T5706WQYD", "dateTime": 1521387702098}, {"current_trial": 139, "trialdata": {"rt": -1000, "trial_type": "single-audio", "word": "canyon", "stimulus": "/static/audio/wordpool/CANYON.wav", "conditions": [24, 1600, "a", 12000], "internal_node_id": "0.0-103.0", "trial": 3, "time_elapsed": 667276, "serialpos": 10, "key_press": -1, "wordID": 234, "type": "PRES_AUD", "trial_index": 139}, "uniqueid": "MTK3777:374TNBHA8C2P1SMWY44S3T5706WQYD", "dateTime": 1521387704853}, {"current_trial": 140, "trialdata": {"rt": -1000, "trial_type": "single-audio", "word": "diner", "stimulus": "/static/audio/wordpool/DINER.wav", "conditions": [24, 1600, "a", 12000], "internal_node_id": "0.0-104.0", "trial": 3, "time_elapsed": 670047, "serialpos": 11, "key_press": -1, "wordID": 466, "type": "PRES_AUD", "trial_index": 140}, "uniqueid": "MTK3777:374TNBHA8C2P1SMWY44S3T5706WQYD", "dateTime": 1521387707624}, {"current_trial": 141, "trialdata": {"rt": -1000, "trial_type": "single-audio", "word": "crevice", "stimulus": "/static/audio/wordpool/CREVICE.wav", "conditions": [24, 1600, "a", 12000], "internal_node_id": "0.0-105.0", "trial": 3, "time_elapsed": 672736, "serialpos": 12, "key_press": -1, "wordID": 404, "type": "PRES_AUD", "trial_index": 141}, "uniqueid": "MTK3777:374TNBHA8C2P1SMWY44S3T5706WQYD", "dateTime": 1521387710313}, {"current_trial": 142, "trialdata": {"rt": -1000, "trial_type": "single-audio", "word": "guitar", "stimulus": "/static/audio/wordpool/GUITAR.wav", "conditions": [24, 1600, "a", 12000], "internal_node_id": "0.0-106.0", "trial": 3, "time_elapsed": 675388, "serialpos": 13, "key_press": -1, "wordID": 669, "type": "PRES_AUD", "trial_index": 142}, "uniqueid": "MTK3777:374TNBHA8C2P1SMWY44S3T5706WQYD", "dateTime": 1521387712965}, {"current_trial": 143, "trialdata": {"rt": -1000, "trial_type": "single-audio", "word": "scribble", "stimulus": "/static/audio/wordpool/SCRIBBLE.wav", "conditions": [24, 1600, "a", 12000], "internal_node_id": "0.0-107.0", "trial": 3, "time_elapsed": 677934, "serialpos": 14, "key_press": -1, "wordID": 1255, "type": "PRES_AUD", "trial_index": 143}, "uniqueid": "MTK3777:374TNBHA8C2P1SMWY44S3T5706WQYD", "dateTime": 1521387715511}, {"current_trial": 144, "trialdata": {"rt": -1000, "trial_type": "single-audio", "word": "cook", "stimulus": "/static/audio/wordpool/COOK.wav", "conditions": [24, 1600, "a", 12000], "internal_node_id": "0.0-108.0", "trial": 3, "time_elapsed": 680352, "serialpos": 15, "key_press": -1, "wordID": 371, "type": "PRES_AUD", "trial_index": 144}, "uniqueid": "MTK3777:374TNBHA8C2P1SMWY44S3T5706WQYD", "dateTime": 1521387717929}, {"current_trial": 145, "trialdata": {"rt": -1000, "trial_type": "single-audio", "word": "drink", "stimulus": "/static/audio/wordpool/DRINK.wav", "conditions": [24, 1600, "a", 12000], "internal_node_id": "0.0-109.0", "trial": 3, "time_elapsed": 682886, "serialpos": 16, "key_press": -1, "wordID": 497, "type": "PRES_AUD", "trial_index": 145}, "uniqueid": "MTK3777:374TNBHA8C2P1SMWY44S3T5706WQYD", "dateTime": 1521387720463}, {"current_trial": 146, "trialdata": {"rt": -1000, "trial_type": "single-audio", "word": "husband", "stimulus": "/static/audio/wordpool/HUSBAND.wav", "conditions": [24, 1600, "a", 12000], "internal_node_id": "0.0-110.0", "trial": 3, "time_elapsed": 685580, "serialpos": 17, "key_press": -1, "wordID": 727, "type": "PRES_AUD", "trial_index": 146}, "uniqueid": "MTK3777:374TNBHA8C2P1SMWY44S3T5706WQYD", "dateTime": 1521387723157}, {"current_trial": 147, "trialdata": {"rt": -1000, "trial_type": "single-audio", "word": "trombone", "stimulus": "/static/audio/wordpool/TROMBONE.wav", "conditions": [24, 1600, "a", 12000], "internal_node_id": "0.0-111.0", "trial": 3, "time_elapsed": 688319, "serialpos": 18, "key_press": -1, "wordID": 1507, "type": "PRES_AUD", "trial_index": 147}, "uniqueid": "MTK3777:374TNBHA8C2P1SMWY44S3T5706WQYD", "dateTime": 1521387725896}, {"current_trial": 148, "trialdata": {"rt": -1000, "trial_type": "single-audio", "word": "donor", "stimulus": "/static/audio/wordpool/DONOR.wav", "conditions": [24, 1600, "a", 12000], "internal_node_id": "0.0-112.0", "trial": 3, "time_elapsed": 690762, "serialpos": 19, "key_press": -1, "wordID": 484, "type": "PRES_AUD", "trial_index": 148}, "uniqueid": "MTK3777:374TNBHA8C2P1SMWY44S3T5706WQYD", "dateTime": 1521387728339}, {"current_trial": 149, "trialdata": {"rt": -1000, "trial_type": "single-audio", "word": "mattress", "stimulus": "/static/audio/wordpool/MATTRESS.wav", "conditions": [24, 1600, "a", 12000], "internal_node_id": "0.0-113.0", "trial": 3, "time_elapsed": 693519, "serialpos": 20, "key_press": -1, "wordID": 878, "type": "PRES_AUD", "trial_index": 149}, "uniqueid": "MTK3777:374TNBHA8C2P1SMWY44S3T5706WQYD", "dateTime": 1521387731096}, {"current_trial": 150, "trialdata": {"rt": -1000, "trial_type": "single-audio", "word": "couch", "stimulus": "/static/audio/wordpool/COUCH.wav", "conditions": [24, 1600, "a", 12000], "internal_node_id": "0.0-114.0", "trial": 3, "time_elapsed": 696098, "serialpos": 21, "key_press": -1, "wordID": 385, "type": "PRES_AUD", "trial_index": 150}, "uniqueid": "MTK3777:374TNBHA8C2P1SMWY44S3T5706WQYD", "dateTime": 1521387733675}, {"current_trial": 151, "trialdata": {"rt": -1000, "trial_type": "single-audio", "word": "partner", "stimulus": "/static/audio/wordpool/PARTNER.wav", "conditions": [24, 1600, "a", 12000], "internal_node_id": "0.0-115.0", "trial": 3, "time_elapsed": 698875, "serialpos": 22, "key_press": -1, "wordID": 1016, "type": "PRES_AUD", "trial_index": 151}, "uniqueid": "MTK3777:374TNBHA8C2P1SMWY44S3T5706WQYD", "dateTime": 1521387736452}, {"current_trial": 152, "trialdata": {"rt": -1000, "trial_type": "single-audio", "word": "japan", "stimulus": "/static/audio/wordpool/JAPAN.wav", "conditions": [24, 1600, "a", 12000], "internal_node_id": "0.0-116.0", "trial": 3, "time_elapsed": 701476, "serialpos": 23, "key_press": -1, "wordID": 748, "type": "PRES_AUD", "trial_index": 152}, "uniqueid": "MTK3777:374TNBHA8C2P1SMWY44S3T5706WQYD", "dateTime": 1521387739054}, {"current_trial": 153, "trialdata": {"rt": -1, "trial_type": "single-stim", "stimulus": "", "internal_node_id": "0.0-117.0-0.0", "time_elapsed": 702879, "key_press": -1, "type": "PRE_RECALL_DELAY", "trial_index": 153}, "uniqueid": "MTK3777:374TNBHA8C2P1SMWY44S3T5706WQYD", "dateTime": 1521387740456}, {"current_trial": 154, "trialdata": {"rt": -1000, "trial_type": "single-audio", "stimulus": "/static/audio/400Hz.wav", "internal_node_id": "0.0-118.0", "time_elapsed": 703381, "key_press": -1, "type": "PRE_RECALL_ALERT", "trial_index": 154}, "uniqueid": "MTK3777:374TNBHA8C2P1SMWY44S3T5706WQYD", "dateTime": 1521387740958}, {"current_trial": 155, "trialdata": {"rt": [2414, 3811, 4800, 5993, 10728, 14217, 17254, 21687, 23105, 32780, 35796, 56079], "recwords": ["japan", "husband", "partner", "mattress", "donut", "drink", "japan", "cooking", "eating", "coffee", "drink", "chair"], "key_times": [1448, 1650, 1808, 1920, 2124, 2414, 2651, 2831, 2978, 3282, 3383, 3529, 3618, 3811, 4057, 4136, 4170, 4349, 4496, 4621, 4676, 4800, 4992, 5071, 5140, 5295, 5463, 5554, 5644, 5813, 5993, 9517, 9761, 9930, 10156, 10292, 10728, 13182, 13385, 13530, 13653, 13823, 14217, 16512, 16660, 16771, 16861, 17006, 17254, 20708, 20832, 20955, 21058, 21248, 21372, 21507, 21687, 22452, 22576, 22688, 22756, 22823, 22970, 23105, 31205, 31385, 31498, 31666, 31744, 31913, 32780, 34928, 35142, 35259, 35347, 35525, 35796, 55393, 55563, 55663, 55809, 55878, 56079], "trial_type": "free-recall", "conditions": [24, 1600, "a", 12000], "internal_node_id": "0.0-119.0-0.0", "key_presses": [74, 65, 80, 65, 78, 13, 72, 85, 83, 66, 65, 78, 68, 13, 80, 65, 82, 84, 78, 69, 82, 13, 77, 65, 84, 84, 82, 69, 83, 83, 13, 68, 79, 78, 85, 84, 13, 68, 82, 73, 78, 75, 13, 74, 65, 80, 65, 78, 13, 67, 79, 79, 75, 73, 78, 71, 13, 69, 65, 84, 73, 78, 71, 13, 67, 79, 70, 70, 69, 69, 13, 68, 82, 73, 78, 75, 13, 67, 72, 65, 73, 82, 13], "trial": 3, "time_elapsed": 763391, "type": "FREE_RECALL", "trial_index": 155}, "uniqueid": "MTK3777:374TNBHA8C2P1SMWY44S3T5706WQYD", "dateTime": 1521387800971}, {"current_trial": 156, "trialdata": {"rt": 1510, "trial_type": "text", "internal_node_id": "0.0-120.0", "time_elapsed": 766908, "key_press": 32, "type": "INSTRUCTIONS", "trial_index": 156}, "uniqueid": "MTK3777:374TNBHA8C2P1SMWY44S3T5706WQYD", "dateTime": 1521387804485}, {"current_trial": 157, "trialdata": {"rt": [2992, 5817, 12172, 14524, 19059], "trial_type": "math-distractor", "key_times": [2700, 2904, 2992, 5512, 5738, 5817, 11776, 11959, 12172, 14062, 14254, 14524, 18451, 18901, 19059, 23289, 23998], "responses": ["14", "15", "24", "20", "18"], "num2": [5, 9, 8, 8, 4, 3], "num3": [8, 4, 9, 4, 5, 8], "conditions": [24, 800, "a", 24000], "internal_node_id": "0.0-121.0", "key_presses": [49, 52, 13, 49, 53, 13, 50, 52, 13, 50, 48, 13, 49, 56, 13, 49, 55], "trial": 4, "time_elapsed": 792913, "type": "DISTRACTOR", "trial_index": 157, "num1": [1, 2, 7, 8, 9, 6]}, "uniqueid": "MTK3777:374TNBHA8C2P1SMWY44S3T5706WQYD", "dateTime": 1521387830490}, {"current_trial": 158, "trialdata": {"rt": -1, "trial_type": "single-stim", "stimulus": "<p id=\"stim\">10</p>", "internal_node_id": "0.0-122.0-0.0", "time_elapsed": 795917, "key_press": -1, "trial_index": 158}, "uniqueid": "MTK3777:374TNBHA8C2P1SMWY44S3T5706WQYD", "dateTime": 1521387833494}, {"current_trial": 159, "trialdata": {"rt": -1, "trial_type": "single-stim", "stimulus": "<p id=\"stim\">9</p>", "internal_node_id": "0.0-122.0-1.0", "time_elapsed": 796922, "key_press": -1, "trial_index": 159}, "uniqueid": "MTK3777:374TNBHA8C2P1SMWY44S3T5706WQYD", "dateTime": 1521387834499}, {"current_trial": 160, "trialdata": {"rt": -1, "trial_type": "single-stim", "stimulus": "<p id=\"stim\">8</p>", "internal_node_id": "0.0-122.0-2.0", "time_elapsed": 797929, "key_press": -1, "trial_index": 160}, "uniqueid": "MTK3777:374TNBHA8C2P1SMWY44S3T5706WQYD", "dateTime": 1521387835506}, {"current_trial": 161, "trialdata": {"rt": -1, "trial_type": "single-stim", "stimulus": "<p id=\"stim\">7</p>", "internal_node_id": "0.0-122.0-3.0", "time_elapsed": 798934, "key_press": -1, "trial_index": 161}, "uniqueid": "MTK3777:374TNBHA8C2P1SMWY44S3T5706WQYD", "dateTime": 1521387836511}, {"current_trial": 162, "trialdata": {"rt": -1, "trial_type": "single-stim", "stimulus": "<p id=\"stim\">6</p>", "internal_node_id": "0.0-122.0-4.0", "time_elapsed": 799940, "key_press": -1, "trial_index": 162}, "uniqueid": "MTK3777:374TNBHA8C2P1SMWY44S3T5706WQYD", "dateTime": 1521387837517}, {"current_trial": 163, "trialdata": {"rt": -1, "trial_type": "single-stim", "stimulus": "<p id=\"stim\">5</p>", "internal_node_id": "0.0-122.0-5.0", "time_elapsed": 800944, "key_press": -1, "trial_index": 163}, "uniqueid": "MTK3777:374TNBHA8C2P1SMWY44S3T5706WQYD", "dateTime": 1521387838521}, {"current_trial": 164, "trialdata": {"rt": -1, "trial_type": "single-stim", "stimulus": "<p id=\"stim\">4</p>", "internal_node_id": "0.0-122.0-6.0", "time_elapsed": 801945, "key_press": -1, "trial_index": 164}, "uniqueid": "MTK3777:374TNBHA8C2P1SMWY44S3T5706WQYD", "dateTime": 1521387839522}, {"current_trial": 165, "trialdata": {"rt": -1, "trial_type": "single-stim", "stimulus": "<p id=\"stim\">3</p>", "internal_node_id": "0.0-122.0-7.0", "time_elapsed": 802953, "key_press": -1, "trial_index": 165}, "uniqueid": "MTK3777:374TNBHA8C2P1SMWY44S3T5706WQYD", "dateTime": 1521387840530}, {"current_trial": 166, "trialdata": {"rt": -1, "trial_type": "single-stim", "stimulus": "<p id=\"stim\">2</p>", "internal_node_id": "0.0-122.0-8.0", "time_elapsed": 803958, "key_press": -1, "trial_index": 166}, "uniqueid": "MTK3777:374TNBHA8C2P1SMWY44S3T5706WQYD", "dateTime": 1521387841535}, {"current_trial": 167, "trialdata": {"rt": -1, "trial_type": "single-stim", "stimulus": "<p id=\"stim\">1</p>", "internal_node_id": "0.0-122.0-9.0", "time_elapsed": 804962, "key_press": -1, "trial_index": 167}, "uniqueid": "MTK3777:374TNBHA8C2P1SMWY44S3T5706WQYD", "dateTime": 1521387842539}, {"current_trial": 168, "trialdata": {"rt": -1, "trial_type": "single-stim", "stimulus": "<p id=\"stim\">+</p>", "internal_node_id": "0.0-123.0-0.0", "time_elapsed": 806465, "key_press": -1, "type": "FIXATION", "trial_index": 168}, "uniqueid": "MTK3777:374TNBHA8C2P1SMWY44S3T5706WQYD", "dateTime": 1521387844042}, {"current_trial": 169, "trialdata": {"rt": -1000, "trial_type": "single-audio", "word": "jury", "stimulus": "/static/audio/wordpool/JURY.wav", "conditions": [24, 800, "a", 24000], "internal_node_id": "0.0-124.0", "trial": 4, "time_elapsed": 808273, "serialpos": 0, "key_press": -1, "wordID": 765, "type": "PRES_AUD", "trial_index": 169}, "uniqueid": "MTK3777:374TNBHA8C2P1SMWY44S3T5706WQYD", "dateTime": 1521387845850}, {"current_trial": 170, "trialdata": {"rt": -1000, "trial_type": "single-audio", "word": "nightgown", "stimulus": "/static/audio/wordpool/NIGHTGOWN.wav", "conditions": [24, 800, "a", 24000], "internal_node_id": "0.0-125.0", "trial": 4, "time_elapsed": 809912, "serialpos": 1, "key_press": -1, "wordID": 952, "type": "PRES_AUD", "trial_index": 170}, "uniqueid": "MTK3777:374TNBHA8C2P1SMWY44S3T5706WQYD", "dateTime": 1521387847489}, {"current_trial": 171, "trialdata": {"rt": -1000, "trial_type": "single-audio", "word": "taxi", "stimulus": "/static/audio/wordpool/TAXI.wav", "conditions": [24, 800, "a", 24000], "internal_node_id": "0.0-126.0", "trial": 4, "time_elapsed": 811832, "serialpos": 2, "key_press": -1, "wordID": 1437, "type": "PRES_AUD", "trial_index": 171}, "uniqueid": "MTK3777:374TNBHA8C2P1SMWY44S3T5706WQYD", "dateTime": 1521387849409}, {"current_trial": 172, "trialdata": {"rt": -1000, "trial_type": "single-audio", "word": "cupboard", "stimulus": "/static/audio/wordpool/CUPBOARD.wav", "conditions": [24, 800, "a", 24000], "internal_node_id": "0.0-127.0", "trial": 4, "time_elapsed": 813709, "serialpos": 3, "key_press": -1, "wordID": 424, "type": "PRES_AUD", "trial_index": 172}, "uniqueid": "MTK3777:374TNBHA8C2P1SMWY44S3T5706WQYD", "dateTime": 1521387851286}, {"current_trial": 173, "trialdata": {"rt": -1000, "trial_type": "single-audio", "word": "hiker", "stimulus": "/static/audio/wordpool/HIKER.wav", "conditions": [24, 800, "a", 24000], "internal_node_id": "0.0-128.0", "trial": 4, "time_elapsed": 815414, "serialpos": 4, "key_press": -1, "wordID": 707, "type": "PRES_AUD", "trial_index": 173}, "uniqueid": "MTK3777:374TNBHA8C2P1SMWY44S3T5706WQYD", "dateTime": 1521387852991}, {"current_trial": 174, "trialdata": {"rt": -1000, "trial_type": "single-audio", "word": "skillet", "stimulus": "/static/audio/wordpool/SKILLET.wav", "conditions": [24, 800, "a", 24000], "internal_node_id": "0.0-129.0", "trial": 4, "time_elapsed": 817284, "serialpos": 5, "key_press": -1, "wordID": 1316, "type": "PRES_AUD", "trial_index": 174}, "uniqueid": "MTK3777:374TNBHA8C2P1SMWY44S3T5706WQYD", "dateTime": 1521387854861}, {"current_trial": 175, "trialdata": {"rt": -1000, "trial_type": "single-audio", "word": "liver", "stimulus": "/static/audio/wordpool/LIVER.wav", "conditions": [24, 800, "a", 24000], "internal_node_id": "0.0-130.0", "trial": 4, "time_elapsed": 819273, "serialpos": 6, "key_press": -1, "wordID": 832, "type": "PRES_AUD", "trial_index": 175}, "uniqueid": "MTK3777:374TNBHA8C2P1SMWY44S3T5706WQYD", "dateTime": 1521387856850}, {"current_trial": 176, "trialdata": {"rt": -1000, "trial_type": "single-audio", "word": "climber", "stimulus": "/static/audio/wordpool/CLIMBER.wav", "conditions": [24, 800, "a", 24000], "internal_node_id": "0.0-131.0", "trial": 4, "time_elapsed": 821138, "serialpos": 7, "key_press": -1, "wordID": 322, "type": "PRES_AUD", "trial_index": 176}, "uniqueid": "MTK3777:374TNBHA8C2P1SMWY44S3T5706WQYD", "dateTime": 1521387858715}, {"current_trial": 177, "trialdata": {"rt": -1000, "trial_type": "single-audio", "word": "office", "stimulus": "/static/audio/wordpool/OFFICE.wav", "conditions": [24, 800, "a", 24000], "internal_node_id": "0.0-132.0", "trial": 4, "time_elapsed": 822941, "serialpos": 8, "key_press": -1, "wordID": 971, "type": "PRES_AUD", "trial_index": 177}, "uniqueid": "MTK3777:374TNBHA8C2P1SMWY44S3T5706WQYD", "dateTime": 1521387860519}, {"current_trial": 178, "trialdata": {"rt": -1000, "trial_type": "single-audio", "word": "lamp", "stimulus": "/static/audio/wordpool/LAMP.wav", "conditions": [24, 800, "a", 24000], "internal_node_id": "0.0-133.0", "trial": 4, "time_elapsed": 824811, "serialpos": 9, "key_press": -1, "wordID": 797, "type": "PRES_AUD", "trial_index": 178}, "uniqueid": "MTK3777:374TNBHA8C2P1SMWY44S3T5706WQYD", "dateTime": 1521387862388}, {"current_trial": 179, "trialdata": {"rt": -1000, "trial_type": "single-audio", "word": "freckle", "stimulus": "/static/audio/wordpool/FRECKLE.wav", "conditions": [24, 800, "a", 24000], "internal_node_id": "0.0-134.0", "trial": 4, "time_elapsed": 826499, "serialpos": 10, "key_press": -1, "wordID": 601, "type": "PRES_AUD", "trial_index": 179}, "uniqueid": "MTK3777:374TNBHA8C2P1SMWY44S3T5706WQYD", "dateTime": 1521387864076}, {"current_trial": 180, "trialdata": {"rt": -1000, "trial_type": "single-audio", "word": "pimple", "stimulus": "/static/audio/wordpool/PIMPLE.wav", "conditions": [24, 800, "a", 24000], "internal_node_id": "0.0-135.0", "trial": 4, "time_elapsed": 828218, "serialpos": 11, "key_press": -1, "wordID": 1070, "type": "PRES_AUD", "trial_index": 180}, "uniqueid": "MTK3777:374TNBHA8C2P1SMWY44S3T5706WQYD", "dateTime": 1521387865795}, {"current_trial": 181, "trialdata": {"rt": -1000, "trial_type": "single-audio", "word": "iceberg", "stimulus": "/static/audio/wordpool/ICEBERG.wav", "conditions": [24, 800, "a", 24000], "internal_node_id": "0.0-136.0", "trial": 4, "time_elapsed": 830091, "serialpos": 12, "key_press": -1, "wordID": 730, "type": "PRES_AUD", "trial_index": 181}, "uniqueid": "MTK3777:374TNBHA8C2P1SMWY44S3T5706WQYD", "dateTime": 1521387867668}, {"current_trial": 182, "trialdata": {"rt": -1000, "trial_type": "single-audio", "word": "church", "stimulus": "/static/audio/wordpool/CHURCH.wav", "conditions": [24, 800, "a", 24000], "internal_node_id": "0.0-137.0", "trial": 4, "time_elapsed": 831775, "serialpos": 13, "key_press": -1, "wordID": 306, "type": "PRES_AUD", "trial_index": 182}, "uniqueid": "MTK3777:374TNBHA8C2P1SMWY44S3T5706WQYD", "dateTime": 1521387869352}, {"current_trial": 183, "trialdata": {"rt": -1000, "trial_type": "single-audio", "word": "sausage", "stimulus": "/static/audio/wordpool/SAUSAGE.wav", "conditions": [24, 800, "a", 24000], "internal_node_id": "0.0-138.0", "trial": 4, "time_elapsed": 833651, "serialpos": 14, "key_press": -1, "wordID": 1237, "type": "PRES_AUD", "trial_index": 183}, "uniqueid": "MTK3777:374TNBHA8C2P1SMWY44S3T5706WQYD", "dateTime": 1521387871228}, {"current_trial": 184, "trialdata": {"rt": -1000, "trial_type": "single-audio", "word": "market", "stimulus": "/static/audio/wordpool/MARKET.wav", "conditions": [24, 800, "a", 24000], "internal_node_id": "0.0-139.0", "trial": 4, "time_elapsed": 835533, "serialpos": 15, "key_press": -1, "wordID": 870, "type": "PRES_AUD", "trial_index": 184}, "uniqueid": "MTK3777:374TNBHA8C2P1SMWY44S3T5706WQYD", "dateTime": 1521387873110}, {"current_trial": 185, "trialdata": {"rt": -1000, "trial_type": "single-audio", "word": "neutron", "stimulus": "/static/audio/wordpool/NEUTRON.wav", "conditions": [24, 800, "a", 24000], "internal_node_id": "0.0-140.0", "trial": 4, "time_elapsed": 837414, "serialpos": 16, "key_press": -1, "wordID": 946, "type": "PRES_AUD", "trial_index": 185}, "uniqueid": "MTK3777:374TNBHA8C2P1SMWY44S3T5706WQYD", "dateTime": 1521387874991}, {"current_trial": 186, "trialdata": {"rt": -1000, "trial_type": "single-audio", "word": "tweezers", "stimulus": "/static/audio/wordpool/TWEEZERS.wav", "conditions": [24, 800, "a", 24000], "internal_node_id": "0.0-141.0", "trial": 4, "time_elapsed": 839193, "serialpos": 17, "key_press": -1, "wordID": 1525, "type": "PRES_AUD", "trial_index": 186}, "uniqueid": "MTK3777:374TNBHA8C2P1SMWY44S3T5706WQYD", "dateTime": 1521387876770}, {"current_trial": 187, "trialdata": {"rt": -1000, "trial_type": "single-audio", "word": "glass", "stimulus": "/static/audio/wordpool/GLASS.wav", "conditions": [24, 800, "a", 24000], "internal_node_id": "0.0-142.0", "trial": 4, "time_elapsed": 841074, "serialpos": 18, "key_press": -1, "wordID": 638, "type": "PRES_AUD", "trial_index": 187}, "uniqueid": "MTK3777:374TNBHA8C2P1SMWY44S3T5706WQYD", "dateTime": 1521387878651}, {"current_trial": 188, "trialdata": {"rt": -1000, "trial_type": "single-audio", "word": "actor", "stimulus": "/static/audio/wordpool/ACTOR.wav", "conditions": [24, 800, "a", 24000], "internal_node_id": "0.0-143.0", "trial": 4, "time_elapsed": 842961, "serialpos": 19, "key_press": -1, "wordID": 4, "type": "PRES_AUD", "trial_index": 188}, "uniqueid": "MTK3777:374TNBHA8C2P1SMWY44S3T5706WQYD", "dateTime": 1521387880538}, {"current_trial": 189, "trialdata": {"rt": -1000, "trial_type": "single-audio", "word": "actress", "stimulus": "/static/audio/wordpool/ACTRESS.wav", "conditions": [24, 800, "a", 24000], "internal_node_id": "0.0-144.0", "trial": 4, "time_elapsed": 844603, "serialpos": 20, "key_press": -1, "wordID": 5, "type": "PRES_AUD", "trial_index": 189}, "uniqueid": "MTK3777:374TNBHA8C2P1SMWY44S3T5706WQYD", "dateTime": 1521387882181}, {"current_trial": 190, "trialdata": {"rt": -1000, "trial_type": "single-audio", "word": "custard", "stimulus": "/static/audio/wordpool/CUSTARD.wav", "conditions": [24, 800, "a", 24000], "internal_node_id": "0.0-145.0", "trial": 4, "time_elapsed": 846258, "serialpos": 21, "key_press": -1, "wordID": 428, "type": "PRES_AUD", "trial_index": 190}, "uniqueid": "MTK3777:374TNBHA8C2P1SMWY44S3T5706WQYD", "dateTime": 1521387883835}, {"current_trial": 191, "trialdata": {"rt": -1000, "trial_type": "single-audio", "word": "apple", "stimulus": "/static/audio/wordpool/APPLE.wav", "conditions": [24, 800, "a", 24000], "internal_node_id": "0.0-146.0", "trial": 4, "time_elapsed": 848044, "serialpos": 22, "key_press": -1, "wordID": 32, "type": "PRES_AUD", "trial_index": 191}, "uniqueid": "MTK3777:374TNBHA8C2P1SMWY44S3T5706WQYD", "dateTime": 1521387885621}, {"current_trial": 192, "trialdata": {"rt": -1000, "trial_type": "single-audio", "word": "widow", "stimulus": "/static/audio/wordpool/WIDOW.wav", "conditions": [24, 800, "a", 24000], "internal_node_id": "0.0-147.0", "trial": 4, "time_elapsed": 849717, "serialpos": 23, "key_press": -1, "wordID": 1607, "type": "PRES_AUD", "trial_index": 192}, "uniqueid": "MTK3777:374TNBHA8C2P1SMWY44S3T5706WQYD", "dateTime": 1521387887294}, {"current_trial": 193, "trialdata": {"rt": -1, "trial_type": "single-stim", "stimulus": "", "internal_node_id": "0.0-148.0-0.0", "time_elapsed": 851116, "key_press": -1, "type": "PRE_RECALL_DELAY", "trial_index": 193}, "uniqueid": "MTK3777:374TNBHA8C2P1SMWY44S3T5706WQYD", "dateTime": 1521387888693}, {"current_trial": 194, "trialdata": {"rt": -1000, "trial_type": "single-audio", "stimulus": "/static/audio/400Hz.wav", "internal_node_id": "0.0-149.0", "time_elapsed": 851616, "key_press": -1, "type": "PRE_RECALL_ALERT", "trial_index": 194}, "uniqueid": "MTK3777:374TNBHA8C2P1SMWY44S3T5706WQYD", "dateTime": 1521387889193}, {"current_trial": 195, "trialdata": {"rt": [1411, 2581, 3740, 5304, 10490, 13798, 17870, 25779, 30842, 40066, 42227, 51744], "recwords": ["widow", "custard", "actor", "actress", "custard", "lamp", "jury", "curtain", "blouse", "shelf", "cupboard", "slip"], "key_times": [782, 928, 1017, 1148, 1242, 1411, 1636, 1748, 1940, 2030, 2153, 2243, 2457, 2581, 2705, 3154, 3390, 3504, 3616, 3740, 3829, 4020, 4415, 4617, 4741, 4921, 5089, 5304, 8634, 9004, 9162, 9219, 9376, 9432, 9681, 10490, 12965, 13100, 13212, 13449, 13798, 17072, 17263, 17420, 17533, 17870, 24362, 24947, 25003, 25183, 25318, 25431, 25532, 25779, 29941, 30100, 30325, 30403, 30561, 30650, 30842, 39495, 39539, 39697, 39774, 39931, 40066, 41125, 41204, 41328, 41574, 41712, 41822, 41856, 42082, 42227, 51159, 51262, 51351, 51509, 51744], "trial_type": "free-recall", "conditions": [24, 800, "a", 24000], "internal_node_id": "0.0-150.0-0.0", "key_presses": [87, 73, 68, 79, 87, 13, 67, 85, 83, 84, 65, 82, 68, 13, 65, 67, 84, 79, 82, 32, 65, 67, 84, 82, 69, 83, 83, 13, 67, 85, 83, 84, 65, 82, 68, 13, 76, 65, 77, 80, 13, 74, 85, 82, 89, 13, 67, 85, 82, 84, 65, 73, 78, 13, 66, 76, 79, 85, 83, 69, 13, 83, 72, 69, 76, 70, 13, 67, 85, 80, 66, 79, 65, 82, 68, 13, 83, 76, 73, 80, 13], "trial": 4, "time_elapsed": 911625, "type": "FREE_RECALL", "trial_index": 195}, "uniqueid": "MTK3777:374TNBHA8C2P1SMWY44S3T5706WQYD", "dateTime": 1521387949205}, {"current_trial": 196, "trialdata": {"rt": 1126, "trial_type": "text", "internal_node_id": "0.0-151.0", "time_elapsed": 914760, "key_press": 32, "type": "INSTRUCTIONS", "trial_index": 196}, "uniqueid": "MTK3777:374TNBHA8C2P1SMWY44S3T5706WQYD", "dateTime": 1521387952337}, {"current_trial": 197, "trialdata": {"rt": [2495, 6658, 8671, 11250, 13229, 16301, 20440], "trial_type": "math-distractor", "key_times": [2192, 2348, 2495, 6377, 6579, 6658, 8493, 8572, 8671, 11081, 11250, 13002, 13072, 13229, 16085, 16162, 16301, 18385, 20338, 20440, 23939], "responses": ["14", "15", "12", "8", "12", "13", "19"], "num2": [7, 5, 2, 3, 2, 2, 9, 8], "num3": [5, 4, 2, 3, 6, 7, 4, 9], "conditions": [24, 800, "a", 24000], "internal_node_id": "0.0-152.0", "key_presses": [49, 52, 13, 49, 53, 13, 49, 50, 13, 56, 13, 49, 50, 13, 49, 51, 13, 49, 57, 13, 50], "trial": 5, "time_elapsed": 940770, "type": "DISTRACTOR", "trial_index": 197, "num1": [2, 6, 8, 2, 4, 4, 6, 5]}, "uniqueid": "MTK3777:374TNBHA8C2P1SMWY44S3T5706WQYD", "dateTime": 1521387978347}, {"current_trial": 198, "trialdata": {"rt": -1, "trial_type": "single-stim", "stimulus": "<p id=\"stim\">10</p>", "internal_node_id": "0.0-153.0-0.0", "time_elapsed": 943774, "key_press": -1, "trial_index": 198}, "uniqueid": "MTK3777:374TNBHA8C2P1SMWY44S3T5706WQYD", "dateTime": 1521387981351}, {"current_trial": 199, "trialdata": {"rt": -1, "trial_type": "single-stim", "stimulus": "<p id=\"stim\">9</p>", "internal_node_id": "0.0-153.0-1.0", "time_elapsed": 944779, "key_press": -1, "trial_index": 199}, "uniqueid": "MTK3777:374TNBHA8C2P1SMWY44S3T5706WQYD", "dateTime": 1521387982356}, {"current_trial": 200, "trialdata": {"rt": -1, "trial_type": "single-stim", "stimulus": "<p id=\"stim\">8</p>", "internal_node_id": "0.0-153.0-2.0", "time_elapsed": 945783, "key_press": -1, "trial_index": 200}, "uniqueid": "MTK3777:374TNBHA8C2P1SMWY44S3T5706WQYD", "dateTime": 1521387983360}, {"current_trial": 201, "trialdata": {"rt": -1, "trial_type": "single-stim", "stimulus": "<p id=\"stim\">7</p>", "internal_node_id": "0.0-153.0-3.0", "time_elapsed": 946787, "key_press": -1, "trial_index": 201}, "uniqueid": "MTK3777:374TNBHA8C2P1SMWY44S3T5706WQYD", "dateTime": 1521387984364}, {"current_trial": 202, "trialdata": {"rt": -1, "trial_type": "single-stim", "stimulus": "<p id=\"stim\">6</p>", "internal_node_id": "0.0-153.0-4.0", "time_elapsed": 947793, "key_press": -1, "trial_index": 202}, "uniqueid": "MTK3777:374TNBHA8C2P1SMWY44S3T5706WQYD", "dateTime": 1521387985370}, {"current_trial": 203, "trialdata": {"rt": -1, "trial_type": "single-stim", "stimulus": "<p id=\"stim\">5</p>", "internal_node_id": "0.0-153.0-5.0", "time_elapsed": 948797, "key_press": -1, "trial_index": 203}, "uniqueid": "MTK3777:374TNBHA8C2P1SMWY44S3T5706WQYD", "dateTime": 1521387986374}, {"current_trial": 204, "trialdata": {"rt": -1, "trial_type": "single-stim", "stimulus": "<p id=\"stim\">4</p>", "internal_node_id": "0.0-153.0-6.0", "time_elapsed": 949801, "key_press": -1, "trial_index": 204}, "uniqueid": "MTK3777:374TNBHA8C2P1SMWY44S3T5706WQYD", "dateTime": 1521387987379}, {"current_trial": 205, "trialdata": {"rt": -1, "trial_type": "single-stim", "stimulus": "<p id=\"stim\">3</p>", "internal_node_id": "0.0-153.0-7.0", "time_elapsed": 950803, "key_press": -1, "trial_index": 205}, "uniqueid": "MTK3777:374TNBHA8C2P1SMWY44S3T5706WQYD", "dateTime": 1521387988380}, {"current_trial": 206, "trialdata": {"rt": -1, "trial_type": "single-stim", "stimulus": "<p id=\"stim\">2</p>", "internal_node_id": "0.0-153.0-8.0", "time_elapsed": 951807, "key_press": -1, "trial_index": 206}, "uniqueid": "MTK3777:374TNBHA8C2P1SMWY44S3T5706WQYD", "dateTime": 1521387989384}, {"current_trial": 207, "trialdata": {"rt": -1, "trial_type": "single-stim", "stimulus": "<p id=\"stim\">1</p>", "internal_node_id": "0.0-153.0-9.0", "time_elapsed": 952812, "key_press": -1, "trial_index": 207}, "uniqueid": "MTK3777:374TNBHA8C2P1SMWY44S3T5706WQYD", "dateTime": 1521387990389}, {"current_trial": 208, "trialdata": {"rt": -1, "trial_type": "single-stim", "stimulus": "<p id=\"stim\">+</p>", "internal_node_id": "0.0-154.0-0.0", "time_elapsed": 954317, "key_press": -1, "type": "FIXATION", "trial_index": 208}, "uniqueid": "MTK3777:374TNBHA8C2P1SMWY44S3T5706WQYD", "dateTime": 1521387991894}, {"current_trial": 209, "trialdata": {"rt": -1000, "trial_type": "single-audio", "word": "sword", "stimulus": "/static/audio/wordpool/SWORD.wav", "conditions": [24, 800, "a", 24000], "internal_node_id": "0.0-155.0", "trial": 5, "time_elapsed": 956294, "serialpos": 0, "key_press": -1, "wordID": 1422, "type": "PRES_AUD", "trial_index": 209}, "uniqueid": "MTK3777:374TNBHA8C2P1SMWY44S3T5706WQYD", "dateTime": 1521387993871}, {"current_trial": 210, "trialdata": {"rt": -1000, "trial_type": "single-audio", "word": "dancer", "stimulus": "/static/audio/wordpool/DANCER.wav", "conditions": [24, 800, "a", 24000], "internal_node_id": "0.0-156.0", "trial": 5, "time_elapsed": 958017, "serialpos": 1, "key_press": -1, "wordID": 436, "type": "PRES_AUD", "trial_index": 210}, "uniqueid": "MTK3777:374TNBHA8C2P1SMWY44S3T5706WQYD", "dateTime": 1521387995595}, {"current_trial": 211, "trialdata": {"rt": -1000, "trial_type": "single-audio", "word": "cattle", "stimulus": "/static/audio/wordpool/CATTLE.wav", "conditions": [24, 800, "a", 24000], "internal_node_id": "0.0-157.0", "trial": 5, "time_elapsed": 959856, "serialpos": 2, "key_press": -1, "wordID": 260, "type": "PRES_AUD", "trial_index": 211}, "uniqueid": "MTK3777:374TNBHA8C2P1SMWY44S3T5706WQYD", "dateTime": 1521387997433}, {"current_trial": 212, "trialdata": {"rt": -1000, "trial_type": "single-audio", "word": "tombstone", "stimulus": "/static/audio/wordpool/TOMBSTONE.wav", "conditions": [24, 800, "a", 24000], "internal_node_id": "0.0-158.0", "trial": 5, "time_elapsed": 961523, "serialpos": 3, "key_press": -1, "wordID": 1477, "type": "PRES_AUD", "trial_index": 212}, "uniqueid": "MTK3777:374TNBHA8C2P1SMWY44S3T5706WQYD", "dateTime": 1521387999101}, {"current_trial": 213, "trialdata": {"rt": -1000, "trial_type": "single-audio", "word": "pliers", "stimulus": "/static/audio/wordpool/PLIERS.wav", "conditions": [24, 800, "a", 24000], "internal_node_id": "0.0-159.0", "trial": 5, "time_elapsed": 963391, "serialpos": 4, "key_press": -1, "wordID": 1088, "type": "PRES_AUD", "trial_index": 213}, "uniqueid": "MTK3777:374TNBHA8C2P1SMWY44S3T5706WQYD", "dateTime": 1521388000968}, {"current_trial": 214, "trialdata": {"rt": -1000, "trial_type": "single-audio", "word": "poet", "stimulus": "/static/audio/wordpool/POET.wav", "conditions": [24, 800, "a", 24000], "internal_node_id": "0.0-160.0", "trial": 5, "time_elapsed": 965034, "serialpos": 5, "key_press": -1, "wordID": 1094, "type": "PRES_AUD", "trial_index": 214}, "uniqueid": "MTK3777:374TNBHA8C2P1SMWY44S3T5706WQYD", "dateTime": 1521388002611}, {"current_trial": 215, "trialdata": {"rt": -1000, "trial_type": "single-audio", "word": "portrait", "stimulus": "/static/audio/wordpool/PORTRAIT.wav", "conditions": [24, 800, "a", 24000], "internal_node_id": "0.0-161.0", "trial": 5, "time_elapsed": 966825, "serialpos": 6, "key_press": -1, "wordID": 1110, "type": "PRES_AUD", "trial_index": 215}, "uniqueid": "MTK3777:374TNBHA8C2P1SMWY44S3T5706WQYD", "dateTime": 1521388004402}, {"current_trial": 216, "trialdata": {"rt": -1000, "trial_type": "single-audio", "word": "chemist", "stimulus": "/static/audio/wordpool/CHEMIST.wav", "conditions": [24, 800, "a", 24000], "internal_node_id": "0.0-162.0", "trial": 5, "time_elapsed": 968717, "serialpos": 7, "key_press": -1, "wordID": 291, "type": "PRES_AUD", "trial_index": 216}, "uniqueid": "MTK3777:374TNBHA8C2P1SMWY44S3T5706WQYD", "dateTime": 1521388006294}, {"current_trial": 217, "trialdata": {"rt": -1000, "trial_type": "single-audio", "word": "author", "stimulus": "/static/audio/wordpool/AUTHOR.wav", "conditions": [24, 800, "a", 24000], "internal_node_id": "0.0-163.0", "trial": 5, "time_elapsed": 970417, "serialpos": 8, "key_press": -1, "wordID": 60, "type": "PRES_AUD", "trial_index": 217}, "uniqueid": "MTK3777:374TNBHA8C2P1SMWY44S3T5706WQYD", "dateTime": 1521388007994}, {"current_trial": 218, "trialdata": {"rt": -1000, "trial_type": "single-audio", "word": "turnip", "stimulus": "/static/audio/wordpool/TURNIP.wav", "conditions": [24, 800, "a", 24000], "internal_node_id": "0.0-164.0", "trial": 5, "time_elapsed": 972372, "serialpos": 9, "key_press": -1, "wordID": 1520, "type": "PRES_AUD", "trial_index": 218}, "uniqueid": "MTK3777:374TNBHA8C2P1SMWY44S3T5706WQYD", "dateTime": 1521388009949}, {"current_trial": 219, "trialdata": {"rt": -1000, "trial_type": "single-audio", "word": "cabbage", "stimulus": "/static/audio/wordpool/CABBAGE.wav", "conditions": [24, 800, "a", 24000], "internal_node_id": "0.0-165.0", "trial": 5, "time_elapsed": 974369, "serialpos": 10, "key_press": -1, "wordID": 209, "type": "PRES_AUD", "trial_index": 219}, "uniqueid": "MTK3777:374TNBHA8C2P1SMWY44S3T5706WQYD", "dateTime": 1521388011946}, {"current_trial": 220, "trialdata": {"rt": -1000, "trial_type": "single-audio", "word": "knife", "stimulus": "/static/audio/wordpool/KNIFE.wav", "conditions": [24, 800, "a", 24000], "internal_node_id": "0.0-166.0", "trial": 5, "time_elapsed": 976306, "serialpos": 11, "key_press": -1, "wordID": 784, "type": "PRES_AUD", "trial_index": 220}, "uniqueid": "MTK3777:374TNBHA8C2P1SMWY44S3T5706WQYD", "dateTime": 1521388013884}, {"current_trial": 221, "trialdata": {"rt": -1000, "trial_type": "single-audio", "word": "luggage", "stimulus": "/static/audio/wordpool/LUGGAGE.wav", "conditions": [24, 800, "a", 24000], "internal_node_id": "0.0-167.0", "trial": 5, "time_elapsed": 978092, "serialpos": 12, "key_press": -1, "wordID": 846, "type": "PRES_AUD", "trial_index": 221}, "uniqueid": "MTK3777:374TNBHA8C2P1SMWY44S3T5706WQYD", "dateTime": 1521388015669}, {"current_trial": 222, "trialdata": {"rt": -1000, "trial_type": "single-audio", "word": "carriage", "stimulus": "/static/audio/wordpool/CARRIAGE.wav", "conditions": [24, 800, "a", 24000], "internal_node_id": "0.0-168.0", "trial": 5, "time_elapsed": 979871, "serialpos": 13, "key_press": -1, "wordID": 247, "type": "PRES_AUD", "trial_index": 222}, "uniqueid": "MTK3777:374TNBHA8C2P1SMWY44S3T5706WQYD", "dateTime": 1521388017448}, {"current_trial": 223, "trialdata": {"rt": -1000, "trial_type": "single-audio", "word": "thief", "stimulus": "/static/audio/wordpool/THIEF.wav", "conditions": [24, 800, "a", 24000], "internal_node_id": "0.0-169.0", "trial": 5, "time_elapsed": 981607, "serialpos": 14, "key_press": -1, "wordID": 1455, "type": "PRES_AUD", "trial_index": 223}, "uniqueid": "MTK3777:374TNBHA8C2P1SMWY44S3T5706WQYD", "dateTime": 1521388019184}, {"current_trial": 224, "trialdata": {"rt": -1000, "trial_type": "single-audio", "word": "motel", "stimulus": "/static/audio/wordpool/MOTEL.wav", "conditions": [24, 800, "a", 24000], "internal_node_id": "0.0-170.0", "trial": 5, "time_elapsed": 983344, "serialpos": 15, "key_press": -1, "wordID": 918, "type": "PRES_AUD", "trial_index": 224}, "uniqueid": "MTK3777:374TNBHA8C2P1SMWY44S3T5706WQYD", "dateTime": 1521388020922}, {"current_trial": 225, "trialdata": {"rt": -1000, "trial_type": "single-audio", "word": "razor", "stimulus": "/static/audio/wordpool/RAZOR.wav", "conditions": [24, 800, "a", 24000], "internal_node_id": "0.0-171.0", "trial": 5, "time_elapsed": 985338, "serialpos": 16, "key_press": -1, "wordID": 1170, "type": "PRES_AUD", "trial_index": 225}, "uniqueid": "MTK3777:374TNBHA8C2P1SMWY44S3T5706WQYD", "dateTime": 1521388022915}, {"current_trial": 226, "trialdata": {"rt": -1000, "trial_type": "single-audio", "word": "pasta", "stimulus": "/static/audio/wordpool/PASTA.wav", "conditions": [24, 800, "a", 24000], "internal_node_id": "0.0-172.0", "trial": 5, "time_elapsed": 987248, "serialpos": 17, "key_press": -1, "wordID": 1020, "type": "PRES_AUD", "trial_index": 226}, "uniqueid": "MTK3777:374TNBHA8C2P1SMWY44S3T5706WQYD", "dateTime": 1521388024825}, {"current_trial": 227, "trialdata": {"rt": -1000, "trial_type": "single-audio", "word": "burglar", "stimulus": "/static/audio/wordpool/BURGLAR.wav", "conditions": [24, 800, "a", 24000], "internal_node_id": "0.0-173.0", "trial": 5, "time_elapsed": 989205, "serialpos": 18, "key_press": -1, "wordID": 199, "type": "PRES_AUD", "trial_index": 227}, "uniqueid": "MTK3777:374TNBHA8C2P1SMWY44S3T5706WQYD", "dateTime": 1521388026782}, {"current_trial": 228, "trialdata": {"rt": -1000, "trial_type": "single-audio", "word": "shark", "stimulus": "/static/audio/wordpool/SHARK.wav", "conditions": [24, 800, "a", 24000], "internal_node_id": "0.0-174.0", "trial": 5, "time_elapsed": 990905, "serialpos": 19, "key_press": -1, "wordID": 1274, "type": "PRES_AUD", "trial_index": 228}, "uniqueid": "MTK3777:374TNBHA8C2P1SMWY44S3T5706WQYD", "dateTime": 1521388028482}, {"current_trial": 229, "trialdata": {"rt": -1000, "trial_type": "single-audio", "word": "lover", "stimulus": "/static/audio/wordpool/LOVER.wav", "conditions": [24, 800, "a", 24000], "internal_node_id": "0.0-175.0", "trial": 5, "time_elapsed": 992675, "serialpos": 20, "key_press": -1, "wordID": 845, "type": "PRES_AUD", "trial_index": 229}, "uniqueid": "MTK3777:374TNBHA8C2P1SMWY44S3T5706WQYD", "dateTime": 1521388030252}, {"current_trial": 230, "trialdata": {"rt": -1000, "trial_type": "single-audio", "word": "boyfriend", "stimulus": "/static/audio/wordpool/BOYFRIEND.wav", "conditions": [24, 800, "a", 24000], "internal_node_id": "0.0-176.0", "trial": 5, "time_elapsed": 994305, "serialpos": 21, "key_press": -1, "wordID": 161, "type": "PRES_AUD", "trial_index": 230}, "uniqueid": "MTK3777:374TNBHA8C2P1SMWY44S3T5706WQYD", "dateTime": 1521388031883}, {"current_trial": 231, "trialdata": {"rt": -1000, "trial_type": "single-audio", "word": "bike", "stimulus": "/static/audio/wordpool/BIKE.wav", "conditions": [24, 800, "a", 24000], "internal_node_id": "0.0-177.0", "trial": 5, "time_elapsed": 996057, "serialpos": 22, "key_press": -1, "wordID": 124, "type": "PRES_AUD", "trial_index": 231}, "uniqueid": "MTK3777:374TNBHA8C2P1SMWY44S3T5706WQYD", "dateTime": 1521388033634}, {"current_trial": 232, "trialdata": {"rt": -1000, "trial_type": "single-audio", "word": "atom", "stimulus": "/static/audio/wordpool/ATOM.wav", "conditions": [24, 800, "a", 24000], "internal_node_id": "0.0-178.0", "trial": 5, "time_elapsed": 997811, "serialpos": 23, "key_press": -1, "wordID": 54, "type": "PRES_AUD", "trial_index": 232}, "uniqueid": "MTK3777:374TNBHA8C2P1SMWY44S3T5706WQYD", "dateTime": 1521388035388}, {"current_trial": 233, "trialdata": {"rt": -1, "trial_type": "single-stim", "stimulus": "", "internal_node_id": "0.0-179.0-0.0", "time_elapsed": 999041, "key_press": -1, "type": "PRE_RECALL_DELAY", "trial_index": 233}, "uniqueid": "MTK3777:374TNBHA8C2P1SMWY44S3T5706WQYD", "dateTime": 1521388036618}, {"current_trial": 234, "trialdata": {"rt": -1000, "trial_type": "single-audio", "stimulus": "/static/audio/400Hz.wav", "internal_node_id": "0.0-180.0", "time_elapsed": 999542, "key_press": -1, "type": "PRE_RECALL_ALERT", "trial_index": 234}, "uniqueid": "MTK3777:374TNBHA8C2P1SMWY44S3T5706WQYD", "dateTime": 1521388037119}, {"current_trial": 235, "trialdata": {"rt": [1505, 3046, 4386, 9560, 12204, 19640, 25636], "recwords": ["atom", "boyfriend", "lover", "atom", "bike", "neutron", "rack"], "key_times": [1011, 1100, 1178, 1270, 1505, 1719, 1876, 1968, 2236, 2492, 2607, 2709, 2802, 2901, 3046, 3226, 3374, 3508, 3631, 3845, 4386, 8772, 8863, 9212, 9349, 9560, 11644, 11743, 11945, 12091, 12204, 18459, 18639, 18763, 18932, 19077, 19168, 19438, 19640, 24962, 25063, 25287, 25389, 25636], "trial_type": "free-recall", "conditions": [24, 800, "a", 24000], "internal_node_id": "0.0-181.0-0.0", "key_presses": [65, 84, 79, 77, 13, 66, 79, 89, 70, 82, 73, 69, 78, 68, 13, 76, 79, 86, 69, 82, 13, 65, 84, 79, 77, 13, 66, 73, 75, 69, 13, 78, 69, 85, 84, 82, 79, 78, 13, 82, 65, 67, 75, 13], "trial": 5, "time_elapsed": 1059551, "type": "FREE_RECALL", "trial_index": 235}, "uniqueid": "MTK3777:374TNBHA8C2P1SMWY44S3T5706WQYD", "dateTime": 1521388097131}, {"current_trial": 236, "trialdata": {"rt": 1793, "trial_type": "text", "internal_node_id": "0.0-182.0", "time_elapsed": 1063353, "key_press": 32, "type": "INSTRUCTIONS", "trial_index": 236}, "uniqueid": "MTK3777:374TNBHA8C2P1SMWY44S3T5706WQYD", "dateTime": 1521388100930}, {"current_trial": 237, "trialdata": {"rt": [2710, 5612, 8943, 11474, 14106, 16323, 18495, 20293, 22600], "trial_type": "math-distractor", "key_times": [2450, 2530, 2710, 5151, 5242, 5612, 8609, 8682, 8943, 11193, 11474, 13803, 13925, 14106, 16187, 16323, 18156, 18370, 18495, 20181, 20293, 22139, 22456, 22600], "responses": ["12", "14", "19", "8", "14", "7", "15", "7", "17"], "num2": [7, 1, 8, 1, 5, 2, 5, 1, 3, 9], "num3": [1, 8, 7, 2, 6, 4, 7, 5, 7, 7], "conditions": [12, 1600, "a", 24000], "internal_node_id": "0.0-183.0", "key_presses": [49, 50, 13, 49, 52, 13, 49, 57, 13, 56, 13, 49, 52, 13, 55, 13, 49, 53, 13, 55, 13, 49, 55, 13], "trial": 6, "time_elapsed": 1089362, "type": "DISTRACTOR", "trial_index": 237, "num1": [4, 5, 4, 5, 3, 1, 3, 1, 7, 1]}, "uniqueid": "MTK3777:374TNBHA8C2P1SMWY44S3T5706WQYD", "dateTime": 1521388126939}, {"current_trial": 238, "trialdata": {"rt": -1, "trial_type": "single-stim", "stimulus": "<p id=\"stim\">10</p>", "internal_node_id": "0.0-184.0-0.0", "time_elapsed": 1092368, "key_press": -1, "trial_index": 238}, "uniqueid": "MTK3777:374TNBHA8C2P1SMWY44S3T5706WQYD", "dateTime": 1521388129945}, {"current_trial": 239, "trialdata": {"rt": -1, "trial_type": "single-stim", "stimulus": "<p id=\"stim\">9</p>", "internal_node_id": "0.0-184.0-1.0", "time_elapsed": 1093371, "key_press": -1, "trial_index": 239}, "uniqueid": "MTK3777:374TNBHA8C2P1SMWY44S3T5706WQYD", "dateTime": 1521388130948}, {"current_trial": 240, "trialdata": {"rt": -1, "trial_type": "single-stim", "stimulus": "<p id=\"stim\">8</p>", "internal_node_id": "0.0-184.0-2.0", "time_elapsed": 1094377, "key_press": -1, "trial_index": 240}, "uniqueid": "MTK3777:374TNBHA8C2P1SMWY44S3T5706WQYD", "dateTime": 1521388131954}, {"current_trial": 241, "trialdata": {"rt": -1, "trial_type": "single-stim", "stimulus": "<p id=\"stim\">7</p>", "internal_node_id": "0.0-184.0-3.0", "time_elapsed": 1095382, "key_press": -1, "trial_index": 241}, "uniqueid": "MTK3777:374TNBHA8C2P1SMWY44S3T5706WQYD", "dateTime": 1521388132959}, {"current_trial": 242, "trialdata": {"rt": -1, "trial_type": "single-stim", "stimulus": "<p id=\"stim\">6</p>", "internal_node_id": "0.0-184.0-4.0", "time_elapsed": 1096385, "key_press": -1, "trial_index": 242}, "uniqueid": "MTK3777:374TNBHA8C2P1SMWY44S3T5706WQYD", "dateTime": 1521388133962}, {"current_trial": 243, "trialdata": {"rt": -1, "trial_type": "single-stim", "stimulus": "<p id=\"stim\">5</p>", "internal_node_id": "0.0-184.0-5.0", "time_elapsed": 1097389, "key_press": -1, "tr