{"assignmentId": "3RXPCZQMQQI1YXHFJJS7VSQVLSHG1Z", "workerId": "MTK3145", "questiondata": {"origin": "United States", "strat-rehearsal": "56", "marital": "Married/Domestic Partnership", "education": "Master's degree", "ethnicity": "Hispanic", "color_depth": 24, "distracted": "No", "wrote-notes": "No", "strat-other": "Creating silly song lyrics", "screen_width": 1536, "avail_screen_width": 1536, "avail_screen_height": 826, "strat-image": "94", "language": "English", "gender": "Male", "age": "-50", "gender_other": "", "race": ["White"], "strat-categorize": "70", "pixel_depth": 24, "strat-spatial": "84", "strat-story": "11", "race_other": "", "screen_height": 864}, "bonus": 0, "hitId": "386659BNTLO20980FFY2LG7VUG0104", "counterbalance": 1457, "useragent": "Mozilla/5.0 (Windows NT 6.3; Win64; x64) AppleWebKit/537.36 (KHTML, like Gecko) Chrome/64.0.3282.186 Safari/537.36", "eventdata": [{"eventtype": "initialized", "interval": 0, "value": null, "timestamp": 1520108401811}, {"eventtype": "window_resize", "interval": 0, "value": [1526, 802], "timestamp": 1520108401811}, {"eventtype": "focus", "interval": 8358, "value": "off", "timestamp": 1520108410169}, {"eventtype": "focus", "interval": 3044, "value": "on", "timestamp": 1520108413213}, {"eventtype": "focus", "interval": 6034, "value": "off", "timestamp": 1520108419247}, {"eventtype": "focus", "interval": 14120, "value": "on", "timestamp": 1520108433367}, {"eventtype": "focus", "interval": 3179162, "value": "off", "timestamp": 1520111612529}, {"eventtype": "focus", "interval": 6844, "value": "on", "timestamp": 1520111619373}, {"eventtype": "focus", "interval": 356, "value": "off", "timestamp": 1520111619729}, {"eventtype": "focus", "interval": 2419, "value": "on", "timestamp": 1520111622148}, {"eventtype": "focus", "interval": 2, "value": "off", "timestamp": 1520111622150}, {"eventtype": "focus", "interval": 2, "value": "on", "timestamp": 1520111622152}, {"eventtype": "focus", "interval": 12, "value": "off", "timestamp": 1520111622164}, {"eventtype": "focus", "interval": 1828, "value": "on", "timestamp": 1520111623992}], "data": [{"current_trial": 0, "trialdata": {"rt": 5279, "trial_type": "text", "internal_node_id": "0.0-0.0", "time_elapsed": 5282, "key_press": 32, "type": "INSTRUCTIONS", "trial_index": 0}, "uniqueid": "MTK3145:3RXPCZQMQQI1YXHFJJS7VSQVLSHG1Z", "dateTime": 1520108415534}, {"current_trial": 1, "trialdata": {"rt": 18720, "trial_type": "text", "internal_node_id": "0.0-1.0", "time_elapsed": 24005, "key_press": 32, "type": "INSTRUCTIONS", "trial_index": 1}, "uniqueid": "MTK3145:3RXPCZQMQQI1YXHFJJS7VSQVLSHG1Z", "dateTime": 1520108434256}, {"current_trial": 2, "trialdata": {"rt": [8372], "trial_type": "audio-test", "responses": ["ocean"], "internal_node_id": "0.0-2.0", "time_elapsed": 32400, "type": "AUDIO_TEST", "trial_index": 2}, "uniqueid": "MTK3145:3RXPCZQMQQI1YXHFJJS7VSQVLSHG1Z", "dateTime": 1520108442652}, {"current_trial": 3, "trialdata": {"rt": [6825], "trial_type": "audio-test", "responses": ["crystal"], "internal_node_id": "0.0-3.0", "time_elapsed": 39230, "type": "AUDIO_TEST", "trial_index": 3}, "uniqueid": "MTK3145:3RXPCZQMQQI1YXHFJJS7VSQVLSHG1Z", "dateTime": 1520108449481}, {"current_trial": 4, "trialdata": {"rt": [7528], "trial_type": "audio-test", "responses": ["spice"], "internal_node_id": "0.0-4.0", "time_elapsed": 46762, "type": "AUDIO_TEST", "trial_index": 4}, "uniqueid": "MTK3145:3RXPCZQMQQI1YXHFJJS7VSQVLSHG1Z", "dateTime": 1520108457013}, {"current_trial": 5, "trialdata": {"rt": 17117, "trial_type": "survey-text", "responses": "{\"Q0\":\"11\",\"Q1\":\"7\",\"Q2\":\"4\"}", "internal_node_id": "0.0-5.0", "time_elapsed": 64633, "type": "SLEEP_SURVEY", "trial_index": 5}, "uniqueid": "MTK3145:3RXPCZQMQQI1YXHFJJS7VSQVLSHG1Z", "dateTime": 1520108474885}, {"current_trial": 6, "trialdata": {"rt": 33639, "trial_type": "text", "internal_node_id": "0.0-6.0", "time_elapsed": 99275, "key_press": 32, "type": "INSTRUCTIONS", "trial_index": 6}, "uniqueid": "MTK3145:3RXPCZQMQQI1YXHFJJS7VSQVLSHG1Z", "dateTime": 1520108509526}, {"current_trial": 7, "trialdata": {"rt": 6271, "trial_type": "text", "internal_node_id": "0.0-7.0", "time_elapsed": 106049, "key_press": 32, "type": "INSTRUCTIONS", "trial_index": 7}, "uniqueid": "MTK3145:3RXPCZQMQQI1YXHFJJS7VSQVLSHG1Z", "dateTime": 1520108516300}, {"current_trial": 8, "trialdata": {"rt": 120566, "trial_type": "text", "internal_node_id": "0.0-8.0", "time_elapsed": 227118, "key_press": 32, "type": "INSTRUCTIONS", "trial_index": 8}, "uniqueid": "MTK3145:3RXPCZQMQQI1YXHFJJS7VSQVLSHG1Z", "dateTime": 1520108637369}, {"current_trial": 9, "trialdata": {"rt": [3629, 5650, 15099, 17849], "trial_type": "math-distractor", "key_times": [2537, 2965, 3629, 5137, 5405, 5650, 7630, 7814, 11426, 12410, 15099, 17391, 17621, 17849], "responses": ["17", "13", "14", "20"], "num2": [3, 6, 3, 6, 9], "num3": [6, 5, 5, 6, 6], "conditions": [18, 1200, "a", 18000], "internal_node_id": "0.0-9.0", "key_presses": [97, 103, 13, 97, 99, 13, 97, 100, 8, 100, 13, 98, 96, 13], "trial": 0, "time_elapsed": 246130, "type": "DISTRACTOR", "trial_index": 9, "num1": [8, 2, 6, 8, 8]}, "uniqueid": "MTK3145:3RXPCZQMQQI1YXHFJJS7VSQVLSHG1Z", "dateTime": 1520108656381}, {"current_trial": 10, "trialdata": {"rt": -1, "trial_type": "single-stim", "stimulus": "<p id=\"stim\">10</p>", "internal_node_id": "0.0-10.0-0.0", "time_elapsed": 249134, "key_press": -1, "trial_index": 10}, "uniqueid": "MTK3145:3RXPCZQMQQI1YXHFJJS7VSQVLSHG1Z", "dateTime": 1520108659385}, {"current_trial": 11, "trialdata": {"rt": -1, "trial_type": "single-stim", "stimulus": "<p id=\"stim\">9</p>", "internal_node_id": "0.0-10.0-1.0", "time_elapsed": 250137, "key_press": -1, "trial_index": 11}, "uniqueid": "MTK3145:3RXPCZQMQQI1YXHFJJS7VSQVLSHG1Z", "dateTime": 1520108660388}, {"current_trial": 12, "trialdata": {"rt": -1, "trial_type": "single-stim", "stimulus": "<p id=\"stim\">8</p>", "internal_node_id": "0.0-10.0-2.0", "time_elapsed": 251138, "key_press": -1, "trial_index": 12}, "uniqueid": "MTK3145:3RXPCZQMQQI1YXHFJJS7VSQVLSHG1Z", "dateTime": 1520108661390}, {"current_trial": 13, "trialdata": {"rt": -1, "trial_type": "single-stim", "stimulus": "<p id=\"stim\">7</p>", "internal_node_id": "0.0-10.0-3.0", "time_elapsed": 252140, "key_press": -1, "trial_index": 13}, "uniqueid": "MTK3145:3RXPCZQMQQI1YXHFJJS7VSQVLSHG1Z", "dateTime": 1520108662392}, {"current_trial": 14, "trialdata": {"rt": -1, "trial_type": "single-stim", "stimulus": "<p id=\"stim\">6</p>", "internal_node_id": "0.0-10.0-4.0", "time_elapsed": 253142, "key_press": -1, "trial_index": 14}, "uniqueid": "MTK3145:3RXPCZQMQQI1YXHFJJS7VSQVLSHG1Z", "dateTime": 1520108663393}, {"current_trial": 15, "trialdata": {"rt": -1, "trial_type": "single-stim", "stimulus": "<p id=\"stim\">5</p>", "internal_node_id": "0.0-10.0-5.0", "time_elapsed": 254144, "key_press": -1, "trial_index": 15}, "uniqueid": "MTK3145:3RXPCZQMQQI1YXHFJJS7VSQVLSHG1Z", "dateTime": 1520108664395}, {"current_trial": 16, "trialdata": {"rt": -1, "trial_type": "single-stim", "stimulus": "<p id=\"stim\">4</p>", "internal_node_id": "0.0-10.0-6.0", "time_elapsed": 255146, "key_press": -1, "trial_index": 16}, "uniqueid": "MTK3145:3RXPCZQMQQI1YXHFJJS7VSQVLSHG1Z", "dateTime": 1520108665397}, {"current_trial": 17, "trialdata": {"rt": -1, "trial_type": "single-stim", "stimulus": "<p id=\"stim\">3</p>", "internal_node_id": "0.0-10.0-7.0", "time_elapsed": 256148, "key_press": -1, "trial_index": 17}, "uniqueid": "MTK3145:3RXPCZQMQQI1YXHFJJS7VSQVLSHG1Z", "dateTime": 1520108666399}, {"current_trial": 18, "trialdata": {"rt": -1, "trial_type": "single-stim", "stimulus": "<p id=\"stim\">2</p>", "internal_node_id": "0.0-10.0-8.0", "time_elapsed": 257151, "key_press": -1, "trial_index": 18}, "uniqueid": "MTK3145:3RXPCZQMQQI1YXHFJJS7VSQVLSHG1Z", "dateTime": 1520108667403}, {"current_trial": 19, "trialdata": {"rt": -1, "trial_type": "single-stim", "stimulus": "<p id=\"stim\">1</p>", "internal_node_id": "0.0-10.0-9.0", "time_elapsed": 258154, "key_press": -1, "trial_index": 19}, "uniqueid": "MTK3145:3RXPCZQMQQI1YXHFJJS7VSQVLSHG1Z", "dateTime": 1520108668405}, {"current_trial": 20, "trialdata": {"rt": -1, "trial_type": "single-stim", "stimulus": "<p id=\"stim\">+</p>", "internal_node_id": "0.0-11.0-0.0", "time_elapsed": 259657, "key_press": -1, "type": "FIXATION", "trial_index": 20}, "uniqueid": "MTK3145:3RXPCZQMQQI1YXHFJJS7VSQVLSHG1Z", "dateTime": 1520108669908}, {"current_trial": 21, "trialdata": {"rt": -1000, "trial_type": "single-audio", "word": "chipmunk", "stimulus": "/static/audio/wordpool/CHIPMUNK.wav", "conditions": [18, 1200, "a", 18000], "internal_node_id": "0.0-12.0", "trial": 0, "time_elapsed": 261730, "serialpos": 0, "key_press": -1, "wordID": 303, "type": "PRES_AUD", "trial_index": 21}, "uniqueid": "MTK3145:3RXPCZQMQQI1YXHFJJS7VSQVLSHG1Z", "dateTime": 1520108671981}, {"current_trial": 22, "trialdata": {"rt": -1000, "trial_type": "single-audio", "word": "salmon", "stimulus": "/static/audio/wordpool/SALMON.wav", "conditions": [18, 1200, "a", 18000], "internal_node_id": "0.0-13.0", "trial": 0, "time_elapsed": 263793, "serialpos": 1, "key_press": -1, "wordID": 1226, "type": "PRES_AUD", "trial_index": 22}, "uniqueid": "MTK3145:3RXPCZQMQQI1YXHFJJS7VSQVLSHG1Z", "dateTime": 1520108674045}, {"current_trial": 23, "trialdata": {"rt": -1000, "trial_type": "single-audio", "word": "lover", "stimulus": "/static/audio/wordpool/LOVER.wav", "conditions": [18, 1200, "a", 18000], "internal_node_id": "0.0-14.0", "trial": 0, "time_elapsed": 266037, "serialpos": 2, "key_press": -1, "wordID": 845, "type": "PRES_AUD", "trial_index": 23}, "uniqueid": "MTK3145:3RXPCZQMQQI1YXHFJJS7VSQVLSHG1Z", "dateTime": 1520108676289}, {"current_trial": 24, "trialdata": {"rt": -1000, "trial_type": "single-audio", "word": "truck", "stimulus": "/static/audio/wordpool/TRUCK.wav", "conditions": [18, 1200, "a", 18000], "internal_node_id": "0.0-15.0", "trial": 0, "time_elapsed": 268148, "serialpos": 3, "key_press": -1, "wordID": 1511, "type": "PRES_AUD", "trial_index": 24}, "uniqueid": "MTK3145:3RXPCZQMQQI1YXHFJJS7VSQVLSHG1Z", "dateTime": 1520108678399}, {"current_trial": 25, "trialdata": {"rt": -1000, "trial_type": "single-audio", "word": "outfit", "stimulus": "/static/audio/wordpool/OUTFIT.wav", "conditions": [18, 1200, "a", 18000], "internal_node_id": "0.0-16.0", "trial": 0, "time_elapsed": 270396, "serialpos": 4, "key_press": -1, "wordID": 987, "type": "PRES_AUD", "trial_index": 25}, "uniqueid": "MTK3145:3RXPCZQMQQI1YXHFJJS7VSQVLSHG1Z", "dateTime": 1520108680647}, {"current_trial": 26, "trialdata": {"rt": -1000, "trial_type": "single-audio", "word": "apron", "stimulus": "/static/audio/wordpool/APRON.wav", "conditions": [18, 1200, "a", 18000], "internal_node_id": "0.0-17.0", "trial": 0, "time_elapsed": 272572, "serialpos": 5, "key_press": -1, "wordID": 34, "type": "PRES_AUD", "trial_index": 26}, "uniqueid": "MTK3145:3RXPCZQMQQI1YXHFJJS7VSQVLSHG1Z", "dateTime": 1520108682823}, {"current_trial": 27, "trialdata": {"rt": -1000, "trial_type": "single-audio", "word": "cross", "stimulus": "/static/audio/wordpool/CROSS.wav", "conditions": [18, 1200, "a", 18000], "internal_node_id": "0.0-18.0", "trial": 0, "time_elapsed": 274628, "serialpos": 6, "key_press": -1, "wordID": 412, "type": "PRES_AUD", "trial_index": 27}, "uniqueid": "MTK3145:3RXPCZQMQQI1YXHFJJS7VSQVLSHG1Z", "dateTime": 1520108684879}, {"current_trial": 28, "trialdata": {"rt": -1000, "trial_type": "single-audio", "word": "parent", "stimulus": "/static/audio/wordpool/PARENT.wav", "conditions": [18, 1200, "a", 18000], "internal_node_id": "0.0-19.0", "trial": 0, "time_elapsed": 276883, "serialpos": 7, "key_press": -1, "wordID": 1012, "type": "PRES_AUD", "trial_index": 28}, "uniqueid": "MTK3145:3RXPCZQMQQI1YXHFJJS7VSQVLSHG1Z", "dateTime": 1520108687134}, {"current_trial": 29, "trialdata": {"rt": -1000, "trial_type": "single-audio", "word": "shorts", "stimulus": "/static/audio/wordpool/SHORTS.wav", "conditions": [18, 1200, "a", 18000], "internal_node_id": "0.0-20.0", "trial": 0, "time_elapsed": 279179, "serialpos": 8, "key_press": -1, "wordID": 1292, "type": "PRES_AUD", "trial_index": 29}, "uniqueid": "MTK3145:3RXPCZQMQQI1YXHFJJS7VSQVLSHG1Z", "dateTime": 1520108689430}, {"current_trial": 30, "trialdata": {"rt": -1000, "trial_type": "single-audio", "word": "victim", "stimulus": "/static/audio/wordpool/VICTIM.wav", "conditions": [18, 1200, "a", 18000], "internal_node_id": "0.0-21.0", "trial": 0, "time_elapsed": 281522, "serialpos": 9, "key_press": -1, "wordID": 1561, "type": "PRES_AUD", "trial_index": 30}, "uniqueid": "MTK3145:3RXPCZQMQQI1YXHFJJS7VSQVLSHG1Z", "dateTime": 1520108691773}, {"current_trial": 31, "trialdata": {"rt": -1000, "trial_type": "single-audio", "word": "table", "stimulus": "/static/audio/wordpool/TABLE.wav", "conditions": [18, 1200, "a", 18000], "internal_node_id": "0.0-22.0", "trial": 0, "time_elapsed": 283760, "serialpos": 10, "key_press": -1, "wordID": 1425, "type": "PRES_AUD", "trial_index": 31}, "uniqueid": "MTK3145:3RXPCZQMQQI1YXHFJJS7VSQVLSHG1Z", "dateTime": 1520108694011}, {"current_trial": 32, "trialdata": {"rt": -1000, "trial_type": "single-audio", "word": "wife", "stimulus": "/static/audio/wordpool/WIFE.wav", "conditions": [18, 1200, "a", 18000], "internal_node_id": "0.0-23.0", "trial": 0, "time_elapsed": 285777, "serialpos": 11, "key_press": -1, "wordID": 1608, "type": "PRES_AUD", "trial_index": 32}, "uniqueid": "MTK3145:3RXPCZQMQQI1YXHFJJS7VSQVLSHG1Z", "dateTime": 1520108696028}, {"current_trial": 33, "trialdata": {"rt": -1000, "trial_type": "single-audio", "word": "brick", "stimulus": "/static/audio/wordpool/BRICK.wav", "conditions": [18, 1200, "a", 18000], "internal_node_id": "0.0-24.0", "trial": 0, "time_elapsed": 288075, "serialpos": 12, "key_press": -1, "wordID": 171, "type": "PRES_AUD", "trial_index": 33}, "uniqueid": "MTK3145:3RXPCZQMQQI1YXHFJJS7VSQVLSHG1Z", "dateTime": 1520108698326}, {"current_trial": 34, "trialdata": {"rt": -1000, "trial_type": "single-audio", "word": "dandruff", "stimulus": "/static/audio/wordpool/DANDRUFF.wav", "conditions": [18, 1200, "a", 18000], "internal_node_id": "0.0-25.0", "trial": 0, "time_elapsed": 290242, "serialpos": 13, "key_press": -1, "wordID": 438, "type": "PRES_AUD", "trial_index": 34}, "uniqueid": "MTK3145:3RXPCZQMQQI1YXHFJJS7VSQVLSHG1Z", "dateTime": 1520108700493}, {"current_trial": 35, "trialdata": {"rt": -1000, "trial_type": "single-audio", "word": "globe", "stimulus": "/static/audio/wordpool/GLOBE.wav", "conditions": [18, 1200, "a", 18000], "internal_node_id": "0.0-26.0", "trial": 0, "time_elapsed": 292591, "serialpos": 14, "key_press": -1, "wordID": 640, "type": "PRES_AUD", "trial_index": 35}, "uniqueid": "MTK3145:3RXPCZQMQQI1YXHFJJS7VSQVLSHG1Z", "dateTime": 1520108702842}, {"current_trial": 36, "trialdata": {"rt": -1000, "trial_type": "single-audio", "word": "playground", "stimulus": "/static/audio/wordpool/PLAYGROUND.wav", "conditions": [18, 1200, "a", 18000], "internal_node_id": "0.0-27.0", "trial": 0, "time_elapsed": 294816, "serialpos": 15, "key_press": -1, "wordID": 1086, "type": "PRES_AUD", "trial_index": 36}, "uniqueid": "MTK3145:3RXPCZQMQQI1YXHFJJS7VSQVLSHG1Z", "dateTime": 1520108705068}, {"current_trial": 37, "trialdata": {"rt": -1000, "trial_type": "single-audio", "word": "harp", "stimulus": "/static/audio/wordpool/HARP.wav", "conditions": [18, 1200, "a", 18000], "internal_node_id": "0.0-28.0", "trial": 0, "time_elapsed": 297196, "serialpos": 16, "key_press": -1, "wordID": 688, "type": "PRES_AUD", "trial_index": 37}, "uniqueid": "MTK3145:3RXPCZQMQQI1YXHFJJS7VSQVLSHG1Z", "dateTime": 1520108707447}, {"current_trial": 38, "trialdata": {"rt": -1000, "trial_type": "single-audio", "word": "wrist", "stimulus": "/static/audio/wordpool/WRIST.wav", "conditions": [18, 1200, "a", 18000], "internal_node_id": "0.0-29.0", "trial": 0, "time_elapsed": 299556, "serialpos": 17, "key_press": -1, "wordID": 1625, "type": "PRES_AUD", "trial_index": 38}, "uniqueid": "MTK3145:3RXPCZQMQQI1YXHFJJS7VSQVLSHG1Z", "dateTime": 1520108709807}, {"current_trial": 39, "trialdata": {"rt": -1, "trial_type": "single-stim", "stimulus": "", "internal_node_id": "0.0-30.0-0.0", "time_elapsed": 300914, "key_press": -1, "type": "PRE_RECALL_DELAY", "trial_index": 39}, "uniqueid": "MTK3145:3RXPCZQMQQI1YXHFJJS7VSQVLSHG1Z", "dateTime": 1520108711165}, {"current_trial": 40, "trialdata": {"rt": -1000, "trial_type": "single-audio", "stimulus": "/static/audio/400Hz.wav", "internal_node_id": "0.0-31.0", "time_elapsed": 301416, "key_press": -1, "type": "PRE_RECALL_ALERT", "trial_index": 40}, "uniqueid": "MTK3145:3RXPCZQMQQI1YXHFJJS7VSQVLSHG1Z", "dateTime": 1520108711667}, {"current_trial": 41, "trialdata": {"rt": [3042, 6009, 7450, 10512, 12482, 13939, 21487, 24982, 34261], "recwords": ["chipmonk", "salmon", "lover", "wrist", "wife", "lover", "table", "heart", "wife"], "key_times": [763, 894, 1055, 1260, 1575, 2080, 2236, 2463, 3042, 3908, 4364, 4493, 4688, 4859, 5387, 5616, 5718, 6009, 6483, 6683, 6800, 7079, 7181, 7450, 8165, 8409, 8575, 8676, 8892, 9635, 9801, 9926, 10064, 10512, 11679, 11855, 11988, 12158, 12482, 12850, 13066, 13168, 13371, 13536, 13939, 20340, 20526, 20747, 21105, 21283, 21487, 24118, 24208, 24345, 24487, 24750, 24982, 33153, 33324, 33393, 33905, 34261], "trial_type": "free-recall", "conditions": [18, 1200, "a", 18000], "internal_node_id": "0.0-32.0-0.0", "key_presses": [67, 72, 73, 80, 77, 79, 78, 75, 13, 83, 65, 76, 77, 65, 8, 79, 78, 13, 76, 79, 86, 69, 82, 13, 87, 82, 73, 84, 83, 8, 8, 83, 84, 13, 87, 73, 70, 69, 13, 76, 79, 86, 69, 82, 13, 84, 65, 66, 76, 69, 13, 72, 69, 65, 82, 84, 13, 87, 73, 70, 69, 13], "trial": 0, "time_elapsed": 361422, "type": "FREE_RECALL", "trial_index": 41}, "uniqueid": "MTK3145:3RXPCZQMQQI1YXHFJJS7VSQVLSHG1Z", "dateTime": 1520108771679}, {"current_trial": 42, "trialdata": {"rt": 1467, "trial_type": "text", "internal_node_id": "0.0-33.0", "time_elapsed": 364897, "key_press": 32, "type": "INSTRUCTIONS", "trial_index": 42}, "uniqueid": "MTK3145:3RXPCZQMQQI1YXHFJJS7VSQVLSHG1Z", "dateTime": 1520108775148}, {"current_trial": 43, "trialdata": {"rt": [3451, 6306, 8531, 10847, 12456, 15449, 17638], "trial_type": "math-distractor", "key_times": [2369, 3451, 5717, 5987, 6306, 8017, 8274, 8531, 10367, 10589, 10847, 11981, 12191, 12456, 14228, 14450, 15449, 16993, 17356, 17638], "responses": ["5", "15", "20", "14", "11", "21", "16"], "num2": [1, 2, 7, 6, 5, 4, 1, 1], "num3": [1, 6, 6, 4, 5, 8, 8, 2], "conditions": [18, 1200, "a", 18000], "internal_node_id": "0.0-34.0", "key_presses": [101, 13, 97, 101, 13, 98, 96, 13, 97, 100, 13, 97, 97, 13, 98, 97, 13, 97, 102, 13], "trial": 1, "time_elapsed": 384901, "type": "DISTRACTOR", "trial_index": 43, "num1": [3, 7, 7, 4, 1, 9, 7, 2]}, "uniqueid": "MTK3145:3RXPCZQMQQI1YXHFJJS7VSQVLSHG1Z", "dateTime": 1520108795152}, {"current_trial": 44, "trialdata": {"rt": -1, "trial_type": "single-stim", "stimulus": "<p id=\"stim\">10</p>", "internal_node_id": "0.0-35.0-0.0", "time_elapsed": 387904, "key_press": -1, "trial_index": 44}, "uniqueid": "MTK3145:3RXPCZQMQQI1YXHFJJS7VSQVLSHG1Z", "dateTime": 1520108798155}, {"current_trial": 45, "trialdata": {"rt": -1, "trial_type": "single-stim", "stimulus": "<p id=\"stim\">9</p>", "internal_node_id": "0.0-35.0-1.0", "time_elapsed": 388907, "key_press": -1, "trial_index": 45}, "uniqueid": "MTK3145:3RXPCZQMQQI1YXHFJJS7VSQVLSHG1Z", "dateTime": 1520108799159}, {"current_trial": 46, "trialdata": {"rt": -1, "trial_type": "single-stim", "stimulus": "<p id=\"stim\">8</p>", "internal_node_id": "0.0-35.0-2.0", "time_elapsed": 389909, "key_press": -1, "trial_index": 46}, "uniqueid": "MTK3145:3RXPCZQMQQI1YXHFJJS7VSQVLSHG1Z", "dateTime": 1520108800160}, {"current_trial": 47, "trialdata": {"rt": -1, "trial_type": "single-stim", "stimulus": "<p id=\"stim\">7</p>", "internal_node_id": "0.0-35.0-3.0", "time_elapsed": 390910, "key_press": -1, "trial_index": 47}, "uniqueid": "MTK3145:3RXPCZQMQQI1YXHFJJS7VSQVLSHG1Z", "dateTime": 1520108801161}, {"current_trial": 48, "trialdata": {"rt": -1, "trial_type": "single-stim", "stimulus": "<p id=\"stim\">6</p>", "internal_node_id": "0.0-35.0-4.0", "time_elapsed": 391912, "key_press": -1, "trial_index": 48}, "uniqueid": "MTK3145:3RXPCZQMQQI1YXHFJJS7VSQVLSHG1Z", "dateTime": 1520108802163}, {"current_trial": 49, "trialdata": {"rt": -1, "trial_type": "single-stim", "stimulus": "<p id=\"stim\">5</p>", "internal_node_id": "0.0-35.0-5.0", "time_elapsed": 392915, "key_press": -1, "trial_index": 49}, "uniqueid": "MTK3145:3RXPCZQMQQI1YXHFJJS7VSQVLSHG1Z", "dateTime": 1520108803166}, {"current_trial": 50, "trialdata": {"rt": -1, "trial_type": "single-stim", "stimulus": "<p id=\"stim\">4</p>", "internal_node_id": "0.0-35.0-6.0", "time_elapsed": 393916, "key_press": -1, "trial_index": 50}, "uniqueid": "MTK3145:3RXPCZQMQQI1YXHFJJS7VSQVLSHG1Z", "dateTime": 1520108804168}, {"current_trial": 51, "trialdata": {"rt": -1, "trial_type": "single-stim", "stimulus": "<p id=\"stim\">3</p>", "internal_node_id": "0.0-35.0-7.0", "time_elapsed": 394918, "key_press": -1, "trial_index": 51}, "uniqueid": "MTK3145:3RXPCZQMQQI1YXHFJJS7VSQVLSHG1Z", "dateTime": 1520108805169}, {"current_trial": 52, "trialdata": {"rt": -1, "trial_type": "single-stim", "stimulus": "<p id=\"stim\">2</p>", "internal_node_id": "0.0-35.0-8.0", "time_elapsed": 395920, "key_press": -1, "trial_index": 52}, "uniqueid": "MTK3145:3RXPCZQMQQI1YXHFJJS7VSQVLSHG1Z", "dateTime": 1520108806171}, {"current_trial": 53, "trialdata": {"rt": -1, "trial_type": "single-stim", "stimulus": "<p id=\"stim\">1</p>", "internal_node_id": "0.0-35.0-9.0", "time_elapsed": 396923, "key_press": -1, "trial_index": 53}, "uniqueid": "MTK3145:3RXPCZQMQQI1YXHFJJS7VSQVLSHG1Z", "dateTime": 1520108807174}, {"current_trial": 54, "trialdata": {"rt": -1, "trial_type": "single-stim", "stimulus": "<p id=\"stim\">+</p>", "internal_node_id": "0.0-36.0-0.0", "time_elapsed": 398425, "key_press": -1, "type": "FIXATION", "trial_index": 54}, "uniqueid": "MTK3145:3RXPCZQMQQI1YXHFJJS7VSQVLSHG1Z", "dateTime": 1520108808676}, {"current_trial": 55, "trialdata": {"rt": -1000, "trial_type": "single-audio", "word": "blackboard", "stimulus": "/static/audio/wordpool/BLACKBOARD.wav", "conditions": [18, 1200, "a", 18000], "internal_node_id": "0.0-37.0", "trial": 1, "time_elapsed": 400813, "serialpos": 0, "key_press": -1, "wordID": 132, "type": "PRES_AUD", "trial_index": 55}, "uniqueid": "MTK3145:3RXPCZQMQQI1YXHFJJS7VSQVLSHG1Z", "dateTime": 1520108811064}, {"current_trial": 56, "trialdata": {"rt": -1000, "trial_type": "single-audio", "word": "wardrobe", "stimulus": "/static/audio/wordpool/WARDROBE.wav", "conditions": [18, 1200, "a", 18000], "internal_node_id": "0.0-38.0", "trial": 1, "time_elapsed": 403195, "serialpos": 1, "key_press": -1, "wordID": 1586, "type": "PRES_AUD", "trial_index": 56}, "uniqueid": "MTK3145:3RXPCZQMQQI1YXHFJJS7VSQVLSHG1Z", "dateTime": 1520108813446}, {"current_trial": 57, "trialdata": {"rt": -1000, "trial_type": "single-audio", "word": "cashier", "stimulus": "/static/audio/wordpool/CASHIER.wav", "conditions": [18, 1200, "a", 18000], "internal_node_id": "0.0-39.0", "trial": 1, "time_elapsed": 405291, "serialpos": 2, "key_press": -1, "wordID": 253, "type": "PRES_AUD", "trial_index": 57}, "uniqueid": "MTK3145:3RXPCZQMQQI1YXHFJJS7VSQVLSHG1Z", "dateTime": 1520108815542}, {"current_trial": 58, "trialdata": {"rt": -1000, "trial_type": "single-audio", "word": "cyclone", "stimulus": "/static/audio/wordpool/CYCLONE.wav", "conditions": [18, 1200, "a", 18000], "internal_node_id": "0.0-40.0", "trial": 1, "time_elapsed": 407661, "serialpos": 3, "key_press": -1, "wordID": 430, "type": "PRES_AUD", "trial_index": 58}, "uniqueid": "MTK3145:3RXPCZQMQQI1YXHFJJS7VSQVLSHG1Z", "dateTime": 1520108817912}, {"current_trial": 59, "trialdata": {"rt": -1000, "trial_type": "single-audio", "word": "milk", "stimulus": "/static/audio/wordpool/MILK.wav", "conditions": [18, 1200, "a", 18000], "internal_node_id": "0.0-41.0", "trial": 1, "time_elapsed": 409945, "serialpos": 4, "key_press": -1, "wordID": 894, "type": "PRES_AUD", "trial_index": 59}, "uniqueid": "MTK3145:3RXPCZQMQQI1YXHFJJS7VSQVLSHG1Z", "dateTime": 1520108820196}, {"current_trial": 60, "trialdata": {"rt": -1000, "trial_type": "single-audio", "word": "beaker", "stimulus": "/static/audio/wordpool/BEAKER.wav", "conditions": [18, 1200, "a", 18000], "internal_node_id": "0.0-42.0", "trial": 1, "time_elapsed": 412054, "serialpos": 5, "key_press": -1, "wordID": 103, "type": "PRES_AUD", "trial_index": 60}, "uniqueid": "MTK3145:3RXPCZQMQQI1YXHFJJS7VSQVLSHG1Z", "dateTime": 1520108822305}, {"current_trial": 61, "trialdata": {"rt": -1000, "trial_type": "single-audio", "word": "patrol", "stimulus": "/static/audio/wordpool/PATROL.wav", "conditions": [18, 1200, "a", 18000], "internal_node_id": "0.0-43.0", "trial": 1, "time_elapsed": 414401, "serialpos": 6, "key_press": -1, "wordID": 1026, "type": "PRES_AUD", "trial_index": 61}, "uniqueid": "MTK3145:3RXPCZQMQQI1YXHFJJS7VSQVLSHG1Z", "dateTime": 1520108824652}, {"current_trial": 62, "trialdata": {"rt": -1000, "trial_type": "single-audio", "word": "helmet", "stimulus": "/static/audio/wordpool/HELMET.wav", "conditions": [18, 1200, "a", 18000], "internal_node_id": "0.0-44.0", "trial": 1, "time_elapsed": 416746, "serialpos": 7, "key_press": -1, "wordID": 701, "type": "PRES_AUD", "trial_index": 62}, "uniqueid": "MTK3145:3RXPCZQMQQI1YXHFJJS7VSQVLSHG1Z", "dateTime": 1520108826997}, {"current_trial": 63, "trialdata": {"rt": -1000, "trial_type": "single-audio", "word": "lunch", "stimulus": "/static/audio/wordpool/LUNCH.wav", "conditions": [18, 1200, "a", 18000], "internal_node_id": "0.0-45.0", "trial": 1, "time_elapsed": 418898, "serialpos": 8, "key_press": -1, "wordID": 848, "type": "PRES_AUD", "trial_index": 63}, "uniqueid": "MTK3145:3RXPCZQMQQI1YXHFJJS7VSQVLSHG1Z", "dateTime": 1520108829150}, {"current_trial": 64, "trialdata": {"rt": -1000, "trial_type": "single-audio", "word": "mattress", "stimulus": "/static/audio/wordpool/MATTRESS.wav", "conditions": [18, 1200, "a", 18000], "internal_node_id": "0.0-46.0", "trial": 1, "time_elapsed": 421023, "serialpos": 9, "key_press": -1, "wordID": 878, "type": "PRES_AUD", "trial_index": 64}, "uniqueid": "MTK3145:3RXPCZQMQQI1YXHFJJS7VSQVLSHG1Z", "dateTime": 1520108831275}, {"current_trial": 65, "trialdata": {"rt": -1000, "trial_type": "single-audio", "word": "scalpel", "stimulus": "/static/audio/wordpool/SCALPEL.wav", "conditions": [18, 1200, "a", 18000], "internal_node_id": "0.0-47.0", "trial": 1, "time_elapsed": 423212, "serialpos": 10, "key_press": -1, "wordID": 1242, "type": "PRES_AUD", "trial_index": 65}, "uniqueid": "MTK3145:3RXPCZQMQQI1YXHFJJS7VSQVLSHG1Z", "dateTime": 1520108833463}, {"current_trial": 66, "trialdata": {"rt": -1000, "trial_type": "single-audio", "word": "parrot", "stimulus": "/static/audio/wordpool/PARROT.wav", "conditions": [18, 1200, "a", 18000], "internal_node_id": "0.0-48.0", "trial": 1, "time_elapsed": 425332, "serialpos": 11, "key_press": -1, "wordID": 1014, "type": "PRES_AUD", "trial_index": 66}, "uniqueid": "MTK3145:3RXPCZQMQQI1YXHFJJS7VSQVLSHG1Z", "dateTime": 1520108835584}, {"current_trial": 67, "trialdata": {"rt": -1000, "trial_type": "single-audio", "word": "wrench", "stimulus": "/static/audio/wordpool/WRENCH.wav", "conditions": [18, 1200, "a", 18000], "internal_node_id": "0.0-49.0", "trial": 1, "time_elapsed": 427628, "serialpos": 12, "key_press": -1, "wordID": 1624, "type": "PRES_AUD", "trial_index": 67}, "uniqueid": "MTK3145:3RXPCZQMQQI1YXHFJJS7VSQVLSHG1Z", "dateTime": 1520108837879}, {"current_trial": 68, "trialdata": {"rt": -1000, "trial_type": "single-audio", "word": "handbag", "stimulus": "/static/audio/wordpool/HANDBAG.wav", "conditions": [18, 1200, "a", 18000], "internal_node_id": "0.0-50.0", "trial": 1, "time_elapsed": 429705, "serialpos": 13, "key_press": -1, "wordID": 683, "type": "PRES_AUD", "trial_index": 68}, "uniqueid": "MTK3145:3RXPCZQMQQI1YXHFJJS7VSQVLSHG1Z", "dateTime": 1520108839961}, {"current_trial": 69, "trialdata": {"rt": -1000, "trial_type": "single-audio", "word": "county", "stimulus": "/static/audio/wordpool/COUNTY.wav", "conditions": [18, 1200, "a", 18000], "internal_node_id": "0.0-51.0", "trial": 1, "time_elapsed": 431798, "serialpos": 14, "key_press": -1, "wordID": 388, "type": "PRES_AUD", "trial_index": 69}, "uniqueid": "MTK3145:3RXPCZQMQQI1YXHFJJS7VSQVLSHG1Z", "dateTime": 1520108842049}, {"current_trial": 70, "trialdata": {"rt": -1000, "trial_type": "single-audio", "word": "chest", "stimulus": "/static/audio/wordpool/CHEST.wav", "conditions": [18, 1200, "a", 18000], "internal_node_id": "0.0-52.0", "trial": 1, "time_elapsed": 433883, "serialpos": 15, "key_press": -1, "wordID": 294, "type": "PRES_AUD", "trial_index": 70}, "uniqueid": "MTK3145:3RXPCZQMQQI1YXHFJJS7VSQVLSHG1Z", "dateTime": 1520108844134}, {"current_trial": 71, "trialdata": {"rt": -1000, "trial_type": "single-audio", "word": "bunny", "stimulus": "/static/audio/wordpool/BUNNY.wav", "conditions": [18, 1200, "a", 18000], "internal_node_id": "0.0-53.0", "trial": 1, "time_elapsed": 436283, "serialpos": 16, "key_press": -1, "wordID": 197, "type": "PRES_AUD", "trial_index": 71}, "uniqueid": "MTK3145:3RXPCZQMQQI1YXHFJJS7VSQVLSHG1Z", "dateTime": 1520108846534}, {"current_trial": 72, "trialdata": {"rt": -1000, "trial_type": "single-audio", "word": "child", "stimulus": "/static/audio/wordpool/CHILD.wav", "conditions": [18, 1200, "a", 18000], "internal_node_id": "0.0-54.0", "trial": 1, "time_elapsed": 438668, "serialpos": 17, "key_press": -1, "wordID": 298, "type": "PRES_AUD", "trial_index": 72}, "uniqueid": "MTK3145:3RXPCZQMQQI1YXHFJJS7VSQVLSHG1Z", "dateTime": 1520108848919}, {"current_trial": 73, "trialdata": {"rt": -1, "trial_type": "single-stim", "stimulus": "", "internal_node_id": "0.0-55.0-0.0", "time_elapsed": 439977, "key_press": -1, "type": "PRE_RECALL_DELAY", "trial_index": 73}, "uniqueid": "MTK3145:3RXPCZQMQQI1YXHFJJS7VSQVLSHG1Z", "dateTime": 1520108850228}, {"current_trial": 74, "trialdata": {"rt": -1000, "trial_type": "single-audio", "stimulus": "/static/audio/400Hz.wav", "internal_node_id": "0.0-56.0", "time_elapsed": 440480, "key_press": -1, "type": "PRE_RECALL_ALERT", "trial_index": 74}, "uniqueid": "MTK3145:3RXPCZQMQQI1YXHFJJS7VSQVLSHG1Z", "dateTime": 1520108850731}, {"current_trial": 75, "trialdata": {"rt": [4818, 8113, 9739, 11954, 15225, 19363, 23152, 26288, 28535, 31337, 34208], "recwords": ["blackboard", "cashier", "cyclone", "milk", "lunch", "mattress", "parrot", "wrench", "chest", "bunny", "child"], "key_times": [2510, 2684, 2796, 3231, 3353, 3776, 3858, 3991, 4139, 4427, 4818, 6878, 7053, 7268, 7367, 7646, 7768, 7896, 8113, 8330, 8541, 8879, 9040, 9264, 9364, 9532, 9739, 11033, 11235, 11413, 11714, 11954, 14283, 14473, 14691, 14913, 14994, 15225, 17961, 18157, 18365, 18525, 18731, 18812, 19025, 19180, 19363, 21363, 21549, 21694, 21855, 22359, 22731, 23152, 25174, 25411, 25628, 25730, 25928, 26031, 26288, 27554, 27739, 27882, 28121, 28308, 28535, 30073, 30192, 30403, 30523, 30995, 31337, 33326, 33420, 33537, 33716, 33892, 34208], "trial_type": "free-recall", "conditions": [18, 1200, "a", 18000], "internal_node_id": "0.0-57.0-0.0", "key_presses": [66, 76, 65, 67, 75, 66, 79, 65, 82, 68, 13, 67, 65, 83, 72, 73, 69, 82, 13, 67, 89, 67, 76, 79, 78, 69, 13, 77, 73, 76, 75, 13, 76, 85, 78, 67, 72, 13, 77, 65, 84, 84, 82, 69, 83, 83, 13, 80, 65, 82, 82, 79, 84, 13, 87, 82, 69, 78, 67, 72, 13, 67, 72, 69, 83, 84, 13, 66, 85, 78, 78, 89, 13, 67, 72, 73, 76, 68, 13], "trial": 1, "time_elapsed": 500485, "type": "FREE_RECALL", "trial_index": 75}, "uniqueid": "MTK3145:3RXPCZQMQQI1YXHFJJS7VSQVLSHG1Z", "dateTime": 1520108910741}, {"current_trial": 76, "trialdata": {"rt": 54812, "trial_type": "text", "internal_node_id": "0.0-58.0", "time_elapsed": 557304, "key_press": 32, "type": "INSTRUCTIONS", "trial_index": 76}, "uniqueid": "MTK3145:3RXPCZQMQQI1YXHFJJS7VSQVLSHG1Z", "dateTime": 1520108967555}, {"current_trial": 77, "trialdata": {"rt": [2283, 5548, 7779, 9819, 12114, 14165, 15622, 17767, 20438, 22109], "trial_type": "math-distractor", "key_times": [1493, 1666, 2283, 4638, 5028, 5548, 7325, 7578, 7779, 9406, 9594, 9819, 11605, 11870, 12114, 13626, 13910, 14165, 15135, 15402, 15622, 17328, 17524, 17767, 19922, 20189, 20438, 21628, 21883, 22109, 23586, 23835], "responses": ["12", "17", "16", "11", "18", "17", "13", "14", "17", "19"], "num2": [1, 8, 5, 2, 8, 3, 5, 9, 4, 5, 7], "num3": [2, 4, 8, 6, 4, 5, 3, 2, 7, 9, 6], "conditions": [12, 800, "a", 24000], "internal_node_id": "0.0-59.0", "key_presses": [97, 98, 13, 97, 103, 13, 97, 102, 13, 97, 97, 13, 97, 104, 13, 97, 103, 13, 97, 99, 13, 97, 100, 13, 97, 103, 13, 97, 105, 13, 97, 103], "trial": 2, "time_elapsed": 582312, "type": "DISTRACTOR", "trial_index": 77, "num1": [9, 5, 3, 3, 6, 9, 5, 3, 6, 5, 4]}, "uniqueid": "MTK3145:3RXPCZQMQQI1YXHFJJS7VSQVLSHG1Z", "dateTime": 1520108992563}, {"current_trial": 78, "trialdata": {"rt": -1, "trial_type": "single-stim", "stimulus": "<p id=\"stim\">10</p>", "internal_node_id": "0.0-60.0-0.0", "time_elapsed": 585314, "key_press": -1, "trial_index": 78}, "uniqueid": "MTK3145:3RXPCZQMQQI1YXHFJJS7VSQVLSHG1Z", "dateTime": 1520108995565}, {"current_trial": 79, "trialdata": {"rt": -1, "trial_type": "single-stim", "stimulus": "<p id=\"stim\">9</p>", "internal_node_id": "0.0-60.0-1.0", "time_elapsed": 586317, "key_press": -1, "trial_index": 79}, "uniqueid": "MTK3145:3RXPCZQMQQI1YXHFJJS7VSQVLSHG1Z", "dateTime": 1520108996568}, {"current_trial": 80, "trialdata": {"rt": -1, "trial_type": "single-stim", "stimulus": "<p id=\"stim\">8</p>", "internal_node_id": "0.0-60.0-2.0", "time_elapsed": 587319, "key_press": -1, "trial_index": 80}, "uniqueid": "MTK3145:3RXPCZQMQQI1YXHFJJS7VSQVLSHG1Z", "dateTime": 1520108997570}, {"current_trial": 81, "trialdata": {"rt": -1, "trial_type": "single-stim", "stimulus": "<p id=\"stim\">7</p>", "internal_node_id": "0.0-60.0-3.0", "time_elapsed": 588320, "key_press": -1, "trial_index": 81}, "uniqueid": "MTK3145:3RXPCZQMQQI1YXHFJJS7VSQVLSHG1Z", "dateTime": 1520108998571}, {"current_trial": 82, "trialdata": {"rt": -1, "trial_type": "single-stim", "stimulus": "<p id=\"stim\">6</p>", "internal_node_id": "0.0-60.0-4.0", "time_elapsed": 589323, "key_press": -1, "trial_index": 82}, "uniqueid": "MTK3145:3RXPCZQMQQI1YXHFJJS7VSQVLSHG1Z", "dateTime": 1520108999574}, {"current_trial": 83, "trialdata": {"rt": -1, "trial_type": "single-stim", "stimulus": "<p id=\"stim\">5</p>", "internal_node_id": "0.0-60.0-5.0", "time_elapsed": 590325, "key_press": -1, "trial_index": 83}, "uniqueid": "MTK3145:3RXPCZQMQQI1YXHFJJS7VSQVLSHG1Z", "dateTime": 1520109000576}, {"current_trial": 84, "trialdata": {"rt": -1, "trial_type": "single-stim", "stimulus": "<p id=\"stim\">4</p>", "internal_node_id": "0.0-60.0-6.0", "time_elapsed": 591326, "key_press": -1, "trial_index": 84}, "uniqueid": "MTK3145:3RXPCZQMQQI1YXHFJJS7VSQVLSHG1Z", "dateTime": 1520109001577}, {"current_trial": 85, "trialdata": {"rt": -1, "trial_type": "single-stim", "stimulus": "<p id=\"stim\">3</p>", "internal_node_id": "0.0-60.0-7.0", "time_elapsed": 592328, "key_press": -1, "trial_index": 85}, "uniqueid": "MTK3145:3RXPCZQMQQI1YXHFJJS7VSQVLSHG1Z", "dateTime": 1520109002579}, {"current_trial": 86, "trialdata": {"rt": -1, "trial_type": "single-stim", "stimulus": "<p id=\"stim\">2</p>", "internal_node_id": "0.0-60.0-8.0", "time_elapsed": 593330, "key_press": -1, "trial_index": 86}, "uniqueid": "MTK3145:3RXPCZQMQQI1YXHFJJS7VSQVLSHG1Z", "dateTime": 1520109003581}, {"current_trial": 87, "trialdata": {"rt": -1, "trial_type": "single-stim", "stimulus": "<p id=\"stim\">1</p>", "internal_node_id": "0.0-60.0-9.0", "time_elapsed": 594331, "key_press": -1, "trial_index": 87}, "uniqueid": "MTK3145:3RXPCZQMQQI1YXHFJJS7VSQVLSHG1Z", "dateTime": 1520109004582}, {"current_trial": 88, "trialdata": {"rt": -1, "trial_type": "single-stim", "stimulus": "<p id=\"stim\">+</p>", "internal_node_id": "0.0-61.0-0.0", "time_elapsed": 595833, "key_press": -1, "type": "FIXATION", "trial_index": 88}, "uniqueid": "MTK3145:3RXPCZQMQQI1YXHFJJS7VSQVLSHG1Z", "dateTime": 1520109006084}, {"current_trial": 89, "trialdata": {"rt": -1000, "trial_type": "single-audio", "word": "kitchen", "stimulus": "/static/audio/wordpool/KITCHEN.wav", "conditions": [12, 800, "a", 24000], "internal_node_id": "0.0-62.0", "trial": 2, "time_elapsed": 597751, "serialpos": 0, "key_press": -1, "wordID": 777, "type": "PRES_AUD", "trial_index": 89}, "uniqueid": "MTK3145:3RXPCZQMQQI1YXHFJJS7VSQVLSHG1Z", "dateTime": 1520109008002}, {"current_trial": 90, "trialdata": {"rt": -1000, "trial_type": "single-audio", "word": "nurse", "stimulus": "/static/audio/wordpool/NURSE.wav", "conditions": [12, 800, "a", 24000], "internal_node_id": "0.0-63.0", "trial": 2, "time_elapsed": 599625, "serialpos": 1, "key_press": -1, "wordID": 962, "type": "PRES_AUD", "trial_index": 90}, "uniqueid": "MTK3145:3RXPCZQMQQI1YXHFJJS7VSQVLSHG1Z", "dateTime": 1520109009876}, {"current_trial": 91, "trialdata": {"rt": -1000, "trial_type": "single-audio", "word": "woman", "stimulus": "/static/audio/wordpool/WOMAN.wav", "conditions": [12, 800, "a", 24000], "internal_node_id": "0.0-64.0", "trial": 2, "time_elapsed": 601482, "serialpos": 2, "key_press": -1, "wordID": 1619, "type": "PRES_AUD", "trial_index": 91}, "uniqueid": "MTK3145:3RXPCZQMQQI1YXHFJJS7VSQVLSHG1Z", "dateTime": 1520109011733}, {"current_trial": 92, "trialdata": {"rt": -1000, "trial_type": "single-audio", "word": "dresser", "stimulus": "/static/audio/wordpool/DRESSER.wav", "conditions": [12, 800, "a", 24000], "internal_node_id": "0.0-65.0", "trial": 2, "time_elapsed": 603114, "serialpos": 3, "key_press": -1, "wordID": 495, "type": "PRES_AUD", "trial_index": 92}, "uniqueid": "MTK3145:3RXPCZQMQQI1YXHFJJS7VSQVLSHG1Z", "dateTime": 1520109013366}, {"current_trial": 93, "trialdata": {"rt": -1000, "trial_type": "single-audio", "word": "switch", "stimulus": "/static/audio/wordpool/SWITCH.wav", "conditions": [12, 800, "a", 24000], "internal_node_id": "0.0-66.0", "trial": 2, "time_elapsed": 605070, "serialpos": 4, "key_press": -1, "wordID": 1421, "type": "PRES_AUD", "trial_index": 93}, "uniqueid": "MTK3145:3RXPCZQMQQI1YXHFJJS7VSQVLSHG1Z", "dateTime": 1520109015321}, {"current_trial": 94, "trialdata": {"rt": -1000, "trial_type": "single-audio", "word": "outdoors", "stimulus": "/static/audio/wordpool/OUTDOORS.wav", "conditions": [12, 800, "a", 24000], "internal_node_id": "0.0-67.0", "trial": 2, "time_elapsed": 606691, "serialpos": 5, "key_press": -1, "wordID": 986, "type": "PRES_AUD", "trial_index": 94}, "uniqueid": "MTK3145:3RXPCZQMQQI1YXHFJJS7VSQVLSHG1Z", "dateTime": 1520109016942}, {"current_trial": 95, "trialdata": {"rt": -1000, "trial_type": "single-audio", "word": "marsh", "stimulus": "/static/audio/wordpool/MARSH.wav", "conditions": [12, 800, "a", 24000], "internal_node_id": "0.0-68.0", "trial": 2, "time_elapsed": 608320, "serialpos": 6, "key_press": -1, "wordID": 873, "type": "PRES_AUD", "trial_index": 95}, "uniqueid": "MTK3145:3RXPCZQMQQI1YXHFJJS7VSQVLSHG1Z", "dateTime": 1520109018571}, {"current_trial": 96, "trialdata": {"rt": -1000, "trial_type": "single-audio", "word": "transplant", "stimulus": "/static/audio/wordpool/TRANSPLANT.wav", "conditions": [12, 800, "a", 24000], "internal_node_id": "0.0-69.0", "trial": 2, "time_elapsed": 610164, "serialpos": 7, "key_press": -1, "wordID": 1495, "type": "PRES_AUD", "trial_index": 96}, "uniqueid": "MTK3145:3RXPCZQMQQI1YXHFJJS7VSQVLSHG1Z", "dateTime": 1520109020415}, {"current_trial": 97, "trialdata": {"rt": -1000, "trial_type": "single-audio", "word": "grape", "stimulus": "/static/audio/wordpool/GRAPE.wav", "conditions": [12, 800, "a", 24000], "internal_node_id": "0.0-70.0", "trial": 2, "time_elapsed": 611898, "serialpos": 8, "key_press": -1, "wordID": 653, "type": "PRES_AUD", "trial_index": 97}, "uniqueid": "MTK3145:3RXPCZQMQQI1YXHFJJS7VSQVLSHG1Z", "dateTime": 1520109022149}, {"current_trial": 98, "trialdata": {"rt": -1000, "trial_type": "single-audio", "word": "honey", "stimulus": "/static/audio/wordpool/HONEY.wav", "conditions": [12, 800, "a", 24000], "internal_node_id": "0.0-71.0", "trial": 2, "time_elapsed": 613564, "serialpos": 9, "key_press": -1, "wordID": 712, "type": "PRES_AUD", "trial_index": 98}, "uniqueid": "MTK3145:3RXPCZQMQQI1YXHFJJS7VSQVLSHG1Z", "dateTime": 1520109023815}, {"current_trial": 99, "trialdata": {"rt": -1000, "trial_type": "single-audio", "word": "cupboard", "stimulus": "/static/audio/wordpool/CUPBOARD.wav", "conditions": [12, 800, "a", 24000], "internal_node_id": "0.0-72.0", "trial": 2, "time_elapsed": 615404, "serialpos": 10, "key_press": -1, "wordID": 424, "type": "PRES_AUD", "trial_index": 99}, "uniqueid": "MTK3145:3RXPCZQMQQI1YXHFJJS7VSQVLSHG1Z", "dateTime": 1520109025655}, {"current_trial": 100, "trialdata": {"rt": -1000, "trial_type": "single-audio", "word": "gift", "stimulus": "/static/audio/wordpool/GIFT.wav", "conditions": [12, 800, "a", 24000], "internal_node_id": "0.0-73.0", "trial": 2, "time_elapsed": 617391, "serialpos": 11, "key_press": -1, "wordID": 634, "type": "PRES_AUD", "trial_index": 100}, "uniqueid": "MTK3145:3RXPCZQMQQI1YXHFJJS7VSQVLSHG1Z", "dateTime": 1520109027642}, {"current_trial": 101, "trialdata": {"rt": -1, "trial_type": "single-stim", "stimulus": "", "internal_node_id": "0.0-74.0-0.0", "time_elapsed": 618647, "key_press": -1, "type": "PRE_RECALL_DELAY", "trial_index": 101}, "uniqueid": "MTK3145:3RXPCZQMQQI1YXHFJJS7VSQVLSHG1Z", "dateTime": 1520109028898}, {"current_trial": 102, "trialdata": {"rt": -1000, "trial_type": "single-audio", "stimulus": "/static/audio/400Hz.wav", "internal_node_id": "0.0-75.0", "time_elapsed": 619149, "key_press": -1, "type": "PRE_RECALL_ALERT", "trial_index": 102}, "uniqueid": "MTK3145:3RXPCZQMQQI1YXHFJJS7VSQVLSHG1Z", "dateTime": 1520109029401}, {"current_trial": 103, "trialdata": {"rt": [6026, 7956, 9884, 11962, 14246, 17167, 19895, 21853], "recwords": ["nurse", "kitchen", "cupboard", "gift", "honey", "outdoor", "marsh", "woman"], "key_times": [4659, 4924, 5055, 5345, 5488, 6026, 6558, 6785, 6926, 7262, 7377, 7564, 7703, 7956, 8289, 8411, 8620, 8922, 9123, 9286, 9391, 9662, 9884, 10246, 10359, 11155, 11337, 11962, 13054, 13275, 13421, 13623, 13757, 14246, 15797, 15914, 16156, 16506, 16656, 16802, 16925, 17167, 18851, 19024, 19150, 19444, 19576, 19895, 20648, 20751, 20866, 21039, 21161, 21853], "trial_type": "free-recall", "conditions": [12, 800, "a", 24000], "internal_node_id": "0.0-76.0-0.0", "key_presses": [78, 85, 82, 83, 69, 13, 75, 73, 84, 67, 72, 69, 78, 13, 67, 85, 80, 66, 79, 65, 82, 68, 13, 71, 73, 70, 84, 13, 72, 79, 78, 69, 89, 13, 79, 85, 84, 68, 79, 79, 82, 13, 77, 65, 82, 83, 72, 13, 87, 79, 77, 65, 78, 13], "trial": 2, "time_elapsed": 679154, "type": "FREE_RECALL", "trial_index": 103}, "uniqueid": "MTK3145:3RXPCZQMQQI1YXHFJJS7VSQVLSHG1Z", "dateTime": 1520109089410}, {"current_trial": 104, "trialdata": {"rt": 1333, "trial_type": "text", "internal_node_id": "0.0-77.0", "time_elapsed": 682493, "key_press": 32, "type": "INSTRUCTIONS", "trial_index": 104}, "uniqueid": "MTK3145:3RXPCZQMQQI1YXHFJJS7VSQVLSHG1Z", "dateTime": 1520109092744}, {"current_trial": 105, "trialdata": {"rt": [3000, 5237, 6886, 9698, 11856], "trial_type": "math-distractor", "key_times": [1951, 2180, 3000, 4767, 5237, 6585, 6886, 9203, 9424, 9698, 11589, 11856], "responses": ["12", "6", "6", "15", "7"], "num2": [2, 2, 3, 7, 4, 8], "num3": [9, 3, 2, 2, 1, 6], "conditions": [24, 1600, "a", 12000], "internal_node_id": "0.0-78.0", "key_presses": [97, 98, 13, 102, 13, 102, 13, 97, 101, 13, 103, 13], "trial": 3, "time_elapsed": 696498, "type": "DISTRACTOR", "trial_index": 105, "num1": [1, 1, 1, 6, 2, 4]}, "uniqueid": "MTK3145:3RXPCZQMQQI1YXHFJJS7VSQVLSHG1Z", "dateTime": 1520109106749}, {"current_trial": 106, "trialdata": {"rt": -1, "trial_type": "single-stim", "stimulus": "<p id=\"stim\">10</p>", "internal_node_id": "0.0-79.0-0.0", "time_elapsed": 699502, "key_press": -1, "trial_index": 106}, "uniqueid": "MTK3145:3RXPCZQMQQI1YXHFJJS7VSQVLSHG1Z", "dateTime": 1520109109753}, {"current_trial": 107, "trialdata": {"rt": -1, "trial_type": "single-stim", "stimulus": "<p id=\"stim\">9</p>", "internal_node_id": "0.0-79.0-1.0", "time_elapsed": 700503, "key_press": -1, "trial_index": 107}, "uniqueid": "MTK3145:3RXPCZQMQQI1YXHFJJS7VSQVLSHG1Z", "dateTime": 1520109110754}, {"current_trial": 108, "trialdata": {"rt": -1, "trial_type": "single-stim", "stimulus": "<p id=\"stim\">8</p>", "internal_node_id": "0.0-79.0-2.0", "time_elapsed": 701505, "key_press": -1, "trial_index": 108}, "uniqueid": "MTK3145:3RXPCZQMQQI1YXHFJJS7VSQVLSHG1Z", "dateTime": 1520109111756}, {"current_trial": 109, "trialdata": {"rt": -1, "trial_type": "single-stim", "stimulus": "<p id=\"stim\">7</p>", "internal_node_id": "0.0-79.0-3.0", "time_elapsed": 702507, "key_press": -1, "trial_index": 109}, "uniqueid": "MTK3145:3RXPCZQMQQI1YXHFJJS7VSQVLSHG1Z", "dateTime": 1520109112758}, {"current_trial": 110, "trialdata": {"rt": -1, "trial_type": "single-stim", "stimulus": "<p id=\"stim\">6</p>", "internal_node_id": "0.0-79.0-4.0", "time_elapsed": 703509, "key_press": -1, "trial_index": 110}, "uniqueid": "MTK3145:3RXPCZQMQQI1YXHFJJS7VSQVLSHG1Z", "dateTime": 1520109113760}, {"current_trial": 111, "trialdata": {"rt": -1, "trial_type": "single-stim", "stimulus": "<p id=\"stim\">5</p>", "internal_node_id": "0.0-79.0-5.0", "time_elapsed": 704510, "key_press": -1, "trial_index": 111}, "uniqueid": "MTK3145:3RXPCZQMQQI1YXHFJJS7VSQVLSHG1Z", "dateTime": 1520109114761}, {"current_trial": 112, "trialdata": {"rt": -1, "trial_type": "single-stim", "stimulus": "<p id=\"stim\">4</p>", "internal_node_id": "0.0-79.0-6.0", "time_elapsed": 705512, "key_press": -1, "trial_index": 112}, "uniqueid": "MTK3145:3RXPCZQMQQI1YXHFJJS7VSQVLSHG1Z", "dateTime": 1520109115763}, {"current_trial": 113, "trialdata": {"rt": -1, "trial_type": "single-stim", "stimulus": "<p id=\"stim\">3</p>", "internal_node_id": "0.0-79.0-7.0", "time_elapsed": 706514, "key_press": -1, "trial_index": 113}, "uniqueid": "MTK3145:3RXPCZQMQQI1YXHFJJS7VSQVLSHG1Z", "dateTime": 1520109116765}, {"current_trial": 114, "trialdata": {"rt": -1, "trial_type": "single-stim", "stimulus": "<p id=\"stim\">2</p>", "internal_node_id": "0.0-79.0-8.0", "time_elapsed": 707515, "key_press": -1, "trial_index": 114}, "uniqueid": "MTK3145:3RXPCZQMQQI1YXHFJJS7VSQVLSHG1Z", "dateTime": 1520109117766}, {"current_trial": 115, "trialdata": {"rt": -1, "trial_type": "single-stim", "stimulus": "<p id=\"stim\">1</p>", "internal_node_id": "0.0-79.0-9.0", "time_elapsed": 708517, "key_press": -1, "trial_index": 115}, "uniqueid": "MTK3145:3RXPCZQMQQI1YXHFJJS7VSQVLSHG1Z", "dateTime": 1520109118768}, {"current_trial": 116, "trialdata": {"rt": -1, "trial_type": "single-stim", "stimulus": "<p id=\"stim\">+</p>", "internal_node_id": "0.0-80.0-0.0", "time_elapsed": 710019, "key_press": -1, "type": "FIXATION", "trial_index": 116}, "uniqueid": "MTK3145:3RXPCZQMQQI1YXHFJJS7VSQVLSHG1Z", "dateTime": 1520109120272}, {"current_trial": 117, "trialdata": {"rt": -1000, "trial_type": "single-audio", "word": "pigeon", "stimulus": "/static/audio/wordpool/PIGEON.wav", "conditions": [24, 1600, "a", 12000], "internal_node_id": "0.0-81.0", "trial": 3, "time_elapsed": 712468, "serialpos": 0, "key_press": -1, "wordID": 1064, "type": "PRES_AUD", "trial_index": 117}, "uniqueid": "MTK3145:3RXPCZQMQQI1YXHFJJS7VSQVLSHG1Z", "dateTime": 1520109122719}, {"current_trial": 118, "trialdata": {"rt": -1000, "trial_type": "single-audio", "word": "knapsack", "stimulus": "/static/audio/wordpool/KNAPSACK.wav", "conditions": [24, 1600, "a", 12000], "internal_node_id": "0.0-82.0", "trial": 3, "time_elapsed": 715126, "serialpos": 1, "key_press": -1, "wordID": 782, "type": "PRES_AUD", "trial_index": 118}, "uniqueid": "MTK3145:3RXPCZQMQQI1YXHFJJS7VSQVLSHG1Z", "dateTime": 1520109125377}, {"current_trial": 119, "trialdata": {"rt": -1000, "trial_type": "single-audio", "word": "skillet", "stimulus": "/static/audio/wordpool/SKILLET.wav", "conditions": [24, 1600, "a", 12000], "internal_node_id": "0.0-83.0", "trial": 3, "time_elapsed": 717835, "serialpos": 2, "key_press": -1, "wordID": 1316, "type": "PRES_AUD", "trial_index": 119}, "uniqueid": "MTK3145:3RXPCZQMQQI1YXHFJJS7VSQVLSHG1Z", "dateTime": 1520109128086}, {"current_trial": 120, "trialdata": {"rt": -1000, "trial_type": "single-audio", "word": "hawk", "stimulus": "/static/audio/wordpool/HAWK.wav", "conditions": [24, 1600, "a", 12000], "internal_node_id": "0.0-84.0", "trial": 3, "time_elapsed": 720471, "serialpos": 3, "key_press": -1, "wordID": 691, "type": "PRES_AUD", "trial_index": 120}, "uniqueid": "MTK3145:3RXPCZQMQQI1YXHFJJS7VSQVLSHG1Z", "dateTime": 1520109130722}, {"current_trial": 121, "trialdata": {"rt": -1000, "trial_type": "single-audio", "word": "hatchet", "stimulus": "/static/audio/wordpool/HATCHET.wav", "conditions": [24, 1600, "a", 12000], "internal_node_id": "0.0-85.0", "trial": 3, "time_elapsed": 723087, "serialpos": 4, "key_press": -1, "wordID": 690, "type": "PRES_AUD", "trial_index": 121}, "uniqueid": "MTK3145:3RXPCZQMQQI1YXHFJJS7VSQVLSHG1Z", "dateTime": 1520109133338}, {"current_trial": 122, "trialdata": {"rt": -1000, "trial_type": "single-audio", "word": "puppy", "stimulus": "/static/audio/wordpool/PUPPY.wav", "conditions": [24, 1600, "a", 12000], "internal_node_id": "0.0-86.0", "trial": 3, "time_elapsed": 725558, "serialpos": 5, "key_press": -1, "wordID": 1143, "type": "PRES_AUD", "trial_index": 122}, "uniqueid": "MTK3145:3RXPCZQMQQI1YXHFJJS7VSQVLSHG1Z", "dateTime": 1520109135809}, {"current_trial": 123, "trialdata": {"rt": -1000, "trial_type": "single-audio", "word": "uncle", "stimulus": "/static/audio/wordpool/UNCLE.wav", "conditions": [24, 1600, "a", 12000], "internal_node_id": "0.0-87.0", "trial": 3, "time_elapsed": 728352, "serialpos": 6, "key_press": -1, "wordID": 1535, "type": "PRES_AUD", "trial_index": 123}, "uniqueid": "MTK3145:3RXPCZQMQQI1YXHFJJS7VSQVLSHG1Z", "dateTime": 1520109138603}, {"current_trial": 124, "trialdata": {"rt": -1000, "trial_type": "single-audio", "word": "widow", "stimulus": "/static/audio/wordpool/WIDOW.wav", "conditions": [24, 1600, "a", 12000], "internal_node_id": "0.0-88.0", "trial": 3, "time_elapsed": 730962, "serialpos": 7, "key_press": -1, "wordID": 1607, "type": "PRES_AUD", "trial_index": 124}, "uniqueid": "MTK3145:3RXPCZQMQQI1YXHFJJS7VSQVLSHG1Z", "dateTime": 1520109141213}, {"current_trial": 125, "trialdata": {"rt": -1000, "trial_type": "single-audio", "word": "daughter", "stimulus": "/static/audio/wordpool/DAUGHTER.wav", "conditions": [24, 1600, "a", 12000], "internal_node_id": "0.0-89.0", "trial": 3, "time_elapsed": 733396, "serialpos": 8, "key_press": -1, "wordID": 441, "type": "PRES_AUD", "trial_index": 125}, "uniqueid": "MTK3145:3RXPCZQMQQI1YXHFJJS7VSQVLSHG1Z", "dateTime": 1520109143647}, {"current_trial": 126, "trialdata": {"rt": -1000, "trial_type": "single-audio", "word": "grill", "stimulus": "/static/audio/wordpool/GRILL.wav", "conditions": [24, 1600, "a", 12000], "internal_node_id": "0.0-90.0", "trial": 3, "time_elapsed": 736179, "serialpos": 9, "key_press": -1, "wordID": 660, "type": "PRES_AUD", "trial_index": 126}, "uniqueid": "MTK3145:3RXPCZQMQQI1YXHFJJS7VSQVLSHG1Z", "dateTime": 1520109146430}, {"current_trial": 127, "trialdata": {"rt": -1000, "trial_type": "single-audio", "word": "braces", "stimulus": "/static/audio/wordpool/BRACES.wav", "conditions": [24, 1600, "a", 12000], "internal_node_id": "0.0-91.0", "trial": 3, "time_elapsed": 738669, "serialpos": 10, "key_press": -1, "wordID": 163, "type": "PRES_AUD", "trial_index": 127}, "uniqueid": "MTK3145:3RXPCZQMQQI1YXHFJJS7VSQVLSHG1Z", "dateTime": 1520109148920}, {"current_trial": 128, "trialdata": {"rt": -1000, "trial_type": "single-audio", "word": "flashlight", "stimulus": "/static/audio/wordpool/FLASHLIGHT.wav", "conditions": [24, 1600, "a", 12000], "internal_node_id": "0.0-92.0", "trial": 3, "time_elapsed": 741320, "serialpos": 11, "key_press": -1, "wordID": 574, "type": "PRES_AUD", "trial_index": 128}, "uniqueid": "MTK3145:3RXPCZQMQQI1YXHFJJS7VSQVLSHG1Z", "dateTime": 1520109151571}, {"current_trial": 129, "trialdata": {"rt": -1000, "trial_type": "single-audio", "word": "sculpture", "stimulus": "/static/audio/wordpool/SCULPTURE.wav", "conditions": [24, 1600, "a", 12000], "internal_node_id": "0.0-93.0", "trial": 3, "time_elapsed": 744054, "serialpos": 12, "key_press": -1, "wordID": 1257, "type": "PRES_AUD", "trial_index": 129}, "uniqueid": "MTK3145:3RXPCZQMQQI1YXHFJJS7VSQVLSHG1Z", "dateTime": 1520109154305}, {"current_trial": 130, "trialdata": {"rt": -1000, "trial_type": "single-audio", "word": "laser", "stimulus": "/static/audio/wordpool/LASER.wav", "conditions": [24, 1600, "a", 12000], "internal_node_id": "0.0-94.0", "trial": 3, "time_elapsed": 746764, "serialpos": 13, "key_press": -1, "wordID": 800, "type": "PRES_AUD", "trial_index": 130}, "uniqueid": "MTK3145:3RXPCZQMQQI1YXHFJJS7VSQVLSHG1Z", "dateTime": 1520109157015}, {"current_trial": 131, "trialdata": {"rt": -1000, "trial_type": "single-audio", "word": "snack", "stimulus": "/static/audio/wordpool/SNACK.wav", "conditions": [24, 1600, "a", 12000], "internal_node_id": "0.0-95.0", "trial": 3, "time_elapsed": 749568, "serialpos": 14, "key_press": -1, "wordID": 1330, "type": "PRES_AUD", "trial_index": 131}, "uniqueid": "MTK3145:3RXPCZQMQQI1YXHFJJS7VSQVLSHG1Z", "dateTime": 1520109159819}, {"current_trial": 132, "trialdata": {"rt": -1000, "trial_type": "single-audio", "word": "actor", "stimulus": "/static/audio/wordpool/ACTOR.wav", "conditions": [24, 1600, "a", 12000], "internal_node_id": "0.0-96.0", "trial": 3, "time_elapsed": 752258, "serialpos": 15, "key_press": -1, "wordID": 4, "type": "PRES_AUD", "trial_index": 132}, "uniqueid": "MTK3145:3RXPCZQMQQI1YXHFJJS7VSQVLSHG1Z", "dateTime": 1520109162510}, {"current_trial": 133, "trialdata": {"rt": -1000, "trial_type": "single-audio", "word": "banker", "stimulus": "/static/audio/wordpool/BANKER.wav", "conditions": [24, 1600, "a", 12000], "internal_node_id": "0.0-97.0", "trial": 3, "time_elapsed": 754737, "serialpos": 16, "key_press": -1, "wordID": 83, "type": "PRES_AUD", "trial_index": 133}, "uniqueid": "MTK3145:3RXPCZQMQQI1YXHFJJS7VSQVLSHG1Z", "dateTime": 1520109164988}, {"current_trial": 134, "trialdata": {"rt": -1000, "trial_type": "single-audio", "word": "statue", "stimulus": "/static/audio/wordpool/STATUE.wav", "conditions": [24, 1600, "a", 12000], "internal_node_id": "0.0-98.0", "trial": 3, "time_elapsed": 757196, "serialpos": 17, "key_press": -1, "wordID": 1373, "type": "PRES_AUD", "trial_index": 134}, "uniqueid": "MTK3145:3RXPCZQMQQI1YXHFJJS7VSQVLSHG1Z", "dateTime": 1520109167447}, {"current_trial": 135, "trialdata": {"rt": -1000, "trial_type": "single-audio", "word": "mustard", "stimulus": "/static/audio/wordpool/MUSTARD.wav", "conditions": [24, 1600, "a", 12000], "internal_node_id": "0.0-99.0", "trial": 3, "time_elapsed": 759778, "serialpos": 18, "key_press": -1, "wordID": 934, "type": "PRES_AUD", "trial_index": 135}, "uniqueid": "MTK3145:3RXPCZQMQQI1YXHFJJS7VSQVLSHG1Z", "dateTime": 1520109170029}, {"current_trial": 136, "trialdata": {"rt": -1000, "trial_type": "single-audio", "word": "office", "stimulus": "/static/audio/wordpool/OFFICE.wav", "conditions": [24, 1600, "a", 12000], "internal_node_id": "0.0-100.0", "trial": 3, "time_elapsed": 762563, "serialpos": 19, "key_press": -1, "wordID": 971, "type": "PRES_AUD", "trial_index": 136}, "uniqueid": "MTK3145:3RXPCZQMQQI1YXHFJJS7VSQVLSHG1Z", "dateTime": 1520109172814}, {"current_trial": 137, "trialdata": {"rt": -1000, "trial_type": "single-audio", "word": "suitcase", "stimulus": "/static/audio/wordpool/SUITCASE.wav", "conditions": [24, 1600, "a", 12000], "internal_node_id": "0.0-101.0", "trial": 3, "time_elapsed": 765174, "serialpos": 20, "key_press": -1, "wordID": 1402, "type": "PRES_AUD", "trial_index": 137}, "uniqueid": "MTK3145:3RXPCZQMQQI1YXHFJJS7VSQVLSHG1Z", "dateTime": 1520109175425}, {"current_trial": 138, "trialdata": {"rt": -1000, "trial_type": "single-audio", "word": "luggage", "stimulus": "/static/audio/wordpool/LUGGAGE.wav", "conditions": [24, 1600, "a", 12000], "internal_node_id": "0.0-102.0", "trial": 3, "time_elapsed": 767911, "serialpos": 21, "key_press": -1, "wordID": 846, "type": "PRES_AUD", "trial_index": 138}, "uniqueid": "MTK3145:3RXPCZQMQQI1YXHFJJS7VSQVLSHG1Z", "dateTime": 1520109178162}, {"current_trial": 139, "trialdata": {"rt": -1000, "trial_type": "single-audio", "word": "expert", "stimulus": "/static/audio/wordpool/EXPERT.wav", "conditions": [24, 1600, "a", 12000], "internal_node_id": "0.0-103.0", "trial": 3, "time_elapsed": 770676, "serialpos": 22, "key_press": -1, "wordID": 542, "type": "PRES_AUD", "trial_index": 139}, "uniqueid": "MTK3145:3RXPCZQMQQI1YXHFJJS7VSQVLSHG1Z", "dateTime": 1520109180927}, {"current_trial": 140, "trialdata": {"rt": -1000, "trial_type": "single-audio", "word": "scissors", "stimulus": "/static/audio/wordpool/SCISSORS.wav", "conditions": [24, 1600, "a", 12000], "internal_node_id": "0.0-104.0", "trial": 3, "time_elapsed": 773118, "serialpos": 23, "key_press": -1, "wordID": 1249, "type": "PRES_AUD", "trial_index": 140}, "uniqueid": "MTK3145:3RXPCZQMQQI1YXHFJJS7VSQVLSHG1Z", "dateTime": 1520109183369}, {"current_trial": 141, "trialdata": {"rt": -1, "trial_type": "single-stim", "stimulus": "", "internal_node_id": "0.0-105.0-0.0", "time_elapsed": 774354, "key_press": -1, "type": "PRE_RECALL_DELAY", "trial_index": 141}, "uniqueid": "MTK3145:3RXPCZQMQQI1YXHFJJS7VSQVLSHG1Z", "dateTime": 1520109184605}, {"current_trial": 142, "trialdata": {"rt": -1000, "trial_type": "single-audio", "stimulus": "/static/audio/400Hz.wav", "internal_node_id": "0.0-106.0", "time_elapsed": 774856, "key_press": -1, "type": "PRE_RECALL_ALERT", "trial_index": 142}, "uniqueid": "MTK3145:3RXPCZQMQQI1YXHFJJS7VSQVLSHG1Z", "dateTime": 1520109185107}, {"current_trial": 143, "trialdata": {"rt": [3946, 5243, 7829, 10525, 14181, 19713, 21554, 27381, 30967, 33012, 35052, 36273, 47046], "recwords": ["pigeon", "hawk", "skillet", "daughter", "grill", "sculpture", "braces", "knapsack", "puppy", "uncle", "banker", "actor", "statue"], "key_times": [2084, 2334, 2545, 2721, 2884, 3027, 3946, 4445, 4611, 4826, 4998, 5243, 5992, 6132, 6341, 6553, 6720, 6829, 7031, 7829, 8751, 8961, 9185, 9382, 9569, 9817, 10059, 10145, 10525, 13247, 13467, 13597, 13790, 13972, 14181, 15851, 16152, 16625, 16844, 17285, 17575, 17723, 18004, 18171, 18312, 18421, 18598, 18690, 19713, 20193, 20492, 20682, 20873, 21092, 21299, 21554, 24839, 25132, 25527, 25545, 26230, 26752, 26906, 27036, 27381, 29866, 30068, 30292, 30450, 30605, 30967, 32105, 32342, 32559, 32695, 32857, 33012, 34096, 34272, 34419, 34558, 34716, 34819, 35052, 35265, 35449, 35671, 35824, 35943, 36273, 40664, 40932, 41452, 41616, 41838, 41940, 43041, 43222, 47046], "trial_type": "free-recall", "conditions": [24, 1600, "a", 12000], "internal_node_id": "0.0-107.0-0.0", "key_presses": [80, 73, 71, 69, 79, 78, 13, 72, 65, 87, 75, 13, 83, 75, 73, 76, 76, 69, 84, 13, 68, 65, 85, 71, 72, 84, 69, 82, 13, 71, 82, 73, 76, 76, 13, 83, 67, 85, 76, 80, 85, 84, 8, 8, 84, 85, 82, 69, 13, 66, 82, 65, 67, 69, 83, 13, 75, 78, 65, 80, 83, 65, 67, 75, 13, 80, 85, 80, 80, 89, 13, 85, 78, 67, 76, 69, 13, 66, 65, 78, 75, 69, 82, 13, 65, 67, 84, 79, 82, 13, 83, 84, 65, 84, 85, 82, 8, 69, 13], "trial": 3, "time_elapsed": 834861, "type": "FREE_RECALL", "trial_index": 143}, "uniqueid": "MTK3145:3RXPCZQMQQI1YXHFJJS7VSQVLSHG1Z", "dateTime": 1520109245118}, {"current_trial": 144, "trialdata": {"rt": 1235, "trial_type": "text", "internal_node_id": "0.0-108.0", "time_elapsed": 838104, "key_press": 32, "type": "INSTRUCTIONS", "trial_index": 144}, "uniqueid": "MTK3145:3RXPCZQMQQI1YXHFJJS7VSQVLSHG1Z", "dateTime": 1520109248355}, {"current_trial": 145, "trialdata": {"rt": [2012, 6782, 9132, 10944, 13749, 15975, 17971, 20936, 23589], "trial_type": "math-distractor", "key_times": [1586, 1765, 2012, 5532, 5818, 6782, 8704, 8883, 9132, 10480, 10728, 10944, 12688, 12900, 13749, 15311, 15501, 15975, 17407, 17626, 17971, 20189, 20632, 20936, 22891, 23094, 23589], "responses": ["15", "24", "15", "16", "14", "15", "20", "13", "14"], "num2": [7, 9, 2, 9, 4, 5, 2, 5, 3, 1], "num3": [3, 8, 9, 6, 9, 6, 9, 2, 2, 2], "conditions": [12, 1600, "a", 24000], "internal_node_id": "0.0-109.0", "key_presses": [97, 101, 13, 98, 100, 13, 97, 101, 13, 97, 102, 13, 97, 100, 13, 97, 101, 13, 98, 96, 13, 97, 99, 13, 97, 100, 13], "trial": 4, "time_elapsed": 864108, "type": "DISTRACTOR", "trial_index": 145, "num1": [5, 7, 4, 1, 1, 4, 9, 6, 9, 3]}, "uniqueid": "MTK3145:3RXPCZQMQQI1YXHFJJS7VSQVLSHG1Z", "dateTime": 1520109274359}, {"current_trial": 146, "trialdata": {"rt": -1, "trial_type": "single-stim", "stimulus": "<p id=\"stim\">10</p>", "internal_node_id": "0.0-110.0-0.0", "time_elapsed": 867111, "key_press": -1, "trial_index": 146}, "uniqueid": "MTK3145:3RXPCZQMQQI1YXHFJJS7VSQVLSHG1Z", "dateTime": 1520109277362}, {"current_trial": 147, "trialdata": {"rt": -1, "trial_type": "single-stim", "stimulus": "<p id=\"stim\">9</p>", "internal_node_id": "0.0-110.0-1.0", "time_elapsed": 868112, "key_press": -1, "trial_index": 147}, "uniqueid": "MTK3145:3RXPCZQMQQI1YXHFJJS7VSQVLSHG1Z", "dateTime": 1520109278364}, {"current_trial": 148, "trialdata": {"rt": -1, "trial_type": "single-stim", "stimulus": "<p id=\"stim\">8</p>", "internal_node_id": "0.0-110.0-2.0", "time_elapsed": 869114, "key_press": -1, "trial_index": 148}, "uniqueid": "MTK3145:3RXPCZQMQQI1YXHFJJS7VSQVLSHG1Z", "dateTime": 1520109279365}, {"current_trial": 149, "trialdata": {"rt": -1, "trial_type": "single-stim", "stimulus": "<p id=\"stim\">7</p>", "internal_node_id": "0.0-110.0-3.0", "time_elapsed": 870116, "key_press": -1, "trial_index": 149}, "uniqueid": "MTK3145:3RXPCZQMQQI1YXHFJJS7VSQVLSHG1Z", "dateTime": 1520109280368}, {"current_trial": 150, "trialdata": {"rt": -1, "trial_type": "single-stim", "stimulus": "<p id=\"stim\">6</p>", "internal_node_id": "0.0-110.0-4.0", "time_elapsed": 871118, "key_press": -1, "trial_index": 150}, "uniqueid": "MTK3145:3RXPCZQMQQI1YXHFJJS7VSQVLSHG1Z", "dateTime": 1520109281370}, {"current_trial": 151, "trialdata": {"rt": -1, "trial_type": "single-stim", "stimulus": "<p id=\"stim\">5</p>", "internal_node_id": "0.0-110.0-5.0", "time_elapsed": 872120, "key_press": -1, "trial_index": 151}, "uniqueid": "MTK3145:3RXPCZQMQQI1YXHFJJS7VSQVLSHG1Z", "dateTime": 1520109282371}, {"current_trial": 152, "trialdata": {"rt": -1, "trial_type": "single-stim", "stimulus": "<p id=\"stim\">4</p>", "internal_node_id": "0.0-110.0-6.0", "time_elapsed": 873121, "key_press": -1, "trial_index": 152}, "uniqueid": "MTK3145:3RXPCZQMQQI1YXHFJJS7VSQVLSHG1Z", "dateTime": 1520109283372}, {"current_trial": 153, "trialdata": {"rt": -1, "trial_type": "single-stim", "stimulus": "<p id=\"stim\">3</p>", "internal_node_id": "0.0-110.0-7.0", "time_elapsed": 874124, "key_press": -1, "trial_index": 153}, "uniqueid": "MTK3145:3RXPCZQMQQI1YXHFJJS7VSQVLSHG1Z", "dateTime": 1520109284375}, {"current_trial": 154, "trialdata": {"rt": -1, "trial_type": "single-stim", "stimulus": "<p id=\"stim\">2</p>", "internal_node_id": "0.0-110.0-8.0", "time_elapsed": 875127, "key_press": -1, "trial_index": 154}, "uniqueid": "MTK3145:3RXPCZQMQQI1YXHFJJS7VSQVLSHG1Z", "dateTime": 1520109285378}, {"current_trial": 155, "trialdata": {"rt": -1, "trial_type": "single-stim", "stimulus": "<p id=\"stim\">1</p>", "internal_node_id": "0.0-110.0-9.0", "time_elapsed": 876129, "key_press": -1, "trial_index": 155}, "uniqueid": "MTK3145:3RXPCZQMQQI1YXHFJJS7VSQVLSHG1Z", "dateTime": 1520109286380}, {"current_trial": 156, "trialdata": {"rt": -1, "trial_type": "single-stim", "stimulus": "<p id=\"stim\">+</p>", "internal_node_id": "0.0-111.0-0.0", "time_elapsed": 877631, "key_press": -1, "type": "FIXATION", "trial_index": 156}, "uniqueid": "MTK3145:3RXPCZQMQQI1YXHFJJS7VSQVLSHG1Z", "dateTime": 1520109287882}, {"current_trial": 157, "trialdata": {"rt": -1000, "trial_type": "single-audio", "word": "poison", "stimulus": "/static/audio/wordpool/POISON.wav", "conditions": [12, 1600, "a", 24000], "internal_node_id": "0.0-112.0", "trial": 4, "time_elapsed": 880130, "serialpos": 0, "key_press": -1, "wordID": 1095, "type": "PRES_AUD", "trial_index": 157}, "uniqueid": "MTK3145:3RXPCZQMQQI1YXHFJJS7VSQVLSHG1Z", "dateTime": 1520109290381}, {"current_trial": 158, "trialdata": {"rt": -1000, "trial_type": "single-audio", "word": "smog", "stimulus": "/static/audio/wordpool/SMOG.wav", "conditions": [12, 1600, "a", 24000], "internal_node_id": "0.0-113.0", "trial": 4, "time_elapsed": 882866, "serialpos": 1, "key_press": -1, "wordID": 1329, "type": "PRES_AUD", "trial_index": 158}, "uniqueid": "MTK3145:3RXPCZQMQQI1YXHFJJS7VSQVLSHG1Z", "dateTime": 1520109293117}, {"current_trial": 159, "trialdata": {"rt": -1000, "trial_type": "single-audio", "word": "viking", "stimulus": "/static/audio/wordpool/VIKING.wav", "conditions": [12, 1600, "a", 24000], "internal_node_id": "0.0-114.0", "trial": 4, "time_elapsed": 885566, "serialpos": 2, "key_press": -1, "wordID": 1564, "type": "PRES_AUD", "trial_index": 159}, "uniqueid": "MTK3145:3RXPCZQMQQI1YXHFJJS7VSQVLSHG1Z", "dateTime": 1520109295818}, {"current_trial": 160, "trialdata": {"rt": -1000, "trial_type": "single-audio", "word": "hood", "stimulus": "/static/audio/wordpool/HOOD.wav", "conditions": [12, 1600, "a", 24000], "internal_node_id": "0.0-115.0", "trial": 4, "time_elapsed": 888336, "serialpos": 3, "key_press": -1, "wordID": 713, "type": "PRES_AUD", "trial_index": 160}, "uniqueid": "MTK3145:3RXPCZQMQQI1YXHFJJS7VSQVLSHG1Z", "dateTime": 1520109298587}, {"current_trial": 161, "trialdata": {"rt": -1000, "trial_type": "single-audio", "word": "tombstone", "stimulus": "/static/audio/wordpool/TOMBSTONE.wav", "conditions": [12, 1600, "a", 24000], "internal_node_id": "0.0-116.0", "trial": 4, "time_elapsed": 891142, "serialpos": 4, "key_press": -1, "wordID": 1477, "type": "PRES_AUD", "trial_index": 161}, "uniqueid": "MTK3145:3RXPCZQMQQI1YXHFJJS7VSQVLSHG1Z", "dateTime": 1520109301393}, {"current_trial": 162, "trialdata": {"rt": -1000, "trial_type": "single-audio", "word": "ozone", "stimulus": "/static/audio/wordpool/OZONE.wav", "conditions": [12, 1600, "a", 24000], "internal_node_id": "0.0-117.0", "trial": 4, "time_elapsed": 893634, "serialpos": 5, "key_press": -1, "wordID": 995, "type": "PRES_AUD", "trial_index": 162}, "uniqueid": "MTK3145:3RXPCZQMQQI1YXHFJJS7VSQVLSHG1Z", "dateTime": 1520109303885}, {"current_trial": 163, "trialdata": {"rt": -1000, "trial_type": "single-audio", "word": "scotch", "stimulus": "/static/audio/wordpool/SCOTCH.wav", "conditions": [12, 1600, "a", 24000], "internal_node_id": "0.0-118.0", "trial": 4, "time_elapsed": 896069, "serialpos": 6, "key_press": -1, "wordID": 1250, "type": "PRES_AUD", "trial_index": 163}, "uniqueid": "MTK3145:3RXPCZQMQQI1YXHFJJS7VSQVLSHG1Z", "dateTime": 1520109306321}, {"current_trial": 164, "trialdata": {"rt": -1000, "trial_type": "single-audio", "word": "sticker", "stimulus": "/static/audio/wordpool/STICKER.wav", "conditions": [12, 1600, "a", 24000], "internal_node_id": "0.0-119.0", "trial": 4, "time_elapsed": 898551, "serialpos": 7, "key_press": -1, "wordID": 1381, "type": "PRES_AUD", "trial_index": 164}, "uniqueid": "MTK3145:3RXPCZQMQQI1YXHFJJS7VSQVLSHG1Z", "dateTime": 1520109308802}, {"current_trial": 165, "trialdata": {"rt": -1000, "trial_type": "single-audio", "word": "badge", "stimulus": "/static/audio/wordpool/BADGE.wav", "conditions": [12, 1600, "a", 24000], "internal_node_id": "0.0-120.0", "trial": 4, "time_elapsed": 901222, "serialpos": 8, "key_press": -1, "wordID": 67, "type": "PRES_AUD", "trial_index": 165}, "uniqueid": "MTK3145:3RXPCZQMQQI1YXHFJJS7VSQVLSHG1Z", "dateTime": 1520109311473}, {"current_trial": 166, "trialdata": {"rt": -1000, "trial_type": "single-audio", "word": "river", "stimulus": "/static/audio/wordpool/RIVER.wav", "conditions": [12, 1600, "a", 24000], "internal_node_id": "0.0-121.0", "trial": 4, "time_elapsed": 903705, "serialpos": 9, "key_press": -1, "wordID": 1193, "type": "PRES_AUD", "trial_index": 166}, "uniqueid": "MTK3145:3RXPCZQMQQI1YXHFJJS7VSQVLSHG1Z", "dateTime": 1520109313956}, {"current_trial": 167, "trialdata": {"rt": -1000, "trial_type": "single-audio", "word": "country", "stimulus": "/static/audio/wordpool/COUNTRY.wav", "conditions": [12, 1600, "a", 24000], "internal_node_id": "0.0-122.0", "trial": 4, "time_elapsed": 906384, "serialpos": 10, "key_press": -1, "wordID": 387, "type": "PRES_AUD", "trial_index": 167}, "uniqueid": "MTK3145:3RXPCZQMQQI1YXHFJJS7VSQVLSHG1Z", "dateTime": 1520109316635}, {"current_trial": 168, "trialdata": {"rt": -1000, "trial_type": "single-audio", "word": "ketchup", "stimulus": "/static/audio/wordpool/KETCHUP.wav", "conditions": [12, 1600, "a", 24000], "internal_node_id": "0.0-123.0", "trial": 4, "time_elapsed": 908809, "serialpos": 11, "key_press": -1, "wordID": 770, "type": "PRES_AUD", "trial_index": 168}, "uniqueid": "MTK3145:3RXPCZQMQQI1YXHFJJS7VSQVLSHG1Z", "dateTime": 1520109319060}, {"current_trial": 169, "trialdata": {"rt": -1, "trial_type": "single-stim", "stimulus": "", "internal_node_id": "0.0-124.0-0.0", "time_elapsed": 910164, "key_press": -1, "type": "PRE_RECALL_DELAY", "trial_index": 169}, "uniqueid": "MTK3145:3RXPCZQMQQI1YXHFJJS7VSQVLSHG1Z", "dateTime": 1520109320415}, {"current_trial": 170, "trialdata": {"rt": -1000, "trial_type": "single-audio", "stimulus": "/static/audio/400Hz.wav", "internal_node_id": "0.0-125.0", "time_elapsed": 910670, "key_press": -1, "type": "PRE_RECALL_ALERT", "trial_index": 170}, "uniqueid": "MTK3145:3RXPCZQMQQI1YXHFJJS7VSQVLSHG1Z", "dateTime": 1520109320922}, {"current_trial": 171, "trialdata": {"rt": [3675, 4916, 8056, 10351, 12210, 16480, 18836, 21520, 24885, 27475, 46825], "recwords": ["viking", "hood", "smog", "poison", "river", "tombstone", "country", "ozone", "ketchup", "badge", "scotch"], "key_times": [1825, 1982, 2219, 2411, 2502, 2668, 3675, 4087, 4331, 4493, 4639, 4916, 7119, 7309, 7530, 7723, 8056, 8444, 8750, 9457, 9674, 9783, 9884, 10351, 10963, 11122, 11347, 11624, 11723, 12210, 13806, 14000, 14247, 14549, 14826, 15146, 15597, 15682, 15847, 15953, 16101, 16480, 17526, 17657, 17752, 18002, 18142, 18344, 18482, 18836, 19818, 20185, 20301, 20403, 20603, 21520, 22926, 23084, 23320, 23647, 23762, 23986, 24089, 24885, 25855, 26058, 26250, 26495, 26681, 27475, 45257, 45490, 45837, 46029, 46302, 46399, 46825], "trial_type": "free-recall", "conditions": [12, 1600, "a", 24000], "internal_node_id": "0.0-126.0-0.0", "key_presses": [86, 73, 75, 73, 78, 71, 13, 72, 79, 79, 68, 13, 83, 77, 79, 71, 13, 80, 79, 73, 83, 79, 78, 13, 82, 73, 86, 69, 82, 13, 84, 79, 77, 66, 83, 79, 8, 84, 79, 78, 69, 13, 67, 79, 85, 78, 84, 82, 89, 13, 79, 90, 79, 78, 69, 13, 75, 69, 84, 67, 72, 85, 80, 13, 66, 65, 68, 71, 69, 13, 83, 67, 79, 84, 67, 72, 13], "trial": 4, "time_elapsed": 970677, "type": "FREE_RECALL", "trial_index": 171}, "uniqueid": "MTK3145:3RXPCZQMQQI1YXHFJJS7VSQVLSHG1Z", "dateTime": 1520109380933}, {"current_trial": 172, "trialdata": {"rt": 786, "trial_type": "text", "internal_node_id": "0.0-127.0", "time_elapsed": 973469, "key_press": 32, "type": "INSTRUCTIONS", "trial_index": 172}, "uniqueid": "MTK3145:3RXPCZQMQQI1YXHFJJS7VSQVLSHG1Z", "dateTime": 1520109383721}, {"current_trial": 173, "trialdata": {"rt": [2864, 4795, 7084, 9245], "trial_type": "math-distractor", "key_times": [2418, 2622, 2864, 4437, 4795, 6584, 6782, 7084, 8647, 8919, 9245], "responses": ["23", "9", "15", "17"], "num2": [9, 3, 3, 7, 4], "num3": [5, 5, 6, 3, 8], "conditions": [24, 1600, "a", 12000], "internal_node_id": "0.0-128.0", "key_presses": [98, 99, 13, 105, 13, 97, 101, 13, 97, 103, 13], "trial": 5, "time_elapsed": 987476, "type": "DISTRACTOR", "trial_index": 173, "num1": [9, 1, 6, 7, 9]}, "uniqueid": "MTK3145:3RXPCZQMQQI1YXHFJJS7VSQVLSHG1Z", "dateTime": 1520109397727}, {"current_trial": 174, "trialdata": {"rt": -1, "trial_type": "single-stim", "stimulus": "<p id=\"stim\">10</p>", "internal_node_id": "0.0-129.0-0.0", "time_elapsed": 990478, "key_press": -1, "trial_index": 174}, "uniqueid": "MTK3145:3RXPCZQMQQI1YXHFJJS7VSQVLSHG1Z", "dateTime": 1520109400729}, {"current_trial": 175, "trialdata": {"rt": -1, "trial_type": "single-stim", "stimulus": "<p id=\"stim\">9</p>", "internal_node_id": "0.0-129.0-1.0", "time_elapsed": 991481, "key_press": -1, "trial_index": 175}, "uniqueid": "MTK3145:3RXPCZQMQQI1YXHFJJS7VSQVLSHG1Z", "dateTime": 1520109401732}, {"current_trial": 176, "trialdata": {"rt": -1, "trial_type": "single-stim", "stimulus": "<p id=\"stim\">8</p>", "internal_node_id": "0.0-129.0-2.0", "time_elapsed": 992483, "key_press": -1, "trial_index": 176}, "uniqueid": "MTK3145:3RXPCZQMQQI1YXHFJJS7VSQVLSHG1Z", "dateTime": 1520109402734}, {"current_trial": 177, "trialdata": {"rt": -1, "trial_type": "single-stim", "stimulus": "<p id=\"stim\">7</p>", "internal_node_id": "0.0-129.0-3.0", "time_elapsed": 993485, "key_press": -1, "trial_index": 177}, "uniqueid": "MTK3145:3RXPCZQMQQI1YXHFJJS7VSQVLSHG1Z", "dateTime": 1520109403736}, {"current_trial": 178, "trialdata": {"rt": -1, "trial_type": "single-stim", "stimulus": "<p id=\"stim\">6</p>", "internal_node_id": "0.0-129.0-4.0", "time_elapsed": 994488, "key_press": -1, "trial_index": 178}, "uniqueid": "MTK3145:3RXPCZQMQQI1YXHFJJS7VSQVLSHG1Z", "dateTime": 1520109404739}, {"current_trial": 179, "trialdata": {"rt": -1, "trial_type": "single-stim", "stimulus": "<p id=\"stim\">5</p>", "internal_node_id": "0.0-129.0-5.0", "time_elapsed": 995490, "key_press": -1, "trial_index": 179}, "uniqueid": "MTK3145:3RXPCZQMQQI1YXHFJJS7VSQVLSHG1Z", "dateTime": 1520109405741}, {"current_trial": 180, "trialdata": {"rt": -1, "trial_type": "single-stim", "stimulus": "<p id=\"stim\">4</p>", "internal_node_id": "0.0-129.0-6.0", "time_elapsed": 996491, "key_press": -1, "trial_index": 180}, "uniqueid": "MTK3145:3RXPCZQMQQI1YXHFJJS7VSQVLSHG1Z", "dateTime": 1520109406743}, {"current_trial": 181, "trialdata": {"rt": -1, "trial_type": "single-stim", "stimulus": "<p id=\"stim\">3</p>", "internal_node_id": "0.0-129.0-7.0", "time_elapsed": 997492, "key_press": -1, "trial_index": 181}, "uniqueid": "MTK3145:3RXPCZQMQQI1YXHFJJS7VSQVLSHG1Z", "dateTime": 1520109407744}, {"current_trial": 182, "trialdata": {"rt": -1, "trial_type": "single-stim", "stimulus": "<p id=\"stim\">2</p>", "internal_node_id": "0.0-129.0-8.0", "time_elapsed": 998495, "key_press": -1, "trial_index": 182}, "uniqueid": "MTK3145:3RXPCZQMQQI1YXHFJJS7VSQVLSHG1Z", "dateTime": 1520109408746}, {"current_trial": 183, "trialdata": {"rt": -1, "trial_type": "single-stim", "stimulus": "<p id=\"stim\">1</p>", "internal_node_id": "0.0-129.0-9.0", "time_elapsed": 999497, "key_press": -1, "trial_index": 183}, "uniqueid": "MTK3145:3RXPCZQMQQI1YXHFJJS7VSQVLSHG1Z", "dateTime": 1520109409748}, {"current_trial": 184, "trialdata": {"rt": -1, "trial_type": "single-stim", "stimulus": "<p id=\"stim\">+</p>", "internal_node_id": "0.0-130.0-0.0", "time_elapsed": 1000999, "key_press": -1, "type": "FIXATION", "trial_index": 184}, "uniqueid": "MTK3145:3RXPCZQMQQI1YXHFJJS7VSQVLSHG1Z", "dateTime": 1520109411250}, {"current_trial": 185, "trialdata": {"rt": -1000, "trial_type": "single-audio", "word": "partner", "stimulus": "/static/audio/wordpool/PARTNER.wav", "conditions": [24, 1600, "a", 12000], "internal_node_id": "0.0-131.0", "trial": 5, "time_elapsed": 1003555, "serialpos": 0, "key_press": -1, "wordID": 1016, "type": "PRES_AUD", "trial_index": 185}, "uniqueid": "MTK3145:3RXPCZQMQQI1YXHFJJS7VSQVLSHG1Z", "dateTime": 1520109413806}, {"current_trial": 186, "trialdata": {"rt": -1000, "trial_type": "single-audio", "word": "snake", "stimulus": "/static/audio/wordpool/SNAKE.wav", "conditions": [24, 1600, "a", 12000], "internal_node_id": "0.0-132.0", "trial": 5, "time_elapsed": 1006125, "serialpos": 1, "key_press": -1, "wordID": 1332, "type": "PRES_AUD", "trial_index": 186}, "uniqueid": "MTK3145:3RXPCZQMQQI1YXHFJJS7VSQVLSHG1Z", "dateTime": 1520109416377}, {"current_trial": 187, "trialdata": {"rt": -1000, "trial_type": "single-audio", "word": "rabbit", "stimulus": "/static/audio/wordpool/RABBIT.wav", "conditions": [24, 1600, "a", 12000], "internal_node_id": "0.0-133.0", "trial": 5, "time_elapsed": 1008536, "serialpos": 2, "key_press": -1, "wordID": 1151, "type": "PRES_AUD", "trial_index": 187}, "uniqueid": "MTK3145:3RXPCZQMQQI1YXHFJJS7VSQVLSHG1Z", "dateTime": 1520109418787}, {"current_trial": 188, "trialdata": {"rt": -1000, "trial_type": "single-audio", "word": "vagrant", "stimulus": "/static/audio/wordpool/VAGRANT.wav", "conditions": [24, 1600, "a", 12000], "internal_node_id": "0.0-134.0", "trial": 5, "time_elapsed": 1011172, "serialpos": 3, "key_press": -1, "wordID": 1543, "type": "PRES_AUD", "trial_index": 188}, "uniqueid": "MTK3145:3RXPCZQMQQI1YXHFJJS7VSQVLSHG1Z", "dateTime": 1520109421423}, {"current_trial": 189, "trialdata": {"rt": -1000, "trial_type": "single-audio", "word": "shrub", "stimulus": "/static/audio/wordpool/SHRUB.wav", "conditions": [24, 1600, "a", 12000], "internal_node_id": "0.0-135.0", "trial": 5, "time_elapsed": 1013977, "serialpos": 4, "key_press": -1, "wordID": 1298, "type": "PRES_AUD", "trial_index": 189}, "uniqueid": "MTK3145:3RXPCZQMQQI1YXHFJJS7VSQVLSHG1Z", "dateTime": 1520109424229}, {"current_trial": 190, "trialdata": {"rt": -1000, "trial_type": "single-audio", "word": "rebel", "stimulus": "/static/audio/wordpool/REBEL.wav", "conditions": [24, 1600, "a", 12000], "internal_node_id": "0.0-136.0", "trial": 5, "time_elapsed": 1016558, "serialpos": 5, "key_press": -1, "wordID": 1171, "type": "PRES_AUD", "trial_index": 190}, "uniqueid": "MTK3145:3RXPCZQMQQI1YXHFJJS7VSQVLSHG1Z", "dateTime": 1520109426810}, {"current_trial": 191, "trialdata": {"rt": -1000, "trial_type": "single-audio", "word": "temple", "stimulus": "/static/audio/wordpool/TEMPLE.wav", "conditions": [24, 1600, "a", 12000], "internal_node_id": "0.0-137.0", "trial": 5, "time_elapsed": 1019275, "serialpos": 6, "key_press": -1, "wordID": 1447, "type": "PRES_AUD", "trial_index": 191}, "uniqueid": "MTK3145:3RXPCZQMQQI1YXHFJJS7VSQVLSHG1Z", "dateTime": 1520109429526}, {"current_trial": 192, "trialdata": {"rt": -1000, "trial_type": "single-audio", "word": "sunset", "stimulus": "/static/audio/wordpool/SUNSET.wav", "conditions": [24, 1600, "a", 12000], "internal_node_id": "0.0-138.0", "trial": 5, "time_elapsed": 1021708, "serialpos": 7, "key_press": -1, "wordID": 1407, "type": "PRES_AUD", "trial_index": 192}, "uniqueid": "MTK3145:3RXPCZQMQQI1YXHFJJS7VSQVLSHG1Z", "dateTime": 1520109431959}, {"current_trial": 193, "trialdata": {"rt": -1000, "trial_type": "single-audio", "word": "lily", "stimulus": "/static/audio/wordpool/LILY.wav", "conditions": [24, 1600, "a", 12000], "internal_node_id": "0.0-139.0", "trial": 5, "time_elapsed": 1024400, "serialpos": 8, "key_press": -1, "wordID": 820, "type": "PRES_AUD", "trial_index": 193}, "uniqueid": "MTK3145:3RXPCZQMQQI1YXHFJJS7VSQVLSHG1Z", "dateTime": 1520109434652}, {"current_trial": 194, "trialdata": {"rt": -1000, "trial_type": "single-audio", "word": "match", "stimulus": "/static/audio/wordpool/MATCH.wav", "conditions": [24, 1600, "a", 12000], "internal_node_id": "0.0-140.0", "trial": 5, "time_elapsed": 1027112, "serialpos": 9, "key_press": -1, "wordID": 877, "type": "PRES_AUD", "trial_index": 194}, "uniqueid": "MTK3145:3RXPCZQMQQI1YXHFJJS7VSQVLSHG1Z", "dateTime": 1520109437364}, {"current_trial": 195, "trialdata": {"rt": -1000, "trial_type": "single-audio", "word": "umpire", "stimulus": "/static/audio/wordpool/UMPIRE.wav", "conditions": [24, 1600, "a", 12000], "internal_node_id": "0.0-141.0", "trial": 5, "time_elapsed": 1029577, "serialpos": 10, "key_press": -1, "wordID": 1534, "type": "PRES_AUD", "trial_index": 195}, "uniqueid": "MTK3145:3RXPCZQMQQI1YXHFJJS7VSQVLSHG1Z", "dateTime": 1520109439828}, {"current_trial": 196, "trialdata": {"rt": -1000, "trial_type": "single-audio", "word": "cloud", "stimulus": "/static/audio/wordpool/CLOUD.wav", "conditions": [24, 1600, "a", 12000], "internal_node_id": "0.0-142.0", "trial": 5, "time_elapsed": 1032367, "serialpos": 11, "key_press": -1, "wordID": 327, "type": "PRES_AUD", "trial_index": 196}, "uniqueid": "MTK3145:3RXPCZQMQQI1YXHFJJS7VSQVLSHG1Z", "dateTime": 1520109442618}, {"current_trial": 197, "trialdata": {"rt": -1000, "trial_type": "single-audio", "word": "drug", "stimulus": "/static/audio/wordpool/DRUG.wav", "conditions": [24, 1600, "a", 12000], "internal_node_id": "0.0-143.0", "trial": 5, "time_elapsed": 1035117, "serialpos": 12, "key_press": -1, "wordID": 500, "type": "PRES_AUD", "trial_index": 197}, "uniqueid": "MTK3145:3RXPCZQMQQI1YXHFJJS7VSQVLSHG1Z", "dateTime": 1520109445368}, {"current_trial": 198, "trialdata": {"rt": -1000, "trial_type": "single-audio", "word": "powder", "stimulus": "/static/audio/wordpool/POWDER.wav", "conditions": [24, 1600, "a", 12000], "internal_node_id": "0.0-144.0", "trial": 5, "time_elapsed": 1037626, "serialpos": 13, "key_press": -1, "wordID": 1116, "type": "PRES_AUD", "trial_index": 198}, "uniqueid": "MTK3145:3RXPCZQMQQI1YXHFJJS7VSQVLSHG1Z", "dateTime": 1520109447877}, {"current_trial": 199, "trialdata": {"rt": -1000, "trial_type": "single-audio", "word": "nomad", "stimulus": "/static/audio/wordpool/NOMAD.wav", "conditions": [24, 1600, "a", 12000], "internal_node_id": "0.0-145.0", "trial": 5, "time_elapsed": 1040102, "serialpos": 14, "key_press": -1, "wordID": 954, "type": "PRES_AUD", "trial_index": 199}, "uniqueid": "MTK3145:3RXPCZQMQQI1YXHFJJS7VSQVLSHG1Z", "dateTime": 1520109450353}, {"current_trial": 200, "trialdata": {"rt": -1000, "trial_type": "single-audio", "word": "champagne", "stimulus": "/static/audio/wordpool/CHAMPAGNE.wav", "conditions": [24, 1600, "a", 12000], "internal_node_id": "0.0-146.0", "trial": 5, "time_elapsed": 1042586, "serialpos": 15, "key_press": -1, "wordID": 277, "type": "PRES_AUD", "trial_index": 200}, "uniqueid": "MTK3145:3RXPCZQMQQI1YXHFJJS7VSQVLSHG1Z", "dateTime": 1520109452837}, {"current_trial": 201, "trialdata": {"rt": -1000, "trial_type": "single-audio", "word": "london", "stimulus": "/static/audio/wordpool/LONDON.wav", "conditions": [24, 1600, "a", 12000], "internal_node_id": "0.0-147.0", "trial": 5, "time_elapsed": 1045299, "serialpos": 16, "key_press": -1, "wordID": 842, "type": "PRES_AUD", "trial_index": 201}, "uniqueid": "MTK3145:3RXPCZQMQQI1YXHFJJS7VSQVLSHG1Z", "dateTime": 1520109455550}, {"current_trial": 202, "trialdata": {"rt": -1000, "trial_type": "single-audio", "word": "goblin", "stimulus": "/static/audio/wordpool/GOBLIN.wav", "conditions": [24, 1600, "a", 12000], "internal_node_id": "0.0-148.0", "trial": 5, "time_elapsed": 1047988, "serialpos": 17, "key_press": -1, "wordID": 644, "type": "PRES_AUD", "trial_index": 202}, "uniqueid": "MTK3145:3RXPCZQMQQI1YXHFJJS7VSQVLSHG1Z", "dateTime": 1520109458239}, {"current_trial": 203, "trialdata": {"rt": -1000, "trial_type": "single-audio", "word": "tourist", "stimulus": "/static/audio/wordpool/TOURIST.wav", "conditions": [24, 1600, "a", 12000], "internal_node_id": "0.0-149.0", "trial": 5, "time_elapsed": 1050677, "serialpos": 18, "key_press": -1, "wordID": 1487, "type": "PRES_AUD", "trial_index": 203}, "uniqueid": "MTK3145:3RXPCZQMQQI1YXHFJJS7VSQVLSHG1Z", "dateTime": 1520109460928}, {"current_trial": 204, "trialdata": {"rt": -1000, "trial_type": "single-audio", "word": "orchid", "stimulus": "/static/audio/wordpool/ORCHID.wav", "conditions": [24, 1600, "a", 12000], "internal_node_id": "0.0-150.0", "trial": 5, "time_elapsed": 1053226, "serialpos": 19, "key_press": -1, "wordID": 981, "type": "PRES_AUD", "trial_index": 204}, "uniqueid": "MTK3145:3RXPCZQMQQI1YXHFJJS7VSQVLSHG1Z", "dateTime": 1520109463477}, {"current_trial": 205, "trialdata": {"rt": -1000, "trial_type": "single-audio", "word": "penguin", "stimulus": "/static/audio/wordpool/PENGUIN.wav", "conditions": [24, 1600, "a", 12000], "internal_node_id": "0.0-151.0", "trial": 5, "time_elapsed": 1055800, "serialpos": 20, "key_press": -1, "wordID": 1043, "type": "PRES_AUD", "trial_index": 205}, "uniqueid": "MTK3145:3RXPCZQMQQI1YXHFJJS7VSQVLSHG1Z", "dateTime": 1520109466052}, {"current_trial": 206, "trialdata": {"rt": -1000, "trial_type": "single-audio", "word": "mammal", "stimulus": "/static/audio/wordpool/MAMMAL.wav", "conditions": [24, 1600, "a", 12000], "internal_node_id": "0.0-152.0", "trial": 5, "time_elapsed": 1058599, "serialpos": 21, "key_press": -1, "wordID": 860, "type": "PRES_AUD", "trial_index": 206}, "uniqueid": "MTK3145:3RXPCZQMQQI1YXHFJJS7VSQVLSHG1Z", "dateTime": 1520109468851}, {"current_trial": 207, "trialdata": {"rt": -1000, "trial_type": "single-audio", "word": "flower", "stimulus": "/static/audio/wordpool/FLOWER.wav", "conditions": [24, 1600, "a", 12000], "internal_node_id": "0.0-153.0", "trial": 5, "time_elapsed": 1061304, "serialpos": 22, "key_press": -1, "wordID": 583, "type": "PRES_AUD", "trial_index": 207}, "uniqueid": "MTK3145:3RXPCZQMQQI1YXHFJJS7VSQVLSHG1Z", "dateTime": 1520109471555}, {"current_trial": 208, "trialdata": {"rt": -1000, "trial_type": "single-audio", "word": "drink", "stimulus": "/static/audio/wordpool/DRINK.wav", "conditions": [24, 1600, "a", 12000], "internal_node_id": "0.0-154.0", "trial": 5, "time_elapsed": 1063856, "serialpos": 23, "key_press": -1, "wordID": 497, "type": "PRES_AUD", "trial_index": 208}, "uniqueid": "MTK3145:3RXPCZQMQQI1YXHFJJS7VSQVLSHG1Z", "dateTime": 1520109474107}, {"current_trial": 209, "trialdata": {"rt": -1, "trial_type": "single-stim", "stimulus": "", "internal_node_id": "0.0-155.0-0.0", "time_elapsed": 1065088, "key_press": -1, "type": "PRE_RECALL_DELAY", "trial_index": 209}, "uniqueid": "MTK3145:3RXPCZQMQQI1YXHFJJS7VSQVLSHG1Z", "dateTime": 1520109475339}, {"current_trial": 210, "trialdata": {"rt": -1000, "trial_type": "single-audio", "stimulus": "/static/audio/400Hz.wav", "internal_node_id": "0.0-156.0", "time_elapsed": 1065594, "key_press": -1, "type": "PRE_RECALL_ALERT", "trial_index": 210}, "uniqueid": "MTK3145:3RXPCZQMQQI1YXHFJJS7VSQVLSHG1Z", "dateTime": 1520109475846}, {"current_trial": 211, "trialdata": {"rt": [1955, 4303, 6234, 9661, 11413, 14459, 15924, 19382, 21836, 25746, 27356, 30255, 33844, 44509, 54104], "recwords": ["drink", "goblin", "flower", "orchid", "lily", "nomad", "sunset", "rebel", "shrub", "partner", "sneak", "vagrant", "rabbit", "powder", "drug"], "key_times": [588, 968, 1243, 1374, 1600, 1955, 2260, 2438, 2629, 2786, 3163, 3296, 4303, 5151, 5248, 5477, 5591, 5743, 5886, 6234, 7990, 8199, 8579, 8727, 9065, 9364, 9661, 10065, 10246, 10447, 10717, 11413, 13290, 13480, 13702, 13893, 14127, 14459, 14699, 14831, 15064, 15189, 15389, 15598, 15924, 16850, 16965, 17231, 17451, 17677, 19382, 19688, 19957, 20443, 20631, 20866, 21836, 23230, 23460, 23672, 23965, 24388, 24551, 24706, 25746, 26088, 26294, 26519, 26688, 26915, 27356, 28942, 29143, 29340, 29555, 29693, 29846, 30014, 30255, 32733, 32951, 33114, 33307, 33455, 33577, 33844, 41446, 41904, 42122, 42252, 42728, 42829, 43041, 43162, 44509, 53066, 53258, 53505, 53852, 54104], "trial_type": "free-recall", "conditions": [24, 1600, "a", 12000], "internal_node_id": "0.0-157.0-0.0", "key_presses": [68, 82, 73, 78, 75, 32, 71, 79, 66, 76, 73, 78, 13, 70, 76, 79, 87, 69, 82, 13, 79, 82, 67, 72, 73, 68, 13, 76, 73, 76, 89, 13, 78, 79, 77, 65, 68, 13, 83, 85, 78, 83, 69, 84, 13, 82, 69, 66, 69, 76, 13, 83, 72, 82, 85, 66, 13, 80, 65, 82, 84, 78, 69, 82, 13, 83, 78, 69, 65, 75, 13, 86, 65, 71, 82, 65, 78, 84, 13, 82, 65, 66, 66, 73, 84, 13, 80, 79, 87, 69, 8, 68, 69, 82, 13, 68, 82, 85, 71, 13], "trial": 5, "time_elapsed": 1125598, "type": "FREE_RECALL", "trial_index": 211}, "uniqueid": "MTK3145:3RXPCZQMQQI1YXHFJJS7VSQVLSHG1Z", "dateTime": 1520109535856}, {"current_trial": 212, "trialdata": {"rt": 791, "trial_type": "text", "internal_node_id": "0.0-158.0", "time_elapsed": 1128398, "key_press": 32, "type": "INSTRUCTIONS", "trial_index": 212}, "uniqueid": "MTK3145:3RXPCZQMQQI1YXHFJJS7VSQVLSHG1Z", "dateTime": 1520109538649}, {"current_trial": 213, "trialdata": {"rt": [2337, 4491, 5997, 8312, 10085], "trial_type": "math-distractor", "key_times": [1522, 1859, 2337, 3828, 4217, 4491, 5699, 5997, 7769, 8054, 8312, 9618, 9851, 10085], "responses": ["16", "19", "9", "18", "12"], "num2": [9, 7, 4, 5, 3, 7], "num3": [6, 3, 1, 9, 7, 2], "conditions": [12, 800, "a", 12000], "internal_node_id": "0.0-159.0", "key_presses": [97, 102, 13, 97, 105, 13, 105, 13, 97, 104, 13, 97, 98, 13], "trial": 6, "time_elapsed": 1142404, "type": "DISTRACTOR", "trial_index": 213, "num1": [1, 9, 4, 4, 2, 8]}, "uniqueid": "MTK3145:3RXPCZQMQQI1YXHFJJS7VSQVLSHG1Z", "dateTime": 1520109552656}, {"current_trial": 214, "trialdata": {"rt": -1, "trial_type": "single-stim", "stimulus": "<p id=\"stim\">10</p>", "internal_node_id": "0.0-160.0-0.0", "time_elapsed": 1145407, "key_press": -1, "trial_index": 214}, "uniqueid": "MTK3145:3RXPCZQMQQI1YXHFJJS7VSQVLSHG1Z", "dateTime": 1520109555658}, {"current_trial": 215, "trialdata": {"rt": -1, "trial_type": "single-stim", "stimulus": "<p id=\"stim\">9</p>", "internal_node_id": "0.0-160.0-1.0", "time_elapsed": 1146409, "key_press": -1, "trial_index": 215}, "uniqueid": "MTK3145:3RXPCZQMQQI1YXHFJJS7VSQVLSHG1Z", "dateTime": 1520109556660}, {"current_trial": 216, "trialdata": {"rt": -1, "trial_type": "single-stim", "stimulus": "<p id=\"stim\">8</p>", "internal_node_id": "0.0-160.0-2.0", "time_elapsed": 1147411, "key_press": -1, "trial_index": 216}, "uniqueid": "MTK3145:3RXPCZQMQQI1YXHFJJS7VSQVLSHG1Z", "dateTime": 1520109557662}, {"current_trial": 217, "trialdata": {"rt": -1, "trial_type": "single-stim", "stimulus": "<p id=\"stim\">7</p>", "internal_node_id": "0.0-160.0-3.0", "time_elapsed": 1148414, "key_press": -1, "trial_index": 217}, "uniqueid": "MTK3145:3RXPCZQMQQI1YXHFJJS7VSQVLSHG1Z", "dateTime": 1520109558665}, {"current_trial": 218, "trialdata": {"rt": -1, "trial_type": "single-stim", "stimulus": "<p id=\"stim\">6</p>", "internal_node_id": "0.0-160.0-4.0", "time_elapsed": 1149416, "key_press": -1, "trial_index": 218}, "uniqueid": "MTK3145:3RXPCZQMQQI1YXHFJJS7VSQVLSHG1Z", "dateTime": 1520109559667}, {"current_trial": 219, "trialdata": {"rt": -1, "trial_type": "single-stim", "stimulus": "<p id=\"stim\">5</p>", "internal_node_id": "0.0-160.0-5.0", "time_elapsed": 1150418, "key_press": -1, "trial_index": 219}, "uniqueid": "MTK3145:3RXPCZQMQQI1YXHFJJS7VSQVLSHG1Z", "dateTime": 1520109560669}, {"current_trial": 220, "trialdata": {"rt": -1, "trial_type": "single-stim", "stimulus": "<p id=\"stim\">4</p>", "internal_node_id": "0.0-160.0-6.0", "time_elapsed": 1151419, "key_press": -1, "trial_index": 220}, "uniqueid": "MTK3145:3RXPCZQMQQI1YXHFJJS7VSQVLSHG1Z", "dateTime": 1520109561671}, {"current_trial": 221, "trialdata": {"rt": -1, "trial_type": "single-stim", "stimulus": "<p id=\"stim\">3</p>", "internal_node_id": "0.0-160.0-7.0", "time_elapsed": 1152423, "key_press": -1, "trial_index": 221}, "uniqueid": "MTK3145:3RXPCZQMQQI1YXHFJJS7VSQVLSHG1Z", "dateTime": 1520109562674}, {"current_trial": 222, "trialdata": {"rt": -1, "trial_type": "single-stim", "stimulus": "<p id=\"stim\">2</p>", "internal_node_id": "0.0-160.0-8.0", "time_elapsed": 1153425, "key_press": -1, "trial_index": 222}, "uniqueid": "MTK3145:3RXPCZQMQQI1YXHFJJS7VSQVLSHG1Z", "dateTime": 1520109563676}, {"current_trial": 223, "trialdata": {"rt": -1, "trial_type": "single-stim", "stimulus": "<p id=\"stim\">1</p>", "internal_node_id": "0.0-160.0-9.0", "time_elapsed": 1154426, "key_press": -1, "trial_index": 223}, "uniqueid": "MTK3145:3RXPCZQMQQI1YXHFJJS7VSQVLSHG1Z", "dateTime": 1520109564677}, {"current_trial": 224, "trialdata": {"rt": -1, "trial_type": "single-stim", "stimulus": "<p id=\"stim\">+</p>", "internal_node_id": "0.0-161.0-0.0", "time_elapsed": 1155929, "key_press": -1, "type": "FIXATION", "trial_index": 224}, "uniqueid": "MTK3145:3RXPCZQMQQI1YXHFJJS7VSQVLSHG1Z", "dateTime": 1520109566180}, {"current_trial": 225, "trialdata": {"rt": -1000, "trial_type": "single-audio", "word": "salad", "stimulus": "/static/audio/wordpool/SALAD.wav", "conditions": [12, 800, "a", 12000], "internal_node_id": "0.0-162.0", "trial": 6, "time_elapsed": 1157614, "serialpos": 0, "key_press": -1, "wordID": 1223, "type": "PRES_AUD", "trial_index": 225}, "uniqueid": "MTK3145:3RXPCZQMQQI1YXHFJJS7VSQVLSHG1Z", "dateTime": 1520109567865}, {"current_trial": 226, "trialdata": {"rt": -1000, "trial_type": "single-audio", "word": "space", "stimulus": "/static/audio/wordpool/SPACE.wav", "conditions": [12, 800, "a", 12000], "internal_node_id": "0.0-163.0", "trial": 6, "time_elapsed": 1159366, "serialpos": 1, "key_press": -1, "wordID": 1344, "type": "PRES_AUD", "trial_index": 226}, "uniqueid": "MTK3145:3RXPCZQMQQI1YXHFJJS7VSQVLSHG1Z", "dateTime": 1520109569618}, {"current_trial": 227, "trialdata": {"rt": -1000, "trial_type": "single-audio", "word": "spouse", "stimulus": "/static/audio/wordpool/SPOUSE.wav", "conditions": [12, 800, "a", 12000], "internal_node_id": "0.0-164.0", "trial": 6, "time_elapsed": 1161228, "serialpos": 2, "key_press": -1, "wordID": 1357, "type": "PRES_AUD", "trial_index": 227}, "uniqueid": "MTK3145:3RXPCZQMQQI1YXHFJJS7VSQVLSHG1Z", "dateTime": 1520109571480}, {"current_trial": 228, "trialdata": {"rt": -1000, "trial_type": "single-audio", "word": "pebble", "stimulus": "/static/audio/wordpool/PEBBLE.wav", "conditions": [12, 800, "a", 12000], "internal_node_id": "0.0-165.0", "trial": 6, "time_elapsed": 1162898, "serialpos": 3, "key_press": -1, "wordID": 1034, "type": "PRES_AUD", "trial_index": 228}, "uniqueid": "MTK3145:3RXPCZQMQQI1YXHFJJS7VSQVLSHG1Z", "dateTime": 1520109573150}, {"current_trial": 229, "trialdata": {"rt": -1000, "trial_type": "single-audio", "word": "nightgown", "stimulus": "/static/audio/wordpool/NIGHTGOWN.wav", "conditions": [12, 800, "a", 12000], "internal_node_id": "0.0-166.0", "trial": 6, "time_elapsed": 1164519, "serialpos": 4, "key_press": -1, "wordID": 952, "type": "PRES_AUD", "trial_index": 229}, "uniqueid": "MTK3145:3RXPCZQMQQI1YXHFJJS7VSQVLSHG1Z", "dateTime": 1520109574770}, {"current_trial": 230, "trialdata": {"rt": -1000, "trial_type": "single-audio", "word": "sandwich", "stimulus": "/static/audio/wordpool/SANDWICH.wav", "conditions": [12, 800, "a", 12000], "internal_node_id": "0.0-167.0", "trial": 6, "time_elapsed": 1166242, "serialpos": 5, "key_press": -1, "wordID": 1231, "type": "PRES_AUD", "trial_index": 230}, "uniqueid": "MTK3145:3RXPCZQMQQI1YXHFJJS7VSQVLSHG1Z", "dateTime": 1520109576494}, {"current_trial": 231, "trialdata": {"rt": -1000, "trial_type": "single-audio", "word": "princess", "stimulus": "/static/audio/wordpool/PRINCESS.wav", "conditions": [12, 800, "a", 12000], "internal_node_id": "0.0-168.0", "trial": 6, "time_elapsed": 1168241, "serialpos": 6, "key_press": -1, "wordID": 1124, "type": "PRES_AUD", "trial_index": 231}, "uniqueid": "MTK3145:3RXPCZQMQQI1YXHFJJS7VSQVLSHG1Z", "dateTime": 1520109578492}, {"current_trial": 232, "trialdata": {"rt": -1000, "trial_type": "single-audio", "word": "girl", "stimulus": "/static/audio/wordpool/GIRL.wav", "conditions": [12, 800, "a", 12000], "internal_node_id": "0.0-169.0", "trial": 6, "time_elapsed": 1170210, "serialpos": 7, "key_press": -1, "wordID": 636, "type": "PRES_AUD", "trial_index": 232}, "uniqueid": "MTK3145:3RXPCZQMQQI1YXHFJJS7VSQVLSHG1Z", "dateTime": 1520109580461}, {"current_trial": 233, "trialdata": {"rt": -1000, "trial_type": "single-audio", "word": "comet", "stimulus": "/static/audio/wordpool/COMET.wav", "conditions": [12, 800, "a", 12000], "internal_node_id": "0.0-170.0", "trial": 6, "time_elapsed": 1171914, "serialpos": 8, "key_press": -1, "wordID": 352, "type": "PRES_AUD", "trial_index": 233}, "uniqueid": "MTK3145:3RXPCZQMQQI1YXHFJJS7VSQVLSHG1Z", "dateTime": 1520109582165}, {"current_trial": 234, "trialdata": {"rt": -1000, "trial_type": "single-audio", "word": "venus", "stimulus": "/static/audio/wordpool/VENUS.wav", "conditions": [12, 800, "a", 12000], "internal_node_id": "0.0-171.0", "trial": 6, "time_elapsed": 1173593, "serialpos": 9, "key_press": -1, "wordID": 1556, "type": "PRES_AUD", "trial_index": 234}, "uniqueid": "MTK3145:3RXPCZQMQQI1YXHFJJS7VSQVLSHG1Z", "dateTime": 1520109583844}, {"current_trial": 235, "trialdata": {"rt": -1000, "trial_type": "single-audio", "word": "lava", "stimulus": "/static/audio/wordpool/LAVA.wav", "conditions": [12, 800, "a", 12000], "internal_node_id": "0.0-172.0", "trial": 6, "time_elapsed": 1175550, "serialpos": 10, "key_press": -1, "wordID": 803, "type": "PRES_AUD", "trial_index": 235}, "uniqueid": "MTK3145:3RXPCZQMQQI1YXHFJJS7VSQVLSHG1Z", "dateTime": 1520109585801}, {"current_trial": 236, "trialdata": {"rt": -1000, "trial_type": "single-audio", "word": "tweezers", "stimulus": "/static/audio/wordpool/TWEEZERS.wav", "conditions": [12, 800, "a", 12000], "internal_node_id": "0.0-173.0", "trial": 6, "time_elapsed": 1177335, "serialpos": 11, "key_press": -1, "wordID": 1525, "type": "PRES_AUD", "trial_index": 236}, "uniqueid": "MTK3145:3RXPCZQMQQI1YXHFJJS7VSQVLSHG1Z", "dateTime": 1520109587587}, {"current_trial": 237, "trialdata": {"rt": -1, "trial_type": "single-stim", "stimulus": "", "internal_node_id": "0.0-174.0-0.0", "time_elapsed": 1178544, "key_press": -1, "type": "PRE_RECALL_DELAY", "trial_index": 237}, "uniqueid": "MTK3145:3RXPCZQMQQI1YXHFJJS7VSQVLSHG1Z", "dateTime": 1520109588795}, {"current_trial": 238, "trialdata": {"rt": -1000, "trial_type": "single-audio", "stimulus": "/static/audio/400Hz.wav", "internal_node_id": "0.0-175.0", "time_elapsed": 1179047, "key_press": -1, "type": "PRE_RECALL_ALERT", "trial_index": 238}, "uniqueid": "MTK3145:3RXPCZQMQQI1YXHFJJS7VSQVLSHG1Z", "dateTime": 1520109589298}, {"current_trial": 239, "trialdata": {"rt": [3449, 4295, 7571, 9338, 10653, 12060, 14474, 32088, 34327, 35518], "recwords": ["princess", "girl", "pebble", "salad", "space", "spouse", "tweezers", "lava", "venus", "comet"], "key_times": [1857, 2087, 2254, 2484, 2638, 2846, 3088, 3265, 3449, 3622, 3740, 3826, 3985, 4295, 6499, 6636, 6876, 7049, 7206, 7289, 7571, 8395, 8586, 8704, 8887, 9111, 9338, 9770, 9942, 10059, 10210, 10431, 10653, 10836, 11033, 11264, 11370, 11597, 11740, 12060, 12368, 12575, 12795, 12963, 13643, 13899, 14028, 14269, 14474, 31317, 31434, 31610, 31773, 32088, 33406, 33642, 33797, 34000, 34128, 34327, 34652, 34784, 34906, 35120, 35294, 35518], "trial_type": "free-recall", "conditions": [12, 800, "a", 12000], "internal_node_id": "0.0-176.0-0.0", "key_presses": [80, 82, 73, 78, 67, 69, 83, 83, 32, 71, 73, 82, 76, 32, 80, 69, 66, 66, 76, 69, 13, 83, 65, 76, 65, 68, 13, 83, 80, 65, 67, 69, 13, 83, 80, 79, 85, 83, 69, 13, 84, 87, 69, 69, 90, 69, 82, 83, 13, 76, 65, 86, 65, 13, 86, 69, 78, 85, 83, 13, 67, 79, 77, 69, 84, 13], "trial": 6, "time_elapsed": 1239053, "type": "FREE_RECALL", "trial_index": 239}, "uniqueid": "MTK3145:3RXPCZQMQQI1YXHFJJS7VSQVLSHG1Z", "dateTime": 1520109649311}, {"current_trial": 240, "trialdata": {"rt": 697, "trial_type": "text", "internal_node_id": "0.0-177.0", "time_elapsed": 1241757, "key_press": 32, "type": "INSTRUCTIONS", "trial_index": 240}, "uniqueid": "MTK3145:3RXPCZQMQQI1YXHFJJS7VSQVLSHG1Z", "dateTime": 1520109652008}, {"current_trial": 241, "trialdata": {"rt": [2347, 4378, 6265, 8319, 9490, 12147, 14300, 16228, 18110, 21688, 23966], "trial_type": "math-distractor", "key_times": [1802, 2034, 2347, 3752, 4068, 4378, 5635, 6005, 6265, 7768, 8066, 8319, 9267, 9490, 11668, 11905, 12147, 13797, 14046, 14300, 15636, 15881, 16228, 17354, 17690, 18110, 21208, 21426, 21688, 23167, 23566, 23966], "responses": ["25", "17", "16", "18", "5", "12", "18", "18", "13", "20", "16"], "num2": [9, 7, 9, 8, 2, 7, 7, 8, 9, 3, 6, 2], "num3": [7, 7, 1, 7, 1, 4, 6, 7, 3, 8, 8, 6], "conditions": [24, 800, "a", 24000], "internal_node_id": "0.0-178.0", "key_presses": [98, 101, 13, 97, 103, 13, 97, 102, 13, 97, 104, 13, 101, 13, 97, 98, 13, 97, 104, 13, 97, 104, 13, 97, 99, 13, 98, 96, 13, 97, 102, 13], "trial": 7, "time_elapsed": 1267763, "type": "DISTRACTOR", "trial_index": 241, "num1": [9, 3, 6, 3, 2, 1, 5, 3, 1, 9, 2, 6]}, "uniqueid": "MTK3145:3RXPCZQMQQI1YXHFJJS7VSQVLSHG1Z", "dateTime": 1520109678014}, {"current_trial": 242, "trialdat