{"assignmentId": "3G2UL9A02ELDCQ7BWM0UKB4JV4M671", "workerId": "MTK3252", "questiondata": {"origin": "United States", "strat-rehearsal": "100", "marital": "Single", "education": "High school diploma", "ethnicity": "Not Hispanic", "color_depth": 24, "distracted": "No", "wrote-notes": "No", "strat-other": "", "screen_width": 1366, "avail_screen_width": 1366, "avail_screen_height": 728, "strat-image": "92", "language": "English", "gender": "Female", "age": "24", "gender_other": "", "race": ["White"], "strat-categorize": "28", "pixel_depth": 24, "strat-spatial": "0", "strat-story": "0", "race_other": "", "screen_height": 768}, "bonus": 0, "hitId": "3TLFH2L6Y9VA53NNWLMQAAJ5JZOT26", "counterbalance": 2641, "useragent": "Mozilla/5.0 (Windows NT 10.0; Win64; x64) AppleWebKit/537.36 (KHTML, like Gecko) Chrome/64.0.3282.186 Safari/537.36", "eventdata": [{"eventtype": "initialized", "interval": 0, "value": null, "timestamp": 1520277347171}, {"eventtype": "window_resize", "interval": 0, "value": [1366, 677], "timestamp": 1520277347171}, {"eventtype": "focus", "interval": 339162, "value": "off", "timestamp": 1520277686333}, {"eventtype": "focus", "interval": 43183, "value": "on", "timestamp": 1520277729516}, {"eventtype": "window_resize", "interval": 265202, "value": [1366, 628], "timestamp": 1520277994718}, {"eventtype": "focus", "interval": 12777, "value": "off", "timestamp": 1520278007495}, {"eventtype": "focus", "interval": 4322, "value": "on", "timestamp": 1520278011817}, {"eventtype": "focus", "interval": 164, "value": "off", "timestamp": 1520278011981}, {"eventtype": "window_resize", "interval": 878, "value": [1366, 677], "timestamp": 1520278012859}, {"eventtype": "focus", "interval": 23252, "value": "on", "timestamp": 1520278036111}, {"eventtype": "focus", "interval": 2380843, "value": "off", "timestamp": 1520280416954}, {"eventtype": "focus", "interval": 8336, "value": "on", "timestamp": 1520280425290}], "data": [{"current_trial": 0, "trialdata": {"rt": 6252, "trial_type": "text", "internal_node_id": "0.0-0.0", "time_elapsed": 6256, "key_press": 76, "type": "INSTRUCTIONS", "trial_index": 0}, "uniqueid": "MTK3252:3G2UL9A02ELDCQ7BWM0UKB4JV4M671", "dateTime": 1520277385825}, {"current_trial": 1, "trialdata": {"rt": 600111, "trial_type": "text", "internal_node_id": "0.0-1.0", "time_elapsed": 606371, "key_press": 40, "type": "INSTRUCTIONS", "trial_index": 1}, "uniqueid": "MTK3252:3G2UL9A02ELDCQ7BWM0UKB4JV4M671", "dateTime": 1520277985939}, {"current_trial": 2, "trialdata": {"rt": [54471], "trial_type": "audio-test", "responses": ["ocean"], "internal_node_id": "0.0-2.0", "time_elapsed": 660865, "type": "AUDIO_TEST", "trial_index": 2}, "uniqueid": "MTK3252:3G2UL9A02ELDCQ7BWM0UKB4JV4M671", "dateTime": 1520278040433}, {"current_trial": 3, "trialdata": {"rt": [8166], "trial_type": "audio-test", "responses": ["crystal"], "internal_node_id": "0.0-3.0", "time_elapsed": 669034, "type": "AUDIO_TEST", "trial_index": 3}, "uniqueid": "MTK3252:3G2UL9A02ELDCQ7BWM0UKB4JV4M671", "dateTime": 1520278048602}, {"current_trial": 4, "trialdata": {"rt": [10063], "trial_type": "audio-test", "responses": ["spice"], "internal_node_id": "0.0-4.0", "time_elapsed": 679099, "type": "AUDIO_TEST", "trial_index": 4}, "uniqueid": "MTK3252:3G2UL9A02ELDCQ7BWM0UKB4JV4M671", "dateTime": 1520278058667}, {"current_trial": 5, "trialdata": {"rt": 32928, "trial_type": "survey-text", "responses": "{\"Q0\":\"11:30pm\",\"Q1\":\"7:15am\",\"Q2\":\"5\"}", "internal_node_id": "0.0-5.0", "time_elapsed": 712782, "type": "SLEEP_SURVEY", "trial_index": 5}, "uniqueid": "MTK3252:3G2UL9A02ELDCQ7BWM0UKB4JV4M671", "dateTime": 1520278092350}, {"current_trial": 6, "trialdata": {"rt": 46875, "trial_type": "text", "internal_node_id": "0.0-6.0", "time_elapsed": 760660, "key_press": 71, "type": "INSTRUCTIONS", "trial_index": 6}, "uniqueid": "MTK3252:3G2UL9A02ELDCQ7BWM0UKB4JV4M671", "dateTime": 1520278140228}, {"current_trial": 7, "trialdata": {"rt": 17997, "trial_type": "text", "internal_node_id": "0.0-7.0", "time_elapsed": 779159, "key_press": 74, "type": "INSTRUCTIONS", "trial_index": 7}, "uniqueid": "MTK3252:3G2UL9A02ELDCQ7BWM0UKB4JV4M671", "dateTime": 1520278158728}, {"current_trial": 8, "trialdata": {"rt": 11808, "trial_type": "text", "internal_node_id": "0.0-8.0", "time_elapsed": 791470, "key_press": 74, "type": "INSTRUCTIONS", "trial_index": 8}, "uniqueid": "MTK3252:3G2UL9A02ELDCQ7BWM0UKB4JV4M671", "dateTime": 1520278171038}, {"current_trial": 9, "trialdata": {"rt": [4026, 8435, 10288, 15362, 17910], "trial_type": "math-distractor", "key_times": [2228, 4026, 7827, 8242, 8435, 10137, 10288, 13605, 14498, 14586, 14700, 15362, 17564, 17745, 17910], "responses": ["8", "17", "7", "13", "14"], "num2": [5, 9, 1, 4, 2, 7], "num3": [2, 4, 5, 1, 3, 8], "conditions": [18, 1200, "a", 18000], "internal_node_id": "0.0-9.0", "key_presses": [56, 13, 49, 55, 13, 55, 13, 50, 8, 49, 51, 13, 49, 52, 13], "trial": 0, "time_elapsed": 810482, "type": "DISTRACTOR", "trial_index": 9, "num1": [1, 4, 1, 8, 9, 5]}, "uniqueid": "MTK3252:3G2UL9A02ELDCQ7BWM0UKB4JV4M671", "dateTime": 1520278190050}, {"current_trial": 10, "trialdata": {"rt": -1, "trial_type": "single-stim", "stimulus": "<p id=\"stim\">10</p>", "internal_node_id": "0.0-10.0-0.0", "time_elapsed": 813487, "key_press": -1, "trial_index": 10}, "uniqueid": "MTK3252:3G2UL9A02ELDCQ7BWM0UKB4JV4M671", "dateTime": 1520278193055}, {"current_trial": 11, "trialdata": {"rt": -1, "trial_type": "single-stim", "stimulus": "<p id=\"stim\">9</p>", "internal_node_id": "0.0-10.0-1.0", "time_elapsed": 814491, "key_press": -1, "trial_index": 11}, "uniqueid": "MTK3252:3G2UL9A02ELDCQ7BWM0UKB4JV4M671", "dateTime": 1520278194059}, {"current_trial": 12, "trialdata": {"rt": -1, "trial_type": "single-stim", "stimulus": "<p id=\"stim\">8</p>", "internal_node_id": "0.0-10.0-2.0", "time_elapsed": 815494, "key_press": -1, "trial_index": 12}, "uniqueid": "MTK3252:3G2UL9A02ELDCQ7BWM0UKB4JV4M671", "dateTime": 1520278195062}, {"current_trial": 13, "trialdata": {"rt": -1, "trial_type": "single-stim", "stimulus": "<p id=\"stim\">7</p>", "internal_node_id": "0.0-10.0-3.0", "time_elapsed": 816496, "key_press": -1, "trial_index": 13}, "uniqueid": "MTK3252:3G2UL9A02ELDCQ7BWM0UKB4JV4M671", "dateTime": 1520278196065}, {"current_trial": 14, "trialdata": {"rt": -1, "trial_type": "single-stim", "stimulus": "<p id=\"stim\">6</p>", "internal_node_id": "0.0-10.0-4.0", "time_elapsed": 817499, "key_press": -1, "trial_index": 14}, "uniqueid": "MTK3252:3G2UL9A02ELDCQ7BWM0UKB4JV4M671", "dateTime": 1520278197068}, {"current_trial": 15, "trialdata": {"rt": -1, "trial_type": "single-stim", "stimulus": "<p id=\"stim\">5</p>", "internal_node_id": "0.0-10.0-5.0", "time_elapsed": 818501, "key_press": -1, "trial_index": 15}, "uniqueid": "MTK3252:3G2UL9A02ELDCQ7BWM0UKB4JV4M671", "dateTime": 1520278198069}, {"current_trial": 16, "trialdata": {"rt": -1, "trial_type": "single-stim", "stimulus": "<p id=\"stim\">4</p>", "internal_node_id": "0.0-10.0-6.0", "time_elapsed": 819503, "key_press": -1, "trial_index": 16}, "uniqueid": "MTK3252:3G2UL9A02ELDCQ7BWM0UKB4JV4M671", "dateTime": 1520278199071}, {"current_trial": 17, "trialdata": {"rt": -1, "trial_type": "single-stim", "stimulus": "<p id=\"stim\">3</p>", "internal_node_id": "0.0-10.0-7.0", "time_elapsed": 820504, "key_press": -1, "trial_index": 17}, "uniqueid": "MTK3252:3G2UL9A02ELDCQ7BWM0UKB4JV4M671", "dateTime": 1520278200072}, {"current_trial": 18, "trialdata": {"rt": -1, "trial_type": "single-stim", "stimulus": "<p id=\"stim\">2</p>", "internal_node_id": "0.0-10.0-8.0", "time_elapsed": 821507, "key_press": -1, "trial_index": 18}, "uniqueid": "MTK3252:3G2UL9A02ELDCQ7BWM0UKB4JV4M671", "dateTime": 1520278201075}, {"current_trial": 19, "trialdata": {"rt": -1, "trial_type": "single-stim", "stimulus": "<p id=\"stim\">1</p>", "internal_node_id": "0.0-10.0-9.0", "time_elapsed": 822508, "key_press": -1, "trial_index": 19}, "uniqueid": "MTK3252:3G2UL9A02ELDCQ7BWM0UKB4JV4M671", "dateTime": 1520278202077}, {"current_trial": 20, "trialdata": {"rt": -1, "trial_type": "single-stim", "stimulus": "<p id=\"stim\">+</p>", "internal_node_id": "0.0-11.0-0.0", "time_elapsed": 824011, "key_press": -1, "type": "FIXATION", "trial_index": 20}, "uniqueid": "MTK3252:3G2UL9A02ELDCQ7BWM0UKB4JV4M671", "dateTime": 1520278203579}, {"current_trial": 21, "trialdata": {"rt": -1000, "trial_type": "single-audio", "word": "mummy", "stimulus": "/static/audio/wordpool/MUMMY.wav", "conditions": [18, 1200, "a", 18000], "internal_node_id": "0.0-12.0", "trial": 0, "time_elapsed": 826198, "serialpos": 0, "key_press": -1, "wordID": 931, "type": "PRES_AUD", "trial_index": 21}, "uniqueid": "MTK3252:3G2UL9A02ELDCQ7BWM0UKB4JV4M671", "dateTime": 1520278205766}, {"current_trial": 22, "trialdata": {"rt": -1000, "trial_type": "single-audio", "word": "receipt", "stimulus": "/static/audio/wordpool/RECEIPT.wav", "conditions": [18, 1200, "a", 18000], "internal_node_id": "0.0-13.0", "trial": 0, "time_elapsed": 828278, "serialpos": 1, "key_press": -1, "wordID": 1172, "type": "PRES_AUD", "trial_index": 22}, "uniqueid": "MTK3252:3G2UL9A02ELDCQ7BWM0UKB4JV4M671", "dateTime": 1520278207846}, {"current_trial": 23, "trialdata": {"rt": -1000, "trial_type": "single-audio", "word": "ground", "stimulus": "/static/audio/wordpool/GROUND.wav", "conditions": [18, 1200, "a", 18000], "internal_node_id": "0.0-14.0", "trial": 0, "time_elapsed": 830383, "serialpos": 2, "key_press": -1, "wordID": 665, "type": "PRES_AUD", "trial_index": 23}, "uniqueid": "MTK3252:3G2UL9A02ELDCQ7BWM0UKB4JV4M671", "dateTime": 1520278209951}, {"current_trial": 24, "trialdata": {"rt": -1000, "trial_type": "single-audio", "word": "cottage", "stimulus": "/static/audio/wordpool/COTTAGE.wav", "conditions": [18, 1200, "a", 18000], "internal_node_id": "0.0-15.0", "trial": 0, "time_elapsed": 832580, "serialpos": 3, "key_press": -1, "wordID": 383, "type": "PRES_AUD", "trial_index": 24}, "uniqueid": "MTK3252:3G2UL9A02ELDCQ7BWM0UKB4JV4M671", "dateTime": 1520278212148}, {"current_trial": 25, "trialdata": {"rt": -1000, "trial_type": "single-audio", "word": "playground", "stimulus": "/static/audio/wordpool/PLAYGROUND.wav", "conditions": [18, 1200, "a", 18000], "internal_node_id": "0.0-16.0", "trial": 0, "time_elapsed": 834829, "serialpos": 4, "key_press": -1, "wordID": 1086, "type": "PRES_AUD", "trial_index": 25}, "uniqueid": "MTK3252:3G2UL9A02ELDCQ7BWM0UKB4JV4M671", "dateTime": 1520278214398}, {"current_trial": 26, "trialdata": {"rt": -1000, "trial_type": "single-audio", "word": "drink", "stimulus": "/static/audio/wordpool/DRINK.wav", "conditions": [18, 1200, "a", 18000], "internal_node_id": "0.0-17.0", "trial": 0, "time_elapsed": 837187, "serialpos": 5, "key_press": -1, "wordID": 497, "type": "PRES_AUD", "trial_index": 26}, "uniqueid": "MTK3252:3G2UL9A02ELDCQ7BWM0UKB4JV4M671", "dateTime": 1520278216755}, {"current_trial": 27, "trialdata": {"rt": -1000, "trial_type": "single-audio", "word": "award", "stimulus": "/static/audio/wordpool/AWARD.wav", "conditions": [18, 1200, "a", 18000], "internal_node_id": "0.0-18.0", "trial": 0, "time_elapsed": 839574, "serialpos": 6, "key_press": -1, "wordID": 62, "type": "PRES_AUD", "trial_index": 27}, "uniqueid": "MTK3252:3G2UL9A02ELDCQ7BWM0UKB4JV4M671", "dateTime": 1520278219143}, {"current_trial": 28, "trialdata": {"rt": -1000, "trial_type": "single-audio", "word": "wagon", "stimulus": "/static/audio/wordpool/WAGON.wav", "conditions": [18, 1200, "a", 18000], "internal_node_id": "0.0-19.0", "trial": 0, "time_elapsed": 841894, "serialpos": 7, "key_press": -1, "wordID": 1577, "type": "PRES_AUD", "trial_index": 28}, "uniqueid": "MTK3252:3G2UL9A02ELDCQ7BWM0UKB4JV4M671", "dateTime": 1520278221462}, {"current_trial": 29, "trialdata": {"rt": -1000, "trial_type": "single-audio", "word": "child", "stimulus": "/static/audio/wordpool/CHILD.wav", "conditions": [18, 1200, "a", 18000], "internal_node_id": "0.0-20.0", "trial": 0, "time_elapsed": 844023, "serialpos": 8, "key_press": -1, "wordID": 298, "type": "PRES_AUD", "trial_index": 29}, "uniqueid": "MTK3252:3G2UL9A02ELDCQ7BWM0UKB4JV4M671", "dateTime": 1520278223591}, {"current_trial": 30, "trialdata": {"rt": -1000, "trial_type": "single-audio", "word": "woman", "stimulus": "/static/audio/wordpool/WOMAN.wav", "conditions": [18, 1200, "a", 18000], "internal_node_id": "0.0-21.0", "trial": 0, "time_elapsed": 846253, "serialpos": 9, "key_press": -1, "wordID": 1619, "type": "PRES_AUD", "trial_index": 30}, "uniqueid": "MTK3252:3G2UL9A02ELDCQ7BWM0UKB4JV4M671", "dateTime": 1520278225821}, {"current_trial": 31, "trialdata": {"rt": -1000, "trial_type": "single-audio", "word": "drug", "stimulus": "/static/audio/wordpool/DRUG.wav", "conditions": [18, 1200, "a", 18000], "internal_node_id": "0.0-22.0", "trial": 0, "time_elapsed": 848613, "serialpos": 10, "key_press": -1, "wordID": 500, "type": "PRES_AUD", "trial_index": 31}, "uniqueid": "MTK3252:3G2UL9A02ELDCQ7BWM0UKB4JV4M671", "dateTime": 1520278228181}, {"current_trial": 32, "trialdata": {"rt": -1000, "trial_type": "single-audio", "word": "hero", "stimulus": "/static/audio/wordpool/HERO.wav", "conditions": [18, 1200, "a", 18000], "internal_node_id": "0.0-23.0", "trial": 0, "time_elapsed": 850893, "serialpos": 11, "key_press": -1, "wordID": 705, "type": "PRES_AUD", "trial_index": 32}, "uniqueid": "MTK3252:3G2UL9A02ELDCQ7BWM0UKB4JV4M671", "dateTime": 1520278230462}, {"current_trial": 33, "trialdata": {"rt": -1000, "trial_type": "single-audio", "word": "maple", "stimulus": "/static/audio/wordpool/MAPLE.wav", "conditions": [18, 1200, "a", 18000], "internal_node_id": "0.0-24.0", "trial": 0, "time_elapsed": 853276, "serialpos": 12, "key_press": -1, "wordID": 865, "type": "PRES_AUD", "trial_index": 33}, "uniqueid": "MTK3252:3G2UL9A02ELDCQ7BWM0UKB4JV4M671", "dateTime": 1520278232845}, {"current_trial": 34, "trialdata": {"rt": -1000, "trial_type": "single-audio", "word": "asia", "stimulus": "/static/audio/wordpool/ASIA.wav", "conditions": [18, 1200, "a", 18000], "internal_node_id": "0.0-25.0", "trial": 0, "time_elapsed": 855499, "serialpos": 13, "key_press": -1, "wordID": 45, "type": "PRES_AUD", "trial_index": 34}, "uniqueid": "MTK3252:3G2UL9A02ELDCQ7BWM0UKB4JV4M671", "dateTime": 1520278235068}, {"current_trial": 35, "trialdata": {"rt": -1000, "trial_type": "single-audio", "word": "paper", "stimulus": "/static/audio/wordpool/PAPER.wav", "conditions": [18, 1200, "a", 18000], "internal_node_id": "0.0-26.0", "trial": 0, "time_elapsed": 857679, "serialpos": 14, "key_press": -1, "wordID": 1010, "type": "PRES_AUD", "trial_index": 35}, "uniqueid": "MTK3252:3G2UL9A02ELDCQ7BWM0UKB4JV4M671", "dateTime": 1520278237247}, {"current_trial": 36, "trialdata": {"rt": -1000, "trial_type": "single-audio", "word": "drill", "stimulus": "/static/audio/wordpool/DRILL.wav", "conditions": [18, 1200, "a", 18000], "internal_node_id": "0.0-27.0", "trial": 0, "time_elapsed": 859731, "serialpos": 15, "key_press": -1, "wordID": 496, "type": "PRES_AUD", "trial_index": 36}, "uniqueid": "MTK3252:3G2UL9A02ELDCQ7BWM0UKB4JV4M671", "dateTime": 1520278239299}, {"current_trial": 37, "trialdata": {"rt": -1000, "trial_type": "single-audio", "word": "ulcer", "stimulus": "/static/audio/wordpool/ULCER.wav", "conditions": [18, 1200, "a", 18000], "internal_node_id": "0.0-28.0", "trial": 0, "time_elapsed": 861831, "serialpos": 16, "key_press": -1, "wordID": 1532, "type": "PRES_AUD", "trial_index": 37}, "uniqueid": "MTK3252:3G2UL9A02ELDCQ7BWM0UKB4JV4M671", "dateTime": 1520278241399}, {"current_trial": 38, "trialdata": {"rt": -1000, "trial_type": "single-audio", "word": "shrub", "stimulus": "/static/audio/wordpool/SHRUB.wav", "conditions": [18, 1200, "a", 18000], "internal_node_id": "0.0-29.0", "trial": 0, "time_elapsed": 864064, "serialpos": 17, "key_press": -1, "wordID": 1298, "type": "PRES_AUD", "trial_index": 38}, "uniqueid": "MTK3252:3G2UL9A02ELDCQ7BWM0UKB4JV4M671", "dateTime": 1520278243633}, {"current_trial": 39, "trialdata": {"rt": -1, "trial_type": "single-stim", "stimulus": "", "internal_node_id": "0.0-30.0-0.0", "time_elapsed": 865335, "key_press": -1, "type": "PRE_RECALL_DELAY", "trial_index": 39}, "uniqueid": "MTK3252:3G2UL9A02ELDCQ7BWM0UKB4JV4M671", "dateTime": 1520278244904}, {"current_trial": 40, "trialdata": {"rt": -1000, "trial_type": "single-audio", "stimulus": "/static/audio/400Hz.wav", "internal_node_id": "0.0-31.0", "time_elapsed": 865837, "key_press": -1, "type": "PRE_RECALL_ALERT", "trial_index": 40}, "uniqueid": "MTK3252:3G2UL9A02ELDCQ7BWM0UKB4JV4M671", "dateTime": 1520278245405}, {"current_trial": 41, "trialdata": {"rt": [10986, 18167, 25550, 34245, 37929, 39210, 42811, 46125, 49598, 53195, 55987, 59628], "recwords": ["mummy", "ground", "cottage", "playground", "drink", "award", "wagon", "child", "woman", "drg", "hero", "maple"], "key_times": [7044, 9075, 9587, 9807, 10553, 10986, 13925, 14076, 14412, 14998, 15976, 17090, 17496, 17805, 18167, 20658, 20841, 21402, 21610, 21797, 22523, 22803, 23024, 23266, 24240, 24464, 25550, 29445, 29679, 29975, 30325, 30676, 30904, 31137, 33055, 33383, 33666, 34245, 36631, 36877, 37200, 37392, 37533, 37929, 38263, 38413, 38671, 38842, 39025, 39210, 41217, 41377, 41776, 42404, 42497, 42811, 44724, 45111, 45346, 45692, 45880, 46125, 48297, 48467, 48749, 49150, 49263, 49598, 52091, 52381, 52849, 53195, 54982, 55143, 55293, 55500, 55987, 58023, 58317, 58627, 59262, 59434, 59628], "trial_type": "free-recall", "conditions": [18, 1200, "a", 18000], "internal_node_id": "0.0-32.0-0.0", "key_presses": [77, 85, 77, 77, 89, 13, 71, 82, 79, 78, 8, 85, 78, 68, 13, 67, 79, 84, 65, 71, 8, 8, 84, 65, 71, 69, 13, 80, 76, 65, 89, 71, 82, 79, 85, 78, 68, 13, 68, 82, 73, 78, 75, 13, 65, 87, 65, 82, 68, 13, 87, 65, 71, 79, 78, 13, 67, 72, 73, 76, 68, 13, 87, 79, 77, 65, 78, 13, 68, 82, 71, 13, 72, 69, 82, 79, 13, 77, 65, 80, 76, 69, 13], "trial": 0, "time_elapsed": 925839, "type": "FREE_RECALL", "trial_index": 41}, "uniqueid": "MTK3252:3G2UL9A02ELDCQ7BWM0UKB4JV4M671", "dateTime": 1520278305409}, {"current_trial": 42, "trialdata": {"rt": 2500, "trial_type": "text", "internal_node_id": "0.0-33.0", "time_elapsed": 930341, "key_press": 13, "type": "INSTRUCTIONS", "trial_index": 42}, "uniqueid": "MTK3252:3G2UL9A02ELDCQ7BWM0UKB4JV4M671", "dateTime": 1520278309909}, {"current_trial": 43, "trialdata": {"rt": [3867, 6361, 8392, 12537, 15151], "trial_type": "math-distractor", "key_times": [3297, 3634, 3867, 6177, 6361, 8202, 8392, 12236, 12355, 12537, 14527, 14912, 15151], "responses": ["16", "9", "9", "22", "19"], "num2": [8, 1, 2, 7, 2, 6], "num3": [4, 3, 1, 5, 9, 3], "conditions": [18, 1200, "a", 18000], "internal_node_id": "0.0-34.0", "key_presses": [49, 54, 13, 57, 13, 57, 13, 50, 50, 13, 49, 57, 13], "trial": 1, "time_elapsed": 950347, "type": "DISTRACTOR", "trial_index": 43, "num1": [4, 5, 6, 9, 8, 2]}, "uniqueid": "MTK3252:3G2UL9A02ELDCQ7BWM0UKB4JV4M671", "dateTime": 1520278329915}, {"current_trial": 44, "trialdata": {"rt": -1, "trial_type": "single-stim", "stimulus": "<p id=\"stim\">10</p>", "internal_node_id": "0.0-35.0-0.0", "time_elapsed": 953349, "key_press": -1, "trial_index": 44}, "uniqueid": "MTK3252:3G2UL9A02ELDCQ7BWM0UKB4JV4M671", "dateTime": 1520278332917}, {"current_trial": 45, "trialdata": {"rt": -1, "trial_type": "single-stim", "stimulus": "<p id=\"stim\">9</p>", "internal_node_id": "0.0-35.0-1.0", "time_elapsed": 954351, "key_press": -1, "trial_index": 45}, "uniqueid": "MTK3252:3G2UL9A02ELDCQ7BWM0UKB4JV4M671", "dateTime": 1520278333920}, {"current_trial": 46, "trialdata": {"rt": -1, "trial_type": "single-stim", "stimulus": "<p id=\"stim\">8</p>", "internal_node_id": "0.0-35.0-2.0", "time_elapsed": 955354, "key_press": -1, "trial_index": 46}, "uniqueid": "MTK3252:3G2UL9A02ELDCQ7BWM0UKB4JV4M671", "dateTime": 1520278334922}, {"current_trial": 47, "trialdata": {"rt": -1, "trial_type": "single-stim", "stimulus": "<p id=\"stim\">7</p>", "internal_node_id": "0.0-35.0-3.0", "time_elapsed": 956356, "key_press": -1, "trial_index": 47}, "uniqueid": "MTK3252:3G2UL9A02ELDCQ7BWM0UKB4JV4M671", "dateTime": 1520278335925}, {"current_trial": 48, "trialdata": {"rt": -1, "trial_type": "single-stim", "stimulus": "<p id=\"stim\">6</p>", "internal_node_id": "0.0-35.0-4.0", "time_elapsed": 957358, "key_press": -1, "trial_index": 48}, "uniqueid": "MTK3252:3G2UL9A02ELDCQ7BWM0UKB4JV4M671", "dateTime": 1520278336926}, {"current_trial": 49, "trialdata": {"rt": -1, "trial_type": "single-stim", "stimulus": "<p id=\"stim\">5</p>", "internal_node_id": "0.0-35.0-5.0", "time_elapsed": 958359, "key_press": -1, "trial_index": 49}, "uniqueid": "MTK3252:3G2UL9A02ELDCQ7BWM0UKB4JV4M671", "dateTime": 1520278337928}, {"current_trial": 50, "trialdata": {"rt": -1, "trial_type": "single-stim", "stimulus": "<p id=\"stim\">4</p>", "internal_node_id": "0.0-35.0-6.0", "time_elapsed": 959361, "key_press": -1, "trial_index": 50}, "uniqueid": "MTK3252:3G2UL9A02ELDCQ7BWM0UKB4JV4M671", "dateTime": 1520278338929}, {"current_trial": 51, "trialdata": {"rt": -1, "trial_type": "single-stim", "stimulus": "<p id=\"stim\">3</p>", "internal_node_id": "0.0-35.0-7.0", "time_elapsed": 960363, "key_press": -1, "trial_index": 51}, "uniqueid": "MTK3252:3G2UL9A02ELDCQ7BWM0UKB4JV4M671", "dateTime": 1520278339931}, {"current_trial": 52, "trialdata": {"rt": -1, "trial_type": "single-stim", "stimulus": "<p id=\"stim\">2</p>", "internal_node_id": "0.0-35.0-8.0", "time_elapsed": 961365, "key_press": -1, "trial_index": 52}, "uniqueid": "MTK3252:3G2UL9A02ELDCQ7BWM0UKB4JV4M671", "dateTime": 1520278340933}, {"current_trial": 53, "trialdata": {"rt": -1, "trial_type": "single-stim", "stimulus": "<p id=\"stim\">1</p>", "internal_node_id": "0.0-35.0-9.0", "time_elapsed": 962367, "key_press": -1, "trial_index": 53}, "uniqueid": "MTK3252:3G2UL9A02ELDCQ7BWM0UKB4JV4M671", "dateTime": 1520278341935}, {"current_trial": 54, "trialdata": {"rt": -1, "trial_type": "single-stim", "stimulus": "<p id=\"stim\">+</p>", "internal_node_id": "0.0-36.0-0.0", "time_elapsed": 963869, "key_press": -1, "type": "FIXATION", "trial_index": 54}, "uniqueid": "MTK3252:3G2UL9A02ELDCQ7BWM0UKB4JV4M671", "dateTime": 1520278343437}, {"current_trial": 55, "trialdata": {"rt": -1000, "trial_type": "single-audio", "word": "judge", "stimulus": "/static/audio/wordpool/JUDGE.wav", "conditions": [18, 1200, "a", 18000], "internal_node_id": "0.0-37.0", "trial": 1, "time_elapsed": 966101, "serialpos": 0, "key_press": -1, "wordID": 760, "type": "PRES_AUD", "trial_index": 55}, "uniqueid": "MTK3252:3G2UL9A02ELDCQ7BWM0UKB4JV4M671", "dateTime": 1520278345669}, {"current_trial": 56, "trialdata": {"rt": -1000, "trial_type": "single-audio", "word": "tractor", "stimulus": "/static/audio/wordpool/TRACTOR.wav", "conditions": [18, 1200, "a", 18000], "internal_node_id": "0.0-38.0", "trial": 1, "time_elapsed": 968231, "serialpos": 1, "key_press": -1, "wordID": 1492, "type": "PRES_AUD", "trial_index": 56}, "uniqueid": "MTK3252:3G2UL9A02ELDCQ7BWM0UKB4JV4M671", "dateTime": 1520278347799}, {"current_trial": 57, "trialdata": {"rt": -1000, "trial_type": "single-audio", "word": "bank", "stimulus": "/static/audio/wordpool/BANK.wav", "conditions": [18, 1200, "a", 18000], "internal_node_id": "0.0-39.0", "trial": 1, "time_elapsed": 970549, "serialpos": 2, "key_press": -1, "wordID": 82, "type": "PRES_AUD", "trial_index": 57}, "uniqueid": "MTK3252:3G2UL9A02ELDCQ7BWM0UKB4JV4M671", "dateTime": 1520278350118}, {"current_trial": 58, "trialdata": {"rt": -1000, "trial_type": "single-audio", "word": "statue", "stimulus": "/static/audio/wordpool/STATUE.wav", "conditions": [18, 1200, "a", 18000], "internal_node_id": "0.0-40.0", "trial": 1, "time_elapsed": 972677, "serialpos": 3, "key_press": -1, "wordID": 1373, "type": "PRES_AUD", "trial_index": 58}, "uniqueid": "MTK3252:3G2UL9A02ELDCQ7BWM0UKB4JV4M671", "dateTime": 1520278352245}, {"current_trial": 59, "trialdata": {"rt": -1000, "trial_type": "single-audio", "word": "belly", "stimulus": "/static/audio/wordpool/BELLY.wav", "conditions": [18, 1200, "a", 18000], "internal_node_id": "0.0-41.0", "trial": 1, "time_elapsed": 975003, "serialpos": 4, "key_press": -1, "wordID": 118, "type": "PRES_AUD", "trial_index": 59}, "uniqueid": "MTK3252:3G2UL9A02ELDCQ7BWM0UKB4JV4M671", "dateTime": 1520278354571}, {"current_trial": 60, "trialdata": {"rt": -1000, "trial_type": "single-audio", "word": "igloo", "stimulus": "/static/audio/wordpool/IGLOO.wav", "conditions": [18, 1200, "a", 18000], "internal_node_id": "0.0-42.0", "trial": 1, "time_elapsed": 977173, "serialpos": 5, "key_press": -1, "wordID": 733, "type": "PRES_AUD", "trial_index": 60}, "uniqueid": "MTK3252:3G2UL9A02ELDCQ7BWM0UKB4JV4M671", "dateTime": 1520278356741}, {"current_trial": 61, "trialdata": {"rt": -1000, "trial_type": "single-audio", "word": "transplant", "stimulus": "/static/audio/wordpool/TRANSPLANT.wav", "conditions": [18, 1200, "a", 18000], "internal_node_id": "0.0-43.0", "trial": 1, "time_elapsed": 979499, "serialpos": 6, "key_press": -1, "wordID": 1495, "type": "PRES_AUD", "trial_index": 61}, "uniqueid": "MTK3252:3G2UL9A02ELDCQ7BWM0UKB4JV4M671", "dateTime": 1520278359068}, {"current_trial": 62, "trialdata": {"rt": -1000, "trial_type": "single-audio", "word": "gift", "stimulus": "/static/audio/wordpool/GIFT.wav", "conditions": [18, 1200, "a", 18000], "internal_node_id": "0.0-44.0", "trial": 1, "time_elapsed": 981581, "serialpos": 7, "key_press": -1, "wordID": 634, "type": "PRES_AUD", "trial_index": 62}, "uniqueid": "MTK3252:3G2UL9A02ELDCQ7BWM0UKB4JV4M671", "dateTime": 1520278361150}, {"current_trial": 63, "trialdata": {"rt": -1000, "trial_type": "single-audio", "word": "shorts", "stimulus": "/static/audio/wordpool/SHORTS.wav", "conditions": [18, 1200, "a", 18000], "internal_node_id": "0.0-45.0", "trial": 1, "time_elapsed": 983723, "serialpos": 8, "key_press": -1, "wordID": 1292, "type": "PRES_AUD", "trial_index": 63}, "uniqueid": "MTK3252:3G2UL9A02ELDCQ7BWM0UKB4JV4M671", "dateTime": 1520278363291}, {"current_trial": 64, "trialdata": {"rt": -1000, "trial_type": "single-audio", "word": "keeper", "stimulus": "/static/audio/wordpool/KEEPER.wav", "conditions": [18, 1200, "a", 18000], "internal_node_id": "0.0-46.0", "trial": 1, "time_elapsed": 986083, "serialpos": 9, "key_press": -1, "wordID": 768, "type": "PRES_AUD", "trial_index": 64}, "uniqueid": "MTK3252:3G2UL9A02ELDCQ7BWM0UKB4JV4M671", "dateTime": 1520278365652}, {"current_trial": 65, "trialdata": {"rt": -1000, "trial_type": "single-audio", "word": "rod", "stimulus": "/static/audio/wordpool/ROD.wav", "conditions": [18, 1200, "a", 18000], "internal_node_id": "0.0-47.0", "trial": 1, "time_elapsed": 988235, "serialpos": 10, "key_press": -1, "wordID": 1202, "type": "PRES_AUD", "trial_index": 65}, "uniqueid": "MTK3252:3G2UL9A02ELDCQ7BWM0UKB4JV4M671", "dateTime": 1520278367803}, {"current_trial": 66, "trialdata": {"rt": -1000, "trial_type": "single-audio", "word": "bacon", "stimulus": "/static/audio/wordpool/BACON.wav", "conditions": [18, 1200, "a", 18000], "internal_node_id": "0.0-48.0", "trial": 1, "time_elapsed": 990271, "serialpos": 11, "key_press": -1, "wordID": 66, "type": "PRES_AUD", "trial_index": 66}, "uniqueid": "MTK3252:3G2UL9A02ELDCQ7BWM0UKB4JV4M671", "dateTime": 1520278369839}, {"current_trial": 67, "trialdata": {"rt": -1000, "trial_type": "single-audio", "word": "crayon", "stimulus": "/static/audio/wordpool/CRAYON.wav", "conditions": [18, 1200, "a", 18000], "internal_node_id": "0.0-49.0", "trial": 1, "time_elapsed": 992461, "serialpos": 12, "key_press": -1, "wordID": 400, "type": "PRES_AUD", "trial_index": 67}, "uniqueid": "MTK3252:3G2UL9A02ELDCQ7BWM0UKB4JV4M671", "dateTime": 1520278372029}, {"current_trial": 68, "trialdata": {"rt": -1000, "trial_type": "single-audio", "word": "bathtub", "stimulus": "/static/audio/wordpool/BATHTUB.wav", "conditions": [18, 1200, "a", 18000], "internal_node_id": "0.0-50.0", "trial": 1, "time_elapsed": 994797, "serialpos": 13, "key_press": -1, "wordID": 99, "type": "PRES_AUD", "trial_index": 68}, "uniqueid": "MTK3252:3G2UL9A02ELDCQ7BWM0UKB4JV4M671", "dateTime": 1520278374369}, {"current_trial": 69, "trialdata": {"rt": -1000, "trial_type": "single-audio", "word": "river", "stimulus": "/static/audio/wordpool/RIVER.wav", "conditions": [18, 1200, "a", 18000], "internal_node_id": "0.0-51.0", "trial": 1, "time_elapsed": 997059, "serialpos": 14, "key_press": -1, "wordID": 1193, "type": "PRES_AUD", "trial_index": 69}, "uniqueid": "MTK3252:3G2UL9A02ELDCQ7BWM0UKB4JV4M671", "dateTime": 1520278376628}, {"current_trial": 70, "trialdata": {"rt": -1000, "trial_type": "single-audio", "word": "dancer", "stimulus": "/static/audio/wordpool/DANCER.wav", "conditions": [18, 1200, "a", 18000], "internal_node_id": "0.0-52.0", "trial": 1, "time_elapsed": 999281, "serialpos": 15, "key_press": -1, "wordID": 436, "type": "PRES_AUD", "trial_index": 70}, "uniqueid": "MTK3252:3G2UL9A02ELDCQ7BWM0UKB4JV4M671", "dateTime": 1520278378849}, {"current_trial": 71, "trialdata": {"rt": -1000, "trial_type": "single-audio", "word": "hood", "stimulus": "/static/audio/wordpool/HOOD.wav", "conditions": [18, 1200, "a", 18000], "internal_node_id": "0.0-53.0", "trial": 1, "time_elapsed": 1001553, "serialpos": 16, "key_press": -1, "wordID": 713, "type": "PRES_AUD", "trial_index": 71}, "uniqueid": "MTK3252:3G2UL9A02ELDCQ7BWM0UKB4JV4M671", "dateTime": 1520278381121}, {"current_trial": 72, "trialdata": {"rt": -1000, "trial_type": "single-audio", "word": "viking", "stimulus": "/static/audio/wordpool/VIKING.wav", "conditions": [18, 1200, "a", 18000], "internal_node_id": "0.0-54.0", "trial": 1, "time_elapsed": 1003846, "serialpos": 17, "key_press": -1, "wordID": 1564, "type": "PRES_AUD", "trial_index": 72}, "uniqueid": "MTK3252:3G2UL9A02ELDCQ7BWM0UKB4JV4M671", "dateTime": 1520278383414}, {"current_trial": 73, "trialdata": {"rt": -1, "trial_type": "single-stim", "stimulus": "", "internal_node_id": "0.0-55.0-0.0", "time_elapsed": 1005073, "key_press": -1, "type": "PRE_RECALL_DELAY", "trial_index": 73}, "uniqueid": "MTK3252:3G2UL9A02ELDCQ7BWM0UKB4JV4M671", "dateTime": 1520278384641}, {"current_trial": 74, "trialdata": {"rt": -1000, "trial_type": "single-audio", "stimulus": "/static/audio/400Hz.wav", "internal_node_id": "0.0-56.0", "time_elapsed": 1005575, "key_press": -1, "type": "PRE_RECALL_ALERT", "trial_index": 74}, "uniqueid": "MTK3252:3G2UL9A02ELDCQ7BWM0UKB4JV4M671", "dateTime": 1520278385143}, {"current_trial": 75, "trialdata": {"rt": [4992, 8667, 11791, 14622, 17499, 19679, 24034, 29003, 32139, 34732, 37713, 40243, 42937, 46216, 48772, 51479, 54340, 57029], "recwords": ["judge", "tractor", "bank", "statue", "belly", "igloo", "transplant", "gift", "shorts", "keeper", "rod", "bacon", "crayon", "bathtub", "river", "dancer", "hood", "viking"], "key_times": [2921, 3118, 3181, 3312, 4292, 4730, 4829, 4992, 6362, 7562, 7750, 7887, 8140, 8348, 8458, 8667, 10154, 10814, 11115, 11393, 11791, 13230, 13555, 13706, 13915, 14309, 14397, 14622, 16164, 16589, 16875, 17012, 17192, 17499, 18732, 18894, 19117, 19366, 19505, 19679, 21243, 21352, 21729, 21882, 22093, 22360, 22533, 22669, 22813, 23897, 24034, 25567, 25730, 26187, 26726, 27169, 27317, 27896, 28128, 28565, 28709, 29003, 30883, 31276, 31549, 31648, 31790, 31945, 32139, 33652, 33865, 34030, 34129, 34463, 34569, 34732, 36764, 37099, 37336, 37713, 39177, 39337, 39567, 39914, 40060, 40243, 41766, 42033, 42242, 42498, 42646, 42775, 42937, 44773, 44892, 45109, 45226, 45668, 45892, 46074, 46216, 47853, 48055, 48263, 48413, 48544, 48772, 50451, 50570, 50763, 51009, 51172, 51284, 51479, 53481, 53943, 54083, 54171, 54340, 56025, 56226, 56475, 56689, 56828, 56891, 57029], "trial_type": "free-recall", "conditions": [18, 1200, "a", 18000], "internal_node_id": "0.0-57.0-0.0", "key_presses": [74, 85, 68, 65, 8, 71, 69, 13, 84, 82, 65, 67, 84, 79, 82, 13, 66, 65, 78, 75, 13, 83, 84, 65, 84, 85, 69, 13, 66, 69, 76, 76, 89, 13, 73, 71, 76, 79, 79, 13, 84, 82, 65, 78, 83, 80, 76, 65, 78, 84, 13, 71, 73, 82, 220, 8, 8, 70, 89, 8, 84, 13, 83, 72, 79, 82, 84, 83, 13, 75, 69, 69, 80, 69, 82, 13, 82, 79, 68, 13, 66, 65, 67, 79, 78, 13, 67, 82, 65, 89, 79, 78, 13, 66, 65, 84, 72, 84, 85, 66, 13, 82, 73, 86, 69, 82, 13, 68, 65, 78, 67, 69, 82, 13, 72, 79, 79, 68, 13, 86, 73, 75, 73, 78, 71, 13], "trial": 1, "time_elapsed": 1065580, "type": "FREE_RECALL", "trial_index": 75}, "uniqueid": "MTK3252:3G2UL9A02ELDCQ7BWM0UKB4JV4M671", "dateTime": 1520278445152}, {"current_trial": 76, "trialdata": {"rt": 4106, "trial_type": "text", "internal_node_id": "0.0-58.0", "time_elapsed": 1071692, "key_press": 72, "type": "INSTRUCTIONS", "trial_index": 76}, "uniqueid": "MTK3252:3G2UL9A02ELDCQ7BWM0UKB4JV4M671", "dateTime": 1520278451260}, {"current_trial": 77, "trialdata": {"rt": [4060, 6319, 8860, 10790], "trial_type": "math-distractor", "key_times": [3168, 3349, 4060, 6142, 6319, 8016, 8362, 8860, 10450, 10591, 10790], "responses": ["15", "6", "10", "10"], "num2": [6, 1, 1, 2, 5], "num3": [1, 1, 3, 7, 5], "conditions": [24, 1600, "a", 12000], "internal_node_id": "0.0-59.0", "key_presses": [49, 53, 13, 54, 13, 49, 48, 13, 49, 48, 13], "trial": 2, "time_elapsed": 1084695, "type": "DISTRACTOR", "trial_index": 77, "num1": [8, 4, 6, 1, 4]}, "uniqueid": "MTK3252:3G2UL9A02ELDCQ7BWM0UKB4JV4M671", "dateTime": 1520278464263}, {"current_trial": 78, "trialdata": {"rt": -1, "trial_type": "single-stim", "stimulus": "<p id=\"stim\">10</p>", "internal_node_id": "0.0-60.0-0.0", "time_elapsed": 1087698, "key_press": -1, "trial_index": 78}, "uniqueid": "MTK3252:3G2UL9A02ELDCQ7BWM0UKB4JV4M671", "dateTime": 1520278467266}, {"current_trial": 79, "trialdata": {"rt": -1, "trial_type": "single-stim", "stimulus": "<p id=\"stim\">9</p>", "internal_node_id": "0.0-60.0-1.0", "time_elapsed": 1088699, "key_press": -1, "trial_index": 79}, "uniqueid": "MTK3252:3G2UL9A02ELDCQ7BWM0UKB4JV4M671", "dateTime": 1520278468267}, {"current_trial": 80, "trialdata": {"rt": -1, "trial_type": "single-stim", "stimulus": "<p id=\"stim\">8</p>", "internal_node_id": "0.0-60.0-2.0", "time_elapsed": 1089700, "key_press": -1, "trial_index": 80}, "uniqueid": "MTK3252:3G2UL9A02ELDCQ7BWM0UKB4JV4M671", "dateTime": 1520278469268}, {"current_trial": 81, "trialdata": {"rt": -1, "trial_type": "single-stim", "stimulus": "<p id=\"stim\">7</p>", "internal_node_id": "0.0-60.0-3.0", "time_elapsed": 1090702, "key_press": -1, "trial_index": 81}, "uniqueid": "MTK3252:3G2UL9A02ELDCQ7BWM0UKB4JV4M671", "dateTime": 1520278470270}, {"current_trial": 82, "trialdata": {"rt": -1, "trial_type": "single-stim", "stimulus": "<p id=\"stim\">6</p>", "internal_node_id": "0.0-60.0-4.0", "time_elapsed": 1091703, "key_press": -1, "trial_index": 82}, "uniqueid": "MTK3252:3G2UL9A02ELDCQ7BWM0UKB4JV4M671", "dateTime": 1520278471271}, {"current_trial": 83, "trialdata": {"rt": -1, "trial_type": "single-stim", "stimulus": "<p id=\"stim\">5</p>", "internal_node_id": "0.0-60.0-5.0", "time_elapsed": 1092704, "key_press": -1, "trial_index": 83}, "uniqueid": "MTK3252:3G2UL9A02ELDCQ7BWM0UKB4JV4M671", "dateTime": 1520278472272}, {"current_trial": 84, "trialdata": {"rt": -1, "trial_type": "single-stim", "stimulus": "<p id=\"stim\">4</p>", "internal_node_id": "0.0-60.0-6.0", "time_elapsed": 1093706, "key_press": -1, "trial_index": 84}, "uniqueid": "MTK3252:3G2UL9A02ELDCQ7BWM0UKB4JV4M671", "dateTime": 1520278473274}, {"current_trial": 85, "trialdata": {"rt": -1, "trial_type": "single-stim", "stimulus": "<p id=\"stim\">3</p>", "internal_node_id": "0.0-60.0-7.0", "time_elapsed": 1094708, "key_press": -1, "trial_index": 85}, "uniqueid": "MTK3252:3G2UL9A02ELDCQ7BWM0UKB4JV4M671", "dateTime": 1520278474276}, {"current_trial": 86, "trialdata": {"rt": -1, "trial_type": "single-stim", "stimulus": "<p id=\"stim\">2</p>", "internal_node_id": "0.0-60.0-8.0", "time_elapsed": 1095709, "key_press": -1, "trial_index": 86}, "uniqueid": "MTK3252:3G2UL9A02ELDCQ7BWM0UKB4JV4M671", "dateTime": 1520278475277}, {"current_trial": 87, "trialdata": {"rt": -1, "trial_type": "single-stim", "stimulus": "<p id=\"stim\">1</p>", "internal_node_id": "0.0-60.0-9.0", "time_elapsed": 1096711, "key_press": -1, "trial_index": 87}, "uniqueid": "MTK3252:3G2UL9A02ELDCQ7BWM0UKB4JV4M671", "dateTime": 1520278476279}, {"current_trial": 88, "trialdata": {"rt": -1, "trial_type": "single-stim", "stimulus": "<p id=\"stim\">+</p>", "internal_node_id": "0.0-61.0-0.0", "time_elapsed": 1098213, "key_press": -1, "type": "FIXATION", "trial_index": 88}, "uniqueid": "MTK3252:3G2UL9A02ELDCQ7BWM0UKB4JV4M671", "dateTime": 1520278477781}, {"current_trial": 89, "trialdata": {"rt": -1000, "trial_type": "single-audio", "word": "gymnast", "stimulus": "/static/audio/wordpool/GYMNAST.wav", "conditions": [24, 1600, "a", 12000], "internal_node_id": "0.0-62.0", "trial": 2, "time_elapsed": 1100809, "serialpos": 0, "key_press": -1, "wordID": 674, "type": "PRES_AUD", "trial_index": 89}, "uniqueid": "MTK3252:3G2UL9A02ELDCQ7BWM0UKB4JV4M671", "dateTime": 1520278480378}, {"current_trial": 90, "trialdata": {"rt": -1000, "trial_type": "single-audio", "word": "orchid", "stimulus": "/static/audio/wordpool/ORCHID.wav", "conditions": [24, 1600, "a", 12000], "internal_node_id": "0.0-63.0", "trial": 2, "time_elapsed": 1103308, "serialpos": 1, "key_press": -1, "wordID": 981, "type": "PRES_AUD", "trial_index": 90}, "uniqueid": "MTK3252:3G2UL9A02ELDCQ7BWM0UKB4JV4M671", "dateTime": 1520278482876}, {"current_trial": 91, "trialdata": {"rt": -1000, "trial_type": "single-audio", "word": "garden", "stimulus": "/static/audio/wordpool/GARDEN.wav", "conditions": [24, 1600, "a", 12000], "internal_node_id": "0.0-64.0", "trial": 2, "time_elapsed": 1105975, "serialpos": 2, "key_press": -1, "wordID": 622, "type": "PRES_AUD", "trial_index": 91}, "uniqueid": "MTK3252:3G2UL9A02ELDCQ7BWM0UKB4JV4M671", "dateTime": 1520278485543}, {"current_trial": 92, "trialdata": {"rt": -1000, "trial_type": "single-audio", "word": "gangster", "stimulus": "/static/audio/wordpool/GANGSTER.wav", "conditions": [24, 1600, "a", 12000], "internal_node_id": "0.0-65.0", "trial": 2, "time_elapsed": 1108754, "serialpos": 3, "key_press": -1, "wordID": 619, "type": "PRES_AUD", "trial_index": 92}, "uniqueid": "MTK3252:3G2UL9A02ELDCQ7BWM0UKB4JV4M671", "dateTime": 1520278488322}, {"current_trial": 93, "trialdata": {"rt": -1000, "trial_type": "single-audio", "word": "journal", "stimulus": "/static/audio/wordpool/JOURNAL.wav", "conditions": [24, 1600, "a", 12000], "internal_node_id": "0.0-66.0", "trial": 2, "time_elapsed": 1111535, "serialpos": 4, "key_press": -1, "wordID": 759, "type": "PRES_AUD", "trial_index": 93}, "uniqueid": "MTK3252:3G2UL9A02ELDCQ7BWM0UKB4JV4M671", "dateTime": 1520278491103}, {"current_trial": 94, "trialdata": {"rt": -1000, "trial_type": "single-audio", "word": "forehead", "stimulus": "/static/audio/wordpool/FOREHEAD.wav", "conditions": [24, 1600, "a", 12000], "internal_node_id": "0.0-67.0", "trial": 2, "time_elapsed": 1113977, "serialpos": 5, "key_press": -1, "wordID": 591, "type": "PRES_AUD", "trial_index": 94}, "uniqueid": "MTK3252:3G2UL9A02ELDCQ7BWM0UKB4JV4M671", "dateTime": 1520278493545}, {"current_trial": 95, "trialdata": {"rt": -1000, "trial_type": "single-audio", "word": "freezer", "stimulus": "/static/audio/wordpool/FREEZER.wav", "conditions": [24, 1600, "a", 12000], "internal_node_id": "0.0-68.0", "trial": 2, "time_elapsed": 1116602, "serialpos": 6, "key_press": -1, "wordID": 603, "type": "PRES_AUD", "trial_index": 95}, "uniqueid": "MTK3252:3G2UL9A02ELDCQ7BWM0UKB4JV4M671", "dateTime": 1520278496170}, {"current_trial": 96, "trialdata": {"rt": -1000, "trial_type": "single-audio", "word": "crevice", "stimulus": "/static/audio/wordpool/CREVICE.wav", "conditions": [24, 1600, "a", 12000], "internal_node_id": "0.0-69.0", "trial": 2, "time_elapsed": 1119049, "serialpos": 7, "key_press": -1, "wordID": 404, "type": "PRES_AUD", "trial_index": 96}, "uniqueid": "MTK3252:3G2UL9A02ELDCQ7BWM0UKB4JV4M671", "dateTime": 1520278498617}, {"current_trial": 97, "trialdata": {"rt": -1000, "trial_type": "single-audio", "word": "cyclone", "stimulus": "/static/audio/wordpool/CYCLONE.wav", "conditions": [24, 1600, "a", 12000], "internal_node_id": "0.0-70.0", "trial": 2, "time_elapsed": 1121638, "serialpos": 8, "key_press": -1, "wordID": 430, "type": "PRES_AUD", "trial_index": 97}, "uniqueid": "MTK3252:3G2UL9A02ELDCQ7BWM0UKB4JV4M671", "dateTime": 1520278501207}, {"current_trial": 98, "trialdata": {"rt": -1000, "trial_type": "single-audio", "word": "critic", "stimulus": "/static/audio/wordpool/CRITIC.wav", "conditions": [24, 1600, "a", 12000], "internal_node_id": "0.0-71.0", "trial": 2, "time_elapsed": 1124366, "serialpos": 9, "key_press": -1, "wordID": 409, "type": "PRES_AUD", "trial_index": 98}, "uniqueid": "MTK3252:3G2UL9A02ELDCQ7BWM0UKB4JV4M671", "dateTime": 1520278503934}, {"current_trial": 99, "trialdata": {"rt": -1000, "trial_type": "single-audio", "word": "swimmer", "stimulus": "/static/audio/wordpool/SWIMMER.wav", "conditions": [24, 1600, "a", 12000], "internal_node_id": "0.0-72.0", "trial": 2, "time_elapsed": 1126992, "serialpos": 10, "key_press": -1, "wordID": 1419, "type": "PRES_AUD", "trial_index": 99}, "uniqueid": "MTK3252:3G2UL9A02ELDCQ7BWM0UKB4JV4M671", "dateTime": 1520278506561}, {"current_trial": 100, "trialdata": {"rt": -1000, "trial_type": "single-audio", "word": "boyfriend", "stimulus": "/static/audio/wordpool/BOYFRIEND.wav", "conditions": [24, 1600, "a", 12000], "internal_node_id": "0.0-73.0", "trial": 2, "time_elapsed": 1129631, "serialpos": 11, "key_press": -1, "wordID": 161, "type": "PRES_AUD", "trial_index": 100}, "uniqueid": "MTK3252:3G2UL9A02ELDCQ7BWM0UKB4JV4M671", "dateTime": 1520278509199}, {"current_trial": 101, "trialdata": {"rt": -1000, "trial_type": "single-audio", "word": "jelly", "stimulus": "/static/audio/wordpool/JELLY.wav", "conditions": [24, 1600, "a", 12000], "internal_node_id": "0.0-74.0", "trial": 2, "time_elapsed": 1132298, "serialpos": 12, "key_press": -1, "wordID": 754, "type": "PRES_AUD", "trial_index": 101}, "uniqueid": "MTK3252:3G2UL9A02ELDCQ7BWM0UKB4JV4M671", "dateTime": 1520278511866}, {"current_trial": 102, "trialdata": {"rt": -1000, "trial_type": "single-audio", "word": "jello", "stimulus": "/static/audio/wordpool/JELLO.wav", "conditions": [24, 1600, "a", 12000], "internal_node_id": "0.0-75.0", "trial": 2, "time_elapsed": 1134711, "serialpos": 13, "key_press": -1, "wordID": 753, "type": "PRES_AUD", "trial_index": 102}, "uniqueid": "MTK3252:3G2UL9A02ELDCQ7BWM0UKB4JV4M671", "dateTime": 1520278514279}, {"current_trial": 103, "trialdata": {"rt": -1000, "trial_type": "single-audio", "word": "velvet", "stimulus": "/static/audio/wordpool/VELVET.wav", "conditions": [24, 1600, "a", 12000], "internal_node_id": "0.0-76.0", "trial": 2, "time_elapsed": 1137512, "serialpos": 14, "key_press": -1, "wordID": 1554, "type": "PRES_AUD", "trial_index": 103}, "uniqueid": "MTK3252:3G2UL9A02ELDCQ7BWM0UKB4JV4M671", "dateTime": 1520278517080}, {"current_trial": 104, "trialdata": {"rt": -1000, "trial_type": "single-audio", "word": "beef", "stimulus": "/static/audio/wordpool/BEEF.wav", "conditions": [24, 1600, "a", 12000], "internal_node_id": "0.0-77.0", "trial": 2, "time_elapsed": 1139982, "serialpos": 15, "key_press": -1, "wordID": 112, "type": "PRES_AUD", "trial_index": 104}, "uniqueid": "MTK3252:3G2UL9A02ELDCQ7BWM0UKB4JV4M671", "dateTime": 1520278519551}, {"current_trial": 105, "trialdata": {"rt": -1000, "trial_type": "single-audio", "word": "primate", "stimulus": "/static/audio/wordpool/PRIMATE.wav", "conditions": [24, 1600, "a", 12000], "internal_node_id": "0.0-78.0", "trial": 2, "time_elapsed": 1142635, "serialpos": 16, "key_press": -1, "wordID": 1122, "type": "PRES_AUD", "trial_index": 105}, "uniqueid": "MTK3252:3G2UL9A02ELDCQ7BWM0UKB4JV4M671", "dateTime": 1520278522204}, {"current_trial": 106, "trialdata": {"rt": -1000, "trial_type": "single-audio", "word": "europe", "stimulus": "/static/audio/wordpool/EUROPE.wav", "conditions": [24, 1600, "a", 12000], "internal_node_id": "0.0-79.0", "trial": 2, "time_elapsed": 1145386, "serialpos": 17, "key_press": -1, "wordID": 540, "type": "PRES_AUD", "trial_index": 106}, "uniqueid": "MTK3252:3G2UL9A02ELDCQ7BWM0UKB4JV4M671", "dateTime": 1520278524954}, {"current_trial": 107, "trialdata": {"rt": -1000, "trial_type": "single-audio", "word": "market", "stimulus": "/static/audio/wordpool/MARKET.wav", "conditions": [24, 1600, "a", 12000], "internal_node_id": "0.0-80.0", "trial": 2, "time_elapsed": 1148125, "serialpos": 18, "key_press": -1, "wordID": 870, "type": "PRES_AUD", "trial_index": 107}, "uniqueid": "MTK3252:3G2UL9A02ELDCQ7BWM0UKB4JV4M671", "dateTime": 1520278527693}, {"current_trial": 108, "trialdata": {"rt": -1000, "trial_type": "single-audio", "word": "hook", "stimulus": "/static/audio/wordpool/HOOK.wav", "conditions": [24, 1600, "a", 12000], "internal_node_id": "0.0-81.0", "trial": 2, "time_elapsed": 1150804, "serialpos": 19, "key_press": -1, "wordID": 714, "type": "PRES_AUD", "trial_index": 108}, "uniqueid": "MTK3252:3G2UL9A02ELDCQ7BWM0UKB4JV4M671", "dateTime": 1520278530373}, {"current_trial": 109, "trialdata": {"rt": -1000, "trial_type": "single-audio", "word": "pocket", "stimulus": "/static/audio/wordpool/POCKET.wav", "conditions": [24, 1600, "a", 12000], "internal_node_id": "0.0-82.0", "trial": 2, "time_elapsed": 1153483, "serialpos": 20, "key_press": -1, "wordID": 1092, "type": "PRES_AUD", "trial_index": 109}, "uniqueid": "MTK3252:3G2UL9A02ELDCQ7BWM0UKB4JV4M671", "dateTime": 1520278533051}, {"current_trial": 110, "trialdata": {"rt": -1000, "trial_type": "single-audio", "word": "salmon", "stimulus": "/static/audio/wordpool/SALMON.wav", "conditions": [24, 1600, "a", 12000], "internal_node_id": "0.0-83.0", "trial": 2, "time_elapsed": 1156073, "serialpos": 21, "key_press": -1, "wordID": 1226, "type": "PRES_AUD", "trial_index": 110}, "uniqueid": "MTK3252:3G2UL9A02ELDCQ7BWM0UKB4JV4M671", "dateTime": 1520278535641}, {"current_trial": 111, "trialdata": {"rt": -1000, "trial_type": "single-audio", "word": "clam", "stimulus": "/static/audio/wordpool/CLAM.wav", "conditions": [24, 1600, "a", 12000], "internal_node_id": "0.0-84.0", "trial": 2, "time_elapsed": 1158799, "serialpos": 22, "key_press": -1, "wordID": 314, "type": "PRES_AUD", "trial_index": 111}, "uniqueid": "MTK3252:3G2UL9A02ELDCQ7BWM0UKB4JV4M671", "dateTime": 1520278538367}, {"current_trial": 112, "trialdata": {"rt": -1000, "trial_type": "single-audio", "word": "mammal", "stimulus": "/static/audio/wordpool/MAMMAL.wav", "conditions": [24, 1600, "a", 12000], "internal_node_id": "0.0-85.0", "trial": 2, "time_elapsed": 1161503, "serialpos": 23, "key_press": -1, "wordID": 860, "type": "PRES_AUD", "trial_index": 112}, "uniqueid": "MTK3252:3G2UL9A02ELDCQ7BWM0UKB4JV4M671", "dateTime": 1520278541072}, {"current_trial": 113, "trialdata": {"rt": -1, "trial_type": "single-stim", "stimulus": "", "internal_node_id": "0.0-86.0-0.0", "time_elapsed": 1162711, "key_press": -1, "type": "PRE_RECALL_DELAY", "trial_index": 113}, "uniqueid": "MTK3252:3G2UL9A02ELDCQ7BWM0UKB4JV4M671", "dateTime": 1520278542279}, {"current_trial": 114, "trialdata": {"rt": -1000, "trial_type": "single-audio", "stimulus": "/static/audio/400Hz.wav", "internal_node_id": "0.0-87.0", "time_elapsed": 1163212, "key_press": -1, "type": "PRE_RECALL_ALERT", "trial_index": 114}, "uniqueid": "MTK3252:3G2UL9A02ELDCQ7BWM0UKB4JV4M671", "dateTime": 1520278542780}, {"current_trial": 115, "trialdata": {"rt": [4035, 6934, 9462, 12945, 16015, 20213, 23336, 26633, 30031, 33612, 36500, 39778, 41566, 42905, 46002, 48431, 51762, 54683, 57921], "recwords": ["gymnast", "orchid", "garden", "ganster", "journ", "forehead", "freezer", "crevice", "cyclone", "critic", "swimmer", "boyfriend", "jelly", "jello", "velvet", "beef", "primate", "europe", "market"], "key_times": [2001, 2756, 3000, 3237, 3398, 3619, 3854, 4035, 5640, 5814, 6253, 6450, 6612, 6738, 6934, 8306, 8441, 8638, 8885, 9066, 9230, 9462, 11132, 11339, 11489, 12276, 12459, 12548, 12687, 12945, 14753, 14846, 15116, 15342, 15587, 16015, 18457, 18577, 18703, 18907, 19219, 19694, 19856, 19975, 20213, 21921, 22095, 22295, 22430, 22815, 23071, 23197, 23336, 25472, 25754, 25847, 26170, 26285, 26412, 26536, 26633, 28038, 28444, 28894, 29294, 29488, 29776, 29901, 30031, 31810, 32094, 32785, 32901, 33354, 33465, 33612, 35009, 35232, 35430, 35761, 35914, 36045, 36217, 36500, 37318, 37456, 37576, 38334, 38500, 38663, 38851, 38977, 39125, 39778, 40661, 40854, 41172, 41294, 41436, 41566, 41950, 42196, 42376, 42515, 42680, 42905, 44689, 44881, 45090, 45326, 45450, 45608, 46002, 47678, 47933, 48081, 48202, 48431, 50565, 50669, 50934, 51200, 51326, 51496, 51605, 51762, 53391, 53689, 54029, 54226, 54420, 54545, 54683, 56363, 56488, 56721, 57559, 57620, 57747, 57921, 59416, 59622, 59766, 59977], "trial_type": "free-recall", "conditions": [24, 1600, "a", 12000], "internal_node_id": "0.0-88.0-0.0", "key_presses": [71, 89, 77, 78, 65, 83, 84, 13, 79, 82, 67, 72, 73, 68, 13, 71, 65, 82, 68, 69, 78, 13, 71, 65, 78, 83, 84, 69, 82, 13, 74, 79, 85, 82, 78, 186, 70, 79, 82, 69, 72, 69, 65, 68, 13, 70, 82, 69, 69, 90, 69, 82, 13, 67, 82, 69, 86, 73, 67, 69, 13, 67, 89, 67, 76, 79, 78, 69, 13, 67, 82, 73, 84, 73, 67, 13, 83, 87, 73, 77, 77, 69, 82, 13, 66, 79, 89, 70, 82, 73, 69, 78, 68, 13, 74, 69, 76, 76, 89, 13, 74, 69, 76, 76, 79, 13, 86, 69, 76, 86, 69, 84, 13, 66, 69, 69, 70, 13, 80, 82, 73, 77, 65, 84, 69, 13, 69, 85, 82, 79, 80, 69, 13, 77, 65, 82, 75, 69, 84, 13, 67, 79, 79, 75], "trial": 2, "time_elapsed": 1223216, "type": "FREE_RECALL", "trial_index": 115}, "uniqueid": "MTK3252:3G2UL9A02ELDCQ7BWM0UKB4JV4M671", "dateTime": 1520278602788}, {"current_trial": 116, "trialdata": {"rt": 5197, "trial_type": "text", "internal_node_id": "0.0-89.0", "time_elapsed": 1230419, "key_press": 72, "type": "INSTRUCTIONS", "trial_index": 116}, "uniqueid": "MTK3252:3G2UL9A02ELDCQ7BWM0UKB4JV4M671", "dateTime": 1520278609987}, {"current_trial": 117, "trialdata": {"rt": [5263, 7396, 10023, 13021, 15154, 18364, 22341], "trial_type": "math-distractor", "key_times": [4621, 4753, 5263, 7176, 7268, 7396, 9688, 9900, 10023, 12404, 12851, 13021, 14561, 14969, 15154, 17563, 18019, 18364, 21622, 22028, 22341], "responses": ["22", "12", "15", "19", "10", "18", "19"], "num2": [6, 2, 9, 7, 1, 8, 5, 5], "num3": [9, 6, 4, 3, 5, 7, 9, 1], "conditions": [24, 1600, "a", 24000], "internal_node_id": "0.0-90.0", "key_presses": [50, 50, 13, 49, 50, 13, 49, 53, 13, 49, 57, 13, 49, 48, 13, 49, 56, 13, 49, 57, 13], "trial": 3, "time_elapsed": 1256425, "type": "DISTRACTOR", "trial_index": 117, "num1": [7, 4, 2, 9, 4, 9, 5, 3]}, "uniqueid": "MTK3252:3G2UL9A02ELDCQ7BWM0UKB4JV4M671", "dateTime": 1520278635993}, {"current_trial": 118, "trialdata": {"rt": -1, "trial_type": "single-stim", "stimulus": "<p id=\"stim\">10</p>", "internal_node_id": "0.0-91.0-0.0", "time_elapsed": 1259428, "key_press": -1, "trial_index": 118}, "uniqueid": "MTK3252:3G2UL9A02ELDCQ7BWM0UKB4JV4M671", "dateTime": 1520278638996}, {"current_trial": 119, "trialdata": {"rt": -1, "trial_type": "single-stim", "stimulus": "<p id=\"stim\">9</p>", "internal_node_id": "0.0-91.0-1.0", "time_elapsed": 1260432, "key_press": -1, "trial_index": 119}, "uniqueid": "MTK3252:3G2UL9A02ELDCQ7BWM0UKB4JV4M671", "dateTime": 1520278640000}, {"current_trial": 120, "trialdata": {"rt": -1, "trial_type": "single-stim", "stimulus": "<p id=\"stim\">8</p>", "internal_node_id": "0.0-91.0-2.0", "time_elapsed": 1261433, "key_press": -1, "trial_index": 120}, "uniqueid": "MTK3252:3G2UL9A02ELDCQ7BWM0UKB4JV4M671", "dateTime": 1520278641002}, {"current_trial": 121, "trialdata": {"rt": -1, "trial_type": "single-stim", "stimulus": "<p id=\"stim\">7</p>", "internal_node_id": "0.0-91.0-3.0", "time_elapsed": 1262435, "key_press": -1, "trial_index": 121}, "uniqueid": "MTK3252:3G2UL9A02ELDCQ7BWM0UKB4JV4M671", "dateTime": 1520278642004}, {"current_trial": 122, "trialdata": {"rt": -1, "trial_type": "single-stim", "stimulus": "<p id=\"stim\">6</p>", "internal_node_id": "0.0-91.0-4.0", "time_elapsed": 1263437, "key_press": -1, "trial_index": 122}, "uniqueid": "MTK3252:3G2UL9A02ELDCQ7BWM0UKB4JV4M671", "dateTime": 1520278643005}, {"current_trial": 123, "trialdata": {"rt": -1, "trial_type": "single-stim", "stimulus": "<p id=\"stim\">5</p>", "internal_node_id": "0.0-91.0-5.0", "time_elapsed": 1264438, "key_press": -1, "trial_index": 123}, "uniqueid": "MTK3252:3G2UL9A02ELDCQ7BWM0UKB4JV4M671", "dateTime": 1520278644007}, {"current_trial": 124, "trialdata": {"rt": -1, "trial_type": "single-stim", "stimulus": "<p id=\"stim\">4</p>", "internal_node_id": "0.0-91.0-6.0", "time_elapsed": 1265441, "key_press": -1, "trial_index": 124}, "uniqueid": "MTK3252:3G2UL9A02ELDCQ7BWM0UKB4JV4M671", "dateTime": 1520278645009}, {"current_trial": 125, "trialdata": {"rt": -1, "trial_type": "single-stim", "stimulus": "<p id=\"stim\">3</p>", "internal_node_id": "0.0-91.0-7.0", "time_elapsed": 1266442, "key_press": -1, "trial_index": 125}, "uniqueid": "MTK3252:3G2UL9A02ELDCQ7BWM0UKB4JV4M671", "dateTime": 1520278646010}, {"current_trial": 126, "trialdata": {"rt": -1, "trial_type": "single-stim", "stimulus": "<p id=\"stim\">2</p>", "internal_node_id": "0.0-91.0-8.0", "time_elapsed": 1267444, "key_press": -1, "trial_index": 126}, "uniqueid": "MTK3252:3G2UL9A02ELDCQ7BWM0UKB4JV4M671", "dateTime": 1520278647012}, {"current_trial": 127, "trialdata": {"rt": -1, "trial_type": "single-stim", "stimulus": "<p id=\"stim\">1</p>", "internal_node_id": "0.0-91.0-9.0", "time_elapsed": 1268446, "key_press": -1, "trial_index": 127}, "uniqueid": "MTK3252:3G2UL9A02ELDCQ7BWM0UKB4JV4M671", "dateTime": 1520278648015}, {"current_trial": 128, "trialdata": {"rt": -1, "trial_type": "single-stim", "stimulus": "<p id=\"stim\">+</p>", "internal_node_id": "0.0-92.0-0.0", "time_elapsed": 1269948, "key_press": -1, "type": "FIXATION", "trial_index": 128}, "uniqueid": "MTK3252:3G2UL9A02ELDCQ7BWM0UKB4JV4M671", "dateTime": 1520278649516}, {"current_trial": 129, "trialdata": {"rt": -1000, "trial_type": "single-audio", "word": "grill", "stimulus": "/static/audio/wordpool/GRILL.wav", "conditions": [24, 1600, "a", 24000], "internal_node_id": "0.0-93.0", "trial": 3, "time_elapsed": 1272541, "serialpos": 0, "key_press": -1, "wordID": 660, "type": "PRES_AUD", "trial_index": 129}, "uniqueid": "MTK3252:3G2UL9A02ELDCQ7BWM0UKB4JV4M671", "dateTime": 1520278652111}, {"current_trial": 130, "trialdata": {"rt": -1000, "trial_type": "single-audio", "word": "perch", "stimulus": "/static/audio/wordpool/PERCH.wav", "conditions": [24, 1600, "a", 24000], "internal_node_id": "0.0-94.0", "trial": 3, "time_elapsed": 1274983, "serialpos": 1, "key_press": -1, "wordID": 1047, "type": "PRES_AUD", "trial_index": 130}, "uniqueid": "MTK3252:3G2UL9A02ELDCQ7BWM0UKB4JV4M671", "dateTime": 1520278654552}, {"current_trial": 131, "trialdata": {"rt": -1000, "trial_type": "single-audio", "word": "crater", "stimulus": "/static/audio/wordpool/CRATER.wav", "conditions": [24, 1600, "a", 24000], "internal_node_id": "0.0-95.0", "trial": 3, "time_elapsed": 1277671, "serialpos": 2, "key_press": -1, "wordID": 399, "type": "PRES_AUD", "trial_index": 131}, "uniqueid": "MTK3252:3G2UL9A02ELDCQ7BWM0UKB4JV4M671", "dateTime": 1520278657239}, {"current_trial": 132, "trialdata": {"rt": -1000, "trial_type": "single-audio", "word": "beast", "stimulus": "/static/audio/wordpool/BEAST.wav", "conditions": [24, 1600, "a", 24000], "internal_node_id": "0.0-96.0", "trial": 3, "time_elapsed": 1280187, "serialpos": 3, "key_press": -1, "wordID": 107, "type": "PRES_AUD", "trial_index": 132}, "uniqueid": "MTK3252:3G2UL9A02ELDCQ7BWM0UKB4JV4M671", "dateTime": 1520278659755}, {"current_trial": 133, "trialdata": {"rt": -1000, "trial_type": "single-audio", "word": "lover", "stimulus": "/static/audio/wordpool/LOVER.wav", "conditions": [24, 1600, "a", 24000], "internal_node_id": "0.0-97.0", "trial": 3, "time_elapsed": 1282752, "serialpos": 4, "key_press": -1, "wordID": 845, "type": "PRES_AUD", "trial_index": 133}, "uniqueid": "MTK3252:3G2UL9A02ELDCQ7BWM0UKB4JV4M671", "dateTime": 1520278662320}, {"current_trial": 134, "trialdata": {"rt": -1000, "trial_type": "single-audio", "word": "skillet", "stimulus": "/static/audio/wordpool/SKILLET.wav", "conditions": [24, 1600, "a", 24000], "internal_node_id": "0.0-98.0", "trial": 3, "time_elapsed": 1285223, "serialpos": 5, "key_press": -1, "wordID": 1316, "type": "PRES_AUD", "trial_index": 134}, "uniqueid": "MTK3252:3G2UL9A02ELDCQ7BWM0UKB4JV4M671", "dateTime": 1520278664792}, {"current_trial": 135, "trialdata": {"rt": -1000, "trial_type": "single-audio", "word": "marsh", "stimulus": "/static/audio/wordpool/MARSH.wav", "conditions": [24, 1600, "a", 24000], "internal_node_id": "0.0-99.0", "trial": 3, "time_elapsed": 1288013, "serialpos": 6, "key_press": -1, "wordID": 873, "type": "PRES_AUD", "trial_index": 135}, "uniqueid": "MTK3252:3G2UL9A02ELDCQ7BWM0UKB4JV4M671", "dateTime": 1520278667581}, {"current_trial": 136, "trialdata": {"rt": -1000, "trial_type": "single-audio", "word": "servant", "stimulus": "/static/audio/wordpool/SERVANT.wav", "conditions": [24, 1600, "a", 24000], "internal_node_id": "0.0-100.0", "trial": 3, "time_elapsed": 1290710, "serialpos": 7, "key_press": -1, "wordID": 1270, "type": "PRES_AUD", "trial_index": 136}, "uniqueid": "MTK3252:3G2UL9A02ELDCQ7BWM0UKB4JV4M671", "dateTime": 1520278670278}, {"current_trial": 137, "trialdata": {"rt": -1000, "trial_type": "single-audio", "word": "fruit", "stimulus": "/static/audio/wordpool/FRUIT.wav", "conditions": [24, 1600, "a", 24000], "internal_node_id": "0.0-101.0", "trial": 3, "time_elapsed": 1293462, "serialpos": 8, "key_press": -1, "wordID": 609, "type": "PRES_AUD", "trial_index": 137}, "uniqueid": "MTK3252:3G2UL9A02ELDCQ7BWM0UKB4JV4M671", "dateTime": 1520278673030}, {"current_trial": 138, "trialdata": {"rt": -1000, "trial_type": "single-audio", "word": "trout", "stimulus": "/static/audio/wordpool/TROUT.wav", "conditions": [24, 1600, "a", 24000], "internal_node_id": "0.0-102.0", "trial": 3, "time_elapsed": 1296034, "serialpos": 9, "key_press": -1, "wordID": 1510, "type": "PRES_AUD", "trial_index": 138}, "uniqueid": "MTK3252:3G2UL9A02ELDCQ7BWM0UKB4JV4M671", "dateTime": 1520278675602}, {"current_trial": 139, "trialdata": {"rt": -1000, "trial_type": "single-audio", "word": "virus", "stimulus": "/static/audio/wordpool/VIRUS.wav", "conditions": [24, 1600, "a", 24000], "internal_node_id": "0.0-103.0", "trial": 3, "time_elapsed": 1298504, "serialpos": 10, "key_press": -1, "wordID": 1571, "type": "PRES_AUD", "trial_index": 139}, "uniqueid": "MTK3252:3G2UL9A02ELDCQ7BWM0UKB4JV4M671", "dateTime": 1520278678072}, {"current_trial": 140, "trialdata": {"rt": -1000, "trial_type": "single-audio", "word": "bug", "stimulus": "/static/audio/wordpool/BUG.wav", "conditions": [24, 1600, "a", 24000], "internal_node_id": "0.0-104.0", "trial": 3, "time_elapsed": 1301098, "serialpos": 11, "key_press": -1, "wordID": 186, "type": "PRES_AUD", "trial_index": 140}, "uniqueid": "MTK3252:3G2UL9A02ELDCQ7BWM0UKB4JV4M671", "dateTime": 1520278680666}, {"current_trial": 141, "trialdata": {"rt": -1000, "trial_type": "single-audio", "word": "scissors", "stimulus": "/static/audio/wordpool/SCISSORS.wav", "conditions": [24, 1600, "a", 24000], "internal_node_id": "0.0-105.0", "trial": 3, "time_elapsed": 1303797, "serialpos": 12, "key_press": -1, "wordID": 1249, "type": "PRES_AUD", "trial_index": 141}, "uniqueid": "MTK3252:3G2UL9A02ELDCQ7BWM0UKB4JV4M671", "dateTime": 1520278683366}, {"current_trial": 142, "trialdata": {"rt": -1000, "trial_type": "single-audio", "word": "slope", "stimulus": "/static/audio/wordpool/SLOPE.wav", "conditions": [24, 1600, "a", 24000], "internal_node_id": "0.0-106.0", "trial": 3, "time_elapsed": 1306250, "serialpos": 13, "key_press": -1, "wordID": 1327, "type": "PRES_AUD", "trial_index": 142}, "uniqueid": "MTK3252:3G2UL9A02ELDCQ7BWM0UKB4JV4M671", "dateTime": 1520278685819}, {"current_trial": 143, "trialdata": {"rt": -1000, "trial_type": "single-audio", "word": "onion", "stimulus": "/static/audio/wordpool/ONION.wav", "conditions": [24, 1600, "a", 24000], "internal_node_id": "0.0-107.0", "trial": 3, "time_elapsed": 1308760, "serialpos": 14, "key_press": -1, "wordID": 976, "type": "PRES_AUD", "trial_index": 143}, "uniqueid": "MTK3252:3G2UL9A02ELDCQ7BWM0UKB4JV4M671", "dateTime": 1520278688328}, {"current_trial": 144, "trialdata": {"rt": -1000, "trial_type": "single-audio", "word": "ankle", "stimulus": "/static/audio/wordpool/ANKLE.wav", "conditions": [24, 1600, "a", 24000], "internal_node_id": "0.0-108.0", "trial": 3, "time_elapsed": 1311455, "serialpos": 15, "key_press": -1, "wordID": 23, "type": "PRES_AUD", "trial_index": 144}, "uniqueid": "MTK3252:3G2UL9A02ELDCQ7BWM0UKB4JV4M671", "dateTime": 1520278691023}, {"current_trial": 145, "trialdata": {"rt": -1000, "trial_type": "single-audio", "word": "stomach", "stimulus": "/static/audio/wordpool/STOMACH.wav", "conditions": [24, 1600, "a", 24000], "internal_node_id": "0.0-109.0", "trial": 3, "time_elapsed": 1314249, "serialpos": 16, "key_press": -1, "wordID": 1383, "type": "PRES_AUD", "trial_index": 145}, "uniqueid": "MTK3252:3G2UL9A02ELDCQ7BWM0UKB4JV4M671", "dateTime": 1520278693817}, {"current_trial": 146, "trialdata": {"rt": -1000, "trial_type": "single-audio", "word": "ozone", "stimulus": "/static/audio/wordpool/OZONE.wav", "conditions": [24, 1600, "a", 24000], "internal_node_id": "0.0-110.0", "trial": 3, "time_elapsed": 1316965, "serialpos": 17, "key_press": -1, "wordID": 995, "type": "PRES_AUD", "trial_index": 146}, "uniqueid": "MTK3252:3G2UL9A02ELDCQ7BWM0UKB4JV4M671", "dateTime": 1520278696533}, {"current_trial": 147, "trialdata": {"rt": -1000, "trial_type": "single-audio", "word": "smog", "stimulus": "/static/audio/wordpool/SMOG.wav", "conditions": [24, 1600, "a", 24000], "internal_node_id": "0.0-111.0", "trial": 3, "time_elapsed": 1319516, "serialpos": 18, "key_press": -1, "wordID": 1329, "type": "PRES_AUD", "trial_index": 147}, "uniqueid": "MTK3252:3G2UL9A02ELDCQ7BWM0UKB4JV4M671", "dateTime": 1520278699084}, {"current_trial": 148, "trialdata": {"rt": -1000, "trial_type": "single-audio", "word": "plaster", "stimulus": "/static/audio/wordpool/PLASTER.wav", "conditions": [24, 1600, "a", 24000], "internal_node_id": "0.0-112.0", "trial": 3, "time_elapsed": 1322015, "serialpos": 19, "key_press": -1, "wordID": 1084, "type": "PRES_AUD", "trial_index": 148}, "uniqueid": "MTK3252:3G2UL9A02ELDCQ7BWM0UKB4JV4M671", "dateTime": 1520278701583}, {"current_trial": 149, "trialdata": {"rt": -1000, "trial_type": "single-audio", "word": "portrait", "stimulus": "/static/audio/wordpool/PORTRAIT.wav", "conditions": [24, 1600, "a", 24000], "internal_node_id": "0.0-113.0", "trial": 3, "time_elapsed": 1324530, "serialpos": 20, "key_press": -1, "wordID": 1110, "type": "PRES_AUD", "trial_index": 149}, "uniqueid": "MTK3252:3G2UL9A02ELDCQ7BWM0UKB4JV4M671", "dateTime": 1520278704098}, {"current_trial": 150, "trialdata": {"rt": -1000, "trial_type": "single-audio", "word": "partner", "stimulus": "/static/audio/wordpool/PARTNER.wav", "conditions": [24, 1600, "a", 24000], "internal_node_id": "0.0-114.0", "trial": 3, "time_elapsed": 1327239, "serialpos": 21, "key_press": -1, "wordID": 1016, "type": "PRES_AUD", "trial_index": 150}, "uniqueid": "MTK3252:3G2UL9A02ELDCQ7BWM0UKB4JV4M671", "dateTime": 1520278706807}, {"current_trial": 151, "trialdata": {"rt": -1000, "trial_type": "single-audio", "word": "elbow", "stimulus": "/static/audio/wordpool/ELBOW.wav", "conditions": [24, 1600, "a", 24000], "internal_node_id": "0.0-115.0", "trial": 3, "time_elapsed": 1329789, "serialpos": 22, "key_press": -1, "wordID": 519, "type": "PRES_AUD", "trial_index": 151}, "uniqueid": "MTK3252:3G2UL9A02ELDCQ7BWM0UKB4JV4M671", "dateTime": 1520278709357}, {"current_trial": 152, "trialdata": {"rt": -1000, "trial_type": "single-audio", "word": "mask", "stimulus": "/static/audio/wordpool/MASK.wav", "conditions": [24, 1600, "a", 24000], "internal_node_id": "0.0-116.0", "trial": 3, "time_elapsed": 1332312, "serialpos": 23, "key_press": -1, "wordID": 875, "type": "PRES_AUD", "trial_index": 152}, "uniqueid": "MTK3252:3G2UL9A02ELDCQ7BWM0UKB4JV4M671", "dateTime": 1520278711880}, {"current_trial": 153, "trialdata": {"rt": -1, "trial_type": "single-stim", "stimulus": "", "internal_node_id": "0.0-117.0-0.0", "time_elapsed": 1333667, "key_press": -1, "type": "PRE_RECALL_DELAY", "trial_index": 153}, "uniqueid": "MTK3252:3G2UL9A02ELDCQ7BWM0UKB4JV4M671", "dateTime": 1520278713235}, {"current_trial": 154, "trialdata": {"rt": -1000, "trial_type": "single-audio", "stimulus": "/static/audio/400Hz.wav", "internal_node_id": "0.0-118.0", "time_elapsed": 1334169, "key_press": -1, "type": "PRE_RECALL_ALERT", "trial_index": 154}, "uniqueid": "MTK3252:3G2UL9A02ELDCQ7BWM0UKB4JV4M671", "dateTime": 1520278713737}, {"current_trial": 155, "trialdata": {"rt": [4309, 6508, 9126, 12299, 13688, 16188, 18956, 21841, 25043, 27853, 30169, 31933, 34599, 36881, 39075, 41068, 44648, 47334, 49760, 52995, 56652, 58864], "recwords": ["grill", "church", "crater", "beast", "lover", "skillet", "marsh", "servant", "fruit", "trout", "virus", "bug", "scissors", "slope", "onion", "ankle", "stomach", "ozone", "smog", "plaster", "portrait", "partner"], "key_times": [3299, 3371, 3512, 3779, 3924, 4309, 5264, 5373, 5586, 5752, 5967, 6070, 6508, 7319, 7775, 7963, 8191, 8287, 8396, 9126, 9732, 9878, 10039, 10146, 11693, 12299, 12921, 13103, 13234, 13411, 13515, 13688, 15129, 15250, 15422, 15663, 15827, 15894, 16008, 16188, 17731, 17870, 18081, 18357, 18472, 18956, 19924, 20134, 20244, 20497, 20917, 21250, 21351, 21841, 24145, 24275, 24496, 24697, 24827, 25043, 27028, 27117, 27357, 27630, 27728, 27853, 29086, 29377, 29572, 29791, 29889, 30169, 31510, 31689, 31773, 31933, 33330, 33460, 33746, 33984, 34121, 34290, 34371, 34496, 34599, 36115, 36285, 36482, 36663, 36752, 36881, 38417, 38525, 38659, 38835, 38961, 39075, 40228, 40405, 40637, 40872, 40944, 41068, 42326, 42952, 43041, 43266, 43931, 44194, 44420, 44648, 46332, 46743, 46818, 47060, 47186, 47334, 48645, 49279, 49493, 49648, 49760, 51354, 51595, 51750, 51932, 52250, 52365, 52469, 52995, 54450, 54686, 54861, 55090, 55258, 55560, 55878, 55998, 56652, 57655, 57745, 57899, 58138, 58569, 58665, 58722, 58864], "trial_type": "free-recall", "conditions": [24, 1600, "a", 24000], "internal_node_id": "0.0-119.0-0.0", "key_presses": [71, 82, 73, 76, 76, 13, 67, 72, 85, 82, 67, 72, 13, 67, 82, 65, 84, 69, 82, 13, 66, 69, 65, 83, 84, 13, 76, 79, 86, 69, 82, 13, 83, 75, 73, 76, 76, 69, 84, 13, 77, 65, 82, 83, 72, 13, 83, 69, 82, 86, 65, 78, 84, 13, 70, 82, 85, 73, 84, 13, 84, 82, 79, 85, 84, 13, 86, 73, 82, 85, 83, 13, 66, 85, 71, 13, 83, 67, 73, 83, 83, 79, 82, 83, 13, 83, 76, 79, 80, 69, 13, 79, 78, 73, 79, 78, 13, 65, 78, 75, 76, 69, 13, 83, 84, 79, 77, 65, 67, 72, 13, 79, 90, 79, 78, 69, 13, 83, 77, 79, 71, 13, 80, 76, 65, 83, 84, 69, 82, 13, 80, 79, 82, 84, 82, 65, 73, 84, 13, 80, 65, 82, 84, 78, 69, 82, 13], "trial": 3, "time_elapsed": 1394173, "type": "FREE_RECALL", "trial_index": 155}, "uniqueid": "MTK3252:3G2UL9A02ELDCQ7BWM0UKB4JV4M671", "dateTime": 1520278773745}, {"current_trial": 156, "trialdata": {"rt": 13020, "trial_type": "text", "internal_node_id": "0.0-120.0", "time_elapsed": 1409198, "key_press": 13, "type": "INSTRUCTIONS", "trial_index": 156}, "uniqueid": "MTK3252:3G2UL9A02ELDCQ7BWM0UKB4JV4M671", "dateTime": 1520278788766}, {"current_trial": 157, "trialdata": {"rt": [2599, 6014, 8508, 11499], "trial_type": "math-distractor", "key_times": [2048, 2167, 2599, 5581, 5770, 6014, 8411, 8508, 11248, 11343, 11499], "responses": ["10", "12", "9", "13"], "num2": [4, 3, 3, 3, 1], "num3": [4, 2, 4, 6, 5], "conditions": [12, 1600, "a", 12000], "internal_node_id": "0.0-121.0", "key_presses": [49, 48, 13, 49, 50, 13, 57, 13, 49, 51, 13], "trial": 4, "time_elapsed": 1423203, "type": "DISTRACTOR", "trial_index": 157, "num1": [2, 8, 2, 4, 6]}, "uniqueid": "MTK3252:3G2UL9A02ELDCQ7BWM0UKB4JV4M671", "dateTime": 1520278802771}, {"current_trial": 158, "trialdata": {"rt": -1, "trial_type": "single-stim", "stimulus": "<p id=\"stim\">10</p>", "internal_node_id": "0.0-122.0-0.0", "time_elapsed": 1426206, "key_press": -1, "trial_index": 158}, "uniqueid": "MTK3252:3G2UL9A02ELDCQ7BWM0UKB4JV4M671", "dateTime": 1520278805777}, {"current_trial": 159, "trialdata": {"rt": -1, "trial_type": "single-stim", "stimulus": "<p id=\"stim\">9</p>", "internal_node_id": "0.0-122.0-1.0", "time_elapsed": 1427211, "key_press": -1, "trial_index": 159}, "uniqueid": "MTK3252:3G2UL9A02ELDCQ7BWM0UKB4JV4M671", "dateTime": 1520278806779}, {"current_trial": 160, "trialdata": {"rt": -1, "trial_type": "single-stim", "stimulus": "<p id=\"stim\">8</p>", "internal_node_id": "0.0-122.0-2.0", "time_elapsed": 1428214, "key_press": -1, "trial_index": 160}, "uniqueid": "MTK3252:3G2UL9A02ELDCQ7BWM0UKB4JV4M671", "dateTime": 1520278807782}, {"current_trial": 161, "trialdata": {"rt": -1, "trial_type": "single-stim", "stimulus": "<p id=\"stim\">7</p>", "internal_node_id": "0.0-122.0-3.0", "time_elapsed": 1429217, "key_press": -1, "trial_index": 161}, "uniqueid": "MTK3252:3G2UL9A02ELDCQ7BWM0UKB4JV4M671", "dateTime": 1520278808785}, {"current_trial": 162, "trialdata": {"rt": -1, "trial_type": "single-stim", "stimulus": "<p id=\"stim\">6</p>", "internal_node_id": "0.0-122.0-4.0", "time_elapsed": 1430219, "key_press": -1, "trial_index": 162}, "uniqueid": "MTK3252:3G2UL9A02ELDCQ7BWM0UKB4JV4M671", "dateTime": 1520278809787}, {"current_trial": 163, "trialdata": {"rt": -1, "trial_type": "single-stim", "stimulus": "<p id=\"stim\">5</p>", "internal_node_id": "0.0-122.0-5.0", "time_elapsed": 1431221, "key_press": -1, "trial_index": 163}, "uniqueid": "MTK3252:3G2UL9A02ELDCQ7BWM0UKB4JV4M671", "dateTime": 1520278810789}, {"current_trial": 164, "trialdata": {"rt": -1, "trial_type": "single-stim", "stimulus": "<p id=\"stim\">4</p>", "internal_node_id": "0.0-122.0-6.0", "time_elapsed": 1432222, "key_press": -1, "trial_index": 164}, "uniqueid": "MTK3252:3G2UL9A02ELDCQ7BWM0UKB4JV4M671", "dateTime": 1520278811790}, {"current_trial": 165, "trialdata": {"rt": -1, "trial_type": "single-stim", "stimulus": "<p id=\"stim\">3</p>", "internal_node_id": "0.0-122.0-7.0", "time_elapsed": 1433225, "key_press": -1, "trial_index": 165}, "uniqueid": "MTK3252:3G2UL9A02ELDCQ7BWM0UKB4JV4M671", "dateTime": 1520278812793}, {"current_trial": 166, "trialdata": {"rt": -1, "trial_type": "single-stim", "stimulus": "<p id=\"stim\">2</p>", "internal_node_id": "0.0-122.0-8.0", "time_elapsed": 1434227, "key_press": -1, "trial_index": 166}, "uniqueid": "MTK3252:3G2UL9A02ELDCQ7BWM0UKB4JV4M671", "dateTime": 1520278813795}, {"current_trial": 167, "trialdata": {"rt": -1, "trial_type": "single-stim", "stimulus": "<p id=\"stim\">1</p>", "internal_node_id": "0.0-122.0-9.0", "time_elapsed": 1435230, "key_press": -1, "trial_index": 167}, "uniqueid": "MTK3252:3G2UL9A02ELDCQ7BWM0UKB4JV4M671", "dateTime": 1520278814799}, {"current_trial": 168, "trialdata": {"rt": -1, "trial_type": "single-stim", "stimulus": "<p id=\"stim\">+</p>", "internal_node_id": "0.0-123.0-0.0", "time_elapsed": 1436733, "key_press": -1, "type": "FIXATION", "trial_index": 168}, "uniqueid": "MTK3252:3G2UL9A02ELDCQ7BWM0UKB4JV4M671", "dateTime": 1520278816301}, {"current_trial": 169, "trialdata": {"rt": -1000, "trial_type": "single-audio", "word": "goblin", "stimulus": "/static/audio/wordpool/GOBLIN.wav", "conditions": [12, 1600, "a", 12000], "internal_node_id": "0.0-124.0", "trial": 4, "time_elapsed": 1439516, "serialpos": 0, "key_press": -1, "wordID": 644, "type": "PRES_AUD", "trial_index": 169}, "uniqueid": "MTK3252:3G2UL9A02ELDCQ7BWM0UKB4JV4M671", "dateTime": 1520278819084}, {"current_trial": 170, "trialdata": {"rt": -1000, "trial_type": "single-audio", "word": "blueprint", "stimulus": "/static/audio/wordpool/BLUEPRINT.wav", "conditions": [12, 1600, "a", 12000], "internal_node_id": "0.0-125.0", "trial": 4, "time_elapsed": 1442237, "serialpos": 1, "key_press": -1, "wordID": 141, "type": "PRES_AUD", "trial_index": 170}, "uniqueid": "MTK3252:3G2UL9A02ELDCQ7BWM0UKB4JV4M671", "dateTime": 1520278821805}, {"current_trial": 171, "trialdata": {"rt": -1000, "trial_type": "single-audio", "word": "lady", "stimulus": "/static/audio/wordpool/LADY.wav", "conditions": [12, 1600, "a", 12000], "internal_node_id": "0.0-126.0", "trial": 4, "time_elapsed": 1444768, "serialpos": 2, "key_press": -1, "wordID": 793, "type": "PRES_AUD", "trial_index": 171}, "uniqueid": "MTK3252:3G2UL9A02ELDCQ7BWM0UKB4JV4M671", "dateTime": 1520278824336}, {"current_trial": 172, "trialdata": {"rt": -1000, "trial_type": "single-audio", "word": "bunny", "stimulus": "/static/audio/wordpool/BUNNY.wav", "conditions": [12, 1600, "a", 12000], "internal_node_id": "0.0-127.0", "trial": 4, "time_elapsed": 1447441, "serialpos": 3, "key_press": -1, "wordID": 197, "type": "PRES_AUD", "trial_index": 172}, "uniqueid": "MTK3252:3G2UL9A02ELDCQ7BWM0UKB4JV4M671", "dateTime": 1520278827009}, {"current_trial": 173, "trialdata": {"rt": -1000, "trial_type": "single-audio", "word": "penguin", "stimulus": "/static/audio/wordpool/PENGUIN.wav", "conditions": [12, 1600, "a", 12000], "internal_node_id": "0.0-128.0", "trial": 4, "time_elapsed": 1450115, "serialpos": 4, "key_press": -1, "wordID": 1043, "type": "PRES_AUD", "trial_index": 173}, "uniqueid": "MTK3252:3G2UL9A02ELDCQ7BWM0UKB4JV4M671", "dateTime": 1520278829683}, {"current_trial": 174, "trialdata": {"rt": -1000, "trial_type": "single-audio", "word": "bucket", "stimulus": "/static/audio/wordpool/BUCKET.wav", "conditions": [12, 1600, "a", 12000], "internal_node_id": "0.0-129.0", "trial": 4, "time_elapsed": 1452710, "serialpos": 5, "key_press": -1, "wordID": 183, "type": "PRES_AUD", "trial_index": 174}, "uniqueid": "MTK3252:3G2UL9A02ELDCQ7BWM0UKB4JV4M671", "dateTime": 1520278832279}, {"current_trial": 175, "trialdata": {"rt": -1000, "trial_type": "single-audio", "word": "honey", "stimulus": "/static/audio/wordpool/HONEY.wav", "conditions": [12, 1600, "a", 12000], "internal_node_id": "0.0-130.0", "trial": 4, "time_elapsed": 1455162, "serialpos": 6, "key_press": -1, "wordID": 712, "type": "PRES_AUD", "trial_index": 175}, "uniqueid": "MTK3252:3G2UL9A02ELDCQ7BWM0UKB4JV4M671", "dateTime": 1520278834730}, {"current_trial": 176, "trialdata": {"rt": -1000, "trial_type": "single-audio", "word": "poet", "stimulus": "/static/audio/wordpool/POET.wav", "conditions": [12, 1600, "a", 12000], "internal_node_id": "0.0-131.0", "trial": 4, "time_elapsed": 1457941, "serialpos": 7, "key_press": -1, "wordID": 1094, "type": "PRES_AUD", "trial_index": 176}, "uniqueid": "MTK3252:3G2UL9A02ELDCQ7BWM0UKB4JV4M671", "dateTime": 1520278837509}, {"current_trial": 177, "trialdata": {"rt": -1000, "trial_type": "single-audio", "word": "relish", "stimulus": "/static/audio/wordpool/RELISH.wav", "conditions": [12, 1600, "a", 12000], "internal_node_id": "0.0-132.0", "trial": 4, "time_elapsed": 1460408, "serialpos": 8, "key_press": -1, "wordID": 1182, "type": "PRES_AUD", "trial_index": 177}, "uniqueid": "MTK3252:3G2UL9A02ELDCQ7BWM0UKB4JV4M671", "dateTime": 1520278839977}, {"current_trial": 178, "trialdata": {"rt": -1000, "trial_type": "single-audio", "word": "loft", "stimulus": "/static/audio/wordpool/LOFT.wav", "conditions": [12, 1600, "a", 12000], "internal_node_id": "0.0-133.0", "trial": 4, "time_elapsed": 1462838, "serialpos": 9, "key_press": -1, "wordID": 839, "type": "PRES_AUD", "trial_index": 178}, "uniqueid": "MTK3252:3G2UL9A02ELDCQ7BWM0UKB4JV4M671", "dateTime": 1520278842406}, {"current_trial": 179, "trialdata": {"rt": -1000, "trial_type": "single-audio", "word": "climber", "stimulus": "/static/audio/wordpool/CLIMBER.wav", "conditions": [12, 1600, "a", 12000], "internal_node_id": "0.0-134.0", "trial": 4, "time_elapsed": 1465471, "serialpos": 10, "key_press": -1, "wordID": 322, "type": "PRES_AUD", "trial_index": 179}, "uniqueid": "MTK3252:3G2UL9A02ELDCQ7BWM0UKB4JV4M671", "dateTime": 1520278845039}, {"current_trial": 180, "trialdata": {"rt": -1000, "trial_type": "single-audio", "word": "dragon", "stimulus": "/static/audio/wordpool/DRAGON.wav", "conditions": [12, 1600, "a", 12000], "internal_node_id": "0.0-135.0", "trial": 4, "time_elapsed": 1468097, "serialpos": 11, "key_press": -1, "wordID": 491, "type": "PRES_AUD", "trial_index": 180}, "uniqueid": "MTK3252:3G2UL9A02ELDCQ7BWM0UKB4JV4M671", "dateTime": 1520278847665}, {"current_trial": 181, "trialdata": {"rt": -1, "trial_type": "single-stim", "stimulus": "", "internal_node_id": "0.0-136.0-0.0", "time_elapsed": 1469417, "key_press": -1, "type": "PRE_RECALL_DELAY", "trial_index": 181}, "uniqueid": "MTK3252:3G2UL9A02ELDCQ7BWM0UKB4JV4M671", "dateTime": 1520278848985}, {"current_trial": 182, "trialdata": {"rt": -1000, "trial_type": "single-audio", "stimulus": "/static/audio/400Hz.wav", "internal_node_id": "0.0-137.0", "time_elapsed": 1469919, "key_press": -1, "type": "PRE_RECALL_ALERT", "trial_index": 182}, "uniqueid": "MTK3252:3G2UL9A02ELDCQ7BWM0UKB4JV4M671", "dateTime": 1520278849487}, {"current_trial": 183, "trialdata": {"rt": [4917, 7777, 9943, 12523, 15935, 18985, 21942, 23035, 24806, 27319, 30793, 33394], "recwords": ["goblin", "blueprint", "lady", "bunny", "pengin", "bucket", "penny", "poet", "relish", "loft", "climber", "dragon"], "key_times": [2575, 2867, 3006, 3135, 3397, 4595, 4917, 5498, 5634, 5906, 6077, 6467, 6577, 6690, 7093, 7558, 7777, 9273, 9380, 9518, 9838, 9943, 11198, 11392, 11587, 11744, 11893, 12523, 13144, 13329, 13559, 13847, 14282, 14439, 15935, 17498, 17701, 18140, 18285, 18628, 18790, 18985, 19663, 19922, 20226, 20387, 20575, 21942, 22335, 22527, 22761, 22883, 23035, 23704, 23817, 24014, 24292, 24413, 24558, 24806, 26466, 26681, 27002, 27195, 27319, 29173, 29623, 29847, 30147, 30352, 30514, 30604, 30793, 32228, 32485, 32667, 32875, 33045, 33199, 33394], "trial_type": "free-recall", "conditions": [12, 1600, "a", 12000], "internal_node_id": "0.0-138.0-0.0", "key_presses": [71, 79, 66, 76, 73, 78, 13, 66, 76, 85, 69, 80, 82, 73, 78, 84, 13, 76, 65, 68, 89, 13, 66, 85, 78, 78, 89, 13, 80, 69, 78, 71, 73, 78, 13, 66, 85, 67, 75, 69, 84, 13, 80, 69, 78, 78, 89, 13, 80, 79, 69, 84, 13, 82, 69, 76, 73, 83, 72, 13, 76, 79, 70, 84, 13, 67, 76, 73, 77, 66, 69, 82, 13, 68, 82, 65, 71, 79, 78, 13], "trial": 4, "time_elapsed": 1529924, "type": "FREE_RECALL", "trial_index": 183}, "uniqueid": "MTK3252:3G2UL9A02ELDCQ7BWM0UKB4JV4M671", "dateTime": 1520278909497}, {"current_trial": 184, "trialdata": {"rt": 3521, "trial_type": "text", "internal_node_id": "0.0-139.0", "time_elapsed": 1535452, "key_press": 13, "type": "INSTRUCTIONS", "trial_index": 184}, "uniqueid": "MTK3252:3G2UL9A02ELDCQ7BWM0UKB4JV4M671", "dateTime": 1520278915020}, {"current_trial": 185, "trialdata": {"rt": [1456, 5099, 10143], "trial_type": "math-distractor", "key_times": [1183, 1332, 1456, 4802, 4955, 5099, 9328, 9732, 10143], "responses": ["11", "22", "20"], "num2": [5, 7, 6, 3], "num3": [5, 7, 7, 7], "conditions": [24, 800, "a", 12000], "internal_node_id": "0.0-140.0", "key_presses": [49, 49, 13, 50, 50, 13, 50, 48, 13], "trial": 5, "time_elapsed": 1549455, "type": "DISTRACTOR", "trial_index": 185, "num1": [1, 8, 7, 8]}, "uniqueid": "MTK3252:3G2UL9A02ELDCQ7BWM0UKB4JV4M671", "dateTime": 1520278929023}, {"current_trial": 186, "trialdata": {"rt": -1, "trial_type": "single-stim", "stimulus": "<p id=\"stim\">10</p>", "internal_node_id": "0.0-141.0-0.0", "time_elapsed": 1552459, "key_press": -1, "trial_index": 186}, "uniqueid": "MTK3252:3G2UL9A02ELDCQ7BWM0UKB4JV4M671", "dateTime": 1520278932027}, {"current_trial": 187, "trialdata": {"rt": -1, "trial_type": "single-stim", "stimulus": "<p id=\"stim\">9</p>", "internal_node_id": "0.0-141.0-1.0", "time_elapsed": 1553460, "key_press": -1, "trial_index": 187}, "uniqueid": "MTK3252:3G2UL9A02ELDCQ7BWM0UKB4JV4M671", "dateTime": 1520278933028}, {"current_trial": 188, "trialdata": {"rt": -1, "trial_type": "single-stim", "stimulus": "<p id=\"stim\">8</p>", "internal_node_id": "0.0-141.0-2.0", "time_elapsed": 1554462, "key_press": -1, "trial_index": 188}, "uniqueid": "MTK3252:3G2UL9A02ELDCQ7BWM0UKB4JV4M671", "dateTime": 1520278934030}, {"current_trial": 189, "trialdata": {"rt": -1, "trial_type": "single-stim", "stimulus": "<p id=\"stim\">7</p>", "internal_node_id": "0.0-141.0-3.0", "time_elapsed": 1555464, "key_press": -1, "trial_index": 189}, "uniqueid": "MTK3252:3G2UL9A02ELDCQ7BWM0UKB4JV4M671", "dateTime": 1520278935032}, {"current_trial": 190, "trialdata": {"rt": -1, "trial_type": "single-stim", "stimulus": "<p id=\"stim\">6</p>", "internal_node_id": "0.0-141.0-4.0", "time_elapsed": 1556465, "key_press": -1, "trial_index": 190}, "uniqueid": "MTK3252:3G2UL9A02ELDCQ7BWM0UKB4JV4M671", "dateTime": 1520278936033}, {"current_trial": 191, "trialdata": {"rt": -1, "trial_type": "single-stim", "stimulus": "<p id=\"stim\">5</p>", "internal_node_id": "0.0-141.0-5.0", "time_elapsed": 1557469, "key_press": -1, "trial_index": 191}, "uniqueid": "MTK3252:3G2UL9A02ELDCQ7BWM0UKB4JV4M671", "dateTime": 1520278937037}, {"current_trial": 192, "trialdata": {"rt": -1, "trial_type": "single-stim", "stimulus": "<p id=\"stim\">4</p>", "internal_node_id": "0.0-141.0-6.0", "time_elapsed": 1558470, "key_press": -1, "trial_index": 192}, "uniqueid": "MTK3252:3G2UL9A02ELDCQ7BWM0UKB4JV4M671", "dateTime": 1520278938039}, {"current_trial": 193, "trialdata": {"rt": -1, "trial_type": "single-stim", "stimulus": "<p id=\"stim\">3</p>", "internal_node_id": "0.0-141.0-7.0", "time_elapsed": 1559472, "key_press": -1, "trial_index": 193}, "uniqueid": "MTK3252:3G2UL9A02ELDCQ7BWM0UKB4JV4M671", "dateTime": 1520278939040}, {"current_trial": 194, "trialdata": {"rt": -1, "trial_type": "single-stim", "stimulus": "<p id=\"stim\">2</p>", "internal_node_id": "0.0-141.0-8.0", "time_elapsed": 1560474, "key_press": -1, "trial_index": 194}, "uniqueid": "MTK3252:3G2UL9A02ELDCQ7BWM0UKB4JV4M671", "dateTime": 1520278940042}, {"current_trial": 195, "trialdata": {"rt": -1, "trial_type": "single-stim", "stimulus": "<p id=\"stim\">1</p>", "internal_node_id": "0.0-141.0-9.0", "time_elapsed": 1561477, "key_press": -1, "trial_index": 195}, "uniqueid": "MTK3252:3G2UL9A02ELDCQ7BWM0UKB4JV4M671", "dateTime": 1520278941046}, {"current_trial": 196, "trialdata": {"rt": -1, "trial_type": "single-stim", "stimulus": "<p id=\"stim\">+</p>", "internal_node_id": "0.0-142.0-0.0", "time_elapsed": 1562980, "key_press": -1, "type": "FIXATION", "trial_index": 196}, "uniqueid": "MTK3252:3G2UL9A02ELDCQ7BWM0UKB4JV4M671", "dateTime": 1520278942548}, {"current_trial": 197, "trialdata": {"rt": -1000, "trial_type": "single-audio", "word": "pigment", "stimulus": "/static/audio/wordpool/PIGMENT.wav", "conditions": [24, 800, "a", 12000], "internal_node_id": "0.0-143.0", "trial": 5, "time_elapsed": 1564781, "serialpos": 0, "key_press": -1, "wordID": 1065, "type": "PRES_AUD", "trial_index": 197}, "uniqueid": "MTK3252:3G2UL9A02ELDCQ7BWM0UKB4JV4M671", "dateTime": 1520278944350}, {"current_trial": 198, "trialdata": {"rt": -1000, "trial_type": "single-audio", "word": "pizza", "stimulus": "/static/audio/wordpool/PIZZA.wav", "conditions": [24, 800, "a", 12000], "internal_node_id": "0.0-144.0", "trial": 5, "time_elapsed": 1566518, "serialpos": 1, "key_press": -1, "wordID": 1078, "type": "PRES_AUD", "trial_index": 198}, "uniqueid": "MTK3252:3G2UL9A02ELDCQ7BWM0UKB4JV4M671", "dateTime": 1520278946086}, {"current_trial": 199, "trialdata": {"rt": -1000, "trial_type": "single-audio", "word": "turnip", "stimulus": "/static/audio/wordpool/TURNIP.wav", "conditions": [24, 800, "a", 12000], "internal_node_id": "0.0-145.0", "trial": 5, "time_elapsed": 1568252, "serialpos": 2, "key_press": -1, "wordID": 1520, "type": "PRES_AUD", "trial_index": 199}, "uniqueid": "MTK3252:3G2UL9A02ELDCQ7BWM0UKB4JV4M671", "dateTime": 1520278947820}, {"current_trial": 200, "trialdata": {"rt": -1000, "trial_type": "single-audio", "word": "cookbook", "stimulus": "/static/audio/wordpool/COOKBOOK.wav", "conditions": [24, 800, "a", 12000], "internal_node_id": "0.0-146.0", "trial": 5, "time_elapsed": 1569946, "serialpos": 3, "key_press": -1, "wordID": 372, "type": "PRES_AUD", "trial_index": 200}, "uniqueid": "MTK3252:3G2UL9A02ELDCQ7BWM0UKB4JV4M671", "dateTime": 1520278949514}, {"current_trial": 201, "trialdata": {"rt": -1000, "trial_type": "single-audio", "word": "pistol", "stimulus": "/static/audio/wordpool/PISTOL.wav", "conditions": [24, 800, "a", 12000], "internal_node_id": "0.0-147.0", "trial": 5, "time_elapsed": 1571887, "serialpos": 4, "key_press": -1, "wordID": 1074, "type": "PRES_AUD", "trial_index": 201}, "uniqueid": "MTK3252:3G2UL9A02ELDCQ7BWM0UKB4JV4M671", "dateTime": 1520278951455}, {"current_trial": 202, "trialdata": {"rt": -1000, "trial_type": "single-audio", "word": "perfume", "stimulus": "/static/audio/wordpool/PERFUME.wav", "conditions": [24, 800, "a", 12000], "internal_node_id": "0.0-148.0", "trial": 5, "time_elapsed": 1573828, "serialpos": 5, "key_press": -1, "wordID": 1048, "type": "PRES_AUD", "trial_index": 202}, "uniqueid": "MTK3252:3G2UL9A02ELDCQ7BWM0UKB4JV4M671", "dateTime": 1520278953396}, {"current_trial": 203, "trialdata": {"rt": -1000, "trial_type": "single-audio", "word": "luggage", "stimulus": "/static/audio/wordpool/LUGGAGE.wav", "conditions": [24, 800, "a", 12000], "internal_node_id": "0.0-149.0", "trial": 5, "time_elapsed": 1575446, "serialpos": 6, "key_press": -1, "wordID": 846, "type": "PRES_AUD", "trial_index": 203}, "uniqueid": "MTK3252:3G2UL9A02ELDCQ7BWM0UKB4JV4M671", "dateTime": 1520278955014}, {"current_trial": 204, "trialdata": {"rt": -1000, "trial_type": "single-audio", "word": "infant", "stimulus": "/static/audio/wordpool/INFANT.wav", "conditions": [24, 800, "a", 12000], "internal_node_id": "0.0-150.0", "trial": 5, "time_elapsed": 1577202, "serialpos": 7, "key_press": -1, "wordID": 736, "type": "PRES_AUD", "trial_index": 204}, "uniqueid": "MTK3252:3G2UL9A02ELDCQ7BWM0UKB4JV4M671", "dateTime": 1520278956770}, {"current_trial": 205, "trialdata": {"rt": -1000, "trial_type": "single-audio", "word": "crib", "stimulus": "/static/audio/wordpool/CRIB.wav", "conditions": [24, 800, "a", 12000], "internal_node_id": "0.0-151.0", "trial": 5, "time_elapsed": 1578834, "serialpos": 8, "key_press": -1, "wordID": 406, "type": "PRES_AUD", "trial_index": 205}, "uniqueid": "MTK3252:3G2UL9A02ELDCQ7BWM0UKB4JV4M671", "dateTime": 1520278958403}, {"current_trial": 206, "trialdata": {"rt": -1000, "trial_type": "single-audio", "word": "fragrance", "stimulus": "/static/audio/wordpool/FRAGRANCE.wav", "conditions": [24, 800, "a", 12000], "internal_node_id": "0.0-152.0", "trial": 5, "time_elapsed": 1580714, "serialpos": 9, "key_press": -1, "wordID": 598, "type": "PRES_AUD", "trial_index": 206}, "uniqueid": "MTK3252:3G2UL9A02ELDCQ7BWM0UKB4JV4M671", "dateTime": 1520278960282}, {"current_trial": 207, "trialdata": {"rt": -1000, "trial_type": "single-audio", "word": "pliers", "stimulus": "/static/audio/wordpool/PLIERS.wav", "conditions": [24, 800, "a", 12000], "internal_node_id": "0.0-153.0", "trial": 5, "time_elapsed": 1582340, "serialpos": 10, "key_press": -1, "wordID": 1088, "type": "PRES_AUD", "trial_index": 207}, "uniqueid": "MTK3252:3G2UL9A02ELDCQ7BWM0UKB4JV4M671", "dateTime": 1520278961909}, {"current_trial": 208, "trialdata": {"rt": -1000, "trial_type": "single-audio", "word": "hawk", "stimulus": "/static/audio/wordpool/HAWK.wav", "conditions": [24, 800, "a", 12000], "internal_node_id": "0.0-154.0", "trial": 5, "time_elapsed": 1584133, "serialpos": 11, "key_press": -1, "wordID": 691, "type": "PRES_AUD", "trial_index": 208}, "uniqueid": "MTK3252:3G2UL9A02ELDCQ7BWM0UKB4JV4M671", "dateTime": 1520278963701}, {"current_trial": 209, "trialdata": {"rt": -1000, "trial_type": "single-audio", "word": "waitress", "stimulus": "/static/audio/wordpool/WAITRESS.wav", "conditions": [24, 800, "a", 12000], "internal_node_id": "0.0-155.0", "trial": 5, "time_elapsed": 1585958, "serialpos": 12, "key_press": -1, "wordID": 1580, "type": "PRES_AUD", "trial_index": 209}, "uniqueid": "MTK3252:3G2UL9A02ELDCQ7BWM0UKB4JV4M671", "dateTime": 1520278965526}, {"current_trial": 210, "trialdata": {"rt": -1000, "trial_type": "single-audio", "word": "brother", "stimulus": "/static/audio/wordpool/BROTHER.wav", "conditions": [24, 800, "a", 12000], "internal_node_id": "0.0-156.0", "trial": 5, "time_elapsed": 1587658, "serialpos": 13, "key_press": -1, "wordID": 178, "type": "PRES_AUD", "trial_index": 210}, "uniqueid": "MTK3252:3G2UL9A02ELDCQ7BWM0UKB4JV4M671", "dateTime": 1520278967226}, {"current_trial": 211, "trialdata": {"rt": -1000, "trial_type": "single-audio", "word": "panther", "stimulus": "/static/audio/wordpool/PANTHER.wav", "conditions": [24, 800, "a", 12000], "internal_node_id": "0.0-157.0", "trial": 5, "time_elapsed": 1589323, "serialpos": 14, "key_press": -1, "wordID": 1008, "type": "PRES_AUD", "trial_index": 211}, "uniqueid": "MTK3252:3G2UL9A02ELDCQ7BWM0UKB4JV4M671", "dateTime": 1520278968891}, {"current_trial": 212, "trialdata": {"rt": -1000, "trial_type": "single-audio", "word": "lace", "stimulus": "/static/audio/wordpool/LACE.wav", "conditions": [24, 800, "a", 12000], "internal_node_id": "0.0-158.0", "trial": 5, "time_elapsed": 1591178, "serialpos": 15, "key_press": -1, "wordID": 791, "type": "PRES_AUD", "trial_index": 212}, "uniqueid": "MTK3252:3G2UL9A02ELDCQ7BWM0UKB4JV4M671", "dateTime": 1520278970746}, {"current_trial": 213, "trialdata": {"rt": -1000, "trial_type": "single-audio", "word": "silk", "stimulus": "/static/audio/wordpool/SILK.wav", "conditions": [24, 800, "a", 12000], "internal_node_id": "0.0-159.0", "trial": 5, "time_elapsed": 1592948, "serialpos": 16, "key_press": -1, "wordID": 1306, "type": "PRES_AUD", "trial_index": 213}, "uniqueid": "MTK3252:3G2UL9A02ELDCQ7BWM0UKB4JV4M671", "dateTime": 1520278972517}, {"current_trial": 214, "trialdata": {"rt": -1000, "trial_type": "single-audio", "word": "star", "stimulus": "/static/audio/wordpool/STAR.wav", "conditions": [24, 800, "a", 12000], "internal_node_id": "0.0-160.0", "trial": 5, "time_elapsed": 1594627, "serialpos": 17, "key_press": -1, "wordID": 1372, "type": "PRES_AUD", "trial_index": 214}, "uniqueid": "MTK3252:3G2UL9A02ELDCQ7BWM0UKB4JV4M671", "dateTime": 1520278974195}, {"current_trial": 215, "trialdata": {"rt": -1000, "trial_type": "single-audio", "word": "blouse", "stimulus": "/static/audio/wordpool/BLOUSE.wav", "conditions": [24, 800, "a", 12000], "internal_node_id": "0.0-161.0", "trial": 5, "time_elapsed": 1596612, "serialpos": 18, "key_press": -1, "wordID": 138, "type": "PRES_AUD", "trial_index": 215}, "uniqueid": "MTK3252:3G2UL9A02ELDCQ7BWM0UKB4JV4M671", "dateTime": 1520278976180}, {"current_trial": 216, "trialdata": {"rt": -1000, "trial_type": "single-audio", "word": "wrist", "stimulus": "/static/audio/wordpool/WRIST.wav", "conditions": [24, 800, "a", 12000], "internal_node_id": "0.0-162.0", "trial": 5, "time_elapsed": 1598543, "serialpos": 19, "key_press": -1, "wordID": 1625, "type": "PRES_AUD", "trial_index": 216}, "uniqueid": "MTK3252:3G2UL9A02ELDCQ7BWM0UKB4JV4M671", "dateTime": 1520278978112}, {"current_trial": 217, "trialdata": {"rt": -1000, "trial_type": "single-audio", "word": "slide", "stimulus": "/static/audio/wordpool/SLIDE.wav", "conditions": [24, 800, "a", 12000], "internal_node_id": "0.0-163.0", "trial": 5, "time_elapsed": 1600431, "serialpos": 20, "key_press": -1, "wordID": 1325, "type": "PRES_AUD", "trial_index": 217}, "uniqueid": "MTK3252:3G2UL9A02ELDCQ7BWM0UKB4JV4M671", "dateTime": 1520278980000}, {"current_trial": 218, "trialdata": {"rt": -1000, "trial_type": "single-audio", "word": "lizard", "stimulus": "/static/audio/wordpool/LIZARD.wav", "conditions": [24, 800, "a", 12000], "internal_node_id": "0.0-164.0", "trial": 5, "time_elapsed": 1602414, "serialpos": 21, "key_press": -1, "wordID": 833, "type": "PRES_AUD", "trial_index": 218}, "uniqueid": "MTK3252:3G2UL9A02ELDCQ7BWM0UKB4JV4M671", "dateTime": 1520278981982}, {"current_trial": 219, "trialdata": {"rt": -1000, "trial_type": "single-audio", "word": "mister", "stimulus": "/static/audio/wordpool/MISTER.wav", "conditions": [24, 800, "a", 12000], "internal_node_id": "0.0-165.0", "trial": 5, "time_elapsed": 1604268, "serialpos": 22, "key_press": -1, "wordID": 900, "type": "PRES_AUD", "trial_index": 219}, "uniqueid": "MTK3252:3G2UL9A02ELDCQ7BWM0UKB4JV4M671", "dateTime": 1520278983836}, {"current_trial": 220, "trialdata": {"rt": -1000, "trial_type": "single-audio", "word": "leader", "stimulus": "/static/audio/wordpool/LEADER.wav", "conditions": [24, 800, "a", 12000], "internal_node_id": "0.0-166.0", "trial": 5, "time_elapsed": 1605920, "serialpos": 23, "key_press": -1, "wordID": 806, "type": "PRES_AUD", "trial_index": 220}, "uniqueid": "MTK3252:3G2UL9A02ELDCQ7BWM0UKB4JV4M671", "dateTime": 1520278985488}, {"current_trial": 221, "trialdata": {"rt": -1, "trial_type": "single-stim", "stimulus": "", "internal_node_id": "0.0-167.0-0.0", "time_elapsed": 1607165, "key_press": -1, "type": "PRE_RECALL_DELAY", "trial_index": 221}, "uniqueid": "MTK3252:3G2UL9A02ELDCQ7BWM0UKB4JV4M671", "dateTime": 1520278986733}, {"current_trial": 222, "trialdata": {"rt": -1000, "trial_type": "single-audio", "stimulus": "/static/audio/400Hz.wav", "internal_node_id": "0.0-168.0", "time_elapsed": 1607667, "key_press": -1, "type": "PRE_RECALL_ALERT", "trial_index": 222}, "uniqueid": "MTK3252:3G2UL9A02ELDCQ7BWM0UKB4JV4M671", "dateTime": 1520278987235}, {"current_trial": 223, "trialdata": {"rt": [5248, 6793, 10636, 12981, 16401, 19421, 23735, 27932, 32835, 35926, 38641, 39871, 42316, 47238, 50689, 53363, 55775], "recwords": ["pigment", "pizza", "turnip", "cookbook", "pistol", "luggage", "perfume", "fragrance", "waitress", "panther", "lace", "silk", "star", "blouse", "wrist", "mister", "leader"], "key_times": [2707, 2904, 3370, 3597, 3793, 3879, 4041, 5248, 5737, 5954, 6328, 6473, 6641, 6793, 8599, 8770, 8922, 9177, 9343, 9622, 10636, 11215, 11517, 11656, 11841, 12136, 12432, 12578, 12765, 12981, 15033, 15235, 15539, 15914, 16017, 16223, 16401, 17898, 18189, 18477, 18651, 18756, 19045, 19103, 19421, 21135, 21287, 21490, 21770, 21921, 22226, 22446, 23735, 24179, 24325, 24575, 24954, 25754, 26071, 26252, 26987, 27091, 27932, 28888, 29002, 29182, 29412, 29874, 30210, 30483, 31016, 31165, 31940, 32144, 32647, 32835, 34551, 34726, 34869, 35329, 35429, 35555, 35663, 35926, 37773, 37918, 38184, 38329, 38641, 39059, 39252, 39484, 39692, 39871, 41302, 41779, 41864, 42042, 42316, 43937, 44062, 44259, 44762, 44903, 45780, 45916, 46493, 46873, 46940, 47238, 48964, 49232, 49386, 49518, 50316, 50689, 52289, 52475, 52636, 52940, 53049, 53172, 53363, 54800, 54909, 55035, 55181, 55502, 55621, 55775], "trial_type": "free-recall", "conditions": [24, 800, "a", 12000], "internal_node_id": "0.0-169.0-0.0", "key_presses": [80, 73, 71, 77, 69, 78, 84, 13, 80, 73, 90, 90, 65, 13, 84, 85, 82, 78, 73, 80, 13, 67, 79, 79, 75, 66, 79, 79, 75, 13, 80, 73, 83, 84, 79, 76, 13, 76, 85, 71, 71, 65, 71, 69, 13, 80, 69, 82, 70, 85, 77, 69, 13, 70, 82, 65, 71, 82, 65, 78, 67, 69, 13, 87, 65, 73, 84, 82, 83, 83, 8, 8, 69, 83, 83, 13, 80, 65, 78, 84, 72, 69, 82, 13, 76, 65, 67, 69, 13, 83, 73, 76, 75, 13, 83, 84, 65, 82, 13, 66, 76, 79, 83, 69, 8, 8, 85, 83, 69, 13, 87, 82, 73, 83, 84, 13, 77, 73, 83, 84, 69, 82, 13, 76, 69, 65, 68, 69, 82, 13], "trial": 5, "time_elapsed": 1667670, "type": "FREE_RECALL", "trial_index": 223}, "uniqueid": "MTK3252:3G2UL9A02ELDCQ7BWM0UKB4JV4M671", "dateTime": 1520279047245}, {"current_trial": 224, "trialdata": {"rt": 13554, "trial_type": "text", "internal_node_id": "0.0-170.0", "time_elapsed": 1683231, "key_press": 13, "type": "INSTRUCTIONS", "trial_index": 224}, "uniqueid": "MTK3252:3G2UL9A02ELDCQ7BWM0UKB4JV4M671", "dateTime": 1520279062799}, {"current_trial": 225, "trialdata": {"rt": [3615, 6348, 9501, 11342], "trial_type": "math-distractor", "key_times": [2414, 3374, 3615, 5752, 5932, 6348, 9335, 9501, 11168, 11342], "responses": ["16", "15", "7", "8"], "num2": [6, 5, 2, 4, 7], "num3": [1, 1, 2, 3, 3], "conditions": [12, 1600, "a", 12000], "internal_node_id": "0.0-171.0", "key_presses": [49, 54, 13, 49, 53, 13, 55, 13, 56, 13], "trial": 6, "time_elapsed": 1697236, "type": "DISTRACTOR", "trial_index": 225, "num1": [9, 9, 3, 1, 1]}, "uniqueid": "MTK3252:3G2UL9A02ELDCQ7BWM0UKB4JV4M671", "dateTime": 1520279076804}, {"current_trial": 226, "trialdata": {"rt": -1, "trial_type": "single-stim", "stimulus": "<p id=\"stim\">10</p>", "internal_node_id": "0.0-172.0-0.0", "time_elapsed": 1700240, "key_press": -1, "trial_index": 226}, "uniqueid": "MTK3252:3G2UL9A02ELDCQ7BWM0UKB4JV4M671", "dateTime": 1520279079808}, {"current_trial": 227, "trialdata": {"rt": -1, "trial_type": "single-stim", "stimulus": "<p id=\"stim\">9</p>", "internal_node_id": "0.0-172.0-1.0", "time_elapsed": 1701243, "key_press": -1, "trial_index": 227}, "uniqueid": "MTK3252:3G2UL9A02ELDCQ7BWM0UKB4JV4M671", "dateTime": 1520279080811}, {"current_trial": 228, "trialdata": {"rt": -1, "trial_type": "single-stim", "stimulus": "<p id=\"stim\">8</p>", "internal_node_id": "0.0-172.0-2.0", "time_elapsed": 1702244, "key_press": -1, "trial_index": 228}, "uniqueid": "MTK3252:3G2UL9A02ELDCQ7BWM0UKB4JV4M671", "dateTime": 1520279081812}, {"current_trial": 229, "trialdata": {"rt": -1, "trial_type": "single-stim", "stimulus": "<p id=\"stim\">7</p>", "internal_node_id": "0.0-172.0-3.0", "time_elapsed": 1703246, "key_press": -1, "trial_index": 229}, "uniqueid": "MTK3252:3G2UL9A02ELDCQ7BWM0UKB4JV4M671", "dateTime": 1520279082814}, {"current_trial": 230, "trialdata": {"rt": -1, "trial_type": "single-stim", "stimulus": "<p id=\"stim\">6</p>", "internal_node_id": "0.0-172.0-4.0", "time_elapsed": 1704248, "key_press": -1, "trial_index": 230}, "uniqueid": "MTK3252:3G2UL9A02ELDCQ7BWM0UKB4JV4M671", "dateTime": 1520279083816}, {"current_trial": 231, "trialdata": {"rt": -1, "trial_type": "single-stim", "stimulus": "<p id=\"stim\">5</p>", "internal_node_id": "0.0-172.0-5.0", "time_elapsed": 1705249, "key_press": -1, "trial_index": 231}, "uniqueid": "MTK3252:3G2UL9A02ELDCQ7BWM0UKB4JV4M671", "dateTime": 1520279084817}, {"current_trial": 232, "trialdata": {"rt": -1, "trial_type": "single-stim", "stimulus": "<p id=\"stim\">4</p>", "internal_node_id": "0.0-172.0-6.0", "time_elapsed": 1706252, "key_press": -1, "trial_index": 232}, "uniqueid": "MTK3252:3G2UL9A02ELDCQ7BWM0UKB4JV4M671", "dateTime": 1520279085821}, {"current_trial": 233, "trialdata": {"rt": -1, "trial_type": "single-stim", "stimulus": "<p id=\"stim\">3</p>", "internal_node_id": "0.0-172.0-7.0", "time_elapsed": 1707254, "key_press": -1, "trial_index": 233}, "uniqueid": "MTK3252:3G2UL9A02ELDCQ7BWM0UKB4JV4M671", "dateTime": 1520279086822}, {"current_trial": 234, "trialdata": {"rt": -1, "trial_type": "single-stim", "stimulus": "<p id=\"stim\">2</p>", "internal_node_id": "0.0-172.0-8.0", "time_elapsed": 1708257, "key_press": -1, "trial_index": 234}, "uniqueid": "MTK3252:3G2UL9A02ELDCQ7BWM0UKB4JV4M671", "dateTime": 1520279087825}, {"current_trial": 235, "trialdata": {"rt": -1, "trial_type": "single-stim", "stimulus": "<p id=\"stim\">1</p>", "internal_node_id": "0.0-172.0-9.0", "time_elapsed": 1709259, "key_press": -1, "trial_index": 235}, "uniqueid": "MTK3252:3G2UL9A02ELDCQ7BWM0UKB4JV4M671", "dateTime": 1520279088828}, {"current_trial": 236, "trialdata": {"rt": -1, "trial_type": "single-stim", "stimulus": "<p id=\"stim\">+</p>", "internal_node_id": "0.0-173.0-0.0", "time_elapsed": 1710761, "key_press": -1, "type": "FIXATION", "trial_index": 236}, "uniqueid": "MTK3252:3G2UL9A02ELDCQ7BWM0UKB4JV4M671", "dateTime": 1520279090329}, {"current_trial": 237, "trialdata": {"rt": -1000, "trial_type": "single-audio", "word": "lettuce", "stimulus": "/static/audio/wordpool/LETTUCE.wav", "conditions": [12, 1600, "a", 12000], "internal_node_id": "0.0-174.0", "trial": 6, "time_elapsed": 1713214, "serialpos": 0, "key_press": -1, "wordID": 813, "type": "PRES_AUD", "trial_index": 237}, "uniqueid": "MTK3252:3G2UL9A02ELDCQ7BWM0UKB4JV4M671", "dateTime": 1520279092782}, {"current_trial": 238, "trialdata": {"rt": -1000, "trial_type": "single-audio", "word": "piano", "stimulus": "/static/audio/wordpool/PIANO.wav", "conditions": [12, 1600, "a", 12000], "internal_node_id": "0.0-175.0", "trial": 6, "time_elapsed": 1715775, "serialpos": 1, "k