{"assignmentId": "3QILPRALQ62PJPIM58EH0MM010NN8T", "workerId": "MTK3649", "questiondata": {"origin": "United States", "strat-rehearsal": "80", "marital": "Single", "education": "Bachelor's degree", "ethnicity": "Not Hispanic", "color_depth": 24, "distracted": "No", "wrote-notes": "No", "strat-other": "", "screen_width": 1366, "avail_screen_width": 1366, "avail_screen_height": 738, "strat-image": "10", "language": "English", "gender": "Female", "age": "28", "gender_other": "", "race": ["White"], "strat-categorize": "80", "pixel_depth": 24, "strat-spatial": "40", "strat-story": "30", "race_other": "", "screen_height": 768}, "bonus": 0, "hitId": "3BO3NEOQM0O91S2GFOG12L0UKBOIAJ", "counterbalance": 1353, "useragent": "Mozilla/5.0 (Windows NT 10.0; Win64; x64) AppleWebKit/537.36 (KHTML, like Gecko) Chrome/64.0.3282.168 Safari/537.36", "eventdata": [{"eventtype": "initialized", "interval": 0, "value": null, "timestamp": 1520876771262}, {"eventtype": "window_resize", "interval": 0, "value": [1362, 713], "timestamp": 1520876771262}, {"eventtype": "focus", "interval": 1317, "value": "off", "timestamp": 1520876772579}, {"eventtype": "focus", "interval": 1048, "value": "on", "timestamp": 1520876773627}, {"eventtype": "window_resize", "interval": 20187, "value": [1366, 768], "timestamp": 1520876793814}, {"eventtype": "focus", "interval": 1501489, "value": "off", "timestamp": 1520878295303}, {"eventtype": "window_resize", "interval": 224, "value": [1366, 767], "timestamp": 1520878295527}, {"eventtype": "focus", "interval": 128386, "value": "on", "timestamp": 1520878423913}, {"eventtype": "window_resize", "interval": 230, "value": [1366, 768], "timestamp": 1520878424143}, {"eventtype": "focus", "interval": 405000, "value": "off", "timestamp": 1520878829143}, {"eventtype": "window_resize", "interval": 350, "value": [1366, 767], "timestamp": 1520878829493}, {"eventtype": "focus", "interval": 2008, "value": "on", "timestamp": 1520878831501}, {"eventtype": "window_resize", "interval": 231, "value": [1366, 768], "timestamp": 1520878831732}, {"eventtype": "focus", "interval": 498838, "value": "off", "timestamp": 1520879330570}, {"eventtype": "window_resize", "interval": 346, "value": [1366, 767], "timestamp": 1520879330916}, {"eventtype": "focus", "interval": 1136, "value": "on", "timestamp": 1520879332052}, {"eventtype": "window_resize", "interval": 235, "value": [1366, 768], "timestamp": 1520879332287}], "data": [{"current_trial": 0, "trialdata": {"rt": 6196, "trial_type": "text", "internal_node_id": "0.0-0.0", "time_elapsed": 6201, "key_press": 20, "type": "INSTRUCTIONS", "trial_index": 0}, "uniqueid": "MTK3649:3QILPRALQ62PJPIM58EH0MM010NN8T", "dateTime": 1520876778798}, {"current_trial": 1, "trialdata": {"rt": 7501, "trial_type": "text", "internal_node_id": "0.0-1.0", "time_elapsed": 13703, "key_press": 121, "type": "INSTRUCTIONS", "trial_index": 1}, "uniqueid": "MTK3649:3QILPRALQ62PJPIM58EH0MM010NN8T", "dateTime": 1520876786300}, {"current_trial": 2, "trialdata": {"rt": [27225], "trial_type": "audio-test", "responses": ["ocean"], "internal_node_id": "0.0-2.0", "time_elapsed": 40965, "type": "AUDIO_TEST", "trial_index": 2}, "uniqueid": "MTK3649:3QILPRALQ62PJPIM58EH0MM010NN8T", "dateTime": 1520876813562}, {"current_trial": 3, "trialdata": {"rt": [8566], "trial_type": "audio-test", "responses": ["crystal"], "internal_node_id": "0.0-3.0", "time_elapsed": 49535, "type": "AUDIO_TEST", "trial_index": 3}, "uniqueid": "MTK3649:3QILPRALQ62PJPIM58EH0MM010NN8T", "dateTime": 1520876822132}, {"current_trial": 4, "trialdata": {"rt": [6099], "trial_type": "audio-test", "responses": ["spice"], "internal_node_id": "0.0-4.0", "time_elapsed": 55637, "type": "AUDIO_TEST", "trial_index": 4}, "uniqueid": "MTK3649:3QILPRALQ62PJPIM58EH0MM010NN8T", "dateTime": 1520876828234}, {"current_trial": 5, "trialdata": {"rt": 36768, "trial_type": "survey-text", "responses": "{\"Q0\":\"10:30 PM\",\"Q1\":\"5:30 AM\",\"Q2\":\"5\"}", "internal_node_id": "0.0-5.0", "time_elapsed": 93159, "type": "SLEEP_SURVEY", "trial_index": 5}, "uniqueid": "MTK3649:3QILPRALQ62PJPIM58EH0MM010NN8T", "dateTime": 1520876865757}, {"current_trial": 6, "trialdata": {"rt": 43577, "trial_type": "text", "internal_node_id": "0.0-6.0", "time_elapsed": 137741, "key_press": 70, "type": "INSTRUCTIONS", "trial_index": 6}, "uniqueid": "MTK3649:3QILPRALQ62PJPIM58EH0MM010NN8T", "dateTime": 1520876910338}, {"current_trial": 7, "trialdata": {"rt": 15593, "trial_type": "text", "internal_node_id": "0.0-7.0", "time_elapsed": 153835, "key_press": 70, "type": "INSTRUCTIONS", "trial_index": 7}, "uniqueid": "MTK3649:3QILPRALQ62PJPIM58EH0MM010NN8T", "dateTime": 1520876926432}, {"current_trial": 8, "trialdata": {"rt": 6660, "trial_type": "text", "internal_node_id": "0.0-8.0", "time_elapsed": 161001, "key_press": 70, "type": "INSTRUCTIONS", "trial_index": 8}, "uniqueid": "MTK3649:3QILPRALQ62PJPIM58EH0MM010NN8T", "dateTime": 1520876933598}, {"current_trial": 9, "trialdata": {"rt": [4113, 7276, 9616, 16486], "trial_type": "math-distractor", "key_times": [3460, 3602, 4113, 5927, 6053, 6145, 6789, 7276, 8985, 9253, 9616, 14997, 15344, 16486], "responses": ["15", "11", "13", "22"], "num2": [1, 1, 4, 9, 5], "num3": [5, 3, 1, 7, 5], "conditions": [18, 1200, "v", 18000], "internal_node_id": "0.0-9.0", "key_presses": [49, 53, 13, 49, 49, 49, 8, 13, 49, 51, 13, 50, 50, 13], "trial": 0, "time_elapsed": 180008, "type": "DISTRACTOR", "trial_index": 9, "num1": [9, 7, 8, 6, 1]}, "uniqueid": "MTK3649:3QILPRALQ62PJPIM58EH0MM010NN8T", "dateTime": 1520876952605}, {"current_trial": 10, "trialdata": {"rt": -1, "trial_type": "single-stim", "stimulus": "<p id=\"stim\">10</p>", "internal_node_id": "0.0-10.0-0.0", "time_elapsed": 183013, "key_press": -1, "trial_index": 10}, "uniqueid": "MTK3649:3QILPRALQ62PJPIM58EH0MM010NN8T", "dateTime": 1520876955610}, {"current_trial": 11, "trialdata": {"rt": -1, "trial_type": "single-stim", "stimulus": "<p id=\"stim\">9</p>", "internal_node_id": "0.0-10.0-1.0", "time_elapsed": 184015, "key_press": -1, "trial_index": 11}, "uniqueid": "MTK3649:3QILPRALQ62PJPIM58EH0MM010NN8T", "dateTime": 1520876956612}, {"current_trial": 12, "trialdata": {"rt": -1, "trial_type": "single-stim", "stimulus": "<p id=\"stim\">8</p>", "internal_node_id": "0.0-10.0-2.0", "time_elapsed": 185018, "key_press": -1, "trial_index": 12}, "uniqueid": "MTK3649:3QILPRALQ62PJPIM58EH0MM010NN8T", "dateTime": 1520876957616}, {"current_trial": 13, "trialdata": {"rt": -1, "trial_type": "single-stim", "stimulus": "<p id=\"stim\">7</p>", "internal_node_id": "0.0-10.0-3.0", "time_elapsed": 186021, "key_press": -1, "trial_index": 13}, "uniqueid": "MTK3649:3QILPRALQ62PJPIM58EH0MM010NN8T", "dateTime": 1520876958618}, {"current_trial": 14, "trialdata": {"rt": -1, "trial_type": "single-stim", "stimulus": "<p id=\"stim\">6</p>", "internal_node_id": "0.0-10.0-4.0", "time_elapsed": 187023, "key_press": -1, "trial_index": 14}, "uniqueid": "MTK3649:3QILPRALQ62PJPIM58EH0MM010NN8T", "dateTime": 1520876959620}, {"current_trial": 15, "trialdata": {"rt": -1, "trial_type": "single-stim", "stimulus": "<p id=\"stim\">5</p>", "internal_node_id": "0.0-10.0-5.0", "time_elapsed": 188025, "key_press": -1, "trial_index": 15}, "uniqueid": "MTK3649:3QILPRALQ62PJPIM58EH0MM010NN8T", "dateTime": 1520876960622}, {"current_trial": 16, "trialdata": {"rt": -1, "trial_type": "single-stim", "stimulus": "<p id=\"stim\">4</p>", "internal_node_id": "0.0-10.0-6.0", "time_elapsed": 189026, "key_press": -1, "trial_index": 16}, "uniqueid": "MTK3649:3QILPRALQ62PJPIM58EH0MM010NN8T", "dateTime": 1520876961623}, {"current_trial": 17, "trialdata": {"rt": -1, "trial_type": "single-stim", "stimulus": "<p id=\"stim\">3</p>", "internal_node_id": "0.0-10.0-7.0", "time_elapsed": 190030, "key_press": -1, "trial_index": 17}, "uniqueid": "MTK3649:3QILPRALQ62PJPIM58EH0MM010NN8T", "dateTime": 1520876962627}, {"current_trial": 18, "trialdata": {"rt": -1, "trial_type": "single-stim", "stimulus": "<p id=\"stim\">2</p>", "internal_node_id": "0.0-10.0-8.0", "time_elapsed": 191033, "key_press": -1, "trial_index": 18}, "uniqueid": "MTK3649:3QILPRALQ62PJPIM58EH0MM010NN8T", "dateTime": 1520876963630}, {"current_trial": 19, "trialdata": {"rt": -1, "trial_type": "single-stim", "stimulus": "<p id=\"stim\">1</p>", "internal_node_id": "0.0-10.0-9.0", "time_elapsed": 192036, "key_press": -1, "trial_index": 19}, "uniqueid": "MTK3649:3QILPRALQ62PJPIM58EH0MM010NN8T", "dateTime": 1520876964633}, {"current_trial": 20, "trialdata": {"rt": -1, "trial_type": "single-stim", "stimulus": "<p id=\"stim\">+</p>", "internal_node_id": "0.0-11.0-0.0", "time_elapsed": 193541, "key_press": -1, "type": "FIXATION", "trial_index": 20}, "uniqueid": "MTK3649:3QILPRALQ62PJPIM58EH0MM010NN8T", "dateTime": 1520876966138}, {"current_trial": 21, "trialdata": {"rt": -1, "trial_type": "single-stim", "word": "puddle", "stimulus": "<p id=\"stim\">PUDDLE</p>", "conditions": [18, 1200, "v", 18000], "internal_node_id": "0.0-12.0", "trial": 0, "time_elapsed": 194745, "serialpos": 0, "key_press": -1, "wordID": 1139, "type": "PRES_VIS", "trial_index": 21}, "uniqueid": "MTK3649:3QILPRALQ62PJPIM58EH0MM010NN8T", "dateTime": 1520876967342}, {"current_trial": 22, "trialdata": {"rt": -1, "trial_type": "single-stim", "word": "palace", "stimulus": "<p id=\"stim\">PALACE</p>", "conditions": [18, 1200, "v", 18000], "internal_node_id": "0.0-13.0", "trial": 0, "time_elapsed": 196954, "serialpos": 1, "key_press": -1, "wordID": 1005, "type": "PRES_VIS", "trial_index": 22}, "uniqueid": "MTK3649:3QILPRALQ62PJPIM58EH0MM010NN8T", "dateTime": 1520876969552}, {"current_trial": 23, "trialdata": {"rt": -1, "trial_type": "single-stim", "word": "seafood", "stimulus": "<p id=\"stim\">SEAFOOD</p>", "conditions": [18, 1200, "v", 18000], "internal_node_id": "0.0-14.0", "trial": 0, "time_elapsed": 199237, "serialpos": 2, "key_press": -1, "wordID": 1259, "type": "PRES_VIS", "trial_index": 23}, "uniqueid": "MTK3649:3QILPRALQ62PJPIM58EH0MM010NN8T", "dateTime": 1520876971834}, {"current_trial": 24, "trialdata": {"rt": -1, "trial_type": "single-stim", "word": "bunny", "stimulus": "<p id=\"stim\">BUNNY</p>", "conditions": [18, 1200, "v", 18000], "internal_node_id": "0.0-15.0", "trial": 0, "time_elapsed": 201625, "serialpos": 3, "key_press": -1, "wordID": 197, "type": "PRES_VIS", "trial_index": 24}, "uniqueid": "MTK3649:3QILPRALQ62PJPIM58EH0MM010NN8T", "dateTime": 1520876974222}, {"current_trial": 25, "trialdata": {"rt": -1, "trial_type": "single-stim", "word": "typist", "stimulus": "<p id=\"stim\">TYPIST</p>", "conditions": [18, 1200, "v", 18000], "internal_node_id": "0.0-16.0", "trial": 0, "time_elapsed": 203887, "serialpos": 4, "key_press": -1, "wordID": 1531, "type": "PRES_VIS", "trial_index": 25}, "uniqueid": "MTK3649:3QILPRALQ62PJPIM58EH0MM010NN8T", "dateTime": 1520876976484}, {"current_trial": 26, "trialdata": {"rt": -1, "trial_type": "single-stim", "word": "package", "stimulus": "<p id=\"stim\">PACKAGE</p>", "conditions": [18, 1200, "v", 18000], "internal_node_id": "0.0-17.0", "trial": 0, "time_elapsed": 206250, "serialpos": 5, "key_press": -1, "wordID": 996, "type": "PRES_VIS", "trial_index": 26}, "uniqueid": "MTK3649:3QILPRALQ62PJPIM58EH0MM010NN8T", "dateTime": 1520876978847}, {"current_trial": 27, "trialdata": {"rt": -1, "trial_type": "single-stim", "word": "washer", "stimulus": "<p id=\"stim\">WASHER</p>", "conditions": [18, 1200, "v", 18000], "internal_node_id": "0.0-18.0", "trial": 0, "time_elapsed": 208518, "serialpos": 6, "key_press": -1, "wordID": 1591, "type": "PRES_VIS", "trial_index": 27}, "uniqueid": "MTK3649:3QILPRALQ62PJPIM58EH0MM010NN8T", "dateTime": 1520876981115}, {"current_trial": 28, "trialdata": {"rt": -1, "trial_type": "single-stim", "word": "nomad", "stimulus": "<p id=\"stim\">NOMAD</p>", "conditions": [18, 1200, "v", 18000], "internal_node_id": "0.0-19.0", "trial": 0, "time_elapsed": 210677, "serialpos": 7, "key_press": -1, "wordID": 954, "type": "PRES_VIS", "trial_index": 28}, "uniqueid": "MTK3649:3QILPRALQ62PJPIM58EH0MM010NN8T", "dateTime": 1520876983275}, {"current_trial": 29, "trialdata": {"rt": -1, "trial_type": "single-stim", "word": "cabbage", "stimulus": "<p id=\"stim\">CABBAGE</p>", "conditions": [18, 1200, "v", 18000], "internal_node_id": "0.0-20.0", "trial": 0, "time_elapsed": 212764, "serialpos": 8, "key_press": -1, "wordID": 209, "type": "PRES_VIS", "trial_index": 29}, "uniqueid": "MTK3649:3QILPRALQ62PJPIM58EH0MM010NN8T", "dateTime": 1520876985361}, {"current_trial": 30, "trialdata": {"rt": -1, "trial_type": "single-stim", "word": "widow", "stimulus": "<p id=\"stim\">WIDOW</p>", "conditions": [18, 1200, "v", 18000], "internal_node_id": "0.0-21.0", "trial": 0, "time_elapsed": 214911, "serialpos": 9, "key_press": -1, "wordID": 1607, "type": "PRES_VIS", "trial_index": 30}, "uniqueid": "MTK3649:3QILPRALQ62PJPIM58EH0MM010NN8T", "dateTime": 1520876987508}, {"current_trial": 31, "trialdata": {"rt": -1, "trial_type": "single-stim", "word": "mummy", "stimulus": "<p id=\"stim\">MUMMY</p>", "conditions": [18, 1200, "v", 18000], "internal_node_id": "0.0-22.0", "trial": 0, "time_elapsed": 217276, "serialpos": 10, "key_press": -1, "wordID": 931, "type": "PRES_VIS", "trial_index": 31}, "uniqueid": "MTK3649:3QILPRALQ62PJPIM58EH0MM010NN8T", "dateTime": 1520876989874}, {"current_trial": 32, "trialdata": {"rt": -1, "trial_type": "single-stim", "word": "nightgown", "stimulus": "<p id=\"stim\">NIGHTGOWN</p>", "conditions": [18, 1200, "v", 18000], "internal_node_id": "0.0-23.0", "trial": 0, "time_elapsed": 219505, "serialpos": 11, "key_press": -1, "wordID": 952, "type": "PRES_VIS", "trial_index": 32}, "uniqueid": "MTK3649:3QILPRALQ62PJPIM58EH0MM010NN8T", "dateTime": 1520876992102}, {"current_trial": 33, "trialdata": {"rt": -1, "trial_type": "single-stim", "word": "plaid", "stimulus": "<p id=\"stim\">PLAID</p>", "conditions": [18, 1200, "v", 18000], "internal_node_id": "0.0-24.0", "trial": 0, "time_elapsed": 221773, "serialpos": 12, "key_press": -1, "wordID": 1079, "type": "PRES_VIS", "trial_index": 33}, "uniqueid": "MTK3649:3QILPRALQ62PJPIM58EH0MM010NN8T", "dateTime": 1520876994370}, {"current_trial": 34, "trialdata": {"rt": -1, "trial_type": "single-stim", "word": "zebra", "stimulus": "<p id=\"stim\">ZEBRA</p>", "conditions": [18, 1200, "v", 18000], "internal_node_id": "0.0-25.0", "trial": 0, "time_elapsed": 224078, "serialpos": 13, "key_press": -1, "wordID": 1634, "type": "PRES_VIS", "trial_index": 34}, "uniqueid": "MTK3649:3QILPRALQ62PJPIM58EH0MM010NN8T", "dateTime": 1520876996675}, {"current_trial": 35, "trialdata": {"rt": -1, "trial_type": "single-stim", "word": "canyon", "stimulus": "<p id=\"stim\">CANYON</p>", "conditions": [18, 1200, "v", 18000], "internal_node_id": "0.0-26.0", "trial": 0, "time_elapsed": 226082, "serialpos": 14, "key_press": -1, "wordID": 234, "type": "PRES_VIS", "trial_index": 35}, "uniqueid": "MTK3649:3QILPRALQ62PJPIM58EH0MM010NN8T", "dateTime": 1520876998680}, {"current_trial": 36, "trialdata": {"rt": -1, "trial_type": "single-stim", "word": "dashboard", "stimulus": "<p id=\"stim\">DASHBOARD</p>", "conditions": [18, 1200, "v", 18000], "internal_node_id": "0.0-27.0", "trial": 0, "time_elapsed": 228266, "serialpos": 15, "key_press": -1, "wordID": 440, "type": "PRES_VIS", "trial_index": 36}, "uniqueid": "MTK3649:3QILPRALQ62PJPIM58EH0MM010NN8T", "dateTime": 1520877000863}, {"current_trial": 37, "trialdata": {"rt": -1, "trial_type": "single-stim", "word": "trombone", "stimulus": "<p id=\"stim\">TROMBONE</p>", "conditions": [18, 1200, "v", 18000], "internal_node_id": "0.0-28.0", "trial": 0, "time_elapsed": 230408, "serialpos": 16, "key_press": -1, "wordID": 1507, "type": "PRES_VIS", "trial_index": 37}, "uniqueid": "MTK3649:3QILPRALQ62PJPIM58EH0MM010NN8T", "dateTime": 1520877003005}, {"current_trial": 38, "trialdata": {"rt": -1, "trial_type": "single-stim", "word": "monster", "stimulus": "<p id=\"stim\">MONSTER</p>", "conditions": [18, 1200, "v", 18000], "internal_node_id": "0.0-29.0", "trial": 0, "time_elapsed": 232763, "serialpos": 17, "key_press": -1, "wordID": 911, "type": "PRES_VIS", "trial_index": 38}, "uniqueid": "MTK3649:3QILPRALQ62PJPIM58EH0MM010NN8T", "dateTime": 1520877005360}, {"current_trial": 39, "trialdata": {"rt": -1, "trial_type": "single-stim", "stimulus": "", "internal_node_id": "0.0-30.0-0.0", "time_elapsed": 235258, "key_press": -1, "type": "PRE_RECALL_DELAY", "trial_index": 39}, "uniqueid": "MTK3649:3QILPRALQ62PJPIM58EH0MM010NN8T", "dateTime": 1520877007855}, {"current_trial": 40, "trialdata": {"rt": -1000, "trial_type": "single-audio", "stimulus": "/static/audio/400Hz.wav", "internal_node_id": "0.0-31.0", "time_elapsed": 235762, "key_press": -1, "type": "PRE_RECALL_ALERT", "trial_index": 40}, "uniqueid": "MTK3649:3QILPRALQ62PJPIM58EH0MM010NN8T", "dateTime": 1520877008359}, {"current_trial": 41, "trialdata": {"rt": [3502, 5579, 6697, 7912, 9386, 11687, 16318, 22665, 28037, 39076], "recwords": ["trombone", "monster", "zebra", "typist", "puddle", "palace", "nomad", "zebra", "dancer", "washer"], "key_times": [1846, 2026, 2126, 2312, 2532, 2822, 2913, 3053, 3502, 3942, 4198, 4231, 4663, 4839, 4907, 5273, 5579, 5831, 5923, 6172, 6345, 6453, 6697, 6912, 7029, 7241, 7443, 7547, 7683, 7912, 8163, 8326, 8648, 8835, 9020, 9237, 9386, 9653, 9751, 9935, 10433, 10686, 10788, 10949, 11027, 11687, 15232, 15406, 15598, 15794, 15938, 16318, 21576, 21665, 21959, 22225, 22367, 22665, 26860, 26976, 27212, 27403, 27652, 27773, 28037, 38090, 38251, 38348, 38565, 38706, 38805, 39076], "trial_type": "free-recall", "conditions": [18, 1200, "v", 18000], "internal_node_id": "0.0-32.0-0.0", "key_presses": [84, 82, 79, 77, 66, 79, 78, 69, 13, 77, 79, 78, 83, 84, 69, 82, 13, 90, 69, 66, 82, 65, 13, 84, 89, 80, 73, 83, 84, 13, 80, 85, 68, 68, 76, 69, 13, 80, 65, 65, 8, 76, 65, 67, 69, 13, 78, 79, 77, 65, 68, 13, 90, 69, 66, 82, 65, 13, 68, 65, 78, 67, 69, 82, 13, 87, 65, 83, 72, 69, 82, 13], "trial": 0, "time_elapsed": 295766, "type": "FREE_RECALL", "trial_index": 41}, "uniqueid": "MTK3649:3QILPRALQ62PJPIM58EH0MM010NN8T", "dateTime": 1520877068365}, {"current_trial": 42, "trialdata": {"rt": 1244, "trial_type": "text", "internal_node_id": "0.0-33.0", "time_elapsed": 299016, "key_press": 65, "type": "INSTRUCTIONS", "trial_index": 42}, "uniqueid": "MTK3649:3QILPRALQ62PJPIM58EH0MM010NN8T", "dateTime": 1520877071613}, {"current_trial": 43, "trialdata": {"rt": [3450, 5967, 9116, 13143, 15743], "trial_type": "math-distractor", "key_times": [2873, 3450, 4655, 4962, 5537, 5666, 5967, 8654, 8909, 9116, 12341, 12840, 13143, 15081, 15385, 15743, 16828, 17082, 17699, 17861], "responses": ["5", "12", "16", "14", "10"], "num2": [1, 5, 8, 6, 2, 2], "num3": [1, 5, 7, 6, 5, 5], "conditions": [18, 1200, "v", 18000], "internal_node_id": "0.0-34.0", "key_presses": [53, 13, 49, 51, 8, 50, 13, 49, 54, 13, 49, 52, 13, 49, 48, 13, 49, 51, 8, 50], "trial": 1, "time_elapsed": 319023, "type": "DISTRACTOR", "trial_index": 43, "num1": [3, 2, 1, 2, 3, 5]}, "uniqueid": "MTK3649:3QILPRALQ62PJPIM58EH0MM010NN8T", "dateTime": 1520877091620}, {"current_trial": 44, "trialdata": {"rt": -1, "trial_type": "single-stim", "stimulus": "<p id=\"stim\">10</p>", "internal_node_id": "0.0-35.0-0.0", "time_elapsed": 322031, "key_press": -1, "trial_index": 44}, "uniqueid": "MTK3649:3QILPRALQ62PJPIM58EH0MM010NN8T", "dateTime": 1520877094629}, {"current_trial": 45, "trialdata": {"rt": -1, "trial_type": "single-stim", "stimulus": "<p id=\"stim\">9</p>", "internal_node_id": "0.0-35.0-1.0", "time_elapsed": 323033, "key_press": -1, "trial_index": 45}, "uniqueid": "MTK3649:3QILPRALQ62PJPIM58EH0MM010NN8T", "dateTime": 1520877095630}, {"current_trial": 46, "trialdata": {"rt": -1, "trial_type": "single-stim", "stimulus": "<p id=\"stim\">8</p>", "internal_node_id": "0.0-35.0-2.0", "time_elapsed": 324035, "key_press": -1, "trial_index": 46}, "uniqueid": "MTK3649:3QILPRALQ62PJPIM58EH0MM010NN8T", "dateTime": 1520877096632}, {"current_trial": 47, "trialdata": {"rt": -1, "trial_type": "single-stim", "stimulus": "<p id=\"stim\">7</p>", "internal_node_id": "0.0-35.0-3.0", "time_elapsed": 325039, "key_press": -1, "trial_index": 47}, "uniqueid": "MTK3649:3QILPRALQ62PJPIM58EH0MM010NN8T", "dateTime": 1520877097636}, {"current_trial": 48, "trialdata": {"rt": -1, "trial_type": "single-stim", "stimulus": "<p id=\"stim\">6</p>", "internal_node_id": "0.0-35.0-4.0", "time_elapsed": 326043, "key_press": -1, "trial_index": 48}, "uniqueid": "MTK3649:3QILPRALQ62PJPIM58EH0MM010NN8T", "dateTime": 1520877098640}, {"current_trial": 49, "trialdata": {"rt": -1, "trial_type": "single-stim", "stimulus": "<p id=\"stim\">5</p>", "internal_node_id": "0.0-35.0-5.0", "time_elapsed": 327045, "key_press": -1, "trial_index": 49}, "uniqueid": "MTK3649:3QILPRALQ62PJPIM58EH0MM010NN8T", "dateTime": 1520877099642}, {"current_trial": 50, "trialdata": {"rt": -1, "trial_type": "single-stim", "stimulus": "<p id=\"stim\">4</p>", "internal_node_id": "0.0-35.0-6.0", "time_elapsed": 328047, "key_press": -1, "trial_index": 50}, "uniqueid": "MTK3649:3QILPRALQ62PJPIM58EH0MM010NN8T", "dateTime": 1520877100644}, {"current_trial": 51, "trialdata": {"rt": -1, "trial_type": "single-stim", "stimulus": "<p id=\"stim\">3</p>", "internal_node_id": "0.0-35.0-7.0", "time_elapsed": 329048, "key_press": -1, "trial_index": 51}, "uniqueid": "MTK3649:3QILPRALQ62PJPIM58EH0MM010NN8T", "dateTime": 1520877101645}, {"current_trial": 52, "trialdata": {"rt": -1, "trial_type": "single-stim", "stimulus": "<p id=\"stim\">2</p>", "internal_node_id": "0.0-35.0-8.0", "time_elapsed": 330051, "key_press": -1, "trial_index": 52}, "uniqueid": "MTK3649:3QILPRALQ62PJPIM58EH0MM010NN8T", "dateTime": 1520877102648}, {"current_trial": 53, "trialdata": {"rt": -1, "trial_type": "single-stim", "stimulus": "<p id=\"stim\">1</p>", "internal_node_id": "0.0-35.0-9.0", "time_elapsed": 331055, "key_press": -1, "trial_index": 53}, "uniqueid": "MTK3649:3QILPRALQ62PJPIM58EH0MM010NN8T", "dateTime": 1520877103652}, {"current_trial": 54, "trialdata": {"rt": -1, "trial_type": "single-stim", "stimulus": "<p id=\"stim\">+</p>", "internal_node_id": "0.0-36.0-0.0", "time_elapsed": 332556, "key_press": -1, "type": "FIXATION", "trial_index": 54}, "uniqueid": "MTK3649:3QILPRALQ62PJPIM58EH0MM010NN8T", "dateTime": 1520877105153}, {"current_trial": 55, "trialdata": {"rt": -1, "trial_type": "single-stim", "word": "carriage", "stimulus": "<p id=\"stim\">CARRIAGE</p>", "conditions": [18, 1200, "v", 18000], "internal_node_id": "0.0-37.0", "trial": 1, "time_elapsed": 333758, "serialpos": 0, "key_press": -1, "wordID": 247, "type": "PRES_VIS", "trial_index": 55}, "uniqueid": "MTK3649:3QILPRALQ62PJPIM58EH0MM010NN8T", "dateTime": 1520877106355}, {"current_trial": 56, "trialdata": {"rt": -1, "trial_type": "single-stim", "word": "message", "stimulus": "<p id=\"stim\">MESSAGE</p>", "conditions": [18, 1200, "v", 18000], "internal_node_id": "0.0-38.0", "trial": 1, "time_elapsed": 335849, "serialpos": 1, "key_press": -1, "wordID": 887, "type": "PRES_VIS", "trial_index": 56}, "uniqueid": "MTK3649:3QILPRALQ62PJPIM58EH0MM010NN8T", "dateTime": 1520877108446}, {"current_trial": 57, "trialdata": {"rt": -1, "trial_type": "single-stim", "word": "daisy", "stimulus": "<p id=\"stim\">DAISY</p>", "conditions": [18, 1200, "v", 18000], "internal_node_id": "0.0-39.0", "trial": 1, "time_elapsed": 338166, "serialpos": 2, "key_press": -1, "wordID": 434, "type": "PRES_VIS", "trial_index": 57}, "uniqueid": "MTK3649:3QILPRALQ62PJPIM58EH0MM010NN8T", "dateTime": 1520877110763}, {"current_trial": 58, "trialdata": {"rt": -1, "trial_type": "single-stim", "word": "scribble", "stimulus": "<p id=\"stim\">SCRIBBLE</p>", "conditions": [18, 1200, "v", 18000], "internal_node_id": "0.0-40.0", "trial": 1, "time_elapsed": 340182, "serialpos": 3, "key_press": -1, "wordID": 1255, "type": "PRES_VIS", "trial_index": 58}, "uniqueid": "MTK3649:3QILPRALQ62PJPIM58EH0MM010NN8T", "dateTime": 1520877112779}, {"current_trial": 59, "trialdata": {"rt": -1, "trial_type": "single-stim", "word": "motel", "stimulus": "<p id=\"stim\">MOTEL</p>", "conditions": [18, 1200, "v", 18000], "internal_node_id": "0.0-41.0", "trial": 1, "time_elapsed": 342548, "serialpos": 4, "key_press": -1, "wordID": 918, "type": "PRES_VIS", "trial_index": 59}, "uniqueid": "MTK3649:3QILPRALQ62PJPIM58EH0MM010NN8T", "dateTime": 1520877115145}, {"current_trial": 60, "trialdata": {"rt": -1, "trial_type": "single-stim", "word": "flipper", "stimulus": "<p id=\"stim\">FLIPPER</p>", "conditions": [18, 1200, "v", 18000], "internal_node_id": "0.0-42.0", "trial": 1, "time_elapsed": 344835, "serialpos": 5, "key_press": -1, "wordID": 579, "type": "PRES_VIS", "trial_index": 60}, "uniqueid": "MTK3649:3QILPRALQ62PJPIM58EH0MM010NN8T", "dateTime": 1520877117433}, {"current_trial": 61, "trialdata": {"rt": -1, "trial_type": "single-stim", "word": "rifle", "stimulus": "<p id=\"stim\">RIFLE</p>", "conditions": [18, 1200, "v", 18000], "internal_node_id": "0.0-43.0", "trial": 1, "time_elapsed": 346887, "serialpos": 6, "key_press": -1, "wordID": 1191, "type": "PRES_VIS", "trial_index": 61}, "uniqueid": "MTK3649:3QILPRALQ62PJPIM58EH0MM010NN8T", "dateTime": 1520877119484}, {"current_trial": 62, "trialdata": {"rt": -1, "trial_type": "single-stim", "word": "tutu", "stimulus": "<p id=\"stim\">TUTU</p>", "conditions": [18, 1200, "v", 18000], "internal_node_id": "0.0-44.0", "trial": 1, "time_elapsed": 349032, "serialpos": 7, "key_press": -1, "wordID": 1523, "type": "PRES_VIS", "trial_index": 62}, "uniqueid": "MTK3649:3QILPRALQ62PJPIM58EH0MM010NN8T", "dateTime": 1520877121630}, {"current_trial": 63, "trialdata": {"rt": -1, "trial_type": "single-stim", "word": "rod", "stimulus": "<p id=\"stim\">ROD</p>", "conditions": [18, 1200, "v", 18000], "internal_node_id": "0.0-45.0", "trial": 1, "time_elapsed": 351091, "serialpos": 8, "key_press": -1, "wordID": 1202, "type": "PRES_VIS", "trial_index": 63}, "uniqueid": "MTK3649:3QILPRALQ62PJPIM58EH0MM010NN8T", "dateTime": 1520877123688}, {"current_trial": 64, "trialdata": {"rt": -1, "trial_type": "single-stim", "word": "tortoise", "stimulus": "<p id=\"stim\">TORTOISE</p>", "conditions": [18, 1200, "v", 18000], "internal_node_id": "0.0-46.0", "trial": 1, "time_elapsed": 353403, "serialpos": 9, "key_press": -1, "wordID": 1485, "type": "PRES_VIS", "trial_index": 64}, "uniqueid": "MTK3649:3QILPRALQ62PJPIM58EH0MM010NN8T", "dateTime": 1520877126000}, {"current_trial": 65, "trialdata": {"rt": -1, "trial_type": "single-stim", "word": "branch", "stimulus": "<p id=\"stim\">BRANCH</p>", "conditions": [18, 1200, "v", 18000], "internal_node_id": "0.0-47.0", "trial": 1, "time_elapsed": 355453, "serialpos": 10, "key_press": -1, "wordID": 167, "type": "PRES_VIS", "trial_index": 65}, "uniqueid": "MTK3649:3QILPRALQ62PJPIM58EH0MM010NN8T", "dateTime": 1520877128050}, {"current_trial": 66, "trialdata": {"rt": -1, "trial_type": "single-stim", "word": "champagne", "stimulus": "<p id=\"stim\">CHAMPAGNE</p>", "conditions": [18, 1200, "v", 18000], "internal_node_id": "0.0-48.0", "trial": 1, "time_elapsed": 357798, "serialpos": 11, "key_press": -1, "wordID": 277, "type": "PRES_VIS", "trial_index": 66}, "uniqueid": "MTK3649:3QILPRALQ62PJPIM58EH0MM010NN8T", "dateTime": 1520877130395}, {"current_trial": 67, "trialdata": {"rt": -1, "trial_type": "single-stim", "word": "quail", "stimulus": "<p id=\"stim\">QUAIL</p>", "conditions": [18, 1200, "v", 18000], "internal_node_id": "0.0-49.0", "trial": 1, "time_elapsed": 359816, "serialpos": 12, "key_press": -1, "wordID": 1146, "type": "PRES_VIS", "trial_index": 67}, "uniqueid": "MTK3649:3QILPRALQ62PJPIM58EH0MM010NN8T", "dateTime": 1520877132413}, {"current_trial": 68, "trialdata": {"rt": -1, "trial_type": "single-stim", "word": "grape", "stimulus": "<p id=\"stim\">GRAPE</p>", "conditions": [18, 1200, "v", 18000], "internal_node_id": "0.0-50.0", "trial": 1, "time_elapsed": 361865, "serialpos": 13, "key_press": -1, "wordID": 653, "type": "PRES_VIS", "trial_index": 68}, "uniqueid": "MTK3649:3QILPRALQ62PJPIM58EH0MM010NN8T", "dateTime": 1520877134464}, {"current_trial": 69, "trialdata": {"rt": -1, "trial_type": "single-stim", "word": "popcorn", "stimulus": "<p id=\"stim\">POPCORN</p>", "conditions": [18, 1200, "v", 18000], "internal_node_id": "0.0-51.0", "trial": 1, "time_elapsed": 364153, "serialpos": 14, "key_press": -1, "wordID": 1103, "type": "PRES_VIS", "trial_index": 69}, "uniqueid": "MTK3649:3QILPRALQ62PJPIM58EH0MM010NN8T", "dateTime": 1520877136750}, {"current_trial": 70, "trialdata": {"rt": -1, "trial_type": "single-stim", "word": "frame", "stimulus": "<p id=\"stim\">FRAME</p>", "conditions": [18, 1200, "v", 18000], "internal_node_id": "0.0-52.0", "trial": 1, "time_elapsed": 366468, "serialpos": 15, "key_press": -1, "wordID": 599, "type": "PRES_VIS", "trial_index": 70}, "uniqueid": "MTK3649:3QILPRALQ62PJPIM58EH0MM010NN8T", "dateTime": 1520877139065}, {"current_trial": 71, "trialdata": {"rt": -1, "trial_type": "single-stim", "word": "princess", "stimulus": "<p id=\"stim\">PRINCESS</p>", "conditions": [18, 1200, "v", 18000], "internal_node_id": "0.0-53.0", "trial": 1, "time_elapsed": 368637, "serialpos": 16, "key_press": -1, "wordID": 1124, "type": "PRES_VIS", "trial_index": 71}, "uniqueid": "MTK3649:3QILPRALQ62PJPIM58EH0MM010NN8T", "dateTime": 1520877141234}, {"current_trial": 72, "trialdata": {"rt": -1, "trial_type": "single-stim", "word": "garbage", "stimulus": "<p id=\"stim\">GARBAGE</p>", "conditions": [18, 1200, "v", 18000], "internal_node_id": "0.0-54.0", "trial": 1, "time_elapsed": 370922, "serialpos": 17, "key_press": -1, "wordID": 621, "type": "PRES_VIS", "trial_index": 72}, "uniqueid": "MTK3649:3QILPRALQ62PJPIM58EH0MM010NN8T", "dateTime": 1520877143520}, {"current_trial": 73, "trialdata": {"rt": -1, "trial_type": "single-stim", "stimulus": "", "internal_node_id": "0.0-55.0-0.0", "time_elapsed": 373362, "key_press": -1, "type": "PRE_RECALL_DELAY", "trial_index": 73}, "uniqueid": "MTK3649:3QILPRALQ62PJPIM58EH0MM010NN8T", "dateTime": 1520877145959}, {"current_trial": 74, "trialdata": {"rt": -1000, "trial_type": "single-audio", "stimulus": "/static/audio/400Hz.wav", "internal_node_id": "0.0-56.0", "time_elapsed": 373867, "key_press": -1, "type": "PRE_RECALL_ALERT", "trial_index": 74}, "uniqueid": "MTK3649:3QILPRALQ62PJPIM58EH0MM010NN8T", "dateTime": 1520877146464}, {"current_trial": 75, "trialdata": {"rt": [2172, 4080, 6306, 9400, 21407, 24620, 26289, 43013], "recwords": ["garbage", "princess", "grape", "champagne", "quail", "tutu", "rod", "message"], "key_times": [1092, 1250, 1319, 1443, 1582, 1705, 1800, 2172, 2710, 2813, 2912, 3021, 3125, 3207, 3323, 3540, 4080, 4408, 4577, 4631, 4905, 5120, 6306, 7136, 7354, 7463, 7606, 7836, 7980, 8135, 8490, 8631, 9400, 20438, 20558, 20676, 20804, 21007, 21407, 23118, 23424, 23555, 23930, 24620, 25363, 25481, 25708, 26289, 40614, 40746, 40855, 41012, 41132, 41254, 41395, 43013], "trial_type": "free-recall", "conditions": [18, 1200, "v", 18000], "internal_node_id": "0.0-57.0-0.0", "key_presses": [71, 65, 82, 66, 65, 71, 69, 13, 80, 82, 73, 78, 67, 69, 83, 83, 13, 71, 82, 65, 80, 69, 13, 67, 72, 65, 77, 80, 65, 71, 78, 69, 13, 81, 85, 65, 73, 76, 13, 84, 85, 84, 85, 13, 82, 79, 68, 13, 77, 69, 83, 83, 65, 71, 69, 13], "trial": 1, "time_elapsed": 433867, "type": "FREE_RECALL", "trial_index": 75}, "uniqueid": "MTK3649:3QILPRALQ62PJPIM58EH0MM010NN8T", "dateTime": 1520877206466}, {"current_trial": 76, "trialdata": {"rt": 1771, "trial_type": "text", "internal_node_id": "0.0-58.0", "time_elapsed": 437643, "key_press": 65, "type": "INSTRUCTIONS", "trial_index": 76}, "uniqueid": "MTK3649:3QILPRALQ62PJPIM58EH0MM010NN8T", "dateTime": 1520877210240}, {"current_trial": 77, "trialdata": {"rt": [6551, 9759], "trial_type": "math-distractor", "key_times": [5798, 6011, 6551, 9101, 9283, 9759], "responses": ["26", "11"], "num2": [7, 7, 7], "num3": [9, 1, 6], "conditions": [12, 800, "v", 12000], "internal_node_id": "0.0-59.0", "key_presses": [50, 54, 13, 49, 49, 13], "trial": 2, "time_elapsed": 450648, "type": "DISTRACTOR", "trial_index": 77, "num1": [9, 3, 6]}, "uniqueid": "MTK3649:3QILPRALQ62PJPIM58EH0MM010NN8T", "dateTime": 1520877223245}, {"current_trial": 78, "trialdata": {"rt": -1, "trial_type": "single-stim", "stimulus": "<p id=\"stim\">10</p>", "internal_node_id": "0.0-60.0-0.0", "time_elapsed": 453656, "key_press": -1, "trial_index": 78}, "uniqueid": "MTK3649:3QILPRALQ62PJPIM58EH0MM010NN8T", "dateTime": 1520877226253}, {"current_trial": 79, "trialdata": {"rt": -1, "trial_type": "single-stim", "stimulus": "<p id=\"stim\">9</p>", "internal_node_id": "0.0-60.0-1.0", "time_elapsed": 454658, "key_press": -1, "trial_index": 79}, "uniqueid": "MTK3649:3QILPRALQ62PJPIM58EH0MM010NN8T", "dateTime": 1520877227255}, {"current_trial": 80, "trialdata": {"rt": -1, "trial_type": "single-stim", "stimulus": "<p id=\"stim\">8</p>", "internal_node_id": "0.0-60.0-2.0", "time_elapsed": 455662, "key_press": -1, "trial_index": 80}, "uniqueid": "MTK3649:3QILPRALQ62PJPIM58EH0MM010NN8T", "dateTime": 1520877228259}, {"current_trial": 81, "trialdata": {"rt": -1, "trial_type": "single-stim", "stimulus": "<p id=\"stim\">7</p>", "internal_node_id": "0.0-60.0-3.0", "time_elapsed": 456664, "key_press": -1, "trial_index": 81}, "uniqueid": "MTK3649:3QILPRALQ62PJPIM58EH0MM010NN8T", "dateTime": 1520877229261}, {"current_trial": 82, "trialdata": {"rt": -1, "trial_type": "single-stim", "stimulus": "<p id=\"stim\">6</p>", "internal_node_id": "0.0-60.0-4.0", "time_elapsed": 457668, "key_press": -1, "trial_index": 82}, "uniqueid": "MTK3649:3QILPRALQ62PJPIM58EH0MM010NN8T", "dateTime": 1520877230265}, {"current_trial": 83, "trialdata": {"rt": -1, "trial_type": "single-stim", "stimulus": "<p id=\"stim\">5</p>", "internal_node_id": "0.0-60.0-5.0", "time_elapsed": 458670, "key_press": -1, "trial_index": 83}, "uniqueid": "MTK3649:3QILPRALQ62PJPIM58EH0MM010NN8T", "dateTime": 1520877231268}, {"current_trial": 84, "trialdata": {"rt": -1, "trial_type": "single-stim", "stimulus": "<p id=\"stim\">4</p>", "internal_node_id": "0.0-60.0-6.0", "time_elapsed": 459675, "key_press": -1, "trial_index": 84}, "uniqueid": "MTK3649:3QILPRALQ62PJPIM58EH0MM010NN8T", "dateTime": 1520877232272}, {"current_trial": 85, "trialdata": {"rt": -1, "trial_type": "single-stim", "stimulus": "<p id=\"stim\">3</p>", "internal_node_id": "0.0-60.0-7.0", "time_elapsed": 460678, "key_press": -1, "trial_index": 85}, "uniqueid": "MTK3649:3QILPRALQ62PJPIM58EH0MM010NN8T", "dateTime": 1520877233275}, {"current_trial": 86, "trialdata": {"rt": -1, "trial_type": "single-stim", "stimulus": "<p id=\"stim\">2</p>", "internal_node_id": "0.0-60.0-8.0", "time_elapsed": 461681, "key_press": -1, "trial_index": 86}, "uniqueid": "MTK3649:3QILPRALQ62PJPIM58EH0MM010NN8T", "dateTime": 1520877234278}, {"current_trial": 87, "trialdata": {"rt": -1, "trial_type": "single-stim", "stimulus": "<p id=\"stim\">1</p>", "internal_node_id": "0.0-60.0-9.0", "time_elapsed": 462683, "key_press": -1, "trial_index": 87}, "uniqueid": "MTK3649:3QILPRALQ62PJPIM58EH0MM010NN8T", "dateTime": 1520877235280}, {"current_trial": 88, "trialdata": {"rt": -1, "trial_type": "single-stim", "stimulus": "<p id=\"stim\">+</p>", "internal_node_id": "0.0-61.0-0.0", "time_elapsed": 464186, "key_press": -1, "type": "FIXATION", "trial_index": 88}, "uniqueid": "MTK3649:3QILPRALQ62PJPIM58EH0MM010NN8T", "dateTime": 1520877236783}, {"current_trial": 89, "trialdata": {"rt": -1, "trial_type": "single-stim", "word": "teacher", "stimulus": "<p id=\"stim\">TEACHER</p>", "conditions": [12, 800, "v", 12000], "internal_node_id": "0.0-62.0", "trial": 2, "time_elapsed": 464990, "serialpos": 0, "key_press": -1, "wordID": 1439, "type": "PRES_VIS", "trial_index": 89}, "uniqueid": "MTK3649:3QILPRALQ62PJPIM58EH0MM010NN8T", "dateTime": 1520877237587}, {"current_trial": 90, "trialdata": {"rt": -1, "trial_type": "single-stim", "word": "robot", "stimulus": "<p id=\"stim\">ROBOT</p>", "conditions": [12, 800, "v", 12000], "internal_node_id": "0.0-63.0", "trial": 2, "time_elapsed": 466912, "serialpos": 1, "key_press": -1, "wordID": 1199, "type": "PRES_VIS", "trial_index": 90}, "uniqueid": "MTK3649:3QILPRALQ62PJPIM58EH0MM010NN8T", "dateTime": 1520877239510}, {"current_trial": 91, "trialdata": {"rt": -1, "trial_type": "single-stim", "word": "buggy", "stimulus": "<p id=\"stim\">BUGGY</p>", "conditions": [12, 800, "v", 12000], "internal_node_id": "0.0-64.0", "trial": 2, "time_elapsed": 468726, "serialpos": 2, "key_press": -1, "wordID": 187, "type": "PRES_VIS", "trial_index": 91}, "uniqueid": "MTK3649:3QILPRALQ62PJPIM58EH0MM010NN8T", "dateTime": 1520877241323}, {"current_trial": 92, "trialdata": {"rt": -1, "trial_type": "single-stim", "word": "stone", "stimulus": "<p id=\"stim\">STONE</p>", "conditions": [12, 800, "v", 12000], "internal_node_id": "0.0-65.0", "trial": 2, "time_elapsed": 470656, "serialpos": 3, "key_press": -1, "wordID": 1384, "type": "PRES_VIS", "trial_index": 92}, "uniqueid": "MTK3649:3QILPRALQ62PJPIM58EH0MM010NN8T", "dateTime": 1520877243253}, {"current_trial": 93, "trialdata": {"rt": -1, "trial_type": "single-stim", "word": "mattress", "stimulus": "<p id=\"stim\">MATTRESS</p>", "conditions": [12, 800, "v", 12000], "internal_node_id": "0.0-66.0", "trial": 2, "time_elapsed": 472580, "serialpos": 4, "key_press": -1, "wordID": 878, "type": "PRES_VIS", "trial_index": 93}, "uniqueid": "MTK3649:3QILPRALQ62PJPIM58EH0MM010NN8T", "dateTime": 1520877245177}, {"current_trial": 94, "trialdata": {"rt": -1, "trial_type": "single-stim", "word": "forehead", "stimulus": "<p id=\"stim\">FOREHEAD</p>", "conditions": [12, 800, "v", 12000], "internal_node_id": "0.0-67.0", "trial": 2, "time_elapsed": 474284, "serialpos": 5, "key_press": -1, "wordID": 591, "type": "PRES_VIS", "trial_index": 94}, "uniqueid": "MTK3649:3QILPRALQ62PJPIM58EH0MM010NN8T", "dateTime": 1520877246881}, {"current_trial": 95, "trialdata": {"rt": -1, "trial_type": "single-stim", "word": "chest", "stimulus": "<p id=\"stim\">CHEST</p>", "conditions": [12, 800, "v", 12000], "internal_node_id": "0.0-68.0", "trial": 2, "time_elapsed": 476227, "serialpos": 6, "key_press": -1, "wordID": 294, "type": "PRES_VIS", "trial_index": 95}, "uniqueid": "MTK3649:3QILPRALQ62PJPIM58EH0MM010NN8T", "dateTime": 1520877248824}, {"current_trial": 96, "trialdata": {"rt": -1, "trial_type": "single-stim", "word": "actress", "stimulus": "<p id=\"stim\">ACTRESS</p>", "conditions": [12, 800, "v", 12000], "internal_node_id": "0.0-69.0", "trial": 2, "time_elapsed": 478060, "serialpos": 7, "key_press": -1, "wordID": 5, "type": "PRES_VIS", "trial_index": 96}, "uniqueid": "MTK3649:3QILPRALQ62PJPIM58EH0MM010NN8T", "dateTime": 1520877250657}, {"current_trial": 97, "trialdata": {"rt": -1, "trial_type": "single-stim", "word": "cousin", "stimulus": "<p id=\"stim\">COUSIN</p>", "conditions": [12, 800, "v", 12000], "internal_node_id": "0.0-70.0", "trial": 2, "time_elapsed": 480013, "serialpos": 8, "key_press": -1, "wordID": 391, "type": "PRES_VIS", "trial_index": 97}, "uniqueid": "MTK3649:3QILPRALQ62PJPIM58EH0MM010NN8T", "dateTime": 1520877252610}, {"current_trial": 98, "trialdata": {"rt": -1, "trial_type": "single-stim", "word": "mask", "stimulus": "<p id=\"stim\">MASK</p>", "conditions": [12, 800, "v", 12000], "internal_node_id": "0.0-71.0", "trial": 2, "time_elapsed": 481732, "serialpos": 9, "key_press": -1, "wordID": 875, "type": "PRES_VIS", "trial_index": 98}, "uniqueid": "MTK3649:3QILPRALQ62PJPIM58EH0MM010NN8T", "dateTime": 1520877254329}, {"current_trial": 99, "trialdata": {"rt": -1, "trial_type": "single-stim", "word": "couch", "stimulus": "<p id=\"stim\">COUCH</p>", "conditions": [12, 800, "v", 12000], "internal_node_id": "0.0-72.0", "trial": 2, "time_elapsed": 483649, "serialpos": 10, "key_press": -1, "wordID": 385, "type": "PRES_VIS", "trial_index": 99}, "uniqueid": "MTK3649:3QILPRALQ62PJPIM58EH0MM010NN8T", "dateTime": 1520877256246}, {"current_trial": 100, "trialdata": {"rt": -1, "trial_type": "single-stim", "word": "suitcase", "stimulus": "<p id=\"stim\">SUITCASE</p>", "conditions": [12, 800, "v", 12000], "internal_node_id": "0.0-73.0", "trial": 2, "time_elapsed": 485429, "serialpos": 11, "key_press": -1, "wordID": 1402, "type": "PRES_VIS", "trial_index": 100}, "uniqueid": "MTK3649:3QILPRALQ62PJPIM58EH0MM010NN8T", "dateTime": 1520877258026}, {"current_trial": 101, "trialdata": {"rt": -1, "trial_type": "single-stim", "stimulus": "", "internal_node_id": "0.0-74.0-0.0", "time_elapsed": 487721, "key_press": -1, "type": "PRE_RECALL_DELAY", "trial_index": 101}, "uniqueid": "MTK3649:3QILPRALQ62PJPIM58EH0MM010NN8T", "dateTime": 1520877260318}, {"current_trial": 102, "trialdata": {"rt": -1000, "trial_type": "single-audio", "stimulus": "/static/audio/400Hz.wav", "internal_node_id": "0.0-75.0", "time_elapsed": 488224, "key_press": -1, "type": "PRE_RECALL_ALERT", "trial_index": 102}, "uniqueid": "MTK3649:3QILPRALQ62PJPIM58EH0MM010NN8T", "dateTime": 1520877260821}, {"current_trial": 103, "trialdata": {"rt": [2419, 4202, 5845, 8021, 22291], "recwords": ["actress", "mattress", "buggy", "couch", "teacher"], "key_times": [919, 1015, 1256, 1406, 1863, 2027, 2185, 2419, 2835, 2941, 3032, 3200, 3365, 3405, 3607, 3812, 4202, 4536, 4811, 5116, 5267, 5405, 5845, 6114, 6236, 6338, 6535, 6654, 8021, 21535, 21612, 21713, 21829, 21940, 22034, 22117, 22291], "trial_type": "free-recall", "conditions": [12, 800, "v", 12000], "internal_node_id": "0.0-76.0-0.0", "key_presses": [65, 67, 84, 82, 69, 83, 83, 13, 77, 65, 84, 84, 82, 69, 83, 83, 13, 66, 85, 71, 71, 89, 13, 67, 79, 85, 67, 72, 13, 84, 69, 65, 67, 72, 69, 82, 13], "trial": 2, "time_elapsed": 548225, "type": "FREE_RECALL", "trial_index": 103}, "uniqueid": "MTK3649:3QILPRALQ62PJPIM58EH0MM010NN8T", "dateTime": 1520877320824}, {"current_trial": 104, "trialdata": {"rt": 1307, "trial_type": "text", "internal_node_id": "0.0-77.0", "time_elapsed": 551536, "key_press": 65, "type": "INSTRUCTIONS", "trial_index": 104}, "uniqueid": "MTK3649:3QILPRALQ62PJPIM58EH0MM010NN8T", "dateTime": 1520877324133}, {"current_trial": 105, "trialdata": {"rt": [2855, 6141, 9361], "trial_type": "math-distractor", "key_times": [1949, 2377, 2855, 5533, 5757, 6141, 8217, 9025, 9361, 11526, 11836], "responses": ["12", "16", "12"], "num2": [2, 8, 2, 9], "num3": [1, 3, 2, 1], "conditions": [12, 1600, "v", 12000], "internal_node_id": "0.0-78.0", "key_presses": [49, 50, 13, 49, 54, 13, 49, 50, 13, 49, 57], "trial": 3, "time_elapsed": 565543, "type": "DISTRACTOR", "trial_index": 105, "num1": [9, 5, 8, 9]}, "uniqueid": "MTK3649:3QILPRALQ62PJPIM58EH0MM010NN8T", "dateTime": 1520877338140}, {"current_trial": 106, "trialdata": {"rt": -1, "trial_type": "single-stim", "stimulus": "<p id=\"stim\">10</p>", "internal_node_id": "0.0-79.0-0.0", "time_elapsed": 568547, "key_press": -1, "trial_index": 106}, "uniqueid": "MTK3649:3QILPRALQ62PJPIM58EH0MM010NN8T", "dateTime": 1520877341144}, {"current_trial": 107, "trialdata": {"rt": -1, "trial_type": "single-stim", "stimulus": "<p id=\"stim\">9</p>", "internal_node_id": "0.0-79.0-1.0", "time_elapsed": 569548, "key_press": -1, "trial_index": 107}, "uniqueid": "MTK3649:3QILPRALQ62PJPIM58EH0MM010NN8T", "dateTime": 1520877342145}, {"current_trial": 108, "trialdata": {"rt": -1, "trial_type": "single-stim", "stimulus": "<p id=\"stim\">8</p>", "internal_node_id": "0.0-79.0-2.0", "time_elapsed": 570553, "key_press": -1, "trial_index": 108}, "uniqueid": "MTK3649:3QILPRALQ62PJPIM58EH0MM010NN8T", "dateTime": 1520877343150}, {"current_trial": 109, "trialdata": {"rt": -1, "trial_type": "single-stim", "stimulus": "<p id=\"stim\">7</p>", "internal_node_id": "0.0-79.0-3.0", "time_elapsed": 571555, "key_press": -1, "trial_index": 109}, "uniqueid": "MTK3649:3QILPRALQ62PJPIM58EH0MM010NN8T", "dateTime": 1520877344152}, {"current_trial": 110, "trialdata": {"rt": -1, "trial_type": "single-stim", "stimulus": "<p id=\"stim\">6</p>", "internal_node_id": "0.0-79.0-4.0", "time_elapsed": 572558, "key_press": -1, "trial_index": 110}, "uniqueid": "MTK3649:3QILPRALQ62PJPIM58EH0MM010NN8T", "dateTime": 1520877345155}, {"current_trial": 111, "trialdata": {"rt": -1, "trial_type": "single-stim", "stimulus": "<p id=\"stim\">5</p>", "internal_node_id": "0.0-79.0-5.0", "time_elapsed": 573561, "key_press": -1, "trial_index": 111}, "uniqueid": "MTK3649:3QILPRALQ62PJPIM58EH0MM010NN8T", "dateTime": 1520877346158}, {"current_trial": 112, "trialdata": {"rt": -1, "trial_type": "single-stim", "stimulus": "<p id=\"stim\">4</p>", "internal_node_id": "0.0-79.0-6.0", "time_elapsed": 574565, "key_press": -1, "trial_index": 112}, "uniqueid": "MTK3649:3QILPRALQ62PJPIM58EH0MM010NN8T", "dateTime": 1520877347162}, {"current_trial": 113, "trialdata": {"rt": -1, "trial_type": "single-stim", "stimulus": "<p id=\"stim\">3</p>", "internal_node_id": "0.0-79.0-7.0", "time_elapsed": 575568, "key_press": -1, "trial_index": 113}, "uniqueid": "MTK3649:3QILPRALQ62PJPIM58EH0MM010NN8T", "dateTime": 1520877348165}, {"current_trial": 114, "trialdata": {"rt": -1, "trial_type": "single-stim", "stimulus": "<p id=\"stim\">2</p>", "internal_node_id": "0.0-79.0-8.0", "time_elapsed": 576571, "key_press": -1, "trial_index": 114}, "uniqueid": "MTK3649:3QILPRALQ62PJPIM58EH0MM010NN8T", "dateTime": 1520877349168}, {"current_trial": 115, "trialdata": {"rt": -1, "trial_type": "single-stim", "stimulus": "<p id=\"stim\">1</p>", "internal_node_id": "0.0-79.0-9.0", "time_elapsed": 577575, "key_press": -1, "trial_index": 115}, "uniqueid": "MTK3649:3QILPRALQ62PJPIM58EH0MM010NN8T", "dateTime": 1520877350172}, {"current_trial": 116, "trialdata": {"rt": -1, "trial_type": "single-stim", "stimulus": "<p id=\"stim\">+</p>", "internal_node_id": "0.0-80.0-0.0", "time_elapsed": 579079, "key_press": -1, "type": "FIXATION", "trial_index": 116}, "uniqueid": "MTK3649:3QILPRALQ62PJPIM58EH0MM010NN8T", "dateTime": 1520877351676}, {"current_trial": 117, "trialdata": {"rt": -1, "trial_type": "single-stim", "word": "atom", "stimulus": "<p id=\"stim\">ATOM</p>", "conditions": [12, 1600, "v", 12000], "internal_node_id": "0.0-81.0", "trial": 3, "time_elapsed": 580684, "serialpos": 0, "key_press": -1, "wordID": 54, "type": "PRES_VIS", "trial_index": 117}, "uniqueid": "MTK3649:3QILPRALQ62PJPIM58EH0MM010NN8T", "dateTime": 1520877353281}, {"current_trial": 118, "trialdata": {"rt": -1, "trial_type": "single-stim", "word": "virus", "stimulus": "<p id=\"stim\">VIRUS</p>", "conditions": [12, 1600, "v", 12000], "internal_node_id": "0.0-82.0", "trial": 3, "time_elapsed": 583128, "serialpos": 1, "key_press": -1, "wordID": 1571, "type": "PRES_VIS", "trial_index": 118}, "uniqueid": "MTK3649:3QILPRALQ62PJPIM58EH0MM010NN8T", "dateTime": 1520877355725}, {"current_trial": 119, "trialdata": {"rt": -1, "trial_type": "single-stim", "word": "dresser", "stimulus": "<p id=\"stim\">DRESSER</p>", "conditions": [12, 1600, "v", 12000], "internal_node_id": "0.0-83.0", "trial": 3, "time_elapsed": 585684, "serialpos": 2, "key_press": -1, "wordID": 495, "type": "PRES_VIS", "trial_index": 119}, "uniqueid": "MTK3649:3QILPRALQ62PJPIM58EH0MM010NN8T", "dateTime": 1520877358281}, {"current_trial": 120, "trialdata": {"rt": -1, "trial_type": "single-stim", "word": "cupboard", "stimulus": "<p id=\"stim\">CUPBOARD</p>", "conditions": [12, 1600, "v", 12000], "internal_node_id": "0.0-84.0", "trial": 3, "time_elapsed": 588170, "serialpos": 3, "key_press": -1, "wordID": 424, "type": "PRES_VIS", "trial_index": 120}, "uniqueid": "MTK3649:3QILPRALQ62PJPIM58EH0MM010NN8T", "dateTime": 1520877360767}, {"current_trial": 121, "trialdata": {"rt": -1, "trial_type": "single-stim", "word": "mailman", "stimulus": "<p id=\"stim\">MAILMAN</p>", "conditions": [12, 1600, "v", 12000], "internal_node_id": "0.0-85.0", "trial": 3, "time_elapsed": 590975, "serialpos": 4, "key_press": -1, "wordID": 857, "type": "PRES_VIS", "trial_index": 121}, "uniqueid": "MTK3649:3QILPRALQ62PJPIM58EH0MM010NN8T", "dateTime": 1520877363572}, {"current_trial": 122, "trialdata": {"rt": -1, "trial_type": "single-stim", "word": "headband", "stimulus": "<p id=\"stim\">HEADBAND</p>", "conditions": [12, 1600, "v", 12000], "internal_node_id": "0.0-86.0", "trial": 3, "time_elapsed": 593603, "serialpos": 5, "key_press": -1, "wordID": 695, "type": "PRES_VIS", "trial_index": 122}, "uniqueid": "MTK3649:3QILPRALQ62PJPIM58EH0MM010NN8T", "dateTime": 1520877366200}, {"current_trial": 123, "trialdata": {"rt": -1, "trial_type": "single-stim", "word": "spider", "stimulus": "<p id=\"stim\">SPIDER</p>", "conditions": [12, 1600, "v", 12000], "internal_node_id": "0.0-87.0", "trial": 3, "time_elapsed": 596310, "serialpos": 6, "key_press": -1, "wordID": 1350, "type": "PRES_VIS", "trial_index": 123}, "uniqueid": "MTK3649:3QILPRALQ62PJPIM58EH0MM010NN8T", "dateTime": 1520877368907}, {"current_trial": 124, "trialdata": {"rt": -1, "trial_type": "single-stim", "word": "whiskers", "stimulus": "<p id=\"stim\">WHISKERS</p>", "conditions": [12, 1600, "v", 12000], "internal_node_id": "0.0-88.0", "trial": 3, "time_elapsed": 598953, "serialpos": 7, "key_press": -1, "wordID": 1604, "type": "PRES_VIS", "trial_index": 124}, "uniqueid": "MTK3649:3QILPRALQ62PJPIM58EH0MM010NN8T", "dateTime": 1520877371551}, {"current_trial": 125, "trialdata": {"rt": -1, "trial_type": "single-stim", "word": "clock", "stimulus": "<p id=\"stim\">CLOCK</p>", "conditions": [12, 1600, "v", 12000], "internal_node_id": "0.0-89.0", "trial": 3, "time_elapsed": 601536, "serialpos": 8, "key_press": -1, "wordID": 324, "type": "PRES_VIS", "trial_index": 125}, "uniqueid": "MTK3649:3QILPRALQ62PJPIM58EH0MM010NN8T", "dateTime": 1520877374133}, {"current_trial": 126, "trialdata": {"rt": -1, "trial_type": "single-stim", "word": "bug", "stimulus": "<p id=\"stim\">BUG</p>", "conditions": [12, 1600, "v", 12000], "internal_node_id": "0.0-90.0", "trial": 3, "time_elapsed": 603997, "serialpos": 9, "key_press": -1, "wordID": 186, "type": "PRES_VIS", "trial_index": 126}, "uniqueid": "MTK3649:3QILPRALQ62PJPIM58EH0MM010NN8T", "dateTime": 1520877376594}, {"current_trial": 127, "trialdata": {"rt": -1, "trial_type": "single-stim", "word": "portrait", "stimulus": "<p id=\"stim\">PORTRAIT</p>", "conditions": [12, 1600, "v", 12000], "internal_node_id": "0.0-91.0", "trial": 3, "time_elapsed": 606483, "serialpos": 10, "key_press": -1, "wordID": 1110, "type": "PRES_VIS", "trial_index": 127}, "uniqueid": "MTK3649:3QILPRALQ62PJPIM58EH0MM010NN8T", "dateTime": 1520877379080}, {"current_trial": 128, "trialdata": {"rt": -1, "trial_type": "single-stim", "word": "pistol", "stimulus": "<p id=\"stim\">PISTOL</p>", "conditions": [12, 1600, "v", 12000], "internal_node_id": "0.0-92.0", "trial": 3, "time_elapsed": 609099, "serialpos": 11, "key_press": -1, "wordID": 1074, "type": "PRES_VIS", "trial_index": 128}, "uniqueid": "MTK3649:3QILPRALQ62PJPIM58EH0MM010NN8T", "dateTime": 1520877381696}, {"current_trial": 129, "trialdata": {"rt": -1, "trial_type": "single-stim", "stimulus": "", "internal_node_id": "0.0-93.0-0.0", "time_elapsed": 611487, "key_press": -1, "type": "PRE_RECALL_DELAY", "trial_index": 129}, "uniqueid": "MTK3649:3QILPRALQ62PJPIM58EH0MM010NN8T", "dateTime": 1520877384084}, {"current_trial": 130, "trialdata": {"rt": -1000, "trial_type": "single-audio", "stimulus": "/static/audio/400Hz.wav", "internal_node_id": "0.0-94.0", "time_elapsed": 611988, "key_press": -1, "type": "PRE_RECALL_ALERT", "trial_index": 130}, "uniqueid": "MTK3649:3QILPRALQ62PJPIM58EH0MM010NN8T", "dateTime": 1520877384585}, {"current_trial": 131, "trialdata": {"rt": [2465, 5635, 6786, 13163, 14629, 28725, 47292], "recwords": ["pistol", "spider", "bug", "atom", "virus", "dresser", "portrait"], "key_times": [1080, 1499, 1629, 1722, 1892, 2091, 2465, 3314, 3724, 4808, 4974, 5127, 5226, 5429, 5494, 5635, 5904, 6153, 6455, 6786, 12508, 12629, 12800, 12923, 13163, 13393, 13502, 13612, 13733, 13880, 14629, 27558, 27759, 27814, 27957, 28128, 28263, 28350, 28725, 46079, 46249, 46312, 46475, 46654, 46736, 46904, 47129, 47292], "trial_type": "free-recall", "conditions": [12, 1600, "v", 12000], "internal_node_id": "0.0-95.0-0.0", "key_presses": [80, 73, 83, 84, 79, 76, 13, 77, 8, 83, 80, 73, 68, 69, 82, 13, 66, 85, 71, 13, 65, 84, 79, 77, 13, 86, 73, 82, 85, 83, 13, 68, 82, 69, 83, 83, 69, 82, 13, 80, 79, 82, 84, 82, 65, 73, 84, 13], "trial": 3, "time_elapsed": 671992, "type": "FREE_RECALL", "trial_index": 131}, "uniqueid": "MTK3649:3QILPRALQ62PJPIM58EH0MM010NN8T", "dateTime": 1520877444593}, {"current_trial": 132, "trialdata": {"rt": 944, "trial_type": "text", "internal_node_id": "0.0-96.0", "time_elapsed": 674941, "key_press": 32, "type": "INSTRUCTIONS", "trial_index": 132}, "uniqueid": "MTK3649:3QILPRALQ62PJPIM58EH0MM010NN8T", "dateTime": 1520877447538}, {"current_trial": 133, "trialdata": {"rt": [6935, 9463, 12035, 16045, 20600, 22874], "trial_type": "math-distractor", "key_times": [5977, 6495, 6631, 6722, 6935, 9138, 9463, 11404, 11732, 12035, 15376, 15716, 16045, 20096, 20276, 20600, 22095, 22475, 22874], "responses": ["21", "9", "13", "18", "18", "12"], "num2": [9, 5, 2, 4, 7, 1, 5], "num3": [7, 3, 2, 7, 6, 2, 7], "conditions": [24, 800, "v", 24000], "internal_node_id": "0.0-97.0", "key_presses": [49, 8, 50, 49, 13, 57, 13, 49, 51, 13, 49, 56, 13, 49, 56, 13, 49, 50, 13], "trial": 4, "time_elapsed": 700948, "type": "DISTRACTOR", "trial_index": 133, "num1": [5, 1, 9, 7, 5, 9, 6]}, "uniqueid": "MTK3649:3QILPRALQ62PJPIM58EH0MM010NN8T", "dateTime": 1520877473545}, {"current_trial": 134, "trialdata": {"rt": -1, "trial_type": "single-stim", "stimulus": "<p id=\"stim\">10</p>", "internal_node_id": "0.0-98.0-0.0", "time_elapsed": 703956, "key_press": -1, "trial_index": 134}, "uniqueid": "MTK3649:3QILPRALQ62PJPIM58EH0MM010NN8T", "dateTime": 1520877476554}, {"current_trial": 135, "trialdata": {"rt": -1, "trial_type": "single-stim", "stimulus": "<p id=\"stim\">9</p>", "internal_node_id": "0.0-98.0-1.0", "time_elapsed": 704959, "key_press": -1, "trial_index": 135}, "uniqueid": "MTK3649:3QILPRALQ62PJPIM58EH0MM010NN8T", "dateTime": 1520877477556}, {"current_trial": 136, "trialdata": {"rt": -1, "trial_type": "single-stim", "stimulus": "<p id=\"stim\">8</p>", "internal_node_id": "0.0-98.0-2.0", "time_elapsed": 705963, "key_press": -1, "trial_index": 136}, "uniqueid": "MTK3649:3QILPRALQ62PJPIM58EH0MM010NN8T", "dateTime": 1520877478560}, {"current_trial": 137, "trialdata": {"rt": -1, "trial_type": "single-stim", "stimulus": "<p id=\"stim\">7</p>", "internal_node_id": "0.0-98.0-3.0", "time_elapsed": 706966, "key_press": -1, "trial_index": 137}, "uniqueid": "MTK3649:3QILPRALQ62PJPIM58EH0MM010NN8T", "dateTime": 1520877479563}, {"current_trial": 138, "trialdata": {"rt": -1, "trial_type": "single-stim", "stimulus": "<p id=\"stim\">6</p>", "internal_node_id": "0.0-98.0-4.0", "time_elapsed": 707967, "key_press": -1, "trial_index": 138}, "uniqueid": "MTK3649:3QILPRALQ62PJPIM58EH0MM010NN8T", "dateTime": 1520877480564}, {"current_trial": 139, "trialdata": {"rt": -1, "trial_type": "single-stim", "stimulus": "<p id=\"stim\">5</p>", "internal_node_id": "0.0-98.0-5.0", "time_elapsed": 708969, "key_press": -1, "trial_index": 139}, "uniqueid": "MTK3649:3QILPRALQ62PJPIM58EH0MM010NN8T", "dateTime": 1520877481566}, {"current_trial": 140, "trialdata": {"rt": -1, "trial_type": "single-stim", "stimulus": "<p id=\"stim\">4</p>", "internal_node_id": "0.0-98.0-6.0", "time_elapsed": 709973, "key_press": -1, "trial_index": 140}, "uniqueid": "MTK3649:3QILPRALQ62PJPIM58EH0MM010NN8T", "dateTime": 1520877482570}, {"current_trial": 141, "trialdata": {"rt": -1, "trial_type": "single-stim", "stimulus": "<p id=\"stim\">3</p>", "internal_node_id": "0.0-98.0-7.0", "time_elapsed": 710978, "key_press": -1, "trial_index": 141}, "uniqueid": "MTK3649:3QILPRALQ62PJPIM58EH0MM010NN8T", "dateTime": 1520877483575}, {"current_trial": 142, "trialdata": {"rt": -1, "trial_type": "single-stim", "stimulus": "<p id=\"stim\">2</p>", "internal_node_id": "0.0-98.0-8.0", "time_elapsed": 711980, "key_press": -1, "trial_index": 142}, "uniqueid": "MTK3649:3QILPRALQ62PJPIM58EH0MM010NN8T", "dateTime": 1520877484578}, {"current_trial": 143, "trialdata": {"rt": -1, "trial_type": "single-stim", "stimulus": "<p id=\"stim\">1</p>", "internal_node_id": "0.0-98.0-9.0", "time_elapsed": 712982, "key_press": -1, "trial_index": 143}, "uniqueid": "MTK3649:3QILPRALQ62PJPIM58EH0MM010NN8T", "dateTime": 1520877485580}, {"current_trial": 144, "trialdata": {"rt": -1, "trial_type": "single-stim", "stimulus": "<p id=\"stim\">+</p>", "internal_node_id": "0.0-99.0-0.0", "time_elapsed": 714487, "key_press": -1, "type": "FIXATION", "trial_index": 144}, "uniqueid": "MTK3649:3QILPRALQ62PJPIM58EH0MM010NN8T", "dateTime": 1520877487084}, {"current_trial": 145, "trialdata": {"rt": -1, "trial_type": "single-stim", "word": "preacher", "stimulus": "<p id=\"stim\">PREACHER</p>", "conditions": [24, 800, "v", 24000], "internal_node_id": "0.0-100.0", "trial": 4, "time_elapsed": 715290, "serialpos": 0, "key_press": -1, "wordID": 1118, "type": "PRES_VIS", "trial_index": 145}, "uniqueid": "MTK3649:3QILPRALQ62PJPIM58EH0MM010NN8T", "dateTime": 1520877487887}, {"current_trial": 146, "trialdata": {"rt": -1, "trial_type": "single-stim", "word": "scissors", "stimulus": "<p id=\"stim\">SCISSORS</p>", "conditions": [24, 800, "v", 24000], "internal_node_id": "0.0-101.0", "trial": 4, "time_elapsed": 717131, "serialpos": 1, "key_press": -1, "wordID": 1249, "type": "PRES_VIS", "trial_index": 146}, "uniqueid": "MTK3649:3QILPRALQ62PJPIM58EH0MM010NN8T", "dateTime": 1520877489729}, {"current_trial": 147, "trialdata": {"rt": -1, "trial_type": "single-stim", "word": "powder", "stimulus": "<p id=\"stim\">POWDER</p>", "conditions": [24, 800, "v", 24000], "internal_node_id": "0.0-102.0", "trial": 4, "time_elapsed": 718954, "serialpos": 2, "key_press": -1, "wordID": 1116, "type": "PRES_VIS", "trial_index": 147}, "uniqueid": "MTK3649:3QILPRALQ62PJPIM58EH0MM010NN8T", "dateTime": 1520877491551}, {"current_trial": 148, "trialdata": {"rt": -1, "trial_type": "single-stim", "word": "daughter", "stimulus": "<p id=\"stim\">DAUGHTER</p>", "conditions": [24, 800, "v", 24000], "internal_node_id": "0.0-103.0", "trial": 4, "time_elapsed": 720833, "serialpos": 3, "key_press": -1, "wordID": 441, "type": "PRES_VIS", "trial_index": 148}, "uniqueid": "MTK3649:3QILPRALQ62PJPIM58EH0MM010NN8T", "dateTime": 1520877493430}, {"current_trial": 149, "trialdata": {"rt": -1, "trial_type": "single-stim", "word": "padding", "stimulus": "<p id=\"stim\">PADDING</p>", "conditions": [24, 800, "v", 24000], "internal_node_id": "0.0-104.0", "trial": 4, "time_elapsed": 722660, "serialpos": 4, "key_press": -1, "wordID": 998, "type": "PRES_VIS", "trial_index": 149}, "uniqueid": "MTK3649:3QILPRALQ62PJPIM58EH0MM010NN8T", "dateTime": 1520877495257}, {"current_trial": 150, "trialdata": {"rt": -1, "trial_type": "single-stim", "word": "hornet", "stimulus": "<p id=\"stim\">HORNET</p>", "conditions": [24, 800, "v", 24000], "internal_node_id": "0.0-105.0", "trial": 4, "time_elapsed": 724341, "serialpos": 5, "key_press": -1, "wordID": 717, "type": "PRES_VIS", "trial_index": 150}, "uniqueid": "MTK3649:3QILPRALQ62PJPIM58EH0MM010NN8T", "dateTime": 1520877496938}, {"current_trial": 151, "trialdata": {"rt": -1, "trial_type": "single-stim", "word": "banker", "stimulus": "<p id=\"stim\">BANKER</p>", "conditions": [24, 800, "v", 24000], "internal_node_id": "0.0-106.0", "trial": 4, "time_elapsed": 726239, "serialpos": 6, "key_press": -1, "wordID": 83, "type": "PRES_VIS", "trial_index": 151}, "uniqueid": "MTK3649:3QILPRALQ62PJPIM58EH0MM010NN8T", "dateTime": 1520877498836}, {"current_trial": 152, "trialdata": {"rt": -1, "trial_type": "single-stim", "word": "slide", "stimulus": "<p id=\"stim\">SLIDE</p>", "conditions": [24, 800, "v", 24000], "internal_node_id": "0.0-107.0", "trial": 4, "time_elapsed": 727943, "serialpos": 7, "key_press": -1, "wordID": 1325, "type": "PRES_VIS", "trial_index": 152}, "uniqueid": "MTK3649:3QILPRALQ62PJPIM58EH0MM010NN8T", "dateTime": 1520877500540}, {"current_trial": 153, "trialdata": {"rt": -1, "trial_type": "single-stim", "word": "woman", "stimulus": "<p id=\"stim\">WOMAN</p>", "conditions": [24, 800, "v", 24000], "internal_node_id": "0.0-108.0", "trial": 4, "time_elapsed": 729856, "serialpos": 8, "key_press": -1, "wordID": 1619, "type": "PRES_VIS", "trial_index": 153}, "uniqueid": "MTK3649:3QILPRALQ62PJPIM58EH0MM010NN8T", "dateTime": 1520877502453}, {"current_trial": 154, "trialdata": {"rt": -1, "trial_type": "single-stim", "word": "stove", "stimulus": "<p id=\"stim\">STOVE</p>", "conditions": [24, 800, "v", 24000], "internal_node_id": "0.0-109.0", "trial": 4, "time_elapsed": 731656, "serialpos": 9, "key_press": -1, "wordID": 1387, "type": "PRES_VIS", "trial_index": 154}, "uniqueid": "MTK3649:3QILPRALQ62PJPIM58EH0MM010NN8T", "dateTime": 1520877504253}, {"current_trial": 155, "trialdata": {"rt": -1, "trial_type": "single-stim", "word": "radish", "stimulus": "<p id=\"stim\">RADISH</p>", "conditions": [24, 800, "v", 24000], "internal_node_id": "0.0-110.0", "trial": 4, "time_elapsed": 733660, "serialpos": 10, "key_press": -1, "wordID": 1157, "type": "PRES_VIS", "trial_index": 155}, "uniqueid": "MTK3649:3QILPRALQ62PJPIM58EH0MM010NN8T", "dateTime": 1520877506259}, {"current_trial": 156, "trialdata": {"rt": -1, "trial_type": "single-stim", "word": "turnip", "stimulus": "<p id=\"stim\">TURNIP</p>", "conditions": [24, 800, "v", 24000], "internal_node_id": "0.0-111.0", "trial": 4, "time_elapsed": 735386, "serialpos": 11, "key_press": -1, "wordID": 1520, "type": "PRES_VIS", "trial_index": 156}, "uniqueid": "MTK3649:3QILPRALQ62PJPIM58EH0MM010NN8T", "dateTime": 1520877507983}, {"current_trial": 157, "trialdata": {"rt": -1, "trial_type": "single-stim", "word": "soda", "stimulus": "<p id=\"stim\">SODA</p>", "conditions": [24, 800, "v", 24000], "internal_node_id": "0.0-112.0", "trial": 4, "time_elapsed": 737290, "serialpos": 12, "key_press": -1, "wordID": 1340, "type": "PRES_VIS", "trial_index": 157}, "uniqueid": "MTK3649:3QILPRALQ62PJPIM58EH0MM010NN8T", "dateTime": 1520877509887}, {"current_trial": 158, "trialdata": {"rt": -1, "trial_type": "single-stim", "word": "basement", "stimulus": "<p id=\"stim\">BASEMENT</p>", "conditions": [24, 800, "v", 24000], "internal_node_id": "0.0-113.0", "trial": 4, "time_elapsed": 739204, "serialpos": 13, "key_press": -1, "wordID": 93, "type": "PRES_VIS", "trial_index": 158}, "uniqueid": "MTK3649:3QILPRALQ62PJPIM58EH0MM010NN8T", "dateTime": 1520877511801}, {"current_trial": 159, "trialdata": {"rt": -1, "trial_type": "single-stim", "word": "cellar", "stimulus": "<p id=\"stim\">CELLAR</p>", "conditions": [24, 800, "v", 24000], "internal_node_id": "0.0-114.0", "trial": 4, "time_elapsed": 740905, "serialpos": 14, "key_press": -1, "wordID": 266, "type": "PRES_VIS", "trial_index": 159}, "uniqueid": "MTK3649:3QILPRALQ62PJPIM58EH0MM010NN8T", "dateTime": 1520877513503}, {"current_trial": 160, "trialdata": {"rt": -1, "trial_type": "single-stim", "word": "truck", "stimulus": "<p id=\"stim\">TRUCK</p>", "conditions": [24, 800, "v", 24000], "internal_node_id": "0.0-115.0", "trial": 4, "time_elapsed": 742723, "serialpos": 15, "key_press": -1, "wordID": 1511, "type": "PRES_VIS", "trial_index": 160}, "uniqueid": "MTK3649:3QILPRALQ62PJPIM58EH0MM010NN8T", "dateTime": 1520877515320}, {"current_trial": 161, "trialdata": {"rt": -1, "trial_type": "single-stim", "word": "drink", "stimulus": "<p id=\"stim\">DRINK</p>", "conditions": [24, 800, "v", 24000], "internal_node_id": "0.0-116.0", "trial": 4, "time_elapsed": 744471, "serialpos": 16, "key_press": -1, "wordID": 497, "type": "PRES_VIS", "trial_index": 161}, "uniqueid": "MTK3649:3QILPRALQ62PJPIM58EH0MM010NN8T", "dateTime": 1520877517069}, {"current_trial": 162, "trialdata": {"rt": -1, "trial_type": "single-stim", "word": "stomach", "stimulus": "<p id=\"stim\">STOMACH</p>", "conditions": [24, 800, "v", 24000], "internal_node_id": "0.0-117.0", "trial": 4, "time_elapsed": 746345, "serialpos": 17, "key_press": -1, "wordID": 1383, "type": "PRES_VIS", "trial_index": 162}, "uniqueid": "MTK3649:3QILPRALQ62PJPIM58EH0MM010NN8T", "dateTime": 1520877518942}, {"current_trial": 163, "trialdata": {"rt": -1, "trial_type": "single-stim", "word": "subway", "stimulus": "<p id=\"stim\">SUBWAY</p>", "conditions": [24, 800, "v", 24000], "internal_node_id": "0.0-118.0", "trial": 4, "time_elapsed": 748162, "serialpos": 18, "key_press": -1, "wordID": 1399, "type": "PRES_VIS", "trial_index": 163}, "uniqueid": "MTK3649:3QILPRALQ62PJPIM58EH0MM010NN8T", "dateTime": 1520877520759}, {"current_trial": 164, "trialdata": {"rt": -1, "trial_type": "single-stim", "word": "barrel", "stimulus": "<p id=\"stim\">BARREL</p>", "conditions": [24, 800, "v", 24000], "internal_node_id": "0.0-119.0", "trial": 4, "time_elapsed": 750057, "serialpos": 19, "key_press": -1, "wordID": 90, "type": "PRES_VIS", "trial_index": 164}, "uniqueid": "MTK3649:3QILPRALQ62PJPIM58EH0MM010NN8T", "dateTime": 1520877522654}, {"current_trial": 165, "trialdata": {"rt": -1, "trial_type": "single-stim", "word": "lipstick", "stimulus": "<p id=\"stim\">LIPSTICK</p>", "conditions": [24, 800, "v", 24000], "internal_node_id": "0.0-120.0", "trial": 4, "time_elapsed": 752002, "serialpos": 20, "key_press": -1, "wordID": 828, "type": "PRES_VIS", "trial_index": 165}, "uniqueid": "MTK3649:3QILPRALQ62PJPIM58EH0MM010NN8T", "dateTime": 1520877524599}, {"current_trial": 166, "trialdata": {"rt": -1, "trial_type": "single-stim", "word": "doughnut", "stimulus": "<p id=\"stim\">DOUGHNUT</p>", "conditions": [24, 800, "v", 24000], "internal_node_id": "0.0-121.0", "trial": 4, "time_elapsed": 753656, "serialpos": 21, "key_press": -1, "wordID": 489, "type": "PRES_VIS", "trial_index": 166}, "uniqueid": "MTK3649:3QILPRALQ62PJPIM58EH0MM010NN8T", "dateTime": 1520877526253}, {"current_trial": 167, "trialdata": {"rt": -1, "trial_type": "single-stim", "word": "carrot", "stimulus": "<p id=\"stim\">CARROT</p>", "conditions": [24, 800, "v", 24000], "internal_node_id": "0.0-122.0", "trial": 4, "time_elapsed": 755270, "serialpos": 22, "key_press": -1, "wordID": 248, "type": "PRES_VIS", "trial_index": 167}, "uniqueid": "MTK3649:3QILPRALQ62PJPIM58EH0MM010NN8T", "dateTime": 1520877527867}, {"current_trial": 168, "trialdata": {"rt": -1, "trial_type": "single-stim", "word": "jello", "stimulus": "<p id=\"stim\">JELLO</p>", "conditions": [24, 800, "v", 24000], "internal_node_id": "0.0-123.0", "trial": 4, "time_elapsed": 757170, "serialpos": 23, "key_press": -1, "wordID": 753, "type": "PRES_VIS", "trial_index": 168}, "uniqueid": "MTK3649:3QILPRALQ62PJPIM58EH0MM010NN8T", "dateTime": 1520877529768}, {"current_trial": 169, "trialdata": {"rt": -1, "trial_type": "single-stim", "stimulus": "", "internal_node_id": "0.0-124.0-0.0", "time_elapsed": 759537, "key_press": -1, "type": "PRE_RECALL_DELAY", "trial_index": 169}, "uniqueid": "MTK3649:3QILPRALQ62PJPIM58EH0MM010NN8T", "dateTime": 1520877532134}, {"current_trial": 170, "trialdata": {"rt": -1000, "trial_type": "single-audio", "stimulus": "/static/audio/400Hz.wav", "internal_node_id": "0.0-125.0", "time_elapsed": 760039, "key_press": -1, "type": "PRE_RECALL_ALERT", "trial_index": 170}, "uniqueid": "MTK3649:3QILPRALQ62PJPIM58EH0MM010NN8T", "dateTime": 1520877532636}, {"current_trial": 171, "trialdata": {"rt": [3062, 5703, 7177, 9090, 13344, 14734, 17158, 20191, 50346], "recwords": ["jello", "radish", "turnip", "doughnut", "preacher", "scissors", "woman", "soda", "carrot"], "key_times": [1866, 1973, 2061, 2209, 2376, 3062, 4139, 4206, 4325, 4447, 4611, 4648, 5197, 5420, 5703, 5877, 5992, 6094, 6213, 6330, 6669, 7177, 7968, 8059, 8159, 8308, 8344, 8566, 8739, 8829, 9090, 12268, 12377, 12406, 12491, 12815, 12915, 13005, 13079, 13344, 13552, 13747, 13838, 13978, 14132, 14309, 14347, 14536, 14734, 16524, 16614, 16699, 16813, 16880, 17158, 19576, 19675, 19807, 19886, 20191, 49498, 49591, 49708, 49879, 50002, 50103, 50346], "trial_type": "free-recall", "conditions": [24, 800, "v", 24000], "internal_node_id": "0.0-126.0-0.0", "key_presses": [74, 69, 76, 76, 79, 13, 82, 65, 68, 73, 83, 83, 8, 72, 13, 84, 85, 82, 78, 73, 80, 13, 68, 79, 85, 71, 72, 78, 85, 84, 13, 80, 82, 69, 65, 67, 72, 69, 82, 13, 83, 67, 73, 83, 83, 79, 82, 83, 13, 87, 79, 77, 65, 78, 13, 83, 79, 68, 65, 13, 67, 65, 82, 82, 79, 84, 13], "trial": 4, "time_elapsed": 820044, "type": "FREE_RECALL", "trial_index": 171}, "uniqueid": "MTK3649:3QILPRALQ62PJPIM58EH0MM010NN8T", "dateTime": 1520877592643}, {"current_trial": 172, "trialdata": {"rt": 884, "trial_type": "text", "internal_node_id": "0.0-127.0", "time_elapsed": 822935, "key_press": 32, "type": "INSTRUCTIONS", "trial_index": 172}, "uniqueid": "MTK3649:3QILPRALQ62PJPIM58EH0MM010NN8T", "dateTime": 1520877595532}, {"current_trial": 173, "trialdata": {"rt": [3454, 8785, 11552, 17892, 20656, 23859], "trial_type": "math-distractor", "key_times": [3023, 3125, 3454, 7822, 8353, 8475, 8785, 11218, 11552, 17474, 17653, 17892, 19940, 20273, 20656, 23299, 23604, 23859], "responses": ["19", " 17", "8", "22", "12", "16"], "num2": [9, 9, 2, 5, 1, 5, 8], "num3": [7, 5, 2, 8, 4, 2, 8], "conditions": [12, 1600, "v", 24000], "internal_node_id": "0.0-128.0", "key_presses": [49, 57, 13, 32, 49, 55, 13, 56, 13, 50, 50, 13, 49, 50, 13, 49, 54, 13], "trial": 5, "time_elapsed": 848947, "type": "DISTRACTOR", "trial_index": 173, "num1": [3, 3, 4, 9, 7, 9, 9]}, "uniqueid": "MTK3649:3QILPRALQ62PJPIM58EH0MM010NN8T", "dateTime": 1520877621544}, {"current_trial": 174, "trialdata": {"rt": -1, "trial_type": "single-stim", "stimulus": "<p id=\"stim\">10</p>", "internal_node_id": "0.0-129.0-0.0", "time_elapsed": 851955, "key_press": -1, "trial_index": 174}, "uniqueid": "MTK3649:3QILPRALQ62PJPIM58EH0MM010NN8T", "dateTime": 1520877624552}, {"current_trial": 175, "trialdata": {"rt": -1, "trial_type": "single-stim", "stimulus": "<p id=\"stim\">9</p>", "internal_node_id": "0.0-129.0-1.0", "time_elapsed": 852959, "key_press": -1, "trial_index": 175}, "uniqueid": "MTK3649:3QILPRALQ62PJPIM58EH0MM010NN8T", "dateTime": 1520877625556}, {"current_trial": 176, "trialdata": {"rt": -1, "trial_type": "single-stim", "stimulus": "<p id=\"stim\">8</p>", "internal_node_id": "0.0-129.0-2.0", "time_elapsed": 853963, "key_press": -1, "trial_index": 176}, "uniqueid": "MTK3649:3QILPRALQ62PJPIM58EH0MM010NN8T", "dateTime": 1520877626560}, {"current_trial": 177, "trialdata": {"rt": -1, "trial_type": "single-stim", "stimulus": "<p id=\"stim\">7</p>", "internal_node_id": "0.0-129.0-3.0", "time_elapsed": 854966, "key_press": -1, "trial_index": 177}, "uniqueid": "MTK3649:3QILPRALQ62PJPIM58EH0MM010NN8T", "dateTime": 1520877627564}, {"current_trial": 178, "trialdata": {"rt": -1, "trial_type": "single-stim", "stimulus": "<p id=\"stim\">6</p>", "internal_node_id": "0.0-129.0-4.0", "time_elapsed": 855971, "key_press": -1, "trial_index": 178}, "uniqueid": "MTK3649:3QILPRALQ62PJPIM58EH0MM010NN8T", "dateTime": 1520877628568}, {"current_trial": 179, "trialdata": {"rt": -1, "trial_type": "single-stim", "stimulus": "<p id=\"stim\">5</p>", "internal_node_id": "0.0-129.0-5.0", "time_elapsed": 856976, "key_press": -1, "trial_index": 179}, "uniqueid": "MTK3649:3QILPRALQ62PJPIM58EH0MM010NN8T", "dateTime": 1520877629573}, {"current_trial": 180, "trialdata": {"rt": -1, "trial_type": "single-stim", "stimulus": "<p id=\"stim\">4</p>", "internal_node_id": "0.0-129.0-6.0", "time_elapsed": 857979, "key_press": -1, "trial_index": 180}, "uniqueid": "MTK3649:3QILPRALQ62PJPIM58EH0MM010NN8T", "dateTime": 1520877630576}, {"current_trial": 181, "trialdata": {"rt": -1, "trial_type": "single-stim", "stimulus": "<p id=\"stim\">3</p>", "internal_node_id": "0.0-129.0-7.0", "time_elapsed": 858983, "key_press": -1, "trial_index": 181}, "uniqueid": "MTK3649:3QILPRALQ62PJPIM58EH0MM010NN8T", "dateTime": 1520877631580}, {"current_trial": 182, "trialdata": {"rt": -1, "trial_type": "single-stim", "stimulus": "<p id=\"stim\">2</p>", "internal_node_id": "0.0-129.0-8.0", "time_elapsed": 859985, "key_press": -1, "trial_index": 182}, "uniqueid": "MTK3649:3QILPRALQ62PJPIM58EH0MM010NN8T", "dateTime": 1520877632582}, {"current_trial": 183, "trialdata": {"rt": -1, "trial_type": "single-stim", "stimulus": "<p id=\"stim\">1</p>", "internal_node_id": "0.0-129.0-9.0", "time_elapsed": 860989, "key_press": -1, "trial_index": 183}, "uniqueid": "MTK3649:3QILPRALQ62PJPIM58EH0MM010NN8T", "dateTime": 1520877633586}, {"current_trial": 184, "trialdata": {"rt": -1, "trial_type": "single-stim", "stimulus": "<p id=\"stim\">+</p>", "internal_node_id": "0.0-130.0-0.0", "time_elapsed": 862493, "key_press": -1, "type": "FIXATION", "trial_index": 184}, "uniqueid": "MTK3649:3QILPRALQ62PJPIM58EH0MM010NN8T", "dateTime": 1520877635090}, {"current_trial": 185, "trialdata": {"rt": -1, "trial_type": "single-stim", "word": "brother", "stimulus": "<p id=\"stim\">BROTHER</p>", "conditions": [12, 1600, "v", 24000], "internal_node_id": "0.0-131.0", "trial": 5, "time_elapsed": 864098, "serialpos": 0, "key_press": -1, "wordID": 178, "type": "PRES_VIS", "trial_index": 185}, "uniqueid": "MTK3649:3QILPRALQ62PJPIM58EH0MM010NN8T", "dateTime": 1520877636695}, {"current_trial": 186, "trialdata": {"rt": -1, "trial_type": "single-stim", "word": "lava", "stimulus": "<p id=\"stim\">LAVA</p>", "conditions": [12, 1600, "v", 24000], "internal_node_id": "0.0-132.0", "trial": 5, "time_elapsed": 866710, "serialpos": 1, "key_press": -1, "wordID": 803, "type": "PRES_VIS", "trial_index": 186}, "uniqueid": "MTK3649:3QILPRALQ62PJPIM58EH0MM010NN8T", "dateTime": 1520877639308}, {"current_trial": 187, "trialdata": {"rt": -1, "trial_type": "single-stim", "word": "scallop", "stimulus": "<p id=\"stim\">SCALLOP</p>", "conditions": [12, 1600, "v", 24000], "internal_node_id": "0.0-133.0", "trial": 5, "time_elapsed": 869181, "serialpos": 2, "key_press": -1, "wordID": 1241, "type": "PRES_VIS", "trial_index": 187}, "uniqueid": "MTK3649:3QILPRALQ62PJPIM58EH0MM010NN8T", "dateTime": 1520877641778}, {"current_trial": 188, "trialdata": {"rt": -1, "trial_type": "single-stim", "word": "oyster", "stimulus": "<p id=\"stim\">OYSTER</p>", "conditions": [12, 1600, "v", 24000], "internal_node_id": "0.0-134.0", "trial": 5, "time_elapsed": 871851, "serialpos": 3, "key_press": -1, "wordID": 994, "type": "PRES_VIS", "trial_index": 188}, "uniqueid": "MTK3649:3QILPRALQ62PJPIM58EH0MM010NN8T", "dateTime": 1520877644448}, {"current_trial": 189, "trialdata": {"rt": -1, "trial_type": "single-stim", "word": "sausage", "stimulus": "<p id=\"stim\">SAUSAGE</p>", "conditions": [12, 1600, "v", 24000], "internal_node_id": "0.0-135.0", "trial": 5, "time_elapsed": 874500, "serialpos": 4, "key_press": -1, "wordID": 1237, "type": "PRES_VIS", "trial_index": 189}, "uniqueid": "MTK3649:3QILPRALQ62PJPIM58EH0MM010NN8T", "dateTime": 1520877647097}, {"current_trial": 190, "trialdata": {"rt": -1, "trial_type": "single-stim", "word": "office", "stimulus": "<p id=\"stim\">OFFICE</p>", "conditions": [12, 1600, "v", 24000], "internal_node_id": "0.0-136.0", "trial": 5, "time_elapsed": 877241, "serialpos": 5, "key_press": -1, "wordID": 971, "type": "PRES_VIS", "trial_index": 190}, "uniqueid": "MTK3649:3QILPRALQ62PJPIM58EH0MM010NN8T", "dateTime": 1520877649838}, {"current_trial": 191, "trialdata": {"rt": -1, "trial_type": "single-stim", "word": "flesh", "stimulus": "<p id=\"stim\">FLESH</p>", "conditions": [12, 1600, "v", 24000], "internal_node_id": "0.0-137.0", "trial": 5, "time_elapsed": 879690, "serialpos": 6, "key_press": -1, "wordID": 578, "type": "PRES_VIS", "trial_index": 191}, "uniqueid": "MTK3649:3QILPRALQ62PJPIM58EH0MM010NN8T", "dateTime": 1520877652288}, {"current_trial": 192, "trialdata": {"rt": -1, "trial_type": "single-stim", "word": "sunset", "stimulus": "<p id=\"stim\">SUNSET</p>", "conditions": [12, 1600, "v", 24000], "internal_node_id": "0.0-138.0", "trial": 5, "time_elapsed": 882379, "serialpos": 7, "key_press": -1, "wordID": 1407, "type": "PRES_VIS", "trial_index": 192}, "uniqueid": "MTK3649:3QILPRALQ62PJPIM58EH0MM010NN8T", "dateTime": 1520877654976}, {"current_trial": 193, "trialdata": {"rt": -1, "trial_type": "single-stim", "word": "agent", "stimulus": "<p id=\"stim\">AGENT</p>", "conditions": [12, 1600, "v", 24000], "internal_node_id": "0.0-139.0", "trial": 5, "time_elapsed": 884963, "serialpos": 8, "key_press": -1, "wordID": 9, "type": "PRES_VIS", "trial_index": 193}, "uniqueid": "MTK3649:3QILPRALQ62PJPIM58EH0MM010NN8T", "dateTime": 1520877657560}, {"current_trial": 194, "trialdata": {"rt": -1, "trial_type": "single-stim", "word": "freezer", "stimulus": "<p id=\"stim\">FREEZER</p>", "conditions": [12, 1600, "v", 24000], "internal_node_id": "0.0-140.0", "trial": 5, "time_elapsed": 887568, "serialpos": 9, "key_press": -1, "wordID": 603, "type": "PRES_VIS", "trial_index": 194}, "uniqueid": "MTK3649:3QILPRALQ62PJPIM58EH0MM010NN8T", "dateTime": 1520877660165}, {"current_trial": 195, "trialdata": {"rt": -1, "trial_type": "single-stim", "word": "robber", "stimulus": "<p id=\"stim\">ROBBER</p>", "conditions": [12, 1600, "v", 24000], "internal_node_id": "0.0-141.0", "trial": 5, "time_elapsed": 890187, "serialpos": 10, "key_press": -1, "wordID": 1196, "type": "PRES_VIS", "trial_index": 195}, "uniqueid": "MTK3649:3QILPRALQ62PJPIM58EH0MM010NN8T", "dateTime": 1520877662784}, {"current_trial": 196, "trialdata": {"rt": -1, "trial_type": "single-stim", "word": "husband", "stimulus": "<p id=\"stim\">HUSBAND</p>", "conditions": [12, 1600, "v", 24000], "internal_node_id": "0.0-142.0", "trial": 5, "time_elapsed": 892609, "serialpos": 11, "key_press": -1, "wordID": 727, "type": "PRES_VIS", "trial_index": 196}, "uniqueid": "MTK3649:3QILPRALQ62PJPIM58EH0MM010NN8T", "dateTime": 1520877665206}, {"current_trial": 197, "trialdata": {"rt": -1, "trial_type": "single-stim", "stimulus": "", "internal_node_id": "0.0-143.0-0.0", "time_elapsed": 894885, "key_press": -1, "type": "PRE_RECALL_DELAY", "trial_index": 197}, "uniqueid": "MTK3649:3QILPRALQ62PJPIM58EH0MM010NN8T", "dateTime": 1520877667482}, {"current_trial": 198, "trialdata": {"rt": -1000, "trial_type": "single-audio", "stimulus": "/static/audio/400Hz.wav", "internal_node_id": "0.0-144.0", "time_elapsed": 895388, "key_press": -1, "type": "PRE_RECALL_ALERT", "trial_index": 198}, "uniqueid": "MTK3649:3QILPRALQ62PJPIM58EH0MM010NN8T", "dateTime": 1520877667985}, {"current_trial": 199, "trialdata": {"rt": [1655, 3648, 5687, 7012, 8097, 10325], "recwords": ["husband", "scallop", "oyster", "sausage", "flesh", "freezer"], "key_times": [542, 743, 824, 1071, 1180, 1303, 1394, 1655, 1929, 2095, 2399, 2766, 2922, 3127, 3315, 3648, 3995, 4249, 4548, 4802, 5215, 5319, 5437, 5539, 5687, 5871, 5928, 6095, 6205, 6300, 6559, 6652, 7012, 7222, 7358, 7451, 7555, 7678, 8097, 8582, 8730, 8783, 8946, 9173, 9378, 9526, 10325], "trial_type": "free-recall", "conditions": [12, 1600, "v", 24000], "internal_node_id": "0.0-145.0-0.0", "key_presses": [72, 85, 83, 66, 65, 78, 68, 13, 83, 67, 65, 76, 76, 79, 80, 13, 79, 89, 83, 69, 8, 84, 69, 82, 13, 83, 65, 85, 83, 65, 71, 69, 13, 70, 76, 69, 83, 72, 13, 70, 82, 69, 69, 90, 69, 82, 13], "trial": 5, "time_elapsed": 955394, "type": "FREE_RECALL", "trial_index": 199}, "uniqueid": "MTK3649:3QILPRALQ62PJPIM58EH0MM010NN8T", "dateTime": 1520877727999}, {"current_trial": 200, "trialdata": {"rt": 827, "trial_type": "text", "internal_node_id": "0.0-146.0", "time_elapsed": 958232, "key_press": 32, "type": "INSTRUCTIONS", "trial_index": 200}, "uniqueid": "MTK3649:3QILPRALQ62PJPIM58EH0MM010NN8T", "dateTime": 1520877730829}, {"current_trial": 201, "trialdata": {"rt": [4362, 7439, 9546, 11689], "trial_type": "math-distractor", "key_times": [3918, 4082, 4362, 6886, 7166, 7439, 8963, 9198, 9546, 11201, 11399, 11689], "responses": ["22", "16", "13", "11"], "num2": [9, 9, 1, 6, 1], "num3": [4, 3, 3, 2, 8], "conditions": [24, 800, "v", 12000], "internal_node_id": "0.0-147.0", "key_presses": [50, 50, 13, 49, 54, 13, 49, 51, 13, 49, 49, 13], "trial": 6, "time_elapsed": 972237, "type": "DISTRACTOR", "trial_index": 201, "num1": [9, 4, 9, 3, 1]}, "uniqueid": "MTK3649:3QILPRALQ62PJPIM58EH0MM010NN8T", "dateTime": 1520877744834}, {"current_trial": 202, "trialdata": {"rt": -1, "trial_type": "single-stim", "stimulus": "<p id=\"stim\">10</p>", "internal_node_id": "0.0-148.0-0.0", "time_elapsed": 975243, "key_press": -1, "trial_index": 202}, "uniqueid": "MTK3649:3QILPRALQ62PJPIM58EH0MM010NN8T", "dateTime": 1520877747840}, {"current_trial": 203, "trialdata": {"rt": -1, "trial_type": "single-stim", "stimulus": "<p id=\"stim\">9</p>", "internal_node_id": "0.0-148.0-1.0", "time_elapsed": 976245, "key_press": -1, "trial_index": 203}, "uniqueid": "MTK3649:3QILPRALQ62PJPIM58EH0MM010NN8T", "dateTime": 1520877748842}, {"current_trial": 204, "trialdata": {"rt": -1, "trial_type": "single-stim", "stimulus": "<p id=\"stim\">8</p>", "internal_node_id": "0.0-148.0-2.0", "time_elapsed": 977250, "key_press": -1, "trial_index": 204}, "uniqueid": "MTK3649:3QILPRALQ62PJPIM58EH0MM010NN8T", "dateTime": 1520877749847}, {"current_trial": 205, "trialdata": {"rt": -1, "trial_type": "single-stim", "stimulus": "<p id=\"stim\">7</p>", "internal_node_id": "0.0-148.0-3.0", "time_elapsed": 978250, "key_press": -1, "trial_index": 205}, "uniqueid": "MTK3649:3QILPRALQ62PJPIM58EH0MM010NN8T", "dateTime": 1520877750848}, {"current_trial": 206, "trialdata": {"rt": -1, "trial_type": "single-stim", "stimulus": "<p id=\"stim\">6</p>", "internal_node_id": "0.0-148.0-4.0", "time_elapsed": 979253, "key_press": -1, "trial_index": 206}, "uniqueid": "MTK3649:3QILPRALQ62PJPIM58EH0MM010NN8T", "dateTime": 1520877751851}, {"current_trial": 207, "trialdata": {"rt": -1, "trial_type": "single-stim", "stimulus": "<p id=\"stim\">5</p>", "internal_node_id": "0.0-148.0-5.0", "time_elapsed": 980257, "key_press": -1, "trial_index": 207}, "uniqueid": "MTK3649:3QILPRALQ62PJPIM58EH0MM010NN8T", "dateTime": 1520877752854}, {"current_trial": 208, "trialdata": {"rt": -1, "trial_type": "single-stim", "stimulus": "<p id=\"stim\">4</p>", "internal_node_id": "0.0-148.0-6.0", "time_elapsed": 981259, "key_press": -1, "trial_index": 208}, "uniqueid": "MTK3649:3QILPRALQ62PJPIM58EH0MM010NN8T", "dateTime": 1520877753857}, {"current_trial": 209, "trialdata": {"rt": -1, "trial_type": "single-stim", "stimulus": "<p id=\"stim\">3</p>", "internal_node_id": "0.0-148.0-7.0", "time_elapsed": 982261, "key_press": -1, "trial_index": 209}, "uniqueid": "MTK3649:3QILPRALQ62PJPIM58EH0MM010NN8T", "dateTime": 1520877754858}, {"current_trial": 210, "trialdata": {"rt": -1, "trial_type": "single-stim", "stimulus": "<p id=\"stim\">2</p>", "internal_node_id": "0.0-148.0-8.0", "time_elapsed": 983263, "key_press": -1, "trial_index": 210}, "uniqueid": "MTK3649:3QILPRALQ62PJPIM58EH0MM010NN8T", "dateTime": 1520877755860}, {"current_trial": 211, "trialdata": {"rt": -1, "trial_type": "single-stim", "stimulus": "<p id=\"stim\">1</p>", "internal_node_id": "0.0-148.0-9.0", "time_elapsed": 984268, "key_press": -1, "trial_index": 211}, "uniqueid": "MTK3649:3QILPRALQ62PJPIM58EH0MM010NN8T", "dateTime": 1520877756865}, {"current_trial": 212, "trialdata": {"rt": -1, "trial_type": "single-stim", "stimulus": "<p id=\"stim\">+</p>", "internal_node_id": "0.0-149.0-0.0", "time_elapsed": 985771, "key_press": -1, "type": "FIXATION", "trial_index": 212}, "uniqueid": "MTK3649:3QILPRALQ62PJPIM58EH0MM010NN8T", "dateTime": 1520877758368}, {"current_trial": 213, "trialdata": {"rt": -1, "trial_type": "single-stim", "word": "sheriff", "stimulus": "<p id=\"stim\">SHERIFF</p>", "conditions": [24, 800, "v", 12000], "internal_node_id": "0.0-150.0", "trial": 6, "time_elapsed": 986575, "serialpos": 0, "key_press": -1, "wordID": 1283, "type": "PRES_VIS", "trial_index": 213}, "uniqueid": "MTK3649:3QILPRALQ62PJPIM58EH0MM010NN8T", "dateTime": 1520877759172}, {"current_trial": 214, "trialdata": {"rt": -1, "trial_type": "single-stim", "word": "county", "stimulus": "<p id=\"stim\">COUNTY</p>", "conditions": [24, 800, "v", 12000], "internal_node_id": "0.0-151.0", "trial": 6, "time_elapsed": 988388, "serialpos": 1, "key_press": -1, "wordID": 388, "type": "PRES_VIS", "trial_index": 214}, "uniqueid": "MTK3649:3QILPRALQ62PJPIM58EH0MM010NN8T", "dateTime": 1520877760985}, {"current_trial": 215, "trialdata": {"rt": -1, "trial_type": "single-stim", "word": "banjo", "stimulus": "<p id=\"stim\">BANJO</p>", "conditions": [24, 800, "v", 12000], "internal_node_id": "0.0-152.0", "trial": 6, "time_elapsed": 990177, "serialpos": 2, "key_press": -1, "wordID": 81, "type": "PRES_VIS", "trial_index": 215}, "uniqueid": "MTK3649:3QILPRALQ62PJPIM58EH0MM010NN8T", "dateTime": 1520877762775}, {"current_trial": 216, "trialdata": {"rt": -1, "trial_type": "single-stim", "word": "cyclone", "stimulus": "<p id=\"stim\">CYCLONE</p>", "conditions": [24, 800, "v", 12000], "internal_node_id": "0.0-153.0", "trial": 6, "time_elapsed": 991805, "serialpos": 3, "key_press": -1, "wordID": 430, "type": "PRES_VIS", "trial_index": 216}, "uniqueid": "MTK3649:3QILPRALQ62PJPIM58EH0MM010NN8T", "dateTime": 1520877764402}, {"current_trial": 217, "trialdata": {"rt": -1, "trial_type": "single-stim", "word": "blockade", "stimulus": "<p id=\"stim\">BLOCKADE</p>", "conditions": [24, 800, "v", 12000], "internal_node_id": "0.0-154.0", "trial": 6, "time_elapsed": 993532, "serialpos": 4, "key_press": -1, "wordID": 136, "type": "PRES_VIS", "trial_index": 217}, "uniqueid": "MTK3649:3QILPRALQ62PJPIM58EH0MM010NN8T", "dateTime": 1520877766129}, {"current_trial": 218, "trialdata": {"rt": -1, "trial_type": "single-stim", "word": "yacht", "stimulus": "<p id=\"stim\">YACHT</p>", "conditions": [24, 800, "v", 12000], "internal_node_id": "0.0-155.0", "trial": 6, "time_elapsed": 995419, "serialpos": 5, "key_press": -1, "wordID": 1628, "type": "PRES_VIS", "trial_index": 218}, "uniqueid": "MTK3649:3QILPRALQ62PJPIM58EH0MM010NN8T", "dateTime": 1520877768017}, {"current_trial": 219, "trialdata": {"rt": -1, "trial_type": "single-stim", "word": "airport", "stimulus": "<p id=\"stim\">AIRPORT</p>", "conditions": [24, 800, "v", 12000], "internal_node_id": "0.0-156.0", "trial": 6, "time_elapsed": 997312, "serialpos": 6, "key_press": -1, "wordID": 12, "type": "PRES_VIS", "trial_index": 219}, "uniqueid": "MTK3649:3QILPRALQ62PJPIM58EH0MM010NN8T", "dateTime": 1520877769909}, {"current_trial": 220, "trialdata": {"rt": -1, "trial_type": "single-stim", "word": "guitar", "stimulus": "<p id=\"stim\">GUITAR</p>", "conditions": [24, 800, "v", 12000], "internal_node_id": "0.0-157.0", "trial": 6, "time_elapsed": 999120, "serialpos": 7, "key_press": -1, "wordID": 669, "type": "PRES_VIS", "trial_index": 220}, "uniqueid": "MTK3649:3QILPRALQ62PJPIM58EH0MM010NN8T", "dateTime": 1520877771717}, {"current_trial": 221, "trialdata": {"rt": -1, "trial_type": "single-stim", "word": "france", "stimulus": "<p id=\"stim\">FRANCE</p>", "conditions": [24, 800, "v", 12000], "internal_node_id": "0.0-158.0", "trial": 6, "time_elapsed": 1000962, "serialpos": 8, "key_press": -1, "wordID": 600, "type": "PRES_VIS", "trial_index": 221}, "uniqueid": "MTK3649:3QILPRALQ62PJPIM58EH0MM010NN8T", "dateTime": 1520877773559}, {"current_trial": 222, "trialdata": {"rt": -1, "trial_type": "single-stim", "word": "fox", "stimulus": "<p id=\"stim\">FOX</p>", "conditions": [24, 800, "v", 12000], "internal_node_id": "0.0-159.0", "trial": 6, "time_elapsed": 1002673, "serialpos": 9, "key_press": -1, "wordID": 597, "type": "PRES_VIS", "trial_index": 222}, "uniqueid": "MTK3649:3QILPRALQ62PJPIM58EH0MM010NN8T", "dateTime": 1520877775270}, {"current_trial": 223, "trialdata": {"rt": -1, "trial_type": "single-stim", "word": "brick", "stimulus": "<p id=\"stim\">BRICK</p>", "conditions": [24, 800, "v", 12000], "internal_node_id": "0.0-160.0", "trial": 6, "time_elapsed": 1004562, "serialpos": 10, "key_press": -1, "wordID": 171, "type": "PRES_VIS", "trial_index": 223}, "uniqueid": "MTK3649:3QILPRALQ62PJPIM58EH0MM010NN8T", "dateTime": 1520877777159}, {"current_trial": 224, "trialdata": {"rt": -1, "trial_type": "single-stim", "word": "tile", "stimulus": "<p id=\"stim\">TILE</p>", "conditions": [24, 800, "v", 12000], "internal_node_id": "0.0-161.0", "trial": 6, "time_elapsed": 1006490, "serialpos": 11, "key_press": -1, "wordID": 1467, "type": "PRES_VIS", "trial_index": 224}, "uniqueid": "MTK3649:3QILPRALQ62PJPIM58EH0MM010NN8T", "dateTime": 1520877779088}, {"current_trial": 225, "trialdata": {"rt": -1, "trial_type": "single-stim", "word": "dancer", "stimulus": "<p id=\"stim\">DANCER</p>", "conditions": [24, 800, "v", 12000], "internal_node_id": "0.0-162.0", "trial": 6, "time_elapsed": 1008244, "serialpos": 12, "key_press": -1, "wordID": 436, "type": "PRES_VIS", "trial_index": 225}, "uniqueid": "MTK3649:3QILPRALQ62PJPIM58EH0MM010NN8T", "dateTime": 1520877780841}, {"current_trial": 226, "trialdata": {"rt": -1, "trial_type": "single-stim", "word": "blackboard", "stimulus": "<p id=\"stim\">BLACKBOARD</p>", "conditions": [24, 800, "v", 12000], "internal_node_id": "0.0-163.0", "trial": 6, "time_elapsed": 1010226, "serialpos": 13, "key_press": -1, "wordID": 132, "type": "PRES_VIS", "trial_index": 226}, "uniqueid": "MTK3649:3QILPRALQ62PJPIM58EH0MM010NN8T", "dateTime": 1520877782823}, {"current_trial": 227, "trialdata": {"rt": -1, "trial_type": "single-stim", "word": "cattle", "stimulus": "<p id=\"stim\">CATTLE</p>", "conditions": [24, 800, "v", 12000], "internal_node_id": "0.0-164.0", "trial": 6, "time_elapsed": 1011997, "serialpos": 14, "key_press": -1, "wordID": 260, "type": "PRES_VIS", "trial_index": 227}, "uniqueid": "MTK3649:3QILPRALQ62PJPIM58EH0MM010NN8T", "dateTime": 1520877784594}, {"current_trial": 228, "trialdata": {"rt": -1, "trial_type": "single-stim", "word": "missile", "stimulus": "<p id=\"stim\">MISSILE</p>", "conditions": [24, 800, "v", 12000], "internal_node_id": "0.0-165.0", "trial": 6, "time_elapsed": 1013780, "serialpos": 15, "key_press": -1, "wordID": 899, "type": "PRES_VIS", "trial_index": 228}, "uniqueid": "MTK3649:3QILPRALQ62PJPIM58EH0MM010NN8T", "dateTime": 1520877786377}, {"current_trial": 229, "trialdata": {"rt": -1, "trial_type": "single-stim", "word": "casket", "stimulus": "<p id=\"stim\">CASKET</p>", "conditions": [24, 800, "v", 12000], "internal_node_id": "0.0-166.0", "trial": 6, "time_elapsed": 1015515, "serialpos": 16, "key_press": -1, "wordID": 254, "type": "PRES_VIS", "trial_index": 229}, "uniqueid": "MTK3649:3QILPRALQ62PJPIM58EH0MM010NN8T", "dateTime": 1520877788113}, {"current_trial": 230, "trialdata": {"rt": -1, "trial_type": "single-stim", "word": "lizard", "stimulus": "<p id=\"stim\">LIZARD</p>", "conditions": [24, 800, "v", 12000], "internal_node_id": "0.0-167.0", "trial": 6, "time_elapsed": 1017359, "serialpos": 17, "key_press": -1, "wordID": 833, "type": "PRES_VIS", "trial_index": 230}, "uniqueid": "MTK3649:3QILPRALQ62PJPIM58EH0MM010NN8T", "dateTime": 1520877789956}, {"current_trial": 231, "trialdata": {"rt": -1, "trial_type": "single-stim", "word": "river", "stimulus": "<p id=\"stim\">RIVER</p>", "conditions": [24, 800, "v", 12000], "internal_node_id": "0.0-168.0", "trial": 6, "time_elapsed": 1019239, "serialpos": 18, "key_press": -1, "wordID": 1193, "type": "PRES_VIS", "trial_index": 231}, "uniqueid": "MTK3649:3QILPRALQ62PJPIM58EH0MM010NN8T", "dateTime": 1520877791836}, {"current_trial": 232, "trialdata": {"rt": -1, "trial_type": "single-stim", "word": "marine", "stimulus": "<p id=\"stim\">MARINE</p>", "conditions": [24, 800, "v", 12000], "internal_node_id": "0.0-169.0", "trial": 6, "time_elapsed": 1020874, "serialpos": 19, "key_press": -1, "wordID": 868, "type": "PRES_VIS", "trial_index": 232}, "uniqueid": "MTK3649:3QILPRALQ62PJPIM58EH0MM010NN8T", "dateTime": 1520877793471}, {"current_trial": 233, "trialdata": {"rt": -1, "trial_type": "single-stim", "word": "shark", "stimulus": "<p id=\"stim\">SHARK</p>", "conditions": [24, 800, "v", 12000], "internal_node_id": "0.0-170.0", "trial": 6, "time_elapsed": 1022515, "serialpos": 20, "key_press": -1, "wordID": 1274, "type": "PRES_VIS", "trial_index": 233}, "uniqueid": "MTK3649:3QILPRALQ62PJPIM58EH0MM010NN8T", "dateTime": 1520877795112}, {"current_trial": 234, "trialdata": {"rt": -1, "trial_type": "single-stim", "word": "dolphin", "stimulus": "<p id=\"stim\">DOLPHIN</p>", "conditions": [24, 800, "v", 12000], "internal_node_id": "0.0-171.0", "trial": 6, "time_elapsed": 1024475, "serialpos": 21, "key_press": -1, "wordID": 482, "type": "PRES_VIS", "trial_index": 234}, "uniqueid": "MTK3649:3QILPRALQ62PJPIM58EH0MM010NN8T", "dateTime": 1520877797072}, {"current_trial": 235, "trialdata": {"rt": -1, "trial_type": "single-stim", "word": "bison", "stimulus": "<p id=\"stim\">BISON</p>", "conditions": [24, 800, "v", 12000], "internal_node_id": "0.0-172.0", "trial": 6, "time_elapsed": 1026288, "serialpos": 22, "key_press": -1, "wordID": 130, "type": "PRES_VIS", "trial_index": 235}, "uniqueid": "MTK3649:3QILPRALQ62PJPIM58EH0MM010NN8T", "dateTime": 1520877798885}, {"current_trial": 236, "trialdata": {"rt": -1, "trial_type": "single-stim", "word": "servant", "stimulus": "<p id=\"stim\">SERVANT</p>", "conditions": [24, 800, "v", 12000], "internal_node_id": "0.0-173.0", "trial": 6, "time_elapsed": 1028245, "serialpos": 23, "key_press": -1, "wordID": 1270, "type": "PRES_VIS", "trial_index": 236}, "uniqueid": "MTK3649:3QILPRALQ62PJPIM58EH0MM010NN8T", "dateTime": 1520877800842}, {"current_trial": 237, "trialdata": {"rt": -1, "trial_type": "single-stim", "stimulus": "", "internal_node_id": "0.0-174.0-0.0", "time_elapsed": 1030680, "key_press": -1, "type": "PRE_RECALL_DELAY", "trial_index": 237}, "uniqueid": "MTK3649:3QILPRALQ62PJPIM58EH0MM010NN8T", "dateTime": 1520877803278}, {"current_trial": 238, "trialdata": {"rt": -1000, "trial_type": "single-audio", "stimulus": "/static/audio/400Hz.wav", "internal_node_id": "0.0-175.0", "time_elapsed": 1031186, "key_press": -1, "type": "PRE_RECALL_ALERT", "trial_index": 238}, "uniqueid": "MTK3649:3QILPRALQ62PJPIM58EH0MM010NN8T", "dateTime": 1520877803783}, {"current_trial": 239, "trialdata": {"rt": [2378, 3736, 7959, 9566, 16403, 21317, 22893, 27523, 41779], "recwords": ["shark", "lizard", "missile", "sheriff", "county", "casket", "fox", "banjo", "bison"], "key_times": [1018, 1469, 1666, 1717, 1922, 2378, 2633, 2798, 2910, 3126, 3207, 3421, 3736, 3978, 4161, 4283, 4441, 4584, 4692, 6328, 6484, 6947, 7226, 7381, 7959, 8239, 8336, 8462, 8529, 8741, 8819, 8976, 9566, 15382, 15505, 15552, 15754, 15900, 16010, 16403, 20362, 20476, 20542, 20737, 20862, 21001, 21317, 22367, 22493, 22617, 22893, 26196, 26307, 26425, 26721, 26879, 27523, 40313, 40501, 40636, 40745, 40840, 41779, 55153, 55244, 56032, 56237], "trial_type": "free-recall", "conditions": [24, 800, "v", 12000], "internal_node_id": "0.0-176.0-0.0", "key_presses": [83, 72, 65, 82, 75, 13, 76, 73, 90, 65, 82, 68, 13, 77, 73, 83, 83, 76, 69, 8, 8, 73, 76, 69, 13, 83, 72, 69, 82, 73, 70, 70, 13, 67, 79, 85, 78, 84, 89, 13, 67, 65, 83, 75, 69, 84, 13, 70, 79, 88, 13, 66, 65, 78, 74, 79, 13, 66, 73, 83, 79, 78, 13, 82, 65, 8, 8], "trial": 6, "time_elapsed": 1091191, "type": "FREE_RECALL", "trial_index": 239}, "uniqueid": "MTK3649:3QILPRALQ62PJPIM58EH0MM010NN8T", "dateTime": 1520877863791}, {"current_trial": 240, "trialdata": {"rt": 777, "trial_type": "text", "internal_node_id": "0.0-177.0", "time_elapsed": 1093972, "key_press": 32, "type": "INSTRUCTIONS", "trial_index": 240}, "uniqueid": "MTK3649:3QILPRALQ62PJPIM58EH0MM010NN8T", "dateTime": 1520877866569}, {"current_trial": 241, "trialdata": {"rt": [2744, 5954, 10220, 15404, 20586, 23094], "trial_type": "math-distractor", "key_times": [2139, 2398, 2744, 4800, 5053, 5582, 5718, 5954, 9386, 9899, 10220, 15054, 15230, 15404, 19942, 20224, 20586, 22687, 22880, 23094], "responses": ["18", "12", "16", "22", "16", "11"], "num2": [2, 1, 5, 5, 3, 9, 4], "num3": [8, 8, 7, 9, 7, 1, 5], "conditions": [12, 800, "v", 24000], "internal_node_id": "0.0-178.0", "key_presses": [49, 56, 13, 49, 51, 8, 50, 13, 49, 54, 13, 50, 50, 13, 49, 54, 13, 49, 49, 13], "trial": 7, "time_elapsed": 1119979, "type": "DISTRACTOR", "trial_index": 241, "num1": [8, 3, 4, 8, 6, 1, 4]}, "uniqueid": "MTK3649:3QILPRALQ62PJPIM58EH0MM010NN8T", "dateTime": 1520877892576}, {"current_trial": 242, "trialdata": {"rt": -1, "trial_type": "single-stim", "stimulus": "<p id=\"stim\">10</p>", "internal_node_id": "0.0-179.0-0.0", "time_elapsed": 1122982, "key_press": -1, "trial_index": 242}, "uniqueid": "MTK3649:3QILPRALQ62PJPIM58EH0MM010NN8T", "dateTime": 1520877895580}, {"current_trial": 243, "trialdata": {"rt": -1, "trial_type": "single-stim", "stimulus": "<p id=\"stim\">9</p>", "internal_node_id": "0.0-179.0-1.0", "time_elapsed": 1123986, "key_press": -1, "trial_index": 243}, "uniqueid": "MTK3649:3QILPRALQ62PJPIM58EH0MM010NN8T", "dateTime": 1520877896584}, {"current_trial": 244, "trialdata": {"rt": -1, "trial_type": "single-stim", "stimulus": "<p id=\"stim\">8</p>", "internal_node_id": "0.0-179.0-2.0", "time_elapsed": 1124991, "key_press": -1, "trial_index": 244}, "uniqueid": "MTK3649:3QILPRALQ62PJPIM58EH0MM010NN8T", "dateTime": 1520877897588}, {"current_trial": 245, "trialdata": {"rt": -1, "trial_type": "single-stim", "stimulus": "<p id=\"stim\">7</p>", "internal_node_id": "0.0-179.0-3.0", "time_elapsed": 1125994, "key_press": -1, "trial_index": 245}, "uniqueid": "MTK3649:3QILPRALQ62PJPIM58EH0MM010NN8T", "dateTime": 1520877898591}, {"current_trial": 246, "trialdata": {"rt": -1, "trial_type": "single-stim", "stimulus": "<p id=\"stim\">6</p>", "internal_node_id": "0.0-179.0-4.0", "time_elapsed": 1126998, "key_press": -1, "trial_index": 246}, "uniqueid": "MTK3649:3QILPRALQ62PJPIM58EH0MM010NN8T", "dateTime": 1520877899595}, {"current_trial": 247, "trialdata": {"rt": -1, "trial_type": "single-stim", "stimulus": "<p id=\"stim\">5</p>", "internal_node_id": "0.0-179.0-5.0", "time_elapsed": 1128001, "key_press": -1, "trial_index": 247}, "uniqueid": "MTK3649:3QILPRALQ62PJPIM58EH0MM010NN8T", "dateTime": 1520877900598}, {"current_trial": 248, "trialdata": {"rt": -1, "trial_type": "single-stim", "stimulus": "<p id=\"stim\">4</p>", "internal_node_id": "0.0-179.0-6.0", "time_elapsed": 1129003, "key_press": -1, "trial_index": 248}, "uniqueid": "MTK3649:3QILPRALQ62PJPIM58EH0MM010NN8T", "dateTime": 1520877901600}, {"current_trial": 249, "trialdata": {"rt": -1, "trial_type": "single-stim", "stimulus": "<p id=\"stim\">3</p>", "internal_node_id": "0.0-179.0-7.0", "time_elapsed": 1130007, "key_press": -1, "trial_index": 249}, "uniqueid": "MTK3649:3QILPRALQ62PJPIM58EH0MM010NN8T", "dateTime": 1520877902604}, {"current_trial": 250, "trialdata": {"rt": -1, "trial_type": "single-stim", "stimulus": "<p id=\"stim\">2</p>", "internal_node_id": "0.0-179.0-8.0", "time_elapsed": 1131010, "key_press": -1, "trial_index": 250}, "uniqueid": "MTK3649:3QILPRALQ62PJPIM58EH0MM010NN8T", "dateTime": 1520877903607}, {"current_trial": 251, "trialdata": {"rt": -1, "trial_type": "single-stim", "stimulus": "<p id=\"stim\">1</p>", "internal_node_id": "0.0-179.0-9.0", "time_elapsed": 1132013, "key_press": -1, "trial_index": 251}, "uniqueid": "MTK3649:3QILPRALQ62PJPIM58EH0MM010NN8T", "dateTime": 1520877904610}, {"current_trial": 252, "trialdata": {"rt": -1, "trial_type": "single-stim", "stimulus": "<p id=\"stim\">+</p>", "internal_node_id": "0.0-180.0-0.0", "time_elapsed": 1133516, "key_press": -1, "type": "FIXATION", "trial_index": 252}, "uniqueid": "MTK3649:3QILPRALQ62PJPIM58EH0MM010NN8T", "dateTime": 1520877906113}, {"current_trial": 253, "trialdata": {"rt": -1, "trial_type": "single-stim", "word": "supper", "stimulus": "<p id=\"stim\">SUPPER</p>", "conditions": [12, 800, "v", 24000], "internal_node_id": "0.0-181.0", "trial": 7, "time_elapsed": 1134316, "serialpos": 0, "key_press": -1, "wordID": 1410, "type": "PRES_VIS", "trial_index": 253}, "uniqueid": "MTK3649:3QILPRALQ62PJPIM58EH0MM010NN8T", "dateTime": 1520877906914}, {"current_trial": 254, "trialdata": {"rt": -1, "trial_type": "single-stim", "word": "pizza", "stimulus": "<p id=\"stim\">PIZZA</p>", "conditions": [12, 800, "v", 24000], "internal_node_id": "0.0-182.0", "trial": 7, "time_elapsed": 1136240, "serialpos": 1, "key_press": -1, "wordID": 1078, "type": "PRES_VIS", "trial_index": 254}, "uniqueid": "MTK3649:3QILPRALQ62PJPIM58EH0MM010NN8T", "dateTime": 1520877908838}, {"current_trial": 