{"assignmentId": "38SKSKU7R24SKVRE2HAT0JCPY4MILT", "workerId": "MTK3103", "questiondata": {"origin": "United States", "strat-rehearsal": "0", "marital": "Single", "education": "Some college", "ethnicity": "Not Hispanic", "color_depth": 24, "distracted": "No", "wrote-notes": "No", "strat-other": "", "screen_width": 1366, "avail_screen_width": 1366, "avail_screen_height": 728, "strat-image": "77", "language": "english", "gender": "Female", "age": "36", "gender_other": "", "race": ["White"], "strat-categorize": "45", "pixel_depth": 24, "strat-spatial": "0", "strat-story": "0", "race_other": "", "screen_height": 768}, "bonus": 0, "hitId": "3V7ICJJAZANKCV8T0DET3VAHX3W4BT", "counterbalance": 161, "useragent": "Mozilla/5.0 (Windows NT 10.0; Win64; x64) AppleWebKit/537.36 (KHTML, like Gecko) Chrome/64.0.3282.140 Safari/537.36", "eventdata": [{"eventtype": "initialized", "interval": 0, "value": null, "timestamp": 1520017234771}, {"eventtype": "window_resize", "interval": 0, "value": [1366, 721], "timestamp": 1520017234771}, {"eventtype": "focus", "interval": 107342, "value": "off", "timestamp": 1520017342113}, {"eventtype": "focus", "interval": 3, "value": "on", "timestamp": 1520017342116}, {"eventtype": "focus", "interval": 514843, "value": "off", "timestamp": 1520017856959}, {"eventtype": "focus", "interval": 8144, "value": "on", "timestamp": 1520017865103}, {"eventtype": "focus", "interval": 1180603, "value": "off", "timestamp": 1520019045706}, {"eventtype": "focus", "interval": 10957, "value": "on", "timestamp": 1520019056663}, {"eventtype": "focus", "interval": 1248704, "value": "off", "timestamp": 1520020305367}, {"eventtype": "focus", "interval": 9228, "value": "on", "timestamp": 1520020314595}], "data": [{"current_trial": 0, "trialdata": {"rt": 1264, "trial_type": "text", "internal_node_id": "0.0-0.0", "time_elapsed": 1325, "key_press": 175, "type": "INSTRUCTIONS", "trial_index": 0}, "uniqueid": "MTK3103:38SKSKU7R24SKVRE2HAT0JCPY4MILT", "dateTime": 1520017237119}, {"current_trial": 1, "trialdata": {"rt": 72859, "trial_type": "text", "internal_node_id": "0.0-1.0", "time_elapsed": 74189, "key_press": 175, "type": "INSTRUCTIONS", "trial_index": 1}, "uniqueid": "MTK3103:38SKSKU7R24SKVRE2HAT0JCPY4MILT", "dateTime": 1520017309981}, {"current_trial": 2, "trialdata": {"rt": [29011, 100419], "trial_type": "audio-test", "responses": ["potion", "ocean"], "internal_node_id": "0.0-2.0", "time_elapsed": 174659, "type": "AUDIO_TEST", "trial_index": 2}, "uniqueid": "MTK3103:38SKSKU7R24SKVRE2HAT0JCPY4MILT", "dateTime": 1520017410451}, {"current_trial": 3, "trialdata": {"rt": [12254], "trial_type": "audio-test", "responses": ["crystal"], "internal_node_id": "0.0-3.0", "time_elapsed": 186930, "type": "AUDIO_TEST", "trial_index": 3}, "uniqueid": "MTK3103:38SKSKU7R24SKVRE2HAT0JCPY4MILT", "dateTime": 1520017422722}, {"current_trial": 4, "trialdata": {"rt": [7412], "trial_type": "audio-test", "responses": ["spice"], "internal_node_id": "0.0-4.0", "time_elapsed": 194353, "type": "AUDIO_TEST", "trial_index": 4}, "uniqueid": "MTK3103:38SKSKU7R24SKVRE2HAT0JCPY4MILT", "dateTime": 1520017430145}, {"current_trial": 5, "trialdata": {"rt": 34812, "trial_type": "survey-text", "responses": "{\"Q0\":\"1030\",\"Q1\":\"800\",\"Q2\":\"5\"}", "internal_node_id": "0.0-5.0", "time_elapsed": 229951, "type": "SLEEP_SURVEY", "trial_index": 5}, "uniqueid": "MTK3103:38SKSKU7R24SKVRE2HAT0JCPY4MILT", "dateTime": 1520017465743}, {"current_trial": 6, "trialdata": {"rt": 87075, "trial_type": "text", "internal_node_id": "0.0-6.0", "time_elapsed": 318031, "key_press": 32, "type": "INSTRUCTIONS", "trial_index": 6}, "uniqueid": "MTK3103:38SKSKU7R24SKVRE2HAT0JCPY4MILT", "dateTime": 1520017553823}, {"current_trial": 7, "trialdata": {"rt": 17651, "trial_type": "text", "internal_node_id": "0.0-7.0", "time_elapsed": 336186, "key_press": 32, "type": "INSTRUCTIONS", "trial_index": 7}, "uniqueid": "MTK3103:38SKSKU7R24SKVRE2HAT0JCPY4MILT", "dateTime": 1520017571978}, {"current_trial": 8, "trialdata": {"rt": 17402, "trial_type": "text", "internal_node_id": "0.0-8.0", "time_elapsed": 354091, "key_press": 32, "type": "INSTRUCTIONS", "trial_index": 8}, "uniqueid": "MTK3103:38SKSKU7R24SKVRE2HAT0JCPY4MILT", "dateTime": 1520017589885}, {"current_trial": 9, "trialdata": {"rt": [5337, 7913, 10292, 16316], "trial_type": "math-distractor", "key_times": [4808, 4863, 5337, 7583, 7913, 9900, 10292, 15837, 16045, 16316], "responses": ["15", "4", "8", "20"], "num2": [7, 1, 1, 9, 7], "num3": [4, 2, 2, 9, 7], "conditions": [18, 1200, "v", 18000], "internal_node_id": "0.0-9.0", "key_presses": [97, 101, 13, 100, 13, 104, 13, 98, 96, 13], "trial": 0, "time_elapsed": 373165, "type": "DISTRACTOR", "trial_index": 9, "num1": [4, 1, 5, 6, 1]}, "uniqueid": "MTK3103:38SKSKU7R24SKVRE2HAT0JCPY4MILT", "dateTime": 1520017608958}, {"current_trial": 10, "trialdata": {"rt": -1, "trial_type": "single-stim", "stimulus": "<p id=\"stim\">10</p>", "internal_node_id": "0.0-10.0-0.0", "time_elapsed": 376173, "key_press": -1, "trial_index": 10}, "uniqueid": "MTK3103:38SKSKU7R24SKVRE2HAT0JCPY4MILT", "dateTime": 1520017611965}, {"current_trial": 11, "trialdata": {"rt": -1, "trial_type": "single-stim", "stimulus": "<p id=\"stim\">9</p>", "internal_node_id": "0.0-10.0-1.0", "time_elapsed": 377179, "key_press": -1, "trial_index": 11}, "uniqueid": "MTK3103:38SKSKU7R24SKVRE2HAT0JCPY4MILT", "dateTime": 1520017612972}, {"current_trial": 12, "trialdata": {"rt": -1, "trial_type": "single-stim", "stimulus": "<p id=\"stim\">8</p>", "internal_node_id": "0.0-10.0-2.0", "time_elapsed": 378183, "key_press": -1, "trial_index": 12}, "uniqueid": "MTK3103:38SKSKU7R24SKVRE2HAT0JCPY4MILT", "dateTime": 1520017613975}, {"current_trial": 13, "trialdata": {"rt": -1, "trial_type": "single-stim", "stimulus": "<p id=\"stim\">7</p>", "internal_node_id": "0.0-10.0-3.0", "time_elapsed": 379185, "key_press": -1, "trial_index": 13}, "uniqueid": "MTK3103:38SKSKU7R24SKVRE2HAT0JCPY4MILT", "dateTime": 1520017614978}, {"current_trial": 14, "trialdata": {"rt": -1, "trial_type": "single-stim", "stimulus": "<p id=\"stim\">6</p>", "internal_node_id": "0.0-10.0-4.0", "time_elapsed": 380190, "key_press": -1, "trial_index": 14}, "uniqueid": "MTK3103:38SKSKU7R24SKVRE2HAT0JCPY4MILT", "dateTime": 1520017615983}, {"current_trial": 15, "trialdata": {"rt": -1, "trial_type": "single-stim", "stimulus": "<p id=\"stim\">5</p>", "internal_node_id": "0.0-10.0-5.0", "time_elapsed": 381204, "key_press": -1, "trial_index": 15}, "uniqueid": "MTK3103:38SKSKU7R24SKVRE2HAT0JCPY4MILT", "dateTime": 1520017616997}, {"current_trial": 16, "trialdata": {"rt": -1, "trial_type": "single-stim", "stimulus": "<p id=\"stim\">4</p>", "internal_node_id": "0.0-10.0-6.0", "time_elapsed": 382209, "key_press": -1, "trial_index": 16}, "uniqueid": "MTK3103:38SKSKU7R24SKVRE2HAT0JCPY4MILT", "dateTime": 1520017618002}, {"current_trial": 17, "trialdata": {"rt": -1, "trial_type": "single-stim", "stimulus": "<p id=\"stim\">3</p>", "internal_node_id": "0.0-10.0-7.0", "time_elapsed": 383217, "key_press": -1, "trial_index": 17}, "uniqueid": "MTK3103:38SKSKU7R24SKVRE2HAT0JCPY4MILT", "dateTime": 1520017619010}, {"current_trial": 18, "trialdata": {"rt": -1, "trial_type": "single-stim", "stimulus": "<p id=\"stim\">2</p>", "internal_node_id": "0.0-10.0-8.0", "time_elapsed": 384252, "key_press": -1, "trial_index": 18}, "uniqueid": "MTK3103:38SKSKU7R24SKVRE2HAT0JCPY4MILT", "dateTime": 1520017620045}, {"current_trial": 19, "trialdata": {"rt": -1, "trial_type": "single-stim", "stimulus": "<p id=\"stim\">1</p>", "internal_node_id": "0.0-10.0-9.0", "time_elapsed": 385255, "key_press": -1, "trial_index": 19}, "uniqueid": "MTK3103:38SKSKU7R24SKVRE2HAT0JCPY4MILT", "dateTime": 1520017621047}, {"current_trial": 20, "trialdata": {"rt": -1, "trial_type": "single-stim", "stimulus": "<p id=\"stim\">+</p>", "internal_node_id": "0.0-11.0-0.0", "time_elapsed": 386758, "key_press": -1, "type": "FIXATION", "trial_index": 20}, "uniqueid": "MTK3103:38SKSKU7R24SKVRE2HAT0JCPY4MILT", "dateTime": 1520017622550}, {"current_trial": 21, "trialdata": {"rt": -1, "trial_type": "single-stim", "word": "omelet", "stimulus": "<p id=\"stim\">OMELET</p>", "conditions": [18, 1200, "v", 18000], "internal_node_id": "0.0-12.0", "trial": 0, "time_elapsed": 387962, "serialpos": 0, "key_press": -1, "wordID": 975, "type": "PRES_VIS", "trial_index": 21}, "uniqueid": "MTK3103:38SKSKU7R24SKVRE2HAT0JCPY4MILT", "dateTime": 1520017623755}, {"current_trial": 22, "trialdata": {"rt": -1, "trial_type": "single-stim", "word": "butcher", "stimulus": "<p id=\"stim\">BUTCHER</p>", "conditions": [18, 1200, "v", 18000], "internal_node_id": "0.0-13.0", "trial": 0, "time_elapsed": 390237, "serialpos": 1, "key_press": -1, "wordID": 202, "type": "PRES_VIS", "trial_index": 22}, "uniqueid": "MTK3103:38SKSKU7R24SKVRE2HAT0JCPY4MILT", "dateTime": 1520017626029}, {"current_trial": 23, "trialdata": {"rt": -1, "trial_type": "single-stim", "word": "seagull", "stimulus": "<p id=\"stim\">SEAGULL</p>", "conditions": [18, 1200, "v", 18000], "internal_node_id": "0.0-14.0", "trial": 0, "time_elapsed": 392360, "serialpos": 2, "key_press": -1, "wordID": 1260, "type": "PRES_VIS", "trial_index": 23}, "uniqueid": "MTK3103:38SKSKU7R24SKVRE2HAT0JCPY4MILT", "dateTime": 1520017628152}, {"current_trial": 24, "trialdata": {"rt": -1, "trial_type": "single-stim", "word": "flag", "stimulus": "<p id=\"stim\">FLAG</p>", "conditions": [18, 1200, "v", 18000], "internal_node_id": "0.0-15.0", "trial": 0, "time_elapsed": 394601, "serialpos": 3, "key_press": -1, "wordID": 572, "type": "PRES_VIS", "trial_index": 24}, "uniqueid": "MTK3103:38SKSKU7R24SKVRE2HAT0JCPY4MILT", "dateTime": 1520017630393}, {"current_trial": 25, "trialdata": {"rt": -1, "trial_type": "single-stim", "word": "lava", "stimulus": "<p id=\"stim\">LAVA</p>", "conditions": [18, 1200, "v", 18000], "internal_node_id": "0.0-16.0", "trial": 0, "time_elapsed": 396700, "serialpos": 4, "key_press": -1, "wordID": 803, "type": "PRES_VIS", "trial_index": 25}, "uniqueid": "MTK3103:38SKSKU7R24SKVRE2HAT0JCPY4MILT", "dateTime": 1520017632492}, {"current_trial": 26, "trialdata": {"rt": -1, "trial_type": "single-stim", "word": "fleet", "stimulus": "<p id=\"stim\">FLEET</p>", "conditions": [18, 1200, "v", 18000], "internal_node_id": "0.0-17.0", "trial": 0, "time_elapsed": 398964, "serialpos": 5, "key_press": -1, "wordID": 577, "type": "PRES_VIS", "trial_index": 26}, "uniqueid": "MTK3103:38SKSKU7R24SKVRE2HAT0JCPY4MILT", "dateTime": 1520017634756}, {"current_trial": 27, "trialdata": {"rt": -1, "trial_type": "single-stim", "word": "flashlight", "stimulus": "<p id=\"stim\">FLASHLIGHT</p>", "conditions": [18, 1200, "v", 18000], "internal_node_id": "0.0-18.0", "trial": 0, "time_elapsed": 401063, "serialpos": 6, "key_press": -1, "wordID": 574, "type": "PRES_VIS", "trial_index": 27}, "uniqueid": "MTK3103:38SKSKU7R24SKVRE2HAT0JCPY4MILT", "dateTime": 1520017636855}, {"current_trial": 28, "trialdata": {"rt": -1, "trial_type": "single-stim", "word": "patrol", "stimulus": "<p id=\"stim\">PATROL</p>", "conditions": [18, 1200, "v", 18000], "internal_node_id": "0.0-19.0", "trial": 0, "time_elapsed": 403389, "serialpos": 7, "key_press": -1, "wordID": 1026, "type": "PRES_VIS", "trial_index": 28}, "uniqueid": "MTK3103:38SKSKU7R24SKVRE2HAT0JCPY4MILT", "dateTime": 1520017639181}, {"current_trial": 29, "trialdata": {"rt": -1, "trial_type": "single-stim", "word": "fungus", "stimulus": "<p id=\"stim\">FUNGUS</p>", "conditions": [18, 1200, "v", 18000], "internal_node_id": "0.0-20.0", "trial": 0, "time_elapsed": 405489, "serialpos": 8, "key_press": -1, "wordID": 613, "type": "PRES_VIS", "trial_index": 29}, "uniqueid": "MTK3103:38SKSKU7R24SKVRE2HAT0JCPY4MILT", "dateTime": 1520017641281}, {"current_trial": 30, "trialdata": {"rt": -1, "trial_type": "single-stim", "word": "market", "stimulus": "<p id=\"stim\">MARKET</p>", "conditions": [18, 1200, "v", 18000], "internal_node_id": "0.0-21.0", "trial": 0, "time_elapsed": 407591, "serialpos": 9, "key_press": -1, "wordID": 870, "type": "PRES_VIS", "trial_index": 30}, "uniqueid": "MTK3103:38SKSKU7R24SKVRE2HAT0JCPY4MILT", "dateTime": 1520017643383}, {"current_trial": 31, "trialdata": {"rt": -1, "trial_type": "single-stim", "word": "tart", "stimulus": "<p id=\"stim\">TART</p>", "conditions": [18, 1200, "v", 18000], "internal_node_id": "0.0-22.0", "trial": 0, "time_elapsed": 409717, "serialpos": 10, "key_press": -1, "wordID": 1435, "type": "PRES_VIS", "trial_index": 31}, "uniqueid": "MTK3103:38SKSKU7R24SKVRE2HAT0JCPY4MILT", "dateTime": 1520017645509}, {"current_trial": 32, "trialdata": {"rt": -1, "trial_type": "single-stim", "word": "cook", "stimulus": "<p id=\"stim\">COOK</p>", "conditions": [18, 1200, "v", 18000], "internal_node_id": "0.0-23.0", "trial": 0, "time_elapsed": 411900, "serialpos": 11, "key_press": -1, "wordID": 371, "type": "PRES_VIS", "trial_index": 32}, "uniqueid": "MTK3103:38SKSKU7R24SKVRE2HAT0JCPY4MILT", "dateTime": 1520017647693}, {"current_trial": 33, "trialdata": {"rt": -1, "trial_type": "single-stim", "word": "tractor", "stimulus": "<p id=\"stim\">TRACTOR</p>", "conditions": [18, 1200, "v", 18000], "internal_node_id": "0.0-24.0", "trial": 0, "time_elapsed": 414033, "serialpos": 12, "key_press": -1, "wordID": 1492, "type": "PRES_VIS", "trial_index": 33}, "uniqueid": "MTK3103:38SKSKU7R24SKVRE2HAT0JCPY4MILT", "dateTime": 1520017649825}, {"current_trial": 34, "trialdata": {"rt": -1, "trial_type": "single-stim", "word": "hostess", "stimulus": "<p id=\"stim\">HOSTESS</p>", "conditions": [18, 1200, "v", 18000], "internal_node_id": "0.0-25.0", "trial": 0, "time_elapsed": 416150, "serialpos": 13, "key_press": -1, "wordID": 722, "type": "PRES_VIS", "trial_index": 34}, "uniqueid": "MTK3103:38SKSKU7R24SKVRE2HAT0JCPY4MILT", "dateTime": 1520017651943}, {"current_trial": 35, "trialdata": {"rt": -1, "trial_type": "single-stim", "word": "powder", "stimulus": "<p id=\"stim\">POWDER</p>", "conditions": [18, 1200, "v", 18000], "internal_node_id": "0.0-26.0", "trial": 0, "time_elapsed": 418470, "serialpos": 14, "key_press": -1, "wordID": 1116, "type": "PRES_VIS", "trial_index": 35}, "uniqueid": "MTK3103:38SKSKU7R24SKVRE2HAT0JCPY4MILT", "dateTime": 1520017654263}, {"current_trial": 36, "trialdata": {"rt": -1, "trial_type": "single-stim", "word": "mailman", "stimulus": "<p id=\"stim\">MAILMAN</p>", "conditions": [18, 1200, "v", 18000], "internal_node_id": "0.0-27.0", "trial": 0, "time_elapsed": 420531, "serialpos": 15, "key_press": -1, "wordID": 857, "type": "PRES_VIS", "trial_index": 36}, "uniqueid": "MTK3103:38SKSKU7R24SKVRE2HAT0JCPY4MILT", "dateTime": 1520017656323}, {"current_trial": 37, "trialdata": {"rt": -1, "trial_type": "single-stim", "word": "shark", "stimulus": "<p id=\"stim\">SHARK</p>", "conditions": [18, 1200, "v", 18000], "internal_node_id": "0.0-28.0", "trial": 0, "time_elapsed": 422644, "serialpos": 16, "key_press": -1, "wordID": 1274, "type": "PRES_VIS", "trial_index": 37}, "uniqueid": "MTK3103:38SKSKU7R24SKVRE2HAT0JCPY4MILT", "dateTime": 1520017658436}, {"current_trial": 38, "trialdata": {"rt": -1, "trial_type": "single-stim", "word": "mustard", "stimulus": "<p id=\"stim\">MUSTARD</p>", "conditions": [18, 1200, "v", 18000], "internal_node_id": "0.0-29.0", "trial": 0, "time_elapsed": 424867, "serialpos": 17, "key_press": -1, "wordID": 934, "type": "PRES_VIS", "trial_index": 38}, "uniqueid": "MTK3103:38SKSKU7R24SKVRE2HAT0JCPY4MILT", "dateTime": 1520017660660}, {"current_trial": 39, "trialdata": {"rt": -1, "trial_type": "single-stim", "stimulus": "", "internal_node_id": "0.0-30.0-0.0", "time_elapsed": 427038, "key_press": -1, "type": "PRE_RECALL_DELAY", "trial_index": 39}, "uniqueid": "MTK3103:38SKSKU7R24SKVRE2HAT0JCPY4MILT", "dateTime": 1520017662830}, {"current_trial": 40, "trialdata": {"rt": -1000, "trial_type": "single-audio", "stimulus": "/static/audio/400Hz.wav", "internal_node_id": "0.0-31.0", "time_elapsed": 427542, "key_press": -1, "type": "PRE_RECALL_ALERT", "trial_index": 40}, "uniqueid": "MTK3103:38SKSKU7R24SKVRE2HAT0JCPY4MILT", "dateTime": 1520017663334}, {"current_trial": 41, "trialdata": {"rt": [3671, 5502, 6786, 8788, 14209, 27343, 40163, 57850], "recwords": ["mustard", "seagull", "flag", "hostess", "omelete", "tart", "construction", ""], "key_times": [2122, 2350, 2499, 2706, 2853, 3081, 3440, 3671, 4051, 4227, 4360, 4581, 4737, 4873, 5034, 5502, 5963, 6149, 6249, 6489, 6786, 7393, 7540, 7681, 7885, 8035, 8262, 8425, 8788, 10155, 10371, 10608, 10817, 10996, 11302, 12197, 12447, 13432, 13634, 13889, 14209, 26613, 26763, 26891, 27129, 27343, 37937, 38044, 38166, 38313, 38504, 38704, 38860, 39057, 39331, 39446, 39524, 39686, 40163, 57850], "trial_type": "free-recall", "conditions": [18, 1200, "v", 18000], "internal_node_id": "0.0-32.0-0.0", "key_presses": [77, 85, 83, 84, 65, 82, 68, 13, 83, 69, 65, 71, 85, 76, 76, 13, 70, 76, 65, 71, 13, 72, 79, 83, 84, 69, 83, 83, 13, 79, 77, 69, 76, 69, 84, 84, 69, 8, 8, 69, 13, 84, 65, 82, 84, 13, 67, 79, 78, 83, 84, 82, 85, 67, 84, 73, 79, 78, 13, 32], "trial": 0, "time_elapsed": 487547, "type": "FREE_RECALL", "trial_index": 41}, "uniqueid": "MTK3103:38SKSKU7R24SKVRE2HAT0JCPY4MILT", "dateTime": 1520017723345}, {"current_trial": 42, "trialdata": {"rt": 11417, "trial_type": "text", "internal_node_id": "0.0-33.0", "time_elapsed": 500973, "key_press": 32, "type": "INSTRUCTIONS", "trial_index": 42}, "uniqueid": "MTK3103:38SKSKU7R24SKVRE2HAT0JCPY4MILT", "dateTime": 1520017736765}, {"current_trial": 43, "trialdata": {"rt": [3501, 8737, 11965, 15559, 17926], "trial_type": "math-distractor", "key_times": [3156, 3501, 8331, 8509, 8737, 11657, 11965, 15155, 15264, 15559, 17603, 17748, 17926], "responses": ["8", "20", "9", "15", "11"], "num2": [2, 4, 4, 5, 1, 3], "num3": [4, 8, 2, 8, 9, 4], "conditions": [18, 1200, "v", 18000], "internal_node_id": "0.0-34.0", "key_presses": [104, 13, 98, 96, 13, 105, 13, 97, 101, 13, 97, 97, 13], "trial": 1, "time_elapsed": 520989, "type": "DISTRACTOR", "trial_index": 43, "num1": [2, 8, 3, 2, 1, 4]}, "uniqueid": "MTK3103:38SKSKU7R24SKVRE2HAT0JCPY4MILT", "dateTime": 1520017756781}, {"current_trial": 44, "trialdata": {"rt": -1, "trial_type": "single-stim", "stimulus": "<p id=\"stim\">10</p>", "internal_node_id": "0.0-35.0-0.0", "time_elapsed": 523993, "key_press": -1, "trial_index": 44}, "uniqueid": "MTK3103:38SKSKU7R24SKVRE2HAT0JCPY4MILT", "dateTime": 1520017759786}, {"current_trial": 45, "trialdata": {"rt": -1, "trial_type": "single-stim", "stimulus": "<p id=\"stim\">9</p>", "internal_node_id": "0.0-35.0-1.0", "time_elapsed": 524996, "key_press": -1, "trial_index": 45}, "uniqueid": "MTK3103:38SKSKU7R24SKVRE2HAT0JCPY4MILT", "dateTime": 1520017760788}, {"current_trial": 46, "trialdata": {"rt": -1, "trial_type": "single-stim", "stimulus": "<p id=\"stim\">8</p>", "internal_node_id": "0.0-35.0-2.0", "time_elapsed": 525999, "key_press": -1, "trial_index": 46}, "uniqueid": "MTK3103:38SKSKU7R24SKVRE2HAT0JCPY4MILT", "dateTime": 1520017761792}, {"current_trial": 47, "trialdata": {"rt": -1, "trial_type": "single-stim", "stimulus": "<p id=\"stim\">7</p>", "internal_node_id": "0.0-35.0-3.0", "time_elapsed": 527002, "key_press": -1, "trial_index": 47}, "uniqueid": "MTK3103:38SKSKU7R24SKVRE2HAT0JCPY4MILT", "dateTime": 1520017762794}, {"current_trial": 48, "trialdata": {"rt": -1, "trial_type": "single-stim", "stimulus": "<p id=\"stim\">6</p>", "internal_node_id": "0.0-35.0-4.0", "time_elapsed": 528005, "key_press": -1, "trial_index": 48}, "uniqueid": "MTK3103:38SKSKU7R24SKVRE2HAT0JCPY4MILT", "dateTime": 1520017763797}, {"current_trial": 49, "trialdata": {"rt": -1, "trial_type": "single-stim", "stimulus": "<p id=\"stim\">5</p>", "internal_node_id": "0.0-35.0-5.0", "time_elapsed": 529009, "key_press": -1, "trial_index": 49}, "uniqueid": "MTK3103:38SKSKU7R24SKVRE2HAT0JCPY4MILT", "dateTime": 1520017764801}, {"current_trial": 50, "trialdata": {"rt": -1, "trial_type": "single-stim", "stimulus": "<p id=\"stim\">4</p>", "internal_node_id": "0.0-35.0-6.0", "time_elapsed": 530018, "key_press": -1, "trial_index": 50}, "uniqueid": "MTK3103:38SKSKU7R24SKVRE2HAT0JCPY4MILT", "dateTime": 1520017765810}, {"current_trial": 51, "trialdata": {"rt": -1, "trial_type": "single-stim", "stimulus": "<p id=\"stim\">3</p>", "internal_node_id": "0.0-35.0-7.0", "time_elapsed": 531024, "key_press": -1, "trial_index": 51}, "uniqueid": "MTK3103:38SKSKU7R24SKVRE2HAT0JCPY4MILT", "dateTime": 1520017766816}, {"current_trial": 52, "trialdata": {"rt": -1, "trial_type": "single-stim", "stimulus": "<p id=\"stim\">2</p>", "internal_node_id": "0.0-35.0-8.0", "time_elapsed": 532028, "key_press": -1, "trial_index": 52}, "uniqueid": "MTK3103:38SKSKU7R24SKVRE2HAT0JCPY4MILT", "dateTime": 1520017767821}, {"current_trial": 53, "trialdata": {"rt": -1, "trial_type": "single-stim", "stimulus": "<p id=\"stim\">1</p>", "internal_node_id": "0.0-35.0-9.0", "time_elapsed": 533032, "key_press": -1, "trial_index": 53}, "uniqueid": "MTK3103:38SKSKU7R24SKVRE2HAT0JCPY4MILT", "dateTime": 1520017768824}, {"current_trial": 54, "trialdata": {"rt": -1, "trial_type": "single-stim", "stimulus": "<p id=\"stim\">+</p>", "internal_node_id": "0.0-36.0-0.0", "time_elapsed": 534535, "key_press": -1, "type": "FIXATION", "trial_index": 54}, "uniqueid": "MTK3103:38SKSKU7R24SKVRE2HAT0JCPY4MILT", "dateTime": 1520017770327}, {"current_trial": 55, "trialdata": {"rt": -1, "trial_type": "single-stim", "word": "apron", "stimulus": "<p id=\"stim\">APRON</p>", "conditions": [18, 1200, "v", 18000], "internal_node_id": "0.0-37.0", "trial": 1, "time_elapsed": 535737, "serialpos": 0, "key_press": -1, "wordID": 34, "type": "PRES_VIS", "trial_index": 55}, "uniqueid": "MTK3103:38SKSKU7R24SKVRE2HAT0JCPY4MILT", "dateTime": 1520017771529}, {"current_trial": 56, "trialdata": {"rt": -1, "trial_type": "single-stim", "word": "scalpel", "stimulus": "<p id=\"stim\">SCALPEL</p>", "conditions": [18, 1200, "v", 18000], "internal_node_id": "0.0-38.0", "trial": 1, "time_elapsed": 537823, "serialpos": 1, "key_press": -1, "wordID": 1242, "type": "PRES_VIS", "trial_index": 56}, "uniqueid": "MTK3103:38SKSKU7R24SKVRE2HAT0JCPY4MILT", "dateTime": 1520017773615}, {"current_trial": 57, "trialdata": {"rt": -1, "trial_type": "single-stim", "word": "cocoon", "stimulus": "<p id=\"stim\">COCOON</p>", "conditions": [18, 1200, "v", 18000], "internal_node_id": "0.0-39.0", "trial": 1, "time_elapsed": 540103, "serialpos": 2, "key_press": -1, "wordID": 338, "type": "PRES_VIS", "trial_index": 57}, "uniqueid": "MTK3103:38SKSKU7R24SKVRE2HAT0JCPY4MILT", "dateTime": 1520017775896}, {"current_trial": 58, "trialdata": {"rt": -1, "trial_type": "single-stim", "word": "tribe", "stimulus": "<p id=\"stim\">TRIBE</p>", "conditions": [18, 1200, "v", 18000], "internal_node_id": "0.0-40.0", "trial": 1, "time_elapsed": 542182, "serialpos": 3, "key_press": -1, "wordID": 1504, "type": "PRES_VIS", "trial_index": 58}, "uniqueid": "MTK3103:38SKSKU7R24SKVRE2HAT0JCPY4MILT", "dateTime": 1520017777975}, {"current_trial": 59, "trialdata": {"rt": -1, "trial_type": "single-stim", "word": "iceberg", "stimulus": "<p id=\"stim\">ICEBERG</p>", "conditions": [18, 1200, "v", 18000], "internal_node_id": "0.0-41.0", "trial": 1, "time_elapsed": 544437, "serialpos": 4, "key_press": -1, "wordID": 730, "type": "PRES_VIS", "trial_index": 59}, "uniqueid": "MTK3103:38SKSKU7R24SKVRE2HAT0JCPY4MILT", "dateTime": 1520017780229}, {"current_trial": 60, "trialdata": {"rt": -1, "trial_type": "single-stim", "word": "stone", "stimulus": "<p id=\"stim\">STONE</p>", "conditions": [18, 1200, "v", 18000], "internal_node_id": "0.0-42.0", "trial": 1, "time_elapsed": 546810, "serialpos": 5, "key_press": -1, "wordID": 1384, "type": "PRES_VIS", "trial_index": 60}, "uniqueid": "MTK3103:38SKSKU7R24SKVRE2HAT0JCPY4MILT", "dateTime": 1520017782603}, {"current_trial": 61, "trialdata": {"rt": -1, "trial_type": "single-stim", "word": "star", "stimulus": "<p id=\"stim\">STAR</p>", "conditions": [18, 1200, "v", 18000], "internal_node_id": "0.0-43.0", "trial": 1, "time_elapsed": 548953, "serialpos": 6, "key_press": -1, "wordID": 1372, "type": "PRES_VIS", "trial_index": 61}, "uniqueid": "MTK3103:38SKSKU7R24SKVRE2HAT0JCPY4MILT", "dateTime": 1520017784746}, {"current_trial": 62, "trialdata": {"rt": -1, "trial_type": "single-stim", "word": "skillet", "stimulus": "<p id=\"stim\">SKILLET</p>", "conditions": [18, 1200, "v", 18000], "internal_node_id": "0.0-44.0", "trial": 1, "time_elapsed": 551270, "serialpos": 7, "key_press": -1, "wordID": 1316, "type": "PRES_VIS", "trial_index": 62}, "uniqueid": "MTK3103:38SKSKU7R24SKVRE2HAT0JCPY4MILT", "dateTime": 1520017787063}, {"current_trial": 63, "trialdata": {"rt": -1, "trial_type": "single-stim", "word": "dresser", "stimulus": "<p id=\"stim\">DRESSER</p>", "conditions": [18, 1200, "v", 18000], "internal_node_id": "0.0-45.0", "trial": 1, "time_elapsed": 553390, "serialpos": 8, "key_press": -1, "wordID": 495, "type": "PRES_VIS", "trial_index": 63}, "uniqueid": "MTK3103:38SKSKU7R24SKVRE2HAT0JCPY4MILT", "dateTime": 1520017789184}, {"current_trial": 64, "trialdata": {"rt": -1, "trial_type": "single-stim", "word": "package", "stimulus": "<p id=\"stim\">PACKAGE</p>", "conditions": [18, 1200, "v", 18000], "internal_node_id": "0.0-46.0", "trial": 1, "time_elapsed": 555412, "serialpos": 9, "key_press": -1, "wordID": 996, "type": "PRES_VIS", "trial_index": 64}, "uniqueid": "MTK3103:38SKSKU7R24SKVRE2HAT0JCPY4MILT", "dateTime": 1520017791204}, {"current_trial": 65, "trialdata": {"rt": -1, "trial_type": "single-stim", "word": "scissors", "stimulus": "<p id=\"stim\">SCISSORS</p>", "conditions": [18, 1200, "v", 18000], "internal_node_id": "0.0-47.0", "trial": 1, "time_elapsed": 557793, "serialpos": 10, "key_press": -1, "wordID": 1249, "type": "PRES_VIS", "trial_index": 65}, "uniqueid": "MTK3103:38SKSKU7R24SKVRE2HAT0JCPY4MILT", "dateTime": 1520017793587}, {"current_trial": 66, "trialdata": {"rt": -1, "trial_type": "single-stim", "word": "wrench", "stimulus": "<p id=\"stim\">WRENCH</p>", "conditions": [18, 1200, "v", 18000], "internal_node_id": "0.0-48.0", "trial": 1, "time_elapsed": 560001, "serialpos": 11, "key_press": -1, "wordID": 1624, "type": "PRES_VIS", "trial_index": 66}, "uniqueid": "MTK3103:38SKSKU7R24SKVRE2HAT0JCPY4MILT", "dateTime": 1520017795794}, {"current_trial": 67, "trialdata": {"rt": -1, "trial_type": "single-stim", "word": "binder", "stimulus": "<p id=\"stim\">BINDER</p>", "conditions": [18, 1200, "v", 18000], "internal_node_id": "0.0-49.0", "trial": 1, "time_elapsed": 562107, "serialpos": 12, "key_press": -1, "wordID": 126, "type": "PRES_VIS", "trial_index": 67}, "uniqueid": "MTK3103:38SKSKU7R24SKVRE2HAT0JCPY4MILT", "dateTime": 1520017797900}, {"current_trial": 68, "trialdata": {"rt": -1, "trial_type": "single-stim", "word": "hiker", "stimulus": "<p id=\"stim\">HIKER</p>", "conditions": [18, 1200, "v", 18000], "internal_node_id": "0.0-50.0", "trial": 1, "time_elapsed": 564196, "serialpos": 13, "key_press": -1, "wordID": 707, "type": "PRES_VIS", "trial_index": 68}, "uniqueid": "MTK3103:38SKSKU7R24SKVRE2HAT0JCPY4MILT", "dateTime": 1520017799991}, {"current_trial": 69, "trialdata": {"rt": -1, "trial_type": "single-stim", "word": "cookbook", "stimulus": "<p id=\"stim\">COOKBOOK</p>", "conditions": [18, 1200, "v", 18000], "internal_node_id": "0.0-51.0", "trial": 1, "time_elapsed": 566530, "serialpos": 14, "key_press": -1, "wordID": 372, "type": "PRES_VIS", "trial_index": 69}, "uniqueid": "MTK3103:38SKSKU7R24SKVRE2HAT0JCPY4MILT", "dateTime": 1520017802322}, {"current_trial": 70, "trialdata": {"rt": -1, "trial_type": "single-stim", "word": "garden", "stimulus": "<p id=\"stim\">GARDEN</p>", "conditions": [18, 1200, "v", 18000], "internal_node_id": "0.0-52.0", "trial": 1, "time_elapsed": 568838, "serialpos": 15, "key_press": -1, "wordID": 622, "type": "PRES_VIS", "trial_index": 70}, "uniqueid": "MTK3103:38SKSKU7R24SKVRE2HAT0JCPY4MILT", "dateTime": 1520017804630}, {"current_trial": 71, "trialdata": {"rt": -1, "trial_type": "single-stim", "word": "pizza", "stimulus": "<p id=\"stim\">PIZZA</p>", "conditions": [18, 1200, "v", 18000], "internal_node_id": "0.0-53.0", "trial": 1, "time_elapsed": 570968, "serialpos": 16, "key_press": -1, "wordID": 1078, "type": "PRES_VIS", "trial_index": 71}, "uniqueid": "MTK3103:38SKSKU7R24SKVRE2HAT0JCPY4MILT", "dateTime": 1520017806761}, {"current_trial": 72, "trialdata": {"rt": -1, "trial_type": "single-stim", "word": "rattle", "stimulus": "<p id=\"stim\">RATTLE</p>", "conditions": [18, 1200, "v", 18000], "internal_node_id": "0.0-54.0", "trial": 1, "time_elapsed": 572998, "serialpos": 17, "key_press": -1, "wordID": 1169, "type": "PRES_VIS", "trial_index": 72}, "uniqueid": "MTK3103:38SKSKU7R24SKVRE2HAT0JCPY4MILT", "dateTime": 1520017808790}, {"current_trial": 73, "trialdata": {"rt": -1, "trial_type": "single-stim", "stimulus": "", "internal_node_id": "0.0-55.0-0.0", "time_elapsed": 575350, "key_press": -1, "type": "PRE_RECALL_DELAY", "trial_index": 73}, "uniqueid": "MTK3103:38SKSKU7R24SKVRE2HAT0JCPY4MILT", "dateTime": 1520017811142}, {"current_trial": 74, "trialdata": {"rt": -1000, "trial_type": "single-audio", "stimulus": "/static/audio/400Hz.wav", "internal_node_id": "0.0-56.0", "time_elapsed": 575854, "key_press": -1, "type": "PRE_RECALL_ALERT", "trial_index": 74}, "uniqueid": "MTK3103:38SKSKU7R24SKVRE2HAT0JCPY4MILT", "dateTime": 1520017811646}, {"current_trial": 75, "trialdata": {"rt": [2324, 10499, 15702, 17629], "recwords": ["rattle", "grinder", "apron", "scalpel"], "key_times": [1185, 1303, 1623, 1766, 1955, 2047, 2324, 9162, 9430, 9597, 9813, 10044, 10257, 10322, 10499, 14717, 14953, 15126, 15261, 15429, 15702, 16305, 16520, 16672, 16831, 17099, 17259, 17370, 17629, 37474, 37980, 38011, 38052, 38082, 38115, 38145, 38175, 38210, 38246, 38274, 38306, 38339, 38376], "trial_type": "free-recall", "conditions": [18, 1200, "v", 18000], "internal_node_id": "0.0-57.0-0.0", "key_presses": [82, 65, 84, 84, 76, 69, 13, 71, 82, 73, 78, 68, 69, 82, 13, 65, 80, 82, 79, 78, 13, 83, 67, 65, 76, 80, 69, 76, 13, 174, 174, 174, 174, 174, 174, 174, 174, 174, 174, 174, 174, 174, 174], "trial": 1, "time_elapsed": 635860, "type": "FREE_RECALL", "trial_index": 75}, "uniqueid": "MTK3103:38SKSKU7R24SKVRE2HAT0JCPY4MILT", "dateTime": 1520017871659}, {"current_trial": 76, "trialdata": {"rt": 2169, "trial_type": "text", "internal_node_id": "0.0-58.0", "time_elapsed": 640041, "key_press": 32, "type": "INSTRUCTIONS", "trial_index": 76}, "uniqueid": "MTK3103:38SKSKU7R24SKVRE2HAT0JCPY4MILT", "dateTime": 1520017875833}, {"current_trial": 77, "trialdata": {"rt": [5464, 7559, 17460, 19348, 22204], "trial_type": "math-distractor", "key_times": [4814, 4910, 5464, 7198, 7559, 17071, 17259, 17460, 19008, 19179, 19348, 21887, 22204], "responses": ["16", "9", "21", "11", "8"], "num2": [4, 3, 8, 4, 4, 5], "num3": [5, 3, 9, 6, 1, 9], "conditions": [12, 1600, "v", 24000], "internal_node_id": "0.0-59.0", "key_presses": [97, 102, 13, 105, 13, 98, 97, 13, 97, 97, 13, 104, 13], "trial": 2, "time_elapsed": 665053, "type": "DISTRACTOR", "trial_index": 77, "num1": [7, 3, 5, 1, 3, 6]}, "uniqueid": "MTK3103:38SKSKU7R24SKVRE2HAT0JCPY4MILT", "dateTime": 1520017900845}, {"current_trial": 78, "trialdata": {"rt": -1, "trial_type": "single-stim", "stimulus": "<p id=\"stim\">10</p>", "internal_node_id": "0.0-60.0-0.0", "time_elapsed": 668058, "key_press": -1, "trial_index": 78}, "uniqueid": "MTK3103:38SKSKU7R24SKVRE2HAT0JCPY4MILT", "dateTime": 1520017903850}, {"current_trial": 79, "trialdata": {"rt": -1, "trial_type": "single-stim", "stimulus": "<p id=\"stim\">9</p>", "internal_node_id": "0.0-60.0-1.0", "time_elapsed": 669062, "key_press": -1, "trial_index": 79}, "uniqueid": "MTK3103:38SKSKU7R24SKVRE2HAT0JCPY4MILT", "dateTime": 1520017904854}, {"current_trial": 80, "trialdata": {"rt": -1, "trial_type": "single-stim", "stimulus": "<p id=\"stim\">8</p>", "internal_node_id": "0.0-60.0-2.0", "time_elapsed": 670064, "key_press": -1, "trial_index": 80}, "uniqueid": "MTK3103:38SKSKU7R24SKVRE2HAT0JCPY4MILT", "dateTime": 1520017905856}, {"current_trial": 81, "trialdata": {"rt": -1, "trial_type": "single-stim", "stimulus": "<p id=\"stim\">7</p>", "internal_node_id": "0.0-60.0-3.0", "time_elapsed": 671069, "key_press": -1, "trial_index": 81}, "uniqueid": "MTK3103:38SKSKU7R24SKVRE2HAT0JCPY4MILT", "dateTime": 1520017906861}, {"current_trial": 82, "trialdata": {"rt": -1, "trial_type": "single-stim", "stimulus": "<p id=\"stim\">6</p>", "internal_node_id": "0.0-60.0-4.0", "time_elapsed": 672073, "key_press": -1, "trial_index": 82}, "uniqueid": "MTK3103:38SKSKU7R24SKVRE2HAT0JCPY4MILT", "dateTime": 1520017907865}, {"current_trial": 83, "trialdata": {"rt": -1, "trial_type": "single-stim", "stimulus": "<p id=\"stim\">5</p>", "internal_node_id": "0.0-60.0-5.0", "time_elapsed": 673078, "key_press": -1, "trial_index": 83}, "uniqueid": "MTK3103:38SKSKU7R24SKVRE2HAT0JCPY4MILT", "dateTime": 1520017908871}, {"current_trial": 84, "trialdata": {"rt": -1, "trial_type": "single-stim", "stimulus": "<p id=\"stim\">4</p>", "internal_node_id": "0.0-60.0-6.0", "time_elapsed": 674082, "key_press": -1, "trial_index": 84}, "uniqueid": "MTK3103:38SKSKU7R24SKVRE2HAT0JCPY4MILT", "dateTime": 1520017909874}, {"current_trial": 85, "trialdata": {"rt": -1, "trial_type": "single-stim", "stimulus": "<p id=\"stim\">3</p>", "internal_node_id": "0.0-60.0-7.0", "time_elapsed": 675086, "key_press": -1, "trial_index": 85}, "uniqueid": "MTK3103:38SKSKU7R24SKVRE2HAT0JCPY4MILT", "dateTime": 1520017910879}, {"current_trial": 86, "trialdata": {"rt": -1, "trial_type": "single-stim", "stimulus": "<p id=\"stim\">2</p>", "internal_node_id": "0.0-60.0-8.0", "time_elapsed": 676090, "key_press": -1, "trial_index": 86}, "uniqueid": "MTK3103:38SKSKU7R24SKVRE2HAT0JCPY4MILT", "dateTime": 1520017911883}, {"current_trial": 87, "trialdata": {"rt": -1, "trial_type": "single-stim", "stimulus": "<p id=\"stim\">1</p>", "internal_node_id": "0.0-60.0-9.0", "time_elapsed": 677093, "key_press": -1, "trial_index": 87}, "uniqueid": "MTK3103:38SKSKU7R24SKVRE2HAT0JCPY4MILT", "dateTime": 1520017912885}, {"current_trial": 88, "trialdata": {"rt": -1, "trial_type": "single-stim", "stimulus": "<p id=\"stim\">+</p>", "internal_node_id": "0.0-61.0-0.0", "time_elapsed": 678596, "key_press": -1, "type": "FIXATION", "trial_index": 88}, "uniqueid": "MTK3103:38SKSKU7R24SKVRE2HAT0JCPY4MILT", "dateTime": 1520017914388}, {"current_trial": 89, "trialdata": {"rt": -1, "trial_type": "single-stim", "word": "pork", "stimulus": "<p id=\"stim\">PORK</p>", "conditions": [12, 1600, "v", 24000], "internal_node_id": "0.0-62.0", "trial": 2, "time_elapsed": 680198, "serialpos": 0, "key_press": -1, "wordID": 1107, "type": "PRES_VIS", "trial_index": 89}, "uniqueid": "MTK3103:38SKSKU7R24SKVRE2HAT0JCPY4MILT", "dateTime": 1520017915990}, {"current_trial": 90, "trialdata": {"rt": -1, "trial_type": "single-stim", "word": "jury", "stimulus": "<p id=\"stim\">JURY</p>", "conditions": [12, 1600, "v", 24000], "internal_node_id": "0.0-63.0", "trial": 2, "time_elapsed": 682784, "serialpos": 1, "key_press": -1, "wordID": 765, "type": "PRES_VIS", "trial_index": 90}, "uniqueid": "MTK3103:38SKSKU7R24SKVRE2HAT0JCPY4MILT", "dateTime": 1520017918577}, {"current_trial": 91, "trialdata": {"rt": -1, "trial_type": "single-stim", "word": "actor", "stimulus": "<p id=\"stim\">ACTOR</p>", "conditions": [12, 1600, "v", 24000], "internal_node_id": "0.0-64.0", "trial": 2, "time_elapsed": 685434, "serialpos": 2, "key_press": -1, "wordID": 4, "type": "PRES_VIS", "trial_index": 91}, "uniqueid": "MTK3103:38SKSKU7R24SKVRE2HAT0JCPY4MILT", "dateTime": 1520017921227}, {"current_trial": 92, "trialdata": {"rt": -1, "trial_type": "single-stim", "word": "film", "stimulus": "<p id=\"stim\">FILM</p>", "conditions": [12, 1600, "v", 24000], "internal_node_id": "0.0-65.0", "trial": 2, "time_elapsed": 687932, "serialpos": 3, "key_press": -1, "wordID": 564, "type": "PRES_VIS", "trial_index": 92}, "uniqueid": "MTK3103:38SKSKU7R24SKVRE2HAT0JCPY4MILT", "dateTime": 1520017923724}, {"current_trial": 93, "trialdata": {"rt": -1, "trial_type": "single-stim", "word": "scarecrow", "stimulus": "<p id=\"stim\">SCARECROW</p>", "conditions": [12, 1600, "v", 24000], "internal_node_id": "0.0-66.0", "trial": 2, "time_elapsed": 690702, "serialpos": 4, "key_press": -1, "wordID": 1244, "type": "PRES_VIS", "trial_index": 93}, "uniqueid": "MTK3103:38SKSKU7R24SKVRE2HAT0JCPY4MILT", "dateTime": 1520017926494}, {"current_trial": 94, "trialdata": {"rt": -1, "trial_type": "single-stim", "word": "marrow", "stimulus": "<p id=\"stim\">MARROW</p>", "conditions": [12, 1600, "v", 24000], "internal_node_id": "0.0-67.0", "trial": 2, "time_elapsed": 693493, "serialpos": 5, "key_press": -1, "wordID": 871, "type": "PRES_VIS", "trial_index": 94}, "uniqueid": "MTK3103:38SKSKU7R24SKVRE2HAT0JCPY4MILT", "dateTime": 1520017929285}, {"current_trial": 95, "trialdata": {"rt": -1, "trial_type": "single-stim", "word": "summit", "stimulus": "<p id=\"stim\">SUMMIT</p>", "conditions": [12, 1600, "v", 24000], "internal_node_id": "0.0-68.0", "trial": 2, "time_elapsed": 695919, "serialpos": 6, "key_press": -1, "wordID": 1404, "type": "PRES_VIS", "trial_index": 95}, "uniqueid": "MTK3103:38SKSKU7R24SKVRE2HAT0JCPY4MILT", "dateTime": 1520017931711}, {"current_trial": 96, "trialdata": {"rt": -1, "trial_type": "single-stim", "word": "missile", "stimulus": "<p id=\"stim\">MISSILE</p>", "conditions": [12, 1600, "v", 24000], "internal_node_id": "0.0-69.0", "trial": 2, "time_elapsed": 698402, "serialpos": 7, "key_press": -1, "wordID": 899, "type": "PRES_VIS", "trial_index": 96}, "uniqueid": "MTK3103:38SKSKU7R24SKVRE2HAT0JCPY4MILT", "dateTime": 1520017934194}, {"current_trial": 97, "trialdata": {"rt": -1, "trial_type": "single-stim", "word": "pistol", "stimulus": "<p id=\"stim\">PISTOL</p>", "conditions": [12, 1600, "v", 24000], "internal_node_id": "0.0-70.0", "trial": 2, "time_elapsed": 701200, "serialpos": 8, "key_press": -1, "wordID": 1074, "type": "PRES_VIS", "trial_index": 97}, "uniqueid": "MTK3103:38SKSKU7R24SKVRE2HAT0JCPY4MILT", "dateTime": 1520017936993}, {"current_trial": 98, "trialdata": {"rt": -1, "trial_type": "single-stim", "word": "robber", "stimulus": "<p id=\"stim\">ROBBER</p>", "conditions": [12, 1600, "v", 24000], "internal_node_id": "0.0-71.0", "trial": 2, "time_elapsed": 703773, "serialpos": 9, "key_press": -1, "wordID": 1196, "type": "PRES_VIS", "trial_index": 98}, "uniqueid": "MTK3103:38SKSKU7R24SKVRE2HAT0JCPY4MILT", "dateTime": 1520017939566}, {"current_trial": 99, "trialdata": {"rt": -1, "trial_type": "single-stim", "word": "ox", "stimulus": "<p id=\"stim\">OX</p>", "conditions": [12, 1600, "v", 24000], "internal_node_id": "0.0-72.0", "trial": 2, "time_elapsed": 706532, "serialpos": 10, "key_press": -1, "wordID": 993, "type": "PRES_VIS", "trial_index": 99}, "uniqueid": "MTK3103:38SKSKU7R24SKVRE2HAT0JCPY4MILT", "dateTime": 1520017942324}, {"current_trial": 100, "trialdata": {"rt": -1, "trial_type": "single-stim", "word": "judge", "stimulus": "<p id=\"stim\">JUDGE</p>", "conditions": [12, 1600, "v", 24000], "internal_node_id": "0.0-73.0", "trial": 2, "time_elapsed": 709318, "serialpos": 11, "key_press": -1, "wordID": 760, "type": "PRES_VIS", "trial_index": 100}, "uniqueid": "MTK3103:38SKSKU7R24SKVRE2HAT0JCPY4MILT", "dateTime": 1520017945110}, {"current_trial": 101, "trialdata": {"rt": -1, "trial_type": "single-stim", "stimulus": "", "internal_node_id": "0.0-74.0-0.0", "time_elapsed": 711454, "key_press": -1, "type": "PRE_RECALL_DELAY", "trial_index": 101}, "uniqueid": "MTK3103:38SKSKU7R24SKVRE2HAT0JCPY4MILT", "dateTime": 1520017947247}, {"current_trial": 102, "trialdata": {"rt": -1000, "trial_type": "single-audio", "stimulus": "/static/audio/400Hz.wav", "internal_node_id": "0.0-75.0", "time_elapsed": 711956, "key_press": -1, "type": "PRE_RECALL_ALERT", "trial_index": 102}, "uniqueid": "MTK3103:38SKSKU7R24SKVRE2HAT0JCPY4MILT", "dateTime": 1520017947748}, {"current_trial": 103, "trialdata": {"rt": [5989, 7700, 9198, 10738, 14348, 18562], "recwords": ["judge", "jury", "pork", "actor", "ox", "missle"], "key_times": [906, 1628, 2109, 2381, 2795, 3005, 3964, 4455, 4685, 4948, 5529, 5671, 5833, 5989, 6494, 6801, 6966, 7268, 7700, 8321, 8554, 8697, 8899, 9198, 9759, 9935, 10203, 10349, 10463, 10738, 13918, 14183, 14348, 17691, 17891, 18029, 18190, 18296, 18400, 18562], "trial_type": "free-recall", "conditions": [12, 1600, "v", 24000], "internal_node_id": "0.0-76.0-0.0", "key_presses": [85, 8, 85, 68, 8, 8, 74, 85, 68, 69, 8, 71, 69, 13, 74, 85, 82, 89, 13, 80, 79, 82, 75, 13, 65, 67, 84, 79, 82, 13, 79, 88, 13, 77, 73, 83, 83, 76, 69, 13], "trial": 2, "time_elapsed": 771962, "type": "FREE_RECALL", "trial_index": 103}, "uniqueid": "MTK3103:38SKSKU7R24SKVRE2HAT0JCPY4MILT", "dateTime": 1520018007758}, {"current_trial": 104, "trialdata": {"rt": 2489, "trial_type": "text", "internal_node_id": "0.0-77.0", "time_elapsed": 776461, "key_press": 32, "type": "INSTRUCTIONS", "trial_index": 104}, "uniqueid": "MTK3103:38SKSKU7R24SKVRE2HAT0JCPY4MILT", "dateTime": 1520018012253}, {"current_trial": 105, "trialdata": {"rt": [5129, 8059, 11165], "trial_type": "math-distractor", "key_times": [4831, 5129, 7572, 7782, 8059, 10889, 11165], "responses": ["9", "10", "5"], "num2": [3, 3, 2, 7], "num3": [4, 3, 2, 3], "conditions": [24, 1600, "v", 12000], "internal_node_id": "0.0-78.0", "key_presses": [105, 13, 97, 96, 13, 101, 13], "trial": 3, "time_elapsed": 790472, "type": "DISTRACTOR", "trial_index": 105, "num1": [2, 4, 1, 8]}, "uniqueid": "MTK3103:38SKSKU7R24SKVRE2HAT0JCPY4MILT", "dateTime": 1520018026265}, {"current_trial": 106, "trialdata": {"rt": -1, "trial_type": "single-stim", "stimulus": "<p id=\"stim\">10</p>", "internal_node_id": "0.0-79.0-0.0", "time_elapsed": 793484, "key_press": -1, "trial_index": 106}, "uniqueid": "MTK3103:38SKSKU7R24SKVRE2HAT0JCPY4MILT", "dateTime": 1520018029276}, {"current_trial": 107, "trialdata": {"rt": -1, "trial_type": "single-stim", "stimulus": "<p id=\"stim\">9</p>", "internal_node_id": "0.0-79.0-1.0", "time_elapsed": 794486, "key_press": -1, "trial_index": 107}, "uniqueid": "MTK3103:38SKSKU7R24SKVRE2HAT0JCPY4MILT", "dateTime": 1520018030279}, {"current_trial": 108, "trialdata": {"rt": -1, "trial_type": "single-stim", "stimulus": "<p id=\"stim\">8</p>", "internal_node_id": "0.0-79.0-2.0", "time_elapsed": 795490, "key_press": -1, "trial_index": 108}, "uniqueid": "MTK3103:38SKSKU7R24SKVRE2HAT0JCPY4MILT", "dateTime": 1520018031283}, {"current_trial": 109, "trialdata": {"rt": -1, "trial_type": "single-stim", "stimulus": "<p id=\"stim\">7</p>", "internal_node_id": "0.0-79.0-3.0", "time_elapsed": 796495, "key_press": -1, "trial_index": 109}, "uniqueid": "MTK3103:38SKSKU7R24SKVRE2HAT0JCPY4MILT", "dateTime": 1520018032287}, {"current_trial": 110, "trialdata": {"rt": -1, "trial_type": "single-stim", "stimulus": "<p id=\"stim\">6</p>", "internal_node_id": "0.0-79.0-4.0", "time_elapsed": 797498, "key_press": -1, "trial_index": 110}, "uniqueid": "MTK3103:38SKSKU7R24SKVRE2HAT0JCPY4MILT", "dateTime": 1520018033290}, {"current_trial": 111, "trialdata": {"rt": -1, "trial_type": "single-stim", "stimulus": "<p id=\"stim\">5</p>", "internal_node_id": "0.0-79.0-5.0", "time_elapsed": 798501, "key_press": -1, "trial_index": 111}, "uniqueid": "MTK3103:38SKSKU7R24SKVRE2HAT0JCPY4MILT", "dateTime": 1520018034293}, {"current_trial": 112, "trialdata": {"rt": -1, "trial_type": "single-stim", "stimulus": "<p id=\"stim\">4</p>", "internal_node_id": "0.0-79.0-6.0", "time_elapsed": 799508, "key_press": -1, "trial_index": 112}, "uniqueid": "MTK3103:38SKSKU7R24SKVRE2HAT0JCPY4MILT", "dateTime": 1520018035301}, {"current_trial": 113, "trialdata": {"rt": -1, "trial_type": "single-stim", "stimulus": "<p id=\"stim\">3</p>", "internal_node_id": "0.0-79.0-7.0", "time_elapsed": 800513, "key_press": -1, "trial_index": 113}, "uniqueid": "MTK3103:38SKSKU7R24SKVRE2HAT0JCPY4MILT", "dateTime": 1520018036305}, {"current_trial": 114, "trialdata": {"rt": -1, "trial_type": "single-stim", "stimulus": "<p id=\"stim\">2</p>", "internal_node_id": "0.0-79.0-8.0", "time_elapsed": 801519, "key_press": -1, "trial_index": 114}, "uniqueid": "MTK3103:38SKSKU7R24SKVRE2HAT0JCPY4MILT", "dateTime": 1520018037311}, {"current_trial": 115, "trialdata": {"rt": -1, "trial_type": "single-stim", "stimulus": "<p id=\"stim\">1</p>", "internal_node_id": "0.0-79.0-9.0", "time_elapsed": 802528, "key_press": -1, "trial_index": 115}, "uniqueid": "MTK3103:38SKSKU7R24SKVRE2HAT0JCPY4MILT", "dateTime": 1520018038320}, {"current_trial": 116, "trialdata": {"rt": -1, "trial_type": "single-stim", "stimulus": "<p id=\"stim\">+</p>", "internal_node_id": "0.0-80.0-0.0", "time_elapsed": 804031, "key_press": -1, "type": "FIXATION", "trial_index": 116}, "uniqueid": "MTK3103:38SKSKU7R24SKVRE2HAT0JCPY4MILT", "dateTime": 1520018039824}, {"current_trial": 117, "trialdata": {"rt": -1, "trial_type": "single-stim", "word": "valley", "stimulus": "<p id=\"stim\">VALLEY</p>", "conditions": [24, 1600, "v", 12000], "internal_node_id": "0.0-81.0", "trial": 3, "time_elapsed": 805635, "serialpos": 0, "key_press": -1, "wordID": 1544, "type": "PRES_VIS", "trial_index": 117}, "uniqueid": "MTK3103:38SKSKU7R24SKVRE2HAT0JCPY4MILT", "dateTime": 1520018041427}, {"current_trial": 118, "trialdata": {"rt": -1, "trial_type": "single-stim", "word": "canyon", "stimulus": "<p id=\"stim\">CANYON</p>", "conditions": [24, 1600, "v", 12000], "internal_node_id": "0.0-82.0", "trial": 3, "time_elapsed": 808081, "serialpos": 1, "key_press": -1, "wordID": 234, "type": "PRES_VIS", "trial_index": 118}, "uniqueid": "MTK3103:38SKSKU7R24SKVRE2HAT0JCPY4MILT", "dateTime": 1520018043874}, {"current_trial": 119, "trialdata": {"rt": -1, "trial_type": "single-stim", "word": "outfit", "stimulus": "<p id=\"stim\">OUTFIT</p>", "conditions": [24, 1600, "v", 12000], "internal_node_id": "0.0-83.0", "trial": 3, "time_elapsed": 810626, "serialpos": 2, "key_press": -1, "wordID": 987, "type": "PRES_VIS", "trial_index": 119}, "uniqueid": "MTK3103:38SKSKU7R24SKVRE2HAT0JCPY4MILT", "dateTime": 1520018046418}, {"current_trial": 120, "trialdata": {"rt": -1, "trial_type": "single-stim", "word": "asia", "stimulus": "<p id=\"stim\">ASIA</p>", "conditions": [24, 1600, "v", 12000], "internal_node_id": "0.0-84.0", "trial": 3, "time_elapsed": 813219, "serialpos": 3, "key_press": -1, "wordID": 45, "type": "PRES_VIS", "trial_index": 120}, "uniqueid": "MTK3103:38SKSKU7R24SKVRE2HAT0JCPY4MILT", "dateTime": 1520018049011}, {"current_trial": 121, "trialdata": {"rt": -1, "trial_type": "single-stim", "word": "flipper", "stimulus": "<p id=\"stim\">FLIPPER</p>", "conditions": [24, 1600, "v", 12000], "internal_node_id": "0.0-85.0", "trial": 3, "time_elapsed": 815999, "serialpos": 4, "key_press": -1, "wordID": 579, "type": "PRES_VIS", "trial_index": 121}, "uniqueid": "MTK3103:38SKSKU7R24SKVRE2HAT0JCPY4MILT", "dateTime": 1520018051793}, {"current_trial": 122, "trialdata": {"rt": -1, "trial_type": "single-stim", "word": "braces", "stimulus": "<p id=\"stim\">BRACES</p>", "conditions": [24, 1600, "v", 12000], "internal_node_id": "0.0-86.0", "trial": 3, "time_elapsed": 818560, "serialpos": 5, "key_press": -1, "wordID": 163, "type": "PRES_VIS", "trial_index": 122}, "uniqueid": "MTK3103:38SKSKU7R24SKVRE2HAT0JCPY4MILT", "dateTime": 1520018054352}, {"current_trial": 123, "trialdata": {"rt": -1, "trial_type": "single-stim", "word": "sausage", "stimulus": "<p id=\"stim\">SAUSAGE</p>", "conditions": [24, 1600, "v", 12000], "internal_node_id": "0.0-87.0", "trial": 3, "time_elapsed": 821070, "serialpos": 6, "key_press": -1, "wordID": 1237, "type": "PRES_VIS", "trial_index": 123}, "uniqueid": "MTK3103:38SKSKU7R24SKVRE2HAT0JCPY4MILT", "dateTime": 1520018056862}, {"current_trial": 124, "trialdata": {"rt": -1, "trial_type": "single-stim", "word": "worker", "stimulus": "<p id=\"stim\">WORKER</p>", "conditions": [24, 1600, "v", 12000], "internal_node_id": "0.0-88.0", "trial": 3, "time_elapsed": 823610, "serialpos": 7, "key_press": -1, "wordID": 1620, "type": "PRES_VIS", "trial_index": 124}, "uniqueid": "MTK3103:38SKSKU7R24SKVRE2HAT0JCPY4MILT", "dateTime": 1520018059402}, {"current_trial": 125, "trialdata": {"rt": -1, "trial_type": "single-stim", "word": "dandruff", "stimulus": "<p id=\"stim\">DANDRUFF</p>", "conditions": [24, 1600, "v", 12000], "internal_node_id": "0.0-89.0", "trial": 3, "time_elapsed": 826136, "serialpos": 8, "key_press": -1, "wordID": 438, "type": "PRES_VIS", "trial_index": 125}, "uniqueid": "MTK3103:38SKSKU7R24SKVRE2HAT0JCPY4MILT", "dateTime": 1520018061928}, {"current_trial": 126, "trialdata": {"rt": -1, "trial_type": "single-stim", "word": "cod", "stimulus": "<p id=\"stim\">COD</p>", "conditions": [24, 1600, "v", 12000], "internal_node_id": "0.0-90.0", "trial": 3, "time_elapsed": 828814, "serialpos": 9, "key_press": -1, "wordID": 339, "type": "PRES_VIS", "trial_index": 126}, "uniqueid": "MTK3103:38SKSKU7R24SKVRE2HAT0JCPY4MILT", "dateTime": 1520018064606}, {"current_trial": 127, "trialdata": {"rt": -1, "trial_type": "single-stim", "word": "sandwich", "stimulus": "<p id=\"stim\">SANDWICH</p>", "conditions": [24, 1600, "v", 12000], "internal_node_id": "0.0-91.0", "trial": 3, "time_elapsed": 831598, "serialpos": 10, "key_press": -1, "wordID": 1231, "type": "PRES_VIS", "trial_index": 127}, "uniqueid": "MTK3103:38SKSKU7R24SKVRE2HAT0JCPY4MILT", "dateTime": 1520018067390}, {"current_trial": 128, "trialdata": {"rt": -1, "trial_type": "single-stim", "word": "yarn", "stimulus": "<p id=\"stim\">YARN</p>", "conditions": [24, 1600, "v", 12000], "internal_node_id": "0.0-92.0", "trial": 3, "time_elapsed": 834060, "serialpos": 11, "key_press": -1, "wordID": 1630, "type": "PRES_VIS", "trial_index": 128}, "uniqueid": "MTK3103:38SKSKU7R24SKVRE2HAT0JCPY4MILT", "dateTime": 1520018069852}, {"current_trial": 129, "trialdata": {"rt": -1, "trial_type": "single-stim", "word": "camel", "stimulus": "<p id=\"stim\">CAMEL</p>", "conditions": [24, 1600, "v", 12000], "internal_node_id": "0.0-93.0", "trial": 3, "time_elapsed": 836676, "serialpos": 12, "key_press": -1, "wordID": 222, "type": "PRES_VIS", "trial_index": 129}, "uniqueid": "MTK3103:38SKSKU7R24SKVRE2HAT0JCPY4MILT", "dateTime": 1520018072468}, {"current_trial": 130, "trialdata": {"rt": -1, "trial_type": "single-stim", "word": "freckle", "stimulus": "<p id=\"stim\">FRECKLE</p>", "conditions": [24, 1600, "v", 12000], "internal_node_id": "0.0-94.0", "trial": 3, "time_elapsed": 839137, "serialpos": 13, "key_press": -1, "wordID": 601, "type": "PRES_VIS", "trial_index": 130}, "uniqueid": "MTK3103:38SKSKU7R24SKVRE2HAT0JCPY4MILT", "dateTime": 1520018074929}, {"current_trial": 131, "trialdata": {"rt": -1, "trial_type": "single-stim", "word": "parrot", "stimulus": "<p id=\"stim\">PARROT</p>", "conditions": [24, 1600, "v", 12000], "internal_node_id": "0.0-95.0", "trial": 3, "time_elapsed": 841582, "serialpos": 14, "key_press": -1, "wordID": 1014, "type": "PRES_VIS", "trial_index": 131}, "uniqueid": "MTK3103:38SKSKU7R24SKVRE2HAT0JCPY4MILT", "dateTime": 1520018077374}, {"current_trial": 132, "trialdata": {"rt": -1, "trial_type": "single-stim", "word": "washer", "stimulus": "<p id=\"stim\">WASHER</p>", "conditions": [24, 1600, "v", 12000], "internal_node_id": "0.0-96.0", "trial": 3, "time_elapsed": 844105, "serialpos": 15, "key_press": -1, "wordID": 1591, "type": "PRES_VIS", "trial_index": 132}, "uniqueid": "MTK3103:38SKSKU7R24SKVRE2HAT0JCPY4MILT", "dateTime": 1520018079897}, {"current_trial": 133, "trialdata": {"rt": -1, "trial_type": "single-stim", "word": "crib", "stimulus": "<p id=\"stim\">CRIB</p>", "conditions": [24, 1600, "v", 12000], "internal_node_id": "0.0-97.0", "trial": 3, "time_elapsed": 846882, "serialpos": 16, "key_press": -1, "wordID": 406, "type": "PRES_VIS", "trial_index": 133}, "uniqueid": "MTK3103:38SKSKU7R24SKVRE2HAT0JCPY4MILT", "dateTime": 1520018082674}, {"current_trial": 134, "trialdata": {"rt": -1, "trial_type": "single-stim", "word": "crutch", "stimulus": "<p id=\"stim\">CRUTCH</p>", "conditions": [24, 1600, "v", 12000], "internal_node_id": "0.0-98.0", "trial": 3, "time_elapsed": 849463, "serialpos": 17, "key_press": -1, "wordID": 416, "type": "PRES_VIS", "trial_index": 134}, "uniqueid": "MTK3103:38SKSKU7R24SKVRE2HAT0JCPY4MILT", "dateTime": 1520018085256}, {"current_trial": 135, "trialdata": {"rt": -1, "trial_type": "single-stim", "word": "london", "stimulus": "<p id=\"stim\">LONDON</p>", "conditions": [24, 1600, "v", 12000], "internal_node_id": "0.0-99.0", "trial": 3, "time_elapsed": 852130, "serialpos": 18, "key_press": -1, "wordID": 842, "type": "PRES_VIS", "trial_index": 135}, "uniqueid": "MTK3103:38SKSKU7R24SKVRE2HAT0JCPY4MILT", "dateTime": 1520018087923}, {"current_trial": 136, "trialdata": {"rt": -1, "trial_type": "single-stim", "word": "diver", "stimulus": "<p id=\"stim\">DIVER</p>", "conditions": [24, 1600, "v", 12000], "internal_node_id": "0.0-100.0", "trial": 3, "time_elapsed": 854910, "serialpos": 19, "key_press": -1, "wordID": 475, "type": "PRES_VIS", "trial_index": 136}, "uniqueid": "MTK3103:38SKSKU7R24SKVRE2HAT0JCPY4MILT", "dateTime": 1520018090703}, {"current_trial": 137, "trialdata": {"rt": -1, "trial_type": "single-stim", "word": "sword", "stimulus": "<p id=\"stim\">SWORD</p>", "conditions": [24, 1600, "v", 12000], "internal_node_id": "0.0-101.0", "trial": 3, "time_elapsed": 857709, "serialpos": 20, "key_press": -1, "wordID": 1422, "type": "PRES_VIS", "trial_index": 137}, "uniqueid": "MTK3103:38SKSKU7R24SKVRE2HAT0JCPY4MILT", "dateTime": 1520018093501}, {"current_trial": 138, "trialdata": {"rt": -1, "trial_type": "single-stim", "word": "knife", "stimulus": "<p id=\"stim\">KNIFE</p>", "conditions": [24, 1600, "v", 12000], "internal_node_id": "0.0-102.0", "trial": 3, "time_elapsed": 860148, "serialpos": 21, "key_press": -1, "wordID": 784, "type": "PRES_VIS", "trial_index": 138}, "uniqueid": "MTK3103:38SKSKU7R24SKVRE2HAT0JCPY4MILT", "dateTime": 1520018095940}, {"current_trial": 139, "trialdata": {"rt": -1, "trial_type": "single-stim", "word": "pimple", "stimulus": "<p id=\"stim\">PIMPLE</p>", "conditions": [24, 1600, "v", 12000], "internal_node_id": "0.0-103.0", "trial": 3, "time_elapsed": 862901, "serialpos": 22, "key_press": -1, "wordID": 1070, "type": "PRES_VIS", "trial_index": 139}, "uniqueid": "MTK3103:38SKSKU7R24SKVRE2HAT0JCPY4MILT", "dateTime": 1520018098693}, {"current_trial": 140, "trialdata": {"rt": -1, "trial_type": "single-stim", "word": "luggage", "stimulus": "<p id=\"stim\">LUGGAGE</p>", "conditions": [24, 1600, "v", 12000], "internal_node_id": "0.0-104.0", "trial": 3, "time_elapsed": 865548, "serialpos": 23, "key_press": -1, "wordID": 846, "type": "PRES_VIS", "trial_index": 140}, "uniqueid": "MTK3103:38SKSKU7R24SKVRE2HAT0JCPY4MILT", "dateTime": 1520018101340}, {"current_trial": 141, "trialdata": {"rt": -1, "trial_type": "single-stim", "stimulus": "", "internal_node_id": "0.0-105.0-0.0", "time_elapsed": 867744, "key_press": -1, "type": "PRE_RECALL_DELAY", "trial_index": 141}, "uniqueid": "MTK3103:38SKSKU7R24SKVRE2HAT0JCPY4MILT", "dateTime": 1520018103536}, {"current_trial": 142, "trialdata": {"rt": -1000, "trial_type": "single-audio", "stimulus": "/static/audio/400Hz.wav", "internal_node_id": "0.0-106.0", "time_elapsed": 868247, "key_press": -1, "type": "PRE_RECALL_ALERT", "trial_index": 142}, "uniqueid": "MTK3103:38SKSKU7R24SKVRE2HAT0JCPY4MILT", "dateTime": 1520018104039}, {"current_trial": 143, "trialdata": {"rt": [2409, 5169, 7277, 10516, 18716, 19879, 21697, 23382, 25842, 30458, 41842], "recwords": ["luggage", "pimple", "dandruff", "braces", "flipper", "cod", "sandwich", "parrot", "camel", "luggage", "washer"], "key_times": [811, 1052, 1564, 1709, 1897, 2069, 2271, 2409, 3478, 3687, 3951, 4380, 4787, 4948, 5169, 5542, 5735, 6122, 6297, 6532, 6729, 6933, 7101, 7277, 8603, 8879, 9003, 9103, 9761, 9936, 10096, 10255, 10516, 17421, 17568, 17696, 17991, 18192, 18388, 18465, 18716, 19400, 19491, 19643, 19879, 20239, 20430, 20605, 20675, 20957, 21086, 21243, 21362, 21697, 22297, 22408, 22601, 22760, 22916, 23086, 23382, 24025, 24172, 24311, 24522, 24799, 25842, 28944, 29211, 29578, 29784, 29927, 30096, 30290, 30458, 40932, 41142, 41294, 41482, 41569, 41652, 41842], "trial_type": "free-recall", "conditions": [24, 1600, "v", 12000], "internal_node_id": "0.0-107.0-0.0", "key_presses": [76, 85, 71, 71, 65, 71, 69, 13, 80, 73, 77, 80, 76, 69, 13, 68, 65, 78, 68, 82, 85, 70, 70, 13, 66, 82, 65, 65, 8, 67, 69, 83, 13, 70, 76, 73, 80, 80, 69, 82, 13, 67, 79, 68, 13, 83, 65, 78, 68, 87, 73, 67, 72, 13, 80, 65, 82, 82, 79, 84, 13, 67, 65, 77, 69, 76, 13, 76, 85, 71, 71, 65, 71, 69, 13, 87, 65, 83, 72, 69, 82, 13], "trial": 3, "time_elapsed": 928253, "type": "FREE_RECALL", "trial_index": 143}, "uniqueid": "MTK3103:38SKSKU7R24SKVRE2HAT0JCPY4MILT", "dateTime": 1520018164098}, {"current_trial": 144, "trialdata": {"rt": 4307, "trial_type": "text", "internal_node_id": "0.0-108.0", "time_elapsed": 934616, "key_press": 32, "type": "INSTRUCTIONS", "trial_index": 144}, "uniqueid": "MTK3103:38SKSKU7R24SKVRE2HAT0JCPY4MILT", "dateTime": 1520018170408}, {"current_trial": 145, "trialdata": {"rt": [2864, 4889, 7038, 10597, 15462, 17696, 23264], "trial_type": "math-distractor", "key_times": [2381, 2519, 2864, 4483, 4587, 4889, 6623, 6778, 7038, 10170, 10271, 10597, 14913, 15125, 15462, 17294, 17432, 17696, 22845, 23064, 23264], "responses": ["19", "15", "13", "13", "14", "16", "20"], "num2": [9, 4, 3, 5, 5, 7, 9, 9], "num3": [5, 5, 3, 2, 3, 2, 7, 2], "conditions": [12, 800, "v", 24000], "internal_node_id": "0.0-109.0", "key_presses": [97, 105, 13, 97, 101, 13, 97, 99, 13, 97, 99, 13, 97, 100, 13, 97, 102, 13, 98, 96, 13], "trial": 4, "time_elapsed": 960631, "type": "DISTRACTOR", "trial_index": 145, "num1": [5, 6, 7, 6, 6, 7, 4, 8]}, "uniqueid": "MTK3103:38SKSKU7R24SKVRE2HAT0JCPY4MILT", "dateTime": 1520018196423}, {"current_trial": 146, "trialdata": {"rt": -1, "trial_type": "single-stim", "stimulus": "<p id=\"stim\">10</p>", "internal_node_id": "0.0-110.0-0.0", "time_elapsed": 963633, "key_press": -1, "trial_index": 146}, "uniqueid": "MTK3103:38SKSKU7R24SKVRE2HAT0JCPY4MILT", "dateTime": 1520018199425}, {"current_trial": 147, "trialdata": {"rt": -1, "trial_type": "single-stim", "stimulus": "<p id=\"stim\">9</p>", "internal_node_id": "0.0-110.0-1.0", "time_elapsed": 964637, "key_press": -1, "trial_index": 147}, "uniqueid": "MTK3103:38SKSKU7R24SKVRE2HAT0JCPY4MILT", "dateTime": 1520018200429}, {"current_trial": 148, "trialdata": {"rt": -1, "trial_type": "single-stim", "stimulus": "<p id=\"stim\">8</p>", "internal_node_id": "0.0-110.0-2.0", "time_elapsed": 965639, "key_press": -1, "trial_index": 148}, "uniqueid": "MTK3103:38SKSKU7R24SKVRE2HAT0JCPY4MILT", "dateTime": 1520018201432}, {"current_trial": 149, "trialdata": {"rt": -1, "trial_type": "single-stim", "stimulus": "<p id=\"stim\">7</p>", "internal_node_id": "0.0-110.0-3.0", "time_elapsed": 966647, "key_press": -1, "trial_index": 149}, "uniqueid": "MTK3103:38SKSKU7R24SKVRE2HAT0JCPY4MILT", "dateTime": 1520018202439}, {"current_trial": 150, "trialdata": {"rt": -1, "trial_type": "single-stim", "stimulus": "<p id=\"stim\">6</p>", "internal_node_id": "0.0-110.0-4.0", "time_elapsed": 967650, "key_press": -1, "trial_index": 150}, "uniqueid": "MTK3103:38SKSKU7R24SKVRE2HAT0JCPY4MILT", "dateTime": 1520018203442}, {"current_trial": 151, "trialdata": {"rt": -1, "trial_type": "single-stim", "stimulus": "<p id=\"stim\">5</p>", "internal_node_id": "0.0-110.0-5.0", "time_elapsed": 968654, "key_press": -1, "trial_index": 151}, "uniqueid": "MTK3103:38SKSKU7R24SKVRE2HAT0JCPY4MILT", "dateTime": 1520018204446}, {"current_trial": 152, "trialdata": {"rt": -1, "trial_type": "single-stim", "stimulus": "<p id=\"stim\">4</p>", "internal_node_id": "0.0-110.0-6.0", "time_elapsed": 969658, "key_press": -1, "trial_index": 152}, "uniqueid": "MTK3103:38SKSKU7R24SKVRE2HAT0JCPY4MILT", "dateTime": 1520018205450}, {"current_trial": 153, "trialdata": {"rt": -1, "trial_type": "single-stim", "stimulus": "<p id=\"stim\">3</p>", "internal_node_id": "0.0-110.0-7.0", "time_elapsed": 970660, "key_press": -1, "trial_index": 153}, "uniqueid": "MTK3103:38SKSKU7R24SKVRE2HAT0JCPY4MILT", "dateTime": 1520018206453}, {"current_trial": 154, "trialdata": {"rt": -1, "trial_type": "single-stim", "stimulus": "<p id=\"stim\">2</p>", "internal_node_id": "0.0-110.0-8.0", "time_elapsed": 971667, "key_press": -1, "trial_index": 154}, "uniqueid": "MTK3103:38SKSKU7R24SKVRE2HAT0JCPY4MILT", "dateTime": 1520018207459}, {"current_trial": 155, "trialdata": {"rt": -1, "trial_type": "single-stim", "stimulus": "<p id=\"stim\">1</p>", "internal_node_id": "0.0-110.0-9.0", "time_elapsed": 972676, "key_press": -1, "trial_index": 155}, "uniqueid": "MTK3103:38SKSKU7R24SKVRE2HAT0JCPY4MILT", "dateTime": 1520018208469}, {"current_trial": 156, "trialdata": {"rt": -1, "trial_type": "single-stim", "stimulus": "<p id=\"stim\">+</p>", "internal_node_id": "0.0-111.0-0.0", "time_elapsed": 974179, "key_press": -1, "type": "FIXATION", "trial_index": 156}, "uniqueid": "MTK3103:38SKSKU7R24SKVRE2HAT0JCPY4MILT", "dateTime": 1520018209971}, {"current_trial": 157, "trialdata": {"rt": -1, "trial_type": "single-stim", "word": "country", "stimulus": "<p id=\"stim\">COUNTRY</p>", "conditions": [12, 800, "v", 24000], "internal_node_id": "0.0-112.0", "trial": 4, "time_elapsed": 974983, "serialpos": 0, "key_press": -1, "wordID": 387, "type": "PRES_VIS", "trial_index": 157}, "uniqueid": "MTK3103:38SKSKU7R24SKVRE2HAT0JCPY4MILT", "dateTime": 1520018210775}, {"current_trial": 158, "trialdata": {"rt": -1, "trial_type": "single-stim", "word": "world", "stimulus": "<p id=\"stim\">WORLD</p>", "conditions": [12, 800, "v", 24000], "internal_node_id": "0.0-113.0", "trial": 4, "time_elapsed": 976929, "serialpos": 1, "key_press": -1, "wordID": 1621, "type": "PRES_VIS", "trial_index": 158}, "uniqueid": "MTK3103:38SKSKU7R24SKVRE2HAT0JCPY4MILT", "dateTime": 1520018212721}, {"current_trial": 159, "trialdata": {"rt": -1, "trial_type": "single-stim", "word": "flask", "stimulus": "<p id=\"stim\">FLASK</p>", "conditions": [12, 800, "v", 24000], "internal_node_id": "0.0-114.0", "trial": 4, "time_elapsed": 978711, "serialpos": 2, "key_press": -1, "wordID": 575, "type": "PRES_VIS", "trial_index": 159}, "uniqueid": "MTK3103:38SKSKU7R24SKVRE2HAT0JCPY4MILT", "dateTime": 1520018214503}, {"current_trial": 160, "trialdata": {"rt": -1, "trial_type": "single-stim", "word": "drink", "stimulus": "<p id=\"stim\">DRINK</p>", "conditions": [12, 800, "v", 24000], "internal_node_id": "0.0-115.0", "trial": 4, "time_elapsed": 980650, "serialpos": 3, "key_press": -1, "wordID": 497, "type": "PRES_VIS", "trial_index": 160}, "uniqueid": "MTK3103:38SKSKU7R24SKVRE2HAT0JCPY4MILT", "dateTime": 1520018216442}, {"current_trial": 161, "trialdata": {"rt": -1, "trial_type": "single-stim", "word": "garlic", "stimulus": "<p id=\"stim\">GARLIC</p>", "conditions": [12, 800, "v", 24000], "internal_node_id": "0.0-116.0", "trial": 4, "time_elapsed": 982472, "serialpos": 4, "key_press": -1, "wordID": 623, "type": "PRES_VIS", "trial_index": 161}, "uniqueid": "MTK3103:38SKSKU7R24SKVRE2HAT0JCPY4MILT", "dateTime": 1520018218264}, {"current_trial": 162, "trialdata": {"rt": -1, "trial_type": "single-stim", "word": "radish", "stimulus": "<p id=\"stim\">RADISH</p>", "conditions": [12, 800, "v", 24000], "internal_node_id": "0.0-117.0", "trial": 4, "time_elapsed": 984451, "serialpos": 5, "key_press": -1, "wordID": 1157, "type": "PRES_VIS", "trial_index": 162}, "uniqueid": "MTK3103:38SKSKU7R24SKVRE2HAT0JCPY4MILT", "dateTime": 1520018220243}, {"current_trial": 163, "trialdata": {"rt": -1, "trial_type": "single-stim", "word": "banker", "stimulus": "<p id=\"stim\">BANKER</p>", "conditions": [12, 800, "v", 24000], "internal_node_id": "0.0-118.0", "trial": 4, "time_elapsed": 986055, "serialpos": 6, "key_press": -1, "wordID": 83, "type": "PRES_VIS", "trial_index": 163}, "uniqueid": "MTK3103:38SKSKU7R24SKVRE2HAT0JCPY4MILT", "dateTime": 1520018221847}, {"current_trial": 164, "trialdata": {"rt": -1, "trial_type": "single-stim", "word": "brook", "stimulus": "<p id=\"stim\">BROOK</p>", "conditions": [12, 800, "v", 24000], "internal_node_id": "0.0-119.0", "trial": 4, "time_elapsed": 987864, "serialpos": 7, "key_press": -1, "wordID": 176, "type": "PRES_VIS", "trial_index": 164}, "uniqueid": "MTK3103:38SKSKU7R24SKVRE2HAT0JCPY4MILT", "dateTime": 1520018223656}, {"current_trial": 165, "trialdata": {"rt": -1, "trial_type": "single-stim", "word": "ankle", "stimulus": "<p id=\"stim\">ANKLE</p>", "conditions": [12, 800, "v", 24000], "internal_node_id": "0.0-120.0", "trial": 4, "time_elapsed": 989574, "serialpos": 8, "key_press": -1, "wordID": 23, "type": "PRES_VIS", "trial_index": 165}, "uniqueid": "MTK3103:38SKSKU7R24SKVRE2HAT0JCPY4MILT", "dateTime": 1520018225366}, {"current_trial": 166, "trialdata": {"rt": -1, "trial_type": "single-stim", "word": "turnip", "stimulus": "<p id=\"stim\">TURNIP</p>", "conditions": [12, 800, "v", 24000], "internal_node_id": "0.0-121.0", "trial": 4, "time_elapsed": 991498, "serialpos": 9, "key_press": -1, "wordID": 1520, "type": "PRES_VIS", "trial_index": 166}, "uniqueid": "MTK3103:38SKSKU7R24SKVRE2HAT0JCPY4MILT", "dateTime": 1520018227290}, {"current_trial": 167, "trialdata": {"rt": -1, "trial_type": "single-stim", "word": "racket", "stimulus": "<p id=\"stim\">RACKET</p>", "conditions": [12, 800, "v", 24000], "internal_node_id": "0.0-122.0", "trial": 4, "time_elapsed": 993356, "serialpos": 10, "key_press": -1, "wordID": 1154, "type": "PRES_VIS", "trial_index": 167}, "uniqueid": "MTK3103:38SKSKU7R24SKVRE2HAT0JCPY4MILT", "dateTime": 1520018229149}, {"current_trial": 168, "trialdata": {"rt": -1, "trial_type": "single-stim", "word": "kidney", "stimulus": "<p id=\"stim\">KIDNEY</p>", "conditions": [12, 800, "v", 24000], "internal_node_id": "0.0-123.0", "trial": 4, "time_elapsed": 995111, "serialpos": 11, "key_press": -1, "wordID": 775, "type": "PRES_VIS", "trial_index": 168}, "uniqueid": "MTK3103:38SKSKU7R24SKVRE2HAT0JCPY4MILT", "dateTime": 1520018230904}, {"current_trial": 169, "trialdata": {"rt": -1, "trial_type": "single-stim", "stimulus": "", "internal_node_id": "0.0-124.0-0.0", "time_elapsed": 997512, "key_press": -1, "type": "PRE_RECALL_DELAY", "trial_index": 169}, "uniqueid": "MTK3103:38SKSKU7R24SKVRE2HAT0JCPY4MILT", "dateTime": 1520018233305}, {"current_trial": 170, "trialdata": {"rt": -1000, "trial_type": "single-audio", "stimulus": "/static/audio/400Hz.wav", "internal_node_id": "0.0-125.0", "time_elapsed": 998016, "key_press": -1, "type": "PRE_RECALL_ALERT", "trial_index": 170}, "uniqueid": "MTK3103:38SKSKU7R24SKVRE2HAT0JCPY4MILT", "dateTime": 1520018233809}, {"current_trial": 171, "trialdata": {"rt": [2957, 4557, 7014, 8276, 15197, 17440, 21189], "recwords": ["kidney", "racket", "country", "world", "radish", "garlic", "turnip"], "key_times": [1280, 1917, 2085, 2345, 2559, 2666, 2957, 3402, 3535, 3773, 4001, 4116, 4338, 4557, 5748, 5890, 6022, 6313, 6444, 6662, 6753, 7014, 7396, 7588, 7722, 7880, 8056, 8276, 13866, 13985, 14479, 14720, 14812, 14984, 15197, 16487, 16620, 16780, 16932, 17065, 17204, 17440, 19975, 20156, 20256, 20447, 20594, 20899, 21189], "trial_type": "free-recall", "conditions": [12, 800, "v", 24000], "internal_node_id": "0.0-126.0-0.0", "key_presses": [75, 73, 68, 78, 69, 89, 13, 82, 65, 67, 75, 69, 84, 13, 67, 79, 85, 78, 84, 82, 89, 13, 87, 79, 82, 76, 68, 13, 82, 65, 68, 73, 83, 72, 13, 71, 65, 82, 76, 73, 67, 13, 84, 85, 82, 78, 73, 80, 13], "trial": 4, "time_elapsed": 1058024, "type": "FREE_RECALL", "trial_index": 171}, "uniqueid": "MTK3103:38SKSKU7R24SKVRE2HAT0JCPY4MILT", "dateTime": 1520018293820}, {"current_trial": 172, "trialdata": {"rt": 162857, "trial_type": "text", "internal_node_id": "0.0-127.0", "time_elapsed": 1222888, "key_press": 32, "type": "INSTRUCTIONS", "trial_index": 172}, "uniqueid": "MTK3103:38SKSKU7R24SKVRE2HAT0JCPY4MILT", "dateTime": 1520018458681}, {"current_trial": 173, "trialdata": {"rt": [6955, 9835, 11701], "trial_type": "math-distractor", "key_times": [6420, 6652, 6955, 9435, 9627, 9835, 11271, 11426, 11701], "responses": ["17", "10", "11"], "num2": [8, 1, 7, 9], "num3": [3, 7, 1, 9], "conditions": [12, 1600, "v", 12000], "internal_node_id": "0.0-128.0", "key_presses": [97, 103, 13, 97, 96, 13, 97, 97, 13], "trial": 5, "time_elapsed": 1236902, "type": "DISTRACTOR", "trial_index": 173, "num1": [6, 2, 3, 2]}, "uniqueid": "MTK3103:38SKSKU7R24SKVRE2HAT0JCPY4MILT", "dateTime": 1520018472694}, {"current_trial": 174, "trialdata": {"rt": -1, "trial_type": "single-stim", "stimulus": "<p id=\"stim\">10</p>", "internal_node_id": "0.0-129.0-0.0", "time_elapsed": 1239906, "key_press": -1, "trial_index": 174}, "uniqueid": "MTK3103:38SKSKU7R24SKVRE2HAT0JCPY4MILT", "dateTime": 1520018475698}, {"current_trial": 175, "trialdata": {"rt": -1, "trial_type": "single-stim", "stimulus": "<p id=\"stim\">9</p>", "internal_node_id": "0.0-129.0-1.0", "time_elapsed": 1240908, "key_press": -1, "trial_index": 175}, "uniqueid": "MTK3103:38SKSKU7R24SKVRE2HAT0JCPY4MILT", "dateTime": 1520018476700}, {"current_trial": 176, "trialdata": {"rt": -1, "trial_type": "single-stim", "stimulus": "<p id=\"stim\">8</p>", "internal_node_id": "0.0-129.0-2.0", "time_elapsed": 1241913, "key_press": -1, "trial_index": 176}, "uniqueid": "MTK3103:38SKSKU7R24SKVRE2HAT0JCPY4MILT", "dateTime": 1520018477706}, {"current_trial": 177, "trialdata": {"rt": -1, "trial_type": "single-stim", "stimulus": "<p id=\"stim\">7</p>", "internal_node_id": "0.0-129.0-3.0", "time_elapsed": 1242919, "key_press": -1, "trial_index": 177}, "uniqueid": "MTK3103:38SKSKU7R24SKVRE2HAT0JCPY4MILT", "dateTime": 1520018478711}, {"current_trial": 178, "trialdata": {"rt": -1, "trial_type": "single-stim", "stimulus": "<p id=\"stim\">6</p>", "internal_node_id": "0.0-129.0-4.0", "time_elapsed": 1243922, "key_press": -1, "trial_index": 178}, "uniqueid": "MTK3103:38SKSKU7R24SKVRE2HAT0JCPY4MILT", "dateTime": 1520018479714}, {"current_trial": 179, "trialdata": {"rt": -1, "trial_type": "single-stim", "stimulus": "<p id=\"stim\">5</p>", "internal_node_id": "0.0-129.0-5.0", "time_elapsed": 1244926, "key_press": -1, "trial_index": 179}, "uniqueid": "MTK3103:38SKSKU7R24SKVRE2HAT0JCPY4MILT", "dateTime": 1520018480718}, {"current_trial": 180, "trialdata": {"rt": -1, "trial_type": "single-stim", "stimulus": "<p id=\"stim\">4</p>", "internal_node_id": "0.0-129.0-6.0", "time_elapsed": 1245931, "key_press": -1, "trial_index": 180}, "uniqueid": "MTK3103:38SKSKU7R24SKVRE2HAT0JCPY4MILT", "dateTime": 1520018481726}, {"current_trial": 181, "trialdata": {"rt": -1, "trial_type": "single-stim", "stimulus": "<p id=\"stim\">3</p>", "internal_node_id": "0.0-129.0-7.0", "time_elapsed": 1246939, "key_press": -1, "trial_index": 181}, "uniqueid": "MTK3103:38SKSKU7R24SKVRE2HAT0JCPY4MILT", "dateTime": 1520018482732}, {"current_trial": 182, "trialdata": {"rt": -1, "trial_type": "single-stim", "stimulus": "<p id=\"stim\">2</p>", "internal_node_id": "0.0-129.0-8.0", "time_elapsed": 1247944, "key_press": -1, "trial_index": 182}, "uniqueid": "MTK3103:38SKSKU7R24SKVRE2HAT0JCPY4MILT", "dateTime": 1520018483736}, {"current_trial": 183, "trialdata": {"rt": -1, "trial_type": "single-stim", "stimulus": "<p id=\"stim\">1</p>", "internal_node_id": "0.0-129.0-9.0", "time_elapsed": 1248947, "key_press": -1, "trial_index": 183}, "uniqueid": "MTK3103:38SKSKU7R24SKVRE2HAT0JCPY4MILT", "dateTime": 1520018484740}, {"current_trial": 184, "trialdata": {"rt": -1, "trial_type": "single-stim", "stimulus": "<p id=\"stim\">+</p>", "internal_node_id": "0.0-130.0-0.0", "time_elapsed": 1250450, "key_press": -1, "type": "FIXATION", "trial_index": 184}, "uniqueid": "MTK3103:38SKSKU7R24SKVRE2HAT0JCPY4MILT", "dateTime": 1520018486242}, {"current_trial": 185, "trialdata": {"rt": -1, "trial_type": "single-stim", "word": "marine", "stimulus": "<p id=\"stim\">MARINE</p>", "conditions": [12, 1600, "v", 12000], "internal_node_id": "0.0-131.0", "trial": 5, "time_elapsed": 1252052, "serialpos": 0, "key_press": -1, "wordID": 868, "type": "PRES_VIS", "trial_index": 185}, "uniqueid": "MTK3103:38SKSKU7R24SKVRE2HAT0JCPY4MILT", "dateTime": 1520018487844}, {"current_trial": 186, "trialdata": {"rt": -1, "trial_type": "single-stim", "word": "soda", "stimulus": "<p id=\"stim\">SODA</p>", "conditions": [12, 1600, "v", 12000], "internal_node_id": "0.0-132.0", "trial": 5, "time_elapsed": 1254822, "serialpos": 1, "key_press": -1, "wordID": 1340, "type": "PRES_VIS", "trial_index": 186}, "uniqueid": "MTK3103:38SKSKU7R24SKVRE2HAT0JCPY4MILT", "dateTime": 1520018490614}, {"current_trial": 187, "trialdata": {"rt": -1, "trial_type": "single-stim", "word": "box", "stimulus": "<p id=\"stim\">BOX</p>", "conditions": [12, 1600, "v", 12000], "internal_node_id": "0.0-133.0", "trial": 5, "time_elapsed": 1257605, "serialpos": 2, "key_press": -1, "wordID": 158, "type": "PRES_VIS", "trial_index": 187}, "uniqueid": "MTK3103:38SKSKU7R24SKVRE2HAT0JCPY4MILT", "dateTime": 1520018493397}, {"current_trial": 188, "trialdata": {"rt": -1, "trial_type": "single-stim", "word": "supper", "stimulus": "<p id=\"stim\">SUPPER</p>", "conditions": [12, 1600, "v", 12000], "internal_node_id": "0.0-134.0", "trial": 5, "time_elapsed": 1260300, "serialpos": 3, "key_press": -1, "wordID": 1410, "type": "PRES_VIS", "trial_index": 188}, "uniqueid": "MTK3103:38SKSKU7R24SKVRE2HAT0JCPY4MILT", "dateTime": 1520018496093}, {"current_trial": 189, "trialdata": {"rt": -1, "trial_type": "single-stim", "word": "lunch", "stimulus": "<p id=\"stim\">LUNCH</p>", "conditions": [12, 1600, "v", 12000], "internal_node_id": "0.0-135.0", "trial": 5, "time_elapsed": 1263038, "serialpos": 4, "key_press": -1, "wordID": 848, "type": "PRES_VIS", "trial_index": 189}, "uniqueid": "MTK3103:38SKSKU7R24SKVRE2HAT0JCPY4MILT", "dateTime": 1520018498831}, {"current_trial": 190, "trialdata": {"rt": -1, "trial_type": "single-stim", "word": "outdoors", "stimulus": "<p id=\"stim\">OUTDOORS</p>", "conditions": [12, 1600, "v", 12000], "internal_node_id": "0.0-136.0", "trial": 5, "time_elapsed": 1265739, "serialpos": 5, "key_press": -1, "wordID": 986, "type": "PRES_VIS", "trial_index": 190}, "uniqueid": "MTK3103:38SKSKU7R24SKVRE2HAT0JCPY4MILT", "dateTime": 1520018501532}, {"current_trial": 191, "trialdata": {"rt": -1, "trial_type": "single-stim", "word": "candy", "stimulus": "<p id=\"stim\">CANDY</p>", "conditions": [12, 1600, "v", 12000], "internal_node_id": "0.0-137.0", "trial": 5, "time_elapsed": 1268442, "serialpos": 6, "key_press": -1, "wordID": 229, "type": "PRES_VIS", "trial_index": 191}, "uniqueid": "MTK3103:38SKSKU7R24SKVRE2HAT0JCPY4MILT", "dateTime": 1520018504235}, {"current_trial": 192, "trialdata": {"rt": -1, "trial_type": "single-stim", "word": "author", "stimulus": "<p id=\"stim\">AUTHOR</p>", "conditions": [12, 1600, "v", 12000], "internal_node_id": "0.0-138.0", "trial": 5, "time_elapsed": 1271084, "serialpos": 7, "key_press": -1, "wordID": 60, "type": "PRES_VIS", "trial_index": 192}, "uniqueid": "MTK3103:38SKSKU7R24SKVRE2HAT0JCPY4MILT", "dateTime": 1520018506876}, {"current_trial": 193, "trialdata": {"rt": -1, "trial_type": "single-stim", "word": "leg", "stimulus": "<p id=\"stim\">LEG</p>", "conditions": [12, 1600, "v", 12000], "internal_node_id": "0.0-139.0", "trial": 5, "time_elapsed": 1273675, "serialpos": 8, "key_press": -1, "wordID": 808, "type": "PRES_VIS", "trial_index": 193}, "uniqueid": "MTK3103:38SKSKU7R24SKVRE2HAT0JCPY4MILT", "dateTime": 1520018509467}, {"current_trial": 194, "trialdata": {"rt": -1, "trial_type": "single-stim", "word": "snack", "stimulus": "<p id=\"stim\">SNACK</p>", "conditions": [12, 1600, "v", 12000], "internal_node_id": "0.0-140.0", "trial": 5, "time_elapsed": 1276330, "serialpos": 9, "key_press": -1, "wordID": 1330, "type": "PRES_VIS", "trial_index": 194}, "uniqueid": "MTK3103:38SKSKU7R24SKVRE2HAT0JCPY4MILT", "dateTime": 1520018512122}, {"current_trial": 195, "trialdata": {"rt": -1, "trial_type": "single-stim", "word": "pliers", "stimulus": "<p id=\"stim\">PLIERS</p>", "conditions": [12, 1600, "v", 12000], "internal_node_id": "0.0-141.0", "trial": 5, "time_elapsed": 1278910, "serialpos": 10, "key_press": -1, "wordID": 1088, "type": "PRES_VIS", "trial_index": 195}, "uniqueid": "MTK3103:38SKSKU7R24SKVRE2HAT0JCPY4MILT", "dateTime": 1520018514702}, {"current_trial": 196, "trialdata": {"rt": -1, "trial_type": "single-stim", "word": "nightgown", "stimulus": "<p id=\"stim\">NIGHTGOWN</p>", "conditions": [12, 1600, "v", 12000], "internal_node_id": "0.0-142.0", "trial": 5, "time_elapsed": 1281321, "serialpos": 11, "key_press": -1, "wordID": 952, "type": "PRES_VIS", "trial_index": 196}, "uniqueid": "MTK3103:38SKSKU7R24SKVRE2HAT0JCPY4MILT", "dateTime": 1520018517114}, {"current_trial": 197, "trialdata": {"rt": -1, "trial_type": "single-stim", "stimulus": "", "internal_node_id": "0.0-143.0-0.0", "time_elapsed": 1283693, "key_press": -1, "type": "PRE_RECALL_DELAY", "trial_index": 197}, "uniqueid": "MTK3103:38SKSKU7R24SKVRE2HAT0JCPY4MILT", "dateTime": 1520018519485}, {"current_trial": 198, "trialdata": {"rt": -1000, "trial_type": "single-audio", "stimulus": "/static/audio/400Hz.wav", "internal_node_id": "0.0-144.0", "time_elapsed": 1284195, "key_press": -1, "type": "PRE_RECALL_ALERT", "trial_index": 198}, "uniqueid": "MTK3103:38SKSKU7R24SKVRE2HAT0JCPY4MILT", "dateTime": 1520018519987}, {"current_trial": 199, "trialdata": {"rt": [3551, 6065, 17196, 18467, 20894, 23985], "recwords": ["nightgown", "pliers", "author", "candy", "supper", "luch"], "key_times": [1124, 1554, 1754, 1877, 2077, 2864, 3004, 3151, 3271, 3551, 4942, 5198, 5369, 5610, 5702, 5910, 6065, 16153, 16328, 16550, 16625, 16752, 16840, 17196, 17592, 17730, 17890, 17972, 18208, 18467, 19029, 19498, 19841, 20003, 20173, 20334, 20498, 20581, 20894, 21923, 22141, 22629, 22746, 23985], "trial_type": "free-recall", "conditions": [12, 1600, "v", 12000], "internal_node_id": "0.0-145.0-0.0", "key_presses": [78, 73, 71, 72, 84, 71, 79, 87, 78, 13, 80, 76, 73, 69, 82, 83, 13, 65, 85, 84, 72, 79, 82, 13, 67, 65, 78, 68, 89, 13, 68, 8, 83, 85, 80, 80, 69, 82, 13, 76, 85, 67, 72, 13], "trial": 5, "time_elapsed": 1344201, "type": "FREE_RECALL", "trial_index": 199}, "uniqueid": "MTK3103:38SKSKU7R24SKVRE2HAT0JCPY4MILT", "dateTime": 1520018580003}, {"current_trial": 200, "trialdata": {"rt": 3590, "trial_type": "text", "internal_node_id": "0.0-146.0", "time_elapsed": 1349803, "key_press": 32, "type": "INSTRUCTIONS", "trial_index": 200}, "uniqueid": "MTK3103:38SKSKU7R24SKVRE2HAT0JCPY4MILT", "dateTime": 1520018585595}, {"current_trial": 201, "trialdata": {"rt": [3126, 10099, 11906, 16535, 18912, 23353], "trial_type": "math-distractor", "key_times": [2552, 2803, 3126, 9680, 9865, 10099, 11544, 11669, 11906, 16197, 16338, 16535, 18675, 18912, 22849, 22968, 23353], "responses": ["18", "20", "13", "11", "6", "16"], "num2": [1, 5, 5, 3, 3, 4, 3], "num3": [8, 7, 3, 6, 1, 3, 8], "conditions": [24, 1600, "v", 24000], "internal_node_id": "0.0-147.0", "key_presses": [97, 104, 13, 98, 96, 13, 97, 99, 13, 97, 97, 13, 102, 13, 97, 102, 13], "trial": 6, "time_elapsed": 1375812, "type": "DISTRACTOR", "trial_index": 201, "num1": [9, 8, 5, 2, 2, 9, 5]}, "uniqueid": "MTK3103:38SKSKU7R24SKVRE2HAT0JCPY4MILT", "dateTime": 1520018611604}, {"current_trial": 202, "trialdata": {"rt": -1, "trial_type": "single-stim", "stimulus": "<p id=\"stim\">10</p>", "internal_node_id": "0.0-148.0-0.0", "time_elapsed": 1378818, "key_press": -1, "trial_index": 202}, "uniqueid": "MTK3103:38SKSKU7R24SKVRE2HAT0JCPY4MILT", "dateTime": 1520018614610}, {"current_trial": 203, "trialdata": {"rt": -1, "trial_type": "single-stim", "stimulus": "<p id=\"stim\">9</p>", "internal_node_id": "0.0-148.0-1.0", "time_elapsed": 1379823, "key_press": -1, "trial_index": 203}, "uniqueid": "MTK3103:38SKSKU7R24SKVRE2HAT0JCPY4MILT", "dateTime": 1520018615615}, {"current_trial": 204, "trialdata": {"rt": -1, "trial_type": "single-stim", "stimulus": "<p id=\"stim\">8</p>", "internal_node_id": "0.0-148.0-2.0", "time_elapsed": 1380843, "key_press": -1, "trial_index": 204}, "uniqueid": "MTK3103:38SKSKU7R24SKVRE2HAT0JCPY4MILT", "dateTime": 1520018616635}, {"current_trial": 205, "trialdata": {"rt": -1, "trial_type": "single-stim", "stimulus": "<p id=\"stim\">7</p>", "internal_node_id": "0.0-148.0-3.0", "time_elapsed": 1381901, "key_press": -1, "trial_index": 205}, "uniqueid": "MTK3103:38SKSKU7R24SKVRE2HAT0JCPY4MILT", "dateTime": 1520018617693}, {"current_trial": 206, "trialdata": {"rt": -1, "trial_type": "single-stim", "stimulus": "<p id=\"stim\">6</p>", "internal_node_id": "0.0-148.0-4.0", "time_elapsed": 1382903, "key_press": -1, "trial_index": 206}, "uniqueid": "MTK3103:38SKSKU7R24SKVRE2HAT0JCPY4MILT", "dateTime": 1520018618695}, {"current_trial": 207, "trialdata": {"rt": -1, "trial_type": "single-stim", "stimulus": "<p id=\"stim\">5</p>", "internal_node_id": "0.0-148.0-5.0", "time_elapsed": 1383931, "key_press": -1, "trial_index": 207}, "uniqueid": "MTK3103:38SKSKU7R24SKVRE2HAT0JCPY4MILT", "dateTime": 1520018619723}, {"current_trial": 208, "trialdata": {"rt": -1, "trial_type": "single-stim", "stimulus": "<p id=\"stim\">4</p>", "internal_node_id": "0.0-148.0-6.0", "time_elapsed": 1384982, "key_press": -1, "trial_index": 208}, "uniqueid": "MTK3103:38SKSKU7R24SKVRE2HAT0JCPY4MILT", "dateTime": 1520018620774}, {"current_trial": 209, "trialdata": {"rt": -1, "trial_type": "single-stim", "stimulus": "<p id=\"stim\">3</p>", "internal_node_id": "0.0-148.0-7.0", "time_elapsed": 1385987, "key_press": -1, "trial_index": 209}, "uniqueid": "MTK3103:38SKSKU7R24SKVRE2HAT0JCPY4MILT", "dateTime": 1520018621779}, {"current_trial": 210, "trialdata": {"rt": -1, "trial_type": "single-stim", "stimulus": "<p id=\"stim\">2</p>", "internal_node_id": "0.0-148.0-8.0", "time_elapsed": 1386988, "key_press": -1, "trial_index": 210}, "uniqueid": "MTK3103:38SKSKU7R24SKVRE2HAT0JCPY4MILT", "dateTime": 1520018622780}, {"current_trial": 211, "trialdata": {"rt": -1, "trial_type": "single-stim", "stimulus": "<p id=\"stim\">1</p>", "internal_node_id": "0.0-148.0-9.0", "time_elapsed": 1387991, "key_press": -1, "trial_index": 211}, "uniqueid": "MTK3103:38SKSKU7R24SKVRE2HAT0JCPY4MILT", "dateTime": 1520018623783}, {"current_trial": 212, "trialdata": {"rt": -1, "trial_type": "single-stim", "stimulus": "<p id=\"stim\">+</p>", "internal_node_id": "0.0-149.0-0.0", "time_elapsed": 1389492, "key_press": -1, "type": "FIXATION", "trial_index": 212}, "uniqueid": "MTK3103:38SKSKU7R24SKVRE2HAT0JCPY4MILT", "dateTime": 1520018625285}, {"current_trial": 213, "trialdata": {"rt": -1, "trial_type": "single-stim", "word": "rooster", "stimulus": "<p id=\"stim\">ROOSTER</p>", "conditions": [24, 1600, "v", 24000], "internal_node_id": "0.0-150.0", "trial": 6, "time_elapsed": 1391095, "serialpos": 0, "key_press": -1, "wordID": 1208, "type": "PRES_VIS", "trial_index": 213}, "uniqueid": "MTK3103:38SKSKU7R24SKVRE2HAT0JCPY4MILT", "dateTime": 1520018626887}, {"current_trial": 214, "trialdata": {"rt": -1, "trial_type": "single-stim", "word": "icing", "stimulus": "<p id=\"stim\">ICING</p>", "conditions": [24, 1600, "v", 24000], "internal_node_id": "0.0-151.0", "trial": 6, "time_elapsed": 1393819, "serialpos": 1, "key_press": -1, "wordID": 731, "type": "PRES_VIS", "trial_index": 214}, "uniqueid": "MTK3103:38SKSKU7R24SKVRE2HAT0JCPY4MILT", "dateTime": 1520018629611}, {"current_trial": 215, "trialdata": {"rt": -1, "trial_type": "single-stim", "word": "scotch", "stimulus": "<p id=\"stim\">SCOTCH</p>", "conditions": [24, 1600, "v", 24000], "internal_node_id": "0.0-152.0", "trial": 6, "time_elapsed": 1396305, "serialpos": 2, "key_press": -1, "wordID": 1250, "type": "PRES_VIS", "trial_index": 215}, "uniqueid": "MTK3103:38SKSKU7R24SKVRE2HAT0JCPY4MILT", "dateTime": 1520018632100}, {"current_trial": 216, "trialdata": {"rt": -1, "trial_type": "single-stim", "word": "hound", "stimulus": "<p id=\"stim\">HOUND</p>", "conditions": [24, 1600, "v", 24000], "internal_node_id": "0.0-153.0", "trial": 6, "time_elapsed": 1398854, "serialpos": 3, "key_press": -1, "wordID": 723, "type": "PRES_VIS", "trial_index": 216}, "uniqueid": "MTK3103:38SKSKU7R24SKVRE2HAT0JCPY4MILT", "dateTime": 1520018634646}, {"current_trial": 217, "trialdata": {"rt": -1, "trial_type": "single-stim", "word": "table", "stimulus": "<p id=\"stim\">TABLE</p>", "conditions": [24, 1600, "v", 24000], "internal_node_id": "0.0-154.0", "trial": 6, "time_elapsed": 1401521, "serialpos": 4, "key_press": -1, "wordID": 1425, "type": "PRES_VIS", "trial_index": 217}, "uniqueid": "MTK3103:38SKSKU7R24SKVRE2HAT0JCPY4MILT", "dateTime": 1520018637313}, {"current_trial": 218, "trialdata": {"rt": -1, "trial_type": "single-stim", "word": "curtain", "stimulus": "<p id=\"stim\">CURTAIN</p>", "conditions": [24, 1600, "v", 24000], "internal_node_id": "0.0-155.0", "trial": 6, "time_elapsed": 1404170, "serialpos": 5, "key_press": -1, "wordID": 426, "type": "PRES_VIS", "trial_index": 218}, "uniqueid": "MTK3103:38SKSKU7R24SKVRE2HAT0JCPY4MILT", "dateTime": 1520018639962}, {"current_trial": 219, "trialdata": {"rt": -1, "trial_type": "single-stim", "word": "crayon", "stimulus": "<p id=\"stim\">CRAYON</p>", "conditions": [24, 1600, "v", 24000], "internal_node_id": "0.0-156.0", "trial": 6, "time_elapsed": 1406688, "serialpos": 6, "key_press": -1, "wordID": 400, "type": "PRES_VIS", "trial_index": 219}, "uniqueid": "MTK3103:38SKSKU7R24SKVRE2HAT0JCPY4MILT", "dateTime": 1520018642481}, {"current_trial": 220, "trialdata": {"rt": -1, "trial_type": "single-stim", "word": "wagon", "stimulus": "<p id=\"stim\">WAGON</p>", "conditions": [24, 1600, "v", 24000], "internal_node_id": "0.0-157.0", "trial": 6, "time_elapsed": 1409411, "serialpos": 7, "key_press": -1, "wordID": 1577, "type": "PRES_VIS", "trial_index": 220}, "uniqueid": "MTK3103:38SKSKU7R24SKVRE2HAT0JCPY4MILT", "dateTime": 1520018645203}, {"current_trial": 221, "trialdata": {"rt": -1, "trial_type": "single-stim", "word": "snail", "stimulus": "<p id=\"stim\">SNAIL</p>", "conditions": [24, 1600, "v", 24000], "internal_node_id": "0.0-158.0", "trial": 6, "time_elapsed": 1412140, "serialpos": 8, "key_press": -1, "wordID": 1331, "type": "PRES_VIS", "trial_index": 221}, "uniqueid": "MTK3103:38SKSKU7R24SKVRE2HAT0JCPY4MILT", "dateTime": 1520018647932}, {"current_trial": 222, "trialdata": {"rt": -1, "trial_type": "single-stim", "word": "tortoise", "stimulus": "<p id=\"stim\">TORTOISE</p>", "conditions": [24, 1600, "v", 24000], "internal_node_id": "0.0-159.0", "trial": 6, "time_elapsed": 1414781, "serialpos": 9, "key_press": -1, "wordID": 1485, "type": "PRES_VIS", "trial_index": 222}, "uniqueid": "MTK3103:38SKSKU7R24SKVRE2HAT0JCPY4MILT", "dateTime": 1520018650573}, {"current_trial": 223, "trialdata": {"rt": -1, "trial_type": "single-stim", "word": "princess", "stimulus": "<p id=\"stim\">PRINCESS</p>", "conditions": [24, 1600, "v", 24000], "internal_node_id": "0.0-160.0", "trial": 6, "time_elapsed": 1417493, "serialpos": 10, "key_press": -1, "wordID": 1124, "type": "PRES_VIS", "trial_index": 223}, "uniqueid": "MTK3103:38SKSKU7R24SKVRE2HAT0JCPY4MILT", "dateTime": 1520018653286}, {"current_trial": 224, "trialdata": {"rt": -1, "trial_type": "single-stim", "word": "truck", "stimulus": "<p id=\"stim\">TRUCK</p>", "conditions": [24, 1600, "v", 24000], "internal_node_id": "0.0-161.0", "trial": 6, "time_elapsed": 1420071, "serialpos": 11, "key_press": -1, "wordID": 1511, "type": "PRES_VIS", "trial_index": 224}, "uniqueid": "MTK3103:38SKSKU7R24SKVRE2HAT0JCPY4MILT", "dateTime": 1520018655863}, {"current_trial": 225, "trialdata": {"rt": -1, "trial_type": "single-stim", "word": "gavel", "stimulus": "<p id=\"stim\">GAVEL</p>", "conditions": [24, 1600, "v", 24000], "internal_node_id": "0.0-162.0", "trial": 6, "time_elapsed": 1422733, "serialpos": 12, "key_press": -1, "wordID": 626, "type": "PRES_VIS", "trial_index": 225}, "uniqueid": "MTK3103:38SKSKU7R24SKVRE2HAT0JCPY4MILT", "dateTime": 1520018658525}, {"current_trial": 226, "trialdata": {"rt": -1, "trial_type": "single-stim", "word": "outlaw", "stimulus": "<p id=\"stim\">OUTLAW</p>", "conditions": [24, 1600, "v", 24000], "internal_node_id": "0.0-163.0", "trial": 6, "time_elapsed": 1425421, "serialpos": 13, "key_press": -1, "wordID": 988, "type": "PRES_VIS", "trial_index": 226}, "uniqueid": "MTK3103:38SKSKU7R24SKVRE2HAT0JCPY4MILT", "dateTime": 1520018661213}, {"current_trial": 227, "trialdata": {"rt": -1, "trial_type": "single-stim", "word": "highway", "stimulus": "<p id=\"stim\">HIGHWAY</p>", "conditions": [24, 1600, "v", 24000], "internal_node_id": "0.0-164.0", "trial": 6, "time_elapsed": 1428198, "serialpos": 14, "key_press": -1, "wordID": 706, "type": "PRES_VIS", "trial_index": 227}, "uniqueid": "MTK3103:38SKSKU7R24SKVRE2HAT0JCPY4MILT", "dateTime": 1520018663991}, {"current_trial": 228, "trialdata": {"rt": -1, "trial_type": "single-stim", "word": "smog", "stimulus": "<p id=\"stim\">SMOG</p>", "conditions": [24, 1600, "v", 24000], "internal_node_id": "0.0-165.0", "trial": 6, "time_elapsed": 1430850, "serialpos": 15, "key_press": -1, "wordID": 1329, "type": "PRES_VIS", "trial_index": 228}, "uniqueid": "MTK3103:38SKSKU7R24SKVRE2HAT0JCPY4MILT", "dateTime": 1520018666642}, {"current_trial": 229, "trialdata": {"rt": -1, "trial_type": "single-stim", "word": "expert", "stimulus": "<p id=\"stim\">EXPERT</p>", "conditions": [24, 1600, "v", 24000], "internal_node_id": "0.0-166.0", "trial": 6, "time_elapsed": 1433392, "serialpos": 16, "key_press": -1, "wordID": 542, "type": "PRES_VIS", "trial_index": 229}, "uniqueid": "MTK3103:38SKSKU7R24SKVRE2HAT0JCPY4MILT", "dateTime": 1520018669184}, {"current_trial": 230, "trialdata": {"rt": -1, "trial_type": "single-stim", "word": "monster", "stimulus": "<p id=\"stim\">MONSTER</p>", "conditions": [24, 1600, "v", 24000], "internal_node_id": "0.0-167.0", "trial": 6, "time_elapsed": 1436121, "serialpos": 17, "key_press": -1, "wordID": 911, "type": "PRES_VIS", "trial_index": 230}, "uniqueid": "MTK3103:38SKSKU7R24SKVRE2HAT0JCPY4MILT", "dateTime": 1520018671914}, {"current_trial": 231, "trialdata": {"rt": -1, "trial_type": "single-stim", "word": "creature", "stimulus": "<p id=\"stim\">CREATURE</p>", "conditions": [24, 1600, "v", 24000], "internal_node_id": "0.0-168.0", "trial": 6, "time_elapsed": 1438611, "serialpos": 18, "key_press": -1, "wordID": 402, "type": "PRES_VIS", "trial_index": 231}, "uniqueid": "MTK3103:38SKSKU7R24SKVRE2HAT0JCPY4MILT", "dateTime": 1520018674403}, {"current_trial": 232, "trialdata": {"rt": -1, "trial_type": "single-stim", "word": "lizard", "stimulus": "<p id=\"stim\">LIZARD</p>", "conditions": [24, 1600, "v", 24000], "internal_node_id": "0.0-169.0", "trial": 6, "time_elapsed": 1441333, "serialpos": 19, "key_press": -1, "wordID": 833, "type": "PRES_VIS", "trial_index": 232}, "uniqueid": "MTK3103:38SKSKU7R24SKVRE2HAT0JCPY4MILT", "dateTime": 1520018677125}, {"current_trial": 233, "trialdata": {"rt": -1, "trial_type": "single-stim", "word": "juggler", "stimulus": "<p id=\"stim\">JUGGLER</p>", "conditions": [24, 1600, "v", 24000], "internal_node_id": "0.0-170.0", "trial": 6, "time_elapsed": 1444112, "serialpos": 20, "key_press": -1, "wordID": 762, "type": "PRES_VIS", "trial_index": 233}, "uniqueid": "MTK3103:38SKSKU7R24SKVRE2HAT0JCPY4MILT", "dateTime": 1520018679904}, {"current_trial": 234, "trialdata": {"rt": -1, "trial_type": "single-stim", "word": "ozone", "stimulus": "<p id=\"stim\">OZONE</p>", "conditions": [24, 1600, "v", 24000], "internal_node_id": "0.0-171.0", "trial": 6, "time_elapsed": 1446657, "serialpos": 21, "key_press": -1, "wordID": 995, "type": "PRES_VIS", "trial_index": 234}, "uniqueid": "MTK3103:38SKSKU7R24SKVRE2HAT0JCPY4MILT", "dateTime": 1520018682449}, {"current_trial": 235, "trialdata": {"rt": -1, "trial_type": "single-stim", "word": "cowboy", "stimulus": "<p id=\"stim\">COWBOY</p>", "conditions": [24, 1600, "v", 24000], "internal_node_id": "0.0-172.0", "trial": 6, "time_elapsed": 1449084, "serialpos": 22, "key_press": -1, "wordID": 394, "type": "PRES_VIS", "trial_index": 235}, "uniqueid": "MTK3103:38SKSKU7R24SKVRE2HAT0JCPY4MILT", "dateTime": 1520018684876}, {"current_trial": 236, "trialdata": {"rt": -1, "trial_type": "single-stim", "word": "hawk", "stimulus": "<p id=\"stim\">HAWK</p>", "conditions": [24, 1600, "v", 24000], "internal_node_id": "0.0-173.0", "trial": 6, "time_elapsed": 1451623, "serialpos": 23, "key_press": -1, "wordID": 691, "type": "PRES_VIS", "trial_index": 236}, "uniqueid": "MTK3103:38SKSKU7R24SKVRE2HAT0JCPY4MILT", "dateTime": 1520018687415}, {"current_trial": 237, "trialdata": {"rt": -1, "trial_type": "single-stim", "stimulus": "", "internal_node_id": "0.0-174.0-0.0", "time_elapsed": 1453908, "key_press": -1, "type": "PRE_RECALL_DELAY", "trial_index": 237}, "uniqueid": "MTK3103:38SKSKU7R24SKVRE2HAT0JCPY4MILT", "dateTime": 1520018689701}, {"current_trial": 238, "trialdata": {"rt": -1000, "trial_type": "single-audio", "stimulus": "/static/audio/400Hz.wav", "internal_node_id": "0.0-175.0", "time_elapsed": 1454410, "key_press": -1, "type": "PRE_RECALL_ALERT", "trial_index": 238}, "uniqueid": "MTK3103:38SKSKU7R24SKVRE2HAT0JCPY4MILT", "dateTime": 1520018690202}, {"current_trial": 239, "trialdata": {"rt": [3106, 4814, 6911, 10395, 15867], "recwords": ["cowboy", "hawk", "ozone", "crayon", "rooster"], "key_times": [1830, 1940, 2064, 2429, 2551, 2739, 3106, 3741, 3836, 4050, 4529, 4814, 6087, 6310, 6489, 6657, 6769, 6911, 8038, 8291, 8425, 8654, 8797, 8928, 9059, 10046, 10395, 14634, 14761, 14951, 15112, 15485, 15660, 15715, 15867], "trial_type": "free-recall", "conditions": [24, 1600, "v", 24000], "internal_node_id": "0.0-176.0-0.0", "key_presses": [67, 79, 87, 66, 79, 89, 13, 72, 65, 87, 75, 13, 79, 90, 79, 78, 69, 13, 67, 82, 65, 89, 79, 78, 69, 8, 13, 82, 79, 79, 83, 84, 69, 82, 13], "trial": 6, "time_elapsed": 1514416, "type": "FREE_RECALL", "trial_index": 239}, "uniqueid": "MTK3103:38SKSKU7R24SKVRE2HAT0JCPY4MILT", "dateTime": 1520018750215}, {"current_trial": 240, "trialdata": {"rt": 24813, "trial_type": "text", "internal_node_id": "0.0-177.0", "time_elapsed": 1541240, "key_press": 32, "type": "INSTRUCTIONS", "trial_index": 240}, "uniqueid": "MTK3103:38SKSKU7R24SKVRE2HAT0JCPY4MILT", "dateTime": 1520018777033}, {"current_trial": 241, "trialdata": {"rt": [3809, 10414], "trial_type": "math-distractor", "key_times": [3449, 3593, 3809, 9716, 9970, 10414], "responses": ["11", "17"], "num2": [4, 3, 7], "num3": [3, 6, 1], "conditions": [12, 1600, "v", 12000], "internal_node_id": "0.0-178.0", "key_presses": [97, 97, 13, 97, 103, 13], "trial": 7, "time_elapsed": 1555248, "type": "DISTRACTOR", "trial_index": 241, "num1": [5, 8, 1]}, "uniqueid": "MTK3103:38SKSKU7R24SKVRE2HAT0JCPY4MILT", "dateTime": 1520018791040}, {"current_trial": 242, "trialdata": {"rt": -1, "trial_type": "single-stim", "stimulus": "<p id=\"stim\">10</p>", "internal_node_id": "0.0-179.0-0.0", "time_elapsed": 1558251, "key_press": -1, "trial_index": 242}, "uniqueid": "MTK3103:38SKSKU7R24SKVRE2HAT0JCPY4MILT", "dateTime": 1520018794044}, {"current_trial": 243, "trialdata": {"rt": -1, "trial_type": "single-stim", "stimulus": "<p id=\"stim\">9</p>", "internal_node_id": "0.0-179.0-1.0", "time_elapsed": 1559254, "key_press": -1, "trial_index": 243}, "uniqueid": "MTK3103:38SKSKU7R24SKVRE2HAT0JCPY4MILT", "dateTime": 1520018795046}, {"current_trial": 244, "trialdata": {"rt": -1, "trial_type": "single-stim", "stimulus": "<p id=\"stim\">8</p>", "internal_node_id": "0.0-179.0-2.0", "time_elapsed": 1560257, "key_press": -1, "trial_index": 244}, "uniqueid": "MTK3103:38SKSKU7R24SKVRE2HAT0JCPY4MILT", "dateTime": 1520018796050}, {"current_trial": 245, "trialdata": {"rt": -1, "trial_type": "single-stim", "stimulus": "<p id=\"stim\">7</p>", "internal_node_id": "0.0-179.0-3.0", "time_elapsed": 1561262, "key_press": -1, "trial_index": 245}, "uniqueid": "MTK3103:38SKSKU7R24SKVRE2HAT0JCPY4MILT", "dateTime": 1520018797055}, {"current_trial": 246, "trialdata": {"rt": -1, "trial_type": "single-stim", "stimulus": "<p id=\"stim\">6</p>", "internal_node_id": "0.0-179.0-4.0", "time_elapsed": 1562268, "key_press": -1, "trial_index": 246}, "uniqueid": "MTK3103:38SKSKU7R24SKVRE2HAT0JCPY4MILT", "dateTime": 1520018798060}, {"current_trial": 247, "trialdata": {"rt": -1, "trial_type": "single-stim", "stimulus": "<p id=\"stim\">5</p>", "internal_node_id": "0.0-179.0-5.0", "time_elapsed": 1563274, "key_press": -1, "trial_index": 247}, "uniqueid": "MTK3103:38SKSKU7R24SKVRE2HAT0JCPY4MILT", "dateTime": 1520018799066}, {"current_trial": 248, "trialdata": {"rt": -1, "trial_type": "single-stim", "stimulus": "<p id=\"stim\">4</p>", "internal_node_id": "0.0-179.0-6.0", "time_elapsed": 1564278, "key_press": -1, "trial_index": 248}, "uniqueid": "MTK3103:38SKSKU7R24SKVRE2HAT0JCPY4MILT", "dateTime": 1520018800070}, {"current_trial": 249, "trialdata": {"rt": -1, "trial_type": "single-stim", "stimulus": "<p id=\"stim\">3</p>", "internal_node_id": "0.0-179.0-7.0", "time_elapsed": 1565279, "key_press": -1, "trial_index": 249}, "uniqueid": "MTK3103:38SKSKU7R24SKVRE2HAT0JCPY4MILT", "dateTime": 1520018801071}, {"current_trial": 250, "trialdata": {"rt": -1, "trial_type": "single-stim", "stimulus": "<p id=\"stim\">2</p>", "internal_node_id": "0.0-179.0-8.0", "time_elapsed": 1566282, "key_press": -1, "trial_index": 250}, "uniqueid": "MTK3103:38SKSKU7R24SKVRE2HAT0JCPY4MILT", "dateTime": 1520018802074}, {"current_trial": 251, "trialdata": {"rt": -1, "trial_type": "single-stim", "stimulus": "<p id=\"stim\">1</p>", "internal_node_id": "0.0-179.0-9.0", "time_elapsed": 1567285, "key_press": -1, "trial_index": 251}, "uniqueid": "MTK3103:38SKSKU7R24SKVRE2HAT0JCPY4MILT", "dateTime": 1520018803078}, {"current_trial": 252, "trialdata": {"rt": -1, "trial_type": "single-stim", "stimulus": "<p id=\"stim\">+</p>", "internal_node_id": "0.0-180.0-0.0", "time_elapsed": 1568789, "key_press": -1, "type": "FIXATION", "trial_index": 252}, "uniqueid": "MTK3103:38SKSKU7R24SKVRE2HAT0JCPY4MILT", "dateTime": 1520018804581}, {"current_trial": 253, "trialdata": {"rt": -1, "trial_type": "single-stim", "word": "jelly", "stimulus": "<p id=\"stim\">JELLY</p>", "conditions": [12, 1600, "v", 12000], "internal_node_id": "0.0-181.0", "trial": 7, "time_elapsed": 1570393, "serialpos": 0, "key_press": -1, "wordID": 754, "type": "PRES_VIS", "trial_index": 253}, "uniqueid": "MTK3103:38SKSKU7R24SKVRE2HAT0JCPY4MILT", "dateTime": 1520018806185}, {"current_trial": 254, "trialdata": {"rt": -1, "trial_type": "single-stim", "word": "poison", "stimulus": "<p id=\"stim\">POISON</p>", "conditions": [12, 1600, "v", 12000], "internal_node_id": "0.0-182.0", "trial": 7, "time_elapsed": 1573169, "serialpos": 1, "key_press": -1, "wordID": 1095, "type": "PRES_VIS", "trial_index": 254}, "uniqueid": "MTK3103:38SKSKU7R24SKVRE2HAT0JCPY4MILT", "dateTime": 1520018808962}, {"current_trial": 255, "trialdata": {"rt": -1, "trial_type": "single-stim", "word": "parsley", "stimulus": "<p id=\"stim\">PARSLEY</p>", "conditions": [12, 1600, "v", 12000], "internal_node_id": "0.0-183.0", "trial": 7, "time_elapsed": 1575714, "serialpos": 2, "key_press": -1, "wordID": 1015, "type": "PRES_VIS", "trial_index": 255}, "uniqueid": "MTK3103:38SKSKU7R24SKVRE2HAT0JCPY4MILT", "dateTime": 1520018811506}, {"current_trial": 256, "trialdata": {"rt": -1, "trial_type": "single-stim", "word": "fruit", "stimulus": "<p id=\"stim\">FRUIT</p>", "conditions": [12, 1600, "v", 12000], "internal_node_id": "0.0-184.0", "trial": 7, "time_elapsed": 1578432, "serialpos": 3, "key_press": -1, "wordID": 609, "type": "PRES_VIS", "trial_index": 256}, "uniqueid": "MTK3103:38SKSKU7R24SKVRE2HAT0JCPY4MILT", "dateTime": 1520018814225}, {"current_trial": 257, "trialdata": {"rt": -1, "trial_type": "single-stim", "word": "apple", "stimulus": "<p id=\"stim\">APPLE</p>", "conditions": [12, 1600, "v", 12000], "internal_node_id": "0.0-185.0", "trial": 7, "time_elapsed": 1580850, "serialpos": 4, "key_press": -1, "wordID": 32, "type": "PRES_VIS", "trial_index": 257}, "uniqueid": "MTK3103:38SKSKU7R24SKVRE2HAT0JCPY4MILT", "dateTime": 1520018816642}, {"current_trial": 258, "trialdata": {"rt": -1, "trial_type": "single-stim", "word": "balloon", "stimulus": "<p id=\"stim\">BALLOON</p>", "conditions": [12, 160