{"assignmentId": "3STRJBFXOXY793P7BTXWZQ1JLWQTKY", "workerId": "MTK3241", "questiondata": {"origin": "United States", "strat-rehearsal": "31", "marital": "Single", "education": "Some college", "ethnicity": "Not Hispanic", "color_depth": 24, "distracted": "No", "wrote-notes": "Yes", "strat-other": "", "screen_width": 1360, "avail_screen_width": 1360, "avail_screen_height": 728, "strat-image": "70", "language": "English", "gender": "Male", "age": "56", "gender_other": "", "race": ["White"], "strat-categorize": "86", "pixel_depth": 24, "strat-spatial": "20", "strat-story": "54", "race_other": "", "screen_height": 768}, "bonus": 0, "hitId": "306W7JMRYY5LVWVVCG46K7QMZSG8BY", "counterbalance": 2028, "useragent": "Mozilla/5.0 (Windows NT 10.0) AppleWebKit/537.36 (KHTML, like Gecko) Chrome/64.0.3282.186 Safari/537.36", "eventdata": [{"eventtype": "initialized", "interval": 0, "value": null, "timestamp": 1520275974410}, {"eventtype": "window_resize", "interval": 1, "value": [1360, 721], "timestamp": 1520275974411}, {"eventtype": "focus", "interval": 101129, "value": "off", "timestamp": 1520276075540}, {"eventtype": "focus", "interval": 60745, "value": "on", "timestamp": 1520276136285}, {"eventtype": "focus", "interval": 12428, "value": "off", "timestamp": 1520276148713}, {"eventtype": "focus", "interval": 1, "value": "on", "timestamp": 1520276148714}, {"eventtype": "focus", "interval": 15613, "value": "off", "timestamp": 1520276164327}, {"eventtype": "focus", "interval": 4, "value": "on", "timestamp": 1520276164331}, {"eventtype": "focus", "interval": 8992, "value": "off", "timestamp": 1520276173323}, {"eventtype": "focus", "interval": 42970, "value": "on", "timestamp": 1520276216293}, {"eventtype": "window_resize", "interval": 786, "value": [1360, 672], "timestamp": 1520276217079}, {"eventtype": "focus", "interval": 3501, "value": "off", "timestamp": 1520276220580}, {"eventtype": "focus", "interval": 30489, "value": "on", "timestamp": 1520276251069}], "data": [{"current_trial": 0, "trialdata": {"rt": 9835, "trial_type": "text", "internal_node_id": "0.0-0.0", "time_elapsed": 9839, "key_press": 76, "type": "INSTRUCTIONS", "trial_index": 0}, "uniqueid": "MTK3241:3STRJBFXOXY793P7BTXWZQ1JLWQTKY", "dateTime": 1520276011174}, {"current_trial": 1, "trialdata": {"rt": 18319, "trial_type": "text", "internal_node_id": "0.0-1.0", "time_elapsed": 28164, "key_press": 76, "type": "INSTRUCTIONS", "trial_index": 1}, "uniqueid": "MTK3241:3STRJBFXOXY793P7BTXWZQ1JLWQTKY", "dateTime": 1520276029496}, {"current_trial": 2, "trialdata": {"rt": [116166, 133150, 225885], "trial_type": "audio-test", "responses": ["oh", "open", "ocean"], "internal_node_id": "0.0-2.0", "time_elapsed": 254075, "type": "AUDIO_TEST", "trial_index": 2}, "uniqueid": "MTK3241:3STRJBFXOXY793P7BTXWZQ1JLWQTKY", "dateTime": 1520276255407}, {"current_trial": 3, "trialdata": {"rt": [10584], "trial_type": "audio-test", "responses": ["crystal"], "internal_node_id": "0.0-3.0", "time_elapsed": 264668, "type": "AUDIO_TEST", "trial_index": 3}, "uniqueid": "MTK3241:3STRJBFXOXY793P7BTXWZQ1JLWQTKY", "dateTime": 1520276266000}, {"current_trial": 4, "trialdata": {"rt": [9465], "trial_type": "audio-test", "responses": ["spice"], "internal_node_id": "0.0-4.0", "time_elapsed": 274138, "type": "AUDIO_TEST", "trial_index": 4}, "uniqueid": "MTK3241:3STRJBFXOXY793P7BTXWZQ1JLWQTKY", "dateTime": 1520276275471}, {"current_trial": 5, "trialdata": {"rt": 25084, "trial_type": "survey-text", "responses": "{\"Q0\":\"10 pm\",\"Q1\":\"5 am\",\"Q2\":\"5\"}", "internal_node_id": "0.0-5.0", "time_elapsed": 299977, "type": "SLEEP_SURVEY", "trial_index": 5}, "uniqueid": "MTK3241:3STRJBFXOXY793P7BTXWZQ1JLWQTKY", "dateTime": 1520276301309}, {"current_trial": 6, "trialdata": {"rt": 35105, "trial_type": "text", "internal_node_id": "0.0-6.0", "time_elapsed": 336083, "key_press": 76, "type": "INSTRUCTIONS", "trial_index": 6}, "uniqueid": "MTK3241:3STRJBFXOXY793P7BTXWZQ1JLWQTKY", "dateTime": 1520276337415}, {"current_trial": 7, "trialdata": {"rt": 22362, "trial_type": "text", "internal_node_id": "0.0-7.0", "time_elapsed": 358948, "key_press": 76, "type": "INSTRUCTIONS", "trial_index": 7}, "uniqueid": "MTK3241:3STRJBFXOXY793P7BTXWZQ1JLWQTKY", "dateTime": 1520276360280}, {"current_trial": 8, "trialdata": {"rt": 10586, "trial_type": "text", "internal_node_id": "0.0-8.0", "time_elapsed": 370035, "key_press": 76, "type": "INSTRUCTIONS", "trial_index": 8}, "uniqueid": "MTK3241:3STRJBFXOXY793P7BTXWZQ1JLWQTKY", "dateTime": 1520276371367}, {"current_trial": 9, "trialdata": {"rt": [4468, 6884, 9341, 12884, 15612, 17876], "trial_type": "math-distractor", "key_times": [2564, 3092, 4468, 6084, 6405, 6884, 8228, 9053, 9341, 11413, 12364, 12884, 14452, 14772, 15612, 17300, 17876], "responses": ["26", "13", "19", "20", "23", "6"], "num2": [8, 9, 7, 7, 6, 2, 5], "num3": [9, 2, 8, 8, 9, 2, 5], "conditions": [18, 1200, "a", 18000], "internal_node_id": "0.0-9.0", "key_presses": [50, 54, 13, 49, 51, 13, 49, 57, 13, 50, 48, 13, 50, 51, 13, 54, 13], "trial": 0, "time_elapsed": 389046, "type": "DISTRACTOR", "trial_index": 9, "num1": [9, 7, 4, 5, 8, 2, 6]}, "uniqueid": "MTK3241:3STRJBFXOXY793P7BTXWZQ1JLWQTKY", "dateTime": 1520276390378}, {"current_trial": 10, "trialdata": {"rt": 4, "trial_type": "single-stim", "stimulus": "<p id=\"stim\">10</p>", "internal_node_id": "0.0-10.0-0.0", "time_elapsed": 392051, "key_press": 55, "trial_index": 10}, "uniqueid": "MTK3241:3STRJBFXOXY793P7BTXWZQ1JLWQTKY", "dateTime": 1520276393383}, {"current_trial": 11, "trialdata": {"rt": -1, "trial_type": "single-stim", "stimulus": "<p id=\"stim\">9</p>", "internal_node_id": "0.0-10.0-1.0", "time_elapsed": 393052, "key_press": -1, "trial_index": 11}, "uniqueid": "MTK3241:3STRJBFXOXY793P7BTXWZQ1JLWQTKY", "dateTime": 1520276394384}, {"current_trial": 12, "trialdata": {"rt": -1, "trial_type": "single-stim", "stimulus": "<p id=\"stim\">8</p>", "internal_node_id": "0.0-10.0-2.0", "time_elapsed": 394052, "key_press": -1, "trial_index": 12}, "uniqueid": "MTK3241:3STRJBFXOXY793P7BTXWZQ1JLWQTKY", "dateTime": 1520276395385}, {"current_trial": 13, "trialdata": {"rt": -1, "trial_type": "single-stim", "stimulus": "<p id=\"stim\">7</p>", "internal_node_id": "0.0-10.0-3.0", "time_elapsed": 395053, "key_press": -1, "trial_index": 13}, "uniqueid": "MTK3241:3STRJBFXOXY793P7BTXWZQ1JLWQTKY", "dateTime": 1520276396385}, {"current_trial": 14, "trialdata": {"rt": -1, "trial_type": "single-stim", "stimulus": "<p id=\"stim\">6</p>", "internal_node_id": "0.0-10.0-4.0", "time_elapsed": 396054, "key_press": -1, "trial_index": 14}, "uniqueid": "MTK3241:3STRJBFXOXY793P7BTXWZQ1JLWQTKY", "dateTime": 1520276397387}, {"current_trial": 15, "trialdata": {"rt": -1, "trial_type": "single-stim", "stimulus": "<p id=\"stim\">5</p>", "internal_node_id": "0.0-10.0-5.0", "time_elapsed": 397055, "key_press": -1, "trial_index": 15}, "uniqueid": "MTK3241:3STRJBFXOXY793P7BTXWZQ1JLWQTKY", "dateTime": 1520276398388}, {"current_trial": 16, "trialdata": {"rt": -1, "trial_type": "single-stim", "stimulus": "<p id=\"stim\">4</p>", "internal_node_id": "0.0-10.0-6.0", "time_elapsed": 398056, "key_press": -1, "trial_index": 16}, "uniqueid": "MTK3241:3STRJBFXOXY793P7BTXWZQ1JLWQTKY", "dateTime": 1520276399388}, {"current_trial": 17, "trialdata": {"rt": -1, "trial_type": "single-stim", "stimulus": "<p id=\"stim\">3</p>", "internal_node_id": "0.0-10.0-7.0", "time_elapsed": 399058, "key_press": -1, "trial_index": 17}, "uniqueid": "MTK3241:3STRJBFXOXY793P7BTXWZQ1JLWQTKY", "dateTime": 1520276400390}, {"current_trial": 18, "trialdata": {"rt": -1, "trial_type": "single-stim", "stimulus": "<p id=\"stim\">2</p>", "internal_node_id": "0.0-10.0-8.0", "time_elapsed": 400059, "key_press": -1, "trial_index": 18}, "uniqueid": "MTK3241:3STRJBFXOXY793P7BTXWZQ1JLWQTKY", "dateTime": 1520276401391}, {"current_trial": 19, "trialdata": {"rt": -1, "trial_type": "single-stim", "stimulus": "<p id=\"stim\">1</p>", "internal_node_id": "0.0-10.0-9.0", "time_elapsed": 401062, "key_press": -1, "trial_index": 19}, "uniqueid": "MTK3241:3STRJBFXOXY793P7BTXWZQ1JLWQTKY", "dateTime": 1520276402394}, {"current_trial": 20, "trialdata": {"rt": -1, "trial_type": "single-stim", "stimulus": "<p id=\"stim\">+</p>", "internal_node_id": "0.0-11.0-0.0", "time_elapsed": 402565, "key_press": -1, "type": "FIXATION", "trial_index": 20}, "uniqueid": "MTK3241:3STRJBFXOXY793P7BTXWZQ1JLWQTKY", "dateTime": 1520276403897}, {"current_trial": 21, "trialdata": {"rt": -1000, "trial_type": "single-audio", "word": "soda", "stimulus": "/static/audio/wordpool/SODA.wav", "conditions": [18, 1200, "a", 18000], "internal_node_id": "0.0-12.0", "trial": 0, "time_elapsed": 404649, "serialpos": 0, "key_press": -1, "wordID": 1340, "type": "PRES_AUD", "trial_index": 21}, "uniqueid": "MTK3241:3STRJBFXOXY793P7BTXWZQ1JLWQTKY", "dateTime": 1520276405981}, {"current_trial": 22, "trialdata": {"rt": -1000, "trial_type": "single-audio", "word": "perfume", "stimulus": "/static/audio/wordpool/PERFUME.wav", "conditions": [18, 1200, "a", 18000], "internal_node_id": "0.0-13.0", "trial": 0, "time_elapsed": 406723, "serialpos": 1, "key_press": -1, "wordID": 1048, "type": "PRES_AUD", "trial_index": 22}, "uniqueid": "MTK3241:3STRJBFXOXY793P7BTXWZQ1JLWQTKY", "dateTime": 1520276408056}, {"current_trial": 23, "trialdata": {"rt": -1000, "trial_type": "single-audio", "word": "seafood", "stimulus": "/static/audio/wordpool/SEAFOOD.wav", "conditions": [18, 1200, "a", 18000], "internal_node_id": "0.0-14.0", "trial": 0, "time_elapsed": 408782, "serialpos": 2, "key_press": -1, "wordID": 1259, "type": "PRES_AUD", "trial_index": 23}, "uniqueid": "MTK3241:3STRJBFXOXY793P7BTXWZQ1JLWQTKY", "dateTime": 1520276410114}, {"current_trial": 24, "trialdata": {"rt": -1000, "trial_type": "single-audio", "word": "bouquet", "stimulus": "/static/audio/wordpool/BOUQUET.wav", "conditions": [18, 1200, "a", 18000], "internal_node_id": "0.0-15.0", "trial": 0, "time_elapsed": 410791, "serialpos": 3, "key_press": -1, "wordID": 156, "type": "PRES_AUD", "trial_index": 24}, "uniqueid": "MTK3241:3STRJBFXOXY793P7BTXWZQ1JLWQTKY", "dateTime": 1520276412123}, {"current_trial": 25, "trialdata": {"rt": -1000, "trial_type": "single-audio", "word": "journal", "stimulus": "/static/audio/wordpool/JOURNAL.wav", "conditions": [18, 1200, "a", 18000], "internal_node_id": "0.0-16.0", "trial": 0, "time_elapsed": 413091, "serialpos": 4, "key_press": -1, "wordID": 759, "type": "PRES_AUD", "trial_index": 25}, "uniqueid": "MTK3241:3STRJBFXOXY793P7BTXWZQ1JLWQTKY", "dateTime": 1520276414423}, {"current_trial": 26, "trialdata": {"rt": -1000, "trial_type": "single-audio", "word": "salad", "stimulus": "/static/audio/wordpool/SALAD.wav", "conditions": [18, 1200, "a", 18000], "internal_node_id": "0.0-17.0", "trial": 0, "time_elapsed": 415176, "serialpos": 5, "key_press": -1, "wordID": 1223, "type": "PRES_AUD", "trial_index": 26}, "uniqueid": "MTK3241:3STRJBFXOXY793P7BTXWZQ1JLWQTKY", "dateTime": 1520276416508}, {"current_trial": 27, "trialdata": {"rt": -1000, "trial_type": "single-audio", "word": "witness", "stimulus": "/static/audio/wordpool/WITNESS.wav", "conditions": [18, 1200, "a", 18000], "internal_node_id": "0.0-18.0", "trial": 0, "time_elapsed": 417300, "serialpos": 6, "key_press": -1, "wordID": 1617, "type": "PRES_AUD", "trial_index": 27}, "uniqueid": "MTK3241:3STRJBFXOXY793P7BTXWZQ1JLWQTKY", "dateTime": 1520276418632}, {"current_trial": 28, "trialdata": {"rt": -1000, "trial_type": "single-audio", "word": "playground", "stimulus": "/static/audio/wordpool/PLAYGROUND.wav", "conditions": [18, 1200, "a", 18000], "internal_node_id": "0.0-19.0", "trial": 0, "time_elapsed": 419637, "serialpos": 7, "key_press": -1, "wordID": 1086, "type": "PRES_AUD", "trial_index": 28}, "uniqueid": "MTK3241:3STRJBFXOXY793P7BTXWZQ1JLWQTKY", "dateTime": 1520276420969}, {"current_trial": 29, "trialdata": {"rt": -1000, "trial_type": "single-audio", "word": "mustard", "stimulus": "/static/audio/wordpool/MUSTARD.wav", "conditions": [18, 1200, "a", 18000], "internal_node_id": "0.0-20.0", "trial": 0, "time_elapsed": 421714, "serialpos": 8, "key_press": -1, "wordID": 934, "type": "PRES_AUD", "trial_index": 29}, "uniqueid": "MTK3241:3STRJBFXOXY793P7BTXWZQ1JLWQTKY", "dateTime": 1520276423046}, {"current_trial": 30, "trialdata": {"rt": -1000, "trial_type": "single-audio", "word": "college", "stimulus": "/static/audio/wordpool/COLLEGE.wav", "conditions": [18, 1200, "a", 18000], "internal_node_id": "0.0-21.0", "trial": 0, "time_elapsed": 423920, "serialpos": 9, "key_press": -1, "wordID": 345, "type": "PRES_AUD", "trial_index": 30}, "uniqueid": "MTK3241:3STRJBFXOXY793P7BTXWZQ1JLWQTKY", "dateTime": 1520276425252}, {"current_trial": 31, "trialdata": {"rt": -1000, "trial_type": "single-audio", "word": "rocket", "stimulus": "/static/audio/wordpool/ROCKET.wav", "conditions": [18, 1200, "a", 18000], "internal_node_id": "0.0-22.0", "trial": 0, "time_elapsed": 426306, "serialpos": 10, "key_press": -1, "wordID": 1201, "type": "PRES_AUD", "trial_index": 31}, "uniqueid": "MTK3241:3STRJBFXOXY793P7BTXWZQ1JLWQTKY", "dateTime": 1520276427638}, {"current_trial": 32, "trialdata": {"rt": -1000, "trial_type": "single-audio", "word": "washer", "stimulus": "/static/audio/wordpool/WASHER.wav", "conditions": [18, 1200, "a", 18000], "internal_node_id": "0.0-23.0", "trial": 0, "time_elapsed": 428523, "serialpos": 11, "key_press": -1, "wordID": 1591, "type": "PRES_AUD", "trial_index": 32}, "uniqueid": "MTK3241:3STRJBFXOXY793P7BTXWZQ1JLWQTKY", "dateTime": 1520276429855}, {"current_trial": 33, "trialdata": {"rt": -1000, "trial_type": "single-audio", "word": "ulcer", "stimulus": "/static/audio/wordpool/ULCER.wav", "conditions": [18, 1200, "a", 18000], "internal_node_id": "0.0-24.0", "trial": 0, "time_elapsed": 430794, "serialpos": 12, "key_press": -1, "wordID": 1532, "type": "PRES_AUD", "trial_index": 33}, "uniqueid": "MTK3241:3STRJBFXOXY793P7BTXWZQ1JLWQTKY", "dateTime": 1520276432126}, {"current_trial": 34, "trialdata": {"rt": -1000, "trial_type": "single-audio", "word": "neutron", "stimulus": "/static/audio/wordpool/NEUTRON.wav", "conditions": [18, 1200, "a", 18000], "internal_node_id": "0.0-25.0", "trial": 0, "time_elapsed": 432889, "serialpos": 13, "key_press": -1, "wordID": 946, "type": "PRES_AUD", "trial_index": 34}, "uniqueid": "MTK3241:3STRJBFXOXY793P7BTXWZQ1JLWQTKY", "dateTime": 1520276434221}, {"current_trial": 35, "trialdata": {"rt": -1000, "trial_type": "single-audio", "word": "world", "stimulus": "/static/audio/wordpool/WORLD.wav", "conditions": [18, 1200, "a", 18000], "internal_node_id": "0.0-26.0", "trial": 0, "time_elapsed": 435150, "serialpos": 14, "key_press": -1, "wordID": 1621, "type": "PRES_AUD", "trial_index": 35}, "uniqueid": "MTK3241:3STRJBFXOXY793P7BTXWZQ1JLWQTKY", "dateTime": 1520276436482}, {"current_trial": 36, "trialdata": {"rt": -1000, "trial_type": "single-audio", "word": "juggler", "stimulus": "/static/audio/wordpool/JUGGLER.wav", "conditions": [18, 1200, "a", 18000], "internal_node_id": "0.0-27.0", "trial": 0, "time_elapsed": 437363, "serialpos": 15, "key_press": -1, "wordID": 762, "type": "PRES_AUD", "trial_index": 36}, "uniqueid": "MTK3241:3STRJBFXOXY793P7BTXWZQ1JLWQTKY", "dateTime": 1520276438695}, {"current_trial": 37, "trialdata": {"rt": -1000, "trial_type": "single-audio", "word": "gravel", "stimulus": "/static/audio/wordpool/GRAVEL.wav", "conditions": [18, 1200, "a", 18000], "internal_node_id": "0.0-28.0", "trial": 0, "time_elapsed": 439758, "serialpos": 16, "key_press": -1, "wordID": 658, "type": "PRES_AUD", "trial_index": 37}, "uniqueid": "MTK3241:3STRJBFXOXY793P7BTXWZQ1JLWQTKY", "dateTime": 1520276441090}, {"current_trial": 38, "trialdata": {"rt": -1000, "trial_type": "single-audio", "word": "preacher", "stimulus": "/static/audio/wordpool/PREACHER.wav", "conditions": [18, 1200, "a", 18000], "internal_node_id": "0.0-29.0", "trial": 0, "time_elapsed": 441830, "serialpos": 17, "key_press": -1, "wordID": 1118, "type": "PRES_AUD", "trial_index": 38}, "uniqueid": "MTK3241:3STRJBFXOXY793P7BTXWZQ1JLWQTKY", "dateTime": 1520276443162}, {"current_trial": 39, "trialdata": {"rt": -1, "trial_type": "single-stim", "stimulus": "", "internal_node_id": "0.0-30.0-0.0", "time_elapsed": 443153, "key_press": -1, "type": "PRE_RECALL_DELAY", "trial_index": 39}, "uniqueid": "MTK3241:3STRJBFXOXY793P7BTXWZQ1JLWQTKY", "dateTime": 1520276444485}, {"current_trial": 40, "trialdata": {"rt": -1000, "trial_type": "single-audio", "stimulus": "/static/audio/400Hz.wav", "internal_node_id": "0.0-31.0", "time_elapsed": 443661, "key_press": -1, "type": "PRE_RECALL_ALERT", "trial_index": 40}, "uniqueid": "MTK3241:3STRJBFXOXY793P7BTXWZQ1JLWQTKY", "dateTime": 1520276444993}, {"current_trial": 41, "trialdata": {"rt": [5947, 9299, 12578, 16922, 20338, 23954, 27114, 35929, 38858, 41985, 44554, 47346, 59778], "recwords": ["soda", "perfume", "seafood", "playground", "mustard", "college", "rocket", "ulcer", "world", "juggler", "gravel", "preacher", "water"], "key_times": [4716, 4810, 4986, 5282, 5947, 7626, 7827, 8043, 8259, 8434, 8618, 8763, 9299, 10538, 10754, 10978, 11275, 11403, 11539, 11827, 12578, 14419, 14562, 14731, 14939, 15227, 15473, 15673, 15923, 16137, 16395, 16922, 18195, 18411, 18595, 18834, 19011, 19146, 19331, 20338, 21803, 22042, 22226, 22354, 22730, 22963, 23074, 23954, 24915, 25162, 25579, 25723, 25930, 26154, 27114, 33322, 34130, 34730, 34891, 35162, 35929, 37257, 37402, 37681, 38025, 38370, 38858, 39826, 40073, 40561, 40690, 40922, 41242, 41505, 41985, 42723, 42954, 43234, 43545, 43803, 43922, 44554, 45130, 45339, 45570, 45842, 46123, 46249, 46411, 46539, 47346, 58402, 58641, 58794, 58930, 59009, 59778], "trial_type": "free-recall", "conditions": [18, 1200, "a", 18000], "internal_node_id": "0.0-32.0-0.0", "key_presses": [83, 79, 68, 65, 13, 80, 69, 82, 70, 85, 77, 69, 13, 83, 69, 65, 70, 79, 79, 68, 13, 80, 76, 65, 89, 71, 82, 79, 85, 78, 68, 13, 77, 85, 83, 84, 65, 82, 68, 13, 67, 79, 76, 76, 69, 71, 69, 13, 82, 79, 67, 75, 69, 84, 13, 85, 76, 67, 69, 82, 13, 87, 79, 82, 76, 68, 13, 74, 85, 71, 71, 76, 69, 82, 13, 71, 82, 65, 86, 69, 76, 13, 80, 82, 69, 65, 67, 72, 69, 82, 13, 87, 65, 84, 69, 82, 13], "trial": 0, "time_elapsed": 503668, "type": "FREE_RECALL", "trial_index": 41}, "uniqueid": "MTK3241:3STRJBFXOXY793P7BTXWZQ1JLWQTKY", "dateTime": 1520276505004}, {"current_trial": 42, "trialdata": {"rt": 2697, "trial_type": "text", "internal_node_id": "0.0-33.0", "time_elapsed": 508371, "key_press": 76, "type": "INSTRUCTIONS", "trial_index": 42}, "uniqueid": "MTK3241:3STRJBFXOXY793P7BTXWZQ1JLWQTKY", "dateTime": 1520276509703}, {"current_trial": 43, "trialdata": {"rt": [3676, 6644, 9252, 13371, 15484, 17644], "trial_type": "math-distractor", "key_times": [2654, 3412, 3676, 6380, 6644, 8308, 9028, 9252, 12540, 13189, 13371, 14756, 15268, 15484, 17109, 17644], "responses": ["10", "9", "19", "20", "17", "6"], "num2": [5, 1, 4, 9, 5, 1, 8], "num3": [2, 2, 6, 6, 6, 3, 3], "conditions": [18, 1200, "a", 18000], "internal_node_id": "0.0-34.0", "key_presses": [49, 48, 13, 57, 13, 49, 57, 13, 50, 48, 13, 49, 55, 13, 54, 13], "trial": 1, "time_elapsed": 528375, "type": "DISTRACTOR", "trial_index": 43, "num1": [3, 6, 9, 5, 4, 2, 3]}, "uniqueid": "MTK3241:3STRJBFXOXY793P7BTXWZQ1JLWQTKY", "dateTime": 1520276529707}, {"current_trial": 44, "trialdata": {"rt": -1, "trial_type": "single-stim", "stimulus": "<p id=\"stim\">10</p>", "internal_node_id": "0.0-35.0-0.0", "time_elapsed": 531375, "key_press": -1, "trial_index": 44}, "uniqueid": "MTK3241:3STRJBFXOXY793P7BTXWZQ1JLWQTKY", "dateTime": 1520276532708}, {"current_trial": 45, "trialdata": {"rt": -1, "trial_type": "single-stim", "stimulus": "<p id=\"stim\">9</p>", "internal_node_id": "0.0-35.0-1.0", "time_elapsed": 532376, "key_press": -1, "trial_index": 45}, "uniqueid": "MTK3241:3STRJBFXOXY793P7BTXWZQ1JLWQTKY", "dateTime": 1520276533710}, {"current_trial": 46, "trialdata": {"rt": -1, "trial_type": "single-stim", "stimulus": "<p id=\"stim\">8</p>", "internal_node_id": "0.0-35.0-2.0", "time_elapsed": 533380, "key_press": -1, "trial_index": 46}, "uniqueid": "MTK3241:3STRJBFXOXY793P7BTXWZQ1JLWQTKY", "dateTime": 1520276534712}, {"current_trial": 47, "trialdata": {"rt": -1, "trial_type": "single-stim", "stimulus": "<p id=\"stim\">7</p>", "internal_node_id": "0.0-35.0-3.0", "time_elapsed": 534379, "key_press": -1, "trial_index": 47}, "uniqueid": "MTK3241:3STRJBFXOXY793P7BTXWZQ1JLWQTKY", "dateTime": 1520276535713}, {"current_trial": 48, "trialdata": {"rt": -1, "trial_type": "single-stim", "stimulus": "<p id=\"stim\">6</p>", "internal_node_id": "0.0-35.0-4.0", "time_elapsed": 535383, "key_press": -1, "trial_index": 48}, "uniqueid": "MTK3241:3STRJBFXOXY793P7BTXWZQ1JLWQTKY", "dateTime": 1520276536715}, {"current_trial": 49, "trialdata": {"rt": -1, "trial_type": "single-stim", "stimulus": "<p id=\"stim\">5</p>", "internal_node_id": "0.0-35.0-5.0", "time_elapsed": 536383, "key_press": -1, "trial_index": 49}, "uniqueid": "MTK3241:3STRJBFXOXY793P7BTXWZQ1JLWQTKY", "dateTime": 1520276537716}, {"current_trial": 50, "trialdata": {"rt": -1, "trial_type": "single-stim", "stimulus": "<p id=\"stim\">4</p>", "internal_node_id": "0.0-35.0-6.0", "time_elapsed": 537386, "key_press": -1, "trial_index": 50}, "uniqueid": "MTK3241:3STRJBFXOXY793P7BTXWZQ1JLWQTKY", "dateTime": 1520276538718}, {"current_trial": 51, "trialdata": {"rt": -1, "trial_type": "single-stim", "stimulus": "<p id=\"stim\">3</p>", "internal_node_id": "0.0-35.0-7.0", "time_elapsed": 538385, "key_press": -1, "trial_index": 51}, "uniqueid": "MTK3241:3STRJBFXOXY793P7BTXWZQ1JLWQTKY", "dateTime": 1520276539717}, {"current_trial": 52, "trialdata": {"rt": -1, "trial_type": "single-stim", "stimulus": "<p id=\"stim\">2</p>", "internal_node_id": "0.0-35.0-8.0", "time_elapsed": 539388, "key_press": -1, "trial_index": 52}, "uniqueid": "MTK3241:3STRJBFXOXY793P7BTXWZQ1JLWQTKY", "dateTime": 1520276540720}, {"current_trial": 53, "trialdata": {"rt": -1, "trial_type": "single-stim", "stimulus": "<p id=\"stim\">1</p>", "internal_node_id": "0.0-35.0-9.0", "time_elapsed": 540388, "key_press": -1, "trial_index": 53}, "uniqueid": "MTK3241:3STRJBFXOXY793P7BTXWZQ1JLWQTKY", "dateTime": 1520276541720}, {"current_trial": 54, "trialdata": {"rt": -1, "trial_type": "single-stim", "stimulus": "<p id=\"stim\">+</p>", "internal_node_id": "0.0-36.0-0.0", "time_elapsed": 541889, "key_press": -1, "type": "FIXATION", "trial_index": 54}, "uniqueid": "MTK3241:3STRJBFXOXY793P7BTXWZQ1JLWQTKY", "dateTime": 1520276543222}, {"current_trial": 55, "trialdata": {"rt": -1000, "trial_type": "single-audio", "word": "piano", "stimulus": "/static/audio/wordpool/PIANO.wav", "conditions": [18, 1200, "a", 18000], "internal_node_id": "0.0-37.0", "trial": 1, "time_elapsed": 544116, "serialpos": 0, "key_press": -1, "wordID": 1056, "type": "PRES_AUD", "trial_index": 55}, "uniqueid": "MTK3241:3STRJBFXOXY793P7BTXWZQ1JLWQTKY", "dateTime": 1520276545448}, {"current_trial": 56, "trialdata": {"rt": -1000, "trial_type": "single-audio", "word": "lunch", "stimulus": "/static/audio/wordpool/LUNCH.wav", "conditions": [18, 1200, "a", 18000], "internal_node_id": "0.0-38.0", "trial": 1, "time_elapsed": 546465, "serialpos": 1, "key_press": -1, "wordID": 848, "type": "PRES_AUD", "trial_index": 56}, "uniqueid": "MTK3241:3STRJBFXOXY793P7BTXWZQ1JLWQTKY", "dateTime": 1520276547797}, {"current_trial": 57, "trialdata": {"rt": -1000, "trial_type": "single-audio", "word": "quail", "stimulus": "/static/audio/wordpool/QUAIL.wav", "conditions": [18, 1200, "a", 18000], "internal_node_id": "0.0-39.0", "trial": 1, "time_elapsed": 548633, "serialpos": 2, "key_press": -1, "wordID": 1146, "type": "PRES_AUD", "trial_index": 57}, "uniqueid": "MTK3241:3STRJBFXOXY793P7BTXWZQ1JLWQTKY", "dateTime": 1520276549965}, {"current_trial": 58, "trialdata": {"rt": -1000, "trial_type": "single-audio", "word": "sticker", "stimulus": "/static/audio/wordpool/STICKER.wav", "conditions": [18, 1200, "a", 18000], "internal_node_id": "0.0-40.0", "trial": 1, "time_elapsed": 550907, "serialpos": 3, "key_press": -1, "wordID": 1381, "type": "PRES_AUD", "trial_index": 58}, "uniqueid": "MTK3241:3STRJBFXOXY793P7BTXWZQ1JLWQTKY", "dateTime": 1520276552239}, {"current_trial": 59, "trialdata": {"rt": -1000, "trial_type": "single-audio", "word": "actress", "stimulus": "/static/audio/wordpool/ACTRESS.wav", "conditions": [18, 1200, "a", 18000], "internal_node_id": "0.0-41.0", "trial": 1, "time_elapsed": 553275, "serialpos": 4, "key_press": -1, "wordID": 5, "type": "PRES_AUD", "trial_index": 59}, "uniqueid": "MTK3241:3STRJBFXOXY793P7BTXWZQ1JLWQTKY", "dateTime": 1520276554607}, {"current_trial": 60, "trialdata": {"rt": -1000, "trial_type": "single-audio", "word": "cobra", "stimulus": "/static/audio/wordpool/COBRA.wav", "conditions": [18, 1200, "a", 18000], "internal_node_id": "0.0-42.0", "trial": 1, "time_elapsed": 555545, "serialpos": 5, "key_press": -1, "wordID": 335, "type": "PRES_AUD", "trial_index": 60}, "uniqueid": "MTK3241:3STRJBFXOXY793P7BTXWZQ1JLWQTKY", "dateTime": 1520276556879}, {"current_trial": 61, "trialdata": {"rt": -1000, "trial_type": "single-audio", "word": "mailbox", "stimulus": "/static/audio/wordpool/MAILBOX.wav", "conditions": [18, 1200, "a", 18000], "internal_node_id": "0.0-43.0", "trial": 1, "time_elapsed": 557809, "serialpos": 6, "key_press": -1, "wordID": 856, "type": "PRES_AUD", "trial_index": 61}, "uniqueid": "MTK3241:3STRJBFXOXY793P7BTXWZQ1JLWQTKY", "dateTime": 1520276559141}, {"current_trial": 62, "trialdata": {"rt": -1000, "trial_type": "single-audio", "word": "scribble", "stimulus": "/static/audio/wordpool/SCRIBBLE.wav", "conditions": [18, 1200, "a", 18000], "internal_node_id": "0.0-44.0", "trial": 1, "time_elapsed": 560030, "serialpos": 7, "key_press": -1, "wordID": 1255, "type": "PRES_AUD", "trial_index": 62}, "uniqueid": "MTK3241:3STRJBFXOXY793P7BTXWZQ1JLWQTKY", "dateTime": 1520276561362}, {"current_trial": 63, "trialdata": {"rt": -1000, "trial_type": "single-audio", "word": "message", "stimulus": "/static/audio/wordpool/MESSAGE.wav", "conditions": [18, 1200, "a", 18000], "internal_node_id": "0.0-45.0", "trial": 1, "time_elapsed": 562389, "serialpos": 8, "key_press": -1, "wordID": 887, "type": "PRES_AUD", "trial_index": 63}, "uniqueid": "MTK3241:3STRJBFXOXY793P7BTXWZQ1JLWQTKY", "dateTime": 1520276563721}, {"current_trial": 64, "trialdata": {"rt": -1000, "trial_type": "single-audio", "word": "garbage", "stimulus": "/static/audio/wordpool/GARBAGE.wav", "conditions": [18, 1200, "a", 18000], "internal_node_id": "0.0-46.0", "trial": 1, "time_elapsed": 564494, "serialpos": 9, "key_press": -1, "wordID": 621, "type": "PRES_AUD", "trial_index": 64}, "uniqueid": "MTK3241:3STRJBFXOXY793P7BTXWZQ1JLWQTKY", "dateTime": 1520276565826}, {"current_trial": 65, "trialdata": {"rt": -1000, "trial_type": "single-audio", "word": "nurse", "stimulus": "/static/audio/wordpool/NURSE.wav", "conditions": [18, 1200, "a", 18000], "internal_node_id": "0.0-47.0", "trial": 1, "time_elapsed": 566662, "serialpos": 10, "key_press": -1, "wordID": 962, "type": "PRES_AUD", "trial_index": 65}, "uniqueid": "MTK3241:3STRJBFXOXY793P7BTXWZQ1JLWQTKY", "dateTime": 1520276567996}, {"current_trial": 66, "trialdata": {"rt": -1000, "trial_type": "single-audio", "word": "hawk", "stimulus": "/static/audio/wordpool/HAWK.wav", "conditions": [18, 1200, "a", 18000], "internal_node_id": "0.0-48.0", "trial": 1, "time_elapsed": 568966, "serialpos": 11, "key_press": -1, "wordID": 691, "type": "PRES_AUD", "trial_index": 66}, "uniqueid": "MTK3241:3STRJBFXOXY793P7BTXWZQ1JLWQTKY", "dateTime": 1520276570298}, {"current_trial": 67, "trialdata": {"rt": -1000, "trial_type": "single-audio", "word": "dress", "stimulus": "/static/audio/wordpool/DRESS.wav", "conditions": [18, 1200, "a", 18000], "internal_node_id": "0.0-49.0", "trial": 1, "time_elapsed": 571230, "serialpos": 12, "key_press": -1, "wordID": 494, "type": "PRES_AUD", "trial_index": 67}, "uniqueid": "MTK3241:3STRJBFXOXY793P7BTXWZQ1JLWQTKY", "dateTime": 1520276572562}, {"current_trial": 68, "trialdata": {"rt": -1000, "trial_type": "single-audio", "word": "patrol", "stimulus": "/static/audio/wordpool/PATROL.wav", "conditions": [18, 1200, "a", 18000], "internal_node_id": "0.0-50.0", "trial": 1, "time_elapsed": 573422, "serialpos": 13, "key_press": -1, "wordID": 1026, "type": "PRES_AUD", "trial_index": 68}, "uniqueid": "MTK3241:3STRJBFXOXY793P7BTXWZQ1JLWQTKY", "dateTime": 1520276574758}, {"current_trial": 69, "trialdata": {"rt": -1000, "trial_type": "single-audio", "word": "police", "stimulus": "/static/audio/wordpool/POLICE.wav", "conditions": [18, 1200, "a", 18000], "internal_node_id": "0.0-51.0", "trial": 1, "time_elapsed": 575733, "serialpos": 14, "key_press": -1, "wordID": 1097, "type": "PRES_AUD", "trial_index": 69}, "uniqueid": "MTK3241:3STRJBFXOXY793P7BTXWZQ1JLWQTKY", "dateTime": 1520276577065}, {"current_trial": 70, "trialdata": {"rt": -1000, "trial_type": "single-audio", "word": "seal", "stimulus": "/static/audio/wordpool/SEAL.wav", "conditions": [18, 1200, "a", 18000], "internal_node_id": "0.0-52.0", "trial": 1, "time_elapsed": 577952, "serialpos": 15, "key_press": -1, "wordID": 1261, "type": "PRES_AUD", "trial_index": 70}, "uniqueid": "MTK3241:3STRJBFXOXY793P7BTXWZQ1JLWQTKY", "dateTime": 1520276579284}, {"current_trial": 71, "trialdata": {"rt": -1000, "trial_type": "single-audio", "word": "apron", "stimulus": "/static/audio/wordpool/APRON.wav", "conditions": [18, 1200, "a", 18000], "internal_node_id": "0.0-53.0", "trial": 1, "time_elapsed": 580001, "serialpos": 16, "key_press": -1, "wordID": 34, "type": "PRES_AUD", "trial_index": 71}, "uniqueid": "MTK3241:3STRJBFXOXY793P7BTXWZQ1JLWQTKY", "dateTime": 1520276581333}, {"current_trial": 72, "trialdata": {"rt": -1000, "trial_type": "single-audio", "word": "cook", "stimulus": "/static/audio/wordpool/COOK.wav", "conditions": [18, 1200, "a", 18000], "internal_node_id": "0.0-54.0", "trial": 1, "time_elapsed": 582337, "serialpos": 17, "key_press": -1, "wordID": 371, "type": "PRES_AUD", "trial_index": 72}, "uniqueid": "MTK3241:3STRJBFXOXY793P7BTXWZQ1JLWQTKY", "dateTime": 1520276583669}, {"current_trial": 73, "trialdata": {"rt": -1, "trial_type": "single-stim", "stimulus": "", "internal_node_id": "0.0-55.0-0.0", "time_elapsed": 583585, "key_press": -1, "type": "PRE_RECALL_DELAY", "trial_index": 73}, "uniqueid": "MTK3241:3STRJBFXOXY793P7BTXWZQ1JLWQTKY", "dateTime": 1520276584917}, {"current_trial": 74, "trialdata": {"rt": -1000, "trial_type": "single-audio", "stimulus": "/static/audio/400Hz.wav", "internal_node_id": "0.0-56.0", "time_elapsed": 584091, "key_press": -1, "type": "PRE_RECALL_ALERT", "trial_index": 74}, "uniqueid": "MTK3241:3STRJBFXOXY793P7BTXWZQ1JLWQTKY", "dateTime": 1520276585423}, {"current_trial": 75, "trialdata": {"rt": [4084, 8822, 13822, 19013, 21550, 25742, 28541, 33389, 37732, 42029, 46445, 50445, 53413, 56957, 59909], "recwords": ["piano", "lunch", "quail", "sticker", "actress", "cobra", "mailbox", "scribble", "message", "garbage", "nurse", "hawk", "dress", "patrol", "police"], "key_times": [2294, 2533, 2878, 3005, 3445, 4084, 5566, 5861, 6102, 6518, 6670, 8822, 10829, 11070, 11762, 12006, 12181, 13822, 15310, 15454, 16102, 16310, 16429, 16670, 17029, 19013, 19647, 19933, 20214, 20334, 20558, 20822, 20974, 21550, 23374, 23526, 23798, 24111, 24406, 25742, 26526, 26637, 26733, 26934, 27285, 27462, 28102, 28541, 31460, 31676, 31917, 32110, 32476, 32613, 32846, 33037, 33389, 35373, 35557, 36645, 36780, 37014, 37141, 37292, 37732, 39764, 40493, 40814, 41174, 41287, 41364, 41629, 42029, 43988, 44205, 44501, 44741, 45687, 45821, 46068, 46445, 49214, 49341, 49765, 49910, 50445, 52244, 52460, 52693, 52941, 53094, 53413, 55453, 55557, 55965, 56197, 56324, 56468, 56957, 58533, 58740, 58916, 59142, 59388, 59636, 59909], "trial_type": "free-recall", "conditions": [18, 1200, "a", 18000], "internal_node_id": "0.0-57.0-0.0", "key_presses": [80, 73, 65, 78, 79, 13, 76, 85, 78, 67, 72, 13, 81, 85, 65, 73, 76, 13, 83, 84, 73, 67, 75, 69, 82, 13, 65, 67, 84, 82, 69, 83, 83, 13, 67, 79, 66, 82, 65, 13, 77, 65, 73, 76, 66, 79, 88, 13, 83, 67, 82, 73, 66, 66, 76, 69, 13, 77, 69, 83, 83, 65, 71, 69, 13, 71, 65, 82, 66, 65, 71, 69, 13, 78, 85, 82, 67, 8, 83, 69, 13, 72, 65, 87, 75, 13, 68, 82, 69, 83, 83, 13, 80, 65, 84, 82, 79, 76, 13, 80, 79, 76, 73, 67, 69, 13], "trial": 1, "time_elapsed": 644095, "type": "FREE_RECALL", "trial_index": 75}, "uniqueid": "MTK3241:3STRJBFXOXY793P7BTXWZQ1JLWQTKY", "dateTime": 1520276645431}, {"current_trial": 76, "trialdata": {"rt": 5230, "trial_type": "text", "internal_node_id": "0.0-58.0", "time_elapsed": 651332, "key_press": 76, "type": "INSTRUCTIONS", "trial_index": 76}, "uniqueid": "MTK3241:3STRJBFXOXY793P7BTXWZQ1JLWQTKY", "dateTime": 1520276652664}, {"current_trial": 77, "trialdata": {"rt": [4734, 6981, 8756, 10604, 12908, 14892, 16868, 20060, 21660], "trial_type": "math-distractor", "key_times": [3916, 4357, 4734, 6349, 6790, 6981, 8133, 8533, 8756, 9926, 10398, 10604, 12052, 12710, 12908, 14414, 14708, 14892, 16268, 16653, 16868, 19380, 19868, 20060, 21292, 21436, 21660, 23877], "responses": ["15", "17", "14", "16", "20", "13", "14", "16", "11"], "num2": [5, 3, 5, 4, 5, 2, 7, 6, 2, 1], "num3": [9, 9, 3, 6, 9, 6, 5, 3, 1, 3], "conditions": [24, 800, "a", 24000], "internal_node_id": "0.0-59.0", "key_presses": [49, 53, 13, 49, 55, 13, 49, 52, 13, 49, 54, 13, 50, 48, 13, 49, 51, 13, 49, 52, 13, 49, 54, 13, 49, 49, 13, 49], "trial": 2, "time_elapsed": 676334, "type": "DISTRACTOR", "trial_index": 77, "num1": [1, 5, 6, 6, 4, 5, 2, 7, 8, 8]}, "uniqueid": "MTK3241:3STRJBFXOXY793P7BTXWZQ1JLWQTKY", "dateTime": 1520276677666}, {"current_trial": 78, "trialdata": {"rt": -1, "trial_type": "single-stim", "stimulus": "<p id=\"stim\">10</p>", "internal_node_id": "0.0-60.0-0.0", "time_elapsed": 679334, "key_press": -1, "trial_index": 78}, "uniqueid": "MTK3241:3STRJBFXOXY793P7BTXWZQ1JLWQTKY", "dateTime": 1520276680666}, {"current_trial": 79, "trialdata": {"rt": -1, "trial_type": "single-stim", "stimulus": "<p id=\"stim\">9</p>", "internal_node_id": "0.0-60.0-1.0", "time_elapsed": 680336, "key_press": -1, "trial_index": 79}, "uniqueid": "MTK3241:3STRJBFXOXY793P7BTXWZQ1JLWQTKY", "dateTime": 1520276681668}, {"current_trial": 80, "trialdata": {"rt": -1, "trial_type": "single-stim", "stimulus": "<p id=\"stim\">8</p>", "internal_node_id": "0.0-60.0-2.0", "time_elapsed": 681337, "key_press": -1, "trial_index": 80}, "uniqueid": "MTK3241:3STRJBFXOXY793P7BTXWZQ1JLWQTKY", "dateTime": 1520276682669}, {"current_trial": 81, "trialdata": {"rt": -1, "trial_type": "single-stim", "stimulus": "<p id=\"stim\">7</p>", "internal_node_id": "0.0-60.0-3.0", "time_elapsed": 682338, "key_press": -1, "trial_index": 81}, "uniqueid": "MTK3241:3STRJBFXOXY793P7BTXWZQ1JLWQTKY", "dateTime": 1520276683670}, {"current_trial": 82, "trialdata": {"rt": -1, "trial_type": "single-stim", "stimulus": "<p id=\"stim\">6</p>", "internal_node_id": "0.0-60.0-4.0", "time_elapsed": 683340, "key_press": -1, "trial_index": 82}, "uniqueid": "MTK3241:3STRJBFXOXY793P7BTXWZQ1JLWQTKY", "dateTime": 1520276684672}, {"current_trial": 83, "trialdata": {"rt": -1, "trial_type": "single-stim", "stimulus": "<p id=\"stim\">5</p>", "internal_node_id": "0.0-60.0-5.0", "time_elapsed": 684341, "key_press": -1, "trial_index": 83}, "uniqueid": "MTK3241:3STRJBFXOXY793P7BTXWZQ1JLWQTKY", "dateTime": 1520276685673}, {"current_trial": 84, "trialdata": {"rt": -1, "trial_type": "single-stim", "stimulus": "<p id=\"stim\">4</p>", "internal_node_id": "0.0-60.0-6.0", "time_elapsed": 685342, "key_press": -1, "trial_index": 84}, "uniqueid": "MTK3241:3STRJBFXOXY793P7BTXWZQ1JLWQTKY", "dateTime": 1520276686674}, {"current_trial": 85, "trialdata": {"rt": -1, "trial_type": "single-stim", "stimulus": "<p id=\"stim\">3</p>", "internal_node_id": "0.0-60.0-7.0", "time_elapsed": 686344, "key_press": -1, "trial_index": 85}, "uniqueid": "MTK3241:3STRJBFXOXY793P7BTXWZQ1JLWQTKY", "dateTime": 1520276687676}, {"current_trial": 86, "trialdata": {"rt": -1, "trial_type": "single-stim", "stimulus": "<p id=\"stim\">2</p>", "internal_node_id": "0.0-60.0-8.0", "time_elapsed": 687344, "key_press": -1, "trial_index": 86}, "uniqueid": "MTK3241:3STRJBFXOXY793P7BTXWZQ1JLWQTKY", "dateTime": 1520276688676}, {"current_trial": 87, "trialdata": {"rt": -1, "trial_type": "single-stim", "stimulus": "<p id=\"stim\">1</p>", "internal_node_id": "0.0-60.0-9.0", "time_elapsed": 688346, "key_press": -1, "trial_index": 87}, "uniqueid": "MTK3241:3STRJBFXOXY793P7BTXWZQ1JLWQTKY", "dateTime": 1520276689678}, {"current_trial": 88, "trialdata": {"rt": -1, "trial_type": "single-stim", "stimulus": "<p id=\"stim\">+</p>", "internal_node_id": "0.0-61.0-0.0", "time_elapsed": 689846, "key_press": -1, "type": "FIXATION", "trial_index": 88}, "uniqueid": "MTK3241:3STRJBFXOXY793P7BTXWZQ1JLWQTKY", "dateTime": 1520276691178}, {"current_trial": 89, "trialdata": {"rt": -1000, "trial_type": "single-audio", "word": "penguin", "stimulus": "/static/audio/wordpool/PENGUIN.wav", "conditions": [24, 800, "a", 24000], "internal_node_id": "0.0-62.0", "trial": 2, "time_elapsed": 691790, "serialpos": 0, "key_press": -1, "wordID": 1043, "type": "PRES_AUD", "trial_index": 89}, "uniqueid": "MTK3241:3STRJBFXOXY793P7BTXWZQ1JLWQTKY", "dateTime": 1520276693122}, {"current_trial": 90, "trialdata": {"rt": -1000, "trial_type": "single-audio", "word": "permit", "stimulus": "/static/audio/wordpool/PERMIT.wav", "conditions": [24, 800, "a", 24000], "internal_node_id": "0.0-63.0", "trial": 2, "time_elapsed": 693759, "serialpos": 1, "key_press": -1, "wordID": 1050, "type": "PRES_AUD", "trial_index": 90}, "uniqueid": "MTK3241:3STRJBFXOXY793P7BTXWZQ1JLWQTKY", "dateTime": 1520276695091}, {"current_trial": 91, "trialdata": {"rt": -1000, "trial_type": "single-audio", "word": "jello", "stimulus": "/static/audio/wordpool/JELLO.wav", "conditions": [24, 800, "a", 24000], "internal_node_id": "0.0-64.0", "trial": 2, "time_elapsed": 695712, "serialpos": 2, "key_press": -1, "wordID": 753, "type": "PRES_AUD", "trial_index": 91}, "uniqueid": "MTK3241:3STRJBFXOXY793P7BTXWZQ1JLWQTKY", "dateTime": 1520276697044}, {"current_trial": 92, "trialdata": {"rt": -1000, "trial_type": "single-audio", "word": "blockade", "stimulus": "/static/audio/wordpool/BLOCKADE.wav", "conditions": [24, 800, "a", 24000], "internal_node_id": "0.0-65.0", "trial": 2, "time_elapsed": 697572, "serialpos": 3, "key_press": -1, "wordID": 136, "type": "PRES_AUD", "trial_index": 92}, "uniqueid": "MTK3241:3STRJBFXOXY793P7BTXWZQ1JLWQTKY", "dateTime": 1520276698904}, {"current_trial": 93, "trialdata": {"rt": -1000, "trial_type": "single-audio", "word": "virus", "stimulus": "/static/audio/wordpool/VIRUS.wav", "conditions": [24, 800, "a", 24000], "internal_node_id": "0.0-66.0", "trial": 2, "time_elapsed": 699357, "serialpos": 4, "key_press": -1, "wordID": 1571, "type": "PRES_AUD", "trial_index": 93}, "uniqueid": "MTK3241:3STRJBFXOXY793P7BTXWZQ1JLWQTKY", "dateTime": 1520276700689}, {"current_trial": 94, "trialdata": {"rt": -1000, "trial_type": "single-audio", "word": "bug", "stimulus": "/static/audio/wordpool/BUG.wav", "conditions": [24, 800, "a", 24000], "internal_node_id": "0.0-67.0", "trial": 2, "time_elapsed": 701183, "serialpos": 5, "key_press": -1, "wordID": 186, "type": "PRES_AUD", "trial_index": 94}, "uniqueid": "MTK3241:3STRJBFXOXY793P7BTXWZQ1JLWQTKY", "dateTime": 1520276702516}, {"current_trial": 95, "trialdata": {"rt": -1000, "trial_type": "single-audio", "word": "icing", "stimulus": "/static/audio/wordpool/ICING.wav", "conditions": [24, 800, "a", 24000], "internal_node_id": "0.0-68.0", "trial": 2, "time_elapsed": 702922, "serialpos": 6, "key_press": -1, "wordID": 731, "type": "PRES_AUD", "trial_index": 95}, "uniqueid": "MTK3241:3STRJBFXOXY793P7BTXWZQ1JLWQTKY", "dateTime": 1520276704254}, {"current_trial": 96, "trialdata": {"rt": -1000, "trial_type": "single-audio", "word": "rug", "stimulus": "/static/audio/wordpool/RUG.wav", "conditions": [24, 800, "a", 24000], "internal_node_id": "0.0-69.0", "trial": 2, "time_elapsed": 704641, "serialpos": 7, "key_press": -1, "wordID": 1214, "type": "PRES_AUD", "trial_index": 96}, "uniqueid": "MTK3241:3STRJBFXOXY793P7BTXWZQ1JLWQTKY", "dateTime": 1520276705973}, {"current_trial": 97, "trialdata": {"rt": -1000, "trial_type": "single-audio", "word": "film", "stimulus": "/static/audio/wordpool/FILM.wav", "conditions": [24, 800, "a", 24000], "internal_node_id": "0.0-70.0", "trial": 2, "time_elapsed": 706370, "serialpos": 8, "key_press": -1, "wordID": 564, "type": "PRES_AUD", "trial_index": 97}, "uniqueid": "MTK3241:3STRJBFXOXY793P7BTXWZQ1JLWQTKY", "dateTime": 1520276707703}, {"current_trial": 98, "trialdata": {"rt": -1000, "trial_type": "single-audio", "word": "novel", "stimulus": "/static/audio/wordpool/NOVEL.wav", "conditions": [24, 800, "a", 24000], "internal_node_id": "0.0-71.0", "trial": 2, "time_elapsed": 708146, "serialpos": 9, "key_press": -1, "wordID": 959, "type": "PRES_AUD", "trial_index": 98}, "uniqueid": "MTK3241:3STRJBFXOXY793P7BTXWZQ1JLWQTKY", "dateTime": 1520276709478}, {"current_trial": 99, "trialdata": {"rt": -1000, "trial_type": "single-audio", "word": "snake", "stimulus": "/static/audio/wordpool/SNAKE.wav", "conditions": [24, 800, "a", 24000], "internal_node_id": "0.0-72.0", "trial": 2, "time_elapsed": 709965, "serialpos": 10, "key_press": -1, "wordID": 1332, "type": "PRES_AUD", "trial_index": 99}, "uniqueid": "MTK3241:3STRJBFXOXY793P7BTXWZQ1JLWQTKY", "dateTime": 1520276711297}, {"current_trial": 100, "trialdata": {"rt": -1000, "trial_type": "single-audio", "word": "turtle", "stimulus": "/static/audio/wordpool/TURTLE.wav", "conditions": [24, 800, "a", 24000], "internal_node_id": "0.0-73.0", "trial": 2, "time_elapsed": 711642, "serialpos": 11, "key_press": -1, "wordID": 1521, "type": "PRES_AUD", "trial_index": 100}, "uniqueid": "MTK3241:3STRJBFXOXY793P7BTXWZQ1JLWQTKY", "dateTime": 1520276712975}, {"current_trial": 101, "trialdata": {"rt": -1000, "trial_type": "single-audio", "word": "patient", "stimulus": "/static/audio/wordpool/PATIENT.wav", "conditions": [24, 800, "a", 24000], "internal_node_id": "0.0-74.0", "trial": 2, "time_elapsed": 713507, "serialpos": 12, "key_press": -1, "wordID": 1023, "type": "PRES_AUD", "trial_index": 101}, "uniqueid": "MTK3241:3STRJBFXOXY793P7BTXWZQ1JLWQTKY", "dateTime": 1520276714839}, {"current_trial": 102, "trialdata": {"rt": -1000, "trial_type": "single-audio", "word": "report", "stimulus": "/static/audio/wordpool/REPORT.wav", "conditions": [24, 800, "a", 24000], "internal_node_id": "0.0-75.0", "trial": 2, "time_elapsed": 715407, "serialpos": 13, "key_press": -1, "wordID": 1183, "type": "PRES_AUD", "trial_index": 102}, "uniqueid": "MTK3241:3STRJBFXOXY793P7BTXWZQ1JLWQTKY", "dateTime": 1520276716739}, {"current_trial": 103, "trialdata": {"rt": -1000, "trial_type": "single-audio", "word": "raft", "stimulus": "/static/audio/wordpool/RAFT.wav", "conditions": [24, 800, "a", 24000], "internal_node_id": "0.0-76.0", "trial": 2, "time_elapsed": 717220, "serialpos": 14, "key_press": -1, "wordID": 1158, "type": "PRES_AUD", "trial_index": 103}, "uniqueid": "MTK3241:3STRJBFXOXY793P7BTXWZQ1JLWQTKY", "dateTime": 1520276718552}, {"current_trial": 104, "trialdata": {"rt": -1000, "trial_type": "single-audio", "word": "bucket", "stimulus": "/static/audio/wordpool/BUCKET.wav", "conditions": [24, 800, "a", 24000], "internal_node_id": "0.0-77.0", "trial": 2, "time_elapsed": 719192, "serialpos": 15, "key_press": -1, "wordID": 183, "type": "PRES_AUD", "trial_index": 104}, "uniqueid": "MTK3241:3STRJBFXOXY793P7BTXWZQ1JLWQTKY", "dateTime": 1520276720524}, {"current_trial": 105, "trialdata": {"rt": -1000, "trial_type": "single-audio", "word": "stove", "stimulus": "/static/audio/wordpool/STOVE.wav", "conditions": [24, 800, "a", 24000], "internal_node_id": "0.0-78.0", "trial": 2, "time_elapsed": 721119, "serialpos": 16, "key_press": -1, "wordID": 1387, "type": "PRES_AUD", "trial_index": 105}, "uniqueid": "MTK3241:3STRJBFXOXY793P7BTXWZQ1JLWQTKY", "dateTime": 1520276722451}, {"current_trial": 106, "trialdata": {"rt": -1000, "trial_type": "single-audio", "word": "xerox", "stimulus": "/static/audio/wordpool/XEROX.wav", "conditions": [24, 800, "a", 24000], "internal_node_id": "0.0-79.0", "trial": 2, "time_elapsed": 723075, "serialpos": 17, "key_press": -1, "wordID": 1627, "type": "PRES_AUD", "trial_index": 106}, "uniqueid": "MTK3241:3STRJBFXOXY793P7BTXWZQ1JLWQTKY", "dateTime": 1520276724407}, {"current_trial": 107, "trialdata": {"rt": -1000, "trial_type": "single-audio", "word": "wrist", "stimulus": "/static/audio/wordpool/WRIST.wav", "conditions": [24, 800, "a", 24000], "internal_node_id": "0.0-80.0", "trial": 2, "time_elapsed": 724708, "serialpos": 18, "key_press": -1, "wordID": 1625, "type": "PRES_AUD", "trial_index": 107}, "uniqueid": "MTK3241:3STRJBFXOXY793P7BTXWZQ1JLWQTKY", "dateTime": 1520276726041}, {"current_trial": 108, "trialdata": {"rt": -1000, "trial_type": "single-audio", "word": "freckle", "stimulus": "/static/audio/wordpool/FRECKLE.wav", "conditions": [24, 800, "a", 24000], "internal_node_id": "0.0-81.0", "trial": 2, "time_elapsed": 726462, "serialpos": 19, "key_press": -1, "wordID": 601, "type": "PRES_AUD", "trial_index": 108}, "uniqueid": "MTK3241:3STRJBFXOXY793P7BTXWZQ1JLWQTKY", "dateTime": 1520276727794}, {"current_trial": 109, "trialdata": {"rt": -1000, "trial_type": "single-audio", "word": "dustpan", "stimulus": "/static/audio/wordpool/DUSTPAN.wav", "conditions": [24, 800, "a", 24000], "internal_node_id": "0.0-82.0", "trial": 2, "time_elapsed": 728288, "serialpos": 20, "key_press": -1, "wordID": 508, "type": "PRES_AUD", "trial_index": 109}, "uniqueid": "MTK3241:3STRJBFXOXY793P7BTXWZQ1JLWQTKY", "dateTime": 1520276729620}, {"current_trial": 110, "trialdata": {"rt": -1000, "trial_type": "single-audio", "word": "gallon", "stimulus": "/static/audio/wordpool/GALLON.wav", "conditions": [24, 800, "a", 24000], "internal_node_id": "0.0-83.0", "trial": 2, "time_elapsed": 730108, "serialpos": 21, "key_press": -1, "wordID": 617, "type": "PRES_AUD", "trial_index": 110}, "uniqueid": "MTK3241:3STRJBFXOXY793P7BTXWZQ1JLWQTKY", "dateTime": 1520276731440}, {"current_trial": 111, "trialdata": {"rt": -1000, "trial_type": "single-audio", "word": "barrel", "stimulus": "/static/audio/wordpool/BARREL.wav", "conditions": [24, 800, "a", 24000], "internal_node_id": "0.0-84.0", "trial": 2, "time_elapsed": 731889, "serialpos": 22, "key_press": -1, "wordID": 90, "type": "PRES_AUD", "trial_index": 111}, "uniqueid": "MTK3241:3STRJBFXOXY793P7BTXWZQ1JLWQTKY", "dateTime": 1520276733221}, {"current_trial": 112, "trialdata": {"rt": -1000, "trial_type": "single-audio", "word": "toaster", "stimulus": "/static/audio/wordpool/TOASTER.wav", "conditions": [24, 800, "a", 24000], "internal_node_id": "0.0-85.0", "trial": 2, "time_elapsed": 733600, "serialpos": 23, "key_press": -1, "wordID": 1471, "type": "PRES_AUD", "trial_index": 112}, "uniqueid": "MTK3241:3STRJBFXOXY793P7BTXWZQ1JLWQTKY", "dateTime": 1520276734932}, {"current_trial": 113, "trialdata": {"rt": -1, "trial_type": "single-stim", "stimulus": "", "internal_node_id": "0.0-86.0-0.0", "time_elapsed": 734861, "key_press": -1, "type": "PRE_RECALL_DELAY", "trial_index": 113}, "uniqueid": "MTK3241:3STRJBFXOXY793P7BTXWZQ1JLWQTKY", "dateTime": 1520276736193}, {"current_trial": 114, "trialdata": {"rt": -1000, "trial_type": "single-audio", "stimulus": "/static/audio/400Hz.wav", "internal_node_id": "0.0-87.0", "time_elapsed": 735365, "key_press": -1, "type": "PRE_RECALL_ALERT", "trial_index": 114}, "uniqueid": "MTK3241:3STRJBFXOXY793P7BTXWZQ1JLWQTKY", "dateTime": 1520276736697}, {"current_trial": 115, "trialdata": {"rt": [7603, 12963, 17978, 22842, 26922, 28579, 29962, 31650, 35770, 38194, 40818, 42954, 47778, 51243, 54730, 56522, 59890], "recwords": ["penguin", "jello", "blockade", "virus", "bug", "icing", "rug", "film", "novel", "snake", "turtle", "patient", "raft", "bucket", "stove", "wrist", "gallon"], "key_times": [5436, 5667, 5971, 6259, 6467, 6643, 6875, 7603, 11019, 11379, 11603, 11731, 11915, 12963, 15139, 15387, 15652, 16155, 16427, 17131, 17307, 17515, 17978, 19795, 20107, 20971, 21355, 21923, 22114, 22507, 22842, 26155, 26283, 26579, 26922, 27363, 27699, 27819, 28059, 28283, 28579, 29115, 29395, 29635, 29962, 30515, 30722, 30970, 31387, 31650, 34459, 34626, 34996, 35242, 35339, 35770, 37076, 37186, 37331, 37603, 37786, 38194, 38931, 39147, 39635, 40195, 40419, 40546, 40818, 41251, 41322, 41730, 42002, 42122, 42283, 42482, 42954, 46610, 46882, 47147, 47226, 47778, 49668, 49867, 50226, 50386, 50610, 50771, 51243, 53370, 53657, 54026, 54355, 54586, 54730, 55074, 55345, 55514, 55859, 55937, 56522, 58588, 58810, 59121, 59250, 59434, 59657, 59890], "trial_type": "free-recall", "conditions": [24, 800, "a", 24000], "internal_node_id": "0.0-88.0-0.0", "key_presses": [80, 69, 78, 71, 85, 73, 78, 13, 74, 69, 76, 76, 79, 13, 66, 76, 79, 67, 75, 65, 68, 69, 13, 86, 85, 8, 73, 82, 85, 83, 13, 66, 85, 71, 13, 73, 67, 73, 78, 71, 13, 82, 85, 71, 13, 70, 73, 76, 77, 13, 78, 79, 86, 69, 76, 13, 83, 78, 65, 75, 69, 13, 84, 85, 82, 84, 76, 69, 13, 80, 65, 84, 73, 69, 78, 84, 13, 82, 65, 70, 84, 13, 66, 85, 67, 75, 69, 84, 13, 83, 84, 79, 86, 69, 13, 87, 82, 73, 83, 84, 13, 71, 65, 76, 76, 79, 78, 13], "trial": 2, "time_elapsed": 795369, "type": "FREE_RECALL", "trial_index": 115}, "uniqueid": "MTK3241:3STRJBFXOXY793P7BTXWZQ1JLWQTKY", "dateTime": 1520276796706}, {"current_trial": 116, "trialdata": {"rt": 2179, "trial_type": "text", "internal_node_id": "0.0-89.0", "time_elapsed": 799553, "key_press": 76, "type": "INSTRUCTIONS", "trial_index": 116}, "uniqueid": "MTK3241:3STRJBFXOXY793P7BTXWZQ1JLWQTKY", "dateTime": 1520276800885}, {"current_trial": 117, "trialdata": {"rt": [4188, 6308, 10436], "trial_type": "math-distractor", "key_times": [3749, 3902, 4188, 5396, 6052, 6308, 9644, 10125, 10436], "responses": ["22", "10", "17"], "num2": [9, 5, 1, 2], "num3": [5, 1, 8, 5], "conditions": [12, 1600, "a", 12000], "internal_node_id": "0.0-90.0", "key_presses": [50, 50, 13, 49, 48, 13, 49, 55, 13], "trial": 3, "time_elapsed": 813557, "type": "DISTRACTOR", "trial_index": 117, "num1": [8, 4, 8, 2]}, "uniqueid": "MTK3241:3STRJBFXOXY793P7BTXWZQ1JLWQTKY", "dateTime": 1520276814889}, {"current_trial": 118, "trialdata": {"rt": -1, "trial_type": "single-stim", "stimulus": "<p id=\"stim\">10</p>", "internal_node_id": "0.0-91.0-0.0", "time_elapsed": 816558, "key_press": -1, "trial_index": 118}, "uniqueid": "MTK3241:3STRJBFXOXY793P7BTXWZQ1JLWQTKY", "dateTime": 1520276817890}, {"current_trial": 119, "trialdata": {"rt": -1, "trial_type": "single-stim", "stimulus": "<p id=\"stim\">9</p>", "internal_node_id": "0.0-91.0-1.0", "time_elapsed": 817557, "key_press": -1, "trial_index": 119}, "uniqueid": "MTK3241:3STRJBFXOXY793P7BTXWZQ1JLWQTKY", "dateTime": 1520276818891}, {"current_trial": 120, "trialdata": {"rt": -1, "trial_type": "single-stim", "stimulus": "<p id=\"stim\">8</p>", "internal_node_id": "0.0-91.0-2.0", "time_elapsed": 818560, "key_press": -1, "trial_index": 120}, "uniqueid": "MTK3241:3STRJBFXOXY793P7BTXWZQ1JLWQTKY", "dateTime": 1520276819892}, {"current_trial": 121, "trialdata": {"rt": -1, "trial_type": "single-stim", "stimulus": "<p id=\"stim\">7</p>", "internal_node_id": "0.0-91.0-3.0", "time_elapsed": 819561, "key_press": -1, "trial_index": 121}, "uniqueid": "MTK3241:3STRJBFXOXY793P7BTXWZQ1JLWQTKY", "dateTime": 1520276820893}, {"current_trial": 122, "trialdata": {"rt": -1, "trial_type": "single-stim", "stimulus": "<p id=\"stim\">6</p>", "internal_node_id": "0.0-91.0-4.0", "time_elapsed": 820561, "key_press": -1, "trial_index": 122}, "uniqueid": "MTK3241:3STRJBFXOXY793P7BTXWZQ1JLWQTKY", "dateTime": 1520276821893}, {"current_trial": 123, "trialdata": {"rt": -1, "trial_type": "single-stim", "stimulus": "<p id=\"stim\">5</p>", "internal_node_id": "0.0-91.0-5.0", "time_elapsed": 821563, "key_press": -1, "trial_index": 123}, "uniqueid": "MTK3241:3STRJBFXOXY793P7BTXWZQ1JLWQTKY", "dateTime": 1520276822895}, {"current_trial": 124, "trialdata": {"rt": -1, "trial_type": "single-stim", "stimulus": "<p id=\"stim\">4</p>", "internal_node_id": "0.0-91.0-6.0", "time_elapsed": 822564, "key_press": -1, "trial_index": 124}, "uniqueid": "MTK3241:3STRJBFXOXY793P7BTXWZQ1JLWQTKY", "dateTime": 1520276823896}, {"current_trial": 125, "trialdata": {"rt": -1, "trial_type": "single-stim", "stimulus": "<p id=\"stim\">3</p>", "internal_node_id": "0.0-91.0-7.0", "time_elapsed": 823565, "key_press": -1, "trial_index": 125}, "uniqueid": "MTK3241:3STRJBFXOXY793P7BTXWZQ1JLWQTKY", "dateTime": 1520276824897}, {"current_trial": 126, "trialdata": {"rt": -1, "trial_type": "single-stim", "stimulus": "<p id=\"stim\">2</p>", "internal_node_id": "0.0-91.0-8.0", "time_elapsed": 824566, "key_press": -1, "trial_index": 126}, "uniqueid": "MTK3241:3STRJBFXOXY793P7BTXWZQ1JLWQTKY", "dateTime": 1520276825898}, {"current_trial": 127, "trialdata": {"rt": -1, "trial_type": "single-stim", "stimulus": "<p id=\"stim\">1</p>", "internal_node_id": "0.0-91.0-9.0", "time_elapsed": 825566, "key_press": -1, "trial_index": 127}, "uniqueid": "MTK3241:3STRJBFXOXY793P7BTXWZQ1JLWQTKY", "dateTime": 1520276826900}, {"current_trial": 128, "trialdata": {"rt": -1, "trial_type": "single-stim", "stimulus": "<p id=\"stim\">+</p>", "internal_node_id": "0.0-92.0-0.0", "time_elapsed": 827068, "key_press": -1, "type": "FIXATION", "trial_index": 128}, "uniqueid": "MTK3241:3STRJBFXOXY793P7BTXWZQ1JLWQTKY", "dateTime": 1520276828400}, {"current_trial": 129, "trialdata": {"rt": -1000, "trial_type": "single-audio", "word": "costume", "stimulus": "/static/audio/wordpool/COSTUME.wav", "conditions": [12, 1600, "a", 12000], "internal_node_id": "0.0-93.0", "trial": 3, "time_elapsed": 829583, "serialpos": 0, "key_press": -1, "wordID": 382, "type": "PRES_AUD", "trial_index": 129}, "uniqueid": "MTK3241:3STRJBFXOXY793P7BTXWZQ1JLWQTKY", "dateTime": 1520276830915}, {"current_trial": 130, "trialdata": {"rt": -1000, "trial_type": "single-audio", "word": "ketchup", "stimulus": "/static/audio/wordpool/KETCHUP.wav", "conditions": [12, 1600, "a", 12000], "internal_node_id": "0.0-94.0", "trial": 3, "time_elapsed": 832084, "serialpos": 1, "key_press": -1, "wordID": 770, "type": "PRES_AUD", "trial_index": 130}, "uniqueid": "MTK3241:3STRJBFXOXY793P7BTXWZQ1JLWQTKY", "dateTime": 1520276833416}, {"current_trial": 131, "trialdata": {"rt": -1000, "trial_type": "single-audio", "word": "woman", "stimulus": "/static/audio/wordpool/WOMAN.wav", "conditions": [12, 1600, "a", 12000], "internal_node_id": "0.0-95.0", "trial": 3, "time_elapsed": 834644, "serialpos": 2, "key_press": -1, "wordID": 1619, "type": "PRES_AUD", "trial_index": 131}, "uniqueid": "MTK3241:3STRJBFXOXY793P7BTXWZQ1JLWQTKY", "dateTime": 1520276835976}, {"current_trial": 132, "trialdata": {"rt": -1000, "trial_type": "single-audio", "word": "lady", "stimulus": "/static/audio/wordpool/LADY.wav", "conditions": [12, 1600, "a", 12000], "internal_node_id": "0.0-96.0", "trial": 3, "time_elapsed": 837331, "serialpos": 3, "key_press": -1, "wordID": 793, "type": "PRES_AUD", "trial_index": 132}, "uniqueid": "MTK3241:3STRJBFXOXY793P7BTXWZQ1JLWQTKY", "dateTime": 1520276838663}, {"current_trial": 133, "trialdata": {"rt": -1000, "trial_type": "single-audio", "word": "waiter", "stimulus": "/static/audio/wordpool/WAITER.wav", "conditions": [12, 1600, "a", 12000], "internal_node_id": "0.0-97.0", "trial": 3, "time_elapsed": 839796, "serialpos": 4, "key_press": -1, "wordID": 1579, "type": "PRES_AUD", "trial_index": 133}, "uniqueid": "MTK3241:3STRJBFXOXY793P7BTXWZQ1JLWQTKY", "dateTime": 1520276841128}, {"current_trial": 134, "trialdata": {"rt": -1000, "trial_type": "single-audio", "word": "pebble", "stimulus": "/static/audio/wordpool/PEBBLE.wav", "conditions": [12, 1600, "a", 12000], "internal_node_id": "0.0-98.0", "trial": 3, "time_elapsed": 842502, "serialpos": 5, "key_press": -1, "wordID": 1034, "type": "PRES_AUD", "trial_index": 134}, "uniqueid": "MTK3241:3STRJBFXOXY793P7BTXWZQ1JLWQTKY", "dateTime": 1520276843834}, {"current_trial": 135, "trialdata": {"rt": -1000, "trial_type": "single-audio", "word": "donor", "stimulus": "/static/audio/wordpool/DONOR.wav", "conditions": [12, 1600, "a", 12000], "internal_node_id": "0.0-99.0", "trial": 3, "time_elapsed": 844933, "serialpos": 6, "key_press": -1, "wordID": 484, "type": "PRES_AUD", "trial_index": 135}, "uniqueid": "MTK3241:3STRJBFXOXY793P7BTXWZQ1JLWQTKY", "dateTime": 1520276846265}, {"current_trial": 136, "trialdata": {"rt": -1000, "trial_type": "single-audio", "word": "scarecrow", "stimulus": "/static/audio/wordpool/SCARECROW.wav", "conditions": [12, 1600, "a", 12000], "internal_node_id": "0.0-100.0", "trial": 3, "time_elapsed": 847719, "serialpos": 7, "key_press": -1, "wordID": 1244, "type": "PRES_AUD", "trial_index": 136}, "uniqueid": "MTK3241:3STRJBFXOXY793P7BTXWZQ1JLWQTKY", "dateTime": 1520276849051}, {"current_trial": 137, "trialdata": {"rt": -1000, "trial_type": "single-audio", "word": "ointment", "stimulus": "/static/audio/wordpool/OINTMENT.wav", "conditions": [12, 1600, "a", 12000], "internal_node_id": "0.0-101.0", "trial": 3, "time_elapsed": 850298, "serialpos": 8, "key_press": -1, "wordID": 973, "type": "PRES_AUD", "trial_index": 137}, "uniqueid": "MTK3241:3STRJBFXOXY793P7BTXWZQ1JLWQTKY", "dateTime": 1520276851630}, {"current_trial": 138, "trialdata": {"rt": -1000, "trial_type": "single-audio", "word": "saddle", "stimulus": "/static/audio/wordpool/SADDLE.wav", "conditions": [12, 1600, "a", 12000], "internal_node_id": "0.0-102.0", "trial": 3, "time_elapsed": 852953, "serialpos": 9, "key_press": -1, "wordID": 1220, "type": "PRES_AUD", "trial_index": 138}, "uniqueid": "MTK3241:3STRJBFXOXY793P7BTXWZQ1JLWQTKY", "dateTime": 1520276854285}, {"current_trial": 139, "trialdata": {"rt": -1000, "trial_type": "single-audio", "word": "padding", "stimulus": "/static/audio/wordpool/PADDING.wav", "conditions": [12, 1600, "a", 12000], "internal_node_id": "0.0-103.0", "trial": 3, "time_elapsed": 855673, "serialpos": 10, "key_press": -1, "wordID": 998, "type": "PRES_AUD", "trial_index": 139}, "uniqueid": "MTK3241:3STRJBFXOXY793P7BTXWZQ1JLWQTKY", "dateTime": 1520276857005}, {"current_trial": 140, "trialdata": {"rt": -1000, "trial_type": "single-audio", "word": "supper", "stimulus": "/static/audio/wordpool/SUPPER.wav", "conditions": [12, 1600, "a", 12000], "internal_node_id": "0.0-104.0", "trial": 3, "time_elapsed": 858424, "serialpos": 11, "key_press": -1, "wordID": 1410, "type": "PRES_AUD", "trial_index": 140}, "uniqueid": "MTK3241:3STRJBFXOXY793P7BTXWZQ1JLWQTKY", "dateTime": 1520276859756}, {"current_trial": 141, "trialdata": {"rt": -1, "trial_type": "single-stim", "stimulus": "", "internal_node_id": "0.0-105.0-0.0", "time_elapsed": 859735, "key_press": -1, "type": "PRE_RECALL_DELAY", "trial_index": 141}, "uniqueid": "MTK3241:3STRJBFXOXY793P7BTXWZQ1JLWQTKY", "dateTime": 1520276861068}, {"current_trial": 142, "trialdata": {"rt": -1000, "trial_type": "single-audio", "stimulus": "/static/audio/400Hz.wav", "internal_node_id": "0.0-106.0", "time_elapsed": 860245, "key_press": -1, "type": "PRE_RECALL_ALERT", "trial_index": 142}, "uniqueid": "MTK3241:3STRJBFXOXY793P7BTXWZQ1JLWQTKY", "dateTime": 1520276861577}, {"current_trial": 143, "trialdata": {"rt": [4243, 7451, 11602, 13547, 15434, 19363, 21675, 24626, 28522, 31091, 34236, 36930, 42522, 46467, 49851, 53154, 57651], "recwords": ["costume", "ketchup", "woman", "lady", "waiter", "pebble", "donor", "scarecrow", "ointment", "saddle", "padding", "supper", "supper", "padding", "saddle", "ointment", "ointment"], "key_times": [2478, 2724, 2987, 3292, 3548, 3715, 3836, 4243, 5556, 5723, 5988, 6212, 6355, 6595, 7012, 7451, 10468, 10620, 10836, 10939, 11059, 11602, 12220, 12323, 12629, 13267, 13547, 13908, 14131, 14332, 14483, 14915, 15156, 15434, 17899, 18076, 18467, 18595, 18780, 18916, 19363, 20003, 20244, 20684, 20812, 21412, 21675, 22044, 22331, 22676, 22980, 23259, 23620, 23859, 24060, 24212, 24626, 26691, 27316, 27548, 27740, 27868, 27979, 28107, 28251, 28522, 30059, 30252, 30508, 30627, 30746, 30900, 31091, 32602, 32708, 32987, 33114, 33371, 33756, 33995, 34236, 35314, 35635, 36195, 36362, 36571, 36788, 36930, 40180, 40674, 41660, 41786, 42043, 42282, 42522, 44868, 44987, 45300, 45428, 45595, 45795, 46003, 46467, 48626, 48844, 49082, 49219, 49347, 49483, 49851, 51643, 51866, 52108, 52291, 52435, 52564, 52644, 52819, 53154, 54754, 54988, 55251, 55812, 56859, 56963, 57083, 57308, 57651, 59851, 59987], "trial_type": "free-recall", "conditions": [12, 1600, "a", 12000], "internal_node_id": "0.0-107.0-0.0", "key_presses": [67, 79, 83, 84, 85, 77, 69, 13, 75, 69, 84, 67, 72, 85, 80, 13, 87, 79, 77, 65, 78, 13, 76, 65, 68, 89, 13, 87, 65, 73, 84, 69, 82, 13, 80, 69, 66, 66, 76, 69, 13, 68, 79, 78, 79, 82, 13, 83, 67, 65, 82, 69, 67, 82, 79, 87, 13, 79, 73, 78, 84, 77, 69, 78, 84, 13, 83, 65, 68, 68, 76, 69, 13, 80, 65, 68, 68, 73, 78, 71, 13, 83, 85, 80, 80, 69, 82, 13, 83, 85, 80, 80, 69, 82, 13, 80, 65, 68, 68, 73, 78, 71, 13, 83, 65, 68, 68, 76, 69, 13, 79, 73, 78, 84, 77, 69, 78, 84, 13, 79, 73, 78, 84, 77, 69, 78, 84, 13, 83, 67], "trial": 3, "time_elapsed": 920248, "type": "FREE_RECALL", "trial_index": 143}, "uniqueid": "MTK3241:3STRJBFXOXY793P7BTXWZQ1JLWQTKY", "dateTime": 1520276921585}, {"current_trial": 144, "trialdata": {"rt": 3531, "trial_type": "text", "internal_node_id": "0.0-108.0", "time_elapsed": 925786, "key_press": 76, "type": "INSTRUCTIONS", "trial_index": 144}, "uniqueid": "MTK3241:3STRJBFXOXY793P7BTXWZQ1JLWQTKY", "dateTime": 1520276927120}, {"current_trial": 145, "trialdata": {"rt": [3003, 5339, 7307, 9402, 11650], "trial_type": "math-distractor", "key_times": [2275, 2754, 3003, 4316, 5066, 5339, 6570, 6996, 7307, 8659, 9052, 9402, 10707, 11322, 11650], "responses": ["10", "19", "16", "15", "10"], "num2": [5, 6, 1, 8, 2, 8], "num3": [4, 5, 6, 4, 6, 8], "conditions": [24, 1600, "a", 12000], "internal_node_id": "0.0-109.0", "key_presses": [49, 48, 13, 49, 57, 13, 49, 54, 13, 49, 53, 13, 49, 48, 13], "trial": 4, "time_elapsed": 939791, "type": "DISTRACTOR", "trial_index": 145, "num1": [1, 8, 9, 3, 2, 3]}, "uniqueid": "MTK3241:3STRJBFXOXY793P7BTXWZQ1JLWQTKY", "dateTime": 1520276941123}, {"current_trial": 146, "trialdata": {"rt": -1, "trial_type": "single-stim", "stimulus": "<p id=\"stim\">10</p>", "internal_node_id": "0.0-110.0-0.0", "time_elapsed": 942795, "key_press": -1, "trial_index": 146}, "uniqueid": "MTK3241:3STRJBFXOXY793P7BTXWZQ1JLWQTKY", "dateTime": 1520276944127}, {"current_trial": 147, "trialdata": {"rt": -1, "trial_type": "single-stim", "stimulus": "<p id=\"stim\">9</p>", "internal_node_id": "0.0-110.0-1.0", "time_elapsed": 943797, "key_press": -1, "trial_index": 147}, "uniqueid": "MTK3241:3STRJBFXOXY793P7BTXWZQ1JLWQTKY", "dateTime": 1520276945129}, {"current_trial": 148, "trialdata": {"rt": -1, "trial_type": "single-stim", "stimulus": "<p id=\"stim\">8</p>", "internal_node_id": "0.0-110.0-2.0", "time_elapsed": 944798, "key_press": -1, "trial_index": 148}, "uniqueid": "MTK3241:3STRJBFXOXY793P7BTXWZQ1JLWQTKY", "dateTime": 1520276946130}, {"current_trial": 149, "trialdata": {"rt": -1, "trial_type": "single-stim", "stimulus": "<p id=\"stim\">7</p>", "internal_node_id": "0.0-110.0-3.0", "time_elapsed": 945800, "key_press": -1, "trial_index": 149}, "uniqueid": "MTK3241:3STRJBFXOXY793P7BTXWZQ1JLWQTKY", "dateTime": 1520276947132}, {"current_trial": 150, "trialdata": {"rt": -1, "trial_type": "single-stim", "stimulus": "<p id=\"stim\">6</p>", "internal_node_id": "0.0-110.0-4.0", "time_elapsed": 946800, "key_press": -1, "trial_index": 150}, "uniqueid": "MTK3241:3STRJBFXOXY793P7BTXWZQ1JLWQTKY", "dateTime": 1520276948132}, {"current_trial": 151, "trialdata": {"rt": -1, "trial_type": "single-stim", "stimulus": "<p id=\"stim\">5</p>", "internal_node_id": "0.0-110.0-5.0", "time_elapsed": 947803, "key_press": -1, "trial_index": 151}, "uniqueid": "MTK3241:3STRJBFXOXY793P7BTXWZQ1JLWQTKY", "dateTime": 1520276949135}, {"current_trial": 152, "trialdata": {"rt": -1, "trial_type": "single-stim", "stimulus": "<p id=\"stim\">4</p>", "internal_node_id": "0.0-110.0-6.0", "time_elapsed": 948804, "key_press": -1, "trial_index": 152}, "uniqueid": "MTK3241:3STRJBFXOXY793P7BTXWZQ1JLWQTKY", "dateTime": 1520276950136}, {"current_trial": 153, "trialdata": {"rt": -1, "trial_type": "single-stim", "stimulus": "<p id=\"stim\">3</p>", "internal_node_id": "0.0-110.0-7.0", "time_elapsed": 949806, "key_press": -1, "trial_index": 153}, "uniqueid": "MTK3241:3STRJBFXOXY793P7BTXWZQ1JLWQTKY", "dateTime": 1520276951138}, {"current_trial": 154, "trialdata": {"rt": -1, "trial_type": "single-stim", "stimulus": "<p id=\"stim\">2</p>", "internal_node_id": "0.0-110.0-8.0", "time_elapsed": 950807, "key_press": -1, "trial_index": 154}, "uniqueid": "MTK3241:3STRJBFXOXY793P7BTXWZQ1JLWQTKY", "dateTime": 1520276952139}, {"current_trial": 155, "trialdata": {"rt": -1, "trial_type": "single-stim", "stimulus": "<p id=\"stim\">1</p>", "internal_node_id": "0.0-110.0-9.0", "time_elapsed": 951807, "key_press": -1, "trial_index": 155}, "uniqueid": "MTK3241:3STRJBFXOXY793P7BTXWZQ1JLWQTKY", "dateTime": 1520276953139}, {"current_trial": 156, "trialdata": {"rt": -1, "trial_type": "single-stim", "stimulus": "<p id=\"stim\">+</p>", "internal_node_id": "0.0-111.0-0.0", "time_elapsed": 953308, "key_press": -1, "type": "FIXATION", "trial_index": 156}, "uniqueid": "MTK3241:3STRJBFXOXY793P7BTXWZQ1JLWQTKY", "dateTime": 1520276954641}, {"current_trial": 157, "trialdata": {"rt": -1000, "trial_type": "single-audio", "word": "crater", "stimulus": "/static/audio/wordpool/CRATER.wav", "conditions": [24, 1600, "a", 12000], "internal_node_id": "0.0-112.0", "trial": 4, "time_elapsed": 956089, "serialpos": 0, "key_press": -1, "wordID": 399, "type": "PRES_AUD", "trial_index": 157}, "uniqueid": "MTK3241:3STRJBFXOXY793P7BTXWZQ1JLWQTKY", "dateTime": 1520276957421}, {"current_trial": 158, "trialdata": {"rt": -1000, "trial_type": "single-audio", "word": "cellar", "stimulus": "/static/audio/wordpool/CELLAR.wav", "conditions": [24, 1600, "a", 12000], "internal_node_id": "0.0-113.0", "trial": 4, "time_elapsed": 958829, "serialpos": 1, "key_press": -1, "wordID": 266, "type": "PRES_AUD", "trial_index": 158}, "uniqueid": "MTK3241:3STRJBFXOXY793P7BTXWZQ1JLWQTKY", "dateTime": 1520276960161}, {"current_trial": 159, "trialdata": {"rt": -1000, "trial_type": "single-audio", "word": "radish", "stimulus": "/static/audio/wordpool/RADISH.wav", "conditions": [24, 1600, "a", 12000], "internal_node_id": "0.0-114.0", "trial": 4, "time_elapsed": 961500, "serialpos": 2, "key_press": -1, "wordID": 1157, "type": "PRES_AUD", "trial_index": 159}, "uniqueid": "MTK3241:3STRJBFXOXY793P7BTXWZQ1JLWQTKY", "dateTime": 1520276962832}, {"current_trial": 160, "trialdata": {"rt": -1000, "trial_type": "single-audio", "word": "lettuce", "stimulus": "/static/audio/wordpool/LETTUCE.wav", "conditions": [24, 1600, "a", 12000], "internal_node_id": "0.0-115.0", "trial": 4, "time_elapsed": 964295, "serialpos": 3, "key_press": -1, "wordID": 813, "type": "PRES_AUD", "trial_index": 160}, "uniqueid": "MTK3241:3STRJBFXOXY793P7BTXWZQ1JLWQTKY", "dateTime": 1520276965627}, {"current_trial": 161, "trialdata": {"rt": -1000, "trial_type": "single-audio", "word": "canyon", "stimulus": "/static/audio/wordpool/CANYON.wav", "conditions": [24, 1600, "a", 12000], "internal_node_id": "0.0-116.0", "trial": 4, "time_elapsed": 966876, "serialpos": 4, "key_press": -1, "wordID": 234, "type": "PRES_AUD", "trial_index": 161}, "uniqueid": "MTK3241:3STRJBFXOXY793P7BTXWZQ1JLWQTKY", "dateTime": 1520276968208}, {"current_trial": 162, "trialdata": {"rt": -1000, "trial_type": "single-audio", "word": "hook", "stimulus": "/static/audio/wordpool/HOOK.wav", "conditions": [24, 1600, "a", 12000], "internal_node_id": "0.0-117.0", "trial": 4, "time_elapsed": 969440, "serialpos": 5, "key_press": -1, "wordID": 714, "type": "PRES_AUD", "trial_index": 162}, "uniqueid": "MTK3241:3STRJBFXOXY793P7BTXWZQ1JLWQTKY", "dateTime": 1520276970772}, {"current_trial": 163, "trialdata": {"rt": -1000, "trial_type": "single-audio", "word": "blade", "stimulus": "/static/audio/wordpool/BLADE.wav", "conditions": [24, 1600, "a", 12000], "internal_node_id": "0.0-118.0", "trial": 4, "time_elapsed": 971842, "serialpos": 6, "key_press": -1, "wordID": 133, "type": "PRES_AUD", "trial_index": 163}, "uniqueid": "MTK3241:3STRJBFXOXY793P7BTXWZQ1JLWQTKY", "dateTime": 1520276973174}, {"current_trial": 164, "trialdata": {"rt": -1000, "trial_type": "single-audio", "word": "spool", "stimulus": "/static/audio/wordpool/SPOOL.wav", "conditions": [24, 1600, "a", 12000], "internal_node_id": "0.0-119.0", "trial": 4, "time_elapsed": 974434, "serialpos": 7, "key_press": -1, "wordID": 1355, "type": "PRES_AUD", "trial_index": 164}, "uniqueid": "MTK3241:3STRJBFXOXY793P7BTXWZQ1JLWQTKY", "dateTime": 1520276975768}, {"current_trial": 165, "trialdata": {"rt": -1000, "trial_type": "single-audio", "word": "county", "stimulus": "/static/audio/wordpool/COUNTY.wav", "conditions": [24, 1600, "a", 12000], "internal_node_id": "0.0-120.0", "trial": 4, "time_elapsed": 976864, "serialpos": 8, "key_press": -1, "wordID": 388, "type": "PRES_AUD", "trial_index": 165}, "uniqueid": "MTK3241:3STRJBFXOXY793P7BTXWZQ1JLWQTKY", "dateTime": 1520276978196}, {"current_trial": 166, "trialdata": {"rt": -1000, "trial_type": "single-audio", "word": "razor", "stimulus": "/static/audio/wordpool/RAZOR.wav", "conditions": [24, 1600, "a", 12000], "internal_node_id": "0.0-121.0", "trial": 4, "time_elapsed": 979415, "serialpos": 9, "key_press": -1, "wordID": 1170, "type": "PRES_AUD", "trial_index": 166}, "uniqueid": "MTK3241:3STRJBFXOXY793P7BTXWZQ1JLWQTKY", "dateTime": 1520276980748}, {"current_trial": 167, "trialdata": {"rt": -1000, "trial_type": "single-audio", "word": "zebra", "stimulus": "/static/audio/wordpool/ZEBRA.wav", "conditions": [24, 1600, "a", 12000], "internal_node_id": "0.0-122.0", "trial": 4, "time_elapsed": 982065, "serialpos": 10, "key_press": -1, "wordID": 1634, "type": "PRES_AUD", "trial_index": 167}, "uniqueid": "MTK3241:3STRJBFXOXY793P7BTXWZQ1JLWQTKY", "dateTime": 1520276983399}, {"current_trial": 168, "trialdata": {"rt": -1000, "trial_type": "single-audio", "word": "sibling", "stimulus": "/static/audio/wordpool/SIBLING.wav", "conditions": [24, 1600, "a", 12000], "internal_node_id": "0.0-123.0", "trial": 4, "time_elapsed": 984791, "serialpos": 11, "key_press": -1, "wordID": 1300, "type": "PRES_AUD", "trial_index": 168}, "uniqueid": "MTK3241:3STRJBFXOXY793P7BTXWZQ1JLWQTKY", "dateTime": 1520276986123}, {"current_trial": 169, "trialdata": {"rt": -1000, "trial_type": "single-audio", "word": "crab", "stimulus": "/static/audio/wordpool/CRAB.wav", "conditions": [24, 1600, "a", 12000], "internal_node_id": "0.0-124.0", "trial": 4, "time_elapsed": 987410, "serialpos": 12, "key_press": -1, "wordID": 396, "type": "PRES_AUD", "trial_index": 169}, "uniqueid": "MTK3241:3STRJBFXOXY793P7BTXWZQ1JLWQTKY", "dateTime": 1520276988742}, {"current_trial": 170, "trialdata": {"rt": -1000, "trial_type": "single-audio", "word": "suspect", "stimulus": "/static/audio/wordpool/SUSPECT.wav", "conditions": [24, 1600, "a", 12000], "internal_node_id": "0.0-125.0", "trial": 4, "time_elapsed": 989982, "serialpos": 13, "key_press": -1, "wordID": 1414, "type": "PRES_AUD", "trial_index": 170}, "uniqueid": "MTK3241:3STRJBFXOXY793P7BTXWZQ1JLWQTKY", "dateTime": 1520276991314}, {"current_trial": 171, "trialdata": {"rt": -1000, "trial_type": "single-audio", "word": "lightning", "stimulus": "/static/audio/wordpool/LIGHTNING.wav", "conditions": [24, 1600, "a", 12000], "internal_node_id": "0.0-126.0", "trial": 4, "time_elapsed": 992747, "serialpos": 14, "key_press": -1, "wordID": 819, "type": "PRES_AUD", "trial_index": 171}, "uniqueid": "MTK3241:3STRJBFXOXY793P7BTXWZQ1JLWQTKY", "dateTime": 1520276994079}, {"current_trial": 172, "trialdata": {"rt": -1000, "trial_type": "single-audio", "word": "wasp", "stimulus": "/static/audio/wordpool/WASP.wav", "conditions": [24, 1600, "a", 12000], "internal_node_id": "0.0-127.0", "trial": 4, "time_elapsed": 995305, "serialpos": 15, "key_press": -1, "wordID": 1592, "type": "PRES_AUD", "trial_index": 172}, "uniqueid": "MTK3241:3STRJBFXOXY793P7BTXWZQ1JLWQTKY", "dateTime": 1520276996637}, {"current_trial": 173, "trialdata": {"rt": -1000, "trial_type": "single-audio", "word": "drink", "stimulus": "/static/audio/wordpool/DRINK.wav", "conditions": [24, 1600, "a", 12000], "internal_node_id": "0.0-128.0", "trial": 4, "time_elapsed": 997824, "serialpos": 16, "key_press": -1, "wordID": 497, "type": "PRES_AUD", "trial_index": 173}, "uniqueid": "MTK3241:3STRJBFXOXY793P7BTXWZQ1JLWQTKY", "dateTime": 1520276999156}, {"current_trial": 174, "trialdata": {"rt": -1000, "trial_type": "single-audio", "word": "pigeon", "stimulus": "/static/audio/wordpool/PIGEON.wav", "conditions": [24, 1600, "a", 12000], "internal_node_id": "0.0-129.0", "trial": 4, "time_elapsed": 1000308, "serialpos": 17, "key_press": -1, "wordID": 1064, "type": "PRES_AUD", "trial_index": 174}, "uniqueid": "MTK3241:3STRJBFXOXY793P7BTXWZQ1JLWQTKY", "dateTime": 1520277001640}, {"current_trial": 175, "trialdata": {"rt": -1000, "trial_type": "single-audio", "word": "victim", "stimulus": "/static/audio/wordpool/VICTIM.wav", "conditions": [24, 1600, "a", 12000], "internal_node_id": "0.0-130.0", "trial": 4, "time_elapsed": 1002913, "serialpos": 18, "key_press": -1, "wordID": 1561, "type": "PRES_AUD", "trial_index": 175}, "uniqueid": "MTK3241:3STRJBFXOXY793P7BTXWZQ1JLWQTKY", "dateTime": 1520277004245}, {"current_trial": 176, "trialdata": {"rt": -1000, "trial_type": "single-audio", "word": "baby", "stimulus": "/static/audio/wordpool/BABY.wav", "conditions": [24, 1600, "a", 12000], "internal_node_id": "0.0-131.0", "trial": 4, "time_elapsed": 1005471, "serialpos": 19, "key_press": -1, "wordID": 63, "type": "PRES_AUD", "trial_index": 176}, "uniqueid": "MTK3241:3STRJBFXOXY793P7BTXWZQ1JLWQTKY", "dateTime": 1520277006803}, {"current_trial": 177, "trialdata": {"rt": -1000, "trial_type": "single-audio", "word": "keeper", "stimulus": "/static/audio/wordpool/KEEPER.wav", "conditions": [24, 1600, "a", 12000], "internal_node_id": "0.0-132.0", "trial": 4, "time_elapsed": 1007976, "serialpos": 20, "key_press": -1, "wordID": 768, "type": "PRES_AUD", "trial_index": 177}, "uniqueid": "MTK3241:3STRJBFXOXY793P7BTXWZQ1JLWQTKY", "dateTime": 1520277009308}, {"current_trial": 178, "trialdata": {"rt": -1000, "trial_type": "single-audio", "word": "denim", "stimulus": "/static/audio/wordpool/DENIM.wav", "conditions": [24, 1600, "a", 12000], "internal_node_id": "0.0-133.0", "trial": 4, "time_elapsed": 1010709, "serialpos": 21, "key_press": -1, "wordID": 445, "type": "PRES_AUD", "trial_index": 178}, "uniqueid": "MTK3241:3STRJBFXOXY793P7BTXWZQ1JLWQTKY", "dateTime": 1520277012041}, {"current_trial": 179, "trialdata": {"rt": -1000, "trial_type": "single-audio", "word": "clothes", "stimulus": "/static/audio/wordpool/CLOTHES.wav", "conditions": [24, 1600, "a", 12000], "internal_node_id": "0.0-134.0", "trial": 4, "time_elapsed": 1013390, "serialpos": 22, "key_press": -1, "wordID": 326, "type": "PRES_AUD", "trial_index": 179}, "uniqueid": "MTK3241:3STRJBFXOXY793P7BTXWZQ1JLWQTKY", "dateTime": 1520277014722}, {"current_trial": 180, "trialdata": {"rt": -1000, "trial_type": "single-audio", "word": "loft", "stimulus": "/static/audio/wordpool/LOFT.wav", "conditions": [24, 1600, "a", 12000], "internal_node_id": "0.0-135.0", "trial": 4, "time_elapsed": 1016036, "serialpos": 23, "key_press": -1, "wordID": 839, "type": "PRES_AUD", "trial_index": 180}, "uniqueid": "MTK3241:3STRJBFXOXY793P7BTXWZQ1JLWQTKY", "dateTime": 1520277017369}, {"current_trial": 181, "trialdata": {"rt": -1, "trial_type": "single-stim", "stimulus": "", "internal_node_id": "0.0-136.0-0.0", "time_elapsed": 1017419, "key_press": -1, "type": "PRE_RECALL_DELAY", "trial_index": 181}, "uniqueid": "MTK3241:3STRJBFXOXY793P7BTXWZQ1JLWQTKY", "dateTime": 1520277018751}, {"current_trial": 182, "trialdata": {"rt": -1000, "trial_type": "single-audio", "stimulus": "/static/audio/400Hz.wav", "internal_node_id": "0.0-137.0", "time_elapsed": 1017927, "key_press": -1, "type": "PRE_RECALL_ALERT", "trial_index": 182}, "uniqueid": "MTK3241:3STRJBFXOXY793P7BTXWZQ1JLWQTKY", "dateTime": 1520277019259}, {"current_trial": 183, "trialdata": {"rt": [3977, 6336, 7864, 9425, 13513, 16561, 19728, 23193, 26624, 30376, 33184, 35337, 40257, 43833, 46993, 51417, 55936, 58665], "recwords": ["denim", "clothes", "loft", "baby", "keeper", "crater", "cellar", "radish", "lettuce", "canyon", "cook", "laid", "spool", "county", "razor", "suspect", "wasp", "drink"], "key_times": [2529, 2729, 3058, 3297, 3465, 3977, 4905, 5096, 5281, 5537, 5672, 5857, 6121, 6336, 6778, 6945, 7320, 7561, 7864, 8424, 8489, 8561, 9041, 9425, 11105, 11353, 11484, 11681, 11817, 12065, 13513, 15281, 15497, 15617, 15945, 16041, 16146, 16561, 17953, 18177, 18873, 18993, 19129, 19457, 19728, 21681, 21922, 22209, 22489, 22593, 22713, 23193, 25018, 25193, 25537, 25665, 25897, 26217, 26441, 26624, 27977, 28209, 28305, 28585, 29345, 29481, 29825, 30041, 30376, 32281, 32528, 32642, 32817, 33184, 34568, 34698, 34825, 35122, 35337, 38873, 39193, 39417, 39537, 39720, 40257, 42073, 42321, 42577, 42777, 43225, 43322, 43833, 45506, 45801, 46113, 46329, 46729, 46993, 48641, 48777, 48921, 49329, 50009, 50280, 50674, 50913, 50977, 51417, 54913, 55105, 55313, 55538, 55936, 57385, 57609, 57897, 58080, 58249, 58665], "trial_type": "free-recall", "conditions": [24, 1600, "a", 12000], "internal_node_id": "0.0-138.0-0.0", "key_presses": [68, 69, 78, 73, 77, 13, 67, 76, 79, 84, 72, 69, 83, 13, 76, 79, 70, 84, 13, 66, 65, 66, 89, 13, 75, 69, 69, 80, 69, 82, 13, 67, 82, 65, 84, 69, 82, 13, 67, 69, 76, 76, 65, 82, 13, 82, 65, 68, 73, 83, 72, 13, 76, 69, 84, 84, 85, 67, 69, 13, 67, 65, 78, 84, 8, 89, 79, 78, 13, 67, 79, 79, 75, 13, 76, 65, 73, 68, 13, 83, 80, 79, 79, 76, 13, 67, 79, 85, 78, 84, 89, 13, 82, 65, 90, 79, 82, 13, 83, 85, 83, 219, 8, 80, 69, 67, 84, 13, 87, 65, 83, 80, 13, 68, 82, 73, 78, 75, 13], "trial": 4, "time_elapsed": 1077931, "type": "FREE_RECALL", "trial_index": 183}, "uniqueid": "MTK3241:3STRJBFXOXY793P7BTXWZQ1JLWQTKY", "dateTime": 1520277079269}, {"current_trial": 184, "trialdata": {"rt": 2287, "trial_type": "text", "internal_node_id": "0.0-139.0", "time_elapsed": 1082226, "key_press": 76, "type": "INSTRUCTIONS", "trial_index": 184}, "uniqueid": "MTK3241:3STRJBFXOXY793P7BTXWZQ1JLWQTKY", "dateTime": 1520277083558}, {"current_trial": 185, "trialdata": {"rt": [3150, 5438, 7757, 9486, 11525], "trial_type": "math-distractor", "key_times": [2446, 2693, 3150, 5198, 5438, 6837, 7534, 7757, 8870, 9150, 9486, 10853, 11326, 11525], "responses": ["13", "7", "15", "13", "17"], "num2": [4, 3, 6, 7, 1, 6], "num3": [9, 2, 2, 3, 7, 1], "conditions": [12, 800, "a", 12000], "internal_node_id": "0.0-140.0", "key_presses": [49, 51, 13, 55, 13, 49, 53, 13, 49, 51, 13, 49, 55, 13], "trial": 5, "time_elapsed": 1096229, "type": "DISTRACTOR", "trial_index": 185, "num1": [2, 2, 7, 3, 9, 9]}, "uniqueid": "MTK3241:3STRJBFXOXY793P7BTXWZQ1JLWQTKY", "dateTime": 1520277097561}, {"current_trial": 186, "trialdata": {"rt": -1, "trial_type": "single-stim", "stimulus": "<p id=\"stim\">10</p>", "internal_node_id": "0.0-141.0-0.0", "time_elapsed": 1099230, "key_press": -1, "trial_index": 186}, "uniqueid": "MTK3241:3STRJBFXOXY793P7BTXWZQ1JLWQTKY", "dateTime": 1520277100563}, {"current_trial": 187, "trialdata": {"rt": -1, "trial_type": "single-stim", "stimulus": "<p id=\"stim\">9</p>", "internal_node_id": "0.0-141.0-1.0", "time_elapsed": 1100231, "key_press": -1, "trial_index": 187}, "uniqueid": "MTK3241:3STRJBFXOXY793P7BTXWZQ1JLWQTKY", "dateTime": 1520277101563}, {"current_trial": 188, "trialdata": {"rt": -1, "trial_type": "single-stim", "stimulus": "<p id=\"stim\">8</p>", "internal_node_id": "0.0-141.0-2.0", "time_elapsed": 1101233, "key_press": -1, "trial_index": 188}, "uniqueid": "MTK3241:3STRJBFXOXY793P7BTXWZQ1JLWQTKY", "dateTime": 1520277102565}, {"current_trial": 189, "trialdata": {"rt": -1, "trial_type": "single-stim", "stimulus": "<p id=\"stim\">7</p>", "internal_node_id": "0.0-141.0-3.0", "time_elapsed": 1102233, "key_press": -1, "trial_index": 189}, "uniqueid": "MTK3241:3STRJBFXOXY793P7BTXWZQ1JLWQTKY", "dateTime": 1520277103565}, {"current_trial": 190, "trialdata": {"rt": -1, "trial_type": "single-stim", "stimulus": "<p id=\"stim\">6</p>", "internal_node_id": "0.0-141.0-4.0", "time_elapsed": 1103234, "key_press": -1, "trial_index": 190}, "uniqueid": "MTK3241:3STRJBFXOXY793P7BTXWZQ1JLWQTKY", "dateTime": 1520277104566}, {"current_trial": 191, "trialdata": {"rt": -1, "trial_type": "single-stim", "stimulus": "<p id=\"stim\">5</p>", "internal_node_id": "0.0-141.0-5.0", "time_elapsed": 1104235, "key_press": -1, "trial_index": 191}, "uniqueid": "MTK3241:3STRJBFXOXY793P7BTXWZQ1JLWQTKY", "dateTime": 1520277105567}, {"current_trial": 192, "trialdata": {"rt": -1, "trial_type": "single-stim", "stimulus": "<p id=\"stim\">4</p>", "internal_node_id": "0.0-141.0-6.0", "time_elapsed": 1105236, "key_press": -1, "trial_index": 192}, "uniqueid": "MTK3241:3STRJBFXOXY793P7BTXWZQ1JLWQTKY", "dateTime": 1520277106568}, {"current_trial": 193, "trialdata": {"rt": -1, "trial_type": "single-stim", "stimulus": "<p id=\"stim\">3</p>", "internal_node_id": "0.0-141.0-7.0", "time_elapsed": 1106236, "key_press": -1, "trial_index": 193}, "uniqueid": "MTK3241:3STRJBFXOXY793P7BTXWZQ1JLWQTKY", "dateTime": 1520277107568}, {"current_trial": 194, "trialdata": {"rt": -1, "trial_type": "single-stim", "stimulus": "<p id=\"stim\">2</p>", "internal_node_id": "0.0-141.0-8.0", "time_elapsed": 1107237, "key_press": -1, "trial_index": 194}, "uniqueid": "MTK3241:3STRJBFXOXY793P7BTXWZQ1JLWQTKY", "dateTime": 1520277108569}, {"current_trial": 195, "trialdata": {"rt": -1, "trial_type": "single-stim", "stimulus": "<p id=\"stim\">1</p>", "internal_node_id": "0.0-141.0-9.0", "time_elapsed": 1108239, "key_press": -1, "trial_index": 195}, "uniqueid": "MTK3241:3STRJBFXOXY793P7BTXWZQ1JLWQTKY", "dateTime": 1520277109571}, {"current_trial": 196, "trialdata": {"rt": -1, "trial_type": "single-stim", "stimulus": "<p id=\"stim\">+</p>", "internal_node_id": "0.0-142.0-0.0", "time_elapsed": 1109740, "key_press": -1, "type": "FIXATION", "trial_index": 196}, "uniqueid": "MTK3241:3STRJBFXOXY793P7BTXWZQ1JLWQTKY", "dateTime": 1520277111073}, {"current_trial": 197, "trialdata": {"rt": -1000, "trial_type": "single-audio", "word": "guitar", "stimulus": "/static/audio/wordpool/GUITAR.wav", "conditions": [12, 800, "a", 12000], "internal_node_id": "0.0-143.0", "trial": 5, "time_elapsed": 1111690, "serialpos": 0, "key_press": -1, "wordID": 669, "type": "PRES_AUD", "trial_index": 197}, "uniqueid": "MTK3241:3STRJBFXOXY793P7BTXWZQ1JLWQTKY", "dateTime": 1520277113022}, {"current_trial": 198, "trialdata": {"rt": -1000, "trial_type": "single-audio", "word": "plaid", "stimulus": "/static/audio/wordpool/PLAID.wav", "conditions": [12, 800, "a", 12000], "internal_node_id": "0.0-144.0", "trial": 5, "time_elapsed": 1113421, "serialpos": 1, "key_press": -1, "wordID": 1079, "type": "PRES_AUD", "trial_index": 198}, "uniqueid": "MTK3241:3STRJBFXOXY793P7BTXWZQ1JLWQTKY", "dateTime": 1520277114754}, {"current_trial": 199, "trialdata": {"rt": -1000, "trial_type": "single-audio", "word": "lover", "stimulus": "/static/audio/wordpool/LOVER.wav", "conditions": [12, 800, "a", 12000], "internal_node_id": "0.0-145.0", "trial": 5, "time_elapsed": 1115171, "serialpos": 2, "key_press": -1, "wordID": 845, "type": "PRES_AUD", "trial_index": 199}, "uniqueid": "MTK3241:3STRJBFXOXY793P7BTXWZQ1JLWQTKY", "dateTime": 1520277116503}, {"current_trial": 200, "trialdata": {"rt": -1000, "trial_type": "single-audio", "word": "infant", "stimulus": "/static/audio/wordpool/INFANT.wav", "conditions": [12, 800, "a", 12000], "internal_node_id": "0.0-146.0", "trial": 5, "time_elapsed": 1116963, "serialpos": 3, "key_press": -1, "wordID": 736, "type": "PRES_AUD", "trial_index": 200}, "uniqueid": "MTK3241:3STRJBFXOXY793P7BTXWZQ1JLWQTKY", "dateTime": 1520277118296}, {"current_trial": 201, "trialdata": {"rt": -1000, "trial_type": "single-audio", "word": "blouse", "stimulus": "/static/audio/wordpool/BLOUSE.wav", "conditions": [12, 800, "a", 12000], "internal_node_id": "0.0-147.0", "trial": 5, "time_elapsed": 1118786, "serialpos": 4, "key_press": -1, "wordID": 138, "type": "PRES_AUD", "trial_index": 201}, "uniqueid": "MTK3241:3STRJBFXOXY793P7BTXWZQ1JLWQTKY", "dateTime": 1520277120118}, {"current_trial": 202, "trialdata": {"rt": -1000, "trial_type": "single-audio", "word": "scarf", "stimulus": "/static/audio/wordpool/SCARF.wav", "conditions": [12, 800, "a", 12000], "internal_node_id": "0.0-148.0", "trial": 5, "time_elapsed": 1120782, "serialpos": 5, "key_press": -1, "wordID": 1245, "type": "PRES_AUD", "trial_index": 202}, "uniqueid": "MTK3241:3STRJBFXOXY793P7BTXWZQ1JLWQTKY", "dateTime": 1520277122115}, {"current_trial": 203, "trialdata": {"rt": -1000, "trial_type": "single-audio", "word": "banker", "stimulus": "/static/audio/wordpool/BANKER.wav", "conditions": [12, 800, "a", 12000], "internal_node_id": "0.0-149.0", "trial": 5, "time_elapsed": 1122461, "serialpos": 6, "key_press": -1, "wordID": 83, "type": "PRES_AUD", "trial_index": 203}, "uniqueid": "MTK3241:3STRJBFXOXY793P7BTXWZQ1JLWQTKY", "dateTime": 1520277123793}, {"current_trial": 204, "trialdata": {"rt": -1000, "trial_type": "single-audio", "word": "kleenex", "stimulus": "/static/audio/wordpool/KLEENEX.wav", "conditions": [12, 800, "a", 12000], "internal_node_id": "0.0-150.0", "trial": 5, "time_elapsed": 1124352, "serialpos": 7, "key_press": -1, "wordID": 781, "type": "PRES_AUD", "trial_index": 204}, "uniqueid": "MTK3241:3STRJBFXOXY793P7BTXWZQ1JLWQTKY", "dateTime": 1520277125684}, {"current_trial": 205, "trialdata": {"rt": -1000, "trial_type": "single-audio", "word": "shark", "stimulus": "/static/audio/wordpool/SHARK.wav", "conditions": [12, 800, "a", 12000], "internal_node_id": "0.0-151.0", "trial": 5, "time_elapsed": 1126279, "serialpos": 8, "key_press": -1, "wordID": 1274, "type": "PRES_AUD", "trial_index": 205}, "uniqueid": "MTK3241:3STRJBFXOXY793P7BTXWZQ1JLWQTKY", "dateTime": 1520277127611}, {"current_trial": 206, "trialdata": {"rt": -1000, "trial_type": "single-audio", "word": "snail", "stimulus": "/static/audio/wordpool/SNAIL.wav", "conditions": [12, 800, "a", 12000], "internal_node_id": "0.0-152.0", "trial": 5, "time_elapsed": 1127919, "serialpos": 9, "key_press": -1, "wordID": 1331, "type": "PRES_AUD", "trial_index": 206}, "uniqueid": "MTK3241:3STRJBFXOXY793P7BTXWZQ1JLWQTKY", "dateTime": 1520277129251}, {"current_trial": 207, "trialdata": {"rt": -1000, "trial_type": "single-audio", "word": "pilot", "stimulus": "/static/audio/wordpool/PILOT.wav", "conditions": [12, 800, "a", 12000], "internal_node_id": "0.0-153.0", "trial": 5, "time_elapsed": 1129815, "serialpos": 10, "key_press": -1, "wordID": 1069, "type": "PRES_AUD", "trial_index": 207}, "uniqueid": "MTK3241:3STRJBFXOXY793P7BTXWZQ1JLWQTKY", "dateTime": 1520277131147}, {"current_trial": 208, "trialdata": {"rt": -1000, "trial_type": "single-audio", "word": "mammal", "stimulus": "/static/audio/wordpool/MAMMAL.wav", "conditions": [12, 800, "a", 12000], "internal_node_id": "0.0-154.0", "trial": 5, "time_elapsed": 1131790, "serialpos": 11, "key_press": -1, "wordID": 860, "type": "PRES_AUD", "trial_index": 208}, "uniqueid": "MTK3241:3STRJBFXOXY793P7BTXWZQ1JLWQTKY", "dateTime": 1520277133122}, {"current_trial": 209, "trialdata": {"rt": -1, "trial_type": "single-stim", "stimulus": "", "internal_node_id": "0.0-155.0-0.0", "time_elapsed": 1133043, "key_press": -1, "type": "PRE_RECALL_DELAY", "trial_index": 209}, "uniqueid": "MTK3241:3STRJBFXOXY793P7BTXWZQ1JLWQTKY", "dateTime": 1520277134376}, {"current_trial": 210, "trialdata": {"rt": -1000, "trial_type": "single-audio", "stimulus": "/static/audio/400Hz.wav", "internal_node_id": "0.0-156.0", "time_elapsed": 1133554, "key_press": -1, "type": "PRE_RECALL_ALERT", "trial_index": 210}, "uniqueid": "MTK3241:3STRJBFXOXY793P7BTXWZQ1JLWQTKY", "dateTime": 1520277134886}, {"current_trial": 211, "trialdata": {"rt": [6126, 8702, 11068, 15245, 19022, 23893, 27198, 33086, 37254, 41334, 44334, 46902, 49367, 54125], "recwords": ["guitar", "flag", "lover", "infant", "blouse", "scarf", "bomber", "banker", "kleenex", "shark", "snail", "pilot", "mammal", "mammal"], "key_times": [4207, 4726, 4901, 5245, 5365, 5471, 6126, 7718, 7982, 8070, 8422, 8702, 10013, 10165, 10470, 10710, 10926, 11068, 12622, 12829, 13078, 13718, 14134, 14566, 14750, 14959, 15245, 17502, 17734, 17991, 18238, 18542, 18790, 19022, 22310, 22438, 22935, 23103, 23310, 23893, 25647, 25767, 25966, 26222, 26487, 26727, 27198, 28823, 28983, 29142, 31551, 31646, 31734, 32061, 32430, 32750, 33086, 35469, 35671, 36038, 36166, 36438, 36574, 36958, 37254, 39783, 39895, 39983, 40269, 40551, 41334, 43310, 43414, 43541, 43615, 43927, 44334, 45862, 46094, 46286, 46469, 46726, 46902, 48054, 48144, 48223, 48359, 48870, 49047, 49367, 52392, 52478, 52551, 52677, 52934, 53039, 54125], "trial_type": "free-recall", "conditions": [12, 800, "a", 12000], "internal_node_id": "0.0-157.0-0.0", "key_presses": [71, 85, 73, 84, 65, 82, 13, 70, 76, 65, 71, 13, 76, 79, 86, 69, 82, 13, 73, 78, 71, 8, 70, 65, 78, 84, 13, 66, 76, 79, 85, 83, 69, 13, 83, 67, 65, 82, 70, 13, 66, 79, 77, 66, 69, 82, 13, 8, 8, 8, 66, 65, 78, 75, 69, 82, 13, 75, 76, 69, 69, 78, 69, 88, 13, 83, 72, 65, 82, 75, 13, 83, 78, 65, 73, 76, 13, 80, 73, 76, 79, 84, 13, 77, 65, 77, 77, 65, 76, 13, 77, 65, 77, 77, 65, 76, 13], "trial": 5, "time_elapsed": 1193558, "type": "FREE_RECALL", "trial_index": 211}, "uniqueid": "MTK3241:3STRJBFXOXY793P7BTXWZQ1JLWQTKY", "dateTime": 1520277194896}, {"current_trial": 212, "trialdata": {"rt": 1775, "trial_type": "text", "internal_node_id": "0.0-158.0", "time_elapsed": 1197339, "key_press": 76, "type": "INSTRUCTIONS", "trial_index": 212}, "uniqueid": "MTK3241:3STRJBFXOXY793P7BTXWZQ1JLWQTKY", "dateTime": 1520277198671}, {"current_trial": 213, "trialdata": {"rt": [3093, 4934, 7726, 10854], "trial_type": "math-distractor", "key_times": [2118, 2759, 3093, 4357, 4622, 4934, 6862, 7487, 7726, 10046, 10494, 10854], "responses": ["10", "13", "10", "24"], "num2": [1, 8, 1, 8, 8], "num3": [7, 1, 5, 9, 9], "conditions": [12, 1600, "a", 12000], "internal_node_id": "0.0-159.0", "key_presses": [49, 48, 13, 49, 51, 13, 49, 48, 13, 50, 52, 13], "trial": 6, "time_elapsed": 1211341, "type": "DISTRACTOR", "trial_index": 213, "num1": [2, 4, 4, 7, 9]}, "uniqueid": "MTK3241:3STRJBFXOXY793P7BTXWZQ1JLWQTKY", "dateTime": 1520277212673}, {"current_trial": 214, "trialdata": {"rt": -1, "trial_type": "single-stim", "stimulus": "<p id=\"stim\">10</p>", "internal_node_id": "0.0-160.0-0.0", "time_elapsed": 1214342, "key_press": -1, "trial_index": 214}, "uniqueid": "MTK3241:3STRJBFXOXY793P7BTXWZQ1JLWQTKY", "dateTime": 1520277215674}, {"current_trial": 215, "trialdata": {"rt": -1, "trial_type": "single-stim", "stimulus": "<p id=\"stim\">9</p>", "internal_node_id": "0.0-160.0-1.0", "time_elapsed": 1215342, "key_press": -1, "trial_index": 215}, "uniqueid": "MTK3241:3STRJBFXOXY793P7BTXWZQ1JLWQTKY", "dateTime": 1520277216674}, {"current_trial": 216, "trialdata": {"rt": -1, "trial_type": "single-stim", "stimulus": "<p id=\"stim\">8</p>", "internal_node_id": "0.0-160.0-2.0", "time_elapsed": 1216346, "key_press": -1, "trial_index": 216}, "uniqueid": "MTK3241:3STRJBFXOXY793P7BTXWZQ1JLWQTKY", "dateTime": 1520277217678}, {"current_trial": 217, "trialdata": {"rt": -1, "trial_type": "single-stim", "stimulus": "<p id=\"stim\">7</p>", "internal_node_id": "0.0-160.0-3.0", "time_elapsed": 1217346, "key_press": -1, "trial_index": 217}, "uniqueid": "MTK3241:3STRJBFXOXY793P7BTXWZQ1JLWQTKY", "dateTime": 1520277218678}, {"current_trial": 218, "trialdata": {"rt": -1, "trial_type": "single-stim", "stimulus": "<p id=\"stim\">6</p>", "internal_node_id": "0.0-160.0-4.0", "time_elapsed": 1218348, "key_press": -1, "trial_index": 218}, "uniqueid": "MTK3241:3STRJBFXOXY793P7BTXWZQ1JLWQTKY", "dateTime": 1520277219680}, {"current_trial": 219, "trialdata": {"rt": -1, "trial_type": "single-stim", "stimulus": "<p id=\"stim\">5</p>", "internal_node_id": "0.0-160.0-5.0", "time_elapsed": 1219348, "key_press": -1, "trial_index": 219}, "uniqueid": "MTK3241:3STRJBFXOXY793P7BTXWZQ1JLWQTKY", "dateTime": 1520277220681}, {"current_trial": 220, "trialdata": {"rt": -1, "trial_type": "single-stim", "stimulus": "<p id=\"stim\">4</p>", "internal_node_id": "0.0-160.0-6.0", "time_elapsed": 1220350, "key_press": -1, "trial_index": 220}, "uniqueid": "MTK3241:3STRJBFXOXY793P7BTXWZQ1JLWQTKY", "dateTime": 1520277221682}, {"current_trial": 221, "trialdata": {"rt": -1, "trial_type": "single-stim", "stimulus": "<p id=\"stim\">3</p>", "internal_node_id": "0.0-160.0-7.0", "time_elapsed": 1221351, "key_press": -1, "trial_index": 221}, "uniqueid": "MTK3241:3STRJBFXOXY793P7BTXWZQ1JLWQTKY", "dateTime": 1520277222683}, {"current_trial": 222, "trialdata": {"rt": -1, "trial_type": "single-stim", "stimulus": "<p id=\"stim\">2</p>", "internal_node_id": "0.0-160.0-8.0", "time_elapsed": 1222353, "key_press": -1, "trial_index": 222}, "uniqueid": "MTK3241:3STRJBFXOXY793P7BTXWZQ1JLWQTKY", "dateTime": 1520277223685}, {"current_trial": 223, "trialdata": {"rt": -1, "trial_type": "single-stim", "stimulus": "<p id=\"stim\">1</p>", "internal_node_id": "0.0-160.0-9.0", "time_elapsed": 1223353, "key_press": -1, "trial_index": 223}, "uniqueid": "MTK3241:3STRJBFXOXY793P7BTXWZQ1JLWQTKY", "dateTime": 1520277224685}, {"current_trial": 224, "trialdata": {"rt": -1, "trial_type": "single-stim", "stimulus": "<p id=\"stim\">+</p>", "internal_node_id": "0.0-161.0-0.0", "time_elapsed": 1224854, "key_press": -1, "type": "FIXATION", "trial_index": 224}, "uniqueid": "MTK3241:3STRJBFXOXY793P7BTXWZQ1JLWQTKY", "dateTime": 1520277226186}, {"current_trial": 225, "trialdata": {"rt": -1000, "trial_type": "single-audio", "word": "coin", "stimulus": "/static/audio/wordpool/COIN.wav", "conditions": [12, 1600, "a", 12000], "internal_node_id": "0.0-162.0", "trial": 6, "time_elapsed": 1227307, "serialpos": 0, "key_press": -1, "wordID": 342, "type": "PRES_AUD", "trial_index": 225}, "uniqueid": "MTK3241:3STRJBFXOXY793P7BTXWZQ1JLWQTKY", "dateTime": 1520277228639}, {"current_trial": 226, "trialdata": {"rt": -1000, "trial_type": "single-audio", "word": "turkey", "stimulus": "/static/audio/wordpool/TURKEY.wav", "conditions": [12, 1600, "a", 12000], "internal_node_id": "0.0-163.0", "trial": 6, "time_elapsed": 1229960, "serialpos": 1, "key_press": -1, "wordID": 1519, "type": "PRES_AUD", "trial_index": 226}, "uniqueid": "MTK3241:3STRJBFXOXY793P7BTXWZQ1JLWQTKY", "dateTime": 1520277231292}, {"current_trial": 227, "trialdata": {"rt": -1000, "trial_type": "single-audio", "word": "silk", "stimulus": "/static/audio/wordpool/SILK.wav", "conditions": [12, 1600, "a", 12000], "internal_node_id": "0.0-164.0", "trial": 6, "time_elapsed": 1232577, "serialpos": 2, "key_press": -1, "wordID": 1306, "type": "PRES_AUD", "trial_index": 227}, "uniqueid": "MTK3241:3STRJBFXOXY793P7BTXWZQ1JLWQTKY", "dateTime": 1520277233910}, {"current_trial": 228, "trialdata": {"rt": -1000, "trial_type": "single-audio", "word": "lace", "stimulus": "/static/audio/wordpool/LACE.wav", "conditions": [12, 1600, "a", 12000], "internal_node_id": "0.0-165.0", "trial": 6, "time_elapsed": 1235004, "serialpos": 3, "key_press": -1, "wordID": 791, "type": "PRES_AUD", "trial_index": 228}, "uniqueid": "MTK3241:3STRJBFXOXY793P7BTXWZQ1JLWQTKY", "dateTime": 1520277236337}, {"current_trial": 229, "trialdata": {"rt": -1000, "trial_type": "single-audio", "word": "citrus", "stimulus": "/static/audio/wordpool/CITRUS.wav", "conditions": [12, 1600, "a", 12000], "internal_node_id": "0.0-166.0", "trial": 6, "time_elapsed": 1237736, "serialpos": 4, "key_press": -1, "wordID": 312, "type": "PRES_AUD", "trial_index": 229}, "uniqueid": "MTK3241:3STRJBFXOXY793P7BTXWZQ1JLWQTKY", "dateTime": 1520277239068}, {"current_trial": 230, "trialdata": {"rt": -1000, "trial_type": "single-audio", "word": "pecan", "stimulus": "/static/audio/wordpool/PECAN.wav", "conditions": [12, 1600, "a", 12000], "internal_node_id": "0.0-167.0", "trial": 6, "time_elapsed": 1240222, "serialpos": 5, "key_press": -1, "wordID": 1035, "type": "PRES_AUD", "trial_index": 230}, "uniqueid": "MTK3241:3STRJBFXOXY793P7BTXWZQ1JLWQTKY", "dateTime": 1520277241554}, {"current_trial": 231, "trialdata": {"rt": -1000, "trial_type": "single-audio", "word": "leg", "stimulus": "/static/audio/wordpool/LEG.wav", "conditions": [12, 1600, "a", 12000], "internal_node_id": "0.0-168.0", "trial": 6, "time_elapsed": 1242632, "serialpos": 6, "key_press": -1, "wordID": 808, "type": "PRES_AUD", "trial_index": 231}, "uniqueid": "MTK3241:3STRJBFXOXY793P7BTXWZQ1JLWQTKY", "dateTime": 1520277243965}, {"current_trial": 232, "trialdata": {"rt": -1000, "trial_type": "single-audio", "word": "couch", "stimulus": "/static/audio/wordpool/COUCH.wav", "conditions": [12, 1600, "a", 12000], "internal_node_id": "0.0-169.0", "trial": 6, "time_elapsed": 1245039, "serialpos": 7, "key_press": -1, "wordID": 385, "type": "PRES_AUD", "trial_index": 232}, "uniqueid": "MTK3241:3STRJBFXOXY793P7BTXWZQ1JLWQTKY", "dateTime": 1520277246372}, {"current_trial": 233, "trialdata": {"rt": -1000, "trial_type": "single-audio", "word": "gavel", "stimulus": "/static/audio/wordpool/GAVEL.wav", "conditions": [12, 1600, "a", 12000], "internal_node_id": "0.0-170.0", "trial": 6, "time_elapsed": 1247692, "serialpos": 8, "key_press": -1, "wordID": 626, "type": "PRES_AUD", "trial_index": 233}, "uniqueid": "MTK3241:3STRJBFXOXY793P7BTXWZQ1JLWQTKY", "dateTime": 1520277249024}, {"current_trial": 234, "trialdata": {"rt": -1000, "trial_type": "single-audio", "word": "server", "stimulus": "/static/audio/wordpool/SERVER.wav", "conditions": [12, 1600, "a", 12000], "internal_node_id": "0.0-171.0", "trial": 6, "time_elapsed": 1250365, "serialpos": 9, "key_press": -1, "wordID": 1271, "type": "PRES_AUD", "trial_index": 234}, "uniqueid": "MTK3241:3STRJBFXOXY793P7BTXWZQ1JLWQTKY", "dateTime": 1520277251697}, {"current_trial": 235, "trialdata": {"rt": -1000, "trial_type": "single-audio", "word": "shoulder", "stimulus": "/static/audio/wordpool/SHOULDER.wav", "conditions": [12, 1600, "a", 12000], "internal_node_id": "0.0-172.0", "trial": 6, "time_elapsed": 1252962, "serialpos": 10, "key_press": -1, "wordID": 1293, "type": "PRES_AUD", "trial_index": 235}, "uniqueid": "MTK3241:3STRJBFXOXY793P7BTXWZQ1JLWQTKY", "dateTime": 1520277254294}, {"current_trial": 236, "trialdata": {"rt": -1000, "trial_type": "single-audio", "word": "quarter", "stimulus": "/static/audio/wordpool/QUARTER.wav", "conditions": [12, 1600, "a", 12000], "internal_node_id": "0.0-173.0", "trial": 6, "time_elapsed": 1255598, "serialpos": 11, "key_press": -1, "wordID": 1147, "type": "PRES_AUD", "trial_index": 236}, "uniqueid": "MTK3241:3STRJBFXOXY793P7BTXWZQ1JLWQTKY", "dateTime": 1520277256930}, {"current_trial": 237, "trialdata": {"rt": -1, "trial_type": "single-stim", "stimulus": "", "internal_node_id": "0.0-174.0-0.0", "time_elapsed": 1256907, "key_press": -1, "type": "PRE_RECALL_DELAY", "trial_index": 237}, "uniqueid": "MTK3241:3STRJBFXOXY793P7BTXWZQ1JLWQTKY", "dateTime": 1520277258239}, {"current_trial": 238, "trialdata": {"rt": -1000, "trial_type": "single-audio", "stimulus": "/static/audio/400Hz.wav", "internal_node_id": "0.0-175.0", "time_elapsed": 1257411, "key_press": -1, "type": "PRE_RECALL_ALERT", "trial_index": 238}, "uniqueid": "MTK3241:3STRJBFXOXY793P7BTXWZQ1JLWQTKY", "dateTime": 1520277258743}, {"current_trial": 239, "trialdata": {"rt": [3573, 7374, 10685, 13116, 16125, 19317, 21500, 24452, 27988, 31188, 35212, 38189], "recwords": ["coin", "turkey", "silk", "legs", "citrus", "pecan", "leg", "couch", "gavel", "server", "shoulder", "quater"], "key_times": [2430, 2614, 2814, 3030, 3573, 5486, 5686, 6029, 6462, 6614, 6877, 7374, 8918, 9246, 9422, 9629, 10685, 12150, 12493, 12621, 12797, 13116, 14509, 14716, 15061, 15285,