{"assignmentId": "3VHP9MDGRORF70VIOWB9U39APYQCFH", "workerId": "MTK3601", "questiondata": {"origin": "United States", "strat-rehearsal": "58", "marital": "Married/Domestic Partnership", "education": "Bachelor's degree", "ethnicity": "Hispanic", "color_depth": 24, "distracted": "No", "wrote-notes": "Yes", "strat-other": "just tried repeating the words as they came up on the screen in a singsong", "screen_width": 1920, "avail_screen_width": 1920, "avail_screen_height": 1040, "strat-image": "4", "language": "english", "gender": "Male", "age": "61", "gender_other": "", "race": ["Other"], "strat-categorize": "38", "pixel_depth": 24, "strat-spatial": "8", "strat-story": "2", "race_other": "Latin", "screen_height": 1080}, "bonus": 0, "hitId": "3HEADTGN2PZ6MF8XG616C0FYSHKVRD", "counterbalance": 670, "useragent": "Mozilla/5.0 (Windows NT 10.0; Win64; x64) AppleWebKit/537.36 (KHTML, like Gecko) Chrome/64.0.3282.186 Safari/537.36", "eventdata": [{"eventtype": "initialized", "interval": 0, "value": null, "timestamp": 1520799527369}, {"eventtype": "window_resize", "interval": 0, "value": [1920, 1033], "timestamp": 1520799527369}, {"eventtype": "focus", "interval": 16552, "value": "off", "timestamp": 1520799543921}, {"eventtype": "focus", "interval": 6244, "value": "on", "timestamp": 1520799550165}, {"eventtype": "focus", "interval": 3624, "value": "off", "timestamp": 1520799553789}, {"eventtype": "focus", "interval": 2968, "value": "on", "timestamp": 1520799556757}, {"eventtype": "focus", "interval": 33962, "value": "off", "timestamp": 1520799590719}, {"eventtype": "focus", "interval": 1, "value": "on", "timestamp": 1520799590720}, {"eventtype": "focus", "interval": 1358751, "value": "off", "timestamp": 1520800949471}, {"eventtype": "focus", "interval": 9879, "value": "on", "timestamp": 1520800959350}, {"eventtype": "focus", "interval": 296198, "value": "off", "timestamp": 1520801255548}, {"eventtype": "focus", "interval": 22969, "value": "on", "timestamp": 1520801278517}, {"eventtype": "focus", "interval": 418274, "value": "off", "timestamp": 1520801696791}, {"eventtype": "focus", "interval": 4312, "value": "on", "timestamp": 1520801701103}, {"eventtype": "focus", "interval": 584503, "value": "off", "timestamp": 1520802285606}, {"eventtype": "focus", "interval": 4401, "value": "on", "timestamp": 1520802290007}], "data": [{"current_trial": 0, "trialdata": {"rt": 2936, "trial_type": "text", "internal_node_id": "0.0-0.0", "time_elapsed": 2945, "key_press": 74, "type": "INSTRUCTIONS", "trial_index": 0}, "uniqueid": "MTK3601:3VHP9MDGRORF70VIOWB9U39APYQCFH", "dateTime": 1520799530903}, {"current_trial": 1, "trialdata": {"rt": 9746, "trial_type": "text", "internal_node_id": "0.0-1.0", "time_elapsed": 12695, "key_press": 73, "type": "INSTRUCTIONS", "trial_index": 1}, "uniqueid": "MTK3601:3VHP9MDGRORF70VIOWB9U39APYQCFH", "dateTime": 1520799540651}, {"current_trial": 2, "trialdata": {"rt": [47308, 62012], "trial_type": "audio-test", "responses": ["iocean", "ocean"], "internal_node_id": "0.0-2.0", "time_elapsed": 74726, "type": "AUDIO_TEST", "trial_index": 2}, "uniqueid": "MTK3601:3VHP9MDGRORF70VIOWB9U39APYQCFH", "dateTime": 1520799602683}, {"current_trial": 3, "trialdata": {"rt": [21304], "trial_type": "audio-test", "responses": ["crystal"], "internal_node_id": "0.0-3.0", "time_elapsed": 96039, "type": "AUDIO_TEST", "trial_index": 3}, "uniqueid": "MTK3601:3VHP9MDGRORF70VIOWB9U39APYQCFH", "dateTime": 1520799623995}, {"current_trial": 4, "trialdata": {"rt": [18441], "trial_type": "audio-test", "responses": ["spice"], "internal_node_id": "0.0-4.0", "time_elapsed": 114488, "type": "AUDIO_TEST", "trial_index": 4}, "uniqueid": "MTK3601:3VHP9MDGRORF70VIOWB9U39APYQCFH", "dateTime": 1520799642444}, {"current_trial": 5, "trialdata": {"rt": 30060, "trial_type": "survey-text", "responses": "{\"Q0\":\"11:00\",\"Q1\":\"4:00\",\"Q2\":\"4\"}", "internal_node_id": "0.0-5.0", "time_elapsed": 145304, "type": "SLEEP_SURVEY", "trial_index": 5}, "uniqueid": "MTK3601:3VHP9MDGRORF70VIOWB9U39APYQCFH", "dateTime": 1520799673260}, {"current_trial": 6, "trialdata": {"rt": 15590, "trial_type": "text", "internal_node_id": "0.0-6.0", "time_elapsed": 161896, "key_press": 13, "type": "INSTRUCTIONS", "trial_index": 6}, "uniqueid": "MTK3601:3VHP9MDGRORF70VIOWB9U39APYQCFH", "dateTime": 1520799689852}, {"current_trial": 7, "trialdata": {"rt": 13632, "trial_type": "text", "internal_node_id": "0.0-7.0", "time_elapsed": 176031, "key_press": 74, "type": "INSTRUCTIONS", "trial_index": 7}, "uniqueid": "MTK3601:3VHP9MDGRORF70VIOWB9U39APYQCFH", "dateTime": 1520799703987}, {"current_trial": 8, "trialdata": {"rt": 2241, "trial_type": "text", "internal_node_id": "0.0-8.0", "time_elapsed": 178773, "key_press": 74, "type": "INSTRUCTIONS", "trial_index": 8}, "uniqueid": "MTK3601:3VHP9MDGRORF70VIOWB9U39APYQCFH", "dateTime": 1520799706729}, {"current_trial": 9, "trialdata": {"rt": [8515, 11227, 13107, 14835], "trial_type": "math-distractor", "key_times": [3570, 3787, 5331, 7499, 8515, 10787, 11010, 11227, 12747, 12906, 13107, 14403, 14626, 14835, 16970], "responses": ["23", "10", "14", "10"], "num2": [7, 3, 4, 3, 4], "num3": [8, 2, 7, 1, 3], "conditions": [18, 1200, "v", 18000], "internal_node_id": "0.0-9.0", "key_presses": [98, 99, 186, 8, 13, 97, 96, 13, 97, 100, 13, 97, 96, 13, 97], "trial": 0, "time_elapsed": 197781, "type": "DISTRACTOR", "trial_index": 9, "num1": [4, 5, 3, 6, 9]}, "uniqueid": "MTK3601:3VHP9MDGRORF70VIOWB9U39APYQCFH", "dateTime": 1520799725737}, {"current_trial": 10, "trialdata": {"rt": -1, "trial_type": "single-stim", "stimulus": "<p id=\"stim\">10</p>", "internal_node_id": "0.0-10.0-0.0", "time_elapsed": 200785, "key_press": -1, "trial_index": 10}, "uniqueid": "MTK3601:3VHP9MDGRORF70VIOWB9U39APYQCFH", "dateTime": 1520799728741}, {"current_trial": 11, "trialdata": {"rt": -1, "trial_type": "single-stim", "stimulus": "<p id=\"stim\">9</p>", "internal_node_id": "0.0-10.0-1.0", "time_elapsed": 201788, "key_press": -1, "trial_index": 11}, "uniqueid": "MTK3601:3VHP9MDGRORF70VIOWB9U39APYQCFH", "dateTime": 1520799729744}, {"current_trial": 12, "trialdata": {"rt": -1, "trial_type": "single-stim", "stimulus": "<p id=\"stim\">8</p>", "internal_node_id": "0.0-10.0-2.0", "time_elapsed": 202791, "key_press": -1, "trial_index": 12}, "uniqueid": "MTK3601:3VHP9MDGRORF70VIOWB9U39APYQCFH", "dateTime": 1520799730747}, {"current_trial": 13, "trialdata": {"rt": -1, "trial_type": "single-stim", "stimulus": "<p id=\"stim\">7</p>", "internal_node_id": "0.0-10.0-3.0", "time_elapsed": 203793, "key_press": -1, "trial_index": 13}, "uniqueid": "MTK3601:3VHP9MDGRORF70VIOWB9U39APYQCFH", "dateTime": 1520799731749}, {"current_trial": 14, "trialdata": {"rt": -1, "trial_type": "single-stim", "stimulus": "<p id=\"stim\">6</p>", "internal_node_id": "0.0-10.0-4.0", "time_elapsed": 204795, "key_press": -1, "trial_index": 14}, "uniqueid": "MTK3601:3VHP9MDGRORF70VIOWB9U39APYQCFH", "dateTime": 1520799732751}, {"current_trial": 15, "trialdata": {"rt": -1, "trial_type": "single-stim", "stimulus": "<p id=\"stim\">5</p>", "internal_node_id": "0.0-10.0-5.0", "time_elapsed": 205796, "key_press": -1, "trial_index": 15}, "uniqueid": "MTK3601:3VHP9MDGRORF70VIOWB9U39APYQCFH", "dateTime": 1520799733753}, {"current_trial": 16, "trialdata": {"rt": -1, "trial_type": "single-stim", "stimulus": "<p id=\"stim\">4</p>", "internal_node_id": "0.0-10.0-6.0", "time_elapsed": 206798, "key_press": -1, "trial_index": 16}, "uniqueid": "MTK3601:3VHP9MDGRORF70VIOWB9U39APYQCFH", "dateTime": 1520799734754}, {"current_trial": 17, "trialdata": {"rt": -1, "trial_type": "single-stim", "stimulus": "<p id=\"stim\">3</p>", "internal_node_id": "0.0-10.0-7.0", "time_elapsed": 207800, "key_press": -1, "trial_index": 17}, "uniqueid": "MTK3601:3VHP9MDGRORF70VIOWB9U39APYQCFH", "dateTime": 1520799735756}, {"current_trial": 18, "trialdata": {"rt": -1, "trial_type": "single-stim", "stimulus": "<p id=\"stim\">2</p>", "internal_node_id": "0.0-10.0-8.0", "time_elapsed": 208805, "key_press": -1, "trial_index": 18}, "uniqueid": "MTK3601:3VHP9MDGRORF70VIOWB9U39APYQCFH", "dateTime": 1520799736761}, {"current_trial": 19, "trialdata": {"rt": -1, "trial_type": "single-stim", "stimulus": "<p id=\"stim\">1</p>", "internal_node_id": "0.0-10.0-9.0", "time_elapsed": 209806, "key_press": -1, "trial_index": 19}, "uniqueid": "MTK3601:3VHP9MDGRORF70VIOWB9U39APYQCFH", "dateTime": 1520799737763}, {"current_trial": 20, "trialdata": {"rt": -1, "trial_type": "single-stim", "stimulus": "<p id=\"stim\">+</p>", "internal_node_id": "0.0-11.0-0.0", "time_elapsed": 211308, "key_press": -1, "type": "FIXATION", "trial_index": 20}, "uniqueid": "MTK3601:3VHP9MDGRORF70VIOWB9U39APYQCFH", "dateTime": 1520799739264}, {"current_trial": 21, "trialdata": {"rt": -1, "trial_type": "single-stim", "word": "slide", "stimulus": "<p id=\"stim\">SLIDE</p>", "conditions": [18, 1200, "v", 18000], "internal_node_id": "0.0-12.0", "trial": 0, "time_elapsed": 212510, "serialpos": 0, "key_press": -1, "wordID": 1325, "type": "PRES_VIS", "trial_index": 21}, "uniqueid": "MTK3601:3VHP9MDGRORF70VIOWB9U39APYQCFH", "dateTime": 1520799740467}, {"current_trial": 22, "trialdata": {"rt": -1, "trial_type": "single-stim", "word": "denim", "stimulus": "<p id=\"stim\">DENIM</p>", "conditions": [18, 1200, "v", 18000], "internal_node_id": "0.0-13.0", "trial": 0, "time_elapsed": 214570, "serialpos": 1, "key_press": -1, "wordID": 445, "type": "PRES_VIS", "trial_index": 22}, "uniqueid": "MTK3601:3VHP9MDGRORF70VIOWB9U39APYQCFH", "dateTime": 1520799742526}, {"current_trial": 23, "trialdata": {"rt": -1, "trial_type": "single-stim", "word": "gift", "stimulus": "<p id=\"stim\">GIFT</p>", "conditions": [18, 1200, "v", 18000], "internal_node_id": "0.0-14.0", "trial": 0, "time_elapsed": 216826, "serialpos": 2, "key_press": -1, "wordID": 634, "type": "PRES_VIS", "trial_index": 23}, "uniqueid": "MTK3601:3VHP9MDGRORF70VIOWB9U39APYQCFH", "dateTime": 1520799744782}, {"current_trial": 24, "trialdata": {"rt": -1, "trial_type": "single-stim", "word": "queen", "stimulus": "<p id=\"stim\">QUEEN</p>", "conditions": [18, 1200, "v", 18000], "internal_node_id": "0.0-15.0", "trial": 0, "time_elapsed": 218940, "serialpos": 3, "key_press": -1, "wordID": 1148, "type": "PRES_VIS", "trial_index": 24}, "uniqueid": "MTK3601:3VHP9MDGRORF70VIOWB9U39APYQCFH", "dateTime": 1520799746896}, {"current_trial": 25, "trialdata": {"rt": -1, "trial_type": "single-stim", "word": "waiter", "stimulus": "<p id=\"stim\">WAITER</p>", "conditions": [18, 1200, "v", 18000], "internal_node_id": "0.0-16.0", "trial": 0, "time_elapsed": 221299, "serialpos": 4, "key_press": -1, "wordID": 1579, "type": "PRES_VIS", "trial_index": 25}, "uniqueid": "MTK3601:3VHP9MDGRORF70VIOWB9U39APYQCFH", "dateTime": 1520799749256}, {"current_trial": 26, "trialdata": {"rt": -1, "trial_type": "single-stim", "word": "turnip", "stimulus": "<p id=\"stim\">TURNIP</p>", "conditions": [18, 1200, "v", 18000], "internal_node_id": "0.0-17.0", "trial": 0, "time_elapsed": 223600, "serialpos": 5, "key_press": -1, "wordID": 1520, "type": "PRES_VIS", "trial_index": 26}, "uniqueid": "MTK3601:3VHP9MDGRORF70VIOWB9U39APYQCFH", "dateTime": 1520799751557}, {"current_trial": 27, "trialdata": {"rt": -1, "trial_type": "single-stim", "word": "mailbox", "stimulus": "<p id=\"stim\">MAILBOX</p>", "conditions": [18, 1200, "v", 18000], "internal_node_id": "0.0-18.0", "trial": 0, "time_elapsed": 225728, "serialpos": 6, "key_press": -1, "wordID": 856, "type": "PRES_VIS", "trial_index": 27}, "uniqueid": "MTK3601:3VHP9MDGRORF70VIOWB9U39APYQCFH", "dateTime": 1520799753684}, {"current_trial": 28, "trialdata": {"rt": -1, "trial_type": "single-stim", "word": "stallion", "stimulus": "<p id=\"stim\">STALLION</p>", "conditions": [18, 1200, "v", 18000], "internal_node_id": "0.0-19.0", "trial": 0, "time_elapsed": 228034, "serialpos": 7, "key_press": -1, "wordID": 1368, "type": "PRES_VIS", "trial_index": 28}, "uniqueid": "MTK3601:3VHP9MDGRORF70VIOWB9U39APYQCFH", "dateTime": 1520799755990}, {"current_trial": 29, "trialdata": {"rt": -1, "trial_type": "single-stim", "word": "liver", "stimulus": "<p id=\"stim\">LIVER</p>", "conditions": [18, 1200, "v", 18000], "internal_node_id": "0.0-20.0", "trial": 0, "time_elapsed": 230351, "serialpos": 8, "key_press": -1, "wordID": 832, "type": "PRES_VIS", "trial_index": 29}, "uniqueid": "MTK3601:3VHP9MDGRORF70VIOWB9U39APYQCFH", "dateTime": 1520799758307}, {"current_trial": 30, "trialdata": {"rt": -1, "trial_type": "single-stim", "word": "report", "stimulus": "<p id=\"stim\">REPORT</p>", "conditions": [18, 1200, "v", 18000], "internal_node_id": "0.0-21.0", "trial": 0, "time_elapsed": 232640, "serialpos": 9, "key_press": -1, "wordID": 1183, "type": "PRES_VIS", "trial_index": 30}, "uniqueid": "MTK3601:3VHP9MDGRORF70VIOWB9U39APYQCFH", "dateTime": 1520799760596}, {"current_trial": 31, "trialdata": {"rt": -1, "trial_type": "single-stim", "word": "carriage", "stimulus": "<p id=\"stim\">CARRIAGE</p>", "conditions": [18, 1200, "v", 18000], "internal_node_id": "0.0-22.0", "trial": 0, "time_elapsed": 234809, "serialpos": 10, "key_press": -1, "wordID": 247, "type": "PRES_VIS", "trial_index": 31}, "uniqueid": "MTK3601:3VHP9MDGRORF70VIOWB9U39APYQCFH", "dateTime": 1520799762765}, {"current_trial": 32, "trialdata": {"rt": -1, "trial_type": "single-stim", "word": "headband", "stimulus": "<p id=\"stim\">HEADBAND</p>", "conditions": [18, 1200, "v", 18000], "internal_node_id": "0.0-23.0", "trial": 0, "time_elapsed": 237166, "serialpos": 11, "key_press": -1, "wordID": 695, "type": "PRES_VIS", "trial_index": 32}, "uniqueid": "MTK3601:3VHP9MDGRORF70VIOWB9U39APYQCFH", "dateTime": 1520799765124}, {"current_trial": 33, "trialdata": {"rt": -1, "trial_type": "single-stim", "word": "cellar", "stimulus": "<p id=\"stim\">CELLAR</p>", "conditions": [18, 1200, "v", 18000], "internal_node_id": "0.0-24.0", "trial": 0, "time_elapsed": 239238, "serialpos": 12, "key_press": -1, "wordID": 266, "type": "PRES_VIS", "trial_index": 33}, "uniqueid": "MTK3601:3VHP9MDGRORF70VIOWB9U39APYQCFH", "dateTime": 1520799767194}, {"current_trial": 34, "trialdata": {"rt": -1, "trial_type": "single-stim", "word": "rug", "stimulus": "<p id=\"stim\">RUG</p>", "conditions": [18, 1200, "v", 18000], "internal_node_id": "0.0-25.0", "trial": 0, "time_elapsed": 241590, "serialpos": 13, "key_press": -1, "wordID": 1214, "type": "PRES_VIS", "trial_index": 34}, "uniqueid": "MTK3601:3VHP9MDGRORF70VIOWB9U39APYQCFH", "dateTime": 1520799769546}, {"current_trial": 35, "trialdata": {"rt": -1, "trial_type": "single-stim", "word": "spider", "stimulus": "<p id=\"stim\">SPIDER</p>", "conditions": [18, 1200, "v", 18000], "internal_node_id": "0.0-26.0", "trial": 0, "time_elapsed": 243884, "serialpos": 14, "key_press": -1, "wordID": 1350, "type": "PRES_VIS", "trial_index": 35}, "uniqueid": "MTK3601:3VHP9MDGRORF70VIOWB9U39APYQCFH", "dateTime": 1520799771840}, {"current_trial": 36, "trialdata": {"rt": -1, "trial_type": "single-stim", "word": "crutch", "stimulus": "<p id=\"stim\">CRUTCH</p>", "conditions": [18, 1200, "v", 18000], "internal_node_id": "0.0-27.0", "trial": 0, "time_elapsed": 246161, "serialpos": 15, "key_press": -1, "wordID": 416, "type": "PRES_VIS", "trial_index": 36}, "uniqueid": "MTK3601:3VHP9MDGRORF70VIOWB9U39APYQCFH", "dateTime": 1520799774117}, {"current_trial": 37, "trialdata": {"rt": -1, "trial_type": "single-stim", "word": "poet", "stimulus": "<p id=\"stim\">POET</p>", "conditions": [18, 1200, "v", 18000], "internal_node_id": "0.0-28.0", "trial": 0, "time_elapsed": 248305, "serialpos": 16, "key_press": -1, "wordID": 1094, "type": "PRES_VIS", "trial_index": 37}, "uniqueid": "MTK3601:3VHP9MDGRORF70VIOWB9U39APYQCFH", "dateTime": 1520799776262}, {"current_trial": 38, "trialdata": {"rt": -1, "trial_type": "single-stim", "word": "pluto", "stimulus": "<p id=\"stim\">PLUTO</p>", "conditions": [18, 1200, "v", 18000], "internal_node_id": "0.0-29.0", "trial": 0, "time_elapsed": 250429, "serialpos": 17, "key_press": -1, "wordID": 1091, "type": "PRES_VIS", "trial_index": 38}, "uniqueid": "MTK3601:3VHP9MDGRORF70VIOWB9U39APYQCFH", "dateTime": 1520799778386}, {"current_trial": 39, "trialdata": {"rt": -1, "trial_type": "single-stim", "stimulus": "", "internal_node_id": "0.0-30.0-0.0", "time_elapsed": 252785, "key_press": -1, "type": "PRE_RECALL_DELAY", "trial_index": 39}, "uniqueid": "MTK3601:3VHP9MDGRORF70VIOWB9U39APYQCFH", "dateTime": 1520799780741}, {"current_trial": 40, "trialdata": {"rt": -1000, "trial_type": "single-audio", "stimulus": "/static/audio/400Hz.wav", "internal_node_id": "0.0-31.0", "time_elapsed": 253289, "key_press": -1, "type": "PRE_RECALL_ALERT", "trial_index": 40}, "uniqueid": "MTK3601:3VHP9MDGRORF70VIOWB9U39APYQCFH", "dateTime": 1520799781245}, {"current_trial": 41, "trialdata": {"rt": [7345, 11202, 15001, 19962, 23881, 28185, 34505, 38530, 43010, 46794, 56298], "recwords": ["slider", "gift", "queen", "waiter", "turnip", "mailbox", "stallion", "liver", "headband", "cellar", "rug'spider"], "key_times": [5858, 6001, 6290, 6657, 6762, 6962, 7345, 10049, 10305, 10689, 10922, 11202, 13361, 13737, 14065, 14209, 14457, 15001, 17186, 17482, 17785, 18866, 19178, 19298, 19962, 21897, 22097, 22761, 23042, 23242, 23513, 23881, 25857, 26137, 26338, 26586, 27178, 27330, 27745, 28185, 29930, 30305, 30674, 31314, 31482, 31737, 31881, 32370, 34505, 37033, 37362, 37802, 37947, 38130, 38530, 40410, 40666, 41322, 41530, 41881, 42049, 42210, 42426, 43010, 45337, 45489, 45761, 45929, 46162, 46457, 46794, 50714, 51041, 51826, 52330, 54546, 54625, 55218, 55474, 55570, 55754, 56298], "trial_type": "free-recall", "conditions": [18, 1200, "v", 18000], "internal_node_id": "0.0-32.0-0.0", "key_presses": [83, 76, 73, 68, 69, 82, 13, 71, 73, 70, 84, 13, 81, 85, 69, 69, 78, 13, 87, 65, 73, 84, 69, 82, 13, 84, 85, 82, 78, 73, 80, 13, 77, 65, 73, 76, 66, 79, 88, 13, 83, 84, 65, 76, 76, 73, 79, 78, 13, 76, 73, 86, 69, 82, 13, 72, 69, 65, 68, 66, 65, 78, 68, 13, 67, 69, 76, 76, 65, 82, 13, 82, 85, 71, 222, 83, 80, 73, 68, 69, 82, 13], "trial": 0, "time_elapsed": 313293, "type": "FREE_RECALL", "trial_index": 41}, "uniqueid": "MTK3601:3VHP9MDGRORF70VIOWB9U39APYQCFH", "dateTime": 1520799841253}, {"current_trial": 42, "trialdata": {"rt": 12266, "trial_type": "text", "internal_node_id": "0.0-33.0", "time_elapsed": 327565, "key_press": 186, "type": "INSTRUCTIONS", "trial_index": 42}, "uniqueid": "MTK3601:3VHP9MDGRORF70VIOWB9U39APYQCFH", "dateTime": 1520799855521}, {"current_trial": 43, "trialdata": {"rt": [4660, 6772, 8861, 11461, 13814, 15365, 17020], "trial_type": "math-distractor", "key_times": [1708, 1964, 4660, 6325, 6485, 6772, 8477, 8622, 8861, 10829, 11236, 11461, 13340, 13557, 13814, 15133, 15365, 16517, 16717, 17020], "responses": ["16", "18", "15", "13", "16", "6", "14"], "num2": [7, 8, 5, 2, 5, 2, 6, 6], "num3": [2, 9, 3, 4, 3, 1, 2, 4], "conditions": [18, 1200, "v", 18000], "internal_node_id": "0.0-34.0", "key_presses": [97, 102, 13, 97, 104, 13, 97, 101, 13, 97, 99, 13, 97, 102, 13, 102, 13, 97, 100, 13], "trial": 1, "time_elapsed": 347571, "type": "DISTRACTOR", "trial_index": 43, "num1": [7, 1, 7, 7, 8, 3, 6, 6]}, "uniqueid": "MTK3601:3VHP9MDGRORF70VIOWB9U39APYQCFH", "dateTime": 1520799875527}, {"current_trial": 44, "trialdata": {"rt": -1, "trial_type": "single-stim", "stimulus": "<p id=\"stim\">10</p>", "internal_node_id": "0.0-35.0-0.0", "time_elapsed": 350573, "key_press": -1, "trial_index": 44}, "uniqueid": "MTK3601:3VHP9MDGRORF70VIOWB9U39APYQCFH", "dateTime": 1520799878529}, {"current_trial": 45, "trialdata": {"rt": -1, "trial_type": "single-stim", "stimulus": "<p id=\"stim\">9</p>", "internal_node_id": "0.0-35.0-1.0", "time_elapsed": 351575, "key_press": -1, "trial_index": 45}, "uniqueid": "MTK3601:3VHP9MDGRORF70VIOWB9U39APYQCFH", "dateTime": 1520799879531}, {"current_trial": 46, "trialdata": {"rt": -1, "trial_type": "single-stim", "stimulus": "<p id=\"stim\">8</p>", "internal_node_id": "0.0-35.0-2.0", "time_elapsed": 352577, "key_press": -1, "trial_index": 46}, "uniqueid": "MTK3601:3VHP9MDGRORF70VIOWB9U39APYQCFH", "dateTime": 1520799880533}, {"current_trial": 47, "trialdata": {"rt": -1, "trial_type": "single-stim", "stimulus": "<p id=\"stim\">7</p>", "internal_node_id": "0.0-35.0-3.0", "time_elapsed": 353579, "key_press": -1, "trial_index": 47}, "uniqueid": "MTK3601:3VHP9MDGRORF70VIOWB9U39APYQCFH", "dateTime": 1520799881535}, {"current_trial": 48, "trialdata": {"rt": -1, "trial_type": "single-stim", "stimulus": "<p id=\"stim\">6</p>", "internal_node_id": "0.0-35.0-4.0", "time_elapsed": 354581, "key_press": -1, "trial_index": 48}, "uniqueid": "MTK3601:3VHP9MDGRORF70VIOWB9U39APYQCFH", "dateTime": 1520799882537}, {"current_trial": 49, "trialdata": {"rt": -1, "trial_type": "single-stim", "stimulus": "<p id=\"stim\">5</p>", "internal_node_id": "0.0-35.0-5.0", "time_elapsed": 355582, "key_press": -1, "trial_index": 49}, "uniqueid": "MTK3601:3VHP9MDGRORF70VIOWB9U39APYQCFH", "dateTime": 1520799883538}, {"current_trial": 50, "trialdata": {"rt": -1, "trial_type": "single-stim", "stimulus": "<p id=\"stim\">4</p>", "internal_node_id": "0.0-35.0-6.0", "time_elapsed": 356584, "key_press": -1, "trial_index": 50}, "uniqueid": "MTK3601:3VHP9MDGRORF70VIOWB9U39APYQCFH", "dateTime": 1520799884541}, {"current_trial": 51, "trialdata": {"rt": -1, "trial_type": "single-stim", "stimulus": "<p id=\"stim\">3</p>", "internal_node_id": "0.0-35.0-7.0", "time_elapsed": 357587, "key_press": -1, "trial_index": 51}, "uniqueid": "MTK3601:3VHP9MDGRORF70VIOWB9U39APYQCFH", "dateTime": 1520799885543}, {"current_trial": 52, "trialdata": {"rt": -1, "trial_type": "single-stim", "stimulus": "<p id=\"stim\">2</p>", "internal_node_id": "0.0-35.0-8.0", "time_elapsed": 358589, "key_press": -1, "trial_index": 52}, "uniqueid": "MTK3601:3VHP9MDGRORF70VIOWB9U39APYQCFH", "dateTime": 1520799886545}, {"current_trial": 53, "trialdata": {"rt": -1, "trial_type": "single-stim", "stimulus": "<p id=\"stim\">1</p>", "internal_node_id": "0.0-35.0-9.0", "time_elapsed": 359591, "key_press": -1, "trial_index": 53}, "uniqueid": "MTK3601:3VHP9MDGRORF70VIOWB9U39APYQCFH", "dateTime": 1520799887547}, {"current_trial": 54, "trialdata": {"rt": -1, "trial_type": "single-stim", "stimulus": "<p id=\"stim\">+</p>", "internal_node_id": "0.0-36.0-0.0", "time_elapsed": 361092, "key_press": -1, "type": "FIXATION", "trial_index": 54}, "uniqueid": "MTK3601:3VHP9MDGRORF70VIOWB9U39APYQCFH", "dateTime": 1520799889048}, {"current_trial": 55, "trialdata": {"rt": -1, "trial_type": "single-stim", "word": "teacher", "stimulus": "<p id=\"stim\">TEACHER</p>", "conditions": [18, 1200, "v", 18000], "internal_node_id": "0.0-37.0", "trial": 1, "time_elapsed": 362294, "serialpos": 0, "key_press": -1, "wordID": 1439, "type": "PRES_VIS", "trial_index": 55}, "uniqueid": "MTK3601:3VHP9MDGRORF70VIOWB9U39APYQCFH", "dateTime": 1520799890250}, {"current_trial": 56, "trialdata": {"rt": -1, "trial_type": "single-stim", "word": "staple", "stimulus": "<p id=\"stim\">STAPLE</p>", "conditions": [18, 1200, "v", 18000], "internal_node_id": "0.0-38.0", "trial": 1, "time_elapsed": 364379, "serialpos": 1, "key_press": -1, "wordID": 1370, "type": "PRES_VIS", "trial_index": 56}, "uniqueid": "MTK3601:3VHP9MDGRORF70VIOWB9U39APYQCFH", "dateTime": 1520799892336}, {"current_trial": 57, "trialdata": {"rt": -1, "trial_type": "single-stim", "word": "hero", "stimulus": "<p id=\"stim\">HERO</p>", "conditions": [18, 1200, "v", 18000], "internal_node_id": "0.0-39.0", "trial": 1, "time_elapsed": 366395, "serialpos": 2, "key_press": -1, "wordID": 705, "type": "PRES_VIS", "trial_index": 57}, "uniqueid": "MTK3601:3VHP9MDGRORF70VIOWB9U39APYQCFH", "dateTime": 1520799894352}, {"current_trial": 58, "trialdata": {"rt": -1, "trial_type": "single-stim", "word": "pimple", "stimulus": "<p id=\"stim\">PIMPLE</p>", "conditions": [18, 1200, "v", 18000], "internal_node_id": "0.0-40.0", "trial": 1, "time_elapsed": 368627, "serialpos": 3, "key_press": -1, "wordID": 1070, "type": "PRES_VIS", "trial_index": 58}, "uniqueid": "MTK3601:3VHP9MDGRORF70VIOWB9U39APYQCFH", "dateTime": 1520799896583}, {"current_trial": 59, "trialdata": {"rt": -1, "trial_type": "single-stim", "word": "gangster", "stimulus": "<p id=\"stim\">GANGSTER</p>", "conditions": [18, 1200, "v", 18000], "internal_node_id": "0.0-41.0", "trial": 1, "time_elapsed": 370688, "serialpos": 4, "key_press": -1, "wordID": 619, "type": "PRES_VIS", "trial_index": 59}, "uniqueid": "MTK3601:3VHP9MDGRORF70VIOWB9U39APYQCFH", "dateTime": 1520799898644}, {"current_trial": 60, "trialdata": {"rt": -1, "trial_type": "single-stim", "word": "outlaw", "stimulus": "<p id=\"stim\">OUTLAW</p>", "conditions": [18, 1200, "v", 18000], "internal_node_id": "0.0-42.0", "trial": 1, "time_elapsed": 372788, "serialpos": 5, "key_press": -1, "wordID": 988, "type": "PRES_VIS", "trial_index": 60}, "uniqueid": "MTK3601:3VHP9MDGRORF70VIOWB9U39APYQCFH", "dateTime": 1520799900744}, {"current_trial": 61, "trialdata": {"rt": -1, "trial_type": "single-stim", "word": "stove", "stimulus": "<p id=\"stim\">STOVE</p>", "conditions": [18, 1200, "v", 18000], "internal_node_id": "0.0-43.0", "trial": 1, "time_elapsed": 375123, "serialpos": 6, "key_press": -1, "wordID": 1387, "type": "PRES_VIS", "trial_index": 61}, "uniqueid": "MTK3601:3VHP9MDGRORF70VIOWB9U39APYQCFH", "dateTime": 1520799903079}, {"current_trial": 62, "trialdata": {"rt": -1, "trial_type": "single-stim", "word": "fragrance", "stimulus": "<p id=\"stim\">FRAGRANCE</p>", "conditions": [18, 1200, "v", 18000], "internal_node_id": "0.0-44.0", "trial": 1, "time_elapsed": 377400, "serialpos": 7, "key_press": -1, "wordID": 598, "type": "PRES_VIS", "trial_index": 62}, "uniqueid": "MTK3601:3VHP9MDGRORF70VIOWB9U39APYQCFH", "dateTime": 1520799905356}, {"current_trial": 63, "trialdata": {"rt": -1, "trial_type": "single-stim", "word": "beast", "stimulus": "<p id=\"stim\">BEAST</p>", "conditions": [18, 1200, "v", 18000], "internal_node_id": "0.0-45.0", "trial": 1, "time_elapsed": 379552, "serialpos": 8, "key_press": -1, "wordID": 107, "type": "PRES_VIS", "trial_index": 63}, "uniqueid": "MTK3601:3VHP9MDGRORF70VIOWB9U39APYQCFH", "dateTime": 1520799907508}, {"current_trial": 64, "trialdata": {"rt": -1, "trial_type": "single-stim", "word": "lettuce", "stimulus": "<p id=\"stim\">LETTUCE</p>", "conditions": [18, 1200, "v", 18000], "internal_node_id": "0.0-46.0", "trial": 1, "time_elapsed": 381930, "serialpos": 9, "key_press": -1, "wordID": 813, "type": "PRES_VIS", "trial_index": 64}, "uniqueid": "MTK3601:3VHP9MDGRORF70VIOWB9U39APYQCFH", "dateTime": 1520799909886}, {"current_trial": 65, "trialdata": {"rt": -1, "trial_type": "single-stim", "word": "shirt", "stimulus": "<p id=\"stim\">SHIRT</p>", "conditions": [18, 1200, "v", 18000], "internal_node_id": "0.0-47.0", "trial": 1, "time_elapsed": 384240, "serialpos": 10, "key_press": -1, "wordID": 1286, "type": "PRES_VIS", "trial_index": 65}, "uniqueid": "MTK3601:3VHP9MDGRORF70VIOWB9U39APYQCFH", "dateTime": 1520799912196}, {"current_trial": 66, "trialdata": {"rt": -1, "trial_type": "single-stim", "word": "neutron", "stimulus": "<p id=\"stim\">NEUTRON</p>", "conditions": [18, 1200, "v", 18000], "internal_node_id": "0.0-48.0", "trial": 1, "time_elapsed": 386300, "serialpos": 11, "key_press": -1, "wordID": 946, "type": "PRES_VIS", "trial_index": 66}, "uniqueid": "MTK3601:3VHP9MDGRORF70VIOWB9U39APYQCFH", "dateTime": 1520799914256}, {"current_trial": 67, "trialdata": {"rt": -1, "trial_type": "single-stim", "word": "survey", "stimulus": "<p id=\"stim\">SURVEY</p>", "conditions": [18, 1200, "v", 18000], "internal_node_id": "0.0-49.0", "trial": 1, "time_elapsed": 388606, "serialpos": 12, "key_press": -1, "wordID": 1413, "type": "PRES_VIS", "trial_index": 67}, "uniqueid": "MTK3601:3VHP9MDGRORF70VIOWB9U39APYQCFH", "dateTime": 1520799916562}, {"current_trial": 68, "trialdata": {"rt": -1, "trial_type": "single-stim", "word": "toaster", "stimulus": "<p id=\"stim\">TOASTER</p>", "conditions": [18, 1200, "v", 18000], "internal_node_id": "0.0-50.0", "trial": 1, "time_elapsed": 390631, "serialpos": 13, "key_press": -1, "wordID": 1471, "type": "PRES_VIS", "trial_index": 68}, "uniqueid": "MTK3601:3VHP9MDGRORF70VIOWB9U39APYQCFH", "dateTime": 1520799918591}, {"current_trial": 69, "trialdata": {"rt": -1, "trial_type": "single-stim", "word": "husband", "stimulus": "<p id=\"stim\">HUSBAND</p>", "conditions": [18, 1200, "v", 18000], "internal_node_id": "0.0-51.0", "trial": 1, "time_elapsed": 392808, "serialpos": 14, "key_press": -1, "wordID": 727, "type": "PRES_VIS", "trial_index": 69}, "uniqueid": "MTK3601:3VHP9MDGRORF70VIOWB9U39APYQCFH", "dateTime": 1520799920764}, {"current_trial": 70, "trialdata": {"rt": -1, "trial_type": "single-stim", "word": "pasta", "stimulus": "<p id=\"stim\">PASTA</p>", "conditions": [18, 1200, "v", 18000], "internal_node_id": "0.0-52.0", "trial": 1, "time_elapsed": 394887, "serialpos": 15, "key_press": -1, "wordID": 1020, "type": "PRES_VIS", "trial_index": 70}, "uniqueid": "MTK3601:3VHP9MDGRORF70VIOWB9U39APYQCFH", "dateTime": 1520799922843}, {"current_trial": 71, "trialdata": {"rt": -1, "trial_type": "single-stim", "word": "climber", "stimulus": "<p id=\"stim\">CLIMBER</p>", "conditions": [18, 1200, "v", 18000], "internal_node_id": "0.0-53.0", "trial": 1, "time_elapsed": 397066, "serialpos": 16, "key_press": -1, "wordID": 322, "type": "PRES_VIS", "trial_index": 71}, "uniqueid": "MTK3601:3VHP9MDGRORF70VIOWB9U39APYQCFH", "dateTime": 1520799925023}, {"current_trial": 72, "trialdata": {"rt": -1, "trial_type": "single-stim", "word": "gavel", "stimulus": "<p id=\"stim\">GAVEL</p>", "conditions": [18, 1200, "v", 18000], "internal_node_id": "0.0-54.0", "trial": 1, "time_elapsed": 399075, "serialpos": 17, "key_press": -1, "wordID": 626, "type": "PRES_VIS", "trial_index": 72}, "uniqueid": "MTK3601:3VHP9MDGRORF70VIOWB9U39APYQCFH", "dateTime": 1520799927031}, {"current_trial": 73, "trialdata": {"rt": -1, "trial_type": "single-stim", "stimulus": "", "internal_node_id": "0.0-55.0-0.0", "time_elapsed": 401171, "key_press": -1, "type": "PRE_RECALL_DELAY", "trial_index": 73}, "uniqueid": "MTK3601:3VHP9MDGRORF70VIOWB9U39APYQCFH", "dateTime": 1520799929127}, {"current_trial": 74, "trialdata": {"rt": -1000, "trial_type": "single-audio", "stimulus": "/static/audio/400Hz.wav", "internal_node_id": "0.0-56.0", "time_elapsed": 401673, "key_press": -1, "type": "PRE_RECALL_ALERT", "trial_index": 74}, "uniqueid": "MTK3601:3VHP9MDGRORF70VIOWB9U39APYQCFH", "dateTime": 1520799929629}, {"current_trial": 75, "trialdata": {"rt": [6225, 9594, 12962, 16250, 21794, 25755, 28498, 34866, 38218, 43618, 47106, 50394, 52290], "recwords": ["teacher", "staple", "hero", "pimple", "fragrance", "stove", "shirt", "neutron", "survey", "toaster", "husband", "pasta", ""], "key_times": [3058, 3185, 3513, 4049, 4162, 4474, 4577, 6225, 6913, 7321, 7650, 8049, 8233, 8553, 9594, 11258, 11627, 11739, 12082, 12962, 14259, 14466, 14746, 15283, 15378, 15612, 16250, 18946, 19098, 19794, 20162, 20305, 20642, 20810, 21074, 21194, 21794, 22786, 23202, 23474, 23738, 24186, 25755, 26722, 27106, 27531, 27866, 28051, 28498, 29795, 30274, 30578, 30970, 31106, 31386, 31636, 32778, 33010, 34138, 34418, 34866, 36099, 36522, 36802, 37098, 37346, 37628, 38218, 40018, 40250, 41338, 41746, 41987, 42290, 42634, 42858, 42995, 43618, 45018, 45258, 45666, 45995, 46123, 46314, 46490, 47106, 48698, 48866, 49129, 49482, 49858, 50394, 52290], "trial_type": "free-recall", "conditions": [18, 1200, "v", 18000], "internal_node_id": "0.0-57.0-0.0", "key_presses": [84, 69, 65, 67, 72, 69, 82, 13, 83, 84, 65, 80, 76, 69, 13, 72, 69, 82, 79, 13, 80, 73, 77, 80, 76, 69, 13, 70, 82, 65, 71, 82, 65, 78, 67, 69, 13, 83, 84, 79, 86, 69, 13, 83, 72, 73, 82, 84, 13, 78, 69, 85, 84, 82, 79, 77, 8, 66, 8, 78, 13, 83, 85, 82, 86, 69, 89, 13, 84, 65, 8, 79, 65, 83, 84, 69, 82, 13, 72, 85, 83, 66, 65, 78, 68, 13, 80, 65, 83, 84, 65, 13, 13], "trial": 1, "time_elapsed": 461679, "type": "FREE_RECALL", "trial_index": 75}, "uniqueid": "MTK3601:3VHP9MDGRORF70VIOWB9U39APYQCFH", "dateTime": 1520799989637}, {"current_trial": 76, "trialdata": {"rt": 4698, "trial_type": "text", "internal_node_id": "0.0-58.0", "time_elapsed": 468381, "key_press": 46, "type": "INSTRUCTIONS", "trial_index": 76}, "uniqueid": "MTK3601:3VHP9MDGRORF70VIOWB9U39APYQCFH", "dateTime": 1520799996338}, {"current_trial": 77, "trialdata": {"rt": [3171, 5083, 7171, 8995, 10971, 12819, 14916, 17108, 18723, 20613, 22314, 23996], "trial_type": "math-distractor", "key_times": [1403, 1971, 3171, 4755, 5083, 6700, 6906, 7171, 8459, 8746, 8995, 10443, 10754, 10971, 12315, 12571, 12819, 14099, 14723, 14916, 16634, 16851, 17108, 18275, 18483, 18723, 20211, 20427, 20613, 21826, 22051, 22314, 23546, 23771, 23996], "responses": ["10", "6", "14", "16", "19", "17", "10", "15", "14", "21", "18", "11"], "num2": [6, 1, 7, 7, 6, 6, 1, 2, 6, 8, 4, 3, 2], "num3": [3, 3, 4, 2, 8, 3, 5, 6, 7, 6, 8, 4, 4], "conditions": [12, 800, "v", 24000], "internal_node_id": "0.0-59.0", "key_presses": [97, 96, 13, 102, 13, 97, 100, 13, 97, 102, 13, 97, 105, 13, 97, 103, 13, 97, 96, 13, 97, 101, 13, 97, 100, 13, 98, 97, 13, 97, 104, 13, 97, 97, 13], "trial": 2, "time_elapsed": 493387, "type": "DISTRACTOR", "trial_index": 77, "num1": [1, 2, 3, 8, 5, 8, 4, 7, 1, 7, 6, 4, 6]}, "uniqueid": "MTK3601:3VHP9MDGRORF70VIOWB9U39APYQCFH", "dateTime": 1520800021344}, {"current_trial": 78, "trialdata": {"rt": -1, "trial_type": "single-stim", "stimulus": "<p id=\"stim\">10</p>", "internal_node_id": "0.0-60.0-0.0", "time_elapsed": 496391, "key_press": -1, "trial_index": 78}, "uniqueid": "MTK3601:3VHP9MDGRORF70VIOWB9U39APYQCFH", "dateTime": 1520800024347}, {"current_trial": 79, "trialdata": {"rt": -1, "trial_type": "single-stim", "stimulus": "<p id=\"stim\">9</p>", "internal_node_id": "0.0-60.0-1.0", "time_elapsed": 497394, "key_press": -1, "trial_index": 79}, "uniqueid": "MTK3601:3VHP9MDGRORF70VIOWB9U39APYQCFH", "dateTime": 1520800025350}, {"current_trial": 80, "trialdata": {"rt": -1, "trial_type": "single-stim", "stimulus": "<p id=\"stim\">8</p>", "internal_node_id": "0.0-60.0-2.0", "time_elapsed": 498396, "key_press": -1, "trial_index": 80}, "uniqueid": "MTK3601:3VHP9MDGRORF70VIOWB9U39APYQCFH", "dateTime": 1520800026352}, {"current_trial": 81, "trialdata": {"rt": -1, "trial_type": "single-stim", "stimulus": "<p id=\"stim\">7</p>", "internal_node_id": "0.0-60.0-3.0", "time_elapsed": 499397, "key_press": -1, "trial_index": 81}, "uniqueid": "MTK3601:3VHP9MDGRORF70VIOWB9U39APYQCFH", "dateTime": 1520800027354}, {"current_trial": 82, "trialdata": {"rt": -1, "trial_type": "single-stim", "stimulus": "<p id=\"stim\">6</p>", "internal_node_id": "0.0-60.0-4.0", "time_elapsed": 500399, "key_press": -1, "trial_index": 82}, "uniqueid": "MTK3601:3VHP9MDGRORF70VIOWB9U39APYQCFH", "dateTime": 1520800028357}, {"current_trial": 83, "trialdata": {"rt": -1, "trial_type": "single-stim", "stimulus": "<p id=\"stim\">5</p>", "internal_node_id": "0.0-60.0-5.0", "time_elapsed": 501402, "key_press": -1, "trial_index": 83}, "uniqueid": "MTK3601:3VHP9MDGRORF70VIOWB9U39APYQCFH", "dateTime": 1520800029358}, {"current_trial": 84, "trialdata": {"rt": -1, "trial_type": "single-stim", "stimulus": "<p id=\"stim\">4</p>", "internal_node_id": "0.0-60.0-6.0", "time_elapsed": 502405, "key_press": -1, "trial_index": 84}, "uniqueid": "MTK3601:3VHP9MDGRORF70VIOWB9U39APYQCFH", "dateTime": 1520800030361}, {"current_trial": 85, "trialdata": {"rt": -1, "trial_type": "single-stim", "stimulus": "<p id=\"stim\">3</p>", "internal_node_id": "0.0-60.0-7.0", "time_elapsed": 503406, "key_press": -1, "trial_index": 85}, "uniqueid": "MTK3601:3VHP9MDGRORF70VIOWB9U39APYQCFH", "dateTime": 1520800031362}, {"current_trial": 86, "trialdata": {"rt": -1, "trial_type": "single-stim", "stimulus": "<p id=\"stim\">2</p>", "internal_node_id": "0.0-60.0-8.0", "time_elapsed": 504407, "key_press": -1, "trial_index": 86}, "uniqueid": "MTK3601:3VHP9MDGRORF70VIOWB9U39APYQCFH", "dateTime": 1520800032363}, {"current_trial": 87, "trialdata": {"rt": -1, "trial_type": "single-stim", "stimulus": "<p id=\"stim\">1</p>", "internal_node_id": "0.0-60.0-9.0", "time_elapsed": 505409, "key_press": -1, "trial_index": 87}, "uniqueid": "MTK3601:3VHP9MDGRORF70VIOWB9U39APYQCFH", "dateTime": 1520800033365}, {"current_trial": 88, "trialdata": {"rt": -1, "trial_type": "single-stim", "stimulus": "<p id=\"stim\">+</p>", "internal_node_id": "0.0-61.0-0.0", "time_elapsed": 506912, "key_press": -1, "type": "FIXATION", "trial_index": 88}, "uniqueid": "MTK3601:3VHP9MDGRORF70VIOWB9U39APYQCFH", "dateTime": 1520800034868}, {"current_trial": 89, "trialdata": {"rt": -1, "trial_type": "single-stim", "word": "coffee", "stimulus": "<p id=\"stim\">COFFEE</p>", "conditions": [12, 800, "v", 24000], "internal_node_id": "0.0-62.0", "trial": 2, "time_elapsed": 507713, "serialpos": 0, "key_press": -1, "wordID": 340, "type": "PRES_VIS", "trial_index": 89}, "uniqueid": "MTK3601:3VHP9MDGRORF70VIOWB9U39APYQCFH", "dateTime": 1520800035670}, {"current_trial": 90, "trialdata": {"rt": -1, "trial_type": "single-stim", "word": "tombstone", "stimulus": "<p id=\"stim\">TOMBSTONE</p>", "conditions": [12, 800, "v", 24000], "internal_node_id": "0.0-63.0", "trial": 2, "time_elapsed": 509656, "serialpos": 1, "key_press": -1, "wordID": 1477, "type": "PRES_VIS", "trial_index": 90}, "uniqueid": "MTK3601:3VHP9MDGRORF70VIOWB9U39APYQCFH", "dateTime": 1520800037613}, {"current_trial": 91, "trialdata": {"rt": -1, "trial_type": "single-stim", "word": "shoulder", "stimulus": "<p id=\"stim\">SHOULDER</p>", "conditions": [12, 800, "v", 24000], "internal_node_id": "0.0-64.0", "trial": 2, "time_elapsed": 511644, "serialpos": 2, "key_press": -1, "wordID": 1293, "type": "PRES_VIS", "trial_index": 91}, "uniqueid": "MTK3601:3VHP9MDGRORF70VIOWB9U39APYQCFH", "dateTime": 1520800039600}, {"current_trial": 92, "trialdata": {"rt": -1, "trial_type": "single-stim", "word": "wrist", "stimulus": "<p id=\"stim\">WRIST</p>", "conditions": [12, 800, "v", 24000], "internal_node_id": "0.0-65.0", "trial": 2, "time_elapsed": 513273, "serialpos": 3, "key_press": -1, "wordID": 1625, "type": "PRES_VIS", "trial_index": 92}, "uniqueid": "MTK3601:3VHP9MDGRORF70VIOWB9U39APYQCFH", "dateTime": 1520800041229}, {"current_trial": 93, "trialdata": {"rt": -1, "trial_type": "single-stim", "word": "guitar", "stimulus": "<p id=\"stim\">GUITAR</p>", "conditions": [12, 800, "v", 24000], "internal_node_id": "0.0-66.0", "trial": 2, "time_elapsed": 514964, "serialpos": 4, "key_press": -1, "wordID": 669, "type": "PRES_VIS", "trial_index": 93}, "uniqueid": "MTK3601:3VHP9MDGRORF70VIOWB9U39APYQCFH", "dateTime": 1520800042920}, {"current_trial": 94, "trialdata": {"rt": -1, "trial_type": "single-stim", "word": "cookbook", "stimulus": "<p id=\"stim\">COOKBOOK</p>", "conditions": [12, 800, "v", 24000], "internal_node_id": "0.0-67.0", "trial": 2, "time_elapsed": 516895, "serialpos": 5, "key_press": -1, "wordID": 372, "type": "PRES_VIS", "trial_index": 94}, "uniqueid": "MTK3601:3VHP9MDGRORF70VIOWB9U39APYQCFH", "dateTime": 1520800044851}, {"current_trial": 95, "trialdata": {"rt": -1, "trial_type": "single-stim", "word": "leg", "stimulus": "<p id=\"stim\">LEG</p>", "conditions": [12, 800, "v", 24000], "internal_node_id": "0.0-68.0", "trial": 2, "time_elapsed": 518502, "serialpos": 6, "key_press": -1, "wordID": 808, "type": "PRES_VIS", "trial_index": 95}, "uniqueid": "MTK3601:3VHP9MDGRORF70VIOWB9U39APYQCFH", "dateTime": 1520800046458}, {"current_trial": 96, "trialdata": {"rt": -1, "trial_type": "single-stim", "word": "pliers", "stimulus": "<p id=\"stim\">PLIERS</p>", "conditions": [12, 800, "v", 24000], "internal_node_id": "0.0-69.0", "trial": 2, "time_elapsed": 520378, "serialpos": 7, "key_press": -1, "wordID": 1088, "type": "PRES_VIS", "trial_index": 96}, "uniqueid": "MTK3601:3VHP9MDGRORF70VIOWB9U39APYQCFH", "dateTime": 1520800048334}, {"current_trial": 97, "trialdata": {"rt": -1, "trial_type": "single-stim", "word": "receipt", "stimulus": "<p id=\"stim\">RECEIPT</p>", "conditions": [12, 800, "v", 24000], "internal_node_id": "0.0-70.0", "trial": 2, "time_elapsed": 522040, "serialpos": 8, "key_press": -1, "wordID": 1172, "type": "PRES_VIS", "trial_index": 97}, "uniqueid": "MTK3601:3VHP9MDGRORF70VIOWB9U39APYQCFH", "dateTime": 1520800049996}, {"current_trial": 98, "trialdata": {"rt": -1, "trial_type": "single-stim", "word": "orchid", "stimulus": "<p id=\"stim\">ORCHID</p>", "conditions": [12, 800, "v", 24000], "internal_node_id": "0.0-71.0", "trial": 2, "time_elapsed": 523949, "serialpos": 9, "key_press": -1, "wordID": 981, "type": "PRES_VIS", "trial_index": 98}, "uniqueid": "MTK3601:3VHP9MDGRORF70VIOWB9U39APYQCFH", "dateTime": 1520800051905}, {"current_trial": 99, "trialdata": {"rt": -1, "trial_type": "single-stim", "word": "statue", "stimulus": "<p id=\"stim\">STATUE</p>", "conditions": [12, 800, "v", 24000], "internal_node_id": "0.0-72.0", "trial": 2, "time_elapsed": 525760, "serialpos": 10, "key_press": -1, "wordID": 1373, "type": "PRES_VIS", "trial_index": 99}, "uniqueid": "MTK3601:3VHP9MDGRORF70VIOWB9U39APYQCFH", "dateTime": 1520800053716}, {"current_trial": 100, "trialdata": {"rt": -1, "trial_type": "single-stim", "word": "knife", "stimulus": "<p id=\"stim\">KNIFE</p>", "conditions": [12, 800, "v", 24000], "internal_node_id": "0.0-73.0", "trial": 2, "time_elapsed": 527725, "serialpos": 11, "key_press": -1, "wordID": 784, "type": "PRES_VIS", "trial_index": 100}, "uniqueid": "MTK3601:3VHP9MDGRORF70VIOWB9U39APYQCFH", "dateTime": 1520800055681}, {"current_trial": 101, "trialdata": {"rt": -1, "trial_type": "single-stim", "stimulus": "", "internal_node_id": "0.0-74.0-0.0", "time_elapsed": 529983, "key_press": -1, "type": "PRE_RECALL_DELAY", "trial_index": 101}, "uniqueid": "MTK3601:3VHP9MDGRORF70VIOWB9U39APYQCFH", "dateTime": 1520800057939}, {"current_trial": 102, "trialdata": {"rt": -1000, "trial_type": "single-audio", "stimulus": "/static/audio/400Hz.wav", "internal_node_id": "0.0-75.0", "time_elapsed": 530484, "key_press": -1, "type": "PRE_RECALL_ALERT", "trial_index": 102}, "uniqueid": "MTK3601:3VHP9MDGRORF70VIOWB9U39APYQCFH", "dateTime": 1520800058440}, {"current_trial": 103, "trialdata": {"rt": [6798, 15366, 19694, 24479, 29366, 35653, 39534, 55686], "recwords": ["coffee", "tombstone", "shoulder", "pliers", "reciept", "statue", "knife", ""], "key_times": [5278, 5517, 5845, 5990, 6198, 6365, 6798, 8807, 9230, 9662, 11326, 12173, 12614, 12766, 12990, 13230, 13853, 15070, 15366, 16926, 17198, 17934, 18142, 18542, 18750, 18927, 19102, 19694, 22814, 22934, 23297, 23518, 23677, 24102, 24479, 25854, 25990, 26318, 26662, 27222, 27717, 28166, 29366, 32574, 32901, 33117, 33238, 34821, 35095, 35653, 37854, 37966, 38293, 38805, 38910, 39534, 55686], "trial_type": "free-recall", "conditions": [12, 800, "v", 24000], "internal_node_id": "0.0-76.0-0.0", "key_presses": [67, 79, 70, 70, 69, 69, 13, 84, 79, 77, 66, 83, 84, 79, 78, 69, 222, 8, 13, 83, 72, 79, 85, 76, 68, 69, 82, 13, 80, 76, 73, 69, 82, 83, 13, 82, 69, 67, 73, 69, 80, 84, 13, 83, 84, 65, 84, 85, 69, 13, 75, 78, 73, 70, 69, 13, 13], "trial": 2, "time_elapsed": 590489, "type": "FREE_RECALL", "trial_index": 103}, "uniqueid": "MTK3601:3VHP9MDGRORF70VIOWB9U39APYQCFH", "dateTime": 1520800118450}, {"current_trial": 104, "trialdata": {"rt": 3550, "trial_type": "text", "internal_node_id": "0.0-77.0", "time_elapsed": 596045, "key_press": 46, "type": "INSTRUCTIONS", "trial_index": 104}, "uniqueid": "MTK3601:3VHP9MDGRORF70VIOWB9U39APYQCFH", "dateTime": 1520800124002}, {"current_trial": 105, "trialdata": {"rt": [2046, 4301, 5990, 8086, 9869, 11606], "trial_type": "math-distractor", "key_times": [1663, 1830, 2046, 3431, 3966, 4301, 5605, 5790, 5990, 7590, 7813, 8086, 9405, 9638, 9869, 11134, 11341, 11606], "responses": ["11", "19", "11", "17", "15", "14"], "num2": [7, 9, 4, 1, 8, 8, 7], "num3": [2, 3, 4, 9, 5, 3, 9], "conditions": [12, 800, "v", 12000], "internal_node_id": "0.0-78.0", "key_presses": [97, 97, 13, 97, 105, 13, 97, 97, 13, 97, 103, 13, 97, 101, 13, 97, 100, 13], "trial": 3, "time_elapsed": 610049, "type": "DISTRACTOR", "trial_index": 105, "num1": [2, 7, 3, 7, 2, 3, 9]}, "uniqueid": "MTK3601:3VHP9MDGRORF70VIOWB9U39APYQCFH", "dateTime": 1520800138005}, {"current_trial": 106, "trialdata": {"rt": -1, "trial_type": "single-stim", "stimulus": "<p id=\"stim\">10</p>", "internal_node_id": "0.0-79.0-0.0", "time_elapsed": 613052, "key_press": -1, "trial_index": 106}, "uniqueid": "MTK3601:3VHP9MDGRORF70VIOWB9U39APYQCFH", "dateTime": 1520800141009}, {"current_trial": 107, "trialdata": {"rt": -1, "trial_type": "single-stim", "stimulus": "<p id=\"stim\">9</p>", "internal_node_id": "0.0-79.0-1.0", "time_elapsed": 614055, "key_press": -1, "trial_index": 107}, "uniqueid": "MTK3601:3VHP9MDGRORF70VIOWB9U39APYQCFH", "dateTime": 1520800142011}, {"current_trial": 108, "trialdata": {"rt": -1, "trial_type": "single-stim", "stimulus": "<p id=\"stim\">8</p>", "internal_node_id": "0.0-79.0-2.0", "time_elapsed": 615057, "key_press": -1, "trial_index": 108}, "uniqueid": "MTK3601:3VHP9MDGRORF70VIOWB9U39APYQCFH", "dateTime": 1520800143014}, {"current_trial": 109, "trialdata": {"rt": -1, "trial_type": "single-stim", "stimulus": "<p id=\"stim\">7</p>", "internal_node_id": "0.0-79.0-3.0", "time_elapsed": 616059, "key_press": -1, "trial_index": 109}, "uniqueid": "MTK3601:3VHP9MDGRORF70VIOWB9U39APYQCFH", "dateTime": 1520800144016}, {"current_trial": 110, "trialdata": {"rt": -1, "trial_type": "single-stim", "stimulus": "<p id=\"stim\">6</p>", "internal_node_id": "0.0-79.0-4.0", "time_elapsed": 617060, "key_press": -1, "trial_index": 110}, "uniqueid": "MTK3601:3VHP9MDGRORF70VIOWB9U39APYQCFH", "dateTime": 1520800145017}, {"current_trial": 111, "trialdata": {"rt": -1, "trial_type": "single-stim", "stimulus": "<p id=\"stim\">5</p>", "internal_node_id": "0.0-79.0-5.0", "time_elapsed": 618062, "key_press": -1, "trial_index": 111}, "uniqueid": "MTK3601:3VHP9MDGRORF70VIOWB9U39APYQCFH", "dateTime": 1520800146018}, {"current_trial": 112, "trialdata": {"rt": -1, "trial_type": "single-stim", "stimulus": "<p id=\"stim\">4</p>", "internal_node_id": "0.0-79.0-6.0", "time_elapsed": 619063, "key_press": -1, "trial_index": 112}, "uniqueid": "MTK3601:3VHP9MDGRORF70VIOWB9U39APYQCFH", "dateTime": 1520800147020}, {"current_trial": 113, "trialdata": {"rt": -1, "trial_type": "single-stim", "stimulus": "<p id=\"stim\">3</p>", "internal_node_id": "0.0-79.0-7.0", "time_elapsed": 620066, "key_press": -1, "trial_index": 113}, "uniqueid": "MTK3601:3VHP9MDGRORF70VIOWB9U39APYQCFH", "dateTime": 1520800148022}, {"current_trial": 114, "trialdata": {"rt": -1, "trial_type": "single-stim", "stimulus": "<p id=\"stim\">2</p>", "internal_node_id": "0.0-79.0-8.0", "time_elapsed": 621068, "key_press": -1, "trial_index": 114}, "uniqueid": "MTK3601:3VHP9MDGRORF70VIOWB9U39APYQCFH", "dateTime": 1520800149024}, {"current_trial": 115, "trialdata": {"rt": -1, "trial_type": "single-stim", "stimulus": "<p id=\"stim\">1</p>", "internal_node_id": "0.0-79.0-9.0", "time_elapsed": 622069, "key_press": -1, "trial_index": 115}, "uniqueid": "MTK3601:3VHP9MDGRORF70VIOWB9U39APYQCFH", "dateTime": 1520800150025}, {"current_trial": 116, "trialdata": {"rt": -1, "trial_type": "single-stim", "stimulus": "<p id=\"stim\">+</p>", "internal_node_id": "0.0-80.0-0.0", "time_elapsed": 623572, "key_press": -1, "type": "FIXATION", "trial_index": 116}, "uniqueid": "MTK3601:3VHP9MDGRORF70VIOWB9U39APYQCFH", "dateTime": 1520800151528}, {"current_trial": 117, "trialdata": {"rt": -1, "trial_type": "single-stim", "word": "doughnut", "stimulus": "<p id=\"stim\">DOUGHNUT</p>", "conditions": [12, 800, "v", 12000], "internal_node_id": "0.0-81.0", "trial": 3, "time_elapsed": 624374, "serialpos": 0, "key_press": -1, "wordID": 489, "type": "PRES_VIS", "trial_index": 117}, "uniqueid": "MTK3601:3VHP9MDGRORF70VIOWB9U39APYQCFH", "dateTime": 1520800152330}, {"current_trial": 118, "trialdata": {"rt": -1, "trial_type": "single-stim", "word": "human", "stimulus": "<p id=\"stim\">HUMAN</p>", "conditions": [12, 800, "v", 12000], "internal_node_id": "0.0-82.0", "trial": 3, "time_elapsed": 626114, "serialpos": 1, "key_press": -1, "wordID": 725, "type": "PRES_VIS", "trial_index": 118}, "uniqueid": "MTK3601:3VHP9MDGRORF70VIOWB9U39APYQCFH", "dateTime": 1520800154070}, {"current_trial": 119, "trialdata": {"rt": -1, "trial_type": "single-stim", "word": "hawk", "stimulus": "<p id=\"stim\">HAWK</p>", "conditions": [12, 800, "v", 12000], "internal_node_id": "0.0-83.0", "trial": 3, "time_elapsed": 627996, "serialpos": 2, "key_press": -1, "wordID": 691, "type": "PRES_VIS", "trial_index": 119}, "uniqueid": "MTK3601:3VHP9MDGRORF70VIOWB9U39APYQCFH", "dateTime": 1520800155952}, {"current_trial": 120, "trialdata": {"rt": -1, "trial_type": "single-stim", "word": "dress", "stimulus": "<p id=\"stim\">DRESS</p>", "conditions": [12, 800, "v", 12000], "internal_node_id": "0.0-84.0", "trial": 3, "time_elapsed": 629778, "serialpos": 3, "key_press": -1, "wordID": 494, "type": "PRES_VIS", "trial_index": 120}, "uniqueid": "MTK3601:3VHP9MDGRORF70VIOWB9U39APYQCFH", "dateTime": 1520800157734}, {"current_trial": 121, "trialdata": {"rt": -1, "trial_type": "single-stim", "word": "clothes", "stimulus": "<p id=\"stim\">CLOTHES</p>", "conditions": [12, 800, "v", 12000], "internal_node_id": "0.0-85.0", "trial": 3, "time_elapsed": 631534, "serialpos": 4, "key_press": -1, "wordID": 326, "type": "PRES_VIS", "trial_index": 121}, "uniqueid": "MTK3601:3VHP9MDGRORF70VIOWB9U39APYQCFH", "dateTime": 1520800159490}, {"current_trial": 122, "trialdata": {"rt": -1, "trial_type": "single-stim", "word": "freckle", "stimulus": "<p id=\"stim\">FRECKLE</p>", "conditions": [12, 800, "v", 12000], "internal_node_id": "0.0-86.0", "trial": 3, "time_elapsed": 633241, "serialpos": 5, "key_press": -1, "wordID": 601, "type": "PRES_VIS", "trial_index": 122}, "uniqueid": "MTK3601:3VHP9MDGRORF70VIOWB9U39APYQCFH", "dateTime": 1520800161197}, {"current_trial": 123, "trialdata": {"rt": -1, "trial_type": "single-stim", "word": "ozone", "stimulus": "<p id=\"stim\">OZONE</p>", "conditions": [12, 800, "v", 12000], "internal_node_id": "0.0-87.0", "trial": 3, "time_elapsed": 635020, "serialpos": 6, "key_press": -1, "wordID": 995, "type": "PRES_VIS", "trial_index": 123}, "uniqueid": "MTK3601:3VHP9MDGRORF70VIOWB9U39APYQCFH", "dateTime": 1520800162977}, {"current_trial": 124, "trialdata": {"rt": -1, "trial_type": "single-stim", "word": "muffin", "stimulus": "<p id=\"stim\">MUFFIN</p>", "conditions": [12, 800, "v", 12000], "internal_node_id": "0.0-88.0", "trial": 3, "time_elapsed": 636822, "serialpos": 7, "key_press": -1, "wordID": 928, "type": "PRES_VIS", "trial_index": 124}, "uniqueid": "MTK3601:3VHP9MDGRORF70VIOWB9U39APYQCFH", "dateTime": 1520800164778}, {"current_trial": 125, "trialdata": {"rt": -1, "trial_type": "single-stim", "word": "salt", "stimulus": "<p id=\"stim\">SALT</p>", "conditions": [12, 800, "v", 12000], "internal_node_id": "0.0-89.0", "trial": 3, "time_elapsed": 638809, "serialpos": 8, "key_press": -1, "wordID": 1228, "type": "PRES_VIS", "trial_index": 125}, "uniqueid": "MTK3601:3VHP9MDGRORF70VIOWB9U39APYQCFH", "dateTime": 1520800166765}, {"current_trial": 126, "trialdata": {"rt": -1, "trial_type": "single-stim", "word": "popcorn", "stimulus": "<p id=\"stim\">POPCORN</p>", "conditions": [12, 800, "v", 12000], "internal_node_id": "0.0-90.0", "trial": 3, "time_elapsed": 640674, "serialpos": 9, "key_press": -1, "wordID": 1103, "type": "PRES_VIS", "trial_index": 126}, "uniqueid": "MTK3601:3VHP9MDGRORF70VIOWB9U39APYQCFH", "dateTime": 1520800168631}, {"current_trial": 127, "trialdata": {"rt": -1, "trial_type": "single-stim", "word": "cyclone", "stimulus": "<p id=\"stim\">CYCLONE</p>", "conditions": [12, 800, "v", 12000], "internal_node_id": "0.0-91.0", "trial": 3, "time_elapsed": 642556, "serialpos": 10, "key_press": -1, "wordID": 430, "type": "PRES_VIS", "trial_index": 127}, "uniqueid": "MTK3601:3VHP9MDGRORF70VIOWB9U39APYQCFH", "dateTime": 1520800170512}, {"current_trial": 128, "trialdata": {"rt": -1, "trial_type": "single-stim", "word": "snack", "stimulus": "<p id=\"stim\">SNACK</p>", "conditions": [12, 800, "v", 12000], "internal_node_id": "0.0-92.0", "trial": 3, "time_elapsed": 644535, "serialpos": 11, "key_press": -1, "wordID": 1330, "type": "PRES_VIS", "trial_index": 128}, "uniqueid": "MTK3601:3VHP9MDGRORF70VIOWB9U39APYQCFH", "dateTime": 1520800172491}, {"current_trial": 129, "trialdata": {"rt": -1, "trial_type": "single-stim", "stimulus": "", "internal_node_id": "0.0-93.0-0.0", "time_elapsed": 646740, "key_press": -1, "type": "PRE_RECALL_DELAY", "trial_index": 129}, "uniqueid": "MTK3601:3VHP9MDGRORF70VIOWB9U39APYQCFH", "dateTime": 1520800174696}, {"current_trial": 130, "trialdata": {"rt": -1000, "trial_type": "single-audio", "stimulus": "/static/audio/400Hz.wav", "internal_node_id": "0.0-94.0", "time_elapsed": 647241, "key_press": -1, "type": "PRE_RECALL_ALERT", "trial_index": 130}, "uniqueid": "MTK3601:3VHP9MDGRORF70VIOWB9U39APYQCFH", "dateTime": 1520800175197}, {"current_trial": 131, "trialdata": {"rt": [6656, 10136, 12392, 16265, 20585, 24736, 28048, 32843, 36024, 44721], "recwords": ["doughnut", "hawk", "dress", "clothes", "muffin", "salt", "popcorn", "cyclone", "snack", ""], "key_times": [2977, 3104, 3272, 3545, 4584, 4832, 5065, 5321, 5488, 5729, 6656, 7641, 7969, 8184, 8489, 10136, 11025, 11257, 11480, 11800, 11944, 12392, 14217, 14569, 14865, 15192, 15352, 15513, 15808, 16265, 18681, 18984, 19529, 19672, 19824, 20112, 20585, 21800, 21936, 23160, 23448, 24736, 25120, 25320, 25640, 25976, 26233, 26760, 27152, 28048, 29112, 29568, 29968, 30184, 30976, 31376, 32000, 32843, 33817, 33968, 34176, 34536, 34784, 36024, 44721], "trial_type": "free-recall", "conditions": [12, 800, "v", 12000], "internal_node_id": "0.0-95.0-0.0", "key_presses": [68, 79, 85, 72, 8, 71, 72, 78, 85, 84, 13, 72, 65, 87, 75, 13, 68, 82, 69, 83, 83, 13, 67, 76, 79, 84, 72, 69, 83, 13, 77, 85, 70, 70, 73, 78, 13, 83, 65, 76, 84, 13, 80, 79, 80, 67, 79, 82, 78, 13, 67, 89, 67, 76, 79, 78, 69, 13, 83, 78, 65, 67, 75, 13, 13], "trial": 3, "time_elapsed": 707246, "type": "FREE_RECALL", "trial_index": 131}, "uniqueid": "MTK3601:3VHP9MDGRORF70VIOWB9U39APYQCFH", "dateTime": 1520800235206}, {"current_trial": 132, "trialdata": {"rt": 2035, "trial_type": "text", "internal_node_id": "0.0-96.0", "time_elapsed": 711286, "key_press": 13, "type": "INSTRUCTIONS", "trial_index": 132}, "uniqueid": "MTK3601:3VHP9MDGRORF70VIOWB9U39APYQCFH", "dateTime": 1520800239242}, {"current_trial": 133, "trialdata": {"rt": [1750, 3509, 5853, 7445, 9021, 10829], "trial_type": "math-distractor", "key_times": [1165, 1525, 1750, 2814, 3093, 3509, 5381, 5581, 5853, 6965, 7206, 7445, 8534, 8772, 9021, 10318, 10589, 10829, 11950], "responses": ["13", "13", "21", "21", "12", "18"], "num2": [9, 1, 7, 7, 1, 9, 4], "num3": [2, 2, 9, 7, 6, 3, 1], "conditions": [24, 800, "v", 12000], "internal_node_id": "0.0-97.0", "key_presses": [97, 99, 13, 97, 99, 13, 98, 97, 13, 98, 97, 13, 97, 98, 13, 97, 104, 13, 97], "trial": 4, "time_elapsed": 725290, "type": "DISTRACTOR", "trial_index": 133, "num1": [2, 2, 5, 7, 5, 6, 7]}, "uniqueid": "MTK3601:3VHP9MDGRORF70VIOWB9U39APYQCFH", "dateTime": 1520800253246}, {"current_trial": 134, "trialdata": {"rt": -1, "trial_type": "single-stim", "stimulus": "<p id=\"stim\">10</p>", "internal_node_id": "0.0-98.0-0.0", "time_elapsed": 728292, "key_press": -1, "trial_index": 134}, "uniqueid": "MTK3601:3VHP9MDGRORF70VIOWB9U39APYQCFH", "dateTime": 1520800256248}, {"current_trial": 135, "trialdata": {"rt": -1, "trial_type": "single-stim", "stimulus": "<p id=\"stim\">9</p>", "internal_node_id": "0.0-98.0-1.0", "time_elapsed": 729293, "key_press": -1, "trial_index": 135}, "uniqueid": "MTK3601:3VHP9MDGRORF70VIOWB9U39APYQCFH", "dateTime": 1520800257249}, {"current_trial": 136, "trialdata": {"rt": -1, "trial_type": "single-stim", "stimulus": "<p id=\"stim\">8</p>", "internal_node_id": "0.0-98.0-2.0", "time_elapsed": 730295, "key_press": -1, "trial_index": 136}, "uniqueid": "MTK3601:3VHP9MDGRORF70VIOWB9U39APYQCFH", "dateTime": 1520800258252}, {"current_trial": 137, "trialdata": {"rt": -1, "trial_type": "single-stim", "stimulus": "<p id=\"stim\">7</p>", "internal_node_id": "0.0-98.0-3.0", "time_elapsed": 731298, "key_press": -1, "trial_index": 137}, "uniqueid": "MTK3601:3VHP9MDGRORF70VIOWB9U39APYQCFH", "dateTime": 1520800259254}, {"current_trial": 138, "trialdata": {"rt": -1, "trial_type": "single-stim", "stimulus": "<p id=\"stim\">6</p>", "internal_node_id": "0.0-98.0-4.0", "time_elapsed": 732300, "key_press": -1, "trial_index": 138}, "uniqueid": "MTK3601:3VHP9MDGRORF70VIOWB9U39APYQCFH", "dateTime": 1520800260256}, {"current_trial": 139, "trialdata": {"rt": -1, "trial_type": "single-stim", "stimulus": "<p id=\"stim\">5</p>", "internal_node_id": "0.0-98.0-5.0", "time_elapsed": 733302, "key_press": -1, "trial_index": 139}, "uniqueid": "MTK3601:3VHP9MDGRORF70VIOWB9U39APYQCFH", "dateTime": 1520800261258}, {"current_trial": 140, "trialdata": {"rt": -1, "trial_type": "single-stim", "stimulus": "<p id=\"stim\">4</p>", "internal_node_id": "0.0-98.0-6.0", "time_elapsed": 734304, "key_press": -1, "trial_index": 140}, "uniqueid": "MTK3601:3VHP9MDGRORF70VIOWB9U39APYQCFH", "dateTime": 1520800262261}, {"current_trial": 141, "trialdata": {"rt": -1, "trial_type": "single-stim", "stimulus": "<p id=\"stim\">3</p>", "internal_node_id": "0.0-98.0-7.0", "time_elapsed": 735307, "key_press": -1, "trial_index": 141}, "uniqueid": "MTK3601:3VHP9MDGRORF70VIOWB9U39APYQCFH", "dateTime": 1520800263263}, {"current_trial": 142, "trialdata": {"rt": -1, "trial_type": "single-stim", "stimulus": "<p id=\"stim\">2</p>", "internal_node_id": "0.0-98.0-8.0", "time_elapsed": 736309, "key_press": -1, "trial_index": 142}, "uniqueid": "MTK3601:3VHP9MDGRORF70VIOWB9U39APYQCFH", "dateTime": 1520800264265}, {"current_trial": 143, "trialdata": {"rt": -1, "trial_type": "single-stim", "stimulus": "<p id=\"stim\">1</p>", "internal_node_id": "0.0-98.0-9.0", "time_elapsed": 737310, "key_press": -1, "trial_index": 143}, "uniqueid": "MTK3601:3VHP9MDGRORF70VIOWB9U39APYQCFH", "dateTime": 1520800265267}, {"current_trial": 144, "trialdata": {"rt": -1, "trial_type": "single-stim", "stimulus": "<p id=\"stim\">+</p>", "internal_node_id": "0.0-99.0-0.0", "time_elapsed": 738813, "key_press": -1, "type": "FIXATION", "trial_index": 144}, "uniqueid": "MTK3601:3VHP9MDGRORF70VIOWB9U39APYQCFH", "dateTime": 1520800266770}, {"current_trial": 145, "trialdata": {"rt": -1, "trial_type": "single-stim", "word": "fleet", "stimulus": "<p id=\"stim\">FLEET</p>", "conditions": [24, 800, "v", 12000], "internal_node_id": "0.0-100.0", "trial": 4, "time_elapsed": 739616, "serialpos": 0, "key_press": -1, "wordID": 577, "type": "PRES_VIS", "trial_index": 145}, "uniqueid": "MTK3601:3VHP9MDGRORF70VIOWB9U39APYQCFH", "dateTime": 1520800267572}, {"current_trial": 146, "trialdata": {"rt": -1, "trial_type": "single-stim", "word": "virus", "stimulus": "<p id=\"stim\">VIRUS</p>", "conditions": [24, 800, "v", 12000], "internal_node_id": "0.0-101.0", "trial": 4, "time_elapsed": 741230, "serialpos": 1, "key_press": -1, "wordID": 1571, "type": "PRES_VIS", "trial_index": 146}, "uniqueid": "MTK3601:3VHP9MDGRORF70VIOWB9U39APYQCFH", "dateTime": 1520800269186}, {"current_trial": 147, "trialdata": {"rt": -1, "trial_type": "single-stim", "word": "maple", "stimulus": "<p id=\"stim\">MAPLE</p>", "conditions": [24, 800, "v", 12000], "internal_node_id": "0.0-102.0", "trial": 4, "time_elapsed": 743064, "serialpos": 2, "key_press": -1, "wordID": 865, "type": "PRES_VIS", "trial_index": 147}, "uniqueid": "MTK3601:3VHP9MDGRORF70VIOWB9U39APYQCFH", "dateTime": 1520800271021}, {"current_trial": 148, "trialdata": {"rt": -1, "trial_type": "single-stim", "word": "crevice", "stimulus": "<p id=\"stim\">CREVICE</p>", "conditions": [24, 800, "v", 12000], "internal_node_id": "0.0-103.0", "trial": 4, "time_elapsed": 744824, "serialpos": 3, "key_press": -1, "wordID": 404, "type": "PRES_VIS", "trial_index": 148}, "uniqueid": "MTK3601:3VHP9MDGRORF70VIOWB9U39APYQCFH", "dateTime": 1520800272780}, {"current_trial": 149, "trialdata": {"rt": -1, "trial_type": "single-stim", "word": "stone", "stimulus": "<p id=\"stim\">STONE</p>", "conditions": [24, 800, "v", 12000], "internal_node_id": "0.0-104.0", "trial": 4, "time_elapsed": 746462, "serialpos": 4, "key_press": -1, "wordID": 1384, "type": "PRES_VIS", "trial_index": 149}, "uniqueid": "MTK3601:3VHP9MDGRORF70VIOWB9U39APYQCFH", "dateTime": 1520800274418}, {"current_trial": 150, "trialdata": {"rt": -1, "trial_type": "single-stim", "word": "freezer", "stimulus": "<p id=\"stim\">FREEZER</p>", "conditions": [24, 800, "v", 12000], "internal_node_id": "0.0-105.0", "trial": 4, "time_elapsed": 748391, "serialpos": 5, "key_press": -1, "wordID": 603, "type": "PRES_VIS", "trial_index": 150}, "uniqueid": "MTK3601:3VHP9MDGRORF70VIOWB9U39APYQCFH", "dateTime": 1520800276347}, {"current_trial": 151, "trialdata": {"rt": -1, "trial_type": "single-stim", "word": "slug", "stimulus": "<p id=\"stim\">SLUG</p>", "conditions": [24, 800, "v", 12000], "internal_node_id": "0.0-106.0", "trial": 4, "time_elapsed": 750144, "serialpos": 6, "key_press": -1, "wordID": 1328, "type": "PRES_VIS", "trial_index": 151}, "uniqueid": "MTK3601:3VHP9MDGRORF70VIOWB9U39APYQCFH", "dateTime": 1520800278100}, {"current_trial": 152, "trialdata": {"rt": -1, "trial_type": "single-stim", "word": "onion", "stimulus": "<p id=\"stim\">ONION</p>", "conditions": [24, 800, "v", 12000], "internal_node_id": "0.0-107.0", "trial": 4, "time_elapsed": 751855, "serialpos": 7, "key_press": -1, "wordID": 976, "type": "PRES_VIS", "trial_index": 152}, "uniqueid": "MTK3601:3VHP9MDGRORF70VIOWB9U39APYQCFH", "dateTime": 1520800279811}, {"current_trial": 153, "trialdata": {"rt": -1, "trial_type": "single-stim", "word": "elbow", "stimulus": "<p id=\"stim\">ELBOW</p>", "conditions": [24, 800, "v", 12000], "internal_node_id": "0.0-108.0", "trial": 4, "time_elapsed": 753732, "serialpos": 8, "key_press": -1, "wordID": 519, "type": "PRES_VIS", "trial_index": 153}, "uniqueid": "MTK3601:3VHP9MDGRORF70VIOWB9U39APYQCFH", "dateTime": 1520800281688}, {"current_trial": 154, "trialdata": {"rt": -1, "trial_type": "single-stim", "word": "picnic", "stimulus": "<p id=\"stim\">PICNIC</p>", "conditions": [24, 800, "v", 12000], "internal_node_id": "0.0-109.0", "trial": 4, "time_elapsed": 755715, "serialpos": 9, "key_press": -1, "wordID": 1059, "type": "PRES_VIS", "trial_index": 154}, "uniqueid": "MTK3601:3VHP9MDGRORF70VIOWB9U39APYQCFH", "dateTime": 1520800283671}, {"current_trial": 155, "trialdata": {"rt": -1, "trial_type": "single-stim", "word": "supper", "stimulus": "<p id=\"stim\">SUPPER</p>", "conditions": [24, 800, "v", 12000], "internal_node_id": "0.0-110.0", "trial": 4, "time_elapsed": 757426, "serialpos": 10, "key_press": -1, "wordID": 1410, "type": "PRES_VIS", "trial_index": 155}, "uniqueid": "MTK3601:3VHP9MDGRORF70VIOWB9U39APYQCFH", "dateTime": 1520800285382}, {"current_trial": 156, "trialdata": {"rt": -1, "trial_type": "single-stim", "word": "radish", "stimulus": "<p id=\"stim\">RADISH</p>", "conditions": [24, 800, "v", 12000], "internal_node_id": "0.0-111.0", "trial": 4, "time_elapsed": 759135, "serialpos": 11, "key_press": -1, "wordID": 1157, "type": "PRES_VIS", "trial_index": 156}, "uniqueid": "MTK3601:3VHP9MDGRORF70VIOWB9U39APYQCFH", "dateTime": 1520800287091}, {"current_trial": 157, "trialdata": {"rt": -1, "trial_type": "single-stim", "word": "sidewalk", "stimulus": "<p id=\"stim\">SIDEWALK</p>", "conditions": [24, 800, "v", 12000], "internal_node_id": "0.0-112.0", "trial": 4, "time_elapsed": 761111, "serialpos": 12, "key_press": -1, "wordID": 1302, "type": "PRES_VIS", "trial_index": 157}, "uniqueid": "MTK3601:3VHP9MDGRORF70VIOWB9U39APYQCFH", "dateTime": 1520800289067}, {"current_trial": 158, "trialdata": {"rt": -1, "trial_type": "single-stim", "word": "plaza", "stimulus": "<p id=\"stim\">PLAZA</p>", "conditions": [24, 800, "v", 12000], "internal_node_id": "0.0-113.0", "trial": 4, "time_elapsed": 763106, "serialpos": 13, "key_press": -1, "wordID": 1087, "type": "PRES_VIS", "trial_index": 158}, "uniqueid": "MTK3601:3VHP9MDGRORF70VIOWB9U39APYQCFH", "dateTime": 1520800291063}, {"current_trial": 159, "trialdata": {"rt": -1, "trial_type": "single-stim", "word": "transplant", "stimulus": "<p id=\"stim\">TRANSPLANT</p>", "conditions": [24, 800, "v", 12000], "internal_node_id": "0.0-114.0", "trial": 4, "time_elapsed": 764839, "serialpos": 14, "key_press": -1, "wordID": 1495, "type": "PRES_VIS", "trial_index": 159}, "uniqueid": "MTK3601:3VHP9MDGRORF70VIOWB9U39APYQCFH", "dateTime": 1520800292796}, {"current_trial": 160, "trialdata": {"rt": -1, "trial_type": "single-stim", "word": "piano", "stimulus": "<p id=\"stim\">PIANO</p>", "conditions": [24, 800, "v", 12000], "internal_node_id": "0.0-115.0", "trial": 4, "time_elapsed": 766493, "serialpos": 15, "key_press": -1, "wordID": 1056, "type": "PRES_VIS", "trial_index": 160}, "uniqueid": "MTK3601:3VHP9MDGRORF70VIOWB9U39APYQCFH", "dateTime": 1520800294449}, {"current_trial": 161, "trialdata": {"rt": -1, "trial_type": "single-stim", "word": "frame", "stimulus": "<p id=\"stim\">FRAME</p>", "conditions": [24, 800, "v", 12000], "internal_node_id": "0.0-116.0", "trial": 4, "time_elapsed": 768195, "serialpos": 16, "key_press": -1, "wordID": 599, "type": "PRES_VIS", "trial_index": 161}, "uniqueid": "MTK3601:3VHP9MDGRORF70VIOWB9U39APYQCFH", "dateTime": 1520800296151}, {"current_trial": 162, "trialdata": {"rt": -1, "trial_type": "single-stim", "word": "rattle", "stimulus": "<p id=\"stim\">RATTLE</p>", "conditions": [24, 800, "v", 12000], "internal_node_id": "0.0-117.0", "trial": 4, "time_elapsed": 769931, "serialpos": 17, "key_press": -1, "wordID": 1169, "type": "PRES_VIS", "trial_index": 162}, "uniqueid": "MTK3601:3VHP9MDGRORF70VIOWB9U39APYQCFH", "dateTime": 1520800297889}, {"current_trial": 163, "trialdata": {"rt": -1, "trial_type": "single-stim", "word": "padding", "stimulus": "<p id=\"stim\">PADDING</p>", "conditions": [24, 800, "v", 12000], "internal_node_id": "0.0-118.0", "trial": 4, "time_elapsed": 771617, "serialpos": 18, "key_press": -1, "wordID": 998, "type": "PRES_VIS", "trial_index": 163}, "uniqueid": "MTK3601:3VHP9MDGRORF70VIOWB9U39APYQCFH", "dateTime": 1520800299574}, {"current_trial": 164, "trialdata": {"rt": -1, "trial_type": "single-stim", "word": "leader", "stimulus": "<p id=\"stim\">LEADER</p>", "conditions": [24, 800, "v", 12000], "internal_node_id": "0.0-119.0", "trial": 4, "time_elapsed": 773305, "serialpos": 19, "key_press": -1, "wordID": 806, "type": "PRES_VIS", "trial_index": 164}, "uniqueid": "MTK3601:3VHP9MDGRORF70VIOWB9U39APYQCFH", "dateTime": 1520800301261}, {"current_trial": 165, "trialdata": {"rt": -1, "trial_type": "single-stim", "word": "bucket", "stimulus": "<p id=\"stim\">BUCKET</p>", "conditions": [24, 800, "v", 12000], "internal_node_id": "0.0-120.0", "trial": 4, "time_elapsed": 775017, "serialpos": 20, "key_press": -1, "wordID": 183, "type": "PRES_VIS", "trial_index": 165}, "uniqueid": "MTK3601:3VHP9MDGRORF70VIOWB9U39APYQCFH", "dateTime": 1520800302973}, {"current_trial": 166, "trialdata": {"rt": -1, "trial_type": "single-stim", "word": "kidney", "stimulus": "<p id=\"stim\">KIDNEY</p>", "conditions": [24, 800, "v", 12000], "internal_node_id": "0.0-121.0", "trial": 4, "time_elapsed": 777004, "serialpos": 21, "key_press": -1, "wordID": 775, "type": "PRES_VIS", "trial_index": 166}, "uniqueid": "MTK3601:3VHP9MDGRORF70VIOWB9U39APYQCFH", "dateTime": 1520800304960}, {"current_trial": 167, "trialdata": {"rt": -1, "trial_type": "single-stim", "word": "witness", "stimulus": "<p id=\"stim\">WITNESS</p>", "conditions": [24, 800, "v", 12000], "internal_node_id": "0.0-122.0", "trial": 4, "time_elapsed": 778815, "serialpos": 22, "key_press": -1, "wordID": 1617, "type": "PRES_VIS", "trial_index": 167}, "uniqueid": "MTK3601:3VHP9MDGRORF70VIOWB9U39APYQCFH", "dateTime": 1520800306772}, {"current_trial": 168, "trialdata": {"rt": -1, "trial_type": "single-stim", "word": "brandy", "stimulus": "<p id=\"stim\">BRANDY</p>", "conditions": [24, 800, "v", 12000], "internal_node_id": "0.0-123.0", "trial": 4, "time_elapsed": 780548, "serialpos": 23, "key_press": -1, "wordID": 168, "type": "PRES_VIS", "trial_index": 168}, "uniqueid": "MTK3601:3VHP9MDGRORF70VIOWB9U39APYQCFH", "dateTime": 1520800308504}, {"current_trial": 169, "trialdata": {"rt": -1, "trial_type": "single-stim", "stimulus": "", "internal_node_id": "0.0-124.0-0.0", "time_elapsed": 782590, "key_press": -1, "type": "PRE_RECALL_DELAY", "trial_index": 169}, "uniqueid": "MTK3601:3VHP9MDGRORF70VIOWB9U39APYQCFH", "dateTime": 1520800310546}, {"current_trial": 170, "trialdata": {"rt": -1000, "trial_type": "single-audio", "stimulus": "/static/audio/400Hz.wav", "internal_node_id": "0.0-125.0", "time_elapsed": 783091, "key_press": -1, "type": "PRE_RECALL_ALERT", "trial_index": 170}, "uniqueid": "MTK3601:3VHP9MDGRORF70VIOWB9U39APYQCFH", "dateTime": 1520800311047}, {"current_trial": 171, "trialdata": {"rt": [10607, 15064, 17302, 20879, 25966, 30775, 35775, 40327, 44143, 49886, 54126, 58567], "recwords": ["plant", "virus", "maple", "crevice", "freezer", "slug", "elbow", "picnic", "supper", "raddish", "plaza", "piano"], "key_times": [4927, 5070, 5359, 5647, 5934, 7998, 8671, 9791, 10062, 10607, 13336, 13531, 14094, 14287, 14703, 15064, 16095, 16287, 16478, 16663, 16903, 17302, 19007, 19215, 19423, 19663, 20087, 20303, 20399, 20879, 23903, 24023, 24303, 24446, 24990, 25303, 25503, 25966, 28734, 29326, 29703, 30398, 30775, 34191, 34343, 34791, 34998, 35367, 35775, 37999, 38262, 38759, 38951, 39367, 39871, 40327, 42479, 42902, 43183, 43366, 43592, 43767, 44143, 46640, 46886, 47199, 48103, 48399, 48583, 48847, 49886, 51895, 52023, 52583, 52872, 53623, 54126, 56519, 56775, 56991, 57207, 57623, 58567], "trial_type": "free-recall", "conditions": [24, 800, "v", 12000], "internal_node_id": "0.0-126.0-0.0", "key_presses": [80, 76, 65, 78, 84, 8, 8, 78, 84, 13, 86, 73, 82, 85, 83, 13, 77, 65, 80, 76, 69, 13, 67, 82, 69, 86, 73, 67, 69, 13, 70, 82, 69, 69, 90, 69, 82, 13, 83, 76, 85, 71, 13, 69, 76, 66, 79, 87, 13, 80, 73, 67, 78, 73, 67, 13, 83, 85, 80, 80, 69, 82, 13, 82, 65, 68, 68, 73, 83, 72, 13, 80, 76, 65, 90, 65, 13, 80, 73, 65, 78, 79, 13], "trial": 4, "time_elapsed": 843096, "type": "FREE_RECALL", "trial_index": 171}, "uniqueid": "MTK3601:3VHP9MDGRORF70VIOWB9U39APYQCFH", "dateTime": 1520800371055}, {"current_trial": 172, "trialdata": {"rt": 7232, "trial_type": "text", "internal_node_id": "0.0-127.0", "time_elapsed": 852333, "key_press": 13, "type": "INSTRUCTIONS", "trial_index": 172}, "uniqueid": "MTK3601:3VHP9MDGRORF70VIOWB9U39APYQCFH", "dateTime": 1520800380289}, {"current_trial": 173, "trialdata": {"rt": [2573, 4645, 6702, 8644, 10221, 11812, 15581, 17421, 19349, 21004, 22965], "trial_type": "math-distractor", "key_times": [1237, 1437, 2573, 4365, 4645, 5893, 6429, 6702, 8174, 8404, 8644, 9965, 10221, 11397, 11589, 11812, 14629, 15213, 15581, 16789, 17109, 17421, 18870, 19086, 19349, 20549, 20797, 21004, 22356, 22709, 22965], "responses": ["14", "9", "14", "17", "8", "11", "13", "19", "15", "15", "13"], "num2": [4, 2, 5, 6, 2, 5, 5, 8, 5, 3, 3, 5], "num3": [5, 5, 2, 4, 3, 3, 4, 2, 9, 5, 6, 7], "conditions": [24, 800, "v", 24000], "internal_node_id": "0.0-128.0", "key_presses": [97, 100, 13, 105, 13, 97, 100, 13, 97, 103, 13, 104, 13, 97, 97, 13, 97, 99, 13, 97, 105, 13, 97, 101, 13, 97, 101, 13, 97, 99, 13], "trial": 5, "time_elapsed": 878339, "type": "DISTRACTOR", "trial_index": 173, "num1": [5, 2, 7, 7, 3, 5, 3, 9, 1, 7, 4, 1]}, "uniqueid": "MTK3601:3VHP9MDGRORF70VIOWB9U39APYQCFH", "dateTime": 1520800406296}, {"current_trial": 174, "trialdata": {"rt": -1, "trial_type": "single-stim", "stimulus": "<p id=\"stim\">10</p>", "internal_node_id": "0.0-129.0-0.0", "time_elapsed": 881342, "key_press": -1, "trial_index": 174}, "uniqueid": "MTK3601:3VHP9MDGRORF70VIOWB9U39APYQCFH", "dateTime": 1520800409298}, {"current_trial": 175, "trialdata": {"rt": -1, "trial_type": "single-stim", "stimulus": "<p id=\"stim\">9</p>", "internal_node_id": "0.0-129.0-1.0", "time_elapsed": 882344, "key_press": -1, "trial_index": 175}, "uniqueid": "MTK3601:3VHP9MDGRORF70VIOWB9U39APYQCFH", "dateTime": 1520800410300}, {"current_trial": 176, "trialdata": {"rt": -1, "trial_type": "single-stim", "stimulus": "<p id=\"stim\">8</p>", "internal_node_id": "0.0-129.0-2.0", "time_elapsed": 883345, "key_press": -1, "trial_index": 176}, "uniqueid": "MTK3601:3VHP9MDGRORF70VIOWB9U39APYQCFH", "dateTime": 1520800411302}, {"current_trial": 177, "trialdata": {"rt": -1, "trial_type": "single-stim", "stimulus": "<p id=\"stim\">7</p>", "internal_node_id": "0.0-129.0-3.0", "time_elapsed": 884349, "key_press": -1, "trial_index": 177}, "uniqueid": "MTK3601:3VHP9MDGRORF70VIOWB9U39APYQCFH", "dateTime": 1520800412305}, {"current_trial": 178, "trialdata": {"rt": -1, "trial_type": "single-stim", "stimulus": "<p id=\"stim\">6</p>", "internal_node_id": "0.0-129.0-4.0", "time_elapsed": 885350, "key_press": -1, "trial_index": 178}, "uniqueid": "MTK3601:3VHP9MDGRORF70VIOWB9U39APYQCFH", "dateTime": 1520800413306}, {"current_trial": 179, "trialdata": {"rt": -1, "trial_type": "single-stim", "stimulus": "<p id=\"stim\">5</p>", "internal_node_id": "0.0-129.0-5.0", "time_elapsed": 886352, "key_press": -1, "trial_index": 179}, "uniqueid": "MTK3601:3VHP9MDGRORF70VIOWB9U39APYQCFH", "dateTime": 1520800414308}, {"current_trial": 180, "trialdata": {"rt": -1, "trial_type": "single-stim", "stimulus": "<p id=\"stim\">4</p>", "internal_node_id": "0.0-129.0-6.0", "time_elapsed": 887354, "key_press": -1, "trial_index": 180}, "uniqueid": "MTK3601:3VHP9MDGRORF70VIOWB9U39APYQCFH", "dateTime": 1520800415310}, {"current_trial": 181, "trialdata": {"rt": -1, "trial_type": "single-stim", "stimulus": "<p id=\"stim\">3</p>", "internal_node_id": "0.0-129.0-7.0", "time_elapsed": 888356, "key_press": -1, "trial_index": 181}, "uniqueid": "MTK3601:3VHP9MDGRORF70VIOWB9U39APYQCFH", "dateTime": 1520800416312}, {"current_trial": 182, "trialdata": {"rt": -1, "trial_type": "single-stim", "stimulus": "<p id=\"stim\">2</p>", "internal_node_id": "0.0-129.0-8.0", "time_elapsed": 889358, "key_press": -1, "trial_index": 182}, "uniqueid": "MTK3601:3VHP9MDGRORF70VIOWB9U39APYQCFH", "dateTime": 1520800417314}, {"current_trial": 183, "trialdata": {"rt": -1, "trial_type": "single-stim", "stimulus": "<p id=\"stim\">1</p>", "internal_node_id": "0.0-129.0-9.0", "time_elapsed": 890359, "key_press": -1, "trial_index": 183}, "uniqueid": "MTK3601:3VHP9MDGRORF70VIOWB9U39APYQCFH", "dateTime": 1520800418315}, {"current_trial": 184, "trialdata": {"rt": -1, "trial_type": "single-stim", "stimulus": "<p id=\"stim\">+</p>", "internal_node_id": "0.0-130.0-0.0", "time_elapsed": 891862, "key_press": -1, "type": "FIXATION", "trial_index": 184}, "uniqueid": "MTK3601:3VHP9MDGRORF70VIOWB9U39APYQCFH", "dateTime": 1520800419818}, {"current_trial": 185, "trialdata": {"rt": -1, "trial_type": "single-stim", "word": "barrel", "stimulus": "<p id=\"stim\">BARREL</p>", "conditions": [24, 800, "v", 24000], "internal_node_id": "0.0-131.0", "trial": 5, "time_elapsed": 892664, "serialpos": 0, "key_press": -1, "wordID": 90, "type": "PRES_VIS", "trial_index": 185}, "uniqueid": "MTK3601:3VHP9MDGRORF70VIOWB9U39APYQCFH", "dateTime": 1520800420621}, {"current_trial": 186, "trialdata": {"rt": -1, "trial_type": "single-stim", "word": "wrench", "stimulus": "<p id=\"stim\">WRENCH</p>", "conditions": [24, 800, "v", 24000], "internal_node_id": "0.0-132.0", "trial": 5, "time_elapsed": 894452, "serialpos": 1, "key_press": -1, "wordID": 1624, "type": "PRES_VIS", "trial_index": 186}, "uniqueid": "MTK3601:3VHP9MDGRORF70VIOWB9U39APYQCFH", "dateTime": 1520800422409}, {"current_trial": 187, "trialdata": {"rt": -1, "trial_type": "single-stim", "word": "foot", "stimulus": "<p id=\"stim\">FOOT</p>", "conditions": [24, 800, "v", 24000], "internal_node_id": "0.0-133.0", "trial": 5, "time_elapsed": 896071, "serialpos": 2, "key_press": -1, "wordID": 589, "type": "PRES_VIS", "trial_index": 187}, "uniqueid": "MTK3601:3VHP9MDGRORF70VIOWB9U39APYQCFH", "dateTime": 1520800424027}, {"current_trial": 188, "trialdata": {"rt": -1, "trial_type": "single-stim", "word": "crab", "stimulus": "<p id=\"stim\">CRAB</p>", "conditions": [24, 800, "v", 24000], "internal_node_id": "0.0-134.0", "trial": 5, "time_elapsed": 898031, "serialpos": 3, "key_press": -1, "wordID": 396, "type": "PRES_VIS", "trial_index": 188}, "uniqueid": "MTK3601:3VHP9MDGRORF70VIOWB9U39APYQCFH", "dateTime": 1520800425987}, {"current_trial": 189, "trialdata": {"rt": -1, "trial_type": "single-stim", "word": "velvet", "stimulus": "<p id=\"stim\">VELVET</p>", "conditions": [24, 800, "v", 24000], "internal_node_id": "0.0-135.0", "trial": 5, "time_elapsed": 899691, "serialpos": 4, "key_press": -1, "wordID": 1554, "type": "PRES_VIS", "trial_index": 189}, "uniqueid": "MTK3601:3VHP9MDGRORF70VIOWB9U39APYQCFH", "dateTime": 1520800427647}, {"current_trial": 190, "trialdata": {"rt": -1, "trial_type": "single-stim", "word": "possum", "stimulus": "<p id=\"stim\">POSSUM</p>", "conditions": [24, 800, "v", 24000], "internal_node_id": "0.0-136.0", "trial": 5, "time_elapsed": 901449, "serialpos": 5, "key_press": -1, "wordID": 1111, "type": "PRES_VIS", "trial_index": 190}, "uniqueid": "MTK3601:3VHP9MDGRORF70VIOWB9U39APYQCFH", "dateTime": 1520800429405}, {"current_trial": 191, "trialdata": {"rt": -1, "trial_type": "single-stim", "word": "clam", "stimulus": "<p id=\"stim\">CLAM</p>", "conditions": [24, 800, "v", 24000], "internal_node_id": "0.0-137.0", "trial": 5, "time_elapsed": 903383, "serialpos": 6, "key_press": -1, "wordID": 314, "type": "PRES_VIS", "trial_index": 191}, "uniqueid": "MTK3601:3VHP9MDGRORF70VIOWB9U39APYQCFH", "dateTime": 1520800431339}, {"current_trial": 192, "trialdata": {"rt": -1, "trial_type": "single-stim", "word": "flag", "stimulus": "<p id=\"stim\">FLAG</p>", "conditions": [24, 800, "v", 24000], "internal_node_id": "0.0-138.0", "trial": 5, "time_elapsed": 905172, "serialpos": 7, "key_press": -1, "wordID": 572, "type": "PRES_VIS", "trial_index": 192}, "uniqueid": "MTK3601:3VHP9MDGRORF70VIOWB9U39APYQCFH", "dateTime": 1520800433128}, {"current_trial": 193, "trialdata": {"rt": -1, "trial_type": "single-stim", "word": "waitress", "stimulus": "<p id=\"stim\">WAITRESS</p>", "conditions": [24, 800, "v", 24000], "internal_node_id": "0.0-139.0", "trial": 5, "time_elapsed": 906983, "serialpos": 8, "key_press": -1, "wordID": 1580, "type": "PRES_VIS", "trial_index": 193}, "uniqueid": "MTK3601:3VHP9MDGRORF70VIOWB9U39APYQCFH", "dateTime": 1520800434939}, {"current_trial": 194, "trialdata": {"rt": -1, "trial_type": "single-stim", "word": "hostess", "stimulus": "<p id=\"stim\">HOSTESS</p>", "conditions": [24, 800, "v", 24000], "internal_node_id": "0.0-140.0", "trial": 5, "time_elapsed": 908968, "serialpos": 9, "key_press": -1, "wordID": 722, "type": "PRES_VIS", "trial_index": 194}, "uniqueid": "MTK3601:3VHP9MDGRORF70VIOWB9U39APYQCFH", "dateTime": 1520800436924}, {"current_trial": 195, "trialdata": {"rt": -1, "trial_type": "single-stim", "word": "clamp", "stimulus": "<p id=\"stim\">CLAMP</p>", "conditions": [24, 800, "v", 24000], "internal_node_id": "0.0-141.0", "trial": 5, "time_elapsed": 910754, "serialpos": 10, "key_press": -1, "wordID": 315, "type": "PRES_VIS", "trial_index": 195}, "uniqueid": "MTK3601:3VHP9MDGRORF70VIOWB9U39APYQCFH", "dateTime": 1520800438710}, {"current_trial": 196, "trialdata": {"rt": -1, "trial_type": "single-stim", "word": "plaid", "stimulus": "<p id=\"stim\">PLAID</p>", "conditions": [24, 800, "v", 24000], "internal_node_id": "0.0-142.0", "trial": 5, "time_elapsed": 912604, "serialpos": 11, "key_press": -1, "wordID": 1079, "type": "PRES_VIS", "trial_index": 196}, "uniqueid": "MTK3601:3VHP9MDGRORF70VIOWB9U39APYQCFH", "dateTime": 1520800440561}, {"current_trial": 197, "trialdata": {"rt": -1, "trial_type": "single-stim", "word": "sparrow", "stimulus": "<p id=\"stim\">SPARROW</p>", "conditions": [24, 800, "v", 24000], "internal_node_id": "0.0-143.0", "trial": 5, "time_elapsed": 914545, "serialpos": 12, "key_press": -1, "wordID": 1346, "type": "PRES_VIS", "trial_index": 197}, "uniqueid": "MTK3601:3VHP9MDGRORF70VIOWB9U39APYQCFH", "dateTime": 1520800442501}, {"current_trial": 198, "trialdata": {"rt": -1, "trial_type": "single-stim", "word": "burglar", "stimulus": "<p id=\"stim\">BURGLAR</p>", "conditions": [24, 800, "v", 24000], "internal_node_id": "0.0-144.0", "trial": 5, "time_elapsed": 916409, "serialpos": 13, "key_press": -1, "wordID": 199, "type": "PRES_VIS", "trial_index": 198}, "uniqueid": "MTK3601:3VHP9MDGRORF70VIOWB9U39APYQCFH", "dateTime": 1520800444365}, {"current_trial": 199, "trialdata": {"rt": -1, "trial_type": "single-stim", "word": "rod", "stimulus": "<p id=\"stim\">ROD</p>", "conditions": [24, 800, "v", 24000], "internal_node_id": "0.0-145.0", "trial": 5, "time_elapsed": 918059, "serialpos": 14, "key_press": -1, "wordID": 1202, "type": "PRES_VIS", "trial_index": 199}, "uniqueid": "MTK3601:3VHP9MDGRORF70VIOWB9U39APYQCFH", "dateTime": 1520800446015}, {"current_trial": 200, "trialdata": {"rt": -1, "trial_type": "single-stim", "word": "victim", "stimulus": "<p id=\"stim\">VICTIM</p>", "conditions": [24, 800, "v", 24000], "internal_node_id": "0.0-146.0", "trial": 5, "time_elapsed": 919915, "serialpos": 15, "key_press": -1, "wordID": 1561, "type": "PRES_VIS", "trial_index": 200}, "uniqueid": "MTK3601:3VHP9MDGRORF70VIOWB9U39APYQCFH", "dateTime": 1520800447871}, {"current_trial": 201, "trialdata": {"rt": -1, "trial_type": "single-stim", "word": "thief", "stimulus": "<p id=\"stim\">THIEF</p>", "conditions": [24, 800, "v", 24000], "internal_node_id": "0.0-147.0", "trial": 5, "time_elapsed": 921637, "serialpos": 16, "key_press": -1, "wordID": 1455, "type": "PRES_VIS", "trial_index": 201}, "uniqueid": "MTK3601:3VHP9MDGRORF70VIOWB9U39APYQCFH", "dateTime": 1520800449593}, {"current_trial": 202, "trialdata": {"rt": -1, "trial_type": "single-stim", "word": "perfume", "stimulus": "<p id=\"stim\">PERFUME</p>", "conditions": [24, 800, "v", 24000], "internal_node_id": "0.0-148.0", "trial": 5, "time_elapsed": 923425, "serialpos": 17, "key_press": -1, "wordID": 1048, "type": "PRES_VIS", "trial_index": 202}, "uniqueid": "MTK3601:3VHP9MDGRORF70VIOWB9U39APYQCFH", "dateTime": 1520800451381}, {"current_trial": 203, "trialdata": {"rt": -1, "trial_type": "single-stim", "word": "orange", "stimulus": "<p id=\"stim\">ORANGE</p>", "conditions": [24, 800, "v", 24000], "internal_node_id": "0.0-149.0", "trial": 5, "time_elapsed": 925159, "serialpos": 18, "key_press": -1, "wordID": 979, "type": "PRES_VIS", "trial_index": 203}, "uniqueid": "MTK3601:3VHP9MDGRORF70VIOWB9U39APYQCFH", "dateTime": 1520800453116}, {"current_trial": 204, "trialdata": {"rt": -1, "trial_type": "single-stim", "word": "shorts", "stimulus": "<p id=\"stim\">SHORTS</p>", "conditions": [24, 800, "v", 24000], "internal_node_id": "0.0-150.0", "trial": 5, "time_elapsed": 926953, "serialpos": 19, "key_press": -1, "wordID": 1292, "type": "PRES_VIS", "trial_index": 204}, "uniqueid": "MTK3601:3VHP9MDGRORF70VIOWB9U39APYQCFH", "dateTime": 1520800454909}, {"current_trial": 205, "trialdata": {"rt": -1, "trial_type": "single-stim", "word": "machine", "stimulus": "<p id=\"stim\">MACHINE</p>", "conditions": [24, 800, "v", 24000], "internal_node_id": "0.0-151.0", "trial": 5, "time_elapsed": 928811, "serialpos": 20, "key_press": -1, "wordID": 851, "type": "PRES_VIS", "trial_index": 205}, "uniqueid": "MTK3601:3VHP9MDGRORF70VIOWB9U39APYQCFH", "dateTime": 1520800456768}, {"current_trial": 206, "trialdata": {"rt": -1, "trial_type": "single-stim", "word": "lagoon", "stimulus": "<p id=\"stim\">LAGOON</p>", "conditions": [24, 800, "v", 24000], "internal_node_id": "0.0-152.0", "trial": 5, "time_elapsed": 930806, "serialpos": 21, "key_press": -1, "wordID": 794, "type": "PRES_VIS", "trial_index": 206}, "uniqueid": "MTK3601:3VHP9MDGRORF70VIOWB9U39APYQCFH", "dateTime": 1520800458762}, {"current_trial": 207, "trialdata": {"rt": -1, "trial_type": "single-stim", "word": "marsh", "stimulus": "<p id=\"stim\">MARSH</p>", "conditions": [24, 800, "v", 24000], "internal_node_id": "0.0-153.0", "trial": 5, "time_elapsed": 932693, "serialpos": 22, "key_press": -1, "wordID": 873, "type": "PRES_VIS", "trial_index": 207}, "uniqueid": "MTK3601:3VHP9MDGRORF70VIOWB9U39APYQCFH", "dateTime": 1520800460649}, {"current_trial": 208, "trialdata": {"rt": -1, "trial_type": "single-stim", "word": "barley", "stimulus": "<p id=\"stim\">BARLEY</p>", "conditions": [24, 800, "v", 24000], "internal_node_id": "0.0-154.0", "trial": 5, "time_elapsed": 934598, "serialpos": 23, "key_press": -1, "wordID": 87, "type": "PRES_VIS", "trial_index": 208}, "uniqueid": "MTK3601:3VHP9MDGRORF70VIOWB9U39APYQCFH", "dateTime": 1520800462554}, {"current_trial": 209, "trialdata": {"rt": -1, "trial_type": "single-stim", "stimulus": "", "internal_node_id": "0.0-155.0-0.0", "time_elapsed": 937045, "key_press": -1, "type": "PRE_RECALL_DELAY", "trial_index": 209}, "uniqueid": "MTK3601:3VHP9MDGRORF70VIOWB9U39APYQCFH", "dateTime": 1520800465001}, {"current_trial": 210, "trialdata": {"rt": -1000, "trial_type": "single-audio", "stimulus": "/static/audio/400Hz.wav", "internal_node_id": "0.0-156.0", "time_elapsed": 937547, "key_press": -1, "type": "PRE_RECALL_ALERT", "trial_index": 210}, "uniqueid": "MTK3601:3VHP9MDGRORF70VIOWB9U39APYQCFH", "dateTime": 1520800465503}, {"current_trial": 211, "trialdata": {"rt": [4736, 8023, 12807, 16703, 18991, 19807, 26848, 30720, 33663, 36311, 39831, 43632, 45960, 49256, 53863], "recwords": ["barrel", "wrench", "foot", "clam", "crab", "c", "clamp", "plaid", "waitess", "hostess", "burglur", "victim", "thief", "orange", "shorts"], "key_times": [2424, 2583, 2911, 3039, 3951, 4063, 4736, 5959, 6183, 6415, 6687, 6991, 7327, 8023, 11335, 11895, 12047, 12303, 12807, 13423, 14543, 14768, 14991, 16703, 17320, 17607, 17871, 18551, 18991, 19504, 19807, 20055, 20279, 20527, 21655, 21920, 22095, 22279, 22825, 23031, 23216, 23376, 24063, 25151, 25719, 26015, 26351, 26848, 29135, 29263, 29399, 29847, 30471, 30720, 31223, 31543, 31847, 32216, 32687, 33048, 33200, 33663, 34367, 34583, 34945, 35296, 35551, 35895, 36055, 36311, 36831, 37159, 37479, 37791, 38255, 39071, 39344, 39831, 40575, 40800, 41135, 41472, 41647, 41911, 43632, 44527, 44687, 45111, 45343, 45600, 45960, 46408, 46672, 47311, 47816, 48216, 48368, 49256, 51015, 51191, 51847, 52175, 52391, 53040, 53863, 55904, 56368, 56632, 56967, 57175], "trial_type": "free-recall", "conditions": [24, 800, "v", 24000], "internal_node_id": "0.0-157.0-0.0", "key_presses": [66, 65, 82, 82, 69, 76, 13, 87, 82, 69, 78, 67, 72, 13, 70, 79, 79, 84, 13, 67, 76, 65, 77, 13, 67, 82, 65, 66, 13, 67, 186, 65, 77, 79, 8, 8, 8, 8, 67, 76, 20, 77, 20, 8, 65, 77, 80, 13, 80, 76, 65, 73, 68, 13, 87, 65, 73, 84, 69, 83, 83, 13, 72, 79, 83, 84, 69, 83, 83, 13, 66, 85, 82, 71, 76, 85, 82, 13, 86, 73, 67, 84, 73, 77, 13, 84, 72, 73, 69, 70, 13, 79, 82, 65, 78, 71, 69, 13, 83, 72, 79, 82, 84, 83, 13, 77, 65, 82, 83, 72], "trial": 5, "time_elapsed": 997552, "type": "FREE_RECALL", "trial_index": 211}, "uniqueid": "MTK3601:3VHP9MDGRORF70VIOWB9U39APYQCFH", "dateTime": 1520800525514}, {"current_trial": 212, "trialdata": {"rt": 5533, "trial_type": "text", "internal_node_id": "0.0-158.0", "time_elapsed": 1005093, "key_press": 46, "type": "INSTRUCTIONS", "trial_index": 212}, "uniqueid": "MTK3601:3VHP9MDGRORF70VIOWB9U39APYQCFH", "dateTime": 1520800533049}, {"current_trial": 213, "trialdata": {"rt": [2070, 3972, 5861, 7679, 9100, 11100], "trial_type": "math-distractor", "key_times": [1581, 1852, 2070, 3540, 3756, 3972, 5364, 5644, 5861, 7260, 7513, 7679, 8837, 9100, 10630, 10837, 11100], "responses": ["19", "21", "17", "12", "8", "14"], "num2": [3, 6, 8, 7, 1, 2, 8], "num3": [9, 7, 5, 3, 1, 8, 6], "conditions": [12, 800, "v", 12000], "internal_node_id": "0.0-159.0", "key_presses": [97, 105, 13, 98, 97, 13, 97, 103, 13, 97, 98, 13, 104, 13, 97, 100, 13], "trial": 6, "time_elapsed": 1019098, "type": "DISTRACTOR", "trial_index": 213, "num1": [7, 8, 4, 2, 6, 4, 5]}, "uniqueid": "MTK3601:3VHP9MDGRORF70VIOWB9U39APYQCFH", "dateTime": 1520800547054}, {"current_trial": 214, "trialdata": {"rt": -1, "trial_type": "single-stim", "stimulus": "<p id=\"stim\">10</p>", "internal_node_id": "0.0-160.0-0.0", "time_elapsed": 1022101, "key_press": -1, "trial_index": 214}, "uniqueid": "MTK3601:3VHP9MDGRORF70VIOWB9U39APYQCFH", "dateTime": 1520800550057}, {"current_trial": 215, "trialdata": {"rt": -1, "trial_type": "single-stim", "stimulus": "<p id=\"stim\">9</p>", "internal_node_id": "0.0-160.0-1.0", "time_elapsed": 1023101, "key_press": -1, "trial_index": 215}, "uniqueid": "MTK3601:3VHP9MDGRORF70VIOWB9U39APYQCFH", "dateTime": 1520800551058}, {"current_trial": 216, "trialdata": {"rt": -1, "trial_type": "single-stim", "stimulus": "<p id=\"stim\">8</p>", "internal_node_id": "0.0-160.0-2.0", "time_elapsed": 1024104, "key_press": -1, "trial_index": 216}, "uniqueid": "MTK3601:3VHP9MDGRORF70VIOWB9U39APYQCFH", "dateTime": 1520800552060}, {"current_trial": 217, "trialdata": {"rt": -1, "trial_type": "single-stim", "stimulus": "<p id=\"stim\">7</p>", "internal_node_id": "0.0-160.0-3.0", "time_elapsed": 1025106, "key_press": -1, "trial_index": 217}, "uniqueid": "MTK3601:3VHP9MDGRORF70VIOWB9U39APYQCFH", "dateTime": 1520800553062}, {"current_trial": 218, "trialdata": {"rt": -1, "trial_type": "single-stim", "stimulus": "<p id=\"stim\">6</p>", "internal_node_id": "0.0-160.0-4.0", "time_elapsed": 1026108, "key_press": -1, "trial_index": 218}, "uniqueid": "MTK3601:3VHP9MDGRORF70VIOWB9U39APYQCFH", "dateTime": 1520800554064}, {"current_trial": 219, "trialdata": {"rt": -1, "trial_type": "single-stim", "stimulus": "<p id=\"stim\">5</p>", "internal_node_id": "0.0-160.0-5.0", "time_elapsed": 1027110, "key_press": -1, "trial_index": 219}, "uniqueid": "MTK3601:3VHP9MDGRORF70VIOWB9U39APYQCFH", "dateTime": 1520800555067}, {"current_trial": 220, "trialdata": {"rt": -1, "trial_type": "single-stim", "stimulus": "<p id=\"stim\">4</p>", "internal_node_id": "0.0-160.0-6.0", "time_elapsed": 1028113, "key_press": -1, "trial_index": 220}, "uniqueid": "MTK3601:3VHP9MDGRORF70VIOWB9U39APYQCFH", "dateTime": 1520800556069}, {"current_trial": 221, "trialdata": {"rt": -1, "trial_type": "single-stim", "stimulus": "<p id=\"stim\">3</p>", "internal_node_id": "0.0-160.0-7.0", "time_elapsed": 1029115, "key_press": -1, "trial_index": 221}, "uniqueid": "MTK3601:3VHP9MDGRORF70VIOWB9U39APYQCFH", "dateTime": 1520800557071}, {"current_trial": 222, "trialdata": {"rt": -1, "trial_type": "single-stim", "stimulus": "<p id=\"stim\">2</p>", "internal_node_id": "0.0-160.0-8.0", "time_elapsed": 1030117, "key_press": -1, "trial_index": 222}, "uniqueid": "MTK3601:3VHP9MDGRORF70VIOWB9U39APYQCFH", "dateTime": 1520800558073}, {"current_trial": 223, "trialdata": {"rt": -1, "trial_type": "single-stim", "stimulus": "<p id=\"stim\">1</p>", "internal_node_id": "0.0-160.0-9.0", "time_elapsed": 1031119, "key_press": -1, "trial_index": 223}, "uniqueid": "MTK3601:3VHP9MDGRORF70VIOWB9U39APYQCFH", "dateTime": 1520800559075}, {"current_trial": 224, "trialdata": {"rt": -1, "trial_type": "single-stim", "stimulus": "<p id=\"stim\">+</p>", "internal_node_id": "0.0-161.0-0.0", "time_elapsed": 1032621, "key_press": -1, "type": "FIXATION", "trial_index": 224}, "uniqueid": "MTK3601:3VHP9MDGRORF70VIOWB9U39APYQCFH", "dateTime": 1520800560577}, {"current_trial": 225, "trialdata": {"rt": -1, "trial_type": "single-stim", "word": "taxi", "stimulus": "<p id=\"stim\">TAXI</p>", "conditions": [12, 800, "v", 12000], "internal_node_id": "0.0-162.0", "trial": 6, "time_elapsed": 1033423, "serialpos": 0, "key_press": -1, "wordID": 1437, "type": "PRES_VIS", "trial_index": 225}, "uniqueid": "MTK3601:3VHP9MDGRORF70VIOWB9U39APYQCFH", "dateTime": 1520800561379}, {"current_trial": 226, "trialdata": {"rt": -1, "trial_type": "single-stim", "word": "paddle", "stimulus": "<p id=\"stim\">PADDLE</p>", "conditions": [12, 800, "v", 12000], "internal_node_id": "0.0-163.0", "trial": 6, "time_elapsed": 1035101, "serialpos": 1, "key_press": -1, "wordID": 999, "type": "PRES_VIS", "trial_index": 226}, "uniqueid": "MTK3601:3VHP9MDGRORF70VIOWB9U39APYQCFH", "dateTime": 1520800563057}, {"current_trial": 227, "trialdata": {"rt": -1, "trial_type": "single-stim", "word": "primate", "stimulus": "<p id=\"stim\">PRIMATE</p>", "conditions": [12, 800, "v", 12000], "internal_node_id": "0.0-164.0", "trial": 6, "time_elapsed": 1036738, "serialpos": 2, "key_press": -1, "wordID": 1122, "type": "PRES_VIS", "trial_index": 227}, "uniqueid": "MTK3601:3VHP9MDGRORF70VIOWB9U39APYQCFH", "dateTime": 1520800564694}, {"current_trial": 228, "trialdata": {"rt": -1, "trial_type": "single-stim", "word": "lumber", "stimulus": "<p id=\"stim\">LUMBER</p>", "conditions": [12, 800, "v", 12000], "internal_node_id": "0.0-165.0", "trial": 6, "time_elapsed": 1038532, "serialpos": 3, "key_press": -1, "wordID": 847, "type": "PRES_VIS", "trial_index": 228}, "uniqueid": "MTK3601:3VHP9MDGRORF70VIOWB9U39APYQCFH", "dateTime": 1520800566488}, {"current_trial": 229, "trialdata": {"rt": -1, "trial_type": "single-stim", "word": "bank", "stimulus": "<p id=\"stim\">BANK</p>", "conditions": [12, 800, "v", 12000], "internal_node_id": "0.0-166.0", "trial": 6, "time_elapsed": 1040352, "serialpos": 4, "key_press": -1, "wordID": 82, "type": "PRES_VIS", "trial_index": 229}, "uniqueid": "MTK3601:3VHP9MDGRORF70VIOWB9U39APYQCFH", "dateTime": 1520800568308}, {"current_trial": 230, "trialdata": {"rt": -1, "trial_type": "single-stim", "word": "softball", "stimulus": "<p id=\"stim\">SOFTBALL</p>", "conditions": [12, 800, "v", 12000], "internal_node_id": "0.0-167.0", "trial": 6, "time_elapsed": 1042072, "serialpos": 5, "key_press": -1, "wordID": 1342, "type": "PRES_VIS", "trial_index": 230}, "uniqueid": "MTK3601:3VHP9MDGRORF70VIOWB9U39APYQCFH", "dateTime": 1520800570028}, {"current_trial": 231, "trialdata": {"rt": -1, "trial_type": "single-stim", "word": "bureau", "stimulus": "<p id=\"stim\">BUREAU</p>", "conditions": [12, 800, "v", 12000], "internal_node_id": "0.0-168.0", "trial": 6, "time_elapsed": 1044006, "serialpos": 6, "key_press": -1, "wordID": 198, "type": "PRES_VIS", "trial_index": 231}, "uniqueid": "MTK3601:3VHP9MDGRORF70VIOWB9U39APYQCFH", "dateTime": 1520800571962}, {"current_trial": 232, "trialdata": {"rt": -1, "trial_type": "single-stim", "word": "banker", "stimulus": "<p id=\"stim\">BANKER</p>", "conditions": [12, 800, "v", 12000], "internal_node_id": "0.0-169.0", "trial": 6, "time_elapsed": 1045888, "serialpos": 7, "key_press": -1, "wordID": 83, "type": "PRES_VIS", "trial_index": 232}, "uniqueid": "MTK3601:3VHP9MDGRORF70VIOWB9U39APYQCFH", "dateTime": 1520800573844}, {"current_trial": 233, "trialdata": {"rt": -1, "trial_type": "single-stim", "word": "pepper", "stimulus": "<p id=\"stim\">PEPPER</p>", "conditions": [12, 800, "v", 12000], "internal_node_id": "0.0-170.0", "trial": 6, "time_elapsed": 1047751, "serialpos": 8, "key_press": -1, "wordID": 1046, "type": "PRES_VIS", "trial_index": 233}, "uniqueid": "MTK3601:3VHP9MDGRORF70VIOWB9U39APYQCFH", "dateTime": 1520800575707}, {"current_trial": 234, "trialdata": {"rt": -1, "trial_type": "single-stim", "word": "parsley", "stimulus": "<p id=\"stim\">PARSLEY</p>", "conditions": [12, 800, "v", 12000], "internal_node_id": "0.0-171.0", "trial": 6, "time_elapsed": 1049354, "serialpos": 9, "key_press": -1, "wordID": 1015, "type": "PRES_VIS", "trial_index": 234}, "uniqueid": "MTK3601:3VHP9MDGRORF70VIOWB9U39APYQCFH", "dateTime": 1520800577310}, {"current_trial": 235, "trialdata": {"rt": -1, "trial_type": "single-stim", "word": "football", "stimulus": "<p id=\"stim\">FOOTBALL</p>", "conditions": [12, 800, "v", 12000], "internal_node_id": "0.0-172.0", "trial": 6, "time_elapsed": 1051165, "serialpos": 10, "key_press": -1, "wordID": 590, "type": "PRES_VIS", "trial_index": 235}, "uniqueid": "MTK3601:3VHP9MDGRORF70VIOWB9U39APYQCFH", "dateTime": 1520800579121}, {"current_trial": 236, "trialdata": {"rt": -1, "trial_type": "single-stim", "word": "diver", "stimulus": "<p id=\"stim\">DIVER</p>", "conditions": [12, 800, "v", 12000], "internal_node_id": "0.0-173.0", "trial": 6, "time_elapsed": 1052828, "serialpos": 11, "key_press": -1, "wordID": 475, "type": "PRES_VIS", "trial_index": 236}, "uniqueid": "MTK3601:3VHP9MDGRORF70VIOWB9U39APYQCFH", "dateTime": 1520800580785}, {"current_trial": 237, "trialdata": {"rt": -1, "trial_type": "single-stim", "stimulus": "", "internal_node_id": "0.0-174.0-0.0", "time_elapsed": 1055304, "key_press": -1, "type": "PRE_RECALL_DELAY", "trial_index": 237}, "uniqueid": "MTK3601:3VHP9MDGRORF70VIOWB9U39APYQCFH", "dateTime": 1520800583261}, {"current_trial": 238, "trialdata": {"rt": -1000, "trial_type": "single-audio", "stimulus": "/static/audio/400Hz.wav", "internal_node_id": "0.0-175.0", "time_elapsed": 1055807, "key_press": -1, "type": "PRE_RECALL_ALERT", "trial_index": 238}, "uniqueid": "MTK3601:3VHP9MDGRORF70VIOWB9U39APYQCFH", "dateTime": 1520800583763}, {"current_trial": 239, "trialdata": {"rt": [4594, 7322, 13722, 18842, 22178, 27274, 32178, 39314], "recwords": ["taxi", "paddle", "bank", "softball", "bureau", "pepper", "football", "diver"], "key_times": [2123, 2810, 3004, 3410, 4594, 5610, 6066, 6298, 6474, 6650, 6898, 7322, 11506, 11866, 12122, 12483, 13722, 14410, 14651, 14954, 15227, 15674, 16026, 16459, 16690, 18842, 19578, 19818, 20058, 20522, 20802, 20979, 22178, 23018, 23338, 24099, 24234, 24754, 25667, 25850, 26074, 27274, 29698, 29954, 30115, 30458, 30786, 31402, 31715, 31889, 32178, 32410, 32858, 33010, 33218, 33386, 39314], "trial_type": "free-recall", "conditions": [12, 800, "v", 12000], "internal_node_id": "0.0-176.0-0.0", "key_presses": [84, 65, 88, 73, 13, 80, 65, 68, 68, 76, 69, 13, 66, 65, 78, 75, 13, 83, 79, 70, 84, 66, 65, 76, 76, 13, 66, 85, 82, 69, 65, 85, 13, 80, 82, 8, 69, 80, 80, 69, 82, 13, 70, 79, 79, 84, 66, 65, 76, 76, 32, 68, 73, 86, 69, 82, 13], "trial": 6, "time_elapsed": 1115811, "type": "FREE_RECALL", "trial_index": 239}, "uniqueid": "MTK3601:3VHP9MDGRORF70VIOWB9U39APYQCFH", "dateTime": 1520800643772}, {"current_trial": 240, "trialdata": {"rt": 2850, "trial_type": "text", "internal_node_id": "0.0-177.0", "time_elapsed": 1120669, "key_press": 13, "type": "INSTRUCTIONS", "trial_index": 240}, "uniqueid": "MTK3601:3VHP9MDGRORF70VIOWB9U39APYQCFH", "dateTime": 1520800648625}, {"current_trial": 241, "trialdata": {"rt": [1444, 3485, 5093, 7221, 9077, 10765, 12372, 14045, 15821, 17982, 19892, 23301], "trial_type": "math-distractor", "key_times": [1221, 1444, 3045, 3269, 3485, 4605, 4901, 5093, 6781, 6981, 7221, 8653, 8860, 9077, 10309, 10596, 10765, 11941, 12141, 12372, 13604, 13837, 14045, 15381, 15573, 15821, 17501, 17677, 17982, 19453, 19636, 19892, 21926, 22893, 23301], "responses": ["6", "14", "16", "24", "15", "13", "15", "12", "12", "18", "15", "26"], "num2": [1, 5, 4, 8, 3, 3, 3, 7, 3, 5, 3, 8, 2], "num3": [3, 7, 4, 7, 4, 6, 6, 3, 6, 4, 7, 9, 1], "conditions": [24, 1600, "v", 24000], "internal_node_id": "0.0-178.0", "key_presses": [102, 13, 97, 100, 13, 97, 102, 13, 98, 100, 13, 97, 101, 13, 97, 99, 13, 97, 101, 13, 97, 98, 13, 97, 98, 13, 97, 104, 13, 97, 101, 13, 98, 102, 13], "trial": 7, "time_elapsed": 1146673, "type": "DISTRACTOR", "trial_index": 241, "num1": [2, 2, 8, 9, 8, 4, 6, 2, 3, 9, 5, 8, 9]}, "uniqueid": "MTK3601:3VHP9MDGRORF70VIOWB9U39APYQCFH", "dateTime": 1520800674629}, {"current_trial": 242, "trialdata": {"rt": -1, "trial_type": "single-stim", "stimulus": "<p id=\"stim\">10</p>", "internal_node_id": "0.0-179.0-0.0", "time_elapsed": 1149675, "key_press": -1, "trial_index": 242}, "uniqueid": "MTK3601:3VHP9MDGRORF70VIOWB9U39APYQCFH", "dateTime": 1520800677631}, {"current_trial": 243, "trialdata": {"rt": -1, "trial_type": "single-stim", "stimulus": "<p id=\"stim\">9</p>", "internal_node_id": "0.0-179.0-1.0", "time_elapsed": 1150677, "key_press": -1, "trial_index": 243}, "uniqueid": "MTK3601:3VHP9MDGRORF70VIOWB9U39APYQCFH", "dateTime": 1520800678633}, {"current_trial": 244, "trial