{"assignmentId": "369J354OFEHW5JICPP4OQOHCUM1G64", "workerId": "MTK3481", "questiondata": {"origin": "United States", "strat-rehearsal": "0", "marital": "Married/Domestic Partnership", "education": "Associate degree", "ethnicity": "Not Hispanic", "color_depth": 24, "distracted": "No", "wrote-notes": "Yes", "strat-other": "", "screen_width": 1920, "avail_screen_width": 1920, "avail_screen_height": 1040, "strat-image": "60", "language": "English", "gender": "Female", "age": "42", "gender_other": "", "race": ["White"], "strat-categorize": "68", "pixel_depth": 24, "strat-spatial": "0", "strat-story": "17", "race_other": "", "screen_height": 1080}, "bonus": 0, "hitId": "3UEBBGULPFV96AEOKLR7ZPZWBKXUFL", "counterbalance": 1284, "useragent": "Mozilla/5.0 (Windows NT 10.0; Win64; x64) AppleWebKit/537.36 (KHTML, like Gecko) Chrome/64.0.3282.186 Safari/537.36", "eventdata": [{"eventtype": "initialized", "interval": 0, "value": null, "timestamp": 1520618778443}, {"eventtype": "window_resize", "interval": 0, "value": [1920, 1033], "timestamp": 1520618778443}, {"eventtype": "focus", "interval": 3058921, "value": "off", "timestamp": 1520621837364}, {"eventtype": "focus", "interval": 16071, "value": "on", "timestamp": 1520621853435}], "data": [{"current_trial": 0, "trialdata": {"rt": 2956, "trial_type": "text", "internal_node_id": "0.0-0.0", "time_elapsed": 2958, "key_press": 32, "type": "INSTRUCTIONS", "trial_index": 0}, "uniqueid": "MTK3481:369J354OFEHW5JICPP4OQOHCUM1G64", "dateTime": 1520618791696}, {"current_trial": 1, "trialdata": {"rt": 18626, "trial_type": "text", "internal_node_id": "0.0-1.0", "time_elapsed": 21588, "key_press": 32, "type": "INSTRUCTIONS", "trial_index": 1}, "uniqueid": "MTK3481:369J354OFEHW5JICPP4OQOHCUM1G64", "dateTime": 1520618810324}, {"current_trial": 2, "trialdata": {"rt": [6017], "trial_type": "audio-test", "responses": ["ocean"], "internal_node_id": "0.0-2.0", "time_elapsed": 27626, "type": "AUDIO_TEST", "trial_index": 2}, "uniqueid": "MTK3481:369J354OFEHW5JICPP4OQOHCUM1G64", "dateTime": 1520618816362}, {"current_trial": 3, "trialdata": {"rt": [5062], "trial_type": "audio-test", "responses": ["crystal"], "internal_node_id": "0.0-3.0", "time_elapsed": 32692, "type": "AUDIO_TEST", "trial_index": 3}, "uniqueid": "MTK3481:369J354OFEHW5JICPP4OQOHCUM1G64", "dateTime": 1520618821428}, {"current_trial": 4, "trialdata": {"rt": [5012], "trial_type": "audio-test", "responses": ["spice"], "internal_node_id": "0.0-4.0", "time_elapsed": 37706, "type": "AUDIO_TEST", "trial_index": 4}, "uniqueid": "MTK3481:369J354OFEHW5JICPP4OQOHCUM1G64", "dateTime": 1520618826442}, {"current_trial": 5, "trialdata": {"rt": 29525, "trial_type": "survey-text", "responses": "{\"Q0\":\"12:35 am\",\"Q1\":\"5:40 am\",\"Q2\":\"4\"}", "internal_node_id": "0.0-5.0", "time_elapsed": 67986, "type": "SLEEP_SURVEY", "trial_index": 5}, "uniqueid": "MTK3481:369J354OFEHW5JICPP4OQOHCUM1G64", "dateTime": 1520618856722}, {"current_trial": 6, "trialdata": {"rt": 31632, "trial_type": "text", "internal_node_id": "0.0-6.0", "time_elapsed": 100620, "key_press": 32, "type": "INSTRUCTIONS", "trial_index": 6}, "uniqueid": "MTK3481:369J354OFEHW5JICPP4OQOHCUM1G64", "dateTime": 1520618889356}, {"current_trial": 7, "trialdata": {"rt": 22377, "trial_type": "text", "internal_node_id": "0.0-7.0", "time_elapsed": 123500, "key_press": 32, "type": "INSTRUCTIONS", "trial_index": 7}, "uniqueid": "MTK3481:369J354OFEHW5JICPP4OQOHCUM1G64", "dateTime": 1520618912236}, {"current_trial": 8, "trialdata": {"rt": 12793, "trial_type": "text", "internal_node_id": "0.0-8.0", "time_elapsed": 136795, "key_press": 32, "type": "INSTRUCTIONS", "trial_index": 8}, "uniqueid": "MTK3481:369J354OFEHW5JICPP4OQOHCUM1G64", "dateTime": 1520618925531}, {"current_trial": 9, "trialdata": {"rt": [9104, 12080], "trial_type": "math-distractor", "key_times": [7666, 7801, 9104, 11289, 12080, 17017, 17369], "responses": ["22", "6"], "num2": [8, 3, 8], "num3": [9, 2, 4], "conditions": [18, 1200, "a", 18000], "internal_node_id": "0.0-9.0", "key_presses": [98, 98, 13, 102, 13, 97, 105], "trial": 0, "time_elapsed": 155820, "type": "DISTRACTOR", "trial_index": 9, "num1": [5, 1, 7]}, "uniqueid": "MTK3481:369J354OFEHW5JICPP4OQOHCUM1G64", "dateTime": 1520618944556}, {"current_trial": 10, "trialdata": {"rt": -1, "trial_type": "single-stim", "stimulus": "<p id=\"stim\">10</p>", "internal_node_id": "0.0-10.0-0.0", "time_elapsed": 158826, "key_press": -1, "trial_index": 10}, "uniqueid": "MTK3481:369J354OFEHW5JICPP4OQOHCUM1G64", "dateTime": 1520618947562}, {"current_trial": 11, "trialdata": {"rt": -1, "trial_type": "single-stim", "stimulus": "<p id=\"stim\">9</p>", "internal_node_id": "0.0-10.0-1.0", "time_elapsed": 159828, "key_press": -1, "trial_index": 11}, "uniqueid": "MTK3481:369J354OFEHW5JICPP4OQOHCUM1G64", "dateTime": 1520618948564}, {"current_trial": 12, "trialdata": {"rt": -1, "trial_type": "single-stim", "stimulus": "<p id=\"stim\">8</p>", "internal_node_id": "0.0-10.0-2.0", "time_elapsed": 160829, "key_press": -1, "trial_index": 12}, "uniqueid": "MTK3481:369J354OFEHW5JICPP4OQOHCUM1G64", "dateTime": 1520618949565}, {"current_trial": 13, "trialdata": {"rt": -1, "trial_type": "single-stim", "stimulus": "<p id=\"stim\">7</p>", "internal_node_id": "0.0-10.0-3.0", "time_elapsed": 161832, "key_press": -1, "trial_index": 13}, "uniqueid": "MTK3481:369J354OFEHW5JICPP4OQOHCUM1G64", "dateTime": 1520618950568}, {"current_trial": 14, "trialdata": {"rt": -1, "trial_type": "single-stim", "stimulus": "<p id=\"stim\">6</p>", "internal_node_id": "0.0-10.0-4.0", "time_elapsed": 162834, "key_press": -1, "trial_index": 14}, "uniqueid": "MTK3481:369J354OFEHW5JICPP4OQOHCUM1G64", "dateTime": 1520618951570}, {"current_trial": 15, "trialdata": {"rt": -1, "trial_type": "single-stim", "stimulus": "<p id=\"stim\">5</p>", "internal_node_id": "0.0-10.0-5.0", "time_elapsed": 163836, "key_press": -1, "trial_index": 15}, "uniqueid": "MTK3481:369J354OFEHW5JICPP4OQOHCUM1G64", "dateTime": 1520618952572}, {"current_trial": 16, "trialdata": {"rt": -1, "trial_type": "single-stim", "stimulus": "<p id=\"stim\">4</p>", "internal_node_id": "0.0-10.0-6.0", "time_elapsed": 164838, "key_press": -1, "trial_index": 16}, "uniqueid": "MTK3481:369J354OFEHW5JICPP4OQOHCUM1G64", "dateTime": 1520618953574}, {"current_trial": 17, "trialdata": {"rt": -1, "trial_type": "single-stim", "stimulus": "<p id=\"stim\">3</p>", "internal_node_id": "0.0-10.0-7.0", "time_elapsed": 165841, "key_press": -1, "trial_index": 17}, "uniqueid": "MTK3481:369J354OFEHW5JICPP4OQOHCUM1G64", "dateTime": 1520618954577}, {"current_trial": 18, "trialdata": {"rt": -1, "trial_type": "single-stim", "stimulus": "<p id=\"stim\">2</p>", "internal_node_id": "0.0-10.0-8.0", "time_elapsed": 166843, "key_press": -1, "trial_index": 18}, "uniqueid": "MTK3481:369J354OFEHW5JICPP4OQOHCUM1G64", "dateTime": 1520618955579}, {"current_trial": 19, "trialdata": {"rt": -1, "trial_type": "single-stim", "stimulus": "<p id=\"stim\">1</p>", "internal_node_id": "0.0-10.0-9.0", "time_elapsed": 167845, "key_press": -1, "trial_index": 19}, "uniqueid": "MTK3481:369J354OFEHW5JICPP4OQOHCUM1G64", "dateTime": 1520618956581}, {"current_trial": 20, "trialdata": {"rt": -1, "trial_type": "single-stim", "stimulus": "<p id=\"stim\">+</p>", "internal_node_id": "0.0-11.0-0.0", "time_elapsed": 169347, "key_press": -1, "type": "FIXATION", "trial_index": 20}, "uniqueid": "MTK3481:369J354OFEHW5JICPP4OQOHCUM1G64", "dateTime": 1520618958083}, {"current_trial": 21, "trialdata": {"rt": -1000, "trial_type": "single-audio", "word": "brook", "stimulus": "/static/audio/wordpool/BROOK.wav", "conditions": [18, 1200, "a", 18000], "internal_node_id": "0.0-12.0", "trial": 0, "time_elapsed": 171675, "serialpos": 0, "key_press": -1, "wordID": 176, "type": "PRES_AUD", "trial_index": 21}, "uniqueid": "MTK3481:369J354OFEHW5JICPP4OQOHCUM1G64", "dateTime": 1520618960411}, {"current_trial": 22, "trialdata": {"rt": -1000, "trial_type": "single-audio", "word": "toaster", "stimulus": "/static/audio/wordpool/TOASTER.wav", "conditions": [18, 1200, "a", 18000], "internal_node_id": "0.0-13.0", "trial": 0, "time_elapsed": 174060, "serialpos": 1, "key_press": -1, "wordID": 1471, "type": "PRES_AUD", "trial_index": 22}, "uniqueid": "MTK3481:369J354OFEHW5JICPP4OQOHCUM1G64", "dateTime": 1520618962796}, {"current_trial": 23, "trialdata": {"rt": -1000, "trial_type": "single-audio", "word": "cattle", "stimulus": "/static/audio/wordpool/CATTLE.wav", "conditions": [18, 1200, "a", 18000], "internal_node_id": "0.0-14.0", "trial": 0, "time_elapsed": 176414, "serialpos": 2, "key_press": -1, "wordID": 260, "type": "PRES_AUD", "trial_index": 23}, "uniqueid": "MTK3481:369J354OFEHW5JICPP4OQOHCUM1G64", "dateTime": 1520618965151}, {"current_trial": 24, "trialdata": {"rt": -1000, "trial_type": "single-audio", "word": "crab", "stimulus": "/static/audio/wordpool/CRAB.wav", "conditions": [18, 1200, "a", 18000], "internal_node_id": "0.0-15.0", "trial": 0, "time_elapsed": 178432, "serialpos": 3, "key_press": -1, "wordID": 396, "type": "PRES_AUD", "trial_index": 24}, "uniqueid": "MTK3481:369J354OFEHW5JICPP4OQOHCUM1G64", "dateTime": 1520618967168}, {"current_trial": 25, "trialdata": {"rt": -1000, "trial_type": "single-audio", "word": "slime", "stimulus": "/static/audio/wordpool/SLIME.wav", "conditions": [18, 1200, "a", 18000], "internal_node_id": "0.0-16.0", "trial": 0, "time_elapsed": 180509, "serialpos": 4, "key_press": -1, "wordID": 1326, "type": "PRES_AUD", "trial_index": 25}, "uniqueid": "MTK3481:369J354OFEHW5JICPP4OQOHCUM1G64", "dateTime": 1520618969245}, {"current_trial": 26, "trialdata": {"rt": -1000, "trial_type": "single-audio", "word": "tunnel", "stimulus": "/static/audio/wordpool/TUNNEL.wav", "conditions": [18, 1200, "a", 18000], "internal_node_id": "0.0-17.0", "trial": 0, "time_elapsed": 182837, "serialpos": 5, "key_press": -1, "wordID": 1518, "type": "PRES_AUD", "trial_index": 26}, "uniqueid": "MTK3481:369J354OFEHW5JICPP4OQOHCUM1G64", "dateTime": 1520618971573}, {"current_trial": 27, "trialdata": {"rt": -1000, "trial_type": "single-audio", "word": "child", "stimulus": "/static/audio/wordpool/CHILD.wav", "conditions": [18, 1200, "a", 18000], "internal_node_id": "0.0-18.0", "trial": 0, "time_elapsed": 185066, "serialpos": 6, "key_press": -1, "wordID": 298, "type": "PRES_AUD", "trial_index": 27}, "uniqueid": "MTK3481:369J354OFEHW5JICPP4OQOHCUM1G64", "dateTime": 1520618973802}, {"current_trial": 28, "trialdata": {"rt": -1000, "trial_type": "single-audio", "word": "bathtub", "stimulus": "/static/audio/wordpool/BATHTUB.wav", "conditions": [18, 1200, "a", 18000], "internal_node_id": "0.0-19.0", "trial": 0, "time_elapsed": 187396, "serialpos": 7, "key_press": -1, "wordID": 99, "type": "PRES_AUD", "trial_index": 28}, "uniqueid": "MTK3481:369J354OFEHW5JICPP4OQOHCUM1G64", "dateTime": 1520618976132}, {"current_trial": 29, "trialdata": {"rt": -1000, "trial_type": "single-audio", "word": "headband", "stimulus": "/static/audio/wordpool/HEADBAND.wav", "conditions": [18, 1200, "a", 18000], "internal_node_id": "0.0-20.0", "trial": 0, "time_elapsed": 189746, "serialpos": 8, "key_press": -1, "wordID": 695, "type": "PRES_AUD", "trial_index": 29}, "uniqueid": "MTK3481:369J354OFEHW5JICPP4OQOHCUM1G64", "dateTime": 1520618978482}, {"current_trial": 30, "trialdata": {"rt": -1000, "trial_type": "single-audio", "word": "icing", "stimulus": "/static/audio/wordpool/ICING.wav", "conditions": [18, 1200, "a", 18000], "internal_node_id": "0.0-21.0", "trial": 0, "time_elapsed": 191774, "serialpos": 9, "key_press": -1, "wordID": 731, "type": "PRES_AUD", "trial_index": 30}, "uniqueid": "MTK3481:369J354OFEHW5JICPP4OQOHCUM1G64", "dateTime": 1520618980510}, {"current_trial": 31, "trialdata": {"rt": -1000, "trial_type": "single-audio", "word": "liver", "stimulus": "/static/audio/wordpool/LIVER.wav", "conditions": [18, 1200, "a", 18000], "internal_node_id": "0.0-22.0", "trial": 0, "time_elapsed": 193818, "serialpos": 10, "key_press": -1, "wordID": 832, "type": "PRES_AUD", "trial_index": 31}, "uniqueid": "MTK3481:369J354OFEHW5JICPP4OQOHCUM1G64", "dateTime": 1520618982554}, {"current_trial": 32, "trialdata": {"rt": -1000, "trial_type": "single-audio", "word": "japan", "stimulus": "/static/audio/wordpool/JAPAN.wav", "conditions": [18, 1200, "a", 18000], "internal_node_id": "0.0-23.0", "trial": 0, "time_elapsed": 195962, "serialpos": 11, "key_press": -1, "wordID": 748, "type": "PRES_AUD", "trial_index": 32}, "uniqueid": "MTK3481:369J354OFEHW5JICPP4OQOHCUM1G64", "dateTime": 1520618984698}, {"current_trial": 33, "trialdata": {"rt": -1000, "trial_type": "single-audio", "word": "mailbox", "stimulus": "/static/audio/wordpool/MAILBOX.wav", "conditions": [18, 1200, "a", 18000], "internal_node_id": "0.0-24.0", "trial": 0, "time_elapsed": 197981, "serialpos": 12, "key_press": -1, "wordID": 856, "type": "PRES_AUD", "trial_index": 33}, "uniqueid": "MTK3481:369J354OFEHW5JICPP4OQOHCUM1G64", "dateTime": 1520618986718}, {"current_trial": 34, "trialdata": {"rt": -1000, "trial_type": "single-audio", "word": "rebel", "stimulus": "/static/audio/wordpool/REBEL.wav", "conditions": [18, 1200, "a", 18000], "internal_node_id": "0.0-25.0", "trial": 0, "time_elapsed": 200052, "serialpos": 13, "key_press": -1, "wordID": 1171, "type": "PRES_AUD", "trial_index": 34}, "uniqueid": "MTK3481:369J354OFEHW5JICPP4OQOHCUM1G64", "dateTime": 1520618988788}, {"current_trial": 35, "trialdata": {"rt": -1000, "trial_type": "single-audio", "word": "permit", "stimulus": "/static/audio/wordpool/PERMIT.wav", "conditions": [18, 1200, "a", 18000], "internal_node_id": "0.0-26.0", "trial": 0, "time_elapsed": 202376, "serialpos": 14, "key_press": -1, "wordID": 1050, "type": "PRES_AUD", "trial_index": 35}, "uniqueid": "MTK3481:369J354OFEHW5JICPP4OQOHCUM1G64", "dateTime": 1520618991112}, {"current_trial": 36, "trialdata": {"rt": -1000, "trial_type": "single-audio", "word": "market", "stimulus": "/static/audio/wordpool/MARKET.wav", "conditions": [18, 1200, "a", 18000], "internal_node_id": "0.0-27.0", "trial": 0, "time_elapsed": 204441, "serialpos": 15, "key_press": -1, "wordID": 870, "type": "PRES_AUD", "trial_index": 36}, "uniqueid": "MTK3481:369J354OFEHW5JICPP4OQOHCUM1G64", "dateTime": 1520618993177}, {"current_trial": 37, "trialdata": {"rt": -1000, "trial_type": "single-audio", "word": "gazelle", "stimulus": "/static/audio/wordpool/GAZELLE.wav", "conditions": [18, 1200, "a", 18000], "internal_node_id": "0.0-28.0", "trial": 0, "time_elapsed": 206493, "serialpos": 16, "key_press": -1, "wordID": 627, "type": "PRES_AUD", "trial_index": 37}, "uniqueid": "MTK3481:369J354OFEHW5JICPP4OQOHCUM1G64", "dateTime": 1520618995229}, {"current_trial": 38, "trialdata": {"rt": -1000, "trial_type": "single-audio", "word": "outfit", "stimulus": "/static/audio/wordpool/OUTFIT.wav", "conditions": [18, 1200, "a", 18000], "internal_node_id": "0.0-29.0", "trial": 0, "time_elapsed": 208734, "serialpos": 17, "key_press": -1, "wordID": 987, "type": "PRES_AUD", "trial_index": 38}, "uniqueid": "MTK3481:369J354OFEHW5JICPP4OQOHCUM1G64", "dateTime": 1520618997470}, {"current_trial": 39, "trialdata": {"rt": -1, "trial_type": "single-stim", "stimulus": "", "internal_node_id": "0.0-30.0-0.0", "time_elapsed": 209996, "key_press": -1, "type": "PRE_RECALL_DELAY", "trial_index": 39}, "uniqueid": "MTK3481:369J354OFEHW5JICPP4OQOHCUM1G64", "dateTime": 1520618998732}, {"current_trial": 40, "trialdata": {"rt": -1000, "trial_type": "single-audio", "stimulus": "/static/audio/400Hz.wav", "internal_node_id": "0.0-31.0", "time_elapsed": 210497, "key_press": -1, "type": "PRE_RECALL_ALERT", "trial_index": 40}, "uniqueid": "MTK3481:369J354OFEHW5JICPP4OQOHCUM1G64", "dateTime": 1520618999234}, {"current_trial": 41, "trialdata": {"rt": [3741, 4965, 7165, 9925, 11909, 17293, 23780, 58213], "recwords": ["brook", "cattle", "japan", "slime", "headband", "outfit", "title", ""], "key_times": [1215, 1590, 1718, 1958, 2414, 2565, 2702, 3037, 3246, 3366, 3526, 3741, 4078, 4230, 4406, 4558, 4605, 4734, 4965, 5397, 5494, 6005, 6142, 6199, 6374, 6558, 6630, 6829, 6901, 7165, 7510, 7622, 7887, 8446, 8782, 9022, 9454, 9653, 9750, 9925, 10166, 10222, 10286, 10558, 10926, 11062, 11318, 11509, 11909, 12238, 12350, 12437, 12702, 12863, 13031, 17293, 23254, 23335, 23423, 23526, 23622, 23780, 58213], "trial_type": "free-recall", "conditions": [18, 1200, "a", 18000], "internal_node_id": "0.0-32.0-0.0", "key_presses": [66, 82, 82, 79, 8, 8, 8, 82, 79, 79, 75, 13, 67, 65, 84, 84, 76, 69, 13, 74, 65, 8, 8, 16, 74, 65, 80, 65, 78, 13, 83, 73, 76, 8, 8, 76, 73, 77, 69, 13, 72, 69, 65, 68, 66, 65, 78, 68, 13, 79, 85, 84, 70, 73, 84, 13, 84, 73, 84, 76, 69, 13, 13], "trial": 0, "time_elapsed": 270503, "type": "FREE_RECALL", "trial_index": 41}, "uniqueid": "MTK3481:369J354OFEHW5JICPP4OQOHCUM1G64", "dateTime": 1520619059243}, {"current_trial": 42, "trialdata": {"rt": 2198, "trial_type": "text", "internal_node_id": "0.0-33.0", "time_elapsed": 274706, "key_press": 32, "type": "INSTRUCTIONS", "trial_index": 42}, "uniqueid": "MTK3481:369J354OFEHW5JICPP4OQOHCUM1G64", "dateTime": 1520619063442}, {"current_trial": 43, "trialdata": {"rt": [3539, 5540, 9155, 10852, 12700, 14420, 17404], "trial_type": "math-distractor", "key_times": [2142, 2301, 3539, 5301, 5540, 8357, 8605, 9155, 10405, 10636, 10852, 12245, 12469, 12700, 14012, 14197, 14420, 17045, 17213, 17404], "responses": ["14", "6", "17", "12", "19", "13", "14"], "num2": [6, 1, 9, 5, 5, 7, 4, 1], "num3": [2, 3, 6, 5, 5, 5, 1, 6], "conditions": [18, 1200, "a", 18000], "internal_node_id": "0.0-34.0", "key_presses": [97, 100, 13, 102, 13, 97, 103, 13, 97, 98, 13, 97, 105, 13, 97, 99, 13, 97, 100, 13], "trial": 1, "time_elapsed": 294711, "type": "DISTRACTOR", "trial_index": 43, "num1": [6, 2, 2, 2, 9, 1, 9, 9]}, "uniqueid": "MTK3481:369J354OFEHW5JICPP4OQOHCUM1G64", "dateTime": 1520619083447}, {"current_trial": 44, "trialdata": {"rt": -1, "trial_type": "single-stim", "stimulus": "<p id=\"stim\">10</p>", "internal_node_id": "0.0-35.0-0.0", "time_elapsed": 297713, "key_press": -1, "trial_index": 44}, "uniqueid": "MTK3481:369J354OFEHW5JICPP4OQOHCUM1G64", "dateTime": 1520619086450}, {"current_trial": 45, "trialdata": {"rt": -1, "trial_type": "single-stim", "stimulus": "<p id=\"stim\">9</p>", "internal_node_id": "0.0-35.0-1.0", "time_elapsed": 298716, "key_press": -1, "trial_index": 45}, "uniqueid": "MTK3481:369J354OFEHW5JICPP4OQOHCUM1G64", "dateTime": 1520619087452}, {"current_trial": 46, "trialdata": {"rt": -1, "trial_type": "single-stim", "stimulus": "<p id=\"stim\">8</p>", "internal_node_id": "0.0-35.0-2.0", "time_elapsed": 299718, "key_press": -1, "trial_index": 46}, "uniqueid": "MTK3481:369J354OFEHW5JICPP4OQOHCUM1G64", "dateTime": 1520619088454}, {"current_trial": 47, "trialdata": {"rt": -1, "trial_type": "single-stim", "stimulus": "<p id=\"stim\">7</p>", "internal_node_id": "0.0-35.0-3.0", "time_elapsed": 300720, "key_press": -1, "trial_index": 47}, "uniqueid": "MTK3481:369J354OFEHW5JICPP4OQOHCUM1G64", "dateTime": 1520619089456}, {"current_trial": 48, "trialdata": {"rt": -1, "trial_type": "single-stim", "stimulus": "<p id=\"stim\">6</p>", "internal_node_id": "0.0-35.0-4.0", "time_elapsed": 301722, "key_press": -1, "trial_index": 48}, "uniqueid": "MTK3481:369J354OFEHW5JICPP4OQOHCUM1G64", "dateTime": 1520619090458}, {"current_trial": 49, "trialdata": {"rt": -1, "trial_type": "single-stim", "stimulus": "<p id=\"stim\">5</p>", "internal_node_id": "0.0-35.0-5.0", "time_elapsed": 302723, "key_press": -1, "trial_index": 49}, "uniqueid": "MTK3481:369J354OFEHW5JICPP4OQOHCUM1G64", "dateTime": 1520619091459}, {"current_trial": 50, "trialdata": {"rt": -1, "trial_type": "single-stim", "stimulus": "<p id=\"stim\">4</p>", "internal_node_id": "0.0-35.0-6.0", "time_elapsed": 303725, "key_press": -1, "trial_index": 50}, "uniqueid": "MTK3481:369J354OFEHW5JICPP4OQOHCUM1G64", "dateTime": 1520619092461}, {"current_trial": 51, "trialdata": {"rt": -1, "trial_type": "single-stim", "stimulus": "<p id=\"stim\">3</p>", "internal_node_id": "0.0-35.0-7.0", "time_elapsed": 304727, "key_press": -1, "trial_index": 51}, "uniqueid": "MTK3481:369J354OFEHW5JICPP4OQOHCUM1G64", "dateTime": 1520619093463}, {"current_trial": 52, "trialdata": {"rt": -1, "trial_type": "single-stim", "stimulus": "<p id=\"stim\">2</p>", "internal_node_id": "0.0-35.0-8.0", "time_elapsed": 305729, "key_press": -1, "trial_index": 52}, "uniqueid": "MTK3481:369J354OFEHW5JICPP4OQOHCUM1G64", "dateTime": 1520619094465}, {"current_trial": 53, "trialdata": {"rt": -1, "trial_type": "single-stim", "stimulus": "<p id=\"stim\">1</p>", "internal_node_id": "0.0-35.0-9.0", "time_elapsed": 306730, "key_press": -1, "trial_index": 53}, "uniqueid": "MTK3481:369J354OFEHW5JICPP4OQOHCUM1G64", "dateTime": 1520619095467}, {"current_trial": 54, "trialdata": {"rt": -1, "trial_type": "single-stim", "stimulus": "<p id=\"stim\">+</p>", "internal_node_id": "0.0-36.0-0.0", "time_elapsed": 308232, "key_press": -1, "type": "FIXATION", "trial_index": 54}, "uniqueid": "MTK3481:369J354OFEHW5JICPP4OQOHCUM1G64", "dateTime": 1520619096969}, {"current_trial": 55, "trialdata": {"rt": -1000, "trial_type": "single-audio", "word": "blockade", "stimulus": "/static/audio/wordpool/BLOCKADE.wav", "conditions": [18, 1200, "a", 18000], "internal_node_id": "0.0-37.0", "trial": 1, "time_elapsed": 310308, "serialpos": 0, "key_press": -1, "wordID": 136, "type": "PRES_AUD", "trial_index": 55}, "uniqueid": "MTK3481:369J354OFEHW5JICPP4OQOHCUM1G64", "dateTime": 1520619099044}, {"current_trial": 56, "trialdata": {"rt": -1000, "trial_type": "single-audio", "word": "kidney", "stimulus": "/static/audio/wordpool/KIDNEY.wav", "conditions": [18, 1200, "a", 18000], "internal_node_id": "0.0-38.0", "trial": 1, "time_elapsed": 312316, "serialpos": 1, "key_press": -1, "wordID": 775, "type": "PRES_AUD", "trial_index": 56}, "uniqueid": "MTK3481:369J354OFEHW5JICPP4OQOHCUM1G64", "dateTime": 1520619101052}, {"current_trial": 57, "trialdata": {"rt": -1000, "trial_type": "single-audio", "word": "picnic", "stimulus": "/static/audio/wordpool/PICNIC.wav", "conditions": [18, 1200, "a", 18000], "internal_node_id": "0.0-39.0", "trial": 1, "time_elapsed": 314346, "serialpos": 2, "key_press": -1, "wordID": 1059, "type": "PRES_AUD", "trial_index": 57}, "uniqueid": "MTK3481:369J354OFEHW5JICPP4OQOHCUM1G64", "dateTime": 1520619103082}, {"current_trial": 58, "trialdata": {"rt": -1000, "trial_type": "single-audio", "word": "gavel", "stimulus": "/static/audio/wordpool/GAVEL.wav", "conditions": [18, 1200, "a", 18000], "internal_node_id": "0.0-40.0", "trial": 1, "time_elapsed": 316582, "serialpos": 3, "key_press": -1, "wordID": 626, "type": "PRES_AUD", "trial_index": 58}, "uniqueid": "MTK3481:369J354OFEHW5JICPP4OQOHCUM1G64", "dateTime": 1520619105318}, {"current_trial": 59, "trialdata": {"rt": -1000, "trial_type": "single-audio", "word": "smog", "stimulus": "/static/audio/wordpool/SMOG.wav", "conditions": [18, 1200, "a", 18000], "internal_node_id": "0.0-41.0", "trial": 1, "time_elapsed": 318670, "serialpos": 4, "key_press": -1, "wordID": 1329, "type": "PRES_AUD", "trial_index": 59}, "uniqueid": "MTK3481:369J354OFEHW5JICPP4OQOHCUM1G64", "dateTime": 1520619107406}, {"current_trial": 60, "trialdata": {"rt": -1000, "trial_type": "single-audio", "word": "perch", "stimulus": "/static/audio/wordpool/PERCH.wav", "conditions": [18, 1200, "a", 18000], "internal_node_id": "0.0-42.0", "trial": 1, "time_elapsed": 320881, "serialpos": 5, "key_press": -1, "wordID": 1047, "type": "PRES_AUD", "trial_index": 60}, "uniqueid": "MTK3481:369J354OFEHW5JICPP4OQOHCUM1G64", "dateTime": 1520619109617}, {"current_trial": 61, "trialdata": {"rt": -1000, "trial_type": "single-audio", "word": "mars", "stimulus": "/static/audio/wordpool/MARS.wav", "conditions": [18, 1200, "a", 18000], "internal_node_id": "0.0-43.0", "trial": 1, "time_elapsed": 323153, "serialpos": 6, "key_press": -1, "wordID": 872, "type": "PRES_AUD", "trial_index": 61}, "uniqueid": "MTK3481:369J354OFEHW5JICPP4OQOHCUM1G64", "dateTime": 1520619111891}, {"current_trial": 62, "trialdata": {"rt": -1000, "trial_type": "single-audio", "word": "flipper", "stimulus": "/static/audio/wordpool/FLIPPER.wav", "conditions": [18, 1200, "a", 18000], "internal_node_id": "0.0-44.0", "trial": 1, "time_elapsed": 325217, "serialpos": 7, "key_press": -1, "wordID": 579, "type": "PRES_AUD", "trial_index": 62}, "uniqueid": "MTK3481:369J354OFEHW5JICPP4OQOHCUM1G64", "dateTime": 1520619113953}, {"current_trial": 63, "trialdata": {"rt": -1000, "trial_type": "single-audio", "word": "author", "stimulus": "/static/audio/wordpool/AUTHOR.wav", "conditions": [18, 1200, "a", 18000], "internal_node_id": "0.0-45.0", "trial": 1, "time_elapsed": 327376, "serialpos": 8, "key_press": -1, "wordID": 60, "type": "PRES_AUD", "trial_index": 63}, "uniqueid": "MTK3481:369J354OFEHW5JICPP4OQOHCUM1G64", "dateTime": 1520619116112}, {"current_trial": 64, "trialdata": {"rt": -1000, "trial_type": "single-audio", "word": "fireman", "stimulus": "/static/audio/wordpool/FIREMAN.wav", "conditions": [18, 1200, "a", 18000], "internal_node_id": "0.0-46.0", "trial": 1, "time_elapsed": 329621, "serialpos": 9, "key_press": -1, "wordID": 568, "type": "PRES_AUD", "trial_index": 64}, "uniqueid": "MTK3481:369J354OFEHW5JICPP4OQOHCUM1G64", "dateTime": 1520619118358}, {"current_trial": 65, "trialdata": {"rt": -1000, "trial_type": "single-audio", "word": "seal", "stimulus": "/static/audio/wordpool/SEAL.wav", "conditions": [18, 1200, "a", 18000], "internal_node_id": "0.0-47.0", "trial": 1, "time_elapsed": 331743, "serialpos": 10, "key_press": -1, "wordID": 1261, "type": "PRES_AUD", "trial_index": 65}, "uniqueid": "MTK3481:369J354OFEHW5JICPP4OQOHCUM1G64", "dateTime": 1520619120479}, {"current_trial": 66, "trialdata": {"rt": -1000, "trial_type": "single-audio", "word": "cocoon", "stimulus": "/static/audio/wordpool/COCOON.wav", "conditions": [18, 1200, "a", 18000], "internal_node_id": "0.0-48.0", "trial": 1, "time_elapsed": 334007, "serialpos": 11, "key_press": -1, "wordID": 338, "type": "PRES_AUD", "trial_index": 66}, "uniqueid": "MTK3481:369J354OFEHW5JICPP4OQOHCUM1G64", "dateTime": 1520619122743}, {"current_trial": 67, "trialdata": {"rt": -1000, "trial_type": "single-audio", "word": "forest", "stimulus": "/static/audio/wordpool/FOREST.wav", "conditions": [18, 1200, "a", 18000], "internal_node_id": "0.0-49.0", "trial": 1, "time_elapsed": 336259, "serialpos": 12, "key_press": -1, "wordID": 592, "type": "PRES_AUD", "trial_index": 67}, "uniqueid": "MTK3481:369J354OFEHW5JICPP4OQOHCUM1G64", "dateTime": 1520619124996}, {"current_trial": 68, "trialdata": {"rt": -1000, "trial_type": "single-audio", "word": "juggler", "stimulus": "/static/audio/wordpool/JUGGLER.wav", "conditions": [18, 1200, "a", 18000], "internal_node_id": "0.0-50.0", "trial": 1, "time_elapsed": 338372, "serialpos": 13, "key_press": -1, "wordID": 762, "type": "PRES_AUD", "trial_index": 68}, "uniqueid": "MTK3481:369J354OFEHW5JICPP4OQOHCUM1G64", "dateTime": 1520619127120}, {"current_trial": 69, "trialdata": {"rt": -1000, "trial_type": "single-audio", "word": "shirt", "stimulus": "/static/audio/wordpool/SHIRT.wav", "conditions": [18, 1200, "a", 18000], "internal_node_id": "0.0-51.0", "trial": 1, "time_elapsed": 340577, "serialpos": 14, "key_press": -1, "wordID": 1286, "type": "PRES_AUD", "trial_index": 69}, "uniqueid": "MTK3481:369J354OFEHW5JICPP4OQOHCUM1G64", "dateTime": 1520619129313}, {"current_trial": 70, "trialdata": {"rt": -1000, "trial_type": "single-audio", "word": "carrot", "stimulus": "/static/audio/wordpool/CARROT.wav", "conditions": [18, 1200, "a", 18000], "internal_node_id": "0.0-52.0", "trial": 1, "time_elapsed": 342584, "serialpos": 15, "key_press": -1, "wordID": 248, "type": "PRES_AUD", "trial_index": 70}, "uniqueid": "MTK3481:369J354OFEHW5JICPP4OQOHCUM1G64", "dateTime": 1520619131320}, {"current_trial": 71, "trialdata": {"rt": -1000, "trial_type": "single-audio", "word": "dust", "stimulus": "/static/audio/wordpool/DUST.wav", "conditions": [18, 1200, "a", 18000], "internal_node_id": "0.0-53.0", "trial": 1, "time_elapsed": 344884, "serialpos": 16, "key_press": -1, "wordID": 507, "type": "PRES_AUD", "trial_index": 71}, "uniqueid": "MTK3481:369J354OFEHW5JICPP4OQOHCUM1G64", "dateTime": 1520619133620}, {"current_trial": 72, "trialdata": {"rt": -1000, "trial_type": "single-audio", "word": "barley", "stimulus": "/static/audio/wordpool/BARLEY.wav", "conditions": [18, 1200, "a", 18000], "internal_node_id": "0.0-54.0", "trial": 1, "time_elapsed": 347241, "serialpos": 17, "key_press": -1, "wordID": 87, "type": "PRES_AUD", "trial_index": 72}, "uniqueid": "MTK3481:369J354OFEHW5JICPP4OQOHCUM1G64", "dateTime": 1520619135977}, {"current_trial": 73, "trialdata": {"rt": -1, "trial_type": "single-stim", "stimulus": "", "internal_node_id": "0.0-55.0-0.0", "time_elapsed": 348514, "key_press": -1, "type": "PRE_RECALL_DELAY", "trial_index": 73}, "uniqueid": "MTK3481:369J354OFEHW5JICPP4OQOHCUM1G64", "dateTime": 1520619137250}, {"current_trial": 74, "trialdata": {"rt": -1000, "trial_type": "single-audio", "stimulus": "/static/audio/400Hz.wav", "internal_node_id": "0.0-56.0", "time_elapsed": 349016, "key_press": -1, "type": "PRE_RECALL_ALERT", "trial_index": 74}, "uniqueid": "MTK3481:369J354OFEHW5JICPP4OQOHCUM1G64", "dateTime": 1520619137752}, {"current_trial": 75, "trialdata": {"rt": [5647, 7135, 8735, 9888, 11470, 15743, 17271, 21263, 22415, 24166, 25982, 28062, 30582, 32998, 37558, 40006, 41774, 44798, 56710], "recwords": ["kidney", "picnic", "gavel", "shoes'", "perch", "flipper", "mars", "author", "fireman", "seal", "barley", "hust", "coccoon", "forest", "juggler", "shirt", "carrot", "", ""], "key_times": [4784, 4959, 5111, 5209, 5313, 5447, 5647, 6152, 6264, 6415, 6656, 6792, 6975, 7135, 7399, 7529, 7687, 7943, 8142, 8735, 9055, 9279, 9375, 9479, 9655, 9887, 9888, 10680, 10784, 10839, 11096, 11128, 11470, 12399, 12488, 12568, 12872, 13207, 13303, 13640, 13783, 13927, 14079, 14240, 14383, 14487, 14689, 14833, 15039, 15183, 15337, 15391, 15743, 16744, 16831, 16912, 17127, 17271, 17680, 17897, 17898, 18384, 18519, 19047, 19359, 19463, 19615, 19751, 21263, 21551, 21719, 21776, 21864, 21967, 22071, 22151, 22415, 22824, 22991, 23047, 23191, 24166, 25143, 25296, 25431, 25511, 25607, 25719, 25982, 27183, 27391, 27511, 27743, 28062, 28919, 29175, 29407, 29543, 29703, 29823, 29999, 30582, 31127, 31447, 31584, 31696, 31911, 32079, 32998, 33631, 33815, 33967, 34103, 34223, 34359, 34431, 37558, 37815, 38319, 38487, 38584, 38791, 40006, 40470, 40615, 40814, 40942, 41022, 41160, 41774, 44798, 56710], "trial_type": "free-recall", "conditions": [18, 1200, "a", 18000], "internal_node_id": "0.0-57.0-0.0", "key_presses": [75, 73, 68, 78, 69, 89, 13, 80, 73, 67, 78, 73, 67, 13, 71, 65, 86, 69, 76, 13, 83, 72, 79, 69, 83, 222, 13, 80, 69, 82, 67, 72, 13, 70, 73, 78, 71, 69, 82, 8, 8, 8, 8, 8, 8, 70, 76, 73, 80, 80, 69, 82, 13, 77, 65, 82, 83, 13, 65, 85, 73, 8, 8, 85, 84, 72, 79, 82, 13, 70, 73, 82, 69, 77, 65, 78, 13, 83, 69, 65, 76, 13, 66, 65, 82, 76, 69, 89, 13, 72, 85, 83, 84, 13, 67, 79, 67, 67, 79, 79, 78, 13, 70, 79, 82, 69, 83, 84, 13, 74, 85, 71, 71, 76, 69, 82, 13, 83, 72, 73, 82, 84, 13, 67, 65, 82, 82, 79, 84, 13, 13, 13], "trial": 1, "time_elapsed": 409020, "type": "FREE_RECALL", "trial_index": 75}, "uniqueid": "MTK3481:369J354OFEHW5JICPP4OQOHCUM1G64", "dateTime": 1520619197760}, {"current_trial": 76, "trialdata": {"rt": 3751, "trial_type": "text", "internal_node_id": "0.0-58.0", "time_elapsed": 414776, "key_press": 13, "type": "INSTRUCTIONS", "trial_index": 76}, "uniqueid": "MTK3481:369J354OFEHW5JICPP4OQOHCUM1G64", "dateTime": 1520619203512}, {"current_trial": 77, "trialdata": {"rt": [2845, 4301, 14501, 17805, 22037], "trial_type": "math-distractor", "key_times": [2423, 2589, 2845, 3838, 4045, 4301, 14214, 14350, 14501, 17390, 17582, 17805, 21725, 21854, 22037], "responses": ["15", "15", "21", "16", "22"], "num2": [3, 7, 7, 9, 7, 7], "num3": [8, 7, 8, 3, 7, 9], "conditions": [24, 1600, "a", 24000], "internal_node_id": "0.0-59.0", "key_presses": [97, 101, 13, 97, 101, 13, 98, 97, 13, 97, 102, 13, 98, 98, 13], "trial": 2, "time_elapsed": 439781, "type": "DISTRACTOR", "trial_index": 77, "num1": [4, 1, 6, 4, 8, 2]}, "uniqueid": "MTK3481:369J354OFEHW5JICPP4OQOHCUM1G64", "dateTime": 1520619228517}, {"current_trial": 78, "trialdata": {"rt": -1, "trial_type": "single-stim", "stimulus": "<p id=\"stim\">10</p>", "internal_node_id": "0.0-60.0-0.0", "time_elapsed": 442784, "key_press": -1, "trial_index": 78}, "uniqueid": "MTK3481:369J354OFEHW5JICPP4OQOHCUM1G64", "dateTime": 1520619231520}, {"current_trial": 79, "trialdata": {"rt": -1, "trial_type": "single-stim", "stimulus": "<p id=\"stim\">9</p>", "internal_node_id": "0.0-60.0-1.0", "time_elapsed": 443786, "key_press": -1, "trial_index": 79}, "uniqueid": "MTK3481:369J354OFEHW5JICPP4OQOHCUM1G64", "dateTime": 1520619232522}, {"current_trial": 80, "trialdata": {"rt": -1, "trial_type": "single-stim", "stimulus": "<p id=\"stim\">8</p>", "internal_node_id": "0.0-60.0-2.0", "time_elapsed": 444788, "key_press": -1, "trial_index": 80}, "uniqueid": "MTK3481:369J354OFEHW5JICPP4OQOHCUM1G64", "dateTime": 1520619233524}, {"current_trial": 81, "trialdata": {"rt": -1, "trial_type": "single-stim", "stimulus": "<p id=\"stim\">7</p>", "internal_node_id": "0.0-60.0-3.0", "time_elapsed": 445791, "key_press": -1, "trial_index": 81}, "uniqueid": "MTK3481:369J354OFEHW5JICPP4OQOHCUM1G64", "dateTime": 1520619234527}, {"current_trial": 82, "trialdata": {"rt": -1, "trial_type": "single-stim", "stimulus": "<p id=\"stim\">6</p>", "internal_node_id": "0.0-60.0-4.0", "time_elapsed": 446792, "key_press": -1, "trial_index": 82}, "uniqueid": "MTK3481:369J354OFEHW5JICPP4OQOHCUM1G64", "dateTime": 1520619235528}, {"current_trial": 83, "trialdata": {"rt": -1, "trial_type": "single-stim", "stimulus": "<p id=\"stim\">5</p>", "internal_node_id": "0.0-60.0-5.0", "time_elapsed": 447793, "key_press": -1, "trial_index": 83}, "uniqueid": "MTK3481:369J354OFEHW5JICPP4OQOHCUM1G64", "dateTime": 1520619236529}, {"current_trial": 84, "trialdata": {"rt": -1, "trial_type": "single-stim", "stimulus": "<p id=\"stim\">4</p>", "internal_node_id": "0.0-60.0-6.0", "time_elapsed": 448795, "key_press": -1, "trial_index": 84}, "uniqueid": "MTK3481:369J354OFEHW5JICPP4OQOHCUM1G64", "dateTime": 1520619237531}, {"current_trial": 85, "trialdata": {"rt": -1, "trial_type": "single-stim", "stimulus": "<p id=\"stim\">3</p>", "internal_node_id": "0.0-60.0-7.0", "time_elapsed": 449796, "key_press": -1, "trial_index": 85}, "uniqueid": "MTK3481:369J354OFEHW5JICPP4OQOHCUM1G64", "dateTime": 1520619238532}, {"current_trial": 86, "trialdata": {"rt": -1, "trial_type": "single-stim", "stimulus": "<p id=\"stim\">2</p>", "internal_node_id": "0.0-60.0-8.0", "time_elapsed": 450797, "key_press": -1, "trial_index": 86}, "uniqueid": "MTK3481:369J354OFEHW5JICPP4OQOHCUM1G64", "dateTime": 1520619239533}, {"current_trial": 87, "trialdata": {"rt": -1, "trial_type": "single-stim", "stimulus": "<p id=\"stim\">1</p>", "internal_node_id": "0.0-60.0-9.0", "time_elapsed": 451799, "key_press": -1, "trial_index": 87}, "uniqueid": "MTK3481:369J354OFEHW5JICPP4OQOHCUM1G64", "dateTime": 1520619240535}, {"current_trial": 88, "trialdata": {"rt": -1, "trial_type": "single-stim", "stimulus": "<p id=\"stim\">+</p>", "internal_node_id": "0.0-61.0-0.0", "time_elapsed": 453301, "key_press": -1, "type": "FIXATION", "trial_index": 88}, "uniqueid": "MTK3481:369J354OFEHW5JICPP4OQOHCUM1G64", "dateTime": 1520619242037}, {"current_trial": 89, "trialdata": {"rt": -1000, "trial_type": "single-audio", "word": "patrol", "stimulus": "/static/audio/wordpool/PATROL.wav", "conditions": [24, 1600, "a", 24000], "internal_node_id": "0.0-62.0", "trial": 2, "time_elapsed": 455969, "serialpos": 0, "key_press": -1, "wordID": 1026, "type": "PRES_AUD", "trial_index": 89}, "uniqueid": "MTK3481:369J354OFEHW5JICPP4OQOHCUM1G64", "dateTime": 1520619244705}, {"current_trial": 90, "trialdata": {"rt": -1000, "trial_type": "single-audio", "word": "boyfriend", "stimulus": "/static/audio/wordpool/BOYFRIEND.wav", "conditions": [24, 1600, "a", 24000], "internal_node_id": "0.0-63.0", "trial": 2, "time_elapsed": 458488, "serialpos": 1, "key_press": -1, "wordID": 161, "type": "PRES_AUD", "trial_index": 90}, "uniqueid": "MTK3481:369J354OFEHW5JICPP4OQOHCUM1G64", "dateTime": 1520619247225}, {"current_trial": 91, "trialdata": {"rt": -1000, "trial_type": "single-audio", "word": "scissors", "stimulus": "/static/audio/wordpool/SCISSORS.wav", "conditions": [24, 1600, "a", 24000], "internal_node_id": "0.0-64.0", "trial": 2, "time_elapsed": 461118, "serialpos": 2, "key_press": -1, "wordID": 1249, "type": "PRES_AUD", "trial_index": 91}, "uniqueid": "MTK3481:369J354OFEHW5JICPP4OQOHCUM1G64", "dateTime": 1520619249854}, {"current_trial": 92, "trialdata": {"rt": -1000, "trial_type": "single-audio", "word": "parent", "stimulus": "/static/audio/wordpool/PARENT.wav", "conditions": [24, 1600, "a", 24000], "internal_node_id": "0.0-65.0", "trial": 2, "time_elapsed": 463579, "serialpos": 3, "key_press": -1, "wordID": 1012, "type": "PRES_AUD", "trial_index": 92}, "uniqueid": "MTK3481:369J354OFEHW5JICPP4OQOHCUM1G64", "dateTime": 1520619252315}, {"current_trial": 93, "trialdata": {"rt": -1000, "trial_type": "single-audio", "word": "clock", "stimulus": "/static/audio/wordpool/CLOCK.wav", "conditions": [24, 1600, "a", 24000], "internal_node_id": "0.0-66.0", "trial": 2, "time_elapsed": 465988, "serialpos": 4, "key_press": -1, "wordID": 324, "type": "PRES_AUD", "trial_index": 93}, "uniqueid": "MTK3481:369J354OFEHW5JICPP4OQOHCUM1G64", "dateTime": 1520619254724}, {"current_trial": 94, "trialdata": {"rt": -1000, "trial_type": "single-audio", "word": "lizard", "stimulus": "/static/audio/wordpool/LIZARD.wav", "conditions": [24, 1600, "a", 24000], "internal_node_id": "0.0-67.0", "trial": 2, "time_elapsed": 468436, "serialpos": 5, "key_press": -1, "wordID": 833, "type": "PRES_AUD", "trial_index": 94}, "uniqueid": "MTK3481:369J354OFEHW5JICPP4OQOHCUM1G64", "dateTime": 1520619257172}, {"current_trial": 95, "trialdata": {"rt": -1000, "trial_type": "single-audio", "word": "cobra", "stimulus": "/static/audio/wordpool/COBRA.wav", "conditions": [24, 1600, "a", 24000], "internal_node_id": "0.0-68.0", "trial": 2, "time_elapsed": 471153, "serialpos": 6, "key_press": -1, "wordID": 335, "type": "PRES_AUD", "trial_index": 95}, "uniqueid": "MTK3481:369J354OFEHW5JICPP4OQOHCUM1G64", "dateTime": 1520619259889}, {"current_trial": 96, "trialdata": {"rt": -1000, "trial_type": "single-audio", "word": "diner", "stimulus": "/static/audio/wordpool/DINER.wav", "conditions": [24, 1600, "a", 24000], "internal_node_id": "0.0-69.0", "trial": 2, "time_elapsed": 473859, "serialpos": 7, "key_press": -1, "wordID": 466, "type": "PRES_AUD", "trial_index": 96}, "uniqueid": "MTK3481:369J354OFEHW5JICPP4OQOHCUM1G64", "dateTime": 1520619262595}, {"current_trial": 97, "trialdata": {"rt": -1000, "trial_type": "single-audio", "word": "fiddle", "stimulus": "/static/audio/wordpool/FIDDLE.wav", "conditions": [24, 1600, "a", 24000], "internal_node_id": "0.0-70.0", "trial": 2, "time_elapsed": 476601, "serialpos": 8, "key_press": -1, "wordID": 560, "type": "PRES_AUD", "trial_index": 97}, "uniqueid": "MTK3481:369J354OFEHW5JICPP4OQOHCUM1G64", "dateTime": 1520619265337}, {"current_trial": 98, "trialdata": {"rt": -1000, "trial_type": "single-audio", "word": "sunrise", "stimulus": "/static/audio/wordpool/SUNRISE.wav", "conditions": [24, 1600, "a", 24000], "internal_node_id": "0.0-71.0", "trial": 2, "time_elapsed": 479326, "serialpos": 9, "key_press": -1, "wordID": 1406, "type": "PRES_AUD", "trial_index": 98}, "uniqueid": "MTK3481:369J354OFEHW5JICPP4OQOHCUM1G64", "dateTime": 1520619268062}, {"current_trial": 99, "trialdata": {"rt": -1000, "trial_type": "single-audio", "word": "police", "stimulus": "/static/audio/wordpool/POLICE.wav", "conditions": [24, 1600, "a", 24000], "internal_node_id": "0.0-72.0", "trial": 2, "time_elapsed": 482089, "serialpos": 10, "key_press": -1, "wordID": 1097, "type": "PRES_AUD", "trial_index": 99}, "uniqueid": "MTK3481:369J354OFEHW5JICPP4OQOHCUM1G64", "dateTime": 1520619270825}, {"current_trial": 100, "trialdata": {"rt": -1000, "trial_type": "single-audio", "word": "pocket", "stimulus": "/static/audio/wordpool/POCKET.wav", "conditions": [24, 1600, "a", 24000], "internal_node_id": "0.0-73.0", "trial": 2, "time_elapsed": 484743, "serialpos": 11, "key_press": -1, "wordID": 1092, "type": "PRES_AUD", "trial_index": 100}, "uniqueid": "MTK3481:369J354OFEHW5JICPP4OQOHCUM1G64", "dateTime": 1520619273479}, {"current_trial": 101, "trialdata": {"rt": -1000, "trial_type": "single-audio", "word": "scotch", "stimulus": "/static/audio/wordpool/SCOTCH.wav", "conditions": [24, 1600, "a", 24000], "internal_node_id": "0.0-74.0", "trial": 2, "time_elapsed": 487274, "serialpos": 12, "key_press": -1, "wordID": 1250, "type": "PRES_AUD", "trial_index": 101}, "uniqueid": "MTK3481:369J354OFEHW5JICPP4OQOHCUM1G64", "dateTime": 1520619276010}, {"current_trial": 102, "trialdata": {"rt": -1000, "trial_type": "single-audio", "word": "waiter", "stimulus": "/static/audio/wordpool/WAITER.wav", "conditions": [24, 1600, "a", 24000], "internal_node_id": "0.0-75.0", "trial": 2, "time_elapsed": 489916, "serialpos": 13, "key_press": -1, "wordID": 1579, "type": "PRES_AUD", "trial_index": 102}, "uniqueid": "MTK3481:369J354OFEHW5JICPP4OQOHCUM1G64", "dateTime": 1520619278652}, {"current_trial": 103, "trialdata": {"rt": -1000, "trial_type": "single-audio", "word": "pork", "stimulus": "/static/audio/wordpool/PORK.wav", "conditions": [24, 1600, "a", 24000], "internal_node_id": "0.0-76.0", "trial": 2, "time_elapsed": 492317, "serialpos": 14, "key_press": -1, "wordID": 1107, "type": "PRES_AUD", "trial_index": 103}, "uniqueid": "MTK3481:369J354OFEHW5JICPP4OQOHCUM1G64", "dateTime": 1520619281053}, {"current_trial": 104, "trialdata": {"rt": -1000, "trial_type": "single-audio", "word": "beef", "stimulus": "/static/audio/wordpool/BEEF.wav", "conditions": [24, 1600, "a", 24000], "internal_node_id": "0.0-77.0", "trial": 2, "time_elapsed": 494929, "serialpos": 15, "key_press": -1, "wordID": 112, "type": "PRES_AUD", "trial_index": 104}, "uniqueid": "MTK3481:369J354OFEHW5JICPP4OQOHCUM1G64", "dateTime": 1520619283665}, {"current_trial": 105, "trialdata": {"rt": -1000, "trial_type": "single-audio", "word": "victim", "stimulus": "/static/audio/wordpool/VICTIM.wav", "conditions": [24, 1600, "a", 24000], "internal_node_id": "0.0-78.0", "trial": 2, "time_elapsed": 497361, "serialpos": 16, "key_press": -1, "wordID": 1561, "type": "PRES_AUD", "trial_index": 105}, "uniqueid": "MTK3481:369J354OFEHW5JICPP4OQOHCUM1G64", "dateTime": 1520619286097}, {"current_trial": 106, "trialdata": {"rt": -1000, "trial_type": "single-audio", "word": "judge", "stimulus": "/static/audio/wordpool/JUDGE.wav", "conditions": [24, 1600, "a", 24000], "internal_node_id": "0.0-79.0", "trial": 2, "time_elapsed": 500072, "serialpos": 17, "key_press": -1, "wordID": 760, "type": "PRES_AUD", "trial_index": 106}, "uniqueid": "MTK3481:369J354OFEHW5JICPP4OQOHCUM1G64", "dateTime": 1520619288808}, {"current_trial": 107, "trialdata": {"rt": -1000, "trial_type": "single-audio", "word": "penguin", "stimulus": "/static/audio/wordpool/PENGUIN.wav", "conditions": [24, 1600, "a", 24000], "internal_node_id": "0.0-80.0", "trial": 2, "time_elapsed": 502519, "serialpos": 18, "key_press": -1, "wordID": 1043, "type": "PRES_AUD", "trial_index": 107}, "uniqueid": "MTK3481:369J354OFEHW5JICPP4OQOHCUM1G64", "dateTime": 1520619291255}, {"current_trial": 108, "trialdata": {"rt": -1000, "trial_type": "single-audio", "word": "brandy", "stimulus": "/static/audio/wordpool/BRANDY.wav", "conditions": [24, 1600, "a", 24000], "internal_node_id": "0.0-81.0", "trial": 2, "time_elapsed": 504962, "serialpos": 19, "key_press": -1, "wordID": 168, "type": "PRES_AUD", "trial_index": 108}, "uniqueid": "MTK3481:369J354OFEHW5JICPP4OQOHCUM1G64", "dateTime": 1520619293698}, {"current_trial": 109, "trialdata": {"rt": -1000, "trial_type": "single-audio", "word": "lipstick", "stimulus": "/static/audio/wordpool/LIPSTICK.wav", "conditions": [24, 1600, "a", 24000], "internal_node_id": "0.0-82.0", "trial": 2, "time_elapsed": 507525, "serialpos": 20, "key_press": -1, "wordID": 828, "type": "PRES_AUD", "trial_index": 109}, "uniqueid": "MTK3481:369J354OFEHW5JICPP4OQOHCUM1G64", "dateTime": 1520619296261}, {"current_trial": 110, "trialdata": {"rt": -1000, "trial_type": "single-audio", "word": "chest", "stimulus": "/static/audio/wordpool/CHEST.wav", "conditions": [24, 1600, "a", 24000], "internal_node_id": "0.0-83.0", "trial": 2, "time_elapsed": 510060, "serialpos": 21, "key_press": -1, "wordID": 294, "type": "PRES_AUD", "trial_index": 110}, "uniqueid": "MTK3481:369J354OFEHW5JICPP4OQOHCUM1G64", "dateTime": 1520619298796}, {"current_trial": 111, "trialdata": {"rt": -1000, "trial_type": "single-audio", "word": "hiker", "stimulus": "/static/audio/wordpool/HIKER.wav", "conditions": [24, 1600, "a", 24000], "internal_node_id": "0.0-84.0", "trial": 2, "time_elapsed": 512588, "serialpos": 22, "key_press": -1, "wordID": 707, "type": "PRES_AUD", "trial_index": 111}, "uniqueid": "MTK3481:369J354OFEHW5JICPP4OQOHCUM1G64", "dateTime": 1520619301324}, {"current_trial": 112, "trialdata": {"rt": -1000, "trial_type": "single-audio", "word": "proton", "stimulus": "/static/audio/wordpool/PROTON.wav", "conditions": [24, 1600, "a", 24000], "internal_node_id": "0.0-85.0", "trial": 2, "time_elapsed": 515032, "serialpos": 23, "key_press": -1, "wordID": 1131, "type": "PRES_AUD", "trial_index": 112}, "uniqueid": "MTK3481:369J354OFEHW5JICPP4OQOHCUM1G64", "dateTime": 1520619303768}, {"current_trial": 113, "trialdata": {"rt": -1, "trial_type": "single-stim", "stimulus": "", "internal_node_id": "0.0-86.0-0.0", "time_elapsed": 516286, "key_press": -1, "type": "PRE_RECALL_DELAY", "trial_index": 113}, "uniqueid": "MTK3481:369J354OFEHW5JICPP4OQOHCUM1G64", "dateTime": 1520619305022}, {"current_trial": 114, "trialdata": {"rt": -1000, "trial_type": "single-audio", "stimulus": "/static/audio/400Hz.wav", "internal_node_id": "0.0-87.0", "time_elapsed": 516787, "key_press": -1, "type": "PRE_RECALL_ALERT", "trial_index": 114}, "uniqueid": "MTK3481:369J354OFEHW5JICPP4OQOHCUM1G64", "dateTime": 1520619305523}, {"current_trial": 115, "trialdata": {"rt": [4849, 6913, 9145, 11002, 15209, 20290, 21338, 26385, 31825, 33194, 38177, 40779, 46498, 51025], "recwords": ["patrol", "boyfriend", "scissors", "beef", "pork", "lizard", "cobra", "penguin", "diner", "fiddle", "police", "judge", "victim", "proton"], "key_times": [3515, 3635, 3882, 4059, 4114, 4394, 4849, 5371, 5451, 5651, 6011, 6195, 6300, 6379, 6468, 6570, 6913, 7298, 7482, 7818, 7948, 8074, 8211, 8314, 8619, 9145, 9907, 10106, 10218, 10531, 11002, 11274, 11363, 11459, 12562, 12698, 12843, 13099, 13362, 13467, 14083, 14251, 14730, 14834, 14948, 15209, 18914, 19059, 19218, 19395, 19458, 19706, 20290, 20571, 20651, 20834, 21042, 21130, 21338, 21635, 22194, 22451, 22578, 22658, 22866, 23019, 23114, 24266, 24410, 24570, 25298, 25506, 25874, 26122, 26385, 30642, 30794, 30898, 31068, 31130, 31825, 32106, 32202, 32586, 32722, 32866, 32938, 33194, 34339, 34507, 34731, 34780, 34883, 35082, 38177, 39147, 39339, 39715, 40467, 40604, 40779, 41074, 41163, 41386, 41882, 42234, 42650, 46498, 48818, 49387, 49530, 49794, 49956, 50267, 51025, 59147, 59354, 59466, 59644, 59883, 59971], "trial_type": "free-recall", "conditions": [24, 1600, "a", 24000], "internal_node_id": "0.0-88.0-0.0", "key_presses": [80, 65, 84, 82, 79, 76, 13, 66, 79, 89, 70, 82, 73, 69, 78, 68, 13, 83, 67, 73, 83, 83, 79, 82, 83, 13, 66, 69, 69, 70, 13, 70, 79, 82, 8, 8, 8, 80, 82, 75, 8, 8, 79, 82, 75, 13, 76, 73, 90, 65, 82, 68, 13, 67, 79, 66, 82, 65, 13, 66, 8, 80, 69, 78, 71, 73, 78, 8, 8, 8, 71, 85, 73, 78, 13, 68, 73, 78, 69, 82, 13, 70, 73, 68, 68, 76, 69, 13, 80, 79, 76, 73, 67, 69, 13, 74, 85, 68, 71, 69, 13, 86, 73, 67, 84, 73, 77, 13, 80, 82, 79, 84, 79, 78, 13, 83, 67, 79, 84, 67, 72], "trial": 2, "time_elapsed": 576793, "type": "FREE_RECALL", "trial_index": 115}, "uniqueid": "MTK3481:369J354OFEHW5JICPP4OQOHCUM1G64", "dateTime": 1520619365533}, {"current_trial": 116, "trialdata": {"rt": 4162, "trial_type": "text", "internal_node_id": "0.0-89.0", "time_elapsed": 582959, "key_press": 13, "type": "INSTRUCTIONS", "trial_index": 116}, "uniqueid": "MTK3481:369J354OFEHW5JICPP4OQOHCUM1G64", "dateTime": 1520619371695}, {"current_trial": 117, "trialdata": {"rt": [5100, 7420, 9900, 11500, 13421, 17556, 20901], "trial_type": "math-distractor", "key_times": [4678, 4821, 5100, 6757, 7013, 7420, 9454, 9653, 9900, 11149, 11285, 11500, 13173, 13421, 16797, 16973, 17556, 20029, 20325, 20901], "responses": ["23", "14", "15", "11", "7", "12", "17"], "num2": [9, 9, 7, 4, 5, 1, 2, 9], "num3": [5, 1, 4, 1, 1, 8, 9, 8], "conditions": [12, 800, "a", 24000], "internal_node_id": "0.0-90.0", "key_presses": [98, 99, 13, 97, 100, 13, 97, 101, 13, 97, 97, 13, 103, 13, 97, 98, 13, 97, 103, 13], "trial": 3, "time_elapsed": 608964, "type": "DISTRACTOR", "trial_index": 117, "num1": [9, 4, 4, 6, 1, 3, 6, 5]}, "uniqueid": "MTK3481:369J354OFEHW5JICPP4OQOHCUM1G64", "dateTime": 1520619397700}, {"current_trial": 118, "trialdata": {"rt": -1, "trial_type": "single-stim", "stimulus": "<p id=\"stim\">10</p>", "internal_node_id": "0.0-91.0-0.0", "time_elapsed": 611966, "key_press": -1, "trial_index": 118}, "uniqueid": "MTK3481:369J354OFEHW5JICPP4OQOHCUM1G64", "dateTime": 1520619400702}, {"current_trial": 119, "trialdata": {"rt": -1, "trial_type": "single-stim", "stimulus": "<p id=\"stim\">9</p>", "internal_node_id": "0.0-91.0-1.0", "time_elapsed": 612968, "key_press": -1, "trial_index": 119}, "uniqueid": "MTK3481:369J354OFEHW5JICPP4OQOHCUM1G64", "dateTime": 1520619401704}, {"current_trial": 120, "trialdata": {"rt": -1, "trial_type": "single-stim", "stimulus": "<p id=\"stim\">8</p>", "internal_node_id": "0.0-91.0-2.0", "time_elapsed": 613969, "key_press": -1, "trial_index": 120}, "uniqueid": "MTK3481:369J354OFEHW5JICPP4OQOHCUM1G64", "dateTime": 1520619402705}, {"current_trial": 121, "trialdata": {"rt": -1, "trial_type": "single-stim", "stimulus": "<p id=\"stim\">7</p>", "internal_node_id": "0.0-91.0-3.0", "time_elapsed": 614971, "key_press": -1, "trial_index": 121}, "uniqueid": "MTK3481:369J354OFEHW5JICPP4OQOHCUM1G64", "dateTime": 1520619403708}, {"current_trial": 122, "trialdata": {"rt": -1, "trial_type": "single-stim", "stimulus": "<p id=\"stim\">6</p>", "internal_node_id": "0.0-91.0-4.0", "time_elapsed": 615973, "key_press": -1, "trial_index": 122}, "uniqueid": "MTK3481:369J354OFEHW5JICPP4OQOHCUM1G64", "dateTime": 1520619404709}, {"current_trial": 123, "trialdata": {"rt": -1, "trial_type": "single-stim", "stimulus": "<p id=\"stim\">5</p>", "internal_node_id": "0.0-91.0-5.0", "time_elapsed": 616974, "key_press": -1, "trial_index": 123}, "uniqueid": "MTK3481:369J354OFEHW5JICPP4OQOHCUM1G64", "dateTime": 1520619405710}, {"current_trial": 124, "trialdata": {"rt": -1, "trial_type": "single-stim", "stimulus": "<p id=\"stim\">4</p>", "internal_node_id": "0.0-91.0-6.0", "time_elapsed": 617976, "key_press": -1, "trial_index": 124}, "uniqueid": "MTK3481:369J354OFEHW5JICPP4OQOHCUM1G64", "dateTime": 1520619406712}, {"current_trial": 125, "trialdata": {"rt": -1, "trial_type": "single-stim", "stimulus": "<p id=\"stim\">3</p>", "internal_node_id": "0.0-91.0-7.0", "time_elapsed": 618977, "key_press": -1, "trial_index": 125}, "uniqueid": "MTK3481:369J354OFEHW5JICPP4OQOHCUM1G64", "dateTime": 1520619407713}, {"current_trial": 126, "trialdata": {"rt": -1, "trial_type": "single-stim", "stimulus": "<p id=\"stim\">2</p>", "internal_node_id": "0.0-91.0-8.0", "time_elapsed": 619979, "key_press": -1, "trial_index": 126}, "uniqueid": "MTK3481:369J354OFEHW5JICPP4OQOHCUM1G64", "dateTime": 1520619408715}, {"current_trial": 127, "trialdata": {"rt": -1, "trial_type": "single-stim", "stimulus": "<p id=\"stim\">1</p>", "internal_node_id": "0.0-91.0-9.0", "time_elapsed": 620980, "key_press": -1, "trial_index": 127}, "uniqueid": "MTK3481:369J354OFEHW5JICPP4OQOHCUM1G64", "dateTime": 1520619409716}, {"current_trial": 128, "trialdata": {"rt": -1, "trial_type": "single-stim", "stimulus": "<p id=\"stim\">+</p>", "internal_node_id": "0.0-92.0-0.0", "time_elapsed": 622482, "key_press": -1, "type": "FIXATION", "trial_index": 128}, "uniqueid": "MTK3481:369J354OFEHW5JICPP4OQOHCUM1G64", "dateTime": 1520619411218}, {"current_trial": 129, "trialdata": {"rt": -1000, "trial_type": "single-audio", "word": "wasp", "stimulus": "/static/audio/wordpool/WASP.wav", "conditions": [12, 800, "a", 24000], "internal_node_id": "0.0-93.0", "trial": 3, "time_elapsed": 624357, "serialpos": 0, "key_press": -1, "wordID": 1592, "type": "PRES_AUD", "trial_index": 129}, "uniqueid": "MTK3481:369J354OFEHW5JICPP4OQOHCUM1G64", "dateTime": 1520619413094}, {"current_trial": 130, "trialdata": {"rt": -1000, "trial_type": "single-audio", "word": "vagrant", "stimulus": "/static/audio/wordpool/VAGRANT.wav", "conditions": [12, 800, "a", 24000], "internal_node_id": "0.0-94.0", "trial": 3, "time_elapsed": 626155, "serialpos": 1, "key_press": -1, "wordID": 1543, "type": "PRES_AUD", "trial_index": 130}, "uniqueid": "MTK3481:369J354OFEHW5JICPP4OQOHCUM1G64", "dateTime": 1520619414892}, {"current_trial": 131, "trialdata": {"rt": -1000, "trial_type": "single-audio", "word": "nomad", "stimulus": "/static/audio/wordpool/NOMAD.wav", "conditions": [12, 800, "a", 24000], "internal_node_id": "0.0-95.0", "trial": 3, "time_elapsed": 627952, "serialpos": 2, "key_press": -1, "wordID": 954, "type": "PRES_AUD", "trial_index": 131}, "uniqueid": "MTK3481:369J354OFEHW5JICPP4OQOHCUM1G64", "dateTime": 1520619416688}, {"current_trial": 132, "trialdata": {"rt": -1000, "trial_type": "single-audio", "word": "sword", "stimulus": "/static/audio/wordpool/SWORD.wav", "conditions": [12, 800, "a", 24000], "internal_node_id": "0.0-96.0", "trial": 3, "time_elapsed": 629735, "serialpos": 3, "key_press": -1, "wordID": 1422, "type": "PRES_AUD", "trial_index": 132}, "uniqueid": "MTK3481:369J354OFEHW5JICPP4OQOHCUM1G64", "dateTime": 1520619418471}, {"current_trial": 133, "trialdata": {"rt": -1000, "trial_type": "single-audio", "word": "fungus", "stimulus": "/static/audio/wordpool/FUNGUS.wav", "conditions": [12, 800, "a", 24000], "internal_node_id": "0.0-97.0", "trial": 3, "time_elapsed": 631620, "serialpos": 4, "key_press": -1, "wordID": 613, "type": "PRES_AUD", "trial_index": 133}, "uniqueid": "MTK3481:369J354OFEHW5JICPP4OQOHCUM1G64", "dateTime": 1520619420356}, {"current_trial": 134, "trialdata": {"rt": -1000, "trial_type": "single-audio", "word": "tablet", "stimulus": "/static/audio/wordpool/TABLET.wav", "conditions": [12, 800, "a", 24000], "internal_node_id": "0.0-98.0", "trial": 3, "time_elapsed": 633249, "serialpos": 5, "key_press": -1, "wordID": 1426, "type": "PRES_AUD", "trial_index": 134}, "uniqueid": "MTK3481:369J354OFEHW5JICPP4OQOHCUM1G64", "dateTime": 1520619421985}, {"current_trial": 135, "trialdata": {"rt": -1000, "trial_type": "single-audio", "word": "staple", "stimulus": "/static/audio/wordpool/STAPLE.wav", "conditions": [12, 800, "a", 24000], "internal_node_id": "0.0-99.0", "trial": 3, "time_elapsed": 634878, "serialpos": 6, "key_press": -1, "wordID": 1370, "type": "PRES_AUD", "trial_index": 135}, "uniqueid": "MTK3481:369J354OFEHW5JICPP4OQOHCUM1G64", "dateTime": 1520619423614}, {"current_trial": 136, "trialdata": {"rt": -1000, "trial_type": "single-audio", "word": "dragon", "stimulus": "/static/audio/wordpool/DRAGON.wav", "conditions": [12, 800, "a", 24000], "internal_node_id": "0.0-100.0", "trial": 3, "time_elapsed": 636761, "serialpos": 7, "key_press": -1, "wordID": 491, "type": "PRES_AUD", "trial_index": 136}, "uniqueid": "MTK3481:369J354OFEHW5JICPP4OQOHCUM1G64", "dateTime": 1520619425497}, {"current_trial": 137, "trialdata": {"rt": -1000, "trial_type": "single-audio", "word": "goblin", "stimulus": "/static/audio/wordpool/GOBLIN.wav", "conditions": [12, 800, "a", 24000], "internal_node_id": "0.0-101.0", "trial": 3, "time_elapsed": 638665, "serialpos": 8, "key_press": -1, "wordID": 644, "type": "PRES_AUD", "trial_index": 137}, "uniqueid": "MTK3481:369J354OFEHW5JICPP4OQOHCUM1G64", "dateTime": 1520619427419}, {"current_trial": 138, "trialdata": {"rt": -1000, "trial_type": "single-audio", "word": "baby", "stimulus": "/static/audio/wordpool/BABY.wav", "conditions": [12, 800, "a", 24000], "internal_node_id": "0.0-102.0", "trial": 3, "time_elapsed": 640457, "serialpos": 9, "key_press": -1, "wordID": 63, "type": "PRES_AUD", "trial_index": 138}, "uniqueid": "MTK3481:369J354OFEHW5JICPP4OQOHCUM1G64", "dateTime": 1520619429194}, {"current_trial": 139, "trialdata": {"rt": -1000, "trial_type": "single-audio", "word": "harp", "stimulus": "/static/audio/wordpool/HARP.wav", "conditions": [12, 800, "a", 24000], "internal_node_id": "0.0-103.0", "trial": 3, "time_elapsed": 642350, "serialpos": 10, "key_press": -1, "wordID": 688, "type": "PRES_AUD", "trial_index": 139}, "uniqueid": "MTK3481:369J354OFEHW5JICPP4OQOHCUM1G64", "dateTime": 1520619431087}, {"current_trial": 140, "trialdata": {"rt": -1000, "trial_type": "single-audio", "word": "shelter", "stimulus": "/static/audio/wordpool/SHELTER.wav", "conditions": [12, 800, "a", 24000], "internal_node_id": "0.0-104.0", "trial": 3, "time_elapsed": 644302, "serialpos": 11, "key_press": -1, "wordID": 1281, "type": "PRES_AUD", "trial_index": 140}, "uniqueid": "MTK3481:369J354OFEHW5JICPP4OQOHCUM1G64", "dateTime": 1520619433038}, {"current_trial": 141, "trialdata": {"rt": -1, "trial_type": "single-stim", "stimulus": "", "internal_node_id": "0.0-105.0-0.0", "time_elapsed": 645553, "key_press": -1, "type": "PRE_RECALL_DELAY", "trial_index": 141}, "uniqueid": "MTK3481:369J354OFEHW5JICPP4OQOHCUM1G64", "dateTime": 1520619434289}, {"current_trial": 142, "trialdata": {"rt": -1000, "trial_type": "single-audio", "stimulus": "/static/audio/400Hz.wav", "internal_node_id": "0.0-106.0", "time_elapsed": 646054, "key_press": -1, "type": "PRE_RECALL_ALERT", "trial_index": 142}, "uniqueid": "MTK3481:369J354OFEHW5JICPP4OQOHCUM1G64", "dateTime": 1520619434790}, {"current_trial": 143, "trialdata": {"rt": [2936, 4631, 7287, 10519, 13063, 15543, 17535, 20263, 26447, 28599, 38262, 56975], "recwords": ["wasp", "vagrant", "nomad", "sword", "fungus", "tablet", "dragon", "goblin", "baby", "harp", "", ""], "key_times": [1785, 2024, 2216, 2504, 2936, 3328, 3450, 3648, 3840, 3889, 4008, 4296, 4631, 5393, 5736, 5937, 6080, 6352, 6553, 6904, 7287, 7520, 7808, 7935, 8097, 8456, 9152, 9304, 9440, 9953, 10056, 10280, 10519, 10784, 10953, 11191, 11392, 11521, 11888, 13063, 13328, 13497, 13776, 14000, 14186, 14488, 15543, 16248, 16496, 16681, 16928, 17073, 17144, 17535, 17848, 18018, 18208, 18448, 18570, 18777, 20263, 21424, 21592, 21897, 22224, 26447, 27087, 27271, 27520, 27768, 28599, 38262, 56975], "trial_type": "free-recall", "conditions": [12, 800, "a", 24000], "internal_node_id": "0.0-107.0-0.0", "key_presses": [87, 65, 83, 80, 13, 86, 65, 71, 82, 65, 78, 84, 13, 79, 8, 78, 79, 77, 65, 68, 13, 83, 87, 65, 82, 68, 8, 8, 8, 79, 82, 68, 13, 70, 85, 78, 71, 85, 83, 13, 84, 65, 66, 76, 69, 84, 13, 68, 82, 65, 71, 79, 78, 13, 71, 79, 66, 76, 73, 78, 13, 66, 65, 66, 89, 13, 72, 65, 82, 80, 13, 13, 13], "trial": 3, "time_elapsed": 706058, "type": "FREE_RECALL", "trial_index": 143}, "uniqueid": "MTK3481:369J354OFEHW5JICPP4OQOHCUM1G64", "dateTime": 1520619494799}, {"current_trial": 144, "trialdata": {"rt": 1054, "trial_type": "text", "internal_node_id": "0.0-108.0", "time_elapsed": 709119, "key_press": 13, "type": "INSTRUCTIONS", "trial_index": 144}, "uniqueid": "MTK3481:369J354OFEHW5JICPP4OQOHCUM1G64", "dateTime": 1520619497855}, {"current_trial": 145, "trialdata": {"rt": [2420, 6291, 8564], "trial_type": "math-distractor", "key_times": [2205, 2420, 5285, 5468, 6291, 8157, 8325, 8564], "responses": ["6", "20", "15"], "num2": [1, 7, 3, 6], "num3": [3, 4, 4, 5], "conditions": [24, 1600, "a", 12000], "internal_node_id": "0.0-109.0", "key_presses": [102, 13, 98, 96, 13, 97, 101, 13], "trial": 4, "time_elapsed": 723124, "type": "DISTRACTOR", "trial_index": 145, "num1": [2, 9, 8, 8]}, "uniqueid": "MTK3481:369J354OFEHW5JICPP4OQOHCUM1G64", "dateTime": 1520619511860}, {"current_trial": 146, "trialdata": {"rt": -1, "trial_type": "single-stim", "stimulus": "<p id=\"stim\">10</p>", "internal_node_id": "0.0-110.0-0.0", "time_elapsed": 726127, "key_press": -1, "trial_index": 146}, "uniqueid": "MTK3481:369J354OFEHW5JICPP4OQOHCUM1G64", "dateTime": 1520619514863}, {"current_trial": 147, "trialdata": {"rt": -1, "trial_type": "single-stim", "stimulus": "<p id=\"stim\">9</p>", "internal_node_id": "0.0-110.0-1.0", "time_elapsed": 727129, "key_press": -1, "trial_index": 147}, "uniqueid": "MTK3481:369J354OFEHW5JICPP4OQOHCUM1G64", "dateTime": 1520619515865}, {"current_trial": 148, "trialdata": {"rt": -1, "trial_type": "single-stim", "stimulus": "<p id=\"stim\">8</p>", "internal_node_id": "0.0-110.0-2.0", "time_elapsed": 728130, "key_press": -1, "trial_index": 148}, "uniqueid": "MTK3481:369J354OFEHW5JICPP4OQOHCUM1G64", "dateTime": 1520619516866}, {"current_trial": 149, "trialdata": {"rt": -1, "trial_type": "single-stim", "stimulus": "<p id=\"stim\">7</p>", "internal_node_id": "0.0-110.0-3.0", "time_elapsed": 729132, "key_press": -1, "trial_index": 149}, "uniqueid": "MTK3481:369J354OFEHW5JICPP4OQOHCUM1G64", "dateTime": 1520619517868}, {"current_trial": 150, "trialdata": {"rt": -1, "trial_type": "single-stim", "stimulus": "<p id=\"stim\">6</p>", "internal_node_id": "0.0-110.0-4.0", "time_elapsed": 730134, "key_press": -1, "trial_index": 150}, "uniqueid": "MTK3481:369J354OFEHW5JICPP4OQOHCUM1G64", "dateTime": 1520619518870}, {"current_trial": 151, "trialdata": {"rt": -1, "trial_type": "single-stim", "stimulus": "<p id=\"stim\">5</p>", "internal_node_id": "0.0-110.0-5.0", "time_elapsed": 731136, "key_press": -1, "trial_index": 151}, "uniqueid": "MTK3481:369J354OFEHW5JICPP4OQOHCUM1G64", "dateTime": 1520619519872}, {"current_trial": 152, "trialdata": {"rt": -1, "trial_type": "single-stim", "stimulus": "<p id=\"stim\">4</p>", "internal_node_id": "0.0-110.0-6.0", "time_elapsed": 732137, "key_press": -1, "trial_index": 152}, "uniqueid": "MTK3481:369J354OFEHW5JICPP4OQOHCUM1G64", "dateTime": 1520619520873}, {"current_trial": 153, "trialdata": {"rt": -1, "trial_type": "single-stim", "stimulus": "<p id=\"stim\">3</p>", "internal_node_id": "0.0-110.0-7.0", "time_elapsed": 733140, "key_press": -1, "trial_index": 153}, "uniqueid": "MTK3481:369J354OFEHW5JICPP4OQOHCUM1G64", "dateTime": 1520619521876}, {"current_trial": 154, "trialdata": {"rt": -1, "trial_type": "single-stim", "stimulus": "<p id=\"stim\">2</p>", "internal_node_id": "0.0-110.0-8.0", "time_elapsed": 734141, "key_press": -1, "trial_index": 154}, "uniqueid": "MTK3481:369J354OFEHW5JICPP4OQOHCUM1G64", "dateTime": 1520619522877}, {"current_trial": 155, "trialdata": {"rt": -1, "trial_type": "single-stim", "stimulus": "<p id=\"stim\">1</p>", "internal_node_id": "0.0-110.0-9.0", "time_elapsed": 735142, "key_press": -1, "trial_index": 155}, "uniqueid": "MTK3481:369J354OFEHW5JICPP4OQOHCUM1G64", "dateTime": 1520619523878}, {"current_trial": 156, "trialdata": {"rt": -1, "trial_type": "single-stim", "stimulus": "<p id=\"stim\">+</p>", "internal_node_id": "0.0-111.0-0.0", "time_elapsed": 736644, "key_press": -1, "type": "FIXATION", "trial_index": 156}, "uniqueid": "MTK3481:369J354OFEHW5JICPP4OQOHCUM1G64", "dateTime": 1520619525380}, {"current_trial": 157, "trialdata": {"rt": -1000, "trial_type": "single-audio", "word": "lettuce", "stimulus": "/static/audio/wordpool/LETTUCE.wav", "conditions": [24, 1600, "a", 12000], "internal_node_id": "0.0-112.0", "trial": 4, "time_elapsed": 739364, "serialpos": 0, "key_press": -1, "wordID": 813, "type": "PRES_AUD", "trial_index": 157}, "uniqueid": "MTK3481:369J354OFEHW5JICPP4OQOHCUM1G64", "dateTime": 1520619528100}, {"current_trial": 158, "trialdata": {"rt": -1000, "trial_type": "single-audio", "word": "leader", "stimulus": "/static/audio/wordpool/LEADER.wav", "conditions": [24, 1600, "a", 12000], "internal_node_id": "0.0-113.0", "trial": 4, "time_elapsed": 741928, "serialpos": 1, "key_press": -1, "wordID": 806, "type": "PRES_AUD", "trial_index": 158}, "uniqueid": "MTK3481:369J354OFEHW5JICPP4OQOHCUM1G64", "dateTime": 1520619530664}, {"current_trial": 159, "trialdata": {"rt": -1000, "trial_type": "single-audio", "word": "poet", "stimulus": "/static/audio/wordpool/POET.wav", "conditions": [24, 1600, "a", 12000], "internal_node_id": "0.0-114.0", "trial": 4, "time_elapsed": 744332, "serialpos": 2, "key_press": -1, "wordID": 1094, "type": "PRES_AUD", "trial_index": 159}, "uniqueid": "MTK3481:369J354OFEHW5JICPP4OQOHCUM1G64", "dateTime": 1520619533069}, {"current_trial": 160, "trialdata": {"rt": -1000, "trial_type": "single-audio", "word": "dancer", "stimulus": "/static/audio/wordpool/DANCER.wav", "conditions": [24, 1600, "a", 12000], "internal_node_id": "0.0-115.0", "trial": 4, "time_elapsed": 747091, "serialpos": 3, "key_press": -1, "wordID": 436, "type": "PRES_AUD", "trial_index": 160}, "uniqueid": "MTK3481:369J354OFEHW5JICPP4OQOHCUM1G64", "dateTime": 1520619535828}, {"current_trial": 161, "trialdata": {"rt": -1000, "trial_type": "single-audio", "word": "lady", "stimulus": "/static/audio/wordpool/LADY.wav", "conditions": [24, 1600, "a", 12000], "internal_node_id": "0.0-116.0", "trial": 4, "time_elapsed": 749695, "serialpos": 4, "key_press": -1, "wordID": 793, "type": "PRES_AUD", "trial_index": 161}, "uniqueid": "MTK3481:369J354OFEHW5JICPP4OQOHCUM1G64", "dateTime": 1520619538431}, {"current_trial": 162, "trialdata": {"rt": -1000, "trial_type": "single-audio", "word": "woman", "stimulus": "/static/audio/wordpool/WOMAN.wav", "conditions": [24, 1600, "a", 12000], "internal_node_id": "0.0-117.0", "trial": 4, "time_elapsed": 752292, "serialpos": 5, "key_press": -1, "wordID": 1619, "type": "PRES_AUD", "trial_index": 162}, "uniqueid": "MTK3481:369J354OFEHW5JICPP4OQOHCUM1G64", "dateTime": 1520619541028}, {"current_trial": 163, "trialdata": {"rt": -1000, "trial_type": "single-audio", "word": "drug", "stimulus": "/static/audio/wordpool/DRUG.wav", "conditions": [24, 1600, "a", 12000], "internal_node_id": "0.0-118.0", "trial": 4, "time_elapsed": 754780, "serialpos": 6, "key_press": -1, "wordID": 500, "type": "PRES_AUD", "trial_index": 163}, "uniqueid": "MTK3481:369J354OFEHW5JICPP4OQOHCUM1G64", "dateTime": 1520619543517}, {"current_trial": 164, "trialdata": {"rt": -1000, "trial_type": "single-audio", "word": "sparrow", "stimulus": "/static/audio/wordpool/SPARROW.wav", "conditions": [24, 1600, "a", 12000], "internal_node_id": "0.0-119.0", "trial": 4, "time_elapsed": 757459, "serialpos": 7, "key_press": -1, "wordID": 1346, "type": "PRES_AUD", "trial_index": 164}, "uniqueid": "MTK3481:369J354OFEHW5JICPP4OQOHCUM1G64", "dateTime": 1520619546196}, {"current_trial": 165, "trialdata": {"rt": -1000, "trial_type": "single-audio", "word": "flashlight", "stimulus": "/static/audio/wordpool/FLASHLIGHT.wav", "conditions": [24, 1600, "a", 12000], "internal_node_id": "0.0-120.0", "trial": 4, "time_elapsed": 759991, "serialpos": 8, "key_press": -1, "wordID": 574, "type": "PRES_AUD", "trial_index": 165}, "uniqueid": "MTK3481:369J354OFEHW5JICPP4OQOHCUM1G64", "dateTime": 1520619548727}, {"current_trial": 166, "trialdata": {"rt": -1000, "trial_type": "single-audio", "word": "radish", "stimulus": "/static/audio/wordpool/RADISH.wav", "conditions": [24, 1600, "a", 12000], "internal_node_id": "0.0-121.0", "trial": 4, "time_elapsed": 762506, "serialpos": 9, "key_press": -1, "wordID": 1157, "type": "PRES_AUD", "trial_index": 166}, "uniqueid": "MTK3481:369J354OFEHW5JICPP4OQOHCUM1G64", "dateTime": 1520619551242}, {"current_trial": 167, "trialdata": {"rt": -1000, "trial_type": "single-audio", "word": "cocktail", "stimulus": "/static/audio/wordpool/COCKTAIL.wav", "conditions": [24, 1600, "a", 12000], "internal_node_id": "0.0-122.0", "trial": 4, "time_elapsed": 765202, "serialpos": 10, "key_press": -1, "wordID": 337, "type": "PRES_AUD", "trial_index": 167}, "uniqueid": "MTK3481:369J354OFEHW5JICPP4OQOHCUM1G64", "dateTime": 1520619553938}, {"current_trial": 168, "trialdata": {"rt": -1000, "trial_type": "single-audio", "word": "canyon", "stimulus": "/static/audio/wordpool/CANYON.wav", "conditions": [24, 1600, "a", 12000], "internal_node_id": "0.0-123.0", "trial": 4, "time_elapsed": 767729, "serialpos": 11, "key_press": -1, "wordID": 234, "type": "PRES_AUD", "trial_index": 168}, "uniqueid": "MTK3481:369J354OFEHW5JICPP4OQOHCUM1G64", "dateTime": 1520619556465}, {"current_trial": 169, "trialdata": {"rt": -1000, "trial_type": "single-audio", "word": "hamper", "stimulus": "/static/audio/wordpool/HAMPER.wav", "conditions": [24, 1600, "a", 12000], "internal_node_id": "0.0-124.0", "trial": 4, "time_elapsed": 770493, "serialpos": 12, "key_press": -1, "wordID": 681, "type": "PRES_AUD", "trial_index": 169}, "uniqueid": "MTK3481:369J354OFEHW5JICPP4OQOHCUM1G64", "dateTime": 1520619559230}, {"current_trial": 170, "trialdata": {"rt": -1000, "trial_type": "single-audio", "word": "cowboy", "stimulus": "/static/audio/wordpool/COWBOY.wav", "conditions": [24, 1600, "a", 12000], "internal_node_id": "0.0-125.0", "trial": 4, "time_elapsed": 773217, "serialpos": 13, "key_press": -1, "wordID": 394, "type": "PRES_AUD", "trial_index": 170}, "uniqueid": "MTK3481:369J354OFEHW5JICPP4OQOHCUM1G64", "dateTime": 1520619561953}, {"current_trial": 171, "trialdata": {"rt": -1000, "trial_type": "single-audio", "word": "dresser", "stimulus": "/static/audio/wordpool/DRESSER.wav", "conditions": [24, 1600, "a", 12000], "internal_node_id": "0.0-126.0", "trial": 4, "time_elapsed": 775807, "serialpos": 14, "key_press": -1, "wordID": 495, "type": "PRES_AUD", "trial_index": 171}, "uniqueid": "MTK3481:369J354OFEHW5JICPP4OQOHCUM1G64", "dateTime": 1520619564543}, {"current_trial": 172, "trialdata": {"rt": -1000, "trial_type": "single-audio", "word": "canal", "stimulus": "/static/audio/wordpool/CANAL.wav", "conditions": [24, 1600, "a", 12000], "internal_node_id": "0.0-127.0", "trial": 4, "time_elapsed": 778367, "serialpos": 15, "key_press": -1, "wordID": 225, "type": "PRES_AUD", "trial_index": 172}, "uniqueid": "MTK3481:369J354OFEHW5JICPP4OQOHCUM1G64", "dateTime": 1520619567103}, {"current_trial": 173, "trialdata": {"rt": -1000, "trial_type": "single-audio", "word": "preacher", "stimulus": "/static/audio/wordpool/PREACHER.wav", "conditions": [24, 1600, "a", 12000], "internal_node_id": "0.0-128.0", "trial": 4, "time_elapsed": 780931, "serialpos": 16, "key_press": -1, "wordID": 1118, "type": "PRES_AUD", "trial_index": 173}, "uniqueid": "MTK3481:369J354OFEHW5JICPP4OQOHCUM1G64", "dateTime": 1520619569667}, {"current_trial": 174, "trialdata": {"rt": -1000, "trial_type": "single-audio", "word": "farmer", "stimulus": "/static/audio/wordpool/FARMER.wav", "conditions": [24, 1600, "a", 12000], "internal_node_id": "0.0-129.0", "trial": 4, "time_elapsed": 783619, "serialpos": 17, "key_press": -1, "wordID": 552, "type": "PRES_AUD", "trial_index": 174}, "uniqueid": "MTK3481:369J354OFEHW5JICPP4OQOHCUM1G64", "dateTime": 1520619572355}, {"current_trial": 175, "trialdata": {"rt": -1000, "trial_type": "single-audio", "word": "fox", "stimulus": "/static/audio/wordpool/FOX.wav", "conditions": [24, 1600, "a", 12000], "internal_node_id": "0.0-130.0", "trial": 4, "time_elapsed": 786153, "serialpos": 18, "key_press": -1, "wordID": 597, "type": "PRES_AUD", "trial_index": 175}, "uniqueid": "MTK3481:369J354OFEHW5JICPP4OQOHCUM1G64", "dateTime": 1520619574889}, {"current_trial": 176, "trialdata": {"rt": -1000, "trial_type": "single-audio", "word": "tombstone", "stimulus": "/static/audio/wordpool/TOMBSTONE.wav", "conditions": [24, 1600, "a", 12000], "internal_node_id": "0.0-131.0", "trial": 4, "time_elapsed": 788936, "serialpos": 19, "key_press": -1, "wordID": 1477, "type": "PRES_AUD", "trial_index": 176}, "uniqueid": "MTK3481:369J354OFEHW5JICPP4OQOHCUM1G64", "dateTime": 1520619577673}, {"current_trial": 177, "trialdata": {"rt": -1000, "trial_type": "single-audio", "word": "casket", "stimulus": "/static/audio/wordpool/CASKET.wav", "conditions": [24, 1600, "a", 12000], "internal_node_id": "0.0-132.0", "trial": 4, "time_elapsed": 791707, "serialpos": 20, "key_press": -1, "wordID": 254, "type": "PRES_AUD", "trial_index": 177}, "uniqueid": "MTK3481:369J354OFEHW5JICPP4OQOHCUM1G64", "dateTime": 1520619580443}, {"current_trial": 178, "trialdata": {"rt": -1000, "trial_type": "single-audio", "word": "robin", "stimulus": "/static/audio/wordpool/ROBIN.wav", "conditions": [24, 1600, "a", 12000], "internal_node_id": "0.0-133.0", "trial": 4, "time_elapsed": 794283, "serialpos": 21, "key_press": -1, "wordID": 1198, "type": "PRES_AUD", "trial_index": 178}, "uniqueid": "MTK3481:369J354OFEHW5JICPP4OQOHCUM1G64", "dateTime": 1520619583019}, {"current_trial": 179, "trialdata": {"rt": -1000, "trial_type": "single-audio", "word": "skirt", "stimulus": "/static/audio/wordpool/SKIRT.wav", "conditions": [24, 1600, "a", 12000], "internal_node_id": "0.0-134.0", "trial": 4, "time_elapsed": 796776, "serialpos": 22, "key_press": -1, "wordID": 1318, "type": "PRES_AUD", "trial_index": 179}, "uniqueid": "MTK3481:369J354OFEHW5JICPP4OQOHCUM1G64", "dateTime": 1520619585512}, {"current_trial": 180, "trialdata": {"rt": -1000, "trial_type": "single-audio", "word": "citrus", "stimulus": "/static/audio/wordpool/CITRUS.wav", "conditions": [24, 1600, "a", 12000], "internal_node_id": "0.0-135.0", "trial": 4, "time_elapsed": 799442, "serialpos": 23, "key_press": -1, "wordID": 312, "type": "PRES_AUD", "trial_index": 180}, "uniqueid": "MTK3481:369J354OFEHW5JICPP4OQOHCUM1G64", "dateTime": 1520619588178}, {"current_trial": 181, "trialdata": {"rt": -1, "trial_type": "single-stim", "stimulus": "", "internal_node_id": "0.0-136.0-0.0", "time_elapsed": 800762, "key_press": -1, "type": "PRE_RECALL_DELAY", "trial_index": 181}, "uniqueid": "MTK3481:369J354OFEHW5JICPP4OQOHCUM1G64", "dateTime": 1520619589498}, {"current_trial": 182, "trialdata": {"rt": -1000, "trial_type": "single-audio", "stimulus": "/static/audio/400Hz.wav", "internal_node_id": "0.0-137.0", "time_elapsed": 801264, "key_press": -1, "type": "PRE_RECALL_ALERT", "trial_index": 182}, "uniqueid": "MTK3481:369J354OFEHW5JICPP4OQOHCUM1G64", "dateTime": 1520619590000}, {"current_trial": 183, "trialdata": {"rt": [3806, 5525, 7182, 8469, 11238, 12557, 15725, 18285, 23565, 26005, 28277, 32325, 33693, 35421, 38333, 40245, 54300], "recwords": ["lettuce", "leader", "poet", "dancer", "lady", "woman", "sparrow", "robin", "camper", "cowboy", "preacher", "farmer", "fox", "tombstone", "casket", "citrus", ""], "key_times": [2550, 2663, 2847, 2959, 3222, 3366, 3566, 3806, 4183, 4279, 4350, 4574, 4758, 4831, 5525, 6334, 6462, 6582, 6750, 7182, 7462, 7583, 7694, 7918, 8102, 8182, 8469, 8806, 8910, 9246, 9470, 11238, 11663, 11878, 12110, 12152, 12230, 12557, 12878, 13119, 13264, 13454, 13575, 13712, 13918, 15725, 16039, 16168, 16326, 16550, 16774, 18285, 22511, 22655, 22734, 22926, 23014, 23094, 23565, 23838, 23974, 24238, 24446, 24710, 24926, 26005, 26463, 26542, 27110, 27286, 27534, 27606, 27750, 27830, 28277, 28446, 28895, 29142, 29342, 29534, 29606, 32325, 33039, 33223, 33462, 33693, 34062, 34174, 34319, 34520, 34718, 34918, 34991, 35087, 35190, 35421, 35694, 35902, 36006, 36126, 36246, 36383, 38333, 38886, 39014, 39183, 39398, 39518, 39727, 40245, 54300], "trial_type": "free-recall", "conditions": [24, 1600, "a", 12000], "internal_node_id": "0.0-138.0-0.0", "key_presses": [76, 69, 84, 84, 85, 67, 69, 13, 76, 69, 65, 68, 69, 82, 13, 80, 79, 69, 84, 13, 68, 65, 78, 67, 69, 82, 13, 76, 65, 68, 89, 13, 87, 79, 77, 65, 78, 13, 83, 80, 65, 82, 82, 79, 87, 13, 82, 79, 66, 73, 78, 13, 67, 65, 77, 80, 69, 82, 13, 67, 79, 87, 66, 79, 89, 13, 80, 82, 69, 65, 67, 72, 69, 82, 13, 70, 65, 82, 77, 69, 82, 13, 70, 79, 88, 13, 84, 79, 77, 66, 83, 84, 79, 78, 69, 13, 67, 65, 83, 75, 69, 84, 13, 67, 73, 84, 82, 85, 83, 13, 13], "trial": 4, "time_elapsed": 861268, "type": "FREE_RECALL", "trial_index": 183}, "uniqueid": "MTK3481:369J354OFEHW5JICPP4OQOHCUM1G64", "dateTime": 1520619650018}, {"current_trial": 184, "trialdata": {"rt": 1257, "trial_type": "text", "internal_node_id": "0.0-139.0", "time_elapsed": 864541, "key_press": 13, "type": "INSTRUCTIONS", "trial_index": 184}, "uniqueid": "MTK3481:369J354OFEHW5JICPP4OQOHCUM1G64", "dateTime": 1520619653277}, {"current_trial": 185, "trialdata": {"rt": [1693, 3606, 5437, 10438], "trial_type": "math-distractor", "key_times": [1391, 1526, 1693, 3158, 3407, 3606, 5079, 5246, 5437, 10118, 10270, 10438], "responses": ["11", "14", "14", "23"], "num2": [8, 4, 3, 5, 6], "num3": [2, 9, 3, 9, 9], "conditions": [24, 1600, "a", 12000], "internal_node_id": "0.0-140.0", "key_presses": [97, 97, 13, 97, 100, 13, 97, 100, 13, 98, 99, 13], "trial": 5, "time_elapsed": 878546, "type": "DISTRACTOR", "trial_index": 185, "num1": [1, 1, 8, 9, 8]}, "uniqueid": "MTK3481:369J354OFEHW5JICPP4OQOHCUM1G64", "dateTime": 1520619667283}, {"current_trial": 186, "trialdata": {"rt": -1, "trial_type": "single-stim", "stimulus": "<p id=\"stim\">10</p>", "internal_node_id": "0.0-141.0-0.0", "time_elapsed": 881550, "key_press": -1, "trial_index": 186}, "uniqueid": "MTK3481:369J354OFEHW5JICPP4OQOHCUM1G64", "dateTime": 1520619670286}, {"current_trial": 187, "trialdata": {"rt": -1, "trial_type": "single-stim", "stimulus": "<p id=\"stim\">9</p>", "internal_node_id": "0.0-141.0-1.0", "time_elapsed": 882552, "key_press": -1, "trial_index": 187}, "uniqueid": "MTK3481:369J354OFEHW5JICPP4OQOHCUM1G64", "dateTime": 1520619671288}, {"current_trial": 188, "trialdata": {"rt": -1, "trial_type": "single-stim", "stimulus": "<p id=\"stim\">8</p>", "internal_node_id": "0.0-141.0-2.0", "time_elapsed": 883554, "key_press": -1, "trial_index": 188}, "uniqueid": "MTK3481:369J354OFEHW5JICPP4OQOHCUM1G64", "dateTime": 1520619672290}, {"current_trial": 189, "trialdata": {"rt": -1, "trial_type": "single-stim", "stimulus": "<p id=\"stim\">7</p>", "internal_node_id": "0.0-141.0-3.0", "time_elapsed": 884556, "key_press": -1, "trial_index": 189}, "uniqueid": "MTK3481:369J354OFEHW5JICPP4OQOHCUM1G64", "dateTime": 1520619673293}, {"current_trial": 190, "trialdata": {"rt": -1, "trial_type": "single-stim", "stimulus": "<p id=\"stim\">6</p>", "internal_node_id": "0.0-141.0-4.0", "time_elapsed": 885559, "key_press": -1, "trial_index": 190}, "uniqueid": "MTK3481:369J354OFEHW5JICPP4OQOHCUM1G64", "dateTime": 1520619674295}, {"current_trial": 191, "trialdata": {"rt": -1, "trial_type": "single-stim", "stimulus": "<p id=\"stim\">5</p>", "internal_node_id": "0.0-141.0-5.0", "time_elapsed": 886562, "key_press": -1, "trial_index": 191}, "uniqueid": "MTK3481:369J354OFEHW5JICPP4OQOHCUM1G64", "dateTime": 1520619675298}, {"current_trial": 192, "trialdata": {"rt": -1, "trial_type": "single-stim", "stimulus": "<p id=\"stim\">4</p>", "internal_node_id": "0.0-141.0-6.0", "time_elapsed": 887564, "key_press": -1, "trial_index": 192}, "uniqueid": "MTK3481:369J354OFEHW5JICPP4OQOHCUM1G64", "dateTime": 1520619676300}, {"current_trial": 193, "trialdata": {"rt": -1, "trial_type": "single-stim", "stimulus": "<p id=\"stim\">3</p>", "internal_node_id": "0.0-141.0-7.0", "time_elapsed": 888565, "key_press": -1, "trial_index": 193}, "uniqueid": "MTK3481:369J354OFEHW5JICPP4OQOHCUM1G64", "dateTime": 1520619677301}, {"current_trial": 194, "trialdata": {"rt": -1, "trial_type": "single-stim", "stimulus": "<p id=\"stim\">2</p>", "internal_node_id": "0.0-141.0-8.0", "time_elapsed": 889567, "key_press": -1, "trial_index": 194}, "uniqueid": "MTK3481:369J354OFEHW5JICPP4OQOHCUM1G64", "dateTime": 1520619678303}, {"current_trial": 195, "trialdata": {"rt": -1, "trial_type": "single-stim", "stimulus": "<p id=\"stim\">1</p>", "internal_node_id": "0.0-141.0-9.0", "time_elapsed": 890569, "key_press": -1, "trial_index": 195}, "uniqueid": "MTK3481:369J354OFEHW5JICPP4OQOHCUM1G64", "dateTime": 1520619679305}, {"current_trial": 196, "trialdata": {"rt": -1, "trial_type": "single-stim", "stimulus": "<p id=\"stim\">+</p>", "internal_node_id": "0.0-142.0-0.0", "time_elapsed": 892071, "key_press": -1, "type": "FIXATION", "trial_index": 196}, "uniqueid": "MTK3481:369J354OFEHW5JICPP4OQOHCUM1G64", "dateTime": 1520619680808}, {"current_trial": 197, "trialdata": {"rt": -1000, "trial_type": "single-audio", "word": "hostess", "stimulus": "/static/audio/wordpool/HOSTESS.wav", "conditions": [24, 1600, "a", 12000], "internal_node_id": "0.0-143.0", "trial": 5, "time_elapsed": 894764, "serialpos": 0, "key_press": -1, "wordID": 722, "type": "PRES_AUD", "trial_index": 197}, "uniqueid": "MTK3481:369J354OFEHW5JICPP4OQOHCUM1G64", "dateTime": 1520619683500}, {"current_trial": 198, "trialdata": {"rt": -1000, "trial_type": "single-audio", "word": "sausage", "stimulus": "/static/audio/wordpool/SAUSAGE.wav", "conditions": [24, 1600, "a", 12000], "internal_node_id": "0.0-144.0", "trial": 5, "time_elapsed": 897197, "serialpos": 1, "key_press": -1, "wordID": 1237, "type": "PRES_AUD", "trial_index": 198}, "uniqueid": "MTK3481:369J354OFEHW5JICPP4OQOHCUM1G64", "dateTime": 1520619685933}, {"current_trial": 199, "trialdata": {"rt": -1000, "trial_type": "single-audio", "word": "possum", "stimulus": "/static/audio/wordpool/POSSUM.wav", "conditions": [24, 1600, "a", 12000], "internal_node_id": "0.0-145.0", "trial": 5, "time_elapsed": 899612, "serialpos": 2, "key_press": -1, "wordID": 1111, "type": "PRES_AUD", "trial_index": 199}, "uniqueid": "MTK3481:369J354OFEHW5JICPP4OQOHCUM1G64", "dateTime": 1520619688348}, {"current_trial": 200, "trialdata": {"rt": -1000, "trial_type": "single-audio", "word": "waitress", "stimulus": "/static/audio/wordpool/WAITRESS.wav", "conditions": [24, 1600, "a", 12000], "internal_node_id": "0.0-146.0", "trial": 5, "time_elapsed": 902092, "serialpos": 3, "key_press": -1, "wordID": 1580, "type": "PRES_AUD", "trial_index": 200}, "uniqueid": "MTK3481:369J354OFEHW5JICPP4OQOHCUM1G64", "dateTime": 1520619690829}, {"current_trial": 201, "trialdata": {"rt": -1000, "trial_type": "single-audio", "word": "freckle", "stimulus": "/static/audio/wordpool/FRECKLE.wav", "conditions": [24, 1600, "a", 12000], "internal_node_id": "0.0-147.0", "trial": 5, "time_elapsed": 904847, "serialpos": 4, "key_press": -1, "wordID": 601, "type": "PRES_AUD", "trial_index": 201}, "uniqueid": "MTK3481:369J354OFEHW5JICPP4OQOHCUM1G64", "dateTime": 1520619693583}, {"current_trial": 202, "trialdata": {"rt": -1000, "trial_type": "single-audio", "word": "pigeon", "stimulus": "/static/audio/wordpool/PIGEON.wav", "conditions": [24, 1600, "a", 12000], "internal_node_id": "0.0-148.0", "trial": 5, "time_elapsed": 907552, "serialpos": 5, "key_press": -1, "wordID": 1064, "type": "PRES_AUD", "trial_index": 202}, "uniqueid": "MTK3481:369J354OFEHW5JICPP4OQOHCUM1G64", "dateTime": 1520619696288}, {"current_trial": 203, "trialdata": {"rt": -1000, "trial_type": "single-audio", "word": "twister", "stimulus": "/static/audio/wordpool/TWISTER.wav", "conditions": [24, 1600, "a", 12000], "internal_node_id": "0.0-149.0", "trial": 5, "time_elapsed": 910226, "serialpos": 6, "key_press": -1, "wordID": 1529, "type": "PRES_AUD", "trial_index": 203}, "uniqueid": "MTK3481:369J354OFEHW5JICPP4OQOHCUM1G64", "dateTime": 1520619698962}, {"current_trial": 204, "trialdata": {"rt": -1000, "trial_type": "single-audio", "word": "hero", "stimulus": "/static/audio/wordpool/HERO.wav", "conditions": [24, 1600, "a", 12000], "internal_node_id": "0.0-150.0", "trial": 5, "time_elapsed": 912771, "serialpos": 7, "key_press": -1, "wordID": 705, "type": "PRES_AUD", "trial_index": 204}, "uniqueid": "MTK3481:369J354OFEHW5JICPP4OQOHCUM1G64", "dateTime": 1520619701507}, {"current_trial": 205, "trialdata": {"rt": -1000, "trial_type": "single-audio", "word": "tuba", "stimulus": "/static/audio/wordpool/TUBA.wav", "conditions": [24, 1600, "a", 12000], "internal_node_id": "0.0-151.0", "trial": 5, "time_elapsed": 915243, "serialpos": 8, "key_press": -1, "wordID": 1514, "type": "PRES_AUD", "trial_index": 205}, "uniqueid": "MTK3481:369J354OFEHW5JICPP4OQOHCUM1G64", "dateTime": 1520619703979}, {"current_trial": 206, "trialdata": {"rt": -1000, "trial_type": "single-audio", "word": "omelet", "stimulus": "/static/audio/wordpool/OMELET.wav", "conditions": [24, 1600, "a", 12000], "internal_node_id": "0.0-152.0", "trial": 5, "time_elapsed": 918001, "serialpos": 9, "key_press": -1, "wordID": 975, "type": "PRES_AUD", "trial_index": 206}, "uniqueid": "MTK3481:369J354OFEHW5JICPP4OQOHCUM1G64", "dateTime": 1520619706737}, {"current_trial": 207, "trialdata": {"rt": -1000, "trial_type": "single-audio", "word": "flute", "stimulus": "/static/audio/wordpool/FLUTE.wav", "conditions": [24, 1600, "a", 12000], "internal_node_id": "0.0-153.0", "trial": 5, "time_elapsed": 920799, "serialpos": 10, "key_press": -1, "wordID": 584, "type": "PRES_AUD", "trial_index": 207}, "uniqueid": "MTK3481:369J354OFEHW5JICPP4OQOHCUM1G64", "dateTime": 1520619709535}, {"current_trial": 208, "trialdata": {"rt": -1000, "trial_type": "single-audio", "word": "banjo", "stimulus": "/static/audio/wordpool/BANJO.wav", "conditions": [24, 1600, "a", 12000], "internal_node_id": "0.0-154.0", "trial": 5, "time_elapsed": 923585, "serialpos": 11, "key_press": -1, "wordID": 81, "type": "PRES_AUD", "trial_index": 208}, "uniqueid": "MTK3481:369J354OFEHW5JICPP4OQOHCUM1G64", "dateTime": 1520619712322}, {"current_trial": 209, "trialdata": {"rt": -1000, "trial_type": "single-audio", "word": "xerox", "stimulus": "/static/audio/wordpool/XEROX.wav", "conditions": [24, 1600, "a", 12000], "internal_node_id": "0.0-155.0", "trial": 5, "time_elapsed": 926085, "serialpos": 12, "key_press": -1, "wordID": 1627, "type": "PRES_AUD", "trial_index": 209}, "uniqueid": "MTK3481:369J354OFEHW5JICPP4OQOHCUM1G64", "dateTime": 1520619714821}, {"current_trial": 210, "trialdata": {"rt": -1000, "trial_type": "single-audio", "word": "flower", "stimulus": "/static/audio/wordpool/FLOWER.wav", "conditions": [24, 1600, "a", 12000], "internal_node_id": "0.0-156.0", "trial": 5, "time_elapsed": 928763, "serialpos": 13, "key_press": -1, "wordID": 583, "type": "PRES_AUD", "trial_index": 210}, "uniqueid": "MTK3481:369J354OFEHW5JICPP4OQOHCUM1G64", "dateTime": 1520619717499}, {"current_trial": 211, "trialdata": {"rt": -1000, "trial_type": "single-audio", "word": "female", "stimulus": "/static/audio/wordpool/FEMALE.wav", "conditions": [24, 1600, "a", 12000], "internal_node_id": "0.0-157.0", "trial": 5, "time_elapsed": 931284, "serialpos": 14, "key_press": -1, "wordID": 558, "type": "PRES_AUD", "trial_index": 211}, "uniqueid": "MTK3481:369J354OFEHW5JICPP4OQOHCUM1G64", "dateTime": 1520619720021}, {"current_trial": 212, "trialdata": {"rt": -1000, "trial_type": "single-audio", "word": "brother", "stimulus": "/static/audio/wordpool/BROTHER.wav", "conditions": [24, 1600, "a", 12000], "internal_node_id": "0.0-158.0", "trial": 5, "time_elapsed": 933727, "serialpos": 15, "key_press": -1, "wordID": 178, "type": "PRES_AUD", "trial_index": 212}, "uniqueid": "MTK3481:369J354OFEHW5JICPP4OQOHCUM1G64", "dateTime": 1520619722463}, {"current_trial": 213, "trialdata": {"rt": -1000, "trial_type": "single-audio", "word": "camel", "stimulus": "/static/audio/wordpool/CAMEL.wav", "conditions": [24, 1600, "a", 12000], "internal_node_id": "0.0-159.0", "trial": 5, "time_elapsed": 936246, "serialpos": 16, "key_press": -1, "wordID": 222, "type": "PRES_AUD", "trial_index": 213}, "uniqueid": "MTK3481:369J354OFEHW5JICPP4OQOHCUM1G64", "dateTime": 1520619724982}, {"current_trial": 214, "trialdata": {"rt": -1000, "trial_type": "single-audio", "word": "box", "stimulus": "/static/audio/wordpool/BOX.wav", "conditions": [24, 1600, "a", 12000], "internal_node_id": "0.0-160.0", "trial": 5, "time_elapsed": 938916, "serialpos": 17, "key_press": -1, "wordID": 158, "type": "PRES_AUD", "trial_index": 214}, "uniqueid": "MTK3481:369J354OFEHW5JICPP4OQOHCUM1G64", "dateTime": 1520619727652}, {"current_trial": 215, "trialdata": {"rt": -1000, "trial_type": "single-audio", "word": "coin", "stimulus": "/static/audio/wordpool/COIN.wav", "conditions": [24, 1600, "a", 12000], "internal_node_id": "0.0-161.0", "trial": 5, "time_elapsed": 941449, "serialpos": 18, "key_press": -1, "wordID": 342, "type": "PRES_AUD", "trial_index": 215}, "uniqueid": "MTK3481:369J354OFEHW5JICPP4OQOHCUM1G64", "dateTime": 1520619730185}, {"current_trial": 216, "trialdata": {"rt": -1000, "trial_type": "single-audio", "word": "tweezers", "stimulus": "/static/audio/wordpool/TWEEZERS.wav", "conditions": [24, 1600, "a", 12000], "internal_node_id": "0.0-162.0", "trial": 5, "time_elapsed": 944049, "serialpos": 19, "key_press": -1, "wordID": 1525, "type": "PRES_AUD", "trial_index": 216}, "uniqueid": "MTK3481:369J354OFEHW5JICPP4OQOHCUM1G64", "dateTime": 1520619732786}, {"current_trial": 217, "trialdata": {"rt": -1000, "trial_type": "single-audio", "word": "leg", "stimulus": "/static/audio/wordpool/LEG.wav", "conditions": [24, 1600, "a", 12000], "internal_node_id": "0.0-163.0", "trial": 5, "time_elapsed": 946604, "serialpos": 20, "key_press": -1, "wordID": 808, "type": "PRES_AUD", "trial_index": 217}, "uniqueid": "MTK3481:369J354OFEHW5JICPP4OQOHCUM1G64", "dateTime": 1520619735340}, {"current_trial": 218, "trialdata": {"rt": -1000, "trial_type": "single-audio", "word": "scalpel", "stimulus": "/static/audio/wordpool/SCALPEL.wav", "conditions": [24, 1600, "a", 12000], "internal_node_id": "0.0-164.0", "trial": 5, "time_elapsed": 949239, "serialpos": 21, "key_press": -1, "wordID": 1242, "type": "PRES_AUD", "trial_index": 218}, "uniqueid": "MTK3481:369J354OFEHW5JICPP4OQOHCUM1G64", "dateTime": 1520619737975}, {"current_trial": 219, "trialdata": {"rt": -1000, "trial_type": "single-audio", "word": "razor", "stimulus": "/static/audio/wordpool/RAZOR.wav", "conditions": [24, 1600, "a", 12000], "internal_node_id": "0.0-165.0", "trial": 5, "time_elapsed": 951990, "serialpos": 22, "key_press": -1, "wordID": 1170, "type": "PRES_AUD", "trial_index": 219}, "uniqueid": "MTK3481:369J354OFEHW5JICPP4OQOHCUM1G64", "dateTime": 1520619740726}, {"current_trial": 220, "trialdata": {"rt": -1000, "trial_type": "single-audio", "word": "pliers", "stimulus": "/static/audio/wordpool/PLIERS.wav", "conditions": [24, 1600, "a", 12000], "internal_node_id": "0.0-166.0", "trial": 5, "time_elapsed": 954726, "serialpos": 23, "key_press": -1, "wordID": 1088, "type": "PRES_AUD", "trial_index": 220}, "uniqueid": "MTK3481:369J354OFEHW5JICPP4OQOHCUM1G64", "dateTime": 1520619743463}, {"current_trial": 221, "trialdata": {"rt": -1, "trial_type": "single-stim", "stimulus": "", "internal_node_id": "0.0-167.0-0.0", "time_elapsed": 956029, "key_press": -1, "type": "PRE_RECALL_DELAY", "trial_index": 221}, "uniqueid": "MTK3481:369J354OFEHW5JICPP4OQOHCUM1G64", "dateTime": 1520619744765}, {"current_trial": 222, "trialdata": {"rt": -1000, "trial_type": "single-audio", "stimulus": "/static/audio/400Hz.wav", "internal_node_id": "0.0-168.0", "time_elapsed": 956531, "key_press": -1, "type": "PRE_RECALL_ALERT", "trial_index": 222}, "uniqueid": "MTK3481:369J354OFEHW5JICPP4OQOHCUM1G64", "dateTime": 1520619745267}, {"current_trial": 223, "trialdata": {"rt": [4753, 6513, 8505, 12520, 16160, 18512, 20760, 22289, 24080, 25400, 31872, 33729, 35000, 38088, 41185, 42993, 44609, 48904], "recwords": ["hostess", "sausage", "oppossum", "waitress", "freckle", "pigeon", "twister", "omlet", "banjo", "flute", "xerox", "brother", "camel", "coin", "scalpel", "razor", "pliers", ""], "key_times": [3707, 3809, 3914, 4074, 4154, 4338, 4466, 4753, 4970, 5161, 5346, 5458, 5610, 5826, 5905, 6513, 6946, 7162, 7338, 7498, 7690, 7826, 7986, 8250, 8505, 11170, 11331, 11491, 11619, 11778, 11849, 12058, 12193, 12520, 14466, 14673, 14754, 15066, 15227, 15418, 15578, 16160, 17362, 17505, 17643, 17818, 17873, 17961, 18512, 18817, 18963, 19107, 19425, 19625, 19753, 19849, 20760, 21209, 21394, 21610, 21770, 21938, 22289, 23033, 23210, 23337, 23562, 23737, 24080, 24313, 24474, 24705, 25106, 25194, 25400, 25850, 27009, 27409, 27841, 28106, 28242, 28537, 31872, 32482, 32737, 32874, 32977, 33033, 33194, 33249, 33729, 34074, 34274, 34459, 34595, 34674, 35000, 36201, 36450, 36601, 36809, 38088, 39979, 40161, 40297, 40417, 40642, 40779, 40913, 41185, 41434, 41521, 42289, 42458, 42657, 42993, 43369, 43729, 43905, 44025, 44115, 44353, 44609, 48904], "trial_type": "free-recall", "conditions": [24, 1600, "a", 12000], "internal_node_id": "0.0-169.0-0.0", "key_presses": [72, 79, 83, 84, 69, 83, 83, 13, 83, 65, 85, 83, 65, 71, 69, 13, 79, 80, 80, 79, 83, 83, 85, 77, 13, 87, 65, 73, 84, 82, 69, 83, 83, 13, 70, 82, 69, 67, 75, 76, 69, 13, 80, 73, 71, 69, 79, 78, 13, 84, 87, 73, 83, 84, 69, 82, 13, 79, 77, 76, 69, 84, 13, 66, 65, 78, 74, 79, 13, 70, 76, 85, 84, 69, 13, 69, 8, 88, 69, 82, 79, 88, 13, 66, 82, 79, 84, 72, 69, 82, 13, 67, 65, 77, 69, 76, 13, 67, 79, 73, 78, 13, 83, 67, 65, 76, 80, 69, 76, 13, 82, 65, 90, 79, 82, 13, 80, 76, 73, 69, 82, 83, 13, 13], "trial": 5, "time_elapsed": 1016535, "type": "FREE_RECALL", "trial_index": 223}, "uniqueid": "MTK3481:369J354OFEHW5JICPP4OQOHCUM1G64", "dateTime": 1520619805277}, {"current_trial": 224, "trialdata": {"rt": 1079, "trial_type": "text", "internal_node_id": "0.0-170.0", "time_elapsed": 1019621, "key_press": 13, "type": "INSTRUCTIONS", "trial_index": 224}, "uniqueid": "MTK3481:369J354OFEHW5JICPP4OQOHCUM1G64", "dateTime": 1520619808357}, {"current_trial": 225, "trialdata": {"rt": [2366, 4205, 7973, 11141], "trial_type": "math-distractor", "key_times": [1998, 2182, 2366, 3782, 3982, 4205, 7614, 7798, 7973, 8999, 9262, 9287, 10654, 11141], "responses": ["14", "19", "20", "18"], "num2": [7, 5, 8, 8, 8], "num3": [5, 5, 3, 8, 9], "conditions": [12, 1600, "a", 12000], "internal_node_id": "0.0-171.0", "key_presses": [97, 100, 13, 97, 105, 13, 98, 96, 13, 97, 104, 105, 8, 13], "trial": 6, "time_elapsed": 1033626, "type": "DISTRACTOR", "trial_index": 225, "num1": [2, 9, 9, 2, 4]}, "uniqueid": "MTK3481:369J354OFEHW5JICPP4OQOHCUM1G64", "dateTime": 1520619822362}, {"current_trial": 226, "trialdata": {"rt": -1, "trial_type": "single-stim", "stimulus": "<p id=\"stim\">10</p>", "internal_node_id": "0.0-172.0-0.0", "time_elapsed": 1036628, "key_press": -1, "trial_index": 226}, "uniqueid": "MTK3481:369J354OFEHW5JICPP4OQOHCUM1G64", "dateTime": 1520619825364}, {"current_trial": 227, "trialdata": {"rt": -1, "trial_type": "single-stim", "stimulus": "<p id=\"stim\">9</p>", "internal_node_id": "0.0-172.0-1.0", "time_elapsed": 1037631, "key_press": -1, "trial_index": 227}, "uniqueid": "MTK3481:369J354OFEHW5JICPP4OQOHCUM1G64", "dateTime": 1520619826367}, {"current_trial": 228, "trialdata": {"rt": -1, "trial_type": "single-stim", "stimulus": "<p id=\"stim\">8</p>", "internal_node_id": "0.0-172.0-2.0", "time_elapsed": 1038632, "key_press": -1, "trial_index": 228}, "uniqueid": "MTK3481:369J354OFEHW5JICPP4OQOHCUM1G64", "dateTime": 1520619827369}, {"current_trial": 229, "trialdata": {"rt": -1, "trial_type": "single-stim", "stimulus": "<p id=\"stim\">7</p>", "internal_node_id": "0.0-172.0-3.0", "time_elapsed": 1039635, "key_press": -1, "trial_index": 229}, "uniqueid": "MTK3481:369J354OFEHW5JICPP4OQOHCUM1G64", "dateTime": 1520619828371}, {"current_trial": 230, "trialdata": {"rt": -1, "trial_type": "single-stim", "stimulus": "<p id=\"stim\">6</p>", "internal_node_id": "0.0-172.0-4.0", "time_elapsed": 1040636, "key_press": -1, "trial_index": 230}, "uniqueid": "MTK3481:369J354OFEHW5JICPP4OQOHCUM1G64", "dateTime": 1520619829372}, {"current_trial": 231, "trialdata": {"rt": -1, "trial_type": "single-stim", "stimulus": "<p id=\"stim\">5</p>", "internal_node_id": "0.0-172.0-5.0", "time_elapsed": 1041638, "key_press": -1, "trial_index": 231}, "uniqueid": "MTK3481:369J354OFEHW5JICPP4OQOHCUM1G64", "dateTime": 1520619830374}, {"current_trial": 232, "trialdata": {"rt": -1, "trial_type": "single-stim", "stimulus": "<p id=\"stim\">4</p>", "internal_node_id": "0.0-172.0-6.0", "time_elapsed": 1042640, "key_press": -1, "trial_index": 232}, "uniqueid": "MTK3481:369J354OFEHW5JICPP4OQOHCUM1G64", "dateTime": 1520619831376}, {"current_trial": 233, "trialdata": {"rt": -1, "trial_type": "single-stim", "stimulus": "<p id=\"stim\">3</p>", "internal_node_id": "0.0-172.0-7.0", "time_elapsed": 1043642, "key_press": -1, "trial_index": 233}, "uniqueid": "MTK3481:369J354OFEHW5JICPP4OQOHCUM1G64", "dateTime": 1520619832378}, {"current_trial": 234, "trialdata": {"rt": -1, "trial_type": "single-stim", "stimulus": "<p id=\"stim\">2</p>", "internal_node_id": "0.0-172.0-8.0", "time_elapsed": 1044644, "key_press": -1, "trial_index": 234}, "uniqueid": "MTK3481:369J354OFEHW5JICPP4OQOHCUM1G64", "dateTime": 1520619833380}, {"current_trial": 235, "trialdata": {"rt": -1, "trial_type": "single-stim", "stimulus": "<p id=\"stim\">1</p>", "internal_node_id": "0.0-172.0-9.0", "time_elapsed": 1045646, "key_press": -1, "trial_index": 235}, "uniqueid": "MTK3481:369J354OFEHW5JICPP4OQOHCUM1G64", "dateTime": 1520619834382}, {"current_trial": 236, "trialdata": {"rt": -1, "trial_type": "single-stim", "stimulus": "<p id=\"stim\">+</p>", "internal_node_id": "0.0-173.0-0.0", "time_elapsed": 1047148, "key_press": -1, "type": "FIXATION", "trial_index": 236}, "uniqueid": "MTK3481:369J354OFEHW5JICPP4OQOHCUM1G64", "dateTime": 1520619835884}, {"current_trial": 237, "trialdata": {"rt": -1000, "trial_type": "single-audio", "word": "award", "stimulus": "/static/audio/wordpool/AWARD.wav", "conditions": [12, 1600, "a", 12000], "internal_node_id": "0.0-174.0", "trial": 6, "time_elapsed": 1049831, "serialpos": 0, "key_press": -1, "wordID": 62, "type": "PRES_AUD", "trial_index": 237}, "uniqueid": "MTK3481:369J354OFEHW5JICPP4OQOHCUM1G64", "dateTime": 1520619838567}, {"current_trial": 238, "trialdata": {"rt": -1000, "trial_type": "single-audio", "word": "husband", "stimulus": "/static/audio/wordpool/HUSBAND.wav", "conditions": [12, 1600, "a", 12000], "internal_node_id": "0.0-175.0", "trial": 6, "time_elapsed": 1052433, "serialpos": 1, "key_press": -1, "wordID": 727, "type": "PRES_AUD", "trial_index": 238}, "uniqueid": "MTK3481:369J354OFEHW5JICPP4OQOHCUM1G64", "dateTime": 1520619841171}, {"current_trial": 239, "trialdata": {"rt": -1000, "trial_type": "single-audio", "word": "keeper", "stimulus": "/static/audio/wordpool/KEEPER.wav", "conditions": [12, 1600, "a", 12000], "internal_node_id": "0.0-176.0", "trial": 6, "time_elapsed": 1054874, "serialpos": 2, "key_press": -1, "wordID": 768, "type": "PRES_AUD", "trial_index": 239}, "uniqueid": "MTK3481:369J354OFEHW5JICPP4OQOHCUM1G64", "dateTime": 1520619843610}, {"current_trial": 240, "trialdata": {"rt": -1000, "trial_type": "single-audio", "word": "snake", "stimulus": "/static/audio/wordpool/SNAKE.wav", "conditions": [12, 1600, "a", 12000], "internal_node_id": "0.0-177.0", "trial": 6, "time_elapsed": 1057397, "serialpos": 3, "key_press": -1, "wordID": 1332, "type": "PRES_AUD", "trial_index": 240}, "uniqueid": "MTK3481:369J354OFEHW5JICPP4OQOHCUM1G64", "dateTime": 1520619846133}, {"current_trial": 241, "trialdata": {"rt": -1000, "trial_type": "single-audio", "word": "oyster", "stimulus": "/static/audio/wordpool/OYSTER.wav", "conditions": [12, 1600, "a", 12000], "internal_node_id": "0.0-178.0", "trial": 6, "time_elapsed": 1060024, "serialpos": 4, "key_press": -1, "wordID": 994, "type": "PRES_AUD", "trial_index": 241}, "uniqueid": "MTK3481:369J354OFEHW5JICPP4OQOHCUM1G64", "dateTime": 1520619848760}, {"current_trial": 242, "trialdata": {"rt": -1000, "trial_type": "single-audio", "word": "salmon", "stimulus": "/static/audio/wordpool/SALMON.wav", "conditions": [12, 1600, "a", 12000], "internal_node_id": "0.0-179.0", "trial": 6, "time_elapsed": 1062809, "serialpos": 5, "key_press": -1, "wordID": 1226, "type": "PRES_AUD", "trial_index": 242}, "uniqueid": "MTK3481:369J354OFEHW5JICPP4OQOHCUM1G64", "dateTime": 1520619851545}, {"current_trial": 243, "trialdata": {"rt": -1000, "trial_type": "single-audio", "word": "airport", "stimulus": "/static/audio/wordpool/AIRPORT.wav", "conditions": [12, 1600, "a