{"assignmentId": "3QXNC7EIPJ2MCY9P9UIXP6LYDCO09C", "workerId": "MTK3617", "questiondata": {"avail_screen_height": 1040, "color_depth": 24, "screen_width": 1920, "pixel_depth": 24, "avail_screen_width": 1920, "screen_height": 1080}, "bonus": 0, "hitId": "341YLJU21I6KWP7C29NMW3HW8N72I7", "counterbalance": 82, "useragent": "Mozilla/5.0 (Windows NT 10.0; Win64; x64) AppleWebKit/537.36 (KHTML, like Gecko) Chrome/64.0.3282.186 Safari/537.36", "eventdata": [{"eventtype": "initialized", "interval": 0, "value": null, "timestamp": 1520816584107}, {"eventtype": "window_resize", "interval": 1, "value": [1920, 989], "timestamp": 1520816584108}, {"eventtype": "focus", "interval": 254904, "value": "off", "timestamp": 1520816839012}, {"eventtype": "focus", "interval": 9359, "value": "on", "timestamp": 1520816848371}, {"eventtype": "focus", "interval": 1799906, "value": "off", "timestamp": 1520818648277}, {"eventtype": "focus", "interval": 6949, "value": "on", "timestamp": 1520818655226}], "data": [{"current_trial": 0, "trialdata": {"rt": 2778, "trial_type": "text", "internal_node_id": "0.0-0.0", "time_elapsed": 2782, "key_press": 39, "type": "INSTRUCTIONS", "trial_index": 0}, "uniqueid": "MTK3617:3QXNC7EIPJ2MCY9P9UIXP6LYDCO09C", "dateTime": 1520816587403}, {"current_trial": 1, "trialdata": {"rt": 14482, "trial_type": "text", "internal_node_id": "0.0-1.0", "time_elapsed": 17266, "key_press": 16, "type": "INSTRUCTIONS", "trial_index": 1}, "uniqueid": "MTK3617:3QXNC7EIPJ2MCY9P9UIXP6LYDCO09C", "dateTime": 1520816601886}, {"current_trial": 2, "trialdata": {"rt": [10365], "trial_type": "audio-test", "responses": ["ocean"], "internal_node_id": "0.0-2.0", "time_elapsed": 27637, "type": "AUDIO_TEST", "trial_index": 2}, "uniqueid": "MTK3617:3QXNC7EIPJ2MCY9P9UIXP6LYDCO09C", "dateTime": 1520816612258}, {"current_trial": 3, "trialdata": {"rt": [7961], "trial_type": "audio-test", "responses": ["crystal"], "internal_node_id": "0.0-3.0", "time_elapsed": 35601, "type": "AUDIO_TEST", "trial_index": 3}, "uniqueid": "MTK3617:3QXNC7EIPJ2MCY9P9UIXP6LYDCO09C", "dateTime": 1520816620221}, {"current_trial": 4, "trialdata": {"rt": [8872], "trial_type": "audio-test", "responses": ["spice"], "internal_node_id": "0.0-4.0", "time_elapsed": 44477, "type": "AUDIO_TEST", "trial_index": 4}, "uniqueid": "MTK3617:3QXNC7EIPJ2MCY9P9UIXP6LYDCO09C", "dateTime": 1520816629097}, {"current_trial": 5, "trialdata": {"rt": 25548, "trial_type": "survey-text", "responses": "{\"Q0\":\"3am\",\"Q1\":\"7am\",\"Q2\":\"5\"}", "internal_node_id": "0.0-5.0", "time_elapsed": 70777, "type": "SLEEP_SURVEY", "trial_index": 5}, "uniqueid": "MTK3617:3QXNC7EIPJ2MCY9P9UIXP6LYDCO09C", "dateTime": 1520816655397}, {"current_trial": 6, "trialdata": {"rt": 46240, "trial_type": "text", "internal_node_id": "0.0-6.0", "time_elapsed": 118018, "key_press": 13, "type": "INSTRUCTIONS", "trial_index": 6}, "uniqueid": "MTK3617:3QXNC7EIPJ2MCY9P9UIXP6LYDCO09C", "dateTime": 1520816702639}, {"current_trial": 7, "trialdata": {"rt": 16526, "trial_type": "text", "internal_node_id": "0.0-7.0", "time_elapsed": 135046, "key_press": 13, "type": "INSTRUCTIONS", "trial_index": 7}, "uniqueid": "MTK3617:3QXNC7EIPJ2MCY9P9UIXP6LYDCO09C", "dateTime": 1520816719666}, {"current_trial": 8, "trialdata": {"rt": 12965, "trial_type": "text", "internal_node_id": "0.0-8.0", "time_elapsed": 148513, "key_press": 13, "type": "INSTRUCTIONS", "trial_index": 8}, "uniqueid": "MTK3617:3QXNC7EIPJ2MCY9P9UIXP6LYDCO09C", "dateTime": 1520816733133}, {"current_trial": 9, "trialdata": {"rt": [4734, 7030, 10151, 13014, 14798, 16878], "trial_type": "math-distractor", "key_times": [4184, 4367, 4734, 6392, 6520, 7030, 9768, 9847, 10151, 12583, 12687, 13014, 14384, 14511, 14798, 16469, 16590, 16878], "responses": ["14", "16", "21", "19", "13", "19"], "num2": [2, 7, 9, 5, 6, 3, 9], "num3": [9, 1, 5, 5, 1, 7, 8], "conditions": [18, 1200, "v", 18000], "internal_node_id": "0.0-9.0", "key_presses": [97, 100, 13, 97, 102, 13, 98, 97, 13, 97, 105, 13, 97, 99, 13, 97, 105, 13], "trial": 0, "time_elapsed": 167525, "type": "DISTRACTOR", "trial_index": 9, "num1": [3, 8, 7, 9, 6, 9, 4]}, "uniqueid": "MTK3617:3QXNC7EIPJ2MCY9P9UIXP6LYDCO09C", "dateTime": 1520816752145}, {"current_trial": 10, "trialdata": {"rt": -1, "trial_type": "single-stim", "stimulus": "<p id=\"stim\">10</p>", "internal_node_id": "0.0-10.0-0.0", "time_elapsed": 170529, "key_press": -1, "trial_index": 10}, "uniqueid": "MTK3617:3QXNC7EIPJ2MCY9P9UIXP6LYDCO09C", "dateTime": 1520816755149}, {"current_trial": 11, "trialdata": {"rt": -1, "trial_type": "single-stim", "stimulus": "<p id=\"stim\">9</p>", "internal_node_id": "0.0-10.0-1.0", "time_elapsed": 171532, "key_press": -1, "trial_index": 11}, "uniqueid": "MTK3617:3QXNC7EIPJ2MCY9P9UIXP6LYDCO09C", "dateTime": 1520816756152}, {"current_trial": 12, "trialdata": {"rt": -1, "trial_type": "single-stim", "stimulus": "<p id=\"stim\">8</p>", "internal_node_id": "0.0-10.0-2.0", "time_elapsed": 172533, "key_press": -1, "trial_index": 12}, "uniqueid": "MTK3617:3QXNC7EIPJ2MCY9P9UIXP6LYDCO09C", "dateTime": 1520816757153}, {"current_trial": 13, "trialdata": {"rt": -1, "trial_type": "single-stim", "stimulus": "<p id=\"stim\">7</p>", "internal_node_id": "0.0-10.0-3.0", "time_elapsed": 173536, "key_press": -1, "trial_index": 13}, "uniqueid": "MTK3617:3QXNC7EIPJ2MCY9P9UIXP6LYDCO09C", "dateTime": 1520816758156}, {"current_trial": 14, "trialdata": {"rt": -1, "trial_type": "single-stim", "stimulus": "<p id=\"stim\">6</p>", "internal_node_id": "0.0-10.0-4.0", "time_elapsed": 174538, "key_press": -1, "trial_index": 14}, "uniqueid": "MTK3617:3QXNC7EIPJ2MCY9P9UIXP6LYDCO09C", "dateTime": 1520816759158}, {"current_trial": 15, "trialdata": {"rt": -1, "trial_type": "single-stim", "stimulus": "<p id=\"stim\">5</p>", "internal_node_id": "0.0-10.0-5.0", "time_elapsed": 175540, "key_press": -1, "trial_index": 15}, "uniqueid": "MTK3617:3QXNC7EIPJ2MCY9P9UIXP6LYDCO09C", "dateTime": 1520816760160}, {"current_trial": 16, "trialdata": {"rt": -1, "trial_type": "single-stim", "stimulus": "<p id=\"stim\">4</p>", "internal_node_id": "0.0-10.0-6.0", "time_elapsed": 176542, "key_press": -1, "trial_index": 16}, "uniqueid": "MTK3617:3QXNC7EIPJ2MCY9P9UIXP6LYDCO09C", "dateTime": 1520816761162}, {"current_trial": 17, "trialdata": {"rt": -1, "trial_type": "single-stim", "stimulus": "<p id=\"stim\">3</p>", "internal_node_id": "0.0-10.0-7.0", "time_elapsed": 177546, "key_press": -1, "trial_index": 17}, "uniqueid": "MTK3617:3QXNC7EIPJ2MCY9P9UIXP6LYDCO09C", "dateTime": 1520816762166}, {"current_trial": 18, "trialdata": {"rt": -1, "trial_type": "single-stim", "stimulus": "<p id=\"stim\">2</p>", "internal_node_id": "0.0-10.0-8.0", "time_elapsed": 178548, "key_press": -1, "trial_index": 18}, "uniqueid": "MTK3617:3QXNC7EIPJ2MCY9P9UIXP6LYDCO09C", "dateTime": 1520816763169}, {"current_trial": 19, "trialdata": {"rt": -1, "trial_type": "single-stim", "stimulus": "<p id=\"stim\">1</p>", "internal_node_id": "0.0-10.0-9.0", "time_elapsed": 179550, "key_press": -1, "trial_index": 19}, "uniqueid": "MTK3617:3QXNC7EIPJ2MCY9P9UIXP6LYDCO09C", "dateTime": 1520816764170}, {"current_trial": 20, "trialdata": {"rt": -1, "trial_type": "single-stim", "stimulus": "<p id=\"stim\">+</p>", "internal_node_id": "0.0-11.0-0.0", "time_elapsed": 181052, "key_press": -1, "type": "FIXATION", "trial_index": 20}, "uniqueid": "MTK3617:3QXNC7EIPJ2MCY9P9UIXP6LYDCO09C", "dateTime": 1520816765673}, {"current_trial": 21, "trialdata": {"rt": -1, "trial_type": "single-stim", "word": "flesh", "stimulus": "<p id=\"stim\">FLESH</p>", "conditions": [18, 1200, "v", 18000], "internal_node_id": "0.0-12.0", "trial": 0, "time_elapsed": 182255, "serialpos": 0, "key_press": -1, "wordID": 578, "type": "PRES_VIS", "trial_index": 21}, "uniqueid": "MTK3617:3QXNC7EIPJ2MCY9P9UIXP6LYDCO09C", "dateTime": 1520816766875}, {"current_trial": 22, "trialdata": {"rt": -1, "trial_type": "single-stim", "word": "stream", "stimulus": "<p id=\"stim\">STREAM</p>", "conditions": [18, 1200, "v", 18000], "internal_node_id": "0.0-13.0", "trial": 0, "time_elapsed": 184290, "serialpos": 1, "key_press": -1, "wordID": 1391, "type": "PRES_VIS", "trial_index": 22}, "uniqueid": "MTK3617:3QXNC7EIPJ2MCY9P9UIXP6LYDCO09C", "dateTime": 1520816768910}, {"current_trial": 23, "trialdata": {"rt": -1, "trial_type": "single-stim", "word": "creature", "stimulus": "<p id=\"stim\">CREATURE</p>", "conditions": [18, 1200, "v", 18000], "internal_node_id": "0.0-14.0", "trial": 0, "time_elapsed": 186393, "serialpos": 2, "key_press": -1, "wordID": 402, "type": "PRES_VIS", "trial_index": 23}, "uniqueid": "MTK3617:3QXNC7EIPJ2MCY9P9UIXP6LYDCO09C", "dateTime": 1520816771014}, {"current_trial": 24, "trialdata": {"rt": -1, "trial_type": "single-stim", "word": "smog", "stimulus": "<p id=\"stim\">SMOG</p>", "conditions": [18, 1200, "v", 18000], "internal_node_id": "0.0-15.0", "trial": 0, "time_elapsed": 188422, "serialpos": 3, "key_press": -1, "wordID": 1329, "type": "PRES_VIS", "trial_index": 24}, "uniqueid": "MTK3617:3QXNC7EIPJ2MCY9P9UIXP6LYDCO09C", "dateTime": 1520816773042}, {"current_trial": 25, "trialdata": {"rt": -1, "trial_type": "single-stim", "word": "yarn", "stimulus": "<p id=\"stim\">YARN</p>", "conditions": [18, 1200, "v", 18000], "internal_node_id": "0.0-16.0", "trial": 0, "time_elapsed": 190539, "serialpos": 4, "key_press": -1, "wordID": 1630, "type": "PRES_VIS", "trial_index": 25}, "uniqueid": "MTK3617:3QXNC7EIPJ2MCY9P9UIXP6LYDCO09C", "dateTime": 1520816775159}, {"current_trial": 26, "trialdata": {"rt": -1, "trial_type": "single-stim", "word": "lace", "stimulus": "<p id=\"stim\">LACE</p>", "conditions": [18, 1200, "v", 18000], "internal_node_id": "0.0-17.0", "trial": 0, "time_elapsed": 192663, "serialpos": 5, "key_press": -1, "wordID": 791, "type": "PRES_VIS", "trial_index": 26}, "uniqueid": "MTK3617:3QXNC7EIPJ2MCY9P9UIXP6LYDCO09C", "dateTime": 1520816777283}, {"current_trial": 27, "trialdata": {"rt": -1, "trial_type": "single-stim", "word": "window", "stimulus": "<p id=\"stim\">WINDOW</p>", "conditions": [18, 1200, "v", 18000], "internal_node_id": "0.0-18.0", "trial": 0, "time_elapsed": 194948, "serialpos": 6, "key_press": -1, "wordID": 1610, "type": "PRES_VIS", "trial_index": 27}, "uniqueid": "MTK3617:3QXNC7EIPJ2MCY9P9UIXP6LYDCO09C", "dateTime": 1520816779568}, {"current_trial": 28, "trialdata": {"rt": -1, "trial_type": "single-stim", "word": "icing", "stimulus": "<p id=\"stim\">ICING</p>", "conditions": [18, 1200, "v", 18000], "internal_node_id": "0.0-19.0", "trial": 0, "time_elapsed": 196963, "serialpos": 7, "key_press": -1, "wordID": 731, "type": "PRES_VIS", "trial_index": 28}, "uniqueid": "MTK3617:3QXNC7EIPJ2MCY9P9UIXP6LYDCO09C", "dateTime": 1520816781584}, {"current_trial": 29, "trialdata": {"rt": -1, "trial_type": "single-stim", "word": "actress", "stimulus": "<p id=\"stim\">ACTRESS</p>", "conditions": [18, 1200, "v", 18000], "internal_node_id": "0.0-20.0", "trial": 0, "time_elapsed": 199190, "serialpos": 8, "key_press": -1, "wordID": 5, "type": "PRES_VIS", "trial_index": 29}, "uniqueid": "MTK3617:3QXNC7EIPJ2MCY9P9UIXP6LYDCO09C", "dateTime": 1520816783810}, {"current_trial": 30, "trialdata": {"rt": -1, "trial_type": "single-stim", "word": "clam", "stimulus": "<p id=\"stim\">CLAM</p>", "conditions": [18, 1200, "v", 18000], "internal_node_id": "0.0-21.0", "trial": 0, "time_elapsed": 201389, "serialpos": 9, "key_press": -1, "wordID": 314, "type": "PRES_VIS", "trial_index": 30}, "uniqueid": "MTK3617:3QXNC7EIPJ2MCY9P9UIXP6LYDCO09C", "dateTime": 1520816786009}, {"current_trial": 31, "trialdata": {"rt": -1, "trial_type": "single-stim", "word": "swamp", "stimulus": "<p id=\"stim\">SWAMP</p>", "conditions": [18, 1200, "v", 18000], "internal_node_id": "0.0-22.0", "trial": 0, "time_elapsed": 203585, "serialpos": 10, "key_press": -1, "wordID": 1415, "type": "PRES_VIS", "trial_index": 31}, "uniqueid": "MTK3617:3QXNC7EIPJ2MCY9P9UIXP6LYDCO09C", "dateTime": 1520816788205}, {"current_trial": 32, "trialdata": {"rt": -1, "trial_type": "single-stim", "word": "motel", "stimulus": "<p id=\"stim\">MOTEL</p>", "conditions": [18, 1200, "v", 18000], "internal_node_id": "0.0-23.0", "trial": 0, "time_elapsed": 205872, "serialpos": 11, "key_press": -1, "wordID": 918, "type": "PRES_VIS", "trial_index": 32}, "uniqueid": "MTK3617:3QXNC7EIPJ2MCY9P9UIXP6LYDCO09C", "dateTime": 1520816790492}, {"current_trial": 33, "trialdata": {"rt": -1, "trial_type": "single-stim", "word": "cobra", "stimulus": "<p id=\"stim\">COBRA</p>", "conditions": [18, 1200, "v", 18000], "internal_node_id": "0.0-24.0", "trial": 0, "time_elapsed": 207914, "serialpos": 12, "key_press": -1, "wordID": 335, "type": "PRES_VIS", "trial_index": 33}, "uniqueid": "MTK3617:3QXNC7EIPJ2MCY9P9UIXP6LYDCO09C", "dateTime": 1520816792534}, {"current_trial": 34, "trialdata": {"rt": -1, "trial_type": "single-stim", "word": "asia", "stimulus": "<p id=\"stim\">ASIA</p>", "conditions": [18, 1200, "v", 18000], "internal_node_id": "0.0-25.0", "trial": 0, "time_elapsed": 209935, "serialpos": 13, "key_press": -1, "wordID": 45, "type": "PRES_VIS", "trial_index": 34}, "uniqueid": "MTK3617:3QXNC7EIPJ2MCY9P9UIXP6LYDCO09C", "dateTime": 1520816794556}, {"current_trial": 35, "trialdata": {"rt": -1, "trial_type": "single-stim", "word": "padding", "stimulus": "<p id=\"stim\">PADDING</p>", "conditions": [18, 1200, "v", 18000], "internal_node_id": "0.0-26.0", "trial": 0, "time_elapsed": 212254, "serialpos": 14, "key_press": -1, "wordID": 998, "type": "PRES_VIS", "trial_index": 35}, "uniqueid": "MTK3617:3QXNC7EIPJ2MCY9P9UIXP6LYDCO09C", "dateTime": 1520816796874}, {"current_trial": 36, "trialdata": {"rt": -1, "trial_type": "single-stim", "word": "virus", "stimulus": "<p id=\"stim\">VIRUS</p>", "conditions": [18, 1200, "v", 18000], "internal_node_id": "0.0-27.0", "trial": 0, "time_elapsed": 214432, "serialpos": 15, "key_press": -1, "wordID": 1571, "type": "PRES_VIS", "trial_index": 36}, "uniqueid": "MTK3617:3QXNC7EIPJ2MCY9P9UIXP6LYDCO09C", "dateTime": 1520816799052}, {"current_trial": 37, "trialdata": {"rt": -1, "trial_type": "single-stim", "word": "tuba", "stimulus": "<p id=\"stim\">TUBA</p>", "conditions": [18, 1200, "v", 18000], "internal_node_id": "0.0-28.0", "trial": 0, "time_elapsed": 216812, "serialpos": 16, "key_press": -1, "wordID": 1514, "type": "PRES_VIS", "trial_index": 37}, "uniqueid": "MTK3617:3QXNC7EIPJ2MCY9P9UIXP6LYDCO09C", "dateTime": 1520816801432}, {"current_trial": 38, "trialdata": {"rt": -1, "trial_type": "single-stim", "word": "message", "stimulus": "<p id=\"stim\">MESSAGE</p>", "conditions": [18, 1200, "v", 18000], "internal_node_id": "0.0-29.0", "trial": 0, "time_elapsed": 219149, "serialpos": 17, "key_press": -1, "wordID": 887, "type": "PRES_VIS", "trial_index": 38}, "uniqueid": "MTK3617:3QXNC7EIPJ2MCY9P9UIXP6LYDCO09C", "dateTime": 1520816803769}, {"current_trial": 39, "trialdata": {"rt": -1, "trial_type": "single-stim", "stimulus": "", "internal_node_id": "0.0-30.0-0.0", "time_elapsed": 221218, "key_press": -1, "type": "PRE_RECALL_DELAY", "trial_index": 39}, "uniqueid": "MTK3617:3QXNC7EIPJ2MCY9P9UIXP6LYDCO09C", "dateTime": 1520816805838}, {"current_trial": 40, "trialdata": {"rt": -1000, "trial_type": "single-audio", "stimulus": "/static/audio/400Hz.wav", "internal_node_id": "0.0-31.0", "time_elapsed": 221722, "key_press": -1, "type": "PRE_RECALL_ALERT", "trial_index": 40}, "uniqueid": "MTK3617:3QXNC7EIPJ2MCY9P9UIXP6LYDCO09C", "dateTime": 1520816806342}, {"current_trial": 41, "trialdata": {"rt": [5606, 8356, 10887, 15133, 16930, 24118, 52099, 59810], "recwords": ["actress", "stream", "smog", "yarn", "creature", "flesh", "actress", "swamp"], "key_times": [4011, 4241, 4572, 4662, 4813, 5104, 5265, 5606, 6972, 7092, 7213, 7324, 7554, 7755, 8356, 9362, 9571, 10094, 10348, 10887, 13056, 13205, 13839, 14502, 15133, 15466, 15686, 15787, 15957, 16068, 16549, 16640, 16710, 16930, 22844, 23016, 23277, 23657, 23868, 24118, 50864, 51085, 51226, 51368, 51498, 51798, 51950, 52099, 58800, 59038, 59227, 59395, 59543, 59810], "trial_type": "free-recall", "conditions": [18, 1200, "v", 18000], "internal_node_id": "0.0-32.0-0.0", "key_presses": [65, 67, 84, 82, 69, 83, 83, 13, 83, 84, 82, 69, 65, 77, 13, 83, 77, 79, 71, 13, 89, 65, 82, 78, 13, 67, 82, 69, 65, 84, 85, 82, 69, 13, 70, 76, 69, 83, 72, 13, 65, 67, 84, 82, 69, 83, 83, 13, 83, 87, 65, 77, 80, 13], "trial": 0, "time_elapsed": 281727, "type": "FREE_RECALL", "trial_index": 41}, "uniqueid": "MTK3617:3QXNC7EIPJ2MCY9P9UIXP6LYDCO09C", "dateTime": 1520816866351}, {"current_trial": 42, "trialdata": {"rt": 1418, "trial_type": "text", "internal_node_id": "0.0-33.0", "time_elapsed": 285150, "key_press": 13, "type": "INSTRUCTIONS", "trial_index": 42}, "uniqueid": "MTK3617:3QXNC7EIPJ2MCY9P9UIXP6LYDCO09C", "dateTime": 1520816869770}, {"current_trial": 43, "trialdata": {"rt": [2414, 3862, 7710, 9551, 12247, 15391, 17703], "trial_type": "math-distractor", "key_times": [2000, 2088, 2414, 3376, 3520, 3862, 7136, 7336, 7710, 9119, 9264, 9279, 9551, 11856, 12000, 12247, 14960, 15104, 15391, 17272, 17440, 17703], "responses": ["12", "15", "16", "156", "15", "19", "16"], "num2": [4, 5, 8, 6, 7, 6, 2, 2], "num3": [4, 5, 4, 8, 7, 8, 7, 1], "conditions": [18, 1200, "v", 18000], "internal_node_id": "0.0-34.0", "key_presses": [97, 98, 13, 97, 101, 13, 97, 102, 13, 97, 101, 102, 13, 97, 101, 13, 97, 105, 13, 97, 102, 13], "trial": 1, "time_elapsed": 305156, "type": "DISTRACTOR", "trial_index": 43, "num1": [4, 5, 6, 1, 1, 5, 7, 1]}, "uniqueid": "MTK3617:3QXNC7EIPJ2MCY9P9UIXP6LYDCO09C", "dateTime": 1520816889777}, {"current_trial": 44, "trialdata": {"rt": -1, "trial_type": "single-stim", "stimulus": "<p id=\"stim\">10</p>", "internal_node_id": "0.0-35.0-0.0", "time_elapsed": 308159, "key_press": -1, "trial_index": 44}, "uniqueid": "MTK3617:3QXNC7EIPJ2MCY9P9UIXP6LYDCO09C", "dateTime": 1520816892779}, {"current_trial": 45, "trialdata": {"rt": -1, "trial_type": "single-stim", "stimulus": "<p id=\"stim\">9</p>", "internal_node_id": "0.0-35.0-1.0", "time_elapsed": 309160, "key_press": -1, "trial_index": 45}, "uniqueid": "MTK3617:3QXNC7EIPJ2MCY9P9UIXP6LYDCO09C", "dateTime": 1520816893781}, {"current_trial": 46, "trialdata": {"rt": -1, "trial_type": "single-stim", "stimulus": "<p id=\"stim\">8</p>", "internal_node_id": "0.0-35.0-2.0", "time_elapsed": 310162, "key_press": -1, "trial_index": 46}, "uniqueid": "MTK3617:3QXNC7EIPJ2MCY9P9UIXP6LYDCO09C", "dateTime": 1520816894782}, {"current_trial": 47, "trialdata": {"rt": -1, "trial_type": "single-stim", "stimulus": "<p id=\"stim\">7</p>", "internal_node_id": "0.0-35.0-3.0", "time_elapsed": 311164, "key_press": -1, "trial_index": 47}, "uniqueid": "MTK3617:3QXNC7EIPJ2MCY9P9UIXP6LYDCO09C", "dateTime": 1520816895784}, {"current_trial": 48, "trialdata": {"rt": -1, "trial_type": "single-stim", "stimulus": "<p id=\"stim\">6</p>", "internal_node_id": "0.0-35.0-4.0", "time_elapsed": 312166, "key_press": -1, "trial_index": 48}, "uniqueid": "MTK3617:3QXNC7EIPJ2MCY9P9UIXP6LYDCO09C", "dateTime": 1520816896786}, {"current_trial": 49, "trialdata": {"rt": -1, "trial_type": "single-stim", "stimulus": "<p id=\"stim\">5</p>", "internal_node_id": "0.0-35.0-5.0", "time_elapsed": 313168, "key_press": -1, "trial_index": 49}, "uniqueid": "MTK3617:3QXNC7EIPJ2MCY9P9UIXP6LYDCO09C", "dateTime": 1520816897788}, {"current_trial": 50, "trialdata": {"rt": -1, "trial_type": "single-stim", "stimulus": "<p id=\"stim\">4</p>", "internal_node_id": "0.0-35.0-6.0", "time_elapsed": 314170, "key_press": -1, "trial_index": 50}, "uniqueid": "MTK3617:3QXNC7EIPJ2MCY9P9UIXP6LYDCO09C", "dateTime": 1520816898791}, {"current_trial": 51, "trialdata": {"rt": -1, "trial_type": "single-stim", "stimulus": "<p id=\"stim\">3</p>", "internal_node_id": "0.0-35.0-7.0", "time_elapsed": 315173, "key_press": -1, "trial_index": 51}, "uniqueid": "MTK3617:3QXNC7EIPJ2MCY9P9UIXP6LYDCO09C", "dateTime": 1520816899793}, {"current_trial": 52, "trialdata": {"rt": -1, "trial_type": "single-stim", "stimulus": "<p id=\"stim\">2</p>", "internal_node_id": "0.0-35.0-8.0", "time_elapsed": 316175, "key_press": -1, "trial_index": 52}, "uniqueid": "MTK3617:3QXNC7EIPJ2MCY9P9UIXP6LYDCO09C", "dateTime": 1520816900796}, {"current_trial": 53, "trialdata": {"rt": -1, "trial_type": "single-stim", "stimulus": "<p id=\"stim\">1</p>", "internal_node_id": "0.0-35.0-9.0", "time_elapsed": 317177, "key_press": -1, "trial_index": 53}, "uniqueid": "MTK3617:3QXNC7EIPJ2MCY9P9UIXP6LYDCO09C", "dateTime": 1520816901797}, {"current_trial": 54, "trialdata": {"rt": -1, "trial_type": "single-stim", "stimulus": "<p id=\"stim\">+</p>", "internal_node_id": "0.0-36.0-0.0", "time_elapsed": 318678, "key_press": -1, "type": "FIXATION", "trial_index": 54}, "uniqueid": "MTK3617:3QXNC7EIPJ2MCY9P9UIXP6LYDCO09C", "dateTime": 1520816903298}, {"current_trial": 55, "trialdata": {"rt": -1, "trial_type": "single-stim", "word": "balloon", "stimulus": "<p id=\"stim\">BALLOON</p>", "conditions": [18, 1200, "v", 18000], "internal_node_id": "0.0-37.0", "trial": 1, "time_elapsed": 319880, "serialpos": 0, "key_press": -1, "wordID": 74, "type": "PRES_VIS", "trial_index": 55}, "uniqueid": "MTK3617:3QXNC7EIPJ2MCY9P9UIXP6LYDCO09C", "dateTime": 1520816904500}, {"current_trial": 56, "trialdata": {"rt": -1, "trial_type": "single-stim", "word": "branch", "stimulus": "<p id=\"stim\">BRANCH</p>", "conditions": [18, 1200, "v", 18000], "internal_node_id": "0.0-38.0", "trial": 1, "time_elapsed": 322166, "serialpos": 1, "key_press": -1, "wordID": 167, "type": "PRES_VIS", "trial_index": 56}, "uniqueid": "MTK3617:3QXNC7EIPJ2MCY9P9UIXP6LYDCO09C", "dateTime": 1520816906787}, {"current_trial": 57, "trialdata": {"rt": -1, "trial_type": "single-stim", "word": "skillet", "stimulus": "<p id=\"stim\">SKILLET</p>", "conditions": [18, 1200, "v", 18000], "internal_node_id": "0.0-39.0", "trial": 1, "time_elapsed": 324295, "serialpos": 2, "key_press": -1, "wordID": 1316, "type": "PRES_VIS", "trial_index": 57}, "uniqueid": "MTK3617:3QXNC7EIPJ2MCY9P9UIXP6LYDCO09C", "dateTime": 1520816908916}, {"current_trial": 58, "trialdata": {"rt": -1, "trial_type": "single-stim", "word": "valley", "stimulus": "<p id=\"stim\">VALLEY</p>", "conditions": [18, 1200, "v", 18000], "internal_node_id": "0.0-40.0", "trial": 1, "time_elapsed": 326424, "serialpos": 3, "key_press": -1, "wordID": 1544, "type": "PRES_VIS", "trial_index": 58}, "uniqueid": "MTK3617:3QXNC7EIPJ2MCY9P9UIXP6LYDCO09C", "dateTime": 1520816911044}, {"current_trial": 59, "trialdata": {"rt": -1, "trial_type": "single-stim", "word": "puppy", "stimulus": "<p id=\"stim\">PUPPY</p>", "conditions": [18, 1200, "v", 18000], "internal_node_id": "0.0-41.0", "trial": 1, "time_elapsed": 328529, "serialpos": 4, "key_press": -1, "wordID": 1143, "type": "PRES_VIS", "trial_index": 59}, "uniqueid": "MTK3617:3QXNC7EIPJ2MCY9P9UIXP6LYDCO09C", "dateTime": 1520816913149}, {"current_trial": 60, "trialdata": {"rt": -1, "trial_type": "single-stim", "word": "maple", "stimulus": "<p id=\"stim\">MAPLE</p>", "conditions": [18, 1200, "v", 18000], "internal_node_id": "0.0-42.0", "trial": 1, "time_elapsed": 330878, "serialpos": 5, "key_press": -1, "wordID": 865, "type": "PRES_VIS", "trial_index": 60}, "uniqueid": "MTK3617:3QXNC7EIPJ2MCY9P9UIXP6LYDCO09C", "dateTime": 1520816915498}, {"current_trial": 61, "trialdata": {"rt": -1, "trial_type": "single-stim", "word": "blouse", "stimulus": "<p id=\"stim\">BLOUSE</p>", "conditions": [18, 1200, "v", 18000], "internal_node_id": "0.0-43.0", "trial": 1, "time_elapsed": 332940, "serialpos": 6, "key_press": -1, "wordID": 138, "type": "PRES_VIS", "trial_index": 61}, "uniqueid": "MTK3617:3QXNC7EIPJ2MCY9P9UIXP6LYDCO09C", "dateTime": 1520816917560}, {"current_trial": 62, "trialdata": {"rt": -1, "trial_type": "single-stim", "word": "hand", "stimulus": "<p id=\"stim\">HAND</p>", "conditions": [18, 1200, "v", 18000], "internal_node_id": "0.0-44.0", "trial": 1, "time_elapsed": 335148, "serialpos": 7, "key_press": -1, "wordID": 682, "type": "PRES_VIS", "trial_index": 62}, "uniqueid": "MTK3617:3QXNC7EIPJ2MCY9P9UIXP6LYDCO09C", "dateTime": 1520816919768}, {"current_trial": 63, "trialdata": {"rt": -1, "trial_type": "single-stim", "word": "liver", "stimulus": "<p id=\"stim\">LIVER</p>", "conditions": [18, 1200, "v", 18000], "internal_node_id": "0.0-45.0", "trial": 1, "time_elapsed": 337273, "serialpos": 8, "key_press": -1, "wordID": 832, "type": "PRES_VIS", "trial_index": 63}, "uniqueid": "MTK3617:3QXNC7EIPJ2MCY9P9UIXP6LYDCO09C", "dateTime": 1520816921894}, {"current_trial": 64, "trialdata": {"rt": -1, "trial_type": "single-stim", "word": "tile", "stimulus": "<p id=\"stim\">TILE</p>", "conditions": [18, 1200, "v", 18000], "internal_node_id": "0.0-46.0", "trial": 1, "time_elapsed": 339333, "serialpos": 9, "key_press": -1, "wordID": 1467, "type": "PRES_VIS", "trial_index": 64}, "uniqueid": "MTK3617:3QXNC7EIPJ2MCY9P9UIXP6LYDCO09C", "dateTime": 1520816923954}, {"current_trial": 65, "trialdata": {"rt": -1, "trial_type": "single-stim", "word": "sparrow", "stimulus": "<p id=\"stim\">SPARROW</p>", "conditions": [18, 1200, "v", 18000], "internal_node_id": "0.0-47.0", "trial": 1, "time_elapsed": 341693, "serialpos": 10, "key_press": -1, "wordID": 1346, "type": "PRES_VIS", "trial_index": 65}, "uniqueid": "MTK3617:3QXNC7EIPJ2MCY9P9UIXP6LYDCO09C", "dateTime": 1520816926313}, {"current_trial": 66, "trialdata": {"rt": -1, "trial_type": "single-stim", "word": "spoon", "stimulus": "<p id=\"stim\">SPOON</p>", "conditions": [18, 1200, "v", 18000], "internal_node_id": "0.0-48.0", "trial": 1, "time_elapsed": 343848, "serialpos": 11, "key_press": -1, "wordID": 1356, "type": "PRES_VIS", "trial_index": 66}, "uniqueid": "MTK3617:3QXNC7EIPJ2MCY9P9UIXP6LYDCO09C", "dateTime": 1520816928468}, {"current_trial": 67, "trialdata": {"rt": -1, "trial_type": "single-stim", "word": "mailbox", "stimulus": "<p id=\"stim\">MAILBOX</p>", "conditions": [18, 1200, "v", 18000], "internal_node_id": "0.0-49.0", "trial": 1, "time_elapsed": 346149, "serialpos": 12, "key_press": -1, "wordID": 856, "type": "PRES_VIS", "trial_index": 67}, "uniqueid": "MTK3617:3QXNC7EIPJ2MCY9P9UIXP6LYDCO09C", "dateTime": 1520816930770}, {"current_trial": 68, "trialdata": {"rt": -1, "trial_type": "single-stim", "word": "omelet", "stimulus": "<p id=\"stim\">OMELET</p>", "conditions": [18, 1200, "v", 18000], "internal_node_id": "0.0-50.0", "trial": 1, "time_elapsed": 348227, "serialpos": 13, "key_press": -1, "wordID": 975, "type": "PRES_VIS", "trial_index": 68}, "uniqueid": "MTK3617:3QXNC7EIPJ2MCY9P9UIXP6LYDCO09C", "dateTime": 1520816932849}, {"current_trial": 69, "trialdata": {"rt": -1, "trial_type": "single-stim", "word": "jelly", "stimulus": "<p id=\"stim\">JELLY</p>", "conditions": [18, 1200, "v", 18000], "internal_node_id": "0.0-51.0", "trial": 1, "time_elapsed": 350596, "serialpos": 14, "key_press": -1, "wordID": 754, "type": "PRES_VIS", "trial_index": 69}, "uniqueid": "MTK3617:3QXNC7EIPJ2MCY9P9UIXP6LYDCO09C", "dateTime": 1520816935216}, {"current_trial": 70, "trialdata": {"rt": -1, "trial_type": "single-stim", "word": "snail", "stimulus": "<p id=\"stim\">SNAIL</p>", "conditions": [18, 1200, "v", 18000], "internal_node_id": "0.0-52.0", "trial": 1, "time_elapsed": 352741, "serialpos": 15, "key_press": -1, "wordID": 1331, "type": "PRES_VIS", "trial_index": 70}, "uniqueid": "MTK3617:3QXNC7EIPJ2MCY9P9UIXP6LYDCO09C", "dateTime": 1520816937362}, {"current_trial": 71, "trialdata": {"rt": -1, "trial_type": "single-stim", "word": "preacher", "stimulus": "<p id=\"stim\">PREACHER</p>", "conditions": [18, 1200, "v", 18000], "internal_node_id": "0.0-53.0", "trial": 1, "time_elapsed": 355013, "serialpos": 16, "key_press": -1, "wordID": 1118, "type": "PRES_VIS", "trial_index": 71}, "uniqueid": "MTK3617:3QXNC7EIPJ2MCY9P9UIXP6LYDCO09C", "dateTime": 1520816939634}, {"current_trial": 72, "trialdata": {"rt": -1, "trial_type": "single-stim", "word": "slug", "stimulus": "<p id=\"stim\">SLUG</p>", "conditions": [18, 1200, "v", 18000], "internal_node_id": "0.0-54.0", "trial": 1, "time_elapsed": 357229, "serialpos": 17, "key_press": -1, "wordID": 1328, "type": "PRES_VIS", "trial_index": 72}, "uniqueid": "MTK3617:3QXNC7EIPJ2MCY9P9UIXP6LYDCO09C", "dateTime": 1520816941849}, {"current_trial": 73, "trialdata": {"rt": -1, "trial_type": "single-stim", "stimulus": "", "internal_node_id": "0.0-55.0-0.0", "time_elapsed": 359398, "key_press": -1, "type": "PRE_RECALL_DELAY", "trial_index": 73}, "uniqueid": "MTK3617:3QXNC7EIPJ2MCY9P9UIXP6LYDCO09C", "dateTime": 1520816944018}, {"current_trial": 74, "trialdata": {"rt": -1000, "trial_type": "single-audio", "stimulus": "/static/audio/400Hz.wav", "internal_node_id": "0.0-56.0", "time_elapsed": 359901, "key_press": -1, "type": "PRE_RECALL_ALERT", "trial_index": 74}, "uniqueid": "MTK3617:3QXNC7EIPJ2MCY9P9UIXP6LYDCO09C", "dateTime": 1520816944521}, {"current_trial": 75, "trialdata": {"rt": [4470, 7652, 11032, 14840, 18726, 22870, 25229, 27549, 32505, 36639, 40387, 43282, 51629], "recwords": ["balloon", "branch", "valley", "puppy", "liver", "mape", "sparrow", "spoon", "omelet", "jelly", "snail", "slug", "mailbox"], "key_times": [2222, 2389, 2687, 2845, 3113, 3341, 3470, 4470, 5809, 5938, 6672, 6820, 7128, 7227, 7652, 9705, 9844, 10082, 10250, 10339, 10528, 11032, 11619, 11966, 12312, 12451, 13155, 14027, 14394, 14840, 17160, 17437, 17795, 17924, 18013, 18726, 21393, 21928, 22058, 22295, 22870, 23307, 23464, 23644, 24060, 24218, 24318, 24476, 25229, 26122, 26291, 26608, 26757, 26896, 27549, 30612, 30782, 31197, 31306, 31495, 31653, 32505, 35113, 35222, 35510, 35917, 36134, 36639, 39029, 39148, 39267, 39476, 39693, 40387, 42251, 42400, 42638, 42905, 43282, 50054, 50400, 50490, 50698, 50986, 51193, 51442, 51629], "trial_type": "free-recall", "conditions": [18, 1200, "v", 18000], "internal_node_id": "0.0-57.0-0.0", "key_presses": [66, 65, 76, 76, 79, 79, 78, 13, 66, 82, 65, 78, 67, 72, 13, 86, 65, 76, 76, 69, 89, 13, 80, 85, 80, 80, 85, 8, 89, 13, 76, 73, 86, 69, 82, 13, 77, 65, 80, 69, 13, 83, 80, 65, 82, 82, 79, 87, 13, 83, 80, 79, 79, 78, 13, 79, 77, 69, 76, 69, 84, 13, 74, 69, 76, 76, 89, 13, 83, 78, 65, 73, 76, 13, 83, 76, 85, 71, 13, 77, 65, 73, 76, 66, 79, 88, 13], "trial": 1, "time_elapsed": 419905, "type": "FREE_RECALL", "trial_index": 75}, "uniqueid": "MTK3617:3QXNC7EIPJ2MCY9P9UIXP6LYDCO09C", "dateTime": 1520817004527}, {"current_trial": 76, "trialdata": {"rt": 22653, "trial_type": "text", "internal_node_id": "0.0-58.0", "time_elapsed": 444563, "key_press": 13, "type": "INSTRUCTIONS", "trial_index": 76}, "uniqueid": "MTK3617:3QXNC7EIPJ2MCY9P9UIXP6LYDCO09C", "dateTime": 1520817029183}, {"current_trial": 77, "trialdata": {"rt": [3219, 5386, 7163, 9515, 12802, 16363, 18962, 20738], "trial_type": "math-distractor", "key_times": [2731, 2876, 3219, 5019, 5180, 5386, 6859, 6963, 7163, 9172, 9251, 9515, 12419, 12579, 12802, 14171, 14363, 15168, 15296, 15732, 15836, 16363, 18611, 18715, 18962, 20331, 20451, 20738], "responses": ["17", "14", "21", "13", "14", "10", "20", "16"], "num2": [6, 9, 9, 3, 8, 2, 5, 7, 6], "num3": [7, 1, 3, 1, 1, 2, 8, 8, 8], "conditions": [12, 800, "v", 24000], "internal_node_id": "0.0-59.0", "key_presses": [97, 103, 13, 97, 100, 13, 98, 97, 13, 97, 99, 13, 97, 100, 13, 100, 96, 8, 8, 97, 96, 13, 98, 96, 13, 97, 102, 13], "trial": 2, "time_elapsed": 469569, "type": "DISTRACTOR", "trial_index": 77, "num1": [4, 4, 9, 9, 5, 6, 7, 1, 3]}, "uniqueid": "MTK3617:3QXNC7EIPJ2MCY9P9UIXP6LYDCO09C", "dateTime": 1520817054189}, {"current_trial": 78, "trialdata": {"rt": -1, "trial_type": "single-stim", "stimulus": "<p id=\"stim\">10</p>", "internal_node_id": "0.0-60.0-0.0", "time_elapsed": 472572, "key_press": -1, "trial_index": 78}, "uniqueid": "MTK3617:3QXNC7EIPJ2MCY9P9UIXP6LYDCO09C", "dateTime": 1520817057193}, {"current_trial": 79, "trialdata": {"rt": -1, "trial_type": "single-stim", "stimulus": "<p id=\"stim\">9</p>", "internal_node_id": "0.0-60.0-1.0", "time_elapsed": 473574, "key_press": -1, "trial_index": 79}, "uniqueid": "MTK3617:3QXNC7EIPJ2MCY9P9UIXP6LYDCO09C", "dateTime": 1520817058194}, {"current_trial": 80, "trialdata": {"rt": -1, "trial_type": "single-stim", "stimulus": "<p id=\"stim\">8</p>", "internal_node_id": "0.0-60.0-2.0", "time_elapsed": 474577, "key_press": -1, "trial_index": 80}, "uniqueid": "MTK3617:3QXNC7EIPJ2MCY9P9UIXP6LYDCO09C", "dateTime": 1520817059197}, {"current_trial": 81, "trialdata": {"rt": -1, "trial_type": "single-stim", "stimulus": "<p id=\"stim\">7</p>", "internal_node_id": "0.0-60.0-3.0", "time_elapsed": 475580, "key_press": -1, "trial_index": 81}, "uniqueid": "MTK3617:3QXNC7EIPJ2MCY9P9UIXP6LYDCO09C", "dateTime": 1520817060200}, {"current_trial": 82, "trialdata": {"rt": -1, "trial_type": "single-stim", "stimulus": "<p id=\"stim\">6</p>", "internal_node_id": "0.0-60.0-4.0", "time_elapsed": 476582, "key_press": -1, "trial_index": 82}, "uniqueid": "MTK3617:3QXNC7EIPJ2MCY9P9UIXP6LYDCO09C", "dateTime": 1520817061202}, {"current_trial": 83, "trialdata": {"rt": -1, "trial_type": "single-stim", "stimulus": "<p id=\"stim\">5</p>", "internal_node_id": "0.0-60.0-5.0", "time_elapsed": 477584, "key_press": -1, "trial_index": 83}, "uniqueid": "MTK3617:3QXNC7EIPJ2MCY9P9UIXP6LYDCO09C", "dateTime": 1520817062204}, {"current_trial": 84, "trialdata": {"rt": -1, "trial_type": "single-stim", "stimulus": "<p id=\"stim\">4</p>", "internal_node_id": "0.0-60.0-6.0", "time_elapsed": 478586, "key_press": -1, "trial_index": 84}, "uniqueid": "MTK3617:3QXNC7EIPJ2MCY9P9UIXP6LYDCO09C", "dateTime": 1520817063206}, {"current_trial": 85, "trialdata": {"rt": -1, "trial_type": "single-stim", "stimulus": "<p id=\"stim\">3</p>", "internal_node_id": "0.0-60.0-7.0", "time_elapsed": 479588, "key_press": -1, "trial_index": 85}, "uniqueid": "MTK3617:3QXNC7EIPJ2MCY9P9UIXP6LYDCO09C", "dateTime": 1520817064208}, {"current_trial": 86, "trialdata": {"rt": -1, "trial_type": "single-stim", "stimulus": "<p id=\"stim\">2</p>", "internal_node_id": "0.0-60.0-8.0", "time_elapsed": 480590, "key_press": -1, "trial_index": 86}, "uniqueid": "MTK3617:3QXNC7EIPJ2MCY9P9UIXP6LYDCO09C", "dateTime": 1520817065210}, {"current_trial": 87, "trialdata": {"rt": -1, "trial_type": "single-stim", "stimulus": "<p id=\"stim\">1</p>", "internal_node_id": "0.0-60.0-9.0", "time_elapsed": 481592, "key_press": -1, "trial_index": 87}, "uniqueid": "MTK3617:3QXNC7EIPJ2MCY9P9UIXP6LYDCO09C", "dateTime": 1520817066212}, {"current_trial": 88, "trialdata": {"rt": -1, "trial_type": "single-stim", "stimulus": "<p id=\"stim\">+</p>", "internal_node_id": "0.0-61.0-0.0", "time_elapsed": 483094, "key_press": -1, "type": "FIXATION", "trial_index": 88}, "uniqueid": "MTK3617:3QXNC7EIPJ2MCY9P9UIXP6LYDCO09C", "dateTime": 1520817067714}, {"current_trial": 89, "trialdata": {"rt": -1, "trial_type": "single-stim", "word": "butcher", "stimulus": "<p id=\"stim\">BUTCHER</p>", "conditions": [12, 800, "v", 24000], "internal_node_id": "0.0-62.0", "trial": 2, "time_elapsed": 483896, "serialpos": 0, "key_press": -1, "wordID": 202, "type": "PRES_VIS", "trial_index": 89}, "uniqueid": "MTK3617:3QXNC7EIPJ2MCY9P9UIXP6LYDCO09C", "dateTime": 1520817068516}, {"current_trial": 90, "trialdata": {"rt": -1, "trial_type": "single-stim", "word": "fiddle", "stimulus": "<p id=\"stim\">FIDDLE</p>", "conditions": [12, 800, "v", 24000], "internal_node_id": "0.0-63.0", "trial": 2, "time_elapsed": 485895, "serialpos": 1, "key_press": -1, "wordID": 560, "type": "PRES_VIS", "trial_index": 90}, "uniqueid": "MTK3617:3QXNC7EIPJ2MCY9P9UIXP6LYDCO09C", "dateTime": 1520817070515}, {"current_trial": 91, "trialdata": {"rt": -1, "trial_type": "single-stim", "word": "venus", "stimulus": "<p id=\"stim\">VENUS</p>", "conditions": [12, 800, "v", 24000], "internal_node_id": "0.0-64.0", "trial": 2, "time_elapsed": 487826, "serialpos": 2, "key_press": -1, "wordID": 1556, "type": "PRES_VIS", "trial_index": 91}, "uniqueid": "MTK3617:3QXNC7EIPJ2MCY9P9UIXP6LYDCO09C", "dateTime": 1520817072447}, {"current_trial": 92, "trialdata": {"rt": -1, "trial_type": "single-stim", "word": "brother", "stimulus": "<p id=\"stim\">BROTHER</p>", "conditions": [12, 800, "v", 24000], "internal_node_id": "0.0-65.0", "trial": 2, "time_elapsed": 489696, "serialpos": 3, "key_press": -1, "wordID": 178, "type": "PRES_VIS", "trial_index": 92}, "uniqueid": "MTK3617:3QXNC7EIPJ2MCY9P9UIXP6LYDCO09C", "dateTime": 1520817074316}, {"current_trial": 93, "trialdata": {"rt": -1, "trial_type": "single-stim", "word": "airplane", "stimulus": "<p id=\"stim\">AIRPLANE</p>", "conditions": [12, 800, "v", 24000], "internal_node_id": "0.0-66.0", "trial": 2, "time_elapsed": 491300, "serialpos": 4, "key_press": -1, "wordID": 11, "type": "PRES_VIS", "trial_index": 93}, "uniqueid": "MTK3617:3QXNC7EIPJ2MCY9P9UIXP6LYDCO09C", "dateTime": 1520817075920}, {"current_trial": 94, "trialdata": {"rt": -1, "trial_type": "single-stim", "word": "rooster", "stimulus": "<p id=\"stim\">ROOSTER</p>", "conditions": [12, 800, "v", 24000], "internal_node_id": "0.0-67.0", "trial": 2, "time_elapsed": 493119, "serialpos": 5, "key_press": -1, "wordID": 1208, "type": "PRES_VIS", "trial_index": 94}, "uniqueid": "MTK3617:3QXNC7EIPJ2MCY9P9UIXP6LYDCO09C", "dateTime": 1520817077739}, {"current_trial": 95, "trialdata": {"rt": -1, "trial_type": "single-stim", "word": "cashier", "stimulus": "<p id=\"stim\">CASHIER</p>", "conditions": [12, 800, "v", 24000], "internal_node_id": "0.0-68.0", "trial": 2, "time_elapsed": 494830, "serialpos": 6, "key_press": -1, "wordID": 253, "type": "PRES_VIS", "trial_index": 95}, "uniqueid": "MTK3617:3QXNC7EIPJ2MCY9P9UIXP6LYDCO09C", "dateTime": 1520817079450}, {"current_trial": 96, "trialdata": {"rt": -1, "trial_type": "single-stim", "word": "chapel", "stimulus": "<p id=\"stim\">CHAPEL</p>", "conditions": [12, 800, "v", 24000], "internal_node_id": "0.0-69.0", "trial": 2, "time_elapsed": 496609, "serialpos": 7, "key_press": -1, "wordID": 279, "type": "PRES_VIS", "trial_index": 96}, "uniqueid": "MTK3617:3QXNC7EIPJ2MCY9P9UIXP6LYDCO09C", "dateTime": 1520817081231}, {"current_trial": 97, "trialdata": {"rt": -1, "trial_type": "single-stim", "word": "banquet", "stimulus": "<p id=\"stim\">BANQUET</p>", "conditions": [12, 800, "v", 24000], "internal_node_id": "0.0-70.0", "trial": 2, "time_elapsed": 498234, "serialpos": 8, "key_press": -1, "wordID": 85, "type": "PRES_VIS", "trial_index": 97}, "uniqueid": "MTK3617:3QXNC7EIPJ2MCY9P9UIXP6LYDCO09C", "dateTime": 1520817082854}, {"current_trial": 98, "trialdata": {"rt": -1, "trial_type": "single-stim", "word": "arm", "stimulus": "<p id=\"stim\">ARM</p>", "conditions": [12, 800, "v", 24000], "internal_node_id": "0.0-71.0", "trial": 2, "time_elapsed": 499860, "serialpos": 9, "key_press": -1, "wordID": 37, "type": "PRES_VIS", "trial_index": 98}, "uniqueid": "MTK3617:3QXNC7EIPJ2MCY9P9UIXP6LYDCO09C", "dateTime": 1520817084480}, {"current_trial": 99, "trialdata": {"rt": -1, "trial_type": "single-stim", "word": "shoulder", "stimulus": "<p id=\"stim\">SHOULDER</p>", "conditions": [12, 800, "v", 24000], "internal_node_id": "0.0-72.0", "trial": 2, "time_elapsed": 501658, "serialpos": 10, "key_press": -1, "wordID": 1293, "type": "PRES_VIS", "trial_index": 99}, "uniqueid": "MTK3617:3QXNC7EIPJ2MCY9P9UIXP6LYDCO09C", "dateTime": 1520817086278}, {"current_trial": 100, "trialdata": {"rt": -1, "trial_type": "single-stim", "word": "trombone", "stimulus": "<p id=\"stim\">TROMBONE</p>", "conditions": [12, 800, "v", 24000], "internal_node_id": "0.0-73.0", "trial": 2, "time_elapsed": 503611, "serialpos": 11, "key_press": -1, "wordID": 1507, "type": "PRES_VIS", "trial_index": 100}, "uniqueid": "MTK3617:3QXNC7EIPJ2MCY9P9UIXP6LYDCO09C", "dateTime": 1520817088232}, {"current_trial": 101, "trialdata": {"rt": -1, "trial_type": "single-stim", "stimulus": "", "internal_node_id": "0.0-74.0-0.0", "time_elapsed": 505704, "key_press": -1, "type": "PRE_RECALL_DELAY", "trial_index": 101}, "uniqueid": "MTK3617:3QXNC7EIPJ2MCY9P9UIXP6LYDCO09C", "dateTime": 1520817090324}, {"current_trial": 102, "trialdata": {"rt": -1000, "trial_type": "single-audio", "stimulus": "/static/audio/400Hz.wav", "internal_node_id": "0.0-75.0", "time_elapsed": 506207, "key_press": -1, "type": "PRE_RECALL_ALERT", "trial_index": 102}, "uniqueid": "MTK3617:3QXNC7EIPJ2MCY9P9UIXP6LYDCO09C", "dateTime": 1520817090828}, {"current_trial": 103, "trialdata": {"rt": [7683, 11154, 14159, 17401, 21725, 24937, 26573, 34317, 41407], "recwords": ["butcher", "fiddler", "venus", "brother", "cashier", "arm", "shoulder", "rooster", "trombone"], "key_times": [5384, 5582, 6018, 6376, 6514, 6842, 6951, 7683, 9123, 9320, 9558, 9707, 9816, 10491, 10580, 11154, 12295, 12463, 12582, 13257, 13425, 14159, 15548, 15924, 16053, 16331, 16530, 16630, 16757, 17401, 19544, 19772, 19931, 20218, 20704, 20803, 20902, 21725, 23818, 24066, 24304, 24937, 25414, 25543, 25711, 25820, 26049, 26119, 26327, 26436, 26573, 32296, 32544, 32672, 32851, 33030, 33189, 34111, 34317, 39345, 39882, 40059, 40189, 40645, 40912, 41111, 41220, 41407], "trial_type": "free-recall", "conditions": [12, 800, "v", 24000], "internal_node_id": "0.0-76.0-0.0", "key_presses": [66, 85, 84, 67, 72, 69, 82, 13, 70, 73, 68, 68, 76, 69, 82, 13, 86, 69, 78, 85, 83, 13, 66, 82, 79, 84, 72, 69, 82, 13, 67, 65, 83, 72, 73, 69, 82, 13, 65, 82, 77, 13, 83, 72, 79, 85, 76, 68, 69, 82, 13, 82, 79, 79, 83, 84, 69, 82, 13, 84, 82, 79, 77, 66, 79, 78, 69, 13], "trial": 2, "time_elapsed": 566212, "type": "FREE_RECALL", "trial_index": 103}, "uniqueid": "MTK3617:3QXNC7EIPJ2MCY9P9UIXP6LYDCO09C", "dateTime": 1520817150835}, {"current_trial": 104, "trialdata": {"rt": 1642, "trial_type": "text", "internal_node_id": "0.0-77.0", "time_elapsed": 569858, "key_press": 13, "type": "INSTRUCTIONS", "trial_index": 104}, "uniqueid": "MTK3617:3QXNC7EIPJ2MCY9P9UIXP6LYDCO09C", "dateTime": 1520817154478}, {"current_trial": 105, "trialdata": {"rt": [2841, 4521, 6793, 8529, 11537], "trial_type": "math-distractor", "key_times": [2186, 2371, 2841, 4114, 4258, 4521, 6362, 6522, 6793, 8043, 8266, 8529, 11162, 11290, 11537], "responses": ["14", "13", "19", "15", "21"], "num2": [3, 5, 4, 3, 6, 4], "num3": [6, 7, 7, 4, 7, 6], "conditions": [24, 1600, "v", 12000], "internal_node_id": "0.0-78.0", "key_presses": [97, 100, 13, 97, 99, 13, 97, 105, 13, 97, 101, 13, 98, 97, 13], "trial": 3, "time_elapsed": 583863, "type": "DISTRACTOR", "trial_index": 105, "num1": [5, 1, 9, 8, 9, 8]}, "uniqueid": "MTK3617:3QXNC7EIPJ2MCY9P9UIXP6LYDCO09C", "dateTime": 1520817168483}, {"current_trial": 106, "trialdata": {"rt": -1, "trial_type": "single-stim", "stimulus": "<p id=\"stim\">10</p>", "internal_node_id": "0.0-79.0-0.0", "time_elapsed": 586866, "key_press": -1, "trial_index": 106}, "uniqueid": "MTK3617:3QXNC7EIPJ2MCY9P9UIXP6LYDCO09C", "dateTime": 1520817171486}, {"current_trial": 107, "trialdata": {"rt": -1, "trial_type": "single-stim", "stimulus": "<p id=\"stim\">9</p>", "internal_node_id": "0.0-79.0-1.0", "time_elapsed": 587867, "key_press": -1, "trial_index": 107}, "uniqueid": "MTK3617:3QXNC7EIPJ2MCY9P9UIXP6LYDCO09C", "dateTime": 1520817172487}, {"current_trial": 108, "trialdata": {"rt": -1, "trial_type": "single-stim", "stimulus": "<p id=\"stim\">8</p>", "internal_node_id": "0.0-79.0-2.0", "time_elapsed": 588868, "key_press": -1, "trial_index": 108}, "uniqueid": "MTK3617:3QXNC7EIPJ2MCY9P9UIXP6LYDCO09C", "dateTime": 1520817173488}, {"current_trial": 109, "trialdata": {"rt": -1, "trial_type": "single-stim", "stimulus": "<p id=\"stim\">7</p>", "internal_node_id": "0.0-79.0-3.0", "time_elapsed": 589870, "key_press": -1, "trial_index": 109}, "uniqueid": "MTK3617:3QXNC7EIPJ2MCY9P9UIXP6LYDCO09C", "dateTime": 1520817174490}, {"current_trial": 110, "trialdata": {"rt": -1, "trial_type": "single-stim", "stimulus": "<p id=\"stim\">6</p>", "internal_node_id": "0.0-79.0-4.0", "time_elapsed": 590872, "key_press": -1, "trial_index": 110}, "uniqueid": "MTK3617:3QXNC7EIPJ2MCY9P9UIXP6LYDCO09C", "dateTime": 1520817175492}, {"current_trial": 111, "trialdata": {"rt": -1, "trial_type": "single-stim", "stimulus": "<p id=\"stim\">5</p>", "internal_node_id": "0.0-79.0-5.0", "time_elapsed": 591875, "key_press": -1, "trial_index": 111}, "uniqueid": "MTK3617:3QXNC7EIPJ2MCY9P9UIXP6LYDCO09C", "dateTime": 1520817176495}, {"current_trial": 112, "trialdata": {"rt": -1, "trial_type": "single-stim", "stimulus": "<p id=\"stim\">4</p>", "internal_node_id": "0.0-79.0-6.0", "time_elapsed": 592876, "key_press": -1, "trial_index": 112}, "uniqueid": "MTK3617:3QXNC7EIPJ2MCY9P9UIXP6LYDCO09C", "dateTime": 1520817177496}, {"current_trial": 113, "trialdata": {"rt": -1, "trial_type": "single-stim", "stimulus": "<p id=\"stim\">3</p>", "internal_node_id": "0.0-79.0-7.0", "time_elapsed": 593878, "key_press": -1, "trial_index": 113}, "uniqueid": "MTK3617:3QXNC7EIPJ2MCY9P9UIXP6LYDCO09C", "dateTime": 1520817178498}, {"current_trial": 114, "trialdata": {"rt": -1, "trial_type": "single-stim", "stimulus": "<p id=\"stim\">2</p>", "internal_node_id": "0.0-79.0-8.0", "time_elapsed": 594880, "key_press": -1, "trial_index": 114}, "uniqueid": "MTK3617:3QXNC7EIPJ2MCY9P9UIXP6LYDCO09C", "dateTime": 1520817179500}, {"current_trial": 115, "trialdata": {"rt": -1, "trial_type": "single-stim", "stimulus": "<p id=\"stim\">1</p>", "internal_node_id": "0.0-79.0-9.0", "time_elapsed": 595882, "key_press": -1, "trial_index": 115}, "uniqueid": "MTK3617:3QXNC7EIPJ2MCY9P9UIXP6LYDCO09C", "dateTime": 1520817180502}, {"current_trial": 116, "trialdata": {"rt": -1, "trial_type": "single-stim", "stimulus": "<p id=\"stim\">+</p>", "internal_node_id": "0.0-80.0-0.0", "time_elapsed": 597384, "key_press": -1, "type": "FIXATION", "trial_index": 116}, "uniqueid": "MTK3617:3QXNC7EIPJ2MCY9P9UIXP6LYDCO09C", "dateTime": 1520817182004}, {"current_trial": 117, "trialdata": {"rt": -1, "trial_type": "single-stim", "word": "luggage", "stimulus": "<p id=\"stim\">LUGGAGE</p>", "conditions": [24, 1600, "v", 12000], "internal_node_id": "0.0-81.0", "trial": 3, "time_elapsed": 598985, "serialpos": 0, "key_press": -1, "wordID": 846, "type": "PRES_VIS", "trial_index": 117}, "uniqueid": "MTK3617:3QXNC7EIPJ2MCY9P9UIXP6LYDCO09C", "dateTime": 1520817183606}, {"current_trial": 118, "trialdata": {"rt": -1, "trial_type": "single-stim", "word": "handbag", "stimulus": "<p id=\"stim\">HANDBAG</p>", "conditions": [24, 1600, "v", 12000], "internal_node_id": "0.0-82.0", "trial": 3, "time_elapsed": 601573, "serialpos": 1, "key_press": -1, "wordID": 683, "type": "PRES_VIS", "trial_index": 118}, "uniqueid": "MTK3617:3QXNC7EIPJ2MCY9P9UIXP6LYDCO09C", "dateTime": 1520817186193}, {"current_trial": 119, "trialdata": {"rt": -1, "trial_type": "single-stim", "word": "apple", "stimulus": "<p id=\"stim\">APPLE</p>", "conditions": [24, 1600, "v", 12000], "internal_node_id": "0.0-83.0", "trial": 3, "time_elapsed": 604193, "serialpos": 2, "key_press": -1, "wordID": 32, "type": "PRES_VIS", "trial_index": 119}, "uniqueid": "MTK3617:3QXNC7EIPJ2MCY9P9UIXP6LYDCO09C", "dateTime": 1520817188813}, {"current_trial": 120, "trialdata": {"rt": -1, "trial_type": "single-stim", "word": "canal", "stimulus": "<p id=\"stim\">CANAL</p>", "conditions": [24, 1600, "v", 12000], "internal_node_id": "0.0-84.0", "trial": 3, "time_elapsed": 606843, "serialpos": 3, "key_press": -1, "wordID": 225, "type": "PRES_VIS", "trial_index": 120}, "uniqueid": "MTK3617:3QXNC7EIPJ2MCY9P9UIXP6LYDCO09C", "dateTime": 1520817191463}, {"current_trial": 121, "trialdata": {"rt": -1, "trial_type": "single-stim", "word": "lagoon", "stimulus": "<p id=\"stim\">LAGOON</p>", "conditions": [24, 1600, "v", 12000], "internal_node_id": "0.0-85.0", "trial": 3, "time_elapsed": 609348, "serialpos": 4, "key_press": -1, "wordID": 794, "type": "PRES_VIS", "trial_index": 121}, "uniqueid": "MTK3617:3QXNC7EIPJ2MCY9P9UIXP6LYDCO09C", "dateTime": 1520817193968}, {"current_trial": 122, "trialdata": {"rt": -1, "trial_type": "single-stim", "word": "peach", "stimulus": "<p id=\"stim\">PEACH</p>", "conditions": [24, 1600, "v", 12000], "internal_node_id": "0.0-86.0", "trial": 3, "time_elapsed": 611814, "serialpos": 5, "key_press": -1, "wordID": 1030, "type": "PRES_VIS", "trial_index": 122}, "uniqueid": "MTK3617:3QXNC7EIPJ2MCY9P9UIXP6LYDCO09C", "dateTime": 1520817196435}, {"current_trial": 123, "trialdata": {"rt": -1, "trial_type": "single-stim", "word": "quail", "stimulus": "<p id=\"stim\">QUAIL</p>", "conditions": [24, 1600, "v", 12000], "internal_node_id": "0.0-87.0", "trial": 3, "time_elapsed": 614324, "serialpos": 6, "key_press": -1, "wordID": 1146, "type": "PRES_VIS", "trial_index": 123}, "uniqueid": "MTK3617:3QXNC7EIPJ2MCY9P9UIXP6LYDCO09C", "dateTime": 1520817198945}, {"current_trial": 124, "trialdata": {"rt": -1, "trial_type": "single-stim", "word": "convict", "stimulus": "<p id=\"stim\">CONVICT</p>", "conditions": [24, 1600, "v", 12000], "internal_node_id": "0.0-88.0", "trial": 3, "time_elapsed": 617124, "serialpos": 7, "key_press": -1, "wordID": 370, "type": "PRES_VIS", "trial_index": 124}, "uniqueid": "MTK3617:3QXNC7EIPJ2MCY9P9UIXP6LYDCO09C", "dateTime": 1520817201745}, {"current_trial": 125, "trialdata": {"rt": -1, "trial_type": "single-stim", "word": "robber", "stimulus": "<p id=\"stim\">ROBBER</p>", "conditions": [24, 1600, "v", 12000], "internal_node_id": "0.0-89.0", "trial": 3, "time_elapsed": 619545, "serialpos": 8, "key_press": -1, "wordID": 1196, "type": "PRES_VIS", "trial_index": 125}, "uniqueid": "MTK3617:3QXNC7EIPJ2MCY9P9UIXP6LYDCO09C", "dateTime": 1520817204165}, {"current_trial": 126, "trialdata": {"rt": -1, "trial_type": "single-stim", "word": "thread", "stimulus": "<p id=\"stim\">THREAD</p>", "conditions": [24, 1600, "v", 12000], "internal_node_id": "0.0-90.0", "trial": 3, "time_elapsed": 622017, "serialpos": 9, "key_press": -1, "wordID": 1459, "type": "PRES_VIS", "trial_index": 126}, "uniqueid": "MTK3617:3QXNC7EIPJ2MCY9P9UIXP6LYDCO09C", "dateTime": 1520817206638}, {"current_trial": 127, "trialdata": {"rt": -1, "trial_type": "single-stim", "word": "turtle", "stimulus": "<p id=\"stim\">TURTLE</p>", "conditions": [24, 1600, "v", 12000], "internal_node_id": "0.0-91.0", "trial": 3, "time_elapsed": 624684, "serialpos": 10, "key_press": -1, "wordID": 1521, "type": "PRES_VIS", "trial_index": 127}, "uniqueid": "MTK3617:3QXNC7EIPJ2MCY9P9UIXP6LYDCO09C", "dateTime": 1520817209304}, {"current_trial": 128, "trialdata": {"rt": -1, "trial_type": "single-stim", "word": "flask", "stimulus": "<p id=\"stim\">FLASK</p>", "conditions": [24, 1600, "v", 12000], "internal_node_id": "0.0-92.0", "trial": 3, "time_elapsed": 627159, "serialpos": 11, "key_press": -1, "wordID": 575, "type": "PRES_VIS", "trial_index": 128}, "uniqueid": "MTK3617:3QXNC7EIPJ2MCY9P9UIXP6LYDCO09C", "dateTime": 1520817211779}, {"current_trial": 129, "trialdata": {"rt": -1, "trial_type": "single-stim", "word": "diner", "stimulus": "<p id=\"stim\">DINER</p>", "conditions": [24, 1600, "v", 12000], "internal_node_id": "0.0-93.0", "trial": 3, "time_elapsed": 629665, "serialpos": 12, "key_press": -1, "wordID": 466, "type": "PRES_VIS", "trial_index": 129}, "uniqueid": "MTK3617:3QXNC7EIPJ2MCY9P9UIXP6LYDCO09C", "dateTime": 1520817214285}, {"current_trial": 130, "trialdata": {"rt": -1, "trial_type": "single-stim", "word": "softball", "stimulus": "<p id=\"stim\">SOFTBALL</p>", "conditions": [24, 1600, "v", 12000], "internal_node_id": "0.0-94.0", "trial": 3, "time_elapsed": 632376, "serialpos": 13, "key_press": -1, "wordID": 1342, "type": "PRES_VIS", "trial_index": 130}, "uniqueid": "MTK3617:3QXNC7EIPJ2MCY9P9UIXP6LYDCO09C", "dateTime": 1520817216996}, {"current_trial": 131, "trialdata": {"rt": -1, "trial_type": "single-stim", "word": "twig", "stimulus": "<p id=\"stim\">TWIG</p>", "conditions": [24, 1600, "v", 12000], "internal_node_id": "0.0-95.0", "trial": 3, "time_elapsed": 635148, "serialpos": 14, "key_press": -1, "wordID": 1526, "type": "PRES_VIS", "trial_index": 131}, "uniqueid": "MTK3617:3QXNC7EIPJ2MCY9P9UIXP6LYDCO09C", "dateTime": 1520817219768}, {"current_trial": 132, "trialdata": {"rt": -1, "trial_type": "single-stim", "word": "fireplace", "stimulus": "<p id=\"stim\">FIREPLACE</p>", "conditions": [24, 1600, "v", 12000], "internal_node_id": "0.0-96.0", "trial": 3, "time_elapsed": 637744, "serialpos": 15, "key_press": -1, "wordID": 569, "type": "PRES_VIS", "trial_index": 132}, "uniqueid": "MTK3617:3QXNC7EIPJ2MCY9P9UIXP6LYDCO09C", "dateTime": 1520817222364}, {"current_trial": 133, "trialdata": {"rt": -1, "trial_type": "single-stim", "word": "crib", "stimulus": "<p id=\"stim\">CRIB</p>", "conditions": [24, 1600, "v", 12000], "internal_node_id": "0.0-97.0", "trial": 3, "time_elapsed": 640431, "serialpos": 16, "key_press": -1, "wordID": 406, "type": "PRES_VIS", "trial_index": 133}, "uniqueid": "MTK3617:3QXNC7EIPJ2MCY9P9UIXP6LYDCO09C", "dateTime": 1520817225051}, {"current_trial": 134, "trialdata": {"rt": -1, "trial_type": "single-stim", "word": "dime", "stimulus": "<p id=\"stim\">DIME</p>", "conditions": [24, 1600, "v", 12000], "internal_node_id": "0.0-98.0", "trial": 3, "time_elapsed": 642944, "serialpos": 17, "key_press": -1, "wordID": 465, "type": "PRES_VIS", "trial_index": 134}, "uniqueid": "MTK3617:3QXNC7EIPJ2MCY9P9UIXP6LYDCO09C", "dateTime": 1520817227564}, {"current_trial": 135, "trialdata": {"rt": -1, "trial_type": "single-stim", "word": "daughter", "stimulus": "<p id=\"stim\">DAUGHTER</p>", "conditions": [24, 1600, "v", 12000], "internal_node_id": "0.0-99.0", "trial": 3, "time_elapsed": 645384, "serialpos": 18, "key_press": -1, "wordID": 441, "type": "PRES_VIS", "trial_index": 135}, "uniqueid": "MTK3617:3QXNC7EIPJ2MCY9P9UIXP6LYDCO09C", "dateTime": 1520817230004}, {"current_trial": 136, "trialdata": {"rt": -1, "trial_type": "single-stim", "word": "mister", "stimulus": "<p id=\"stim\">MISTER</p>", "conditions": [24, 1600, "v", 12000], "internal_node_id": "0.0-100.0", "trial": 3, "time_elapsed": 647874, "serialpos": 19, "key_press": -1, "wordID": 900, "type": "PRES_VIS", "trial_index": 136}, "uniqueid": "MTK3617:3QXNC7EIPJ2MCY9P9UIXP6LYDCO09C", "dateTime": 1520817232494}, {"current_trial": 137, "trialdata": {"rt": -1, "trial_type": "single-stim", "word": "infant", "stimulus": "<p id=\"stim\">INFANT</p>", "conditions": [24, 1600, "v", 12000], "internal_node_id": "0.0-101.0", "trial": 3, "time_elapsed": 650533, "serialpos": 20, "key_press": -1, "wordID": 736, "type": "PRES_VIS", "trial_index": 137}, "uniqueid": "MTK3617:3QXNC7EIPJ2MCY9P9UIXP6LYDCO09C", "dateTime": 1520817235153}, {"current_trial": 138, "trialdata": {"rt": -1, "trial_type": "single-stim", "word": "beast", "stimulus": "<p id=\"stim\">BEAST</p>", "conditions": [24, 1600, "v", 12000], "internal_node_id": "0.0-102.0", "trial": 3, "time_elapsed": 653330, "serialpos": 21, "key_press": -1, "wordID": 107, "type": "PRES_VIS", "trial_index": 138}, "uniqueid": "MTK3617:3QXNC7EIPJ2MCY9P9UIXP6LYDCO09C", "dateTime": 1520817237950}, {"current_trial": 139, "trialdata": {"rt": -1, "trial_type": "single-stim", "word": "monster", "stimulus": "<p id=\"stim\">MONSTER</p>", "conditions": [24, 1600, "v", 12000], "internal_node_id": "0.0-103.0", "trial": 3, "time_elapsed": 656124, "serialpos": 22, "key_press": -1, "wordID": 911, "type": "PRES_VIS", "trial_index": 139}, "uniqueid": "MTK3617:3QXNC7EIPJ2MCY9P9UIXP6LYDCO09C", "dateTime": 1520817240744}, {"current_trial": 140, "trialdata": {"rt": -1, "trial_type": "single-stim", "word": "beef", "stimulus": "<p id=\"stim\">BEEF</p>", "conditions": [24, 1600, "v", 12000], "internal_node_id": "0.0-104.0", "trial": 3, "time_elapsed": 658805, "serialpos": 23, "key_press": -1, "wordID": 112, "type": "PRES_VIS", "trial_index": 140}, "uniqueid": "MTK3617:3QXNC7EIPJ2MCY9P9UIXP6LYDCO09C", "dateTime": 1520817243425}, {"current_trial": 141, "trialdata": {"rt": -1, "trial_type": "single-stim", "stimulus": "", "internal_node_id": "0.0-105.0-0.0", "time_elapsed": 661057, "key_press": -1, "type": "PRE_RECALL_DELAY", "trial_index": 141}, "uniqueid": "MTK3617:3QXNC7EIPJ2MCY9P9UIXP6LYDCO09C", "dateTime": 1520817245677}, {"current_trial": 142, "trialdata": {"rt": -1000, "trial_type": "single-audio", "stimulus": "/static/audio/400Hz.wav", "internal_node_id": "0.0-106.0", "time_elapsed": 661562, "key_press": -1, "type": "PRE_RECALL_ALERT", "trial_index": 142}, "uniqueid": "MTK3617:3QXNC7EIPJ2MCY9P9UIXP6LYDCO09C", "dateTime": 1520817246182}, {"current_trial": 143, "trialdata": {"rt": [8552, 14740, 17678, 21387, 28806, 30819, 39309, 43832], "recwords": ["apple", "handbag", "luggage", "peach", "convict", "robber", "softball", "fireplace"], "key_times": [6005, 6255, 6401, 6490, 6689, 8552, 12461, 12619, 12719, 12877, 13344, 13512, 13859, 14740, 15942, 16141, 16408, 16547, 16678, 16955, 17093, 17678, 20198, 20317, 20565, 20733, 20922, 21387, 26297, 26615, 26922, 27308, 27825, 28251, 28469, 28806, 29183, 29371, 29660, 29828, 29858, 29918, 30819, 35898, 36166, 36375, 36622, 37297, 37435, 38526, 38665, 39309, 41800, 42037, 42107, 42216, 42573, 42693, 42791, 43069, 43190, 43832], "trial_type": "free-recall", "conditions": [24, 1600, "v", 12000], "internal_node_id": "0.0-107.0-0.0", "key_presses": [65, 80, 80, 76, 69, 13, 72, 65, 78, 68, 66, 65, 71, 13, 76, 85, 71, 71, 65, 71, 69, 13, 80, 69, 65, 67, 72, 13, 67, 79, 78, 86, 73, 67, 84, 13, 82, 79, 66, 66, 69, 82, 13, 83, 79, 70, 84, 66, 65, 76, 76, 13, 70, 73, 82, 69, 80, 76, 65, 67, 69, 13], "trial": 3, "time_elapsed": 721566, "type": "FREE_RECALL", "trial_index": 143}, "uniqueid": "MTK3617:3QXNC7EIPJ2MCY9P9UIXP6LYDCO09C", "dateTime": 1520817306190}, {"current_trial": 144, "trialdata": {"rt": 1742, "trial_type": "text", "internal_node_id": "0.0-108.0", "time_elapsed": 725312, "key_press": 13, "type": "INSTRUCTIONS", "trial_index": 144}, "uniqueid": "MTK3617:3QXNC7EIPJ2MCY9P9UIXP6LYDCO09C", "dateTime": 1520817309932}, {"current_trial": 145, "trialdata": {"rt": [2011, 4116, 6955, 9227], "trial_type": "math-distractor", "key_times": [1636, 1804, 2011, 3317, 3868, 4116, 6588, 6692, 6955, 8812, 8981, 9227, 11636, 11756], "responses": ["14", "18", "12", "23"], "num2": [8, 2, 2, 6, 9], "num3": [2, 8, 5, 9, 5], "conditions": [24, 800, "v", 12000], "internal_node_id": "0.0-109.0", "key_presses": [97, 100, 13, 97, 104, 13, 97, 98, 13, 98, 99, 13, 98, 97], "trial": 4, "time_elapsed": 739316, "type": "DISTRACTOR", "trial_index": 145, "num1": [4, 8, 5, 9, 7]}, "uniqueid": "MTK3617:3QXNC7EIPJ2MCY9P9UIXP6LYDCO09C", "dateTime": 1520817323936}, {"current_trial": 146, "trialdata": {"rt": -1, "trial_type": "single-stim", "stimulus": "<p id=\"stim\">10</p>", "internal_node_id": "0.0-110.0-0.0", "time_elapsed": 742319, "key_press": -1, "trial_index": 146}, "uniqueid": "MTK3617:3QXNC7EIPJ2MCY9P9UIXP6LYDCO09C", "dateTime": 1520817326939}, {"current_trial": 147, "trialdata": {"rt": -1, "trial_type": "single-stim", "stimulus": "<p id=\"stim\">9</p>", "internal_node_id": "0.0-110.0-1.0", "time_elapsed": 743320, "key_press": -1, "trial_index": 147}, "uniqueid": "MTK3617:3QXNC7EIPJ2MCY9P9UIXP6LYDCO09C", "dateTime": 1520817327941}, {"current_trial": 148, "trialdata": {"rt": -1, "trial_type": "single-stim", "stimulus": "<p id=\"stim\">8</p>", "internal_node_id": "0.0-110.0-2.0", "time_elapsed": 744322, "key_press": -1, "trial_index": 148}, "uniqueid": "MTK3617:3QXNC7EIPJ2MCY9P9UIXP6LYDCO09C", "dateTime": 1520817328942}, {"current_trial": 149, "trialdata": {"rt": -1, "trial_type": "single-stim", "stimulus": "<p id=\"stim\">7</p>", "internal_node_id": "0.0-110.0-3.0", "time_elapsed": 745324, "key_press": -1, "trial_index": 149}, "uniqueid": "MTK3617:3QXNC7EIPJ2MCY9P9UIXP6LYDCO09C", "dateTime": 1520817329944}, {"current_trial": 150, "trialdata": {"rt": -1, "trial_type": "single-stim", "stimulus": "<p id=\"stim\">6</p>", "internal_node_id": "0.0-110.0-4.0", "time_elapsed": 746326, "key_press": -1, "trial_index": 150}, "uniqueid": "MTK3617:3QXNC7EIPJ2MCY9P9UIXP6LYDCO09C", "dateTime": 1520817330946}, {"current_trial": 151, "trialdata": {"rt": -1, "trial_type": "single-stim", "stimulus": "<p id=\"stim\">5</p>", "internal_node_id": "0.0-110.0-5.0", "time_elapsed": 747329, "key_press": -1, "trial_index": 151}, "uniqueid": "MTK3617:3QXNC7EIPJ2MCY9P9UIXP6LYDCO09C", "dateTime": 1520817331949}, {"current_trial": 152, "trialdata": {"rt": -1, "trial_type": "single-stim", "stimulus": "<p id=\"stim\">4</p>", "internal_node_id": "0.0-110.0-6.0", "time_elapsed": 748330, "key_press": -1, "trial_index": 152}, "uniqueid": "MTK3617:3QXNC7EIPJ2MCY9P9UIXP6LYDCO09C", "dateTime": 1520817332950}, {"current_trial": 153, "trialdata": {"rt": -1, "trial_type": "single-stim", "stimulus": "<p id=\"stim\">3</p>", "internal_node_id": "0.0-110.0-7.0", "time_elapsed": 749333, "key_press": -1, "trial_index": 153}, "uniqueid": "MTK3617:3QXNC7EIPJ2MCY9P9UIXP6LYDCO09C", "dateTime": 1520817333953}, {"current_trial": 154, "trialdata": {"rt": -1, "trial_type": "single-stim", "stimulus": "<p id=\"stim\">2</p>", "internal_node_id": "0.0-110.0-8.0", "time_elapsed": 750335, "key_press": -1, "trial_index": 154}, "uniqueid": "MTK3617:3QXNC7EIPJ2MCY9P9UIXP6LYDCO09C", "dateTime": 1520817334955}, {"current_trial": 155, "trialdata": {"rt": -1, "trial_type": "single-stim", "stimulus": "<p id=\"stim\">1</p>", "internal_node_id": "0.0-110.0-9.0", "time_elapsed": 751336, "key_press": -1, "trial_index": 155}, "uniqueid": "MTK3617:3QXNC7EIPJ2MCY9P9UIXP6LYDCO09C", "dateTime": 1520817335956}, {"current_trial": 156, "trialdata": {"rt": -1, "trial_type": "single-stim", "stimulus": "<p id=\"stim\">+</p>", "internal_node_id": "0.0-111.0-0.0", "time_elapsed": 752838, "key_press": -1, "type": "FIXATION", "trial_index": 156}, "uniqueid": "MTK3617:3QXNC7EIPJ2MCY9P9UIXP6LYDCO09C", "dateTime": 1520817337458}, {"current_trial": 157, "trialdata": {"rt": -1, "trial_type": "single-stim", "word": "penguin", "stimulus": "<p id=\"stim\">PENGUIN</p>", "conditions": [24, 800, "v", 12000], "internal_node_id": "0.0-112.0", "trial": 4, "time_elapsed": 753641, "serialpos": 0, "key_press": -1, "wordID": 1043, "type": "PRES_VIS", "trial_index": 157}, "uniqueid": "MTK3617:3QXNC7EIPJ2MCY9P9UIXP6LYDCO09C", "dateTime": 1520817338261}, {"current_trial": 158, "trialdata": {"rt": -1, "trial_type": "single-stim", "word": "lava", "stimulus": "<p id=\"stim\">LAVA</p>", "conditions": [24, 800, "v", 12000], "internal_node_id": "0.0-113.0", "trial": 4, "time_elapsed": 755522, "serialpos": 1, "key_press": -1, "wordID": 803, "type": "PRES_VIS", "trial_index": 158}, "uniqueid": "MTK3617:3QXNC7EIPJ2MCY9P9UIXP6LYDCO09C", "dateTime": 1520817340142}, {"current_trial": 159, "trialdata": {"rt": -1, "trial_type": "single-stim", "word": "stove", "stimulus": "<p id=\"stim\">STOVE</p>", "conditions": [24, 800, "v", 12000], "internal_node_id": "0.0-114.0", "trial": 4, "time_elapsed": 757322, "serialpos": 2, "key_press": -1, "wordID": 1387, "type": "PRES_VIS", "trial_index": 159}, "uniqueid": "MTK3617:3QXNC7EIPJ2MCY9P9UIXP6LYDCO09C", "dateTime": 1520817341942}, {"current_trial": 160, "trialdata": {"rt": -1, "trial_type": "single-stim", "word": "toaster", "stimulus": "<p id=\"stim\">TOASTER</p>", "conditions": [24, 800, "v", 12000], "internal_node_id": "0.0-115.0", "trial": 4, "time_elapsed": 759122, "serialpos": 3, "key_press": -1, "wordID": 1471, "type": "PRES_VIS", "trial_index": 160}, "uniqueid": "MTK3617:3QXNC7EIPJ2MCY9P9UIXP6LYDCO09C", "dateTime": 1520817343743}, {"current_trial": 161, "trialdata": {"rt": -1, "trial_type": "single-stim", "word": "crater", "stimulus": "<p id=\"stim\">CRATER</p>", "conditions": [24, 800, "v", 12000], "internal_node_id": "0.0-116.0", "trial": 4, "time_elapsed": 761048, "serialpos": 4, "key_press": -1, "wordID": 399, "type": "PRES_VIS", "trial_index": 161}, "uniqueid": "MTK3617:3QXNC7EIPJ2MCY9P9UIXP6LYDCO09C", "dateTime": 1520817345668}, {"current_trial": 162, "trialdata": {"rt": -1, "trial_type": "single-stim", "word": "perfume", "stimulus": "<p id=\"stim\">PERFUME</p>", "conditions": [24, 800, "v", 12000], "internal_node_id": "0.0-117.0", "trial": 4, "time_elapsed": 762861, "serialpos": 5, "key_press": -1, "wordID": 1048, "type": "PRES_VIS", "trial_index": 162}, "uniqueid": "MTK3617:3QXNC7EIPJ2MCY9P9UIXP6LYDCO09C", "dateTime": 1520817347481}, {"current_trial": 163, "trialdata": {"rt": -1, "trial_type": "single-stim", "word": "marine", "stimulus": "<p id=\"stim\">MARINE</p>", "conditions": [24, 800, "v", 12000], "internal_node_id": "0.0-118.0", "trial": 4, "time_elapsed": 764773, "serialpos": 6, "key_press": -1, "wordID": 868, "type": "PRES_VIS", "trial_index": 163}, "uniqueid": "MTK3617:3QXNC7EIPJ2MCY9P9UIXP6LYDCO09C", "dateTime": 1520817349393}, {"current_trial": 164, "trialdata": {"rt": -1, "trial_type": "single-stim", "word": "gangster", "stimulus": "<p id=\"stim\">GANGSTER</p>", "conditions": [24, 800, "v", 12000], "internal_node_id": "0.0-119.0", "trial": 4, "time_elapsed": 766650, "serialpos": 7, "key_press": -1, "wordID": 619, "type": "PRES_VIS", "trial_index": 164}, "uniqueid": "MTK3617:3QXNC7EIPJ2MCY9P9UIXP6LYDCO09C", "dateTime": 1520817351270}, {"current_trial": 165, "trialdata": {"rt": -1, "trial_type": "single-stim", "word": "compass", "stimulus": "<p id=\"stim\">COMPASS</p>", "conditions": [24, 800, "v", 12000], "internal_node_id": "0.0-120.0", "trial": 4, "time_elapsed": 768647, "serialpos": 8, "key_press": -1, "wordID": 357, "type": "PRES_VIS", "trial_index": 165}, "uniqueid": "MTK3617:3QXNC7EIPJ2MCY9P9UIXP6LYDCO09C", "dateTime": 1520817353268}, {"current_trial": 166, "trialdata": {"rt": -1, "trial_type": "single-stim", "word": "knapsack", "stimulus": "<p id=\"stim\">KNAPSACK</p>", "conditions": [24, 800, "v", 12000], "internal_node_id": "0.0-121.0", "trial": 4, "time_elapsed": 770553, "serialpos": 9, "key_press": -1, "wordID": 782, "type": "PRES_VIS", "trial_index": 166}, "uniqueid": "MTK3617:3QXNC7EIPJ2MCY9P9UIXP6LYDCO09C", "dateTime": 1520817355173}, {"current_trial": 167, "trialdata": {"rt": -1, "trial_type": "single-stim", "word": "shelf", "stimulus": "<p id=\"stim\">SHELF</p>", "conditions": [24, 800, "v", 12000], "internal_node_id": "0.0-122.0", "trial": 4, "time_elapsed": 772354, "serialpos": 10, "key_press": -1, "wordID": 1279, "type": "PRES_VIS", "trial_index": 167}, "uniqueid": "MTK3617:3QXNC7EIPJ2MCY9P9UIXP6LYDCO09C", "dateTime": 1520817356974}, {"current_trial": 168, "trialdata": {"rt": -1, "trial_type": "single-stim", "word": "lumber", "stimulus": "<p id=\"stim\">LUMBER</p>", "conditions": [24, 800, "v", 12000], "internal_node_id": "0.0-123.0", "trial": 4, "time_elapsed": 774112, "serialpos": 11, "key_press": -1, "wordID": 847, "type": "PRES_VIS", "trial_index": 168}, "uniqueid": "MTK3617:3QXNC7EIPJ2MCY9P9UIXP6LYDCO09C", "dateTime": 1520817358732}, {"current_trial": 169, "trialdata": {"rt": -1, "trial_type": "single-stim", "word": "doughnut", "stimulus": "<p id=\"stim\">DOUGHNUT</p>", "conditions": [24, 800, "v", 12000], "internal_node_id": "0.0-124.0", "trial": 4, "time_elapsed": 776015, "serialpos": 12, "key_press": -1, "wordID": 489, "type": "PRES_VIS", "trial_index": 169}, "uniqueid": "MTK3617:3QXNC7EIPJ2MCY9P9UIXP6LYDCO09C", "dateTime": 1520817360635}, {"current_trial": 170, "trialdata": {"rt": -1, "trial_type": "single-stim", "word": "picture", "stimulus": "<p id=\"stim\">PICTURE</p>", "conditions": [24, 800, "v", 12000], "internal_node_id": "0.0-125.0", "trial": 4, "time_elapsed": 777753, "serialpos": 13, "key_press": -1, "wordID": 1060, "type": "PRES_VIS", "trial_index": 170}, "uniqueid": "MTK3617:3QXNC7EIPJ2MCY9P9UIXP6LYDCO09C", "dateTime": 1520817362373}, {"current_trial": 171, "trialdata": {"rt": -1, "trial_type": "single-stim", "word": "body", "stimulus": "<p id=\"stim\">BODY</p>", "conditions": [24, 800, "v", 12000], "internal_node_id": "0.0-126.0", "trial": 4, "time_elapsed": 779471, "serialpos": 14, "key_press": -1, "wordID": 144, "type": "PRES_VIS", "trial_index": 171}, "uniqueid": "MTK3617:3QXNC7EIPJ2MCY9P9UIXP6LYDCO09C", "dateTime": 1520817364091}, {"current_trial": 172, "trialdata": {"rt": -1, "trial_type": "single-stim", "word": "freckle", "stimulus": "<p id=\"stim\">FRECKLE</p>", "conditions": [24, 800, "v", 12000], "internal_node_id": "0.0-127.0", "trial": 4, "time_elapsed": 781450, "serialpos": 15, "key_press": -1, "wordID": 601, "type": "PRES_VIS", "trial_index": 172}, "uniqueid": "MTK3617:3QXNC7EIPJ2MCY9P9UIXP6LYDCO09C", "dateTime": 1520817366070}, {"current_trial": 173, "trialdata": {"rt": -1, "trial_type": "single-stim", "word": "pimple", "stimulus": "<p id=\"stim\">PIMPLE</p>", "conditions": [24, 800, "v", 12000], "internal_node_id": "0.0-128.0", "trial": 4, "time_elapsed": 783360, "serialpos": 16, "key_press": -1, "wordID": 1070, "type": "PRES_VIS", "trial_index": 173}, "uniqueid": "MTK3617:3QXNC7EIPJ2MCY9P9UIXP6LYDCO09C", "dateTime": 1520817367980}, {"current_trial": 174, "trialdata": {"rt": -1, "trial_type": "single-stim", "word": "snack", "stimulus": "<p id=\"stim\">SNACK</p>", "conditions": [24, 800, "v", 12000], "internal_node_id": "0.0-129.0", "trial": 4, "time_elapsed": 785061, "serialpos": 17, "key_press": -1, "wordID": 1330, "type": "PRES_VIS", "trial_index": 174}, "uniqueid": "MTK3617:3QXNC7EIPJ2MCY9P9UIXP6LYDCO09C", "dateTime": 1520817369681}, {"current_trial": 175, "trialdata": {"rt": -1, "trial_type": "single-stim", "word": "report", "stimulus": "<p id=\"stim\">REPORT</p>", "conditions": [24, 800, "v", 12000], "internal_node_id": "0.0-130.0", "trial": 4, "time_elapsed": 786918, "serialpos": 18, "key_press": -1, "wordID": 1183, "type": "PRES_VIS", "trial_index": 175}, "uniqueid": "MTK3617:3QXNC7EIPJ2MCY9P9UIXP6LYDCO09C", "dateTime": 1520817371538}, {"current_trial": 176, "trialdata": {"rt": -1, "trial_type": "single-stim", "word": "trout", "stimulus": "<p id=\"stim\">TROUT</p>", "conditions": [24, 800, "v", 12000], "internal_node_id": "0.0-131.0", "trial": 4, "time_elapsed": 788702, "serialpos": 19, "key_press": -1, "wordID": 1510, "type": "PRES_VIS", "trial_index": 176}, "uniqueid": "MTK3617:3QXNC7EIPJ2MCY9P9UIXP6LYDCO09C", "dateTime": 1520817373322}, {"current_trial": 177, "trialdata": {"rt": -1, "trial_type": "single-stim", "word": "film", "stimulus": "<p id=\"stim\">FILM</p>", "conditions": [24, 800, "v", 12000], "internal_node_id": "0.0-132.0", "trial": 4, "time_elapsed": 790320, "serialpos": 20, "key_press": -1, "wordID": 564, "type": "PRES_VIS", "trial_index": 177}, "uniqueid": "MTK3617:3QXNC7EIPJ2MCY9P9UIXP6LYDCO09C", "dateTime": 1520817374940}, {"current_trial": 178, "trialdata": {"rt": -1, "trial_type": "single-stim", "word": "tablet", "stimulus": "<p id=\"stim\">TABLET</p>", "conditions": [24, 800, "v", 12000], "internal_node_id": "0.0-133.0", "trial": 4, "time_elapsed": 792006, "serialpos": 21, "key_press": -1, "wordID": 1426, "type": "PRES_VIS", "trial_index": 178}, "uniqueid": "MTK3617:3QXNC7EIPJ2MCY9P9UIXP6LYDCO09C", "dateTime": 1520817376626}, {"current_trial": 179, "trialdata": {"rt": -1, "trial_type": "single-stim", "word": "globe", "stimulus": "<p id=\"stim\">GLOBE</p>", "conditions": [24, 800, "v", 12000], "internal_node_id": "0.0-134.0", "trial": 4, "time_elapsed": 793759, "serialpos": 22, "key_press": -1, "wordID": 640, "type": "PRES_VIS", "trial_index": 179}, "uniqueid": "MTK3617:3QXNC7EIPJ2MCY9P9UIXP6LYDCO09C", "dateTime": 1520817378379}, {"current_trial": 180, "trialdata": {"rt": -1, "trial_type": "single-stim", "word": "country", "stimulus": "<p id=\"stim\">COUNTRY</p>", "conditions": [24, 800, "v", 12000], "internal_node_id": "0.0-135.0", "trial": 4, "time_elapsed": 795364, "serialpos": 23, "key_press": -1, "wordID": 387, "type": "PRES_VIS", "trial_index": 180}, "uniqueid": "MTK3617:3QXNC7EIPJ2MCY9P9UIXP6LYDCO09C", "dateTime": 1520817379985}, {"current_trial": 181, "trialdata": {"rt": -1, "trial_type": "single-stim", "stimulus": "", "internal_node_id": "0.0-136.0-0.0", "time_elapsed": 797610, "key_press": -1, "type": "PRE_RECALL_DELAY", "trial_index": 181}, "uniqueid": "MTK3617:3QXNC7EIPJ2MCY9P9UIXP6LYDCO09C", "dateTime": 1520817382230}, {"current_trial": 182, "trialdata": {"rt": -1000, "trial_type": "single-audio", "stimulus": "/static/audio/400Hz.wav", "internal_node_id": "0.0-137.0", "time_elapsed": 798111, "key_press": -1, "type": "PRE_RECALL_ALERT", "trial_index": 182}, "uniqueid": "MTK3617:3QXNC7EIPJ2MCY9P9UIXP6LYDCO09C", "dateTime": 1520817382733}, {"current_trial": 183, "trialdata": {"rt": [9042, 12832, 15004, 20876, 26551, 28793, 36114, 42155, 46431, 50876, 53266, 58584], "recwords": ["penguin", "stove", "toaster", "furnace", "gangster", "murder", "knapsack", "doughnut", "peach", "pineapple", "trout", "body"], "key_times": [4213, 4380, 4591, 5284, 5987, 6781, 7039, 7445, 7932, 8259, 8378, 9042, 11770, 12207, 12326, 12565, 12674, 12832, 13279, 13467, 13605, 13765, 13933, 14062, 14142, 15004, 18278, 18725, 18893, 19260, 19429, 19617, 19766, 20093, 20235, 20876, 22841, 23040, 23476, 23615, 23883, 24042, 24142, 24647, 25025, 25262, 25424, 25550, 25690, 25798, 26551, 27594, 27832, 28041, 28378, 28537, 28636, 28793, 33576, 33695, 34082, 34221, 34548, 34717, 35084, 35233, 36114, 38298, 38417, 38556, 38833, 38934, 39172, 39548, 40471, 42155, 45302, 45430, 45608, 45777, 45996, 46431, 48843, 49011, 49309, 49458, 49824, 49963, 50103, 50173, 50281, 50876, 51879, 52020, 52196, 52345, 52702, 53266, 56541, 56809, 57169, 57434, 57681, 57822, 58584], "trial_type": "free-recall", "conditions": [24, 800, "v", 12000], "internal_node_id": "0.0-138.0-0.0", "key_presses": [80, 69, 78, 81, 8, 71, 85, 78, 8, 73, 78, 13, 83, 84, 79, 86, 69, 32, 84, 79, 65, 83, 84, 69, 82, 13, 82, 8, 70, 85, 82, 78, 65, 67, 69, 13, 72, 65, 8, 8, 71, 65, 78, 83, 8, 71, 83, 84, 69, 82, 13, 77, 85, 82, 68, 69, 82, 13, 75, 78, 65, 80, 83, 65, 67, 75, 13, 68, 79, 85, 71, 72, 78, 85, 84, 13, 80, 69, 65, 67, 72, 13, 80, 73, 78, 69, 65, 80, 80, 76, 69, 13, 84, 82, 79, 85, 84, 13, 66, 73, 8, 79, 68, 89, 13], "trial": 4, "time_elapsed": 858118, "type": "FREE_RECALL", "trial_index": 183}, "uniqueid": "MTK3617:3QXNC7EIPJ2MCY9P9UIXP6LYDCO09C", "dateTime": 1520817442741}, {"current_trial": 184, "trialdata": {"rt": 1716, "trial_type": "text", "internal_node_id": "0.0-139.0", "time_elapsed": 861838, "key_press": 13, "type": "INSTRUCTIONS", "trial_index": 184}, "uniqueid": "MTK3617:3QXNC7EIPJ2MCY9P9UIXP6LYDCO09C", "dateTime": 1520817446458}, {"current_trial": 185, "trialdata": {"rt": [1724, 4052, 8116, 11820], "trial_type": "math-distractor", "key_times": [1293, 1437, 1724, 3661, 3765, 4052, 5774, 5973, 7382, 7893, 8116, 11365, 11534, 11820], "responses": ["11", "20", "16", "17"], "num2": [4, 7, 9, 2, 3], "num3": [2, 8, 2, 8, 5], "conditions": [24, 1600, "v", 12000], "internal_node_id": "0.0-140.0", "key_presses": [97, 97, 13, 98, 96, 13, 97, 107, 8, 102, 13, 97, 103, 13], "trial": 5, "time_elapsed": 875844, "type": "DISTRACTOR", "trial_index": 185, "num1": [5, 5, 6, 7, 7]}, "uniqueid": "MTK3617:3QXNC7EIPJ2MCY9P9UIXP6LYDCO09C", "dateTime": 1520817460464}, {"current_trial": 186, "trialdata": {"rt": -1, "trial_type": "single-stim", "stimulus": "<p id=\"stim\">10</p>", "internal_node_id": "0.0-141.0-0.0", "time_elapsed": 878848, "key_press": -1, "trial_index": 186}, "uniqueid": "MTK3617:3QXNC7EIPJ2MCY9P9UIXP6LYDCO09C", "dateTime": 1520817463469}, {"current_trial": 187, "trialdata": {"rt": -1, "trial_type": "single-stim", "stimulus": "<p id=\"stim\">9</p>", "internal_node_id": "0.0-141.0-1.0", "time_elapsed": 879850, "key_press": -1, "trial_index": 187}, "uniqueid": "MTK3617:3QXNC7EIPJ2MCY9P9UIXP6LYDCO09C", "dateTime": 1520817464470}, {"current_trial": 188, "trialdata": {"rt": -1, "trial_type": "single-stim", "stimulus": "<p id=\"stim\">8</p>", "internal_node_id": "0.0-141.0-2.0", "time_elapsed": 880852, "key_press": -1, "trial_index": 188}, "uniqueid": "MTK3617:3QXNC7EIPJ2MCY9P9UIXP6LYDCO09C", "dateTime": 1520817465472}, {"current_trial": 189, "trialdata": {"rt": -1, "trial_type": "single-stim", "stimulus": "<p id=\"stim\">7</p>", "internal_node_id": "0.0-141.0-3.0", "time_elapsed": 881854, "key_press": -1, "trial_index": 189}, "uniqueid": "MTK3617:3QXNC7EIPJ2MCY9P9UIXP6LYDCO09C", "dateTime": 1520817466474}, {"current_trial": 190, "trialdata": {"rt": -1, "trial_type": "single-stim", "stimulus": "<p id=\"stim\">6</p>", "internal_node_id": "0.0-141.0-4.0", "time_elapsed": 882856, "key_press": -1, "trial_index": 190}, "uniqueid": "MTK3617:3QXNC7EIPJ2MCY9P9UIXP6LYDCO09C", "dateTime": 1520817467477}, {"current_trial": 191, "trialdata": {"rt": -1, "trial_type": "single-stim", "stimulus": "<p id=\"stim\">5</p>", "internal_node_id": "0.0-141.0-5.0", "time_elapsed": 883858, "key_press": -1, "trial_index": 191}, "uniqueid": "MTK3617:3QXNC7EIPJ2MCY9P9UIXP6LYDCO09C", "dateTime": 1520817468478}, {"current_trial": 192, "trialdata": {"rt": -1, "trial_type": "single-stim", "stimulus": "<p id=\"stim\">4</p>", "internal_node_id": "0.0-141.0-6.0", "time_elapsed": 884860, "key_press": -1, "trial_index": 192}, "uniqueid": "MTK3617:3QXNC7EIPJ2MCY9P9UIXP6LYDCO09C", "dateTime": 1520817469480}, {"current_trial": 193, "trialdata": {"rt": -1, "trial_type": "single-stim", "stimulus": "<p id=\"stim\">3</p>", "internal_node_id": "0.0-141.0-7.0", "time_elapsed": 885862, "key_press": -1, "trial_index": 193}, "uniqueid": "MTK3617:3QXNC7EIPJ2MCY9P9UIXP6LYDCO09C", "dateTime": 1520817470482}, {"current_trial": 194, "trialdata": {"rt": -1, "trial_type": "single-stim", "stimulus": "<p id=\"stim\">2</p>", "internal_node_id": "0.0-141.0-8.0", "time_elapsed": 886863, "key_press": -1, "trial_index": 194}, "uniqueid": "MTK3617:3QXNC7EIPJ2MCY9P9UIXP6LYDCO09C", "dateTime": 1520817471484}, {"current_trial": 195, "trialdata": {"rt": -1, "trial_type": "single-stim", "stimulus": "<p id=\"stim\">1</p>", "internal_node_id": "0.0-141.0-9.0", "time_elapsed": 887865, "key_press": -1, "trial_index": 195}, "uniqueid": "MTK3617:3QXNC7EIPJ2MCY9P9UIXP6LYDCO09C", "dateTime": 1520817472486}, {"current_trial": 196, "trialdata": {"rt": -1, "trial_type": "single-stim", "stimulus": "<p id=\"stim\">+</p>", "internal_node_id": "0.0-142.0-0.0", "time_elapsed": 889367, "key_press": -1, "type": "FIXATION", "trial_index": 196}, "uniqueid": "MTK3617:3QXNC7EIPJ2MCY9P9UIXP6LYDCO09C", "dateTime": 1520817473987}, {"current_trial": 197, "trialdata": {"rt": -1, "trial_type": "single-stim", "word": "mammal", "stimulus": "<p id=\"stim\">MAMMAL</p>", "conditions": [24, 1600, "v", 12000], "internal_node_id": "0.0-143.0", "trial": 5, "time_elapsed": 890970, "serialpos": 0, "key_press": -1, "wordID": 860, "type": "PRES_VIS", "trial_index": 197}, "uniqueid": "MTK3617:3QXNC7EIPJ2MCY9P9UIXP6LYDCO09C", "dateTime": 1520817475590}, {"current_trial": 198, "trialdata": {"rt": -1, "trial_type": "single-stim", "word": "primate", "stimulus": "<p id=\"stim\">PRIMATE</p>", "conditions": [24, 1600, "v", 12000], "internal_node_id": "0.0-144.0", "trial": 5, "time_elapsed": 893382, "serialpos": 1, "key_press": -1, "wordID": 1122, "type": "PRES_VIS", "trial_index": 198}, "uniqueid": "MTK3617:3QXNC7EIPJ2MCY9P9UIXP6LYDCO09C", "dateTime": 1520817478002}, {"current_trial": 199, "trialdata": {"rt": -1, "trial_type": "single-stim", "word": "stomach", "stimulus": "<p id=\"stim\">STOMACH</p>", "conditions": [24, 1600, "v", 12000], "internal_node_id": "0.0-145.0", "trial": 5, "time_elapsed": 896073, "serialpos": 2, "key_press": -1, "wordID": 1383, "type": "PRES_VIS", "trial_index": 199}, "uniqueid": "MTK3617:3QXNC7EIPJ2MCY9P9UIXP6LYDCO09C", "dateTime": 1520817480693}, {"current_trial": 200, "trialdata": {"rt": -1, "trial_type": "single-stim", "word": "radish", "stimulus": "<p id=\"stim\">RADISH</p>", "conditions": [24, 1600, "v", 12000], "internal_node_id": "0.0-146.0", "trial": 5, "time_elapsed": 898485, "serialpos": 3, "key_press": -1, "wordID": 1157, "type": "PRES_VIS", "trial_index": 200}, "uniqueid": "MTK3617:3QXNC7EIPJ2MCY9P9UIXP6LYDCO09C", "dateTime": 1520817483105}, {"current_trial": 201, "trialdata": {"rt": -1, "trial_type": "single-stim", "word": "sandwich", "stimulus": "<p id=\"stim\">SANDWICH</p>", "conditions": [24, 1600, "v", 12000], "internal_node_id": "0.0-147.0", "trial": 5, "time_elapsed": 901050, "serialpos": 4, "key_press": -1, "wordID": 1231, "type": "PRES_VIS", "trial_index": 201}, "uniqueid": "MTK3617:3QXNC7EIPJ2MCY9P9UIXP6LYDCO09C", "dateTime": 1520817485670}, {"current_trial": 202, "trialdata": {"rt": -1, "trial_type": "single-stim", "word": "chest", "stimulus": "<p id=\"stim\">CHEST</p>", "conditions": [24, 1600, "v", 12000], "internal_node_id": "0.0-148.0", "trial": 5, "time_elapsed": 903485, "serialpos": 5, "key_press": -1, "wordID": 294, "type": "PRES_VIS", "trial_index": 202}, "uniqueid": "MTK3617:3QXNC7EIPJ2MCY9P9UIXP6LYDCO09C", "dateTime": 1520817488105}, {"current_trial": 203, "trialdata": {"rt": -1, "trial_type": "single-stim", "word": "scarecrow", "stimulus": "<p id=\"stim\">SCARECROW</p>", "conditions": [24, 1600, "v", 12000], "internal_node_id": "0.0-149.0", "trial": 5, "time_elapsed": 906252, "serialpos": 6, "key_press": -1, "wordID": 1244, "type": "PRES_VIS", "trial_index": 203}, "uniqueid": "MTK3617:3QXNC7EIPJ2MCY9P9UIXP6LYDCO09C", "dateTime": 1520817490873}, {"current_trial": 204, "trialdata": {"rt": -1, "trial_type": "single-stim", "word": "shortcake", "stimulus": "<p id=\"stim\">SHORTCAKE</p>", "conditions": [24, 1600, "v", 12000], "internal_node_id": "0.0-150.0", "trial": 5, "time_elapsed": 908758, "serialpos": 7, "key_press": -1, "wordID": 1291, "type": "PRES_VIS", "trial_index": 204}, "uniqueid": "MTK3617:3QXNC7EIPJ2MCY9P9UIXP6LYDCO09C", "dateTime": 1520817493379}, {"current_trial": 205, "trialdata": {"rt": -1, "trial_type": "single-stim", "word": "ox", "stimulus": "<p id=\"stim\">OX</p>", "conditions": [24, 1600, "v", 12000], "internal_node_id": "0.0-151.0", "trial": 5, "time_elapsed": 911402, "serialpos": 8, "key_press": -1, "wordID": 993, "type": "PRES_VIS", "trial_index": 205}, "uniqueid": "MTK3617:3QXNC7EIPJ2MCY9P9UIXP6LYDCO09C", "dateTime": 1520817496023}, {"current_trial": 206, "trialdata": {"rt": -1, "trial_type": "single-stim", "word": "bucket", "stimulus": "<p id=\"stim\">BUCKET</p>", "conditions": [24, 1600, "v", 12000], "internal_node_id": "0.0-152.0", "trial": 5, "time_elapsed": 914011, "serialpos": 9, "key_press": -1, "wordID": 183, "type": "PRES_VIS", "trial_index": 206}, "uniqueid": "MTK3617:3QXNC7EIPJ2MCY9P9UIXP6LYDCO09C", "dateTime": 1520817498632}, {"current_trial": 207, "trialdata": {"rt": -1, "trial_type": "single-stim", "word": "cottage", "stimulus": "<p id=\"stim\">COTTAGE</p>", "conditions": [24, 1600, "v", 12000], "internal_node_id": "0.0-153.0", "trial": 5, "time_elapsed": 916520, "serialpos": 10, "key_press": -1, "wordID": 383, "type": "PRES_VIS", "trial_index": 207}, "uniqueid": "MTK3617:3QXNC7EIPJ2MCY9P9UIXP6LYDCO09C", "dateTime": 1520817501141}, {"current_trial": 208, "trialdata": {"rt": -1, "trial_type": "single-stim", "word": "cattle", "stimulus": "<p id=\"stim\">CATTLE</p>", "conditions": [24, 1600, "v", 12000], "internal_node_id": "0.0-154.0", "trial": 5, "time_elapsed": 919021, "serialpos": 11, "key_press": -1, "wordID": 260, "type": "PRES_VIS", "trial_index": 208}, "uniqueid": "MTK3617:3QXNC7EIPJ2MCY9P9UIXP6LYDCO09C", "dateTime": 1520817503641}, {"current_trial": 209, "trialdata": {"rt": -1, "trial_type": "single-stim", "word": "marsh", "stimulus": "<p id=\"stim\">MARSH</p>", "conditions": [24, 1600, "v", 12000], "internal_node_id": "0.0-155.0", "trial": 5, "time_elapsed": 921599, "serialpos": 12, "key_press": -1, "wordID": 873, "type": "PRES_VIS", "trial_index": 209}, "uniqueid": "MTK3617:3QXNC7EIPJ2MCY9P9UIXP6LYDCO09C", "dateTime": 1520817506219}, {"current_trial": 210, "trialdata": {"rt": -1, "trial_type": "single-stim", "word": "nurse", "stimulus": "<p id=\"stim\">NURSE</p>", "conditions": [24, 1600, "v", 12000], "internal_node_id": "0.0-156.0", "trial": 5, "time_elapsed": 924321, "serialpos": 13, "key_press": -1, "wordID": 962, "type": "PRES_VIS", "trial_index": 210}, "uniqueid": "MTK3617:3QXNC7EIPJ2MCY9P9UIXP6LYDCO09C", "dateTime": 1520817508941}, {"current_trial": 211, "trialdata": {"rt": -1, "trial_type": "single-stim", "word": "onion", "stimulus": "<p id=\"stim\">ONION</p>", "conditions": [24, 1600, "v", 12000], "internal_node_id": "0.0-157.0", "trial": 5, "time_elapsed": 927002, "serialpos": 14, "key_press": -1, "wordID": 976, "type": "PRES_VIS", "trial_index": 211}, "uniqueid": "MTK3617:3QXNC7EIPJ2MCY9P9UIXP6LYDCO09C", "dateTime": 1520817511622}, {"current_trial": 212, "trialdata": {"rt": -1, "trial_type": "single-stim", "word": "box", "stimulus": "<p id=\"stim\">BOX</p>", "conditions": [24, 1600, "v", 12000], "internal_node_id": "0.0-158.0", "trial": 5, "time_elapsed": 929770, "serialpos": 15, "key_press": -1, "wordID": 158, "type": "PRES_VIS", "trial_index": 212}, "uniqueid": "MTK3617:3QXNC7EIPJ2MCY9P9UIXP6LYDCO09C", "dateTime": 1520817514390}, {"current_trial": 213, "trialdata": {"rt": -1, "trial_type": "single-stim", "word": "bubble", "stimulus": "<p id=\"stim\">BUBBLE</p>", "conditions": [24, 1600, "v", 12000], "internal_node_id": "0.0-159.0", "trial": 5, "time_elapsed": 932526, "serialpos": 16, "key_press": -1, "wordID": 182, "type": "PRES_VIS", "trial_index": 213}, "uniqueid": "MTK3617:3QXNC7EIPJ2MCY9P9UIXP6LYDCO09C", "dateTime": 1520817517147}, {"current_trial": 214, "trialdata": {"rt": -1, "trial_type": "single-stim", "word": "slide", "stimulus": "<p id=\"stim\">SLIDE</p>", "conditions": [24, 1600, "v", 12000], "internal_node_id": "0.0-160.0", "trial": 5, "time_elapsed": 935318, "serialpos": 17, "key_press": -1, "wordID": 1325, "type": "PRES_VIS", "trial_index": 214}, "uniqueid": "MTK3617:3QXNC7EIPJ2MCY9P9UIXP6LYDCO09C", "dateTime": 1520817519938}, {"current_trial": 215, "trialdata": {"rt": -1, "trial_type": "single-stim", "word": "bunny", "stimulus": "<p id=\"stim\">BUNNY</p>", "conditions": [24, 1600, "v", 12000], "internal_node_id": "0.0-161.0", "trial": 5, "time_elapsed": 937882, "serialpos": 18, "key_press": -1, "wordID": 197, "type": "PRES_VIS", "trial_index": 215}, "uniqueid": "MTK3617:3QXNC7EIPJ2MCY9P9UIXP6LYDCO09C", "dateTime": 1520817522502}, {"current_trial": 216, "trialdata": {"rt": -1, "trial_type": "single-stim", "word": "lizard", "stimulus": "<p id=\"stim\">LIZARD</p>", "conditions": [24, 1600, "v", 12000], "internal_node_id": "0.0-162.0", "trial": 5, "time_elapsed": 940551, "serialpos": 19, "key_press": -1, "wordID": 833, "type": "PRES_VIS", "trial_index": 216}, "uniqueid": "MTK3617:3QXNC7EIPJ2MCY9P9UIXP6LYDCO09C", "dateTime": 1520817525171}, {"current_trial": 217, "trialdata": {"rt": -1, "trial_type": "single-stim", "word": "tortoise", "stimulus": "<p id=\"stim\">TORTOISE</p>", "conditions": [24, 1600, "v", 12000], "internal_node_id": "0.0-163.0", "trial": 5, "time_elapsed": 943263, "serialpos": 20, "key_press": -1, "wordID": 1485, "type": "PRES_VIS", "trial_index": 217}, "uniqueid": "MTK3617:3QXNC7EIPJ2MCY9P9UIXP6LYDCO09C", "dateTime": 1520817527883}, {"current_trial": 218, "trialdata": {"rt": -1, "trial_type": "single-stim", "word": "cocoon", "stimulus": "<p id=\"stim\">COCOON</p>", "conditions": [24, 1600, "v", 12000], "internal_node_id": "0.0-164.0", "trial": 5, "time_elapsed": 945765, "serialpos": 21, "key_press": -1, "wordID": 338, "type": "PRES_VIS", "trial_index": 218}, "uniqueid": "MTK3617:3QXNC7EIPJ2MCY9P9UIXP6LYDCO09C", "dateTime": 1520817530385}, {"current_trial": 219, "trialdata": {"rt": -1, "trial_type": "single-stim", "word": "mustard", "stimulus": "<p id=\"stim\">MUSTARD</p>", "conditions": [24, 1600, "v", 12000], "internal_node_id": "0.0-165.0", "trial": 5, "time_elapsed": 948257, "serialpos": 22, "key_press": -1, "wordID": 934, "type": "PRES_VIS", "trial_index": 219}, "uniqueid": "MTK3617:3QXNC7EIPJ2MCY9P9UIXP6LYDCO09C", "dateTime": 1520817532877}, {"current_trial": 220, "trialdata": {"rt": -1, "trial_type": "single-stim", "word": "chipmunk", "stimulus": "<p id=\"stim\">CHIPMUNK</p>", "conditions": [24, 1600, "v", 12000], "internal_node_id": "0.0-166.0", "trial": 5, "time_elapsed": 950743, "serialpos": 23, "key_press": -1, "wordID": 303, "type": "PRES_VIS", "trial_index": 220}, "uniqueid": "MTK3617:3QXNC7EIPJ2MCY9P9UIXP6LYDCO09C", "dateTime": 1520817535363}, {"current_trial": 221, "trialdata": {"rt": -1, "trial_type": "single-stim", "stimulus": "", "internal_node_id": "0.0-167.0-0.0", "time_elapsed": 953079, "key_press": -1, "type": "PRE_RECALL_DELAY", "trial_index": 221}, "uniqueid": "MTK3617:3QXNC7EIPJ2MCY9P9UIXP6LYDCO09C", "dateTime": 1520817537699}, {"current_trial": 222, "trialdata": {"rt": -1000, "trial_type": "single-audio", "stimulus": "/static/audio/400Hz.wav", "internal_node_id": "0.0-168.0", "time_elapsed": 953587, "key_press": -1, "type": "PRE_RECALL_ALERT", "trial_index": 222}, "uniqueid": "MTK3617:3QXNC7EIPJ2MCY9P9UIXP6LYDCO09C", "dateTime": 1520817538207}, {"current_trial": 223, "trialdata": {"rt": [5772, 11914, 16437, 20396, 25922, 31240, 34107, 40079, 43214, 48780, 52143, 56131, 59286], "recwords": ["manual", "stomach", "radish", "sandwich", "ox", "cottahe", "cattle", "onion", "box", "bunny", "tortoise", "lizard", "chipmunk"], "key_times": [4406, 4534, 4612, 4782, 4931, 5060, 5772, 8850, 9097, 9395, 9524, 9731, 10049, 10695, 10873, 11607, 11914, 13938, 14177, 14623, 14871, 15010, 15387, 16437, 17887, 17986, 18194, 18354, 18753, 19127, 20040, 20148, 20396, 25060, 25317, 25922, 27897, 28066, 28483, 29138, 29514, 30120, 30278, 30397, 30606, 31240, 32411, 32580, 32917, 33146, 33393, 33552, 34107, 38596, 38791, 39098, 39228, 39396, 40079, 42124, 42292, 43057, 43214, 46588, 46787, 46996, 47174, 47353, 48780, 49098, 49296, 49485, 50500, 50646, 51320, 51529, 51687, 51836, 51998, 52143, 54406, 54555, 55011, 55142, 55461, 55666, 56131, 56499, 56698, 56897, 57085, 57432, 58305, 58414, 58643, 59286], "trial_type": "free-recall", "conditions": [24, 1600, "v", 12000], "internal_node_id": "0.0-169.0-0.0", "key_presses": [77, 65, 78, 85, 65, 76, 13, 83, 84, 79, 77, 65, 67, 72, 69, 8, 13, 82, 65, 68, 73, 83, 72, 13, 83, 65, 78, 68, 87, 73, 67, 72, 13, 79, 88, 13, 67, 79, 84, 65, 8, 84, 65, 72, 69, 13, 67, 65, 84, 84, 76, 69, 13, 79, 78, 73, 79, 78, 13, 66, 79, 88, 13, 66, 85, 78, 78, 89, 13, 84, 79, 84, 8, 82, 84, 79, 73, 83, 69, 13, 76, 73, 90, 65, 82, 68, 13, 67, 72, 73, 80, 77, 85, 78, 75, 13], "trial": 5, "time_elapsed": 1013591, "type": "FREE_RECALL", "trial_index": 223}, "uniqueid": "MTK3617:3QXNC7EIPJ2MCY9P9UIXP6LYDCO09C", "dateTime": 1520817598217}, {"current_trial": 224, "trialdata": {"rt": 85769, "trial_type": "text", "internal_node_id": "0.0-170.0", "time_elapsed": 1101367, "key_press": 13, "type": "INSTRUCTIONS", "trial_index": 224}, "uniqueid": "MTK3617:3QXNC7EIPJ2MCY9P9UIXP6LYDCO09C", "dateTime": 1520817685987}, {"current_trial": 225, "trialdata": {"rt": [5298, 8218, 11385], "trial_type": "math-distractor", "key_times": [4947, 5114, 5298, 7891, 7995, 8218, 10427, 10571, 11385], "responses": ["14", "15", "14"], "num2": [2, 4, 4, 3], "num3": [3, 4, 6, 2], "conditions": [12, 1600, "v", 12000], "internal_node_id": "0.0-171.0", "key_presses": [97, 100, 13, 97, 101, 13, 97, 100, 13], "trial": 6, "time_elapsed": 1115372, "type": "DISTRACTOR", "trial_index": 225, "num1": [9, 9, 4, 3]}, "uniqueid": "MTK3617:3QXNC7EIPJ2MCY9P9UIXP6LYDCO09C", "dateTime": 1520817699992}, {"current_trial": 226, "trialdata": {"rt": -1, "trial_type": "single-stim", "stimulus": "<p id=\"stim\">10</p>", "internal_node_id": "0.0-172.0-0.0", "time_elapsed": 1118375, "key_press": -1, "trial_index": 226}, "uniqueid": "MTK3617:3QXNC7EIPJ2MCY9P9UIXP6LYDCO09C", "dateTime": 1520817702995}, {"current_trial": 227, "trialdata": {"rt": -1, "trial_type": "single-stim", "stimulus": "<p id=\"stim\">9</p>", "internal_node_id": "0.0-172.0-1.0", "time_elapsed": 1119376, "key_press": -1, "trial_index": 227}, "uniqueid": "MTK3617:3QXNC7EIPJ2MCY9P9UIXP6LYDCO09C", "dateTime": 1520817703996}, {"current_trial": 228, "trialdata": {"rt": -1, "trial_type": "single-stim", "stimulus": "<p id=\"stim\">8</p>", "internal_node_id": "0.0-172.0-2.0", "time_elapsed": 1120379, "key_press": -1, "trial_index": 228}, "uniqueid": "MTK3617:3QXNC7EIPJ2MCY9P9UIXP6LYDCO09C", "dateTime": 1520817704999}, {"current_trial": 229, "trialdata": {"rt": -1, "trial_type": "single-stim", "stimulus": "<p id=\"stim\">7</p>", "internal_node_id": "0.0-172.0-3.0", "time_elapsed": 1121381, "key_press": -1, "trial_index": 229}, "uniqueid": "MTK3617:3QXNC7EIPJ2MCY9P9UIXP6LYDCO09C", "dateTime": 1520817706001}, {"current_trial": 230, "trialdata": {"rt": -1, "trial_type": "single-stim", "stimulus": "<p id=\"stim\">6</p>", "internal_node_id": "0.0-172.0-4.0", "time_elapsed": 1122383, "key_press": -1, "trial_index": 230}, "uniqueid": "MTK3617:3QXNC7EIPJ2MCY9P9UIXP6LYDCO09C", "dateTime": 1520817707003}, {"current_trial": 231, "trialdata": {"rt": -1, "trial_type": "single-stim", "stimulus": "<p id=\"stim\">5</p>", "internal_node_id": "0.0-172.0-5.0", "time_elapsed": 1123385, "key_press": -1, "trial_index": 231}, "uniqueid": "MTK3617:3QXNC7EIPJ2MCY9P9UIXP6LYDCO09C", "dateTime": 1520817708007}, {"current_trial": 232, "trialdata": {"rt": -1, "trial_type": "single-stim", "stimulus": "<p id=\"stim\">4</p>", "internal_node_id": "0.0-172.0-6.0", "time_elapsed": 1124390, "key_press": -1, "trial_index": 232}, "uniqueid": "MTK3617:3QXNC7EIPJ2MCY9P9UIXP6LYDCO09C", "dateTime": 1520817709010}, {"current_trial": 233, "trialdata": {"rt": -1, "trial_type": "single-stim", "stimulus": "<p id=\"stim\">3</p>", "internal_node_id": "0.0-172.0-7.0", "time_elapsed": 1125392, "key_press": -1, "trial_index": 233}, "uniqueid": "MTK3617:3QXNC7EIPJ2MCY9P9UIXP6LYDCO09C", "dateTime": 1520817710012}, {"current_trial": 234, "trialdata": {"rt": -1, "trial_type": "single-stim", "stimulus": "<p id=\"stim\">2</p>", "internal_node_id": "0.0-172.0-8.0", "time_elapsed": 1126394, "key_press": -1, "trial_index": 234}, "uniqueid": "MTK3617:3QXNC7EIPJ2MCY9P9UIXP6LYDCO09C", "dateTime": 1520817711014}, {"current_trial": 235, "trialdata": {"rt": -1, "trial_type": "single-stim", "stimulus": "<p id=\"stim\">1</p>", "internal_node_id": "0.0-172.0-9.0", "time_elapsed": 1127396, "key_press": -1, "trial_index": 235}, "uniqueid": "MTK3617:3QXNC7EIPJ2MCY9P9UIXP6LYDCO09C", "dateTime": 1520817712016}, {"current_trial": 236, "trialdata": {"rt": -1, "trial_type": "single-stim", "stimulus": "<p id=\"stim\">+</p>", "internal_node_id": "0.0-173.0-0.0", "time_elapsed": 1128899, "key_press": -1, "type": "FIXATION", "trial_index": 236}, "uniqueid": "MTK3617:3QXNC7EIPJ2MCY9P9UIXP6LYDCO09C", "dateTime": 1520817713519}, {"current_trial": 237, "trialdata": {"rt": -1, "trial_type": "single-stim", "word": "wagon", "stimulus": "<p id=\"stim\">WAGON</p>", "conditions": [12, 1600, "v", 12000], "internal_node_id": "0.0-174.0", "trial": 6, "time_elapsed": 1130501, "serialpos": 0, "key_press": -1, "wordID": 1577, "type": "PRES_VIS", "trial_index": 237}, "uniqueid": "MTK3617:3QXNC7EIPJ2MCY9P9UIXP6LYDCO09C", "dateTime": 1520817715121}, {"current_trial": 238, "trialdata": {"rt": -1, "trial_type": "single-stim", "word": "champagne", "stimulus": "<p id=\"stim\">CHAMPAGNE</p>", "conditions": [12, 1600, "v", 12000], "internal_node_id": "0.0-175.0", "trial": 6, "time_elapsed": 1133089, "serialpos": 1, "key_press": -1, "wordID": 277, "type": "PRES_VIS", "trial_index": 238}, "uniqueid": "MTK3617:3QXNC7EIPJ2MCY9P9UIXP6LYDCO09C", "dateTime": 1520817717709}, {"current_trial": 239, "trialdata": {"rt": -1, "trial_type": "single-stim", "word": "girl", "stimulus": "<p id=\"stim\">GIRL</p>", "conditions": [12, 1600, "v", 12000], "internal_node_id": "0.0-176.0", "trial": 6, "time_elapsed": 1135748, "serialpos": 2, "key_press": -1, "wordID": 636, "type": "PRES_VIS", "trial_index": 239}, "uniqueid": "MTK3617:3QXNC7EIPJ2MCY9P9UIXP6LYDCO09C", "dateTime": 1520817720368}, {"current_trial": 240, "trialdata": {"rt": -1, "trial_type": "single-stim", "word": "sidewalk", "stimulus": "<p id=\"stim\">SIDEWALK</p>", "conditions": [12, 1600, "v", 12000], "internal_node_id": "0.0-177.0", "trial": 6, "time_elapsed": 1138251, "serialpos": 3, "key_press": -1, "wordID": 1302, "type": "PRES_VIS", "trial_index": 240}, "uniqueid": "MTK3617:3QXNC7EIPJ2MCY9P9UIXP6LYDCO09C", "dateTime": 1520817722872}, {"current_trial": 241, "trialdata": {"rt": -1, "trial_type": "single-stim", "word": "pluto", "stimulus": "<p id=\"stim\">PLUTO</p>", "conditions": [12, 1600, "v", 12000], "internal_node_id": "0.0-178.0", "trial": 6, "time_elapsed": 1140760, "serialpos": 4, "key_press": -1, "wordID": 1091, "type": "PRES_VIS", "trial_index": 241}, "uniqueid": "MTK3617:3QXNC7EIPJ2MCY9P9UIXP6LYDCO09C", "dateTime": 1520817725380}, {"current_trial": 242, "trialdata": {"rt": -1, "trial_type": "single-stim", "word": "boyfriend", "stimulus": "<p id=\"stim\">BOYFRIEND</p>", "conditions": [12, 1600, "v", 12000], "internal_node_id": "0.0-179.0", "trial": 6, "time_elapsed": 1143270, "serialpos": 5, "key_press": -1, "wordID": 161, "type": "PRES_VIS", "trial_index": 242}, "uniqueid": "MTK3617:3QXNC7EIPJ2MCY9P9UIXP6LYDCO09C", "dateTime": 1520817727891}, {"current_trial": 243, "trialdata": {"rt": -1, "trial_type": "single-stim", "word": "candy", "stimulus": "<p id=\"stim\">CANDY</p>", "conditions": [12, 1600, "v", 12000], "internal_node_id": "0.0-180.0", "trial": 6, "time_elapsed": 1145910, "serialpos": 6, "key_press": -1, "wordID": 229, "type": "PRES_VIS", "trial_index": 243}, "uniqueid": "MTK3617:3QXNC7EIPJ2MCY9P9UIXP6LYDCO09C", "dateTime": 1520817730530}, {"current_trial": 244, "trialdata": {"rt": -1, "trial_type": "single-stim", "word": "fragrance", "stimulus": "<p id=\"stim\">FRAGRANCE</p>", "conditions": [12, 1600, "v", 12000], "internal_node_id": "0.0-181.0", "trial": 6, "time_elapsed": 1148433, "serialpos": 7, "key_press": -1, "wordID": 598, "type": "PRES_VIS", "trial_index": 244}, "uniqueid": "MTK3617:3QXNC7EIPJ2MCY9P9UIXP6LYDCO09C", "dateTime": 1520817733054}, {"current_trial": 245, "trialdata": {"rt": -1, "trial_type": "single-stim", "word": "truck", "stimulus": "<p id=\"stim\">TRUCK</p>", "conditions": [12, 1600, "v", 12000], "internal_node_id": "0.0-182.0", "trial": 6, "time_elapsed": 1151113, "serialpos": 8, "key_press": -1, "wordID": 1511, "type": "PRES_VIS", "trial_index": 245}, "uniqueid": "MTK3617:3QXNC7EIPJ2MCY9P9UIXP6LYDCO09C", "dateTime": 1520817735733}, {"current_trial": 246, "trialdata": {"rt": -1, "trial_type": "single-stim", "word": "driver", "stimulus": "<p id=\"stim\">DRIVER</p>", "conditions": [12, 1600, "v", 12000], "internal_node_id": "0.0-183.0", "trial": 6, "time_elapsed": 1153741, "serialpos": 9, "key_press": -1, "wordID": 498, "type": "PRES_VIS", "trial_index": 246}, "uniqueid": "MTK3617:3QXNC7EIPJ2MCY9P9UIXP6LYDCO09C", "dateTime": 1520817738361}, {"current_trial": 247, "trialdata": {"rt": -1, "trial_type": "single-stim", "word": "fireman", "stimulus": "<p id=\"stim\">FIREMAN</p>", "conditions": [12, 1600, "v", 12000], "internal_node_id": "0.0-184.0", "trial": 6, "time_elapsed": 1156367, "serialpos": 10, "key_press": -1, "wordID": 568, "type": "PRES_VIS", "trial_index": 247}, "uniqueid": "MTK3617:3QXNC7EIPJ2MCY9P9UIXP6LYDCO09C", "dateTime": 1520817740987}, {"current_trial": 248, "trialdata": {"rt": -1, "trial_type": "single-stim", "word": "pecan", "stimulus": "<p id=\"stim\">PECAN</p>", "conditions": [12, 1600, "v", 12000], "internal_node_id": "0.0-185.0", "trial": 6, "time_elapsed": 1158897, "serialpos": 11, "key_press": -1, "wordID": 1035, "type": "PRES_VIS", "trial_index": 248}, "uniqueid": "MTK3617:3QXNC7EIPJ2MCY9P9UIXP6LYDCO09C", "dateTime": 1520817743517}, {"current_trial": 249, "trialdata": {"rt": -1, "trial_type": "single-stim", "stimulus": "", "internal_node_id": "0.0-186.0-0.0", "time_elapsed": 1161104, "key_press": -1, "type": "PRE_RECALL_DELAY", "trial_index": 249}, "uniqueid": "MTK3617:3QXNC7EIPJ2MCY9P9UIXP6LYDCO09C", "dateTime": 1520817745724}, {"current_trial": 250, "trialdata": {"rt": -1000, "trial_type": "single-audio", "stimulus": "/static/audio/400Hz.wav", "internal_node_id": "0.0-187.0", "time_elapsed": 1161613, "key_press": -1, "type": "PRE_RECALL_ALERT", "trial_index": 250}, "uniqueid": "MTK3617:3QXNC7EIPJ2MCY9P9UIXP6LYDCO09C", "dateTime": 1520817746233}, {"current_trial": 251, "trialdata": {"rt": [5804, 12184, 13912, 18555, 22941, 27645, 30353, 36484, 41435, 52579, 59712], "recwords": ["wagon", "champion", "gir", "sidewalk", "boyfriend", "truck", "driver", "fireman", "pluto", "candy", "candybar"], "key_times": [3117, 3345, 3722, 3851, 3971, 5804, 7046, 7205, 7344, 7562, 8078, 8236, 8414, 8586, 8595, 9278, 9735, 