{"assignmentId": "3LRLIPTPERG2U7QY5T6F4LBRXEYKAB", "workerId": "MTK3331", "questiondata": {"origin": "United States", "strat-rehearsal": "96", "marital": "Single", "education": "Bachelor's degree", "ethnicity": "Not Hispanic", "color_depth": 24, "distracted": "No", "wrote-notes": "Yes", "strat-other": "Tried speaking them outloud.", "screen_width": 1280, "avail_screen_width": 1280, "avail_screen_height": 760, "strat-image": "72", "language": "English", "gender": "Male", "age": "22", "gender_other": "", "race": ["White"], "strat-categorize": "48", "pixel_depth": 24, "strat-spatial": "3", "strat-story": "6", "race_other": "", "screen_height": 800}, "bonus": 0, "hitId": "3IVKZBIBJ0GD5TDQQ6K7N9TL60KHSH", "counterbalance": 294, "useragent": "Mozilla/5.0 (Windows NT 6.3; Win64; x64) AppleWebKit/537.36 (KHTML, like Gecko) Chrome/55.0.2883.75 Safari/537.36", "eventdata": [{"eventtype": "initialized", "interval": 0, "value": null, "timestamp": 1520443014336}, {"eventtype": "window_resize", "interval": 0, "value": [1276, 745], "timestamp": 1520443014336}, {"eventtype": "focus", "interval": 9540, "value": "off", "timestamp": 1520443023876}, {"eventtype": "focus", "interval": 4670, "value": "on", "timestamp": 1520443028546}, {"eventtype": "window_resize", "interval": 245820, "value": [1280, 709], "timestamp": 1520443274366}, {"eventtype": "window_resize", "interval": 2405821, "value": [1276, 745], "timestamp": 1520445680187}, {"eventtype": "window_resize", "interval": 10572, "value": [1280, 709], "timestamp": 1520445690759}, {"eventtype": "window_resize", "interval": 1148, "value": [1276, 745], "timestamp": 1520445691907}, {"eventtype": "window_resize", "interval": 2009, "value": [1280, 709], "timestamp": 1520445693916}], "data": [{"current_trial": 0, "trialdata": {"rt": 13478, "trial_type": "text", "internal_node_id": "0.0-0.0", "time_elapsed": 13482, "key_press": 32, "type": "INSTRUCTIONS", "trial_index": 0}, "uniqueid": "MTK3331:3LRLIPTPERG2U7QY5T6F4LBRXEYKAB", "dateTime": 1520443029695}, {"current_trial": 1, "trialdata": {"rt": 26505, "trial_type": "text", "internal_node_id": "0.0-1.0", "time_elapsed": 39992, "key_press": 32, "type": "INSTRUCTIONS", "trial_index": 1}, "uniqueid": "MTK3331:3LRLIPTPERG2U7QY5T6F4LBRXEYKAB", "dateTime": 1520443056203}, {"current_trial": 2, "trialdata": {"rt": [7730], "trial_type": "audio-test", "responses": ["ocean"], "internal_node_id": "0.0-2.0", "time_elapsed": 47736, "type": "AUDIO_TEST", "trial_index": 2}, "uniqueid": "MTK3331:3LRLIPTPERG2U7QY5T6F4LBRXEYKAB", "dateTime": 1520443063947}, {"current_trial": 3, "trialdata": {"rt": [5200], "trial_type": "audio-test", "responses": ["crystal"], "internal_node_id": "0.0-3.0", "time_elapsed": 52943, "type": "AUDIO_TEST", "trial_index": 3}, "uniqueid": "MTK3331:3LRLIPTPERG2U7QY5T6F4LBRXEYKAB", "dateTime": 1520443069154}, {"current_trial": 4, "trialdata": {"rt": [5594], "trial_type": "audio-test", "responses": ["spice"], "internal_node_id": "0.0-4.0", "time_elapsed": 58544, "type": "AUDIO_TEST", "trial_index": 4}, "uniqueid": "MTK3331:3LRLIPTPERG2U7QY5T6F4LBRXEYKAB", "dateTime": 1520443074755}, {"current_trial": 5, "trialdata": {"rt": 11728, "trial_type": "survey-text", "responses": "{\"Q0\":\"11:30\",\"Q1\":\"8:30\",\"Q2\":\"5\"}", "internal_node_id": "0.0-5.0", "time_elapsed": 71027, "type": "SLEEP_SURVEY", "trial_index": 5}, "uniqueid": "MTK3331:3LRLIPTPERG2U7QY5T6F4LBRXEYKAB", "dateTime": 1520443087238}, {"current_trial": 6, "trialdata": {"rt": 11232, "trial_type": "text", "internal_node_id": "0.0-6.0", "time_elapsed": 83262, "key_press": 32, "type": "INSTRUCTIONS", "trial_index": 6}, "uniqueid": "MTK3331:3LRLIPTPERG2U7QY5T6F4LBRXEYKAB", "dateTime": 1520443099473}, {"current_trial": 7, "trialdata": {"rt": 31330, "trial_type": "text", "internal_node_id": "0.0-7.0", "time_elapsed": 115094, "key_press": 32, "type": "INSTRUCTIONS", "trial_index": 7}, "uniqueid": "MTK3331:3LRLIPTPERG2U7QY5T6F4LBRXEYKAB", "dateTime": 1520443131305}, {"current_trial": 8, "trialdata": {"rt": 4568, "trial_type": "text", "internal_node_id": "0.0-8.0", "time_elapsed": 120165, "key_press": 32, "type": "INSTRUCTIONS", "trial_index": 8}, "uniqueid": "MTK3331:3LRLIPTPERG2U7QY5T6F4LBRXEYKAB", "dateTime": 1520443136376}, {"current_trial": 9, "trialdata": {"rt": [2310, 4798, 7334, 9855, 11199, 14183, 16447, 17982], "trial_type": "math-distractor", "key_times": [1751, 1958, 2310, 4375, 4574, 4798, 6998, 7086, 7334, 9446, 9559, 9855, 10902, 11079, 11199, 13958, 14014, 14183, 15879, 16318, 16447, 17718, 17830, 17982], "responses": ["15", "14", "25", "19", "11", "21", "17", "14"], "num2": [5, 3, 9, 8, 4, 8, 4, 6, 1], "num3": [3, 6, 8, 9, 2, 8, 7, 3, 5], "conditions": [18, 1200, "v", 18000], "internal_node_id": "0.0-9.0", "key_presses": [49, 53, 13, 49, 52, 13, 50, 53, 13, 49, 57, 13, 49, 49, 13, 50, 49, 13, 49, 55, 13, 49, 52, 13], "trial": 0, "time_elapsed": 139177, "type": "DISTRACTOR", "trial_index": 9, "num1": [7, 5, 8, 2, 5, 5, 6, 5, 2]}, "uniqueid": "MTK3331:3LRLIPTPERG2U7QY5T6F4LBRXEYKAB", "dateTime": 1520443155389}, {"current_trial": 10, "trialdata": {"rt": -1, "trial_type": "single-stim", "stimulus": "<p id=\"stim\">10</p>", "internal_node_id": "0.0-10.0-0.0", "time_elapsed": 142182, "key_press": -1, "trial_index": 10}, "uniqueid": "MTK3331:3LRLIPTPERG2U7QY5T6F4LBRXEYKAB", "dateTime": 1520443158394}, {"current_trial": 11, "trialdata": {"rt": -1, "trial_type": "single-stim", "stimulus": "<p id=\"stim\">9</p>", "internal_node_id": "0.0-10.0-1.0", "time_elapsed": 143185, "key_press": -1, "trial_index": 11}, "uniqueid": "MTK3331:3LRLIPTPERG2U7QY5T6F4LBRXEYKAB", "dateTime": 1520443159396}, {"current_trial": 12, "trialdata": {"rt": -1, "trial_type": "single-stim", "stimulus": "<p id=\"stim\">8</p>", "internal_node_id": "0.0-10.0-2.0", "time_elapsed": 144188, "key_press": -1, "trial_index": 12}, "uniqueid": "MTK3331:3LRLIPTPERG2U7QY5T6F4LBRXEYKAB", "dateTime": 1520443160399}, {"current_trial": 13, "trialdata": {"rt": -1, "trial_type": "single-stim", "stimulus": "<p id=\"stim\">7</p>", "internal_node_id": "0.0-10.0-3.0", "time_elapsed": 145190, "key_press": -1, "trial_index": 13}, "uniqueid": "MTK3331:3LRLIPTPERG2U7QY5T6F4LBRXEYKAB", "dateTime": 1520443161401}, {"current_trial": 14, "trialdata": {"rt": -1, "trial_type": "single-stim", "stimulus": "<p id=\"stim\">6</p>", "internal_node_id": "0.0-10.0-4.0", "time_elapsed": 146192, "key_press": -1, "trial_index": 14}, "uniqueid": "MTK3331:3LRLIPTPERG2U7QY5T6F4LBRXEYKAB", "dateTime": 1520443162403}, {"current_trial": 15, "trialdata": {"rt": -1, "trial_type": "single-stim", "stimulus": "<p id=\"stim\">5</p>", "internal_node_id": "0.0-10.0-5.0", "time_elapsed": 147193, "key_press": -1, "trial_index": 15}, "uniqueid": "MTK3331:3LRLIPTPERG2U7QY5T6F4LBRXEYKAB", "dateTime": 1520443163405}, {"current_trial": 16, "trialdata": {"rt": -1, "trial_type": "single-stim", "stimulus": "<p id=\"stim\">4</p>", "internal_node_id": "0.0-10.0-6.0", "time_elapsed": 148196, "key_press": -1, "trial_index": 16}, "uniqueid": "MTK3331:3LRLIPTPERG2U7QY5T6F4LBRXEYKAB", "dateTime": 1520443164407}, {"current_trial": 17, "trialdata": {"rt": -1, "trial_type": "single-stim", "stimulus": "<p id=\"stim\">3</p>", "internal_node_id": "0.0-10.0-7.0", "time_elapsed": 149200, "key_press": -1, "trial_index": 17}, "uniqueid": "MTK3331:3LRLIPTPERG2U7QY5T6F4LBRXEYKAB", "dateTime": 1520443165411}, {"current_trial": 18, "trialdata": {"rt": -1, "trial_type": "single-stim", "stimulus": "<p id=\"stim\">2</p>", "internal_node_id": "0.0-10.0-8.0", "time_elapsed": 150203, "key_press": -1, "trial_index": 18}, "uniqueid": "MTK3331:3LRLIPTPERG2U7QY5T6F4LBRXEYKAB", "dateTime": 1520443166414}, {"current_trial": 19, "trialdata": {"rt": -1, "trial_type": "single-stim", "stimulus": "<p id=\"stim\">1</p>", "internal_node_id": "0.0-10.0-9.0", "time_elapsed": 151206, "key_press": -1, "trial_index": 19}, "uniqueid": "MTK3331:3LRLIPTPERG2U7QY5T6F4LBRXEYKAB", "dateTime": 1520443167417}, {"current_trial": 20, "trialdata": {"rt": -1, "trial_type": "single-stim", "stimulus": "<p id=\"stim\">+</p>", "internal_node_id": "0.0-11.0-0.0", "time_elapsed": 152708, "key_press": -1, "type": "FIXATION", "trial_index": 20}, "uniqueid": "MTK3331:3LRLIPTPERG2U7QY5T6F4LBRXEYKAB", "dateTime": 1520443168919}, {"current_trial": 21, "trialdata": {"rt": -1, "trial_type": "single-stim", "word": "ground", "stimulus": "<p id=\"stim\">GROUND</p>", "conditions": [18, 1200, "v", 18000], "internal_node_id": "0.0-12.0", "trial": 0, "time_elapsed": 153910, "serialpos": 0, "key_press": -1, "wordID": 665, "type": "PRES_VIS", "trial_index": 21}, "uniqueid": "MTK3331:3LRLIPTPERG2U7QY5T6F4LBRXEYKAB", "dateTime": 1520443170121}, {"current_trial": 22, "trialdata": {"rt": -1, "trial_type": "single-stim", "word": "hook", "stimulus": "<p id=\"stim\">HOOK</p>", "conditions": [18, 1200, "v", 18000], "internal_node_id": "0.0-13.0", "trial": 0, "time_elapsed": 156185, "serialpos": 1, "key_press": -1, "wordID": 714, "type": "PRES_VIS", "trial_index": 22}, "uniqueid": "MTK3331:3LRLIPTPERG2U7QY5T6F4LBRXEYKAB", "dateTime": 1520443172396}, {"current_trial": 23, "trialdata": {"rt": -1, "trial_type": "single-stim", "word": "tablet", "stimulus": "<p id=\"stim\">TABLET</p>", "conditions": [18, 1200, "v", 18000], "internal_node_id": "0.0-14.0", "trial": 0, "time_elapsed": 158227, "serialpos": 2, "key_press": -1, "wordID": 1426, "type": "PRES_VIS", "trial_index": 23}, "uniqueid": "MTK3331:3LRLIPTPERG2U7QY5T6F4LBRXEYKAB", "dateTime": 1520443174438}, {"current_trial": 24, "trialdata": {"rt": -1, "trial_type": "single-stim", "word": "sidewalk", "stimulus": "<p id=\"stim\">SIDEWALK</p>", "conditions": [18, 1200, "v", 18000], "internal_node_id": "0.0-15.0", "trial": 0, "time_elapsed": 160342, "serialpos": 3, "key_press": -1, "wordID": 1302, "type": "PRES_VIS", "trial_index": 24}, "uniqueid": "MTK3331:3LRLIPTPERG2U7QY5T6F4LBRXEYKAB", "dateTime": 1520443176553}, {"current_trial": 25, "trialdata": {"rt": -1, "trial_type": "single-stim", "word": "chipmunk", "stimulus": "<p id=\"stim\">CHIPMUNK</p>", "conditions": [18, 1200, "v", 18000], "internal_node_id": "0.0-16.0", "trial": 0, "time_elapsed": 162660, "serialpos": 4, "key_press": -1, "wordID": 303, "type": "PRES_VIS", "trial_index": 25}, "uniqueid": "MTK3331:3LRLIPTPERG2U7QY5T6F4LBRXEYKAB", "dateTime": 1520443178871}, {"current_trial": 26, "trialdata": {"rt": -1, "trial_type": "single-stim", "word": "plate", "stimulus": "<p id=\"stim\">PLATE</p>", "conditions": [18, 1200, "v", 18000], "internal_node_id": "0.0-17.0", "trial": 0, "time_elapsed": 164939, "serialpos": 5, "key_press": -1, "wordID": 1085, "type": "PRES_VIS", "trial_index": 26}, "uniqueid": "MTK3331:3LRLIPTPERG2U7QY5T6F4LBRXEYKAB", "dateTime": 1520443181150}, {"current_trial": 27, "trialdata": {"rt": -1, "trial_type": "single-stim", "word": "mammal", "stimulus": "<p id=\"stim\">MAMMAL</p>", "conditions": [18, 1200, "v", 18000], "internal_node_id": "0.0-18.0", "trial": 0, "time_elapsed": 167212, "serialpos": 6, "key_press": -1, "wordID": 860, "type": "PRES_VIS", "trial_index": 27}, "uniqueid": "MTK3331:3LRLIPTPERG2U7QY5T6F4LBRXEYKAB", "dateTime": 1520443183423}, {"current_trial": 28, "trialdata": {"rt": -1, "trial_type": "single-stim", "word": "waitress", "stimulus": "<p id=\"stim\">WAITRESS</p>", "conditions": [18, 1200, "v", 18000], "internal_node_id": "0.0-19.0", "trial": 0, "time_elapsed": 169561, "serialpos": 7, "key_press": -1, "wordID": 1580, "type": "PRES_VIS", "trial_index": 28}, "uniqueid": "MTK3331:3LRLIPTPERG2U7QY5T6F4LBRXEYKAB", "dateTime": 1520443185772}, {"current_trial": 29, "trialdata": {"rt": -1, "trial_type": "single-stim", "word": "rooster", "stimulus": "<p id=\"stim\">ROOSTER</p>", "conditions": [18, 1200, "v", 18000], "internal_node_id": "0.0-20.0", "trial": 0, "time_elapsed": 171655, "serialpos": 8, "key_press": -1, "wordID": 1208, "type": "PRES_VIS", "trial_index": 29}, "uniqueid": "MTK3331:3LRLIPTPERG2U7QY5T6F4LBRXEYKAB", "dateTime": 1520443187866}, {"current_trial": 30, "trialdata": {"rt": -1, "trial_type": "single-stim", "word": "match", "stimulus": "<p id=\"stim\">MATCH</p>", "conditions": [18, 1200, "v", 18000], "internal_node_id": "0.0-21.0", "trial": 0, "time_elapsed": 173750, "serialpos": 9, "key_press": -1, "wordID": 877, "type": "PRES_VIS", "trial_index": 30}, "uniqueid": "MTK3331:3LRLIPTPERG2U7QY5T6F4LBRXEYKAB", "dateTime": 1520443189961}, {"current_trial": 31, "trialdata": {"rt": -1, "trial_type": "single-stim", "word": "mask", "stimulus": "<p id=\"stim\">MASK</p>", "conditions": [18, 1200, "v", 18000], "internal_node_id": "0.0-22.0", "trial": 0, "time_elapsed": 175865, "serialpos": 10, "key_press": -1, "wordID": 875, "type": "PRES_VIS", "trial_index": 31}, "uniqueid": "MTK3331:3LRLIPTPERG2U7QY5T6F4LBRXEYKAB", "dateTime": 1520443192077}, {"current_trial": 32, "trialdata": {"rt": -1, "trial_type": "single-stim", "word": "outlaw", "stimulus": "<p id=\"stim\">OUTLAW</p>", "conditions": [18, 1200, "v", 18000], "internal_node_id": "0.0-23.0", "trial": 0, "time_elapsed": 178175, "serialpos": 11, "key_press": -1, "wordID": 988, "type": "PRES_VIS", "trial_index": 32}, "uniqueid": "MTK3331:3LRLIPTPERG2U7QY5T6F4LBRXEYKAB", "dateTime": 1520443194387}, {"current_trial": 33, "trialdata": {"rt": -1, "trial_type": "single-stim", "word": "parent", "stimulus": "<p id=\"stim\">PARENT</p>", "conditions": [18, 1200, "v", 18000], "internal_node_id": "0.0-24.0", "trial": 0, "time_elapsed": 180219, "serialpos": 12, "key_press": -1, "wordID": 1012, "type": "PRES_VIS", "trial_index": 33}, "uniqueid": "MTK3331:3LRLIPTPERG2U7QY5T6F4LBRXEYKAB", "dateTime": 1520443196430}, {"current_trial": 34, "trialdata": {"rt": -1, "trial_type": "single-stim", "word": "flute", "stimulus": "<p id=\"stim\">FLUTE</p>", "conditions": [18, 1200, "v", 18000], "internal_node_id": "0.0-25.0", "trial": 0, "time_elapsed": 182381, "serialpos": 13, "key_press": -1, "wordID": 584, "type": "PRES_VIS", "trial_index": 34}, "uniqueid": "MTK3331:3LRLIPTPERG2U7QY5T6F4LBRXEYKAB", "dateTime": 1520443198592}, {"current_trial": 35, "trialdata": {"rt": -1, "trial_type": "single-stim", "word": "fragrance", "stimulus": "<p id=\"stim\">FRAGRANCE</p>", "conditions": [18, 1200, "v", 18000], "internal_node_id": "0.0-26.0", "trial": 0, "time_elapsed": 184758, "serialpos": 14, "key_press": -1, "wordID": 598, "type": "PRES_VIS", "trial_index": 35}, "uniqueid": "MTK3331:3LRLIPTPERG2U7QY5T6F4LBRXEYKAB", "dateTime": 1520443200970}, {"current_trial": 36, "trialdata": {"rt": -1, "trial_type": "single-stim", "word": "actress", "stimulus": "<p id=\"stim\">ACTRESS</p>", "conditions": [18, 1200, "v", 18000], "internal_node_id": "0.0-27.0", "trial": 0, "time_elapsed": 187106, "serialpos": 15, "key_press": -1, "wordID": 5, "type": "PRES_VIS", "trial_index": 36}, "uniqueid": "MTK3331:3LRLIPTPERG2U7QY5T6F4LBRXEYKAB", "dateTime": 1520443203317}, {"current_trial": 37, "trialdata": {"rt": -1, "trial_type": "single-stim", "word": "uncle", "stimulus": "<p id=\"stim\">UNCLE</p>", "conditions": [18, 1200, "v", 18000], "internal_node_id": "0.0-28.0", "trial": 0, "time_elapsed": 189298, "serialpos": 16, "key_press": -1, "wordID": 1535, "type": "PRES_VIS", "trial_index": 37}, "uniqueid": "MTK3331:3LRLIPTPERG2U7QY5T6F4LBRXEYKAB", "dateTime": 1520443205509}, {"current_trial": 38, "trialdata": {"rt": -1, "trial_type": "single-stim", "word": "swimmer", "stimulus": "<p id=\"stim\">SWIMMER</p>", "conditions": [18, 1200, "v", 18000], "internal_node_id": "0.0-29.0", "trial": 0, "time_elapsed": 191442, "serialpos": 17, "key_press": -1, "wordID": 1419, "type": "PRES_VIS", "trial_index": 38}, "uniqueid": "MTK3331:3LRLIPTPERG2U7QY5T6F4LBRXEYKAB", "dateTime": 1520443207653}, {"current_trial": 39, "trialdata": {"rt": -1, "trial_type": "single-stim", "stimulus": "", "internal_node_id": "0.0-30.0-0.0", "time_elapsed": 193786, "key_press": -1, "type": "PRE_RECALL_DELAY", "trial_index": 39}, "uniqueid": "MTK3331:3LRLIPTPERG2U7QY5T6F4LBRXEYKAB", "dateTime": 1520443209999}, {"current_trial": 40, "trialdata": {"rt": -1000, "trial_type": "single-audio", "stimulus": "/static/audio/400Hz.wav", "internal_node_id": "0.0-31.0", "time_elapsed": 194293, "key_press": -1, "type": "PRE_RECALL_ALERT", "trial_index": 40}, "uniqueid": "MTK3331:3LRLIPTPERG2U7QY5T6F4LBRXEYKAB", "dateTime": 1520443210504}, {"current_trial": 41, "trialdata": {"rt": [5114, 8091, 8994, 12099, 17074, 27739, 29922, 42850, 47026, 49730, 54442], "recwords": ["bucket", "tablet", "wood", "tablet", "webcam", "", "i", "not", "tablet", "webcam", "teach"], "key_times": [4340, 4402, 4563, 4714, 4899, 5003, 5114, 7347, 7522, 7627, 7770, 7866, 7946, 8091, 8555, 8651, 8803, 8899, 8994, 11370, 11514, 11699, 11810, 11922, 11987, 12099, 16155, 16298, 16426, 16570, 16754, 16826, 17074, 27739, 29594, 29922, 31378, 33226, 33930, 34315, 34546, 38243, 38394, 38866, 39202, 41002, 41250, 41530, 41946, 42618, 42850, 46178, 46378, 46450, 46706, 46834, 46874, 47026, 48803, 48986, 49122, 49274, 49417, 49481, 49730, 53427, 53626, 53826, 54042, 54114, 54442], "trial_type": "free-recall", "conditions": [18, 1200, "v", 18000], "internal_node_id": "0.0-32.0-0.0", "key_presses": [66, 85, 67, 75, 69, 84, 13, 84, 65, 66, 76, 69, 84, 13, 87, 79, 79, 68, 13, 84, 65, 66, 76, 69, 84, 13, 87, 69, 66, 67, 65, 77, 13, 13, 73, 32, 8, 65, 65, 8, 8, 66, 76, 8, 8, 78, 79, 84, 83, 8, 32, 84, 65, 66, 76, 69, 84, 13, 87, 69, 66, 67, 65, 77, 13, 84, 69, 65, 67, 72, 13], "trial": 0, "time_elapsed": 254300, "type": "FREE_RECALL", "trial_index": 41}, "uniqueid": "MTK3331:3LRLIPTPERG2U7QY5T6F4LBRXEYKAB", "dateTime": 1520443270515}, {"current_trial": 42, "trialdata": {"rt": 1778, "trial_type": "text", "internal_node_id": "0.0-33.0", "time_elapsed": 258084, "key_press": 32, "type": "INSTRUCTIONS", "trial_index": 42}, "uniqueid": "MTK3331:3LRLIPTPERG2U7QY5T6F4LBRXEYKAB", "dateTime": 1520443274295}, {"current_trial": 43, "trialdata": {"rt": [2628, 4316, 5939, 8165, 9836, 12667, 14659], "trial_type": "math-distractor", "key_times": [2124, 2380, 2628, 3836, 4196, 4316, 5708, 5812, 5939, 7332, 7603, 8165, 9508, 9740, 9836, 12260, 12380, 12667, 14292, 14396, 14659, 17548, 17603], "responses": ["13", "16", "14", "17", "14", "20", "20"], "num2": [1, 4, 7, 2, 7, 8, 5, 2], "num3": [7, 4, 3, 8, 6, 9, 8, 9], "conditions": [18, 1200, "v", 18000], "internal_node_id": "0.0-34.0", "key_presses": [49, 51, 13, 49, 54, 13, 49, 52, 13, 49, 55, 13, 49, 52, 13, 50, 48, 13, 50, 48, 13, 49, 55], "trial": 1, "time_elapsed": 278089, "type": "DISTRACTOR", "trial_index": 43, "num1": [5, 8, 4, 7, 1, 3, 7, 6]}, "uniqueid": "MTK3331:3LRLIPTPERG2U7QY5T6F4LBRXEYKAB", "dateTime": 1520443294300}, {"current_trial": 44, "trialdata": {"rt": -1, "trial_type": "single-stim", "stimulus": "<p id=\"stim\">10</p>", "internal_node_id": "0.0-35.0-0.0", "time_elapsed": 281091, "key_press": -1, "trial_index": 44}, "uniqueid": "MTK3331:3LRLIPTPERG2U7QY5T6F4LBRXEYKAB", "dateTime": 1520443297303}, {"current_trial": 45, "trialdata": {"rt": -1, "trial_type": "single-stim", "stimulus": "<p id=\"stim\">9</p>", "internal_node_id": "0.0-35.0-1.0", "time_elapsed": 282094, "key_press": -1, "trial_index": 45}, "uniqueid": "MTK3331:3LRLIPTPERG2U7QY5T6F4LBRXEYKAB", "dateTime": 1520443298305}, {"current_trial": 46, "trialdata": {"rt": -1, "trial_type": "single-stim", "stimulus": "<p id=\"stim\">8</p>", "internal_node_id": "0.0-35.0-2.0", "time_elapsed": 283097, "key_press": -1, "trial_index": 46}, "uniqueid": "MTK3331:3LRLIPTPERG2U7QY5T6F4LBRXEYKAB", "dateTime": 1520443299310}, {"current_trial": 47, "trialdata": {"rt": -1, "trial_type": "single-stim", "stimulus": "<p id=\"stim\">7</p>", "internal_node_id": "0.0-35.0-3.0", "time_elapsed": 284101, "key_press": -1, "trial_index": 47}, "uniqueid": "MTK3331:3LRLIPTPERG2U7QY5T6F4LBRXEYKAB", "dateTime": 1520443300313}, {"current_trial": 48, "trialdata": {"rt": -1, "trial_type": "single-stim", "stimulus": "<p id=\"stim\">6</p>", "internal_node_id": "0.0-35.0-4.0", "time_elapsed": 285103, "key_press": -1, "trial_index": 48}, "uniqueid": "MTK3331:3LRLIPTPERG2U7QY5T6F4LBRXEYKAB", "dateTime": 1520443301315}, {"current_trial": 49, "trialdata": {"rt": -1, "trial_type": "single-stim", "stimulus": "<p id=\"stim\">5</p>", "internal_node_id": "0.0-35.0-5.0", "time_elapsed": 286106, "key_press": -1, "trial_index": 49}, "uniqueid": "MTK3331:3LRLIPTPERG2U7QY5T6F4LBRXEYKAB", "dateTime": 1520443302317}, {"current_trial": 50, "trialdata": {"rt": -1, "trial_type": "single-stim", "stimulus": "<p id=\"stim\">4</p>", "internal_node_id": "0.0-35.0-6.0", "time_elapsed": 287111, "key_press": -1, "trial_index": 50}, "uniqueid": "MTK3331:3LRLIPTPERG2U7QY5T6F4LBRXEYKAB", "dateTime": 1520443303322}, {"current_trial": 51, "trialdata": {"rt": -1, "trial_type": "single-stim", "stimulus": "<p id=\"stim\">3</p>", "internal_node_id": "0.0-35.0-7.0", "time_elapsed": 288113, "key_press": -1, "trial_index": 51}, "uniqueid": "MTK3331:3LRLIPTPERG2U7QY5T6F4LBRXEYKAB", "dateTime": 1520443304326}, {"current_trial": 52, "trialdata": {"rt": -1, "trial_type": "single-stim", "stimulus": "<p id=\"stim\">2</p>", "internal_node_id": "0.0-35.0-8.0", "time_elapsed": 289117, "key_press": -1, "trial_index": 52}, "uniqueid": "MTK3331:3LRLIPTPERG2U7QY5T6F4LBRXEYKAB", "dateTime": 1520443305328}, {"current_trial": 53, "trialdata": {"rt": -1, "trial_type": "single-stim", "stimulus": "<p id=\"stim\">1</p>", "internal_node_id": "0.0-35.0-9.0", "time_elapsed": 290119, "key_press": -1, "trial_index": 53}, "uniqueid": "MTK3331:3LRLIPTPERG2U7QY5T6F4LBRXEYKAB", "dateTime": 1520443306331}, {"current_trial": 54, "trialdata": {"rt": -1, "trial_type": "single-stim", "stimulus": "<p id=\"stim\">+</p>", "internal_node_id": "0.0-36.0-0.0", "time_elapsed": 291623, "key_press": -1, "type": "FIXATION", "trial_index": 54}, "uniqueid": "MTK3331:3LRLIPTPERG2U7QY5T6F4LBRXEYKAB", "dateTime": 1520443307835}, {"current_trial": 55, "trialdata": {"rt": -1, "trial_type": "single-stim", "word": "server", "stimulus": "<p id=\"stim\">SERVER</p>", "conditions": [18, 1200, "v", 18000], "internal_node_id": "0.0-37.0", "trial": 1, "time_elapsed": 292825, "serialpos": 0, "key_press": -1, "wordID": 1271, "type": "PRES_VIS", "trial_index": 55}, "uniqueid": "MTK3331:3LRLIPTPERG2U7QY5T6F4LBRXEYKAB", "dateTime": 1520443309036}, {"current_trial": 56, "trialdata": {"rt": -1, "trial_type": "single-stim", "word": "rifle", "stimulus": "<p id=\"stim\">RIFLE</p>", "conditions": [18, 1200, "v", 18000], "internal_node_id": "0.0-38.0", "trial": 1, "time_elapsed": 294942, "serialpos": 1, "key_press": -1, "wordID": 1191, "type": "PRES_VIS", "trial_index": 56}, "uniqueid": "MTK3331:3LRLIPTPERG2U7QY5T6F4LBRXEYKAB", "dateTime": 1520443311153}, {"current_trial": 57, "trialdata": {"rt": -1, "trial_type": "single-stim", "word": "garlic", "stimulus": "<p id=\"stim\">GARLIC</p>", "conditions": [18, 1200, "v", 18000], "internal_node_id": "0.0-39.0", "trial": 1, "time_elapsed": 297187, "serialpos": 2, "key_press": -1, "wordID": 623, "type": "PRES_VIS", "trial_index": 57}, "uniqueid": "MTK3331:3LRLIPTPERG2U7QY5T6F4LBRXEYKAB", "dateTime": 1520443313398}, {"current_trial": 58, "trialdata": {"rt": -1, "trial_type": "single-stim", "word": "sandwich", "stimulus": "<p id=\"stim\">SANDWICH</p>", "conditions": [18, 1200, "v", 18000], "internal_node_id": "0.0-40.0", "trial": 1, "time_elapsed": 299493, "serialpos": 3, "key_press": -1, "wordID": 1231, "type": "PRES_VIS", "trial_index": 58}, "uniqueid": "MTK3331:3LRLIPTPERG2U7QY5T6F4LBRXEYKAB", "dateTime": 1520443315704}, {"current_trial": 59, "trialdata": {"rt": -1, "trial_type": "single-stim", "word": "postage", "stimulus": "<p id=\"stim\">POSTAGE</p>", "conditions": [18, 1200, "v", 18000], "internal_node_id": "0.0-41.0", "trial": 1, "time_elapsed": 301651, "serialpos": 4, "key_press": -1, "wordID": 1112, "type": "PRES_VIS", "trial_index": 59}, "uniqueid": "MTK3331:3LRLIPTPERG2U7QY5T6F4LBRXEYKAB", "dateTime": 1520443317862}, {"current_trial": 60, "trialdata": {"rt": -1, "trial_type": "single-stim", "word": "taxi", "stimulus": "<p id=\"stim\">TAXI</p>", "conditions": [18, 1200, "v", 18000], "internal_node_id": "0.0-42.0", "trial": 1, "time_elapsed": 303702, "serialpos": 5, "key_press": -1, "wordID": 1437, "type": "PRES_VIS", "trial_index": 60}, "uniqueid": "MTK3331:3LRLIPTPERG2U7QY5T6F4LBRXEYKAB", "dateTime": 1520443319913}, {"current_trial": 61, "trialdata": {"rt": -1, "trial_type": "single-stim", "word": "chest", "stimulus": "<p id=\"stim\">CHEST</p>", "conditions": [18, 1200, "v", 18000], "internal_node_id": "0.0-43.0", "trial": 1, "time_elapsed": 306033, "serialpos": 6, "key_press": -1, "wordID": 294, "type": "PRES_VIS", "trial_index": 61}, "uniqueid": "MTK3331:3LRLIPTPERG2U7QY5T6F4LBRXEYKAB", "dateTime": 1520443322245}, {"current_trial": 62, "trialdata": {"rt": -1, "trial_type": "single-stim", "word": "silk", "stimulus": "<p id=\"stim\">SILK</p>", "conditions": [18, 1200, "v", 18000], "internal_node_id": "0.0-44.0", "trial": 1, "time_elapsed": 308378, "serialpos": 7, "key_press": -1, "wordID": 1306, "type": "PRES_VIS", "trial_index": 62}, "uniqueid": "MTK3331:3LRLIPTPERG2U7QY5T6F4LBRXEYKAB", "dateTime": 1520443324590}, {"current_trial": 63, "trialdata": {"rt": -1, "trial_type": "single-stim", "word": "slime", "stimulus": "<p id=\"stim\">SLIME</p>", "conditions": [18, 1200, "v", 18000], "internal_node_id": "0.0-45.0", "trial": 1, "time_elapsed": 310589, "serialpos": 8, "key_press": -1, "wordID": 1326, "type": "PRES_VIS", "trial_index": 63}, "uniqueid": "MTK3331:3LRLIPTPERG2U7QY5T6F4LBRXEYKAB", "dateTime": 1520443326801}, {"current_trial": 64, "trialdata": {"rt": -1, "trial_type": "single-stim", "word": "film", "stimulus": "<p id=\"stim\">FILM</p>", "conditions": [18, 1200, "v", 18000], "internal_node_id": "0.0-46.0", "trial": 1, "time_elapsed": 312763, "serialpos": 9, "key_press": -1, "wordID": 564, "type": "PRES_VIS", "trial_index": 64}, "uniqueid": "MTK3331:3LRLIPTPERG2U7QY5T6F4LBRXEYKAB", "dateTime": 1520443328974}, {"current_trial": 65, "trialdata": {"rt": -1, "trial_type": "single-stim", "word": "dresser", "stimulus": "<p id=\"stim\">DRESSER</p>", "conditions": [18, 1200, "v", 18000], "internal_node_id": "0.0-47.0", "trial": 1, "time_elapsed": 314942, "serialpos": 10, "key_press": -1, "wordID": 495, "type": "PRES_VIS", "trial_index": 65}, "uniqueid": "MTK3331:3LRLIPTPERG2U7QY5T6F4LBRXEYKAB", "dateTime": 1520443331153}, {"current_trial": 66, "trialdata": {"rt": -1, "trial_type": "single-stim", "word": "empire", "stimulus": "<p id=\"stim\">EMPIRE</p>", "conditions": [18, 1200, "v", 18000], "internal_node_id": "0.0-48.0", "trial": 1, "time_elapsed": 317114, "serialpos": 11, "key_press": -1, "wordID": 529, "type": "PRES_VIS", "trial_index": 66}, "uniqueid": "MTK3331:3LRLIPTPERG2U7QY5T6F4LBRXEYKAB", "dateTime": 1520443333325}, {"current_trial": 67, "trialdata": {"rt": -1, "trial_type": "single-stim", "word": "shelf", "stimulus": "<p id=\"stim\">SHELF</p>", "conditions": [18, 1200, "v", 18000], "internal_node_id": "0.0-49.0", "trial": 1, "time_elapsed": 319468, "serialpos": 12, "key_press": -1, "wordID": 1279, "type": "PRES_VIS", "trial_index": 67}, "uniqueid": "MTK3331:3LRLIPTPERG2U7QY5T6F4LBRXEYKAB", "dateTime": 1520443335679}, {"current_trial": 68, "trialdata": {"rt": -1, "trial_type": "single-stim", "word": "drill", "stimulus": "<p id=\"stim\">DRILL</p>", "conditions": [18, 1200, "v", 18000], "internal_node_id": "0.0-50.0", "trial": 1, "time_elapsed": 321650, "serialpos": 13, "key_press": -1, "wordID": 496, "type": "PRES_VIS", "trial_index": 68}, "uniqueid": "MTK3331:3LRLIPTPERG2U7QY5T6F4LBRXEYKAB", "dateTime": 1520443337862}, {"current_trial": 69, "trialdata": {"rt": -1, "trial_type": "single-stim", "word": "denim", "stimulus": "<p id=\"stim\">DENIM</p>", "conditions": [18, 1200, "v", 18000], "internal_node_id": "0.0-51.0", "trial": 1, "time_elapsed": 323888, "serialpos": 14, "key_press": -1, "wordID": 445, "type": "PRES_VIS", "trial_index": 69}, "uniqueid": "MTK3331:3LRLIPTPERG2U7QY5T6F4LBRXEYKAB", "dateTime": 1520443340100}, {"current_trial": 70, "trialdata": {"rt": -1, "trial_type": "single-stim", "word": "japan", "stimulus": "<p id=\"stim\">JAPAN</p>", "conditions": [18, 1200, "v", 18000], "internal_node_id": "0.0-52.0", "trial": 1, "time_elapsed": 326123, "serialpos": 15, "key_press": -1, "wordID": 748, "type": "PRES_VIS", "trial_index": 70}, "uniqueid": "MTK3331:3LRLIPTPERG2U7QY5T6F4LBRXEYKAB", "dateTime": 1520443342334}, {"current_trial": 71, "trialdata": {"rt": -1, "trial_type": "single-stim", "word": "window", "stimulus": "<p id=\"stim\">WINDOW</p>", "conditions": [18, 1200, "v", 18000], "internal_node_id": "0.0-53.0", "trial": 1, "time_elapsed": 328305, "serialpos": 16, "key_press": -1, "wordID": 1610, "type": "PRES_VIS", "trial_index": 71}, "uniqueid": "MTK3331:3LRLIPTPERG2U7QY5T6F4LBRXEYKAB", "dateTime": 1520443344517}, {"current_trial": 72, "trialdata": {"rt": -1, "trial_type": "single-stim", "word": "bathtub", "stimulus": "<p id=\"stim\">BATHTUB</p>", "conditions": [18, 1200, "v", 18000], "internal_node_id": "0.0-54.0", "trial": 1, "time_elapsed": 330579, "serialpos": 17, "key_press": -1, "wordID": 99, "type": "PRES_VIS", "trial_index": 72}, "uniqueid": "MTK3331:3LRLIPTPERG2U7QY5T6F4LBRXEYKAB", "dateTime": 1520443346790}, {"current_trial": 73, "trialdata": {"rt": -1, "trial_type": "single-stim", "stimulus": "", "internal_node_id": "0.0-55.0-0.0", "time_elapsed": 332982, "key_press": -1, "type": "PRE_RECALL_DELAY", "trial_index": 73}, "uniqueid": "MTK3331:3LRLIPTPERG2U7QY5T6F4LBRXEYKAB", "dateTime": 1520443349194}, {"current_trial": 74, "trialdata": {"rt": -1000, "trial_type": "single-audio", "stimulus": "/static/audio/400Hz.wav", "internal_node_id": "0.0-56.0", "time_elapsed": 333485, "key_press": -1, "type": "PRE_RECALL_ALERT", "trial_index": 74}, "uniqueid": "MTK3331:3LRLIPTPERG2U7QY5T6F4LBRXEYKAB", "dateTime": 1520443349697}, {"current_trial": 75, "trialdata": {"rt": [1467, 2779, 4411, 6043, 13514, 15082, 16865, 19689, 22377, 23721, 25337, 32777], "recwords": ["server", "garlic", "sandwich", "japan", "bag", "webcam", "tablet", "garlic", "japan", "states", "united", "imagine"], "key_times": [563, 747, 867, 1091, 1155, 1243, 1467, 1931, 2091, 2155, 2315, 2482, 2563, 2779, 3027, 3186, 3291, 3419, 3587, 3907, 4075, 4147, 4411, 5387, 5458, 5555, 5683, 5795, 6043, 13050, 13161, 13329, 13514, 14297, 14394, 14505, 14617, 14769, 14849, 15082, 16010, 16194, 16377, 16569, 16641, 16705, 16865, 18945, 19146, 19169, 19289, 19482, 19545, 19689, 21609, 21801, 21905, 22058, 22153, 22377, 22969, 23122, 23258, 23337, 23409, 23579, 23721, 24714, 24785, 24937, 25001, 25066, 25249, 25337, 31753, 31785, 31977, 32186, 32265, 32322, 32441, 32777], "trial_type": "free-recall", "conditions": [18, 1200, "v", 18000], "internal_node_id": "0.0-57.0-0.0", "key_presses": [83, 69, 82, 86, 69, 82, 13, 71, 65, 82, 76, 73, 67, 13, 83, 65, 78, 68, 87, 73, 67, 72, 13, 74, 65, 80, 65, 78, 13, 66, 65, 71, 13, 87, 69, 66, 67, 65, 77, 13, 84, 65, 66, 76, 69, 84, 13, 71, 65, 82, 76, 73, 67, 13, 74, 65, 80, 65, 78, 13, 83, 84, 65, 84, 69, 83, 13, 85, 78, 73, 84, 69, 68, 13, 73, 77, 65, 71, 73, 78, 69, 13], "trial": 1, "time_elapsed": 393489, "type": "FREE_RECALL", "trial_index": 75}, "uniqueid": "MTK3331:3LRLIPTPERG2U7QY5T6F4LBRXEYKAB", "dateTime": 1520443409704}, {"current_trial": 76, "trialdata": {"rt": 1858, "trial_type": "text", "internal_node_id": "0.0-58.0", "time_elapsed": 397354, "key_press": 32, "type": "INSTRUCTIONS", "trial_index": 76}, "uniqueid": "MTK3331:3LRLIPTPERG2U7QY5T6F4LBRXEYKAB", "dateTime": 1520443413565}, {"current_trial": 77, "trialdata": {"rt": [3196, 4892, 7084, 8756, 10972, 12916, 15308, 17275, 19307, 21179, 23435], "trial_type": "math-distractor", "key_times": [2628, 2724, 3196, 4484, 4612, 4892, 6804, 6947, 7084, 8452, 8756, 10444, 10515, 10972, 12292, 12492, 12916, 14708, 14876, 15308, 16964, 17035, 17275, 18963, 19212, 19307, 20700, 20843, 21179, 22580, 22875, 23435], "responses": ["21", "20", "14", "8", "23", "18", "18", "12", "15", "18", "17"], "num2": [5, 2, 5, 6, 6, 7, 9, 1, 9, 6, 5, 9], "num3": [9, 9, 2, 1, 8, 7, 6, 4, 1, 5, 3, 6], "conditions": [24, 800, "v", 24000], "internal_node_id": "0.0-59.0", "key_presses": [50, 49, 13, 50, 48, 13, 49, 52, 13, 56, 13, 50, 51, 13, 49, 56, 13, 49, 56, 13, 49, 50, 13, 49, 53, 13, 49, 56, 13, 49, 55, 13], "trial": 2, "time_elapsed": 422360, "type": "DISTRACTOR", "trial_index": 77, "num1": [7, 9, 7, 1, 9, 4, 3, 7, 5, 7, 9, 3]}, "uniqueid": "MTK3331:3LRLIPTPERG2U7QY5T6F4LBRXEYKAB", "dateTime": 1520443438571}, {"current_trial": 78, "trialdata": {"rt": -1, "trial_type": "single-stim", "stimulus": "<p id=\"stim\">10</p>", "internal_node_id": "0.0-60.0-0.0", "time_elapsed": 425363, "key_press": -1, "trial_index": 78}, "uniqueid": "MTK3331:3LRLIPTPERG2U7QY5T6F4LBRXEYKAB", "dateTime": 1520443441574}, {"current_trial": 79, "trialdata": {"rt": -1, "trial_type": "single-stim", "stimulus": "<p id=\"stim\">9</p>", "internal_node_id": "0.0-60.0-1.0", "time_elapsed": 426365, "key_press": -1, "trial_index": 79}, "uniqueid": "MTK3331:3LRLIPTPERG2U7QY5T6F4LBRXEYKAB", "dateTime": 1520443442576}, {"current_trial": 80, "trialdata": {"rt": -1, "trial_type": "single-stim", "stimulus": "<p id=\"stim\">8</p>", "internal_node_id": "0.0-60.0-2.0", "time_elapsed": 427366, "key_press": -1, "trial_index": 80}, "uniqueid": "MTK3331:3LRLIPTPERG2U7QY5T6F4LBRXEYKAB", "dateTime": 1520443443577}, {"current_trial": 81, "trialdata": {"rt": -1, "trial_type": "single-stim", "stimulus": "<p id=\"stim\">7</p>", "internal_node_id": "0.0-60.0-3.0", "time_elapsed": 428369, "key_press": -1, "trial_index": 81}, "uniqueid": "MTK3331:3LRLIPTPERG2U7QY5T6F4LBRXEYKAB", "dateTime": 1520443444580}, {"current_trial": 82, "trialdata": {"rt": -1, "trial_type": "single-stim", "stimulus": "<p id=\"stim\">6</p>", "internal_node_id": "0.0-60.0-4.0", "time_elapsed": 429372, "key_press": -1, "trial_index": 82}, "uniqueid": "MTK3331:3LRLIPTPERG2U7QY5T6F4LBRXEYKAB", "dateTime": 1520443445584}, {"current_trial": 83, "trialdata": {"rt": -1, "trial_type": "single-stim", "stimulus": "<p id=\"stim\">5</p>", "internal_node_id": "0.0-60.0-5.0", "time_elapsed": 430376, "key_press": -1, "trial_index": 83}, "uniqueid": "MTK3331:3LRLIPTPERG2U7QY5T6F4LBRXEYKAB", "dateTime": 1520443446587}, {"current_trial": 84, "trialdata": {"rt": -1, "trial_type": "single-stim", "stimulus": "<p id=\"stim\">4</p>", "internal_node_id": "0.0-60.0-6.0", "time_elapsed": 431379, "key_press": -1, "trial_index": 84}, "uniqueid": "MTK3331:3LRLIPTPERG2U7QY5T6F4LBRXEYKAB", "dateTime": 1520443447591}, {"current_trial": 85, "trialdata": {"rt": -1, "trial_type": "single-stim", "stimulus": "<p id=\"stim\">3</p>", "internal_node_id": "0.0-60.0-7.0", "time_elapsed": 432382, "key_press": -1, "trial_index": 85}, "uniqueid": "MTK3331:3LRLIPTPERG2U7QY5T6F4LBRXEYKAB", "dateTime": 1520443448594}, {"current_trial": 86, "trialdata": {"rt": -1, "trial_type": "single-stim", "stimulus": "<p id=\"stim\">2</p>", "internal_node_id": "0.0-60.0-8.0", "time_elapsed": 433386, "key_press": -1, "trial_index": 86}, "uniqueid": "MTK3331:3LRLIPTPERG2U7QY5T6F4LBRXEYKAB", "dateTime": 1520443449597}, {"current_trial": 87, "trialdata": {"rt": -1, "trial_type": "single-stim", "stimulus": "<p id=\"stim\">1</p>", "internal_node_id": "0.0-60.0-9.0", "time_elapsed": 434387, "key_press": -1, "trial_index": 87}, "uniqueid": "MTK3331:3LRLIPTPERG2U7QY5T6F4LBRXEYKAB", "dateTime": 1520443450598}, {"current_trial": 88, "trialdata": {"rt": -1, "trial_type": "single-stim", "stimulus": "<p id=\"stim\">+</p>", "internal_node_id": "0.0-61.0-0.0", "time_elapsed": 435890, "key_press": -1, "type": "FIXATION", "trial_index": 88}, "uniqueid": "MTK3331:3LRLIPTPERG2U7QY5T6F4LBRXEYKAB", "dateTime": 1520443452101}, {"current_trial": 89, "trialdata": {"rt": -1, "trial_type": "single-stim", "word": "flask", "stimulus": "<p id=\"stim\">FLASK</p>", "conditions": [24, 800, "v", 24000], "internal_node_id": "0.0-62.0", "trial": 2, "time_elapsed": 436692, "serialpos": 0, "key_press": -1, "wordID": 575, "type": "PRES_VIS", "trial_index": 89}, "uniqueid": "MTK3331:3LRLIPTPERG2U7QY5T6F4LBRXEYKAB", "dateTime": 1520443452903}, {"current_trial": 90, "trialdata": {"rt": -1, "trial_type": "single-stim", "word": "knife", "stimulus": "<p id=\"stim\">KNIFE</p>", "conditions": [24, 800, "v", 24000], "internal_node_id": "0.0-63.0", "trial": 2, "time_elapsed": 438517, "serialpos": 1, "key_press": -1, "wordID": 784, "type": "PRES_VIS", "trial_index": 90}, "uniqueid": "MTK3331:3LRLIPTPERG2U7QY5T6F4LBRXEYKAB", "dateTime": 1520443454729}, {"current_trial": 91, "trialdata": {"rt": -1, "trial_type": "single-stim", "word": "gymnast", "stimulus": "<p id=\"stim\">GYMNAST</p>", "conditions": [24, 800, "v", 24000], "internal_node_id": "0.0-64.0", "trial": 2, "time_elapsed": 440161, "serialpos": 2, "key_press": -1, "wordID": 674, "type": "PRES_VIS", "trial_index": 91}, "uniqueid": "MTK3331:3LRLIPTPERG2U7QY5T6F4LBRXEYKAB", "dateTime": 1520443456373}, {"current_trial": 92, "trialdata": {"rt": -1, "trial_type": "single-stim", "word": "dancer", "stimulus": "<p id=\"stim\">DANCER</p>", "conditions": [24, 800, "v", 24000], "internal_node_id": "0.0-65.0", "trial": 2, "time_elapsed": 441921, "serialpos": 3, "key_press": -1, "wordID": 436, "type": "PRES_VIS", "trial_index": 92}, "uniqueid": "MTK3331:3LRLIPTPERG2U7QY5T6F4LBRXEYKAB", "dateTime": 1520443458133}, {"current_trial": 93, "trialdata": {"rt": -1, "trial_type": "single-stim", "word": "award", "stimulus": "<p id=\"stim\">AWARD</p>", "conditions": [24, 800, "v", 24000], "internal_node_id": "0.0-66.0", "trial": 2, "time_elapsed": 443689, "serialpos": 4, "key_press": -1, "wordID": 62, "type": "PRES_VIS", "trial_index": 93}, "uniqueid": "MTK3331:3LRLIPTPERG2U7QY5T6F4LBRXEYKAB", "dateTime": 1520443459900}, {"current_trial": 94, "trialdata": {"rt": -1, "trial_type": "single-stim", "word": "boyfriend", "stimulus": "<p id=\"stim\">BOYFRIEND</p>", "conditions": [24, 800, "v", 24000], "internal_node_id": "0.0-67.0", "trial": 2, "time_elapsed": 445693, "serialpos": 5, "key_press": -1, "wordID": 161, "type": "PRES_VIS", "trial_index": 94}, "uniqueid": "MTK3331:3LRLIPTPERG2U7QY5T6F4LBRXEYKAB", "dateTime": 1520443461904}, {"current_trial": 95, "trialdata": {"rt": -1, "trial_type": "single-stim", "word": "ghetto", "stimulus": "<p id=\"stim\">GHETTO</p>", "conditions": [24, 800, "v", 24000], "internal_node_id": "0.0-68.0", "trial": 2, "time_elapsed": 447659, "serialpos": 6, "key_press": -1, "wordID": 632, "type": "PRES_VIS", "trial_index": 95}, "uniqueid": "MTK3331:3LRLIPTPERG2U7QY5T6F4LBRXEYKAB", "dateTime": 1520443463871}, {"current_trial": 96, "trialdata": {"rt": -1, "trial_type": "single-stim", "word": "harp", "stimulus": "<p id=\"stim\">HARP</p>", "conditions": [24, 800, "v", 24000], "internal_node_id": "0.0-69.0", "trial": 2, "time_elapsed": 449420, "serialpos": 7, "key_press": -1, "wordID": 688, "type": "PRES_VIS", "trial_index": 96}, "uniqueid": "MTK3331:3LRLIPTPERG2U7QY5T6F4LBRXEYKAB", "dateTime": 1520443465631}, {"current_trial": 97, "trialdata": {"rt": -1, "trial_type": "single-stim", "word": "lipstick", "stimulus": "<p id=\"stim\">LIPSTICK</p>", "conditions": [24, 800, "v", 24000], "internal_node_id": "0.0-70.0", "trial": 2, "time_elapsed": 451363, "serialpos": 8, "key_press": -1, "wordID": 828, "type": "PRES_VIS", "trial_index": 97}, "uniqueid": "MTK3331:3LRLIPTPERG2U7QY5T6F4LBRXEYKAB", "dateTime": 1520443467574}, {"current_trial": 98, "trialdata": {"rt": -1, "trial_type": "single-stim", "word": "girl", "stimulus": "<p id=\"stim\">GIRL</p>", "conditions": [24, 800, "v", 24000], "internal_node_id": "0.0-71.0", "trial": 2, "time_elapsed": 453259, "serialpos": 9, "key_press": -1, "wordID": 636, "type": "PRES_VIS", "trial_index": 98}, "uniqueid": "MTK3331:3LRLIPTPERG2U7QY5T6F4LBRXEYKAB", "dateTime": 1520443469471}, {"current_trial": 99, "trialdata": {"rt": -1, "trial_type": "single-stim", "word": "guitar", "stimulus": "<p id=\"stim\">GUITAR</p>", "conditions": [24, 800, "v", 24000], "internal_node_id": "0.0-72.0", "trial": 2, "time_elapsed": 454906, "serialpos": 10, "key_press": -1, "wordID": 669, "type": "PRES_VIS", "trial_index": 99}, "uniqueid": "MTK3331:3LRLIPTPERG2U7QY5T6F4LBRXEYKAB", "dateTime": 1520443471117}, {"current_trial": 100, "trialdata": {"rt": -1, "trial_type": "single-stim", "word": "jury", "stimulus": "<p id=\"stim\">JURY</p>", "conditions": [24, 800, "v", 24000], "internal_node_id": "0.0-73.0", "trial": 2, "time_elapsed": 456560, "serialpos": 11, "key_press": -1, "wordID": 765, "type": "PRES_VIS", "trial_index": 100}, "uniqueid": "MTK3331:3LRLIPTPERG2U7QY5T6F4LBRXEYKAB", "dateTime": 1520443472771}, {"current_trial": 101, "trialdata": {"rt": -1, "trial_type": "single-stim", "word": "robot", "stimulus": "<p id=\"stim\">ROBOT</p>", "conditions": [24, 800, "v", 24000], "internal_node_id": "0.0-74.0", "trial": 2, "time_elapsed": 458161, "serialpos": 12, "key_press": -1, "wordID": 1199, "type": "PRES_VIS", "trial_index": 101}, "uniqueid": "MTK3331:3LRLIPTPERG2U7QY5T6F4LBRXEYKAB", "dateTime": 1520443474373}, {"current_trial": 102, "trialdata": {"rt": -1, "trial_type": "single-stim", "word": "portrait", "stimulus": "<p id=\"stim\">PORTRAIT</p>", "conditions": [24, 800, "v", 24000], "internal_node_id": "0.0-75.0", "trial": 2, "time_elapsed": 460084, "serialpos": 13, "key_press": -1, "wordID": 1110, "type": "PRES_VIS", "trial_index": 102}, "uniqueid": "MTK3331:3LRLIPTPERG2U7QY5T6F4LBRXEYKAB", "dateTime": 1520443476295}, {"current_trial": 103, "trialdata": {"rt": -1, "trial_type": "single-stim", "word": "finger", "stimulus": "<p id=\"stim\">FINGER</p>", "conditions": [24, 800, "v", 24000], "internal_node_id": "0.0-76.0", "trial": 2, "time_elapsed": 461909, "serialpos": 14, "key_press": -1, "wordID": 566, "type": "PRES_VIS", "trial_index": 103}, "uniqueid": "MTK3331:3LRLIPTPERG2U7QY5T6F4LBRXEYKAB", "dateTime": 1520443478121}, {"current_trial": 104, "trialdata": {"rt": -1, "trial_type": "single-stim", "word": "drug", "stimulus": "<p id=\"stim\">DRUG</p>", "conditions": [24, 800, "v", 24000], "internal_node_id": "0.0-77.0", "trial": 2, "time_elapsed": 463876, "serialpos": 15, "key_press": -1, "wordID": 500, "type": "PRES_VIS", "trial_index": 104}, "uniqueid": "MTK3331:3LRLIPTPERG2U7QY5T6F4LBRXEYKAB", "dateTime": 1520443480087}, {"current_trial": 105, "trialdata": {"rt": -1, "trial_type": "single-stim", "word": "cabbage", "stimulus": "<p id=\"stim\">CABBAGE</p>", "conditions": [24, 800, "v", 24000], "internal_node_id": "0.0-78.0", "trial": 2, "time_elapsed": 465500, "serialpos": 16, "key_press": -1, "wordID": 209, "type": "PRES_VIS", "trial_index": 105}, "uniqueid": "MTK3331:3LRLIPTPERG2U7QY5T6F4LBRXEYKAB", "dateTime": 1520443481711}, {"current_trial": 106, "trialdata": {"rt": -1, "trial_type": "single-stim", "word": "mattress", "stimulus": "<p id=\"stim\">MATTRESS</p>", "conditions": [24, 800, "v", 24000], "internal_node_id": "0.0-79.0", "trial": 2, "time_elapsed": 467380, "serialpos": 17, "key_press": -1, "wordID": 878, "type": "PRES_VIS", "trial_index": 106}, "uniqueid": "MTK3331:3LRLIPTPERG2U7QY5T6F4LBRXEYKAB", "dateTime": 1520443483591}, {"current_trial": 107, "trialdata": {"rt": -1, "trial_type": "single-stim", "word": "crib", "stimulus": "<p id=\"stim\">CRIB</p>", "conditions": [24, 800, "v", 24000], "internal_node_id": "0.0-80.0", "trial": 2, "time_elapsed": 469129, "serialpos": 18, "key_press": -1, "wordID": 406, "type": "PRES_VIS", "trial_index": 107}, "uniqueid": "MTK3331:3LRLIPTPERG2U7QY5T6F4LBRXEYKAB", "dateTime": 1520443485341}, {"current_trial": 108, "trialdata": {"rt": -1, "trial_type": "single-stim", "word": "twig", "stimulus": "<p id=\"stim\">TWIG</p>", "conditions": [24, 800, "v", 24000], "internal_node_id": "0.0-81.0", "trial": 2, "time_elapsed": 470919, "serialpos": 19, "key_press": -1, "wordID": 1526, "type": "PRES_VIS", "trial_index": 108}, "uniqueid": "MTK3331:3LRLIPTPERG2U7QY5T6F4LBRXEYKAB", "dateTime": 1520443487130}, {"current_trial": 109, "trialdata": {"rt": -1, "trial_type": "single-stim", "word": "gazelle", "stimulus": "<p id=\"stim\">GAZELLE</p>", "conditions": [24, 800, "v", 24000], "internal_node_id": "0.0-82.0", "trial": 2, "time_elapsed": 472723, "serialpos": 20, "key_press": -1, "wordID": 627, "type": "PRES_VIS", "trial_index": 109}, "uniqueid": "MTK3331:3LRLIPTPERG2U7QY5T6F4LBRXEYKAB", "dateTime": 1520443488934}, {"current_trial": 110, "trialdata": {"rt": -1, "trial_type": "single-stim", "word": "buggy", "stimulus": "<p id=\"stim\">BUGGY</p>", "conditions": [24, 800, "v", 24000], "internal_node_id": "0.0-83.0", "trial": 2, "time_elapsed": 474389, "serialpos": 21, "key_press": -1, "wordID": 187, "type": "PRES_VIS", "trial_index": 110}, "uniqueid": "MTK3331:3LRLIPTPERG2U7QY5T6F4LBRXEYKAB", "dateTime": 1520443490601}, {"current_trial": 111, "trialdata": {"rt": -1, "trial_type": "single-stim", "word": "wrist", "stimulus": "<p id=\"stim\">WRIST</p>", "conditions": [24, 800, "v", 24000], "internal_node_id": "0.0-84.0", "trial": 2, "time_elapsed": 476261, "serialpos": 22, "key_press": -1, "wordID": 1625, "type": "PRES_VIS", "trial_index": 111}, "uniqueid": "MTK3331:3LRLIPTPERG2U7QY5T6F4LBRXEYKAB", "dateTime": 1520443492472}, {"current_trial": 112, "trialdata": {"rt": -1, "trial_type": "single-stim", "word": "picnic", "stimulus": "<p id=\"stim\">PICNIC</p>", "conditions": [24, 800, "v", 24000], "internal_node_id": "0.0-85.0", "trial": 2, "time_elapsed": 477977, "serialpos": 23, "key_press": -1, "wordID": 1059, "type": "PRES_VIS", "trial_index": 112}, "uniqueid": "MTK3331:3LRLIPTPERG2U7QY5T6F4LBRXEYKAB", "dateTime": 1520443494189}, {"current_trial": 113, "trialdata": {"rt": -1, "trial_type": "single-stim", "stimulus": "", "internal_node_id": "0.0-86.0-0.0", "time_elapsed": 480336, "key_press": -1, "type": "PRE_RECALL_DELAY", "trial_index": 113}, "uniqueid": "MTK3331:3LRLIPTPERG2U7QY5T6F4LBRXEYKAB", "dateTime": 1520443496548}, {"current_trial": 114, "trialdata": {"rt": -1000, "trial_type": "single-audio", "stimulus": "/static/audio/400Hz.wav", "internal_node_id": "0.0-87.0", "time_elapsed": 480838, "key_press": -1, "type": "PRE_RECALL_ALERT", "trial_index": 114}, "uniqueid": "MTK3331:3LRLIPTPERG2U7QY5T6F4LBRXEYKAB", "dateTime": 1520443497050}, {"current_trial": 115, "trialdata": {"rt": [3918, 4975, 6615, 8430, 10502, 12255, 13135, 15167, 17231, 18895, 20279, 22486, 24094, 26047, 27934, 29766, 30961, 40406], "recwords": ["lipstick", "girl", "guitar", "jury", "robot", "portrait", "finger", "drug", "cabbage", "flask", "knife", "gymnast", "dancer", "award", "boyfriend", "ghetto", "harp", "jury"], "key_times": [2224, 2391, 2575, 2719, 3255, 3375, 3535, 3623, 3918, 4351, 4519, 4623, 4758, 4975, 5704, 5791, 5935, 6046, 6310, 6430, 6615, 7878, 8047, 8167, 8327, 8430, 9095, 9159, 9558, 9966, 10119, 10230, 10342, 10502, 10942, 11111, 11222, 11342, 11439, 11662, 11743, 12127, 12255, 12598, 12671, 12774, 12814, 12902, 12990, 13135, 14599, 14783, 14871, 15030, 15167, 16255, 16487, 16598, 16727, 16783, 16967, 17142, 17231, 18239, 18319, 18430, 18614, 18711, 18895, 19567, 19742, 19855, 20047, 20167, 20279, 21326, 21551, 21798, 21974, 22070, 22167, 22391, 22486, 23495, 23646, 23734, 23838, 23926, 23998, 24094, 24639, 24839, 25094, 25230, 25519, 25686, 25726, 25807, 25991, 26047, 26798, 26894, 27070, 27278, 27455, 27519, 27630, 27727, 27838, 27934, 28935, 29094, 29190, 29358, 29478, 29583, 29766, 30454, 30558, 30630, 30750, 30961, 32375, 32598, 32783, 32929, 33046, 33151, 33654, 34155, 34188, 34221, 34253, 34287, 34319, 34352, 34386, 34419, 34453, 34485, 34518, 34551, 34584, 34617, 38742, 38894, 39199, 40326, 40406], "trial_type": "free-recall", "conditions": [24, 800, "v", 24000], "internal_node_id": "0.0-88.0-0.0", "key_presses": [76, 73, 80, 83, 84, 73, 67, 75, 13, 71, 73, 82, 76, 13, 71, 85, 73, 84, 65, 82, 13, 74, 85, 82, 89, 13, 82, 79, 8, 79, 66, 79, 84, 13, 80, 79, 82, 84, 82, 65, 73, 84, 13, 70, 73, 78, 71, 69, 82, 13, 68, 82, 85, 71, 13, 67, 65, 66, 66, 65, 71, 69, 13, 70, 76, 65, 83, 75, 13, 75, 78, 73, 70, 69, 13, 71, 89, 77, 78, 65, 83, 84, 13, 68, 65, 78, 67, 69, 82, 13, 65, 87, 82, 65, 8, 8, 65, 82, 68, 13, 66, 79, 89, 70, 82, 73, 69, 78, 68, 13, 71, 72, 69, 84, 84, 79, 13, 72, 65, 82, 80, 13, 76, 73, 80, 83, 84, 73, 8, 8, 8, 8, 8, 8, 8, 8, 8, 8, 8, 8, 8, 8, 8, 8, 74, 85, 82, 89, 13], "trial": 2, "time_elapsed": 540844, "type": "FREE_RECALL", "trial_index": 115}, "uniqueid": "MTK3331:3LRLIPTPERG2U7QY5T6F4LBRXEYKAB", "dateTime": 1520443557059}, {"current_trial": 116, "trialdata": {"rt": 1774, "trial_type": "text", "internal_node_id": "0.0-89.0", "time_elapsed": 544623, "key_press": 32, "type": "INSTRUCTIONS", "trial_index": 116}, "uniqueid": "MTK3331:3LRLIPTPERG2U7QY5T6F4LBRXEYKAB", "dateTime": 1520443560835}, {"current_trial": 117, "trialdata": {"rt": [2316, 4524, 6884, 8756, 11884], "trial_type": "math-distractor", "key_times": [1604, 1748, 2316, 4068, 4292, 4524, 6620, 6756, 6884, 8380, 8508, 8756, 10348, 10412, 11580, 11723, 11884], "responses": ["18", "14", "22", "14", "13"], "num2": [7, 2, 9, 4, 6, 6], "num3": [8, 5, 4, 7, 5, 5], "conditions": [24, 1600, "v", 12000], "internal_node_id": "0.0-90.0", "key_presses": [49, 56, 13, 49, 52, 13, 50, 50, 13, 49, 52, 13, 49, 52, 8, 51, 13], "trial": 3, "time_elapsed": 558629, "type": "DISTRACTOR", "trial_index": 117, "num1": [3, 7, 9, 3, 2, 6]}, "uniqueid": "MTK3331:3LRLIPTPERG2U7QY5T6F4LBRXEYKAB", "dateTime": 1520443574841}, {"current_trial": 118, "trialdata": {"rt": -1, "trial_type": "single-stim", "stimulus": "<p id=\"stim\">10</p>", "internal_node_id": "0.0-91.0-0.0", "time_elapsed": 561634, "key_press": -1, "trial_index": 118}, "uniqueid": "MTK3331:3LRLIPTPERG2U7QY5T6F4LBRXEYKAB", "dateTime": 1520443577845}, {"current_trial": 119, "trialdata": {"rt": -1, "trial_type": "single-stim", "stimulus": "<p id=\"stim\">9</p>", "internal_node_id": "0.0-91.0-1.0", "time_elapsed": 562635, "key_press": -1, "trial_index": 119}, "uniqueid": "MTK3331:3LRLIPTPERG2U7QY5T6F4LBRXEYKAB", "dateTime": 1520443578847}, {"current_trial": 120, "trialdata": {"rt": -1, "trial_type": "single-stim", "stimulus": "<p id=\"stim\">8</p>", "internal_node_id": "0.0-91.0-2.0", "time_elapsed": 563639, "key_press": -1, "trial_index": 120}, "uniqueid": "MTK3331:3LRLIPTPERG2U7QY5T6F4LBRXEYKAB", "dateTime": 1520443579851}, {"current_trial": 121, "trialdata": {"rt": -1, "trial_type": "single-stim", "stimulus": "<p id=\"stim\">7</p>", "internal_node_id": "0.0-91.0-3.0", "time_elapsed": 564642, "key_press": -1, "trial_index": 121}, "uniqueid": "MTK3331:3LRLIPTPERG2U7QY5T6F4LBRXEYKAB", "dateTime": 1520443580854}, {"current_trial": 122, "trialdata": {"rt": -1, "trial_type": "single-stim", "stimulus": "<p id=\"stim\">6</p>", "internal_node_id": "0.0-91.0-4.0", "time_elapsed": 565643, "key_press": -1, "trial_index": 122}, "uniqueid": "MTK3331:3LRLIPTPERG2U7QY5T6F4LBRXEYKAB", "dateTime": 1520443581854}, {"current_trial": 123, "trialdata": {"rt": -1, "trial_type": "single-stim", "stimulus": "<p id=\"stim\">5</p>", "internal_node_id": "0.0-91.0-5.0", "time_elapsed": 566646, "key_press": -1, "trial_index": 123}, "uniqueid": "MTK3331:3LRLIPTPERG2U7QY5T6F4LBRXEYKAB", "dateTime": 1520443582858}, {"current_trial": 124, "trialdata": {"rt": -1, "trial_type": "single-stim", "stimulus": "<p id=\"stim\">4</p>", "internal_node_id": "0.0-91.0-6.0", "time_elapsed": 567649, "key_press": -1, "trial_index": 124}, "uniqueid": "MTK3331:3LRLIPTPERG2U7QY5T6F4LBRXEYKAB", "dateTime": 1520443583861}, {"current_trial": 125, "trialdata": {"rt": -1, "trial_type": "single-stim", "stimulus": "<p id=\"stim\">3</p>", "internal_node_id": "0.0-91.0-7.0", "time_elapsed": 568650, "key_press": -1, "trial_index": 125}, "uniqueid": "MTK3331:3LRLIPTPERG2U7QY5T6F4LBRXEYKAB", "dateTime": 1520443584862}, {"current_trial": 126, "trialdata": {"rt": -1, "trial_type": "single-stim", "stimulus": "<p id=\"stim\">2</p>", "internal_node_id": "0.0-91.0-8.0", "time_elapsed": 569654, "key_press": -1, "trial_index": 126}, "uniqueid": "MTK3331:3LRLIPTPERG2U7QY5T6F4LBRXEYKAB", "dateTime": 1520443585865}, {"current_trial": 127, "trialdata": {"rt": -1, "trial_type": "single-stim", "stimulus": "<p id=\"stim\">1</p>", "internal_node_id": "0.0-91.0-9.0", "time_elapsed": 570657, "key_press": -1, "trial_index": 127}, "uniqueid": "MTK3331:3LRLIPTPERG2U7QY5T6F4LBRXEYKAB", "dateTime": 1520443586868}, {"current_trial": 128, "trialdata": {"rt": -1, "trial_type": "single-stim", "stimulus": "<p id=\"stim\">+</p>", "internal_node_id": "0.0-92.0-0.0", "time_elapsed": 572159, "key_press": -1, "type": "FIXATION", "trial_index": 128}, "uniqueid": "MTK3331:3LRLIPTPERG2U7QY5T6F4LBRXEYKAB", "dateTime": 1520443588370}, {"current_trial": 129, "trialdata": {"rt": -1, "trial_type": "single-stim", "word": "wasp", "stimulus": "<p id=\"stim\">WASP</p>", "conditions": [24, 1600, "v", 12000], "internal_node_id": "0.0-93.0", "trial": 3, "time_elapsed": 573762, "serialpos": 0, "key_press": -1, "wordID": 1592, "type": "PRES_VIS", "trial_index": 129}, "uniqueid": "MTK3331:3LRLIPTPERG2U7QY5T6F4LBRXEYKAB", "dateTime": 1520443589973}, {"current_trial": 130, "trialdata": {"rt": -1, "trial_type": "single-stim", "word": "dentist", "stimulus": "<p id=\"stim\">DENTIST</p>", "conditions": [24, 1600, "v", 12000], "internal_node_id": "0.0-94.0", "trial": 3, "time_elapsed": 576373, "serialpos": 1, "key_press": -1, "wordID": 446, "type": "PRES_VIS", "trial_index": 130}, "uniqueid": "MTK3331:3LRLIPTPERG2U7QY5T6F4LBRXEYKAB", "dateTime": 1520443592584}, {"current_trial": 131, "trialdata": {"rt": -1, "trial_type": "single-stim", "word": "branch", "stimulus": "<p id=\"stim\">BRANCH</p>", "conditions": [24, 1600, "v", 12000], "internal_node_id": "0.0-95.0", "trial": 3, "time_elapsed": 578921, "serialpos": 2, "key_press": -1, "wordID": 167, "type": "PRES_VIS", "trial_index": 131}, "uniqueid": "MTK3331:3LRLIPTPERG2U7QY5T6F4LBRXEYKAB", "dateTime": 1520443595134}, {"current_trial": 132, "trialdata": {"rt": -1, "trial_type": "single-stim", "word": "cattle", "stimulus": "<p id=\"stim\">CATTLE</p>", "conditions": [24, 1600, "v", 12000], "internal_node_id": "0.0-96.0", "trial": 3, "time_elapsed": 581340, "serialpos": 3, "key_press": -1, "wordID": 260, "type": "PRES_VIS", "trial_index": 132}, "uniqueid": "MTK3331:3LRLIPTPERG2U7QY5T6F4LBRXEYKAB", "dateTime": 1520443597551}, {"current_trial": 133, "trialdata": {"rt": -1, "trial_type": "single-stim", "word": "lamp", "stimulus": "<p id=\"stim\">LAMP</p>", "conditions": [24, 1600, "v", 12000], "internal_node_id": "0.0-97.0", "trial": 3, "time_elapsed": 584003, "serialpos": 4, "key_press": -1, "wordID": 797, "type": "PRES_VIS", "trial_index": 133}, "uniqueid": "MTK3331:3LRLIPTPERG2U7QY5T6F4LBRXEYKAB", "dateTime": 1520443600214}, {"current_trial": 134, "trialdata": {"rt": -1, "trial_type": "single-stim", "word": "barley", "stimulus": "<p id=\"stim\">BARLEY</p>", "conditions": [24, 1600, "v", 12000], "internal_node_id": "0.0-98.0", "trial": 3, "time_elapsed": 586800, "serialpos": 5, "key_press": -1, "wordID": 87, "type": "PRES_VIS", "trial_index": 134}, "uniqueid": "MTK3331:3LRLIPTPERG2U7QY5T6F4LBRXEYKAB", "dateTime": 1520443603012}, {"current_trial": 135, "trialdata": {"rt": -1, "trial_type": "single-stim", "word": "outfit", "stimulus": "<p id=\"stim\">OUTFIT</p>", "conditions": [24, 1600, "v", 12000], "internal_node_id": "0.0-99.0", "trial": 3, "time_elapsed": 589484, "serialpos": 6, "key_press": -1, "wordID": 987, "type": "PRES_VIS", "trial_index": 135}, "uniqueid": "MTK3331:3LRLIPTPERG2U7QY5T6F4LBRXEYKAB", "dateTime": 1520443605697}, {"current_trial": 136, "trialdata": {"rt": -1, "trial_type": "single-stim", "word": "lava", "stimulus": "<p id=\"stim\">LAVA</p>", "conditions": [24, 1600, "v", 12000], "internal_node_id": "0.0-100.0", "trial": 3, "time_elapsed": 592142, "serialpos": 7, "key_press": -1, "wordID": 803, "type": "PRES_VIS", "trial_index": 136}, "uniqueid": "MTK3331:3LRLIPTPERG2U7QY5T6F4LBRXEYKAB", "dateTime": 1520443608354}, {"current_trial": 137, "trialdata": {"rt": -1, "trial_type": "single-stim", "word": "truck", "stimulus": "<p id=\"stim\">TRUCK</p>", "conditions": [24, 1600, "v", 12000], "internal_node_id": "0.0-101.0", "trial": 3, "time_elapsed": 594742, "serialpos": 8, "key_press": -1, "wordID": 1511, "type": "PRES_VIS", "trial_index": 137}, "uniqueid": "MTK3331:3LRLIPTPERG2U7QY5T6F4LBRXEYKAB", "dateTime": 1520443610953}, {"current_trial": 138, "trialdata": {"rt": -1, "trial_type": "single-stim", "word": "tractor", "stimulus": "<p id=\"stim\">TRACTOR</p>", "conditions": [24, 1600, "v", 12000], "internal_node_id": "0.0-102.0", "trial": 3, "time_elapsed": 597477, "serialpos": 9, "key_press": -1, "wordID": 1492, "type": "PRES_VIS", "trial_index": 138}, "uniqueid": "MTK3331:3LRLIPTPERG2U7QY5T6F4LBRXEYKAB", "dateTime": 1520443613688}, {"current_trial": 139, "trialdata": {"rt": -1, "trial_type": "single-stim", "word": "knapsack", "stimulus": "<p id=\"stim\">KNAPSACK</p>", "conditions": [24, 1600, "v", 12000], "internal_node_id": "0.0-103.0", "trial": 3, "time_elapsed": 599939, "serialpos": 10, "key_press": -1, "wordID": 782, "type": "PRES_VIS", "trial_index": 139}, "uniqueid": "MTK3331:3LRLIPTPERG2U7QY5T6F4LBRXEYKAB", "dateTime": 1520443616150}, {"current_trial": 140, "trialdata": {"rt": -1, "trial_type": "single-stim", "word": "crater", "stimulus": "<p id=\"stim\">CRATER</p>", "conditions": [24, 1600, "v", 12000], "internal_node_id": "0.0-104.0", "trial": 3, "time_elapsed": 602522, "serialpos": 11, "key_press": -1, "wordID": 399, "type": "PRES_VIS", "trial_index": 140}, "uniqueid": "MTK3331:3LRLIPTPERG2U7QY5T6F4LBRXEYKAB", "dateTime": 1520443618733}, {"current_trial": 141, "trialdata": {"rt": -1, "trial_type": "single-stim", "word": "piano", "stimulus": "<p id=\"stim\">PIANO</p>", "conditions": [24, 1600, "v", 12000], "internal_node_id": "0.0-105.0", "trial": 3, "time_elapsed": 605277, "serialpos": 12, "key_press": -1, "wordID": 1056, "type": "PRES_VIS", "trial_index": 141}, "uniqueid": "MTK3331:3LRLIPTPERG2U7QY5T6F4LBRXEYKAB", "dateTime": 1520443621488}, {"current_trial": 142, "trialdata": {"rt": -1, "trial_type": "single-stim", "word": "typist", "stimulus": "<p id=\"stim\">TYPIST</p>", "conditions": [24, 1600, "v", 12000], "internal_node_id": "0.0-106.0", "trial": 3, "time_elapsed": 607701, "serialpos": 13, "key_press": -1, "wordID": 1531, "type": "PRES_VIS", "trial_index": 142}, "uniqueid": "MTK3331:3LRLIPTPERG2U7QY5T6F4LBRXEYKAB", "dateTime": 1520443623913}, {"current_trial": 143, "trialdata": {"rt": -1, "trial_type": "single-stim", "word": "grape", "stimulus": "<p id=\"stim\">GRAPE</p>", "conditions": [24, 1600, "v", 12000], "internal_node_id": "0.0-107.0", "trial": 3, "time_elapsed": 610228, "serialpos": 14, "key_press": -1, "wordID": 653, "type": "PRES_VIS", "trial_index": 143}, "uniqueid": "MTK3331:3LRLIPTPERG2U7QY5T6F4LBRXEYKAB", "dateTime": 1520443626440}, {"current_trial": 144, "trialdata": {"rt": -1, "trial_type": "single-stim", "word": "honey", "stimulus": "<p id=\"stim\">HONEY</p>", "conditions": [24, 1600, "v", 12000], "internal_node_id": "0.0-108.0", "trial": 3, "time_elapsed": 612954, "serialpos": 15, "key_press": -1, "wordID": 712, "type": "PRES_VIS", "trial_index": 144}, "uniqueid": "MTK3331:3LRLIPTPERG2U7QY5T6F4LBRXEYKAB", "dateTime": 1520443629166}, {"current_trial": 145, "trialdata": {"rt": -1, "trial_type": "single-stim", "word": "novel", "stimulus": "<p id=\"stim\">NOVEL</p>", "conditions": [24, 1600, "v", 12000], "internal_node_id": "0.0-109.0", "trial": 3, "time_elapsed": 615744, "serialpos": 16, "key_press": -1, "wordID": 959, "type": "PRES_VIS", "trial_index": 145}, "uniqueid": "MTK3331:3LRLIPTPERG2U7QY5T6F4LBRXEYKAB", "dateTime": 1520443631955}, {"current_trial": 146, "trialdata": {"rt": -1, "trial_type": "single-stim", "word": "victim", "stimulus": "<p id=\"stim\">VICTIM</p>", "conditions": [24, 1600, "v", 12000], "internal_node_id": "0.0-110.0", "trial": 3, "time_elapsed": 618391, "serialpos": 17, "key_press": -1, "wordID": 1561, "type": "PRES_VIS", "trial_index": 146}, "uniqueid": "MTK3331:3LRLIPTPERG2U7QY5T6F4LBRXEYKAB", "dateTime": 1520443634603}, {"current_trial": 147, "trialdata": {"rt": -1, "trial_type": "single-stim", "word": "leg", "stimulus": "<p id=\"stim\">LEG</p>", "conditions": [24, 1600, "v", 12000], "internal_node_id": "0.0-111.0", "trial": 3, "time_elapsed": 620972, "serialpos": 18, "key_press": -1, "wordID": 808, "type": "PRES_VIS", "trial_index": 147}, "uniqueid": "MTK3331:3LRLIPTPERG2U7QY5T6F4LBRXEYKAB", "dateTime": 1520443637183}, {"current_trial": 148, "trialdata": {"rt": -1, "trial_type": "single-stim", "word": "frame", "stimulus": "<p id=\"stim\">FRAME</p>", "conditions": [24, 1600, "v", 12000], "internal_node_id": "0.0-112.0", "trial": 3, "time_elapsed": 623626, "serialpos": 19, "key_press": -1, "wordID": 599, "type": "PRES_VIS", "trial_index": 148}, "uniqueid": "MTK3331:3LRLIPTPERG2U7QY5T6F4LBRXEYKAB", "dateTime": 1520443639837}, {"current_trial": 149, "trialdata": {"rt": -1, "trial_type": "single-stim", "word": "banjo", "stimulus": "<p id=\"stim\">BANJO</p>", "conditions": [24, 1600, "v", 12000], "internal_node_id": "0.0-113.0", "trial": 3, "time_elapsed": 626074, "serialpos": 20, "key_press": -1, "wordID": 81, "type": "PRES_VIS", "trial_index": 149}, "uniqueid": "MTK3331:3LRLIPTPERG2U7QY5T6F4LBRXEYKAB", "dateTime": 1520443642286}, {"current_trial": 150, "trialdata": {"rt": -1, "trial_type": "single-stim", "word": "trout", "stimulus": "<p id=\"stim\">TROUT</p>", "conditions": [24, 1600, "v", 12000], "internal_node_id": "0.0-114.0", "trial": 3, "time_elapsed": 628858, "serialpos": 21, "key_press": -1, "wordID": 1510, "type": "PRES_VIS", "trial_index": 150}, "uniqueid": "MTK3331:3LRLIPTPERG2U7QY5T6F4LBRXEYKAB", "dateTime": 1520443645070}, {"current_trial": 151, "trialdata": {"rt": -1, "trial_type": "single-stim", "word": "mister", "stimulus": "<p id=\"stim\">MISTER</p>", "conditions": [24, 1600, "v", 12000], "internal_node_id": "0.0-115.0", "trial": 3, "time_elapsed": 631620, "serialpos": 22, "key_press": -1, "wordID": 900, "type": "PRES_VIS", "trial_index": 151}, "uniqueid": "MTK3331:3LRLIPTPERG2U7QY5T6F4LBRXEYKAB", "dateTime": 1520443647831}, {"current_trial": 152, "trialdata": {"rt": -1, "trial_type": "single-stim", "word": "freckle", "stimulus": "<p id=\"stim\">FRECKLE</p>", "conditions": [24, 1600, "v", 12000], "internal_node_id": "0.0-116.0", "trial": 3, "time_elapsed": 634403, "serialpos": 23, "key_press": -1, "wordID": 601, "type": "PRES_VIS", "trial_index": 152}, "uniqueid": "MTK3331:3LRLIPTPERG2U7QY5T6F4LBRXEYKAB", "dateTime": 1520443650615}, {"current_trial": 153, "trialdata": {"rt": -1, "trial_type": "single-stim", "stimulus": "", "internal_node_id": "0.0-117.0-0.0", "time_elapsed": 636562, "key_press": -1, "type": "PRE_RECALL_DELAY", "trial_index": 153}, "uniqueid": "MTK3331:3LRLIPTPERG2U7QY5T6F4LBRXEYKAB", "dateTime": 1520443652774}, {"current_trial": 154, "trialdata": {"rt": -1000, "trial_type": "single-audio", "stimulus": "/static/audio/400Hz.wav", "internal_node_id": "0.0-118.0", "time_elapsed": 637065, "key_press": -1, "type": "PRE_RECALL_ALERT", "trial_index": 154}, "uniqueid": "MTK3331:3LRLIPTPERG2U7QY5T6F4LBRXEYKAB", "dateTime": 1520443653276}, {"current_trial": 155, "trialdata": {"rt": [1996, 3643, 5339, 8140, 10932, 14003, 16172, 18635, 21683, 24331, 26483, 28123, 30843, 33083, 38339, 41379, 44011], "recwords": ["dentist", "branch", "cattle", "lamp", "barley", "outfit", "lava", "truck", "tractor", "knapsack", "crater", "wasp", "dentist", "branch", "lamp", "barley", "outfit"], "key_times": [884, 1059, 1196, 1371, 1508, 1628, 1756, 1996, 2356, 2468, 2604, 2732, 2860, 2979, 3643, 4491, 4716, 4891, 5012, 5100, 5219, 5339, 7283, 7411, 7476, 7795, 8140, 10059, 10147, 10324, 10371, 10540, 10732, 10932, 12764, 12853, 12996, 13212, 13276, 13428, 14003, 15556, 15668, 15899, 16003, 16172, 17931, 18067, 18180, 18300, 18403, 18635, 20707, 20811, 20996, 21147, 21340, 21435, 21523, 21683, 23156, 23251, 23427, 23548, 23660, 23876, 24092, 24171, 24331, 25725, 25947, 26083, 26179, 26283, 26371, 26483, 27299, 27643, 27756, 27891, 28123, 29795, 30035, 30155, 30468, 30563, 30651, 30723, 30843, 32267, 32363, 32484, 32587, 32723, 32779, 33083, 37539, 37844, 37963, 38059, 38339, 40180, 40323, 40747, 41027, 41148, 41276, 41379, 43220, 43283, 43378, 43595, 43699, 43868, 44011], "trial_type": "free-recall", "conditions": [24, 1600, "v", 12000], "internal_node_id": "0.0-119.0-0.0", "key_presses": [68, 69, 78, 84, 73, 83, 84, 13, 66, 82, 65, 78, 67, 72, 13, 67, 65, 84, 84, 76, 69, 13, 76, 65, 77, 80, 13, 66, 65, 82, 76, 69, 89, 13, 79, 85, 84, 70, 73, 84, 13, 76, 65, 86, 65, 13, 84, 82, 85, 67, 75, 13, 84, 82, 65, 67, 84, 79, 82, 13, 75, 78, 65, 80, 83, 65, 67, 75, 13, 67, 82, 65, 84, 69, 82, 13, 87, 65, 83, 80, 13, 68, 69, 78, 84, 73, 83, 84, 13, 66, 82, 65, 78, 67, 72, 13, 76, 65, 77, 80, 13, 66, 65, 82, 76, 69, 89, 13, 79, 85, 84, 70, 73, 84, 13], "trial": 3, "time_elapsed": 697069, "type": "FREE_RECALL", "trial_index": 155}, "uniqueid": "MTK3331:3LRLIPTPERG2U7QY5T6F4LBRXEYKAB", "dateTime": 1520443713285}, {"current_trial": 156, "trialdata": {"rt": 6003, "trial_type": "text", "internal_node_id": "0.0-120.0", "time_elapsed": 705079, "key_press": 32, "type": "INSTRUCTIONS", "trial_index": 156}, "uniqueid": "MTK3331:3LRLIPTPERG2U7QY5T6F4LBRXEYKAB", "dateTime": 1520443721290}, {"current_trial": 157, "trialdata": {"rt": [2329, 4833, 7209, 9793], "trial_type": "math-distractor", "key_times": [1721, 1873, 2329, 4528, 4681, 4833, 6793, 6968, 7209, 8738, 8904, 9257, 9689, 9793], "responses": ["15", "13", "19", "24"], "num2": [3, 8, 9, 8, 9], "num3": [3, 4, 7, 9, 9], "conditions": [12, 800, "v", 12000], "internal_node_id": "0.0-121.0", "key_presses": [49, 53, 13, 49, 51, 13, 49, 57, 13, 50, 51, 8, 52, 13], "trial": 4, "time_elapsed": 719084, "type": "DISTRACTOR", "trial_index": 157, "num1": [9, 1, 3, 7, 8]}, "uniqueid": "MTK3331:3LRLIPTPERG2U7QY5T6F4LBRXEYKAB", "dateTime": 1520443735295}, {"current_trial": 158, "trialdata": {"rt": -1, "trial_type": "single-stim", "stimulus": "<p id=\"stim\">10</p>", "internal_node_id": "0.0-122.0-0.0", "time_elapsed": 722086, "key_press": -1, "trial_index": 158}, "uniqueid": "MTK3331:3LRLIPTPERG2U7QY5T6F4LBRXEYKAB", "dateTime": 1520443738298}, {"current_trial": 159, "trialdata": {"rt": -1, "trial_type": "single-stim", "stimulus": "<p id=\"stim\">9</p>", "internal_node_id": "0.0-122.0-1.0", "time_elapsed": 723088, "key_press": -1, "trial_index": 159}, "uniqueid": "MTK3331:3LRLIPTPERG2U7QY5T6F4LBRXEYKAB", "dateTime": 1520443739300}, {"current_trial": 160, "trialdata": {"rt": -1, "trial_type": "single-stim", "stimulus": "<p id=\"stim\">8</p>", "internal_node_id": "0.0-122.0-2.0", "time_elapsed": 724090, "key_press": -1, "trial_index": 160}, "uniqueid": "MTK3331:3LRLIPTPERG2U7QY5T6F4LBRXEYKAB", "dateTime": 1520443740302}, {"current_trial": 161, "trialdata": {"rt": -1, "trial_type": "single-stim", "stimulus": "<p id=\"stim\">7</p>", "internal_node_id": "0.0-122.0-3.0", "time_elapsed": 725092, "key_press": -1, "trial_index": 161}, "uniqueid": "MTK3331:3LRLIPTPERG2U7QY5T6F4LBRXEYKAB", "dateTime": 1520443741304}, {"current_trial": 162, "trialdata": {"rt": -1, "trial_type": "single-stim", "stimulus": "<p id=\"stim\">6</p>", "internal_node_id": "0.0-122.0-4.0", "time_elapsed": 726095, "key_press": -1, "trial_index": 162}, "uniqueid": "MTK3331:3LRLIPTPERG2U7QY5T6F4LBRXEYKAB", "dateTime": 1520443742307}, {"current_trial": 163, "trialdata": {"rt": -1, "trial_type": "single-stim", "stimulus": "<p id=\"stim\">5</p>", "internal_node_id": "0.0-122.0-5.0", "time_elapsed": 727098, "key_press": -1, "trial_index": 163}, "uniqueid": "MTK3331:3LRLIPTPERG2U7QY5T6F4LBRXEYKAB", "dateTime": 1520443743309}, {"current_trial": 164, "trialdata": {"rt": -1, "trial_type": "single-stim", "stimulus": "<p id=\"stim\">4</p>", "internal_node_id": "0.0-122.0-6.0", "time_elapsed": 728100, "key_press": -1, "trial_index": 164}, "uniqueid": "MTK3331:3LRLIPTPERG2U7QY5T6F4LBRXEYKAB", "dateTime": 1520443744311}, {"current_trial": 165, "trialdata": {"rt": -1, "trial_type": "single-stim", "stimulus": "<p id=\"stim\">3</p>", "internal_node_id": "0.0-122.0-7.0", "time_elapsed": 729102, "key_press": -1, "trial_index": 165}, "uniqueid": "MTK3331:3LRLIPTPERG2U7QY5T6F4LBRXEYKAB", "dateTime": 1520443745314}, {"current_trial": 166, "trialdata": {"rt": -1, "trial_type": "single-stim", "stimulus": "<p id=\"stim\">2</p>", "internal_node_id": "0.0-122.0-8.0", "time_elapsed": 730106, "key_press": -1, "trial_index": 166}, "uniqueid": "MTK3331:3LRLIPTPERG2U7QY5T6F4LBRXEYKAB", "dateTime": 1520443746317}, {"current_trial": 167, "trialdata": {"rt": -1, "trial_type": "single-stim", "stimulus": "<p id=\"stim\">1</p>", "internal_node_id": "0.0-122.0-9.0", "time_elapsed": 731108, "key_press": -1, "trial_index": 167}, "uniqueid": "MTK3331:3LRLIPTPERG2U7QY5T6F4LBRXEYKAB", "dateTime": 1520443747319}, {"current_trial": 168, "trialdata": {"rt": -1, "trial_type": "single-stim", "stimulus": "<p id=\"stim\">+</p>", "internal_node_id": "0.0-123.0-0.0", "time_elapsed": 732610, "key_press": -1, "type": "FIXATION", "trial_index": 168}, "uniqueid": "MTK3331:3LRLIPTPERG2U7QY5T6F4LBRXEYKAB", "dateTime": 1520443748821}, {"current_trial": 169, "trialdata": {"rt": -1, "trial_type": "single-stim", "word": "dorm", "stimulus": "<p id=\"stim\">DORM</p>", "conditions": [12, 800, "v", 12000], "internal_node_id": "0.0-124.0", "trial": 4, "time_elapsed": 733412, "serialpos": 0, "key_press": -1, "wordID": 487, "type": "PRES_VIS", "trial_index": 169}, "uniqueid": "MTK3331:3LRLIPTPERG2U7QY5T6F4LBRXEYKAB", "dateTime": 1520443749623}, {"current_trial": 170, "trialdata": {"rt": -1, "trial_type": "single-stim", "word": "soda", "stimulus": "<p id=\"stim\">SODA</p>", "conditions": [12, 800, "v", 12000], "internal_node_id": "0.0-125.0", "trial": 4, "time_elapsed": 735065, "serialpos": 1, "key_press": -1, "wordID": 1340, "type": "PRES_VIS", "trial_index": 170}, "uniqueid": "MTK3331:3LRLIPTPERG2U7QY5T6F4LBRXEYKAB", "dateTime": 1520443751278}, {"current_trial": 171, "trialdata": {"rt": -1, "trial_type": "single-stim", "word": "hood", "stimulus": "<p id=\"stim\">HOOD</p>", "conditions": [12, 800, "v", 12000], "internal_node_id": "0.0-126.0", "trial": 4, "time_elapsed": 736857, "serialpos": 2, "key_press": -1, "wordID": 713, "type": "PRES_VIS", "trial_index": 171}, "uniqueid": "MTK3331:3LRLIPTPERG2U7QY5T6F4LBRXEYKAB", "dateTime": 1520443753068}, {"current_trial": 172, "trialdata": {"rt": -1, "trial_type": "single-stim", "word": "plaid", "stimulus": "<p id=\"stim\">PLAID</p>", "conditions": [12, 800, "v", 12000], "internal_node_id": "0.0-127.0", "trial": 4, "time_elapsed": 738545, "serialpos": 3, "key_press": -1, "wordID": 1079, "type": "PRES_VIS", "trial_index": 172}, "uniqueid": "MTK3331:3LRLIPTPERG2U7QY5T6F4LBRXEYKAB", "dateTime": 1520443754756}, {"current_trial": 173, "trialdata": {"rt": -1, "trial_type": "single-stim", "word": "lodge", "stimulus": "<p id=\"stim\">LODGE</p>", "conditions": [12, 800, "v", 12000], "internal_node_id": "0.0-128.0", "trial": 4, "time_elapsed": 740296, "serialpos": 4, "key_press": -1, "wordID": 838, "type": "PRES_VIS", "trial_index": 173}, "uniqueid": "MTK3331:3LRLIPTPERG2U7QY5T6F4LBRXEYKAB", "dateTime": 1520443756508}, {"current_trial": 174, "trialdata": {"rt": -1, "trial_type": "single-stim", "word": "cellar", "stimulus": "<p id=\"stim\">CELLAR</p>", "conditions": [12, 800, "v", 12000], "internal_node_id": "0.0-129.0", "trial": 4, "time_elapsed": 742003, "serialpos": 5, "key_press": -1, "wordID": 266, "type": "PRES_VIS", "trial_index": 174}, "uniqueid": "MTK3331:3LRLIPTPERG2U7QY5T6F4LBRXEYKAB", "dateTime": 1520443758214}, {"current_trial": 175, "trialdata": {"rt": -1, "trial_type": "single-stim", "word": "suitcase", "stimulus": "<p id=\"stim\">SUITCASE</p>", "conditions": [12, 800, "v", 12000], "internal_node_id": "0.0-130.0", "trial": 4, "time_elapsed": 743975, "serialpos": 6, "key_press": -1, "wordID": 1402, "type": "PRES_VIS", "trial_index": 175}, "uniqueid": "MTK3331:3LRLIPTPERG2U7QY5T6F4LBRXEYKAB", "dateTime": 1520443760186}, {"current_trial": 176, "trialdata": {"rt": -1, "trial_type": "single-stim", "word": "handbag", "stimulus": "<p id=\"stim\">HANDBAG</p>", "conditions": [12, 800, "v", 12000], "internal_node_id": "0.0-131.0", "trial": 4, "time_elapsed": 745914, "serialpos": 7, "key_press": -1, "wordID": 683, "type": "PRES_VIS", "trial_index": 176}, "uniqueid": "MTK3331:3LRLIPTPERG2U7QY5T6F4LBRXEYKAB", "dateTime": 1520443762125}, {"current_trial": 177, "trialdata": {"rt": -1, "trial_type": "single-stim", "word": "popcorn", "stimulus": "<p id=\"stim\">POPCORN</p>", "conditions": [12, 800, "v", 12000], "internal_node_id": "0.0-132.0", "trial": 4, "time_elapsed": 747703, "serialpos": 8, "key_press": -1, "wordID": 1103, "type": "PRES_VIS", "trial_index": 177}, "uniqueid": "MTK3331:3LRLIPTPERG2U7QY5T6F4LBRXEYKAB", "dateTime": 1520443763914}, {"current_trial": 178, "trialdata": {"rt": -1, "trial_type": "single-stim", "word": "canyon", "stimulus": "<p id=\"stim\">CANYON</p>", "conditions": [12, 800, "v", 12000], "internal_node_id": "0.0-133.0", "trial": 4, "time_elapsed": 749610, "serialpos": 9, "key_press": -1, "wordID": 234, "type": "PRES_VIS", "trial_index": 178}, "uniqueid": "MTK3331:3LRLIPTPERG2U7QY5T6F4LBRXEYKAB", "dateTime": 1520443765821}, {"current_trial": 179, "trialdata": {"rt": -1, "trial_type": "single-stim", "word": "guard", "stimulus": "<p id=\"stim\">GUARD</p>", "conditions": [12, 800, "v", 12000], "internal_node_id": "0.0-134.0", "trial": 4, "time_elapsed": 751350, "serialpos": 10, "key_press": -1, "wordID": 666, "type": "PRES_VIS", "trial_index": 179}, "uniqueid": "MTK3331:3LRLIPTPERG2U7QY5T6F4LBRXEYKAB", "dateTime": 1520443767562}, {"current_trial": 180, "trialdata": {"rt": -1, "trial_type": "single-stim", "word": "rattle", "stimulus": "<p id=\"stim\">RATTLE</p>", "conditions": [12, 800, "v", 12000], "internal_node_id": "0.0-135.0", "trial": 4, "time_elapsed": 753250, "serialpos": 11, "key_press": -1, "wordID": 1169, "type": "PRES_VIS", "trial_index": 180}, "uniqueid": "MTK3331:3LRLIPTPERG2U7QY5T6F4LBRXEYKAB", "dateTime": 1520443769461}, {"current_trial": 181, "trialdata": {"rt": -1, "trial_type": "single-stim", "stimulus": "", "internal_node_id": "0.0-136.0-0.0", "time_elapsed": 755677, "key_press": -1, "type": "PRE_RECALL_DELAY", "trial_index": 181}, "uniqueid": "MTK3331:3LRLIPTPERG2U7QY5T6F4LBRXEYKAB", "dateTime": 1520443771888}, {"current_trial": 182, "trialdata": {"rt": -1000, "trial_type": "single-audio", "stimulus": "/static/audio/400Hz.wav", "internal_node_id": "0.0-137.0", "time_elapsed": 756179, "key_press": -1, "type": "PRE_RECALL_ALERT", "trial_index": 182}, "uniqueid": "MTK3331:3LRLIPTPERG2U7QY5T6F4LBRXEYKAB", "dateTime": 1520443772391}, {"current_trial": 183, "trialdata": {"rt": [4030, 5534, 7478, 9070, 11086, 15941, 16902, 18918, 20390, 22221, 24965, 41414], "recwords": ["dorm", "soda", "hood", "plaid", "lodge", "suitcase", "cellar", "popcorn", "canyon", "guard", "rattle", "idk"], "key_times": [3551, 3630, 3758, 3838, 4030, 5054, 5158, 5262, 5438, 5534, 6974, 7078, 7238, 7358, 7478, 8438, 8574, 8694, 8830, 8950, 9070, 10462, 10630, 10701, 10894, 10990, 11086, 12902, 13390, 14390, 14559, 14846, 14989, 15150, 15214, 15406, 15502, 15710, 15838, 15941, 16254, 16397, 16487, 16654, 16726, 16806, 16902, 17590, 17782, 17942, 18150, 18206, 18565, 18670, 18918, 19526, 19750, 19805, 20030, 20103, 20174, 20390, 21646, 21750, 21870, 21934, 22126, 22221, 23646, 23990, 24078, 24207, 24558, 24678, 24751, 24870, 24965, 40830, 40965, 41126, 41414], "trial_type": "free-recall", "conditions": [12, 800, "v", 12000], "internal_node_id": "0.0-138.0-0.0", "key_presses": [68, 79, 82, 77, 13, 83, 79, 68, 65, 13, 72, 79, 79, 68, 13, 80, 76, 65, 73, 68, 13, 76, 79, 68, 71, 69, 13, 67, 69, 8, 8, 83, 85, 73, 84, 67, 65, 83, 69, 13, 67, 69, 76, 76, 65, 82, 13, 80, 79, 80, 67, 79, 82, 78, 13, 67, 65, 78, 89, 79, 78, 13, 71, 85, 65, 82, 68, 13, 65, 8, 82, 65, 84, 84, 76, 69, 13, 73, 68, 75, 13], "trial": 4, "time_elapsed": 816183, "type": "FREE_RECALL", "trial_index": 183}, "uniqueid": "MTK3331:3LRLIPTPERG2U7QY5T6F4LBRXEYKAB", "dateTime": 1520443832399}, {"current_trial": 184, "trialdata": {"rt": 1318, "trial_type": "text", "internal_node_id": "0.0-139.0", "time_elapsed": 819508, "key_press": 32, "type": "INSTRUCTIONS", "trial_index": 184}, "uniqueid": "MTK3331:3LRLIPTPERG2U7QY5T6F4LBRXEYKAB", "dateTime": 1520443835720}, {"current_trial": 185, "trialdata": {"rt": [3603, 5299, 6971, 9107, 10355, 12659, 14803, 17331, 18619, 20603, 23242], "trial_type": "math-distractor", "key_times": [3147, 3259, 3603, 4978, 5219, 5299, 6627, 6827, 6971, 8140, 8587, 9107, 10203, 10282, 10355, 12123, 12379, 12659, 14627, 14723, 14803, 16362, 16843, 17331, 18540, 18619, 20284, 20603, 23068, 23210, 23242], "responses": ["23", "14", "13", "16", "21", "18", "21", "16", "7", "8", "22"], "num2": [9, 4, 8, 8, 7, 9, 7, 8, 3, 2, 7, 1], "num3": [6, 5, 4, 1, 7, 6, 6, 2, 1, 1, 9, 4], "conditions": [24, 1600, "v", 24000], "internal_node_id": "0.0-140.0", "key_presses": [50, 51, 13, 49, 52, 13, 49, 51, 13, 49, 54, 13, 50, 49, 13, 49, 56, 13, 50, 49, 13, 49, 54, 13, 55, 13, 56, 13, 50, 50, 13], "trial": 5, "time_elapsed": 845515, "type": "DISTRACTOR", "trial_index": 185, "num1": [8, 6, 1, 7, 7, 3, 9, 6, 3, 5, 6, 8]}, "uniqueid": "MTK3331:3LRLIPTPERG2U7QY5T6F4LBRXEYKAB", "dateTime": 1520443861726}, {"current_trial": 186, "trialdata": {"rt": -1, "trial_type": "single-stim", "stimulus": "<p id=\"stim\">10</p>", "internal_node_id": "0.0-141.0-0.0", "time_elapsed": 848517, "key_press": -1, "trial_index": 186}, "uniqueid": "MTK3331:3LRLIPTPERG2U7QY5T6F4LBRXEYKAB", "dateTime": 1520443864729}, {"current_trial": 187, "trialdata": {"rt": -1, "trial_type": "single-stim", "stimulus": "<p id=\"stim\">9</p>", "internal_node_id": "0.0-141.0-1.0", "time_elapsed": 849521, "key_press": -1, "trial_index": 187}, "uniqueid": "MTK3331:3LRLIPTPERG2U7QY5T6F4LBRXEYKAB", "dateTime": 1520443865732}, {"current_trial": 188, "trialdata": {"rt": -1, "trial_type": "single-stim", "stimulus": "<p id=\"stim\">8</p>", "internal_node_id": "0.0-141.0-2.0", "time_elapsed": 850523, "key_press": -1, "trial_index": 188}, "uniqueid": "MTK3331:3LRLIPTPERG2U7QY5T6F4LBRXEYKAB", "dateTime": 1520443866734}, {"current_trial": 189, "trialdata": {"rt": -1, "trial_type": "single-stim", "stimulus": "<p id=\"stim\">7</p>", "internal_node_id": "0.0-141.0-3.0", "time_elapsed": 851525, "key_press": -1, "trial_index": 189}, "uniqueid": "MTK3331:3LRLIPTPERG2U7QY5T6F4LBRXEYKAB", "dateTime": 1520443867737}, {"current_trial": 190, "trialdata": {"rt": -1, "trial_type": "single-stim", "stimulus": "<p id=\"stim\">6</p>", "internal_node_id": "0.0-141.0-4.0", "time_elapsed": 852528, "key_press": -1, "trial_index": 190}, "uniqueid": "MTK3331:3LRLIPTPERG2U7QY5T6F4LBRXEYKAB", "dateTime": 1520443868739}, {"current_trial": 191, "trialdata": {"rt": -1, "trial_type": "single-stim", "stimulus": "<p id=\"stim\">5</p>", "internal_node_id": "0.0-141.0-5.0", "time_elapsed": 853530, "key_press": -1, "trial_index": 191}, "uniqueid": "MTK3331:3LRLIPTPERG2U7QY5T6F4LBRXEYKAB", "dateTime": 1520443869741}, {"current_trial": 192, "trialdata": {"rt": -1, "trial_type": "single-stim", "stimulus": "<p id=\"stim\">4</p>", "internal_node_id": "0.0-141.0-6.0", "time_elapsed": 854532, "key_press": -1, "trial_index": 192}, "uniqueid": "MTK3331:3LRLIPTPERG2U7QY5T6F4LBRXEYKAB", "dateTime": 1520443870744}, {"current_trial": 193, "trialdata": {"rt": -1, "trial_type": "single-stim", "stimulus": "<p id=\"stim\">3</p>", "internal_node_id": "0.0-141.0-7.0", "time_elapsed": 855535, "key_press": -1, "trial_index": 193}, "uniqueid": "MTK3331:3LRLIPTPERG2U7QY5T6F4LBRXEYKAB", "dateTime": 1520443871746}, {"current_trial": 194, "trialdata": {"rt": -1, "trial_type": "single-stim", "stimulus": "<p id=\"stim\">2</p>", "internal_node_id": "0.0-141.0-8.0", "time_elapsed": 856536, "key_press": -1, "trial_index": 194}, "uniqueid": "MTK3331:3LRLIPTPERG2U7QY5T6F4LBRXEYKAB", "dateTime": 1520443872748}, {"current_trial": 195, "trialdata": {"rt": -1, "trial_type": "single-stim", "stimulus": "<p id=\"stim\">1</p>", "internal_node_id": "0.0-141.0-9.0", "time_elapsed": 857539, "key_press": -1, "trial_index": 195}, "uniqueid": "MTK3331:3LRLIPTPERG2U7QY5T6F4LBRXEYKAB", "dateTime": 1520443873750}, {"current_trial": 196, "trialdata": {"rt": -1, "trial_type": "single-stim", "stimulus": "<p id=\"stim\">+</p>", "internal_node_id": "0.0-142.0-0.0", "time_elapsed": 859042, "key_press": -1, "type": "FIXATION", "trial_index": 196}, "uniqueid": "MTK3331:3LRLIPTPERG2U7QY5T6F4LBRXEYKAB", "dateTime": 1520443875253}, {"current_trial": 197, "trialdata": {"rt": -1, "trial_type": "single-stim", "word": "daughter", "stimulus": "<p id=\"stim\">DAUGHTER</p>", "conditions": [24, 1600, "v", 24000], "internal_node_id": "0.0-143.0", "trial": 5, "time_elapsed": 860644, "serialpos": 0, "key_press": -1, "wordID": 441, "type": "PRES_VIS", "trial_index": 197}, "uniqueid": "MTK3331:3LRLIPTPERG2U7QY5T6F4LBRXEYKAB", "dateTime": 1520443876856}, {"current_trial": 198, "trialdata": {"rt": -1, "trial_type": "single-stim", "word": "convict", "stimulus": "<p id=\"stim\">CONVICT</p>", "conditions": [24, 1600, "v", 24000], "internal_node_id": "0.0-144.0", "trial": 5, "time_elapsed": 863056, "serialpos": 1, "key_press": -1, "wordID": 370, "type": "PRES_VIS", "trial_index": 198}, "uniqueid": "MTK3331:3LRLIPTPERG2U7QY5T6F4LBRXEYKAB", "dateTime": 1520443879268}, {"current_trial": 199, "trialdata": {"rt": -1, "trial_type": "single-stim", "word": "drink", "stimulus": "<p id=\"stim\">DRINK</p>", "conditions": [24, 1600, "v", 24000], "internal_node_id": "0.0-145.0", "trial": 5, "time_elapsed": 865542, "serialpos": 2, "key_press": -1, "wordID": 497, "type": "PRES_VIS", "trial_index": 199}, "uniqueid": "MTK3331:3LRLIPTPERG2U7QY5T6F4LBRXEYKAB", "dateTime": 1520443881754}, {"current_trial": 200, "trialdata": {"rt": -1, "trial_type": "single-stim", "word": "nightgown", "stimulus": "<p id=\"stim\">NIGHTGOWN</p>", "conditions": [24, 1600, "v", 24000], "internal_node_id": "0.0-146.0", "trial": 5, "time_elapsed": 868315, "serialpos": 3, "key_press": -1, "wordID": 952, "type": "PRES_VIS", "trial_index": 200}, "uniqueid": "MTK3331:3LRLIPTPERG2U7QY5T6F4LBRXEYKAB", "dateTime": 1520443884527}, {"current_trial": 201, "trialdata": {"rt": -1, "trial_type": "single-stim", "word": "dolphin", "stimulus": "<p id=\"stim\">DOLPHIN</p>", "conditions": [24, 1600, "v", 24000], "internal_node_id": "0.0-147.0", "trial": 5, "time_elapsed": 870982, "serialpos": 4, "key_press": -1, "wordID": 482, "type": "PRES_VIS", "trial_index": 201}, "uniqueid": "MTK3331:3LRLIPTPERG2U7QY5T6F4LBRXEYKAB", "dateTime": 1520443887193}, {"current_trial": 202, "trialdata": {"rt": -1, "trial_type": "single-stim", "word": "diner", "stimulus": "<p id=\"stim\">DINER</p>", "conditions": [24, 1600, "v", 24000], "internal_node_id": "0.0-148.0", "trial": 5, "time_elapsed": 873404, "serialpos": 5, "key_press": -1, "wordID": 466, "type": "PRES_VIS", "trial_index": 202}, "uniqueid": "MTK3331:3LRLIPTPERG2U7QY5T6F4LBRXEYKAB", "dateTime": 1520443889615}, {"current_trial": 203, "trialdata": {"rt": -1, "trial_type": "single-stim", "word": "cafe", "stimulus": "<p id=\"stim\">CAFE</p>", "conditions": [24, 1600, "v", 24000], "internal_node_id": "0.0-149.0", "trial": 5, "time_elapsed": 876065, "serialpos": 6, "key_press": -1, "wordID": 215, "type": "PRES_VIS", "trial_index": 203}, "uniqueid": "MTK3331:3LRLIPTPERG2U7QY5T6F4LBRXEYKAB", "dateTime": 1520443892277}, {"current_trial": 204, "trialdata": {"rt": -1, "trial_type": "single-stim", "word": "comet", "stimulus": "<p id=\"stim\">COMET</p>", "conditions": [24, 1600, "v", 24000], "internal_node_id": "0.0-150.0", "trial": 5, "time_elapsed": 878490, "serialpos": 7, "key_press": -1, "wordID": 352, "type": "PRES_VIS", "trial_index": 204}, "uniqueid": "MTK3331:3LRLIPTPERG2U7QY5T6F4LBRXEYKAB", "dateTime": 1520443894701}, {"current_trial": 205, "trialdata": {"rt": -1, "trial_type": "single-stim", "word": "helmet", "stimulus": "<p id=\"stim\">HELMET</p>", "conditions": [24, 1600, "v", 24000], "internal_node_id": "0.0-151.0", "trial": 5, "time_elapsed": 881083, "serialpos": 8, "key_press": -1, "wordID": 701, "type": "PRES_VIS", "trial_index": 205}, "uniqueid": "MTK3331:3LRLIPTPERG2U7QY5T6F4LBRXEYKAB", "dateTime": 1520443897295}, {"current_trial": 206, "trialdata": {"rt": -1, "trial_type": "single-stim", "word": "penguin", "stimulus": "<p id=\"stim\">PENGUIN</p>", "conditions": [24, 1600, "v", 24000], "internal_node_id": "0.0-152.0", "trial": 5, "time_elapsed": 883691, "serialpos": 9, "key_press": -1, "wordID": 1043, "type": "PRES_VIS", "trial_index": 206}, "uniqueid": "MTK3331:3LRLIPTPERG2U7QY5T6F4LBRXEYKAB", "dateTime": 1520443899903}, {"current_trial": 207, "trialdata": {"rt": -1, "trial_type": "single-stim", "word": "donkey", "stimulus": "<p id=\"stim\">DONKEY</p>", "conditions": [24, 1600, "v", 24000], "internal_node_id": "0.0-153.0", "trial": 5, "time_elapsed": 886216, "serialpos": 10, "key_press": -1, "wordID": 483, "type": "PRES_VIS", "trial_index": 207}, "uniqueid": "MTK3331:3LRLIPTPERG2U7QY5T6F4LBRXEYKAB", "dateTime": 1520443902428}, {"current_trial": 208, "trialdata": {"rt": -1, "trial_type": "single-stim", "word": "student", "stimulus": "<p id=\"stim\">STUDENT</p>", "conditions": [24, 1600, "v", 24000], "internal_node_id": "0.0-154.0", "trial": 5, "time_elapsed": 888686, "serialpos": 11, "key_press": -1, "wordID": 1394, "type": "PRES_VIS", "trial_index": 208}, "uniqueid": "MTK3331:3LRLIPTPERG2U7QY5T6F4LBRXEYKAB", "dateTime": 1520443904897}, {"current_trial": 209, "trialdata": {"rt": -1, "trial_type": "single-stim", "word": "donor", "stimulus": "<p id=\"stim\">DONOR</p>", "conditions": [24, 1600, "v", 24000], "internal_node_id": "0.0-155.0", "trial": 5, "time_elapsed": 891209, "serialpos": 12, "key_press": -1, "wordID": 484, "type": "PRES_VIS", "trial_index": 209}, "uniqueid": "MTK3331:3LRLIPTPERG2U7QY5T6F4LBRXEYKAB", "dateTime": 1520443907421}, {"current_trial": 210, "trialdata": {"rt": -1, "trial_type": "single-stim", "word": "agent", "stimulus": "<p id=\"stim\">AGENT</p>", "conditions": [24, 1600, "v", 24000], "internal_node_id": "0.0-156.0", "trial": 5, "time_elapsed": 893732, "serialpos": 13, "key_press": -1, "wordID": 9, "type": "PRES_VIS", "trial_index": 210}, "uniqueid": "MTK3331:3LRLIPTPERG2U7QY5T6F4LBRXEYKAB", "dateTime": 1520443909943}, {"current_trial": 211, "trialdata": {"rt": -1, "trial_type": "single-stim", "word": "pastry", "stimulus": "<p id=\"stim\">PASTRY</p>", "conditions": [24, 1600, "v", 24000], "internal_node_id": "0.0-157.0", "trial": 5, "time_elapsed": 896491, "serialpos": 14, "key_press": -1, "wordID": 1021, "type": "PRES_VIS", "trial_index": 211}, "uniqueid": "MTK3331:3LRLIPTPERG2U7QY5T6F4LBRXEYKAB", "dateTime": 1520443912702}, {"current_trial": 212, "trialdata": {"rt": -1, "trial_type": "single-stim", "word": "fruit", "stimulus": "<p id=\"stim\">FRUIT</p>", "conditions": [24, 1600, "v", 24000], "internal_node_id": "0.0-158.0", "trial": 5, "time_elapsed": 899170, "serialpos": 15, "key_press": -1, "wordID": 609, "type": "PRES_VIS", "trial_index": 212}, "uniqueid": "MTK3331:3LRLIPTPERG2U7QY5T6F4LBRXEYKAB", "dateTime": 1520443915381}, {"current_trial": 213, "trialdata": {"rt": -1, "trial_type": "single-stim", "word": "journal", "stimulus": "<p id=\"stim\">JOURNAL</p>", "conditions": [24, 1600, "v", 24000], "internal_node_id": "0.0-159.0", "trial": 5, "time_elapsed": 901835, "serialpos": 16, "key_press": -1, "wordID": 759, "type": "PRES_VIS", "trial_index": 213}, "uniqueid": "MTK3331:3LRLIPTPERG2U7QY5T6F4LBRXEYKAB", "dateTime": 1520443918047}, {"current_trial": 214, "trialdata": {"rt": -1, "trial_type": "single-stim", "word": "whistle", "stimulus": "<p id=\"stim\">WHISTLE</p>", "conditions": [24, 1600, "v", 24000], "internal_node_id": "0.0-160.0", "trial": 5, "time_elapsed": 904375, "serialpos": 17, "key_press": -1, "wordID": 1605, "type": "PRES_VIS", "trial_index": 214}, "uniqueid": "MTK3331:3LRLIPTPERG2U7QY5T6F4LBRXEYKAB", "dateTime": 1520443920586}, {"current_trial": 215, "trialdata": {"rt": -1, "trial_type": "single-stim", "word": "glove", "stimulus": "<p id=\"stim\">GLOVE</p>", "conditions": [24, 1600, "v", 24000], "internal_node_id": "0.0-161.0", "trial": 5, "time_elapsed": 906838, "serialpos": 18, "key_press": -1, "wordID": 641, "type": "PRES_VIS", "trial_index": 215}, "uniqueid": "MTK3331:3LRLIPTPERG2U7QY5T6F4LBRXEYKAB", "dateTime": 1520443923050}, {"current_trial": 216, "trialdata": {"rt": -1, "trial_type": "single-stim", "word": "contract", "stimulus": "<p id=\"stim\">CONTRACT</p>", "conditions": [24, 1600, "v", 24000], "internal_node_id": "0.0-162.0", "trial": 5, "time_elapsed": 909559, "serialpos": 19, "key_press": -1, "wordID": 367, "type": "PRES_VIS", "trial_index": 216}, "uniqueid": "MTK3331:3LRLIPTPERG2U7QY5T6F4LBRXEYKAB", "dateTime": 1520443925770}, {"current_trial": 217, "trialdata": {"rt": -1, "trial_type": "single-stim", "word": "bucket", "stimulus": "<p id=\"stim\">BUCKET</p>", "conditions": [24, 1600, "v", 24000], "internal_node_id": "0.0-163.0", "trial": 5, "time_elapsed": 912004, "serialpos": 20, "key_press": -1, "wordID": 183, "type": "PRES_VIS", "trial_index": 217}, "uniqueid": "MTK3331:3LRLIPTPERG2U7QY5T6F4LBRXEYKAB", "dateTime": 1520443928215}, {"current_trial": 218, "trialdata": {"rt": -1, "trial_type": "single-stim", "word": "muffin", "stimulus": "<p id=\"stim\">MUFFIN</p>", "conditions": [24, 1600, "v", 24000], "internal_node_id": "0.0-164.0", "trial": 5, "time_elapsed": 914520, "serialpos": 21, "key_press": -1, "wordID": 928, "type": "PRES_VIS", "trial_index": 218}, "uniqueid": "MTK3331:3LRLIPTPERG2U7QY5T6F4LBRXEYKAB", "dateTime": 1520443930731}, {"current_trial": 219, "trialdata": {"rt": -1, "trial_type": "single-stim", "word": "clothes", "stimulus": "<p id=\"stim\">CLOTHES</p>", "conditions": [24, 1600, "v", 24000], "internal_node_id": "0.0-165.0", "trial": 5, "time_elapsed": 917083, "serialpos": 22, "key_press": -1, "wordID": 326, "type": "PRES_VIS", "trial_index": 219}, "uniqueid": "MTK3331:3LRLIPTPERG2U7QY5T6F4LBRXEYKAB", "dateTime": 1520443933295}, {"current_trial": 220, "trialdata": {"rt": -1, "trial_type": "single-stim", "word": "wardrobe", "stimulus": "<p id=\"stim\">WARDROBE</p>", "conditions": [24, 1600, "v", 24000], "internal_node_id": "0.0-166.0", "trial": 5, "time_elapsed": 919587, "serialpos": 23, "key_press": -1, "wordID": 1586, "type": "PRES_VIS", "trial_index": 220}, "uniqueid": "MTK3331:3LRLIPTPERG2U7QY5T6F4LBRXEYKAB", "dateTime": 1520443935799}, {"current_trial": 221, "trialdata": {"rt": -1, "trial_type": "single-stim", "stimulus": "", "internal_node_id": "0.0-167.0-0.0", "time_elapsed": 921764, "key_press": -1, "type": "PRE_RECALL_DELAY", "trial_index": 221}, "uniqueid": "MTK3331:3LRLIPTPERG2U7QY5T6F4LBRXEYKAB", "dateTime": 1520443937975}, {"current_trial": 222, "trialdata": {"rt": -1000, "trial_type": "single-audio", "stimulus": "/static/audio/400Hz.wav", "internal_node_id": "0.0-168.0", "time_elapsed": 922265, "key_press": -1, "type": "PRE_RECALL_ALERT", "trial_index": 222}, "uniqueid": "MTK3331:3LRLIPTPERG2U7QY5T6F4LBRXEYKAB", "dateTime": 1520443938477}, {"current_trial": 223, "trialdata": {"rt": [1918, 2942, 5910, 8366, 10742, 13254, 16214, 18005, 20405, 23637, 25485, 27277, 30094, 32566, 41214, 42829, 44093], "recwords": ["clothes", "comet", "helmet", "penguin", "donkey", "student", "daughter", "convict", "drink", "nightgown", "dolphin", "diner", "cafe", "comet", "clothes", "donkey", "student"], "key_times": [807, 894, 1061, 1158, 1302, 1398, 1694, 1918, 2318, 2430, 2486, 2621, 2750, 2942, 4870, 4997, 5149, 5310, 5494, 5606, 5910, 7317, 7397, 7581, 7734, 7829, 8022, 8125, 8366, 9878, 9965, 10013, 10222, 10453, 10616, 10742, 12350, 12534, 12661, 12733, 12909, 12989, 13126, 13254, 14894, 15094, 15182, 15357, 15462, 15622, 15814, 15854, 16214, 17125, 17213, 17285, 17429, 17509, 17662, 17854, 18005, 19013, 19342, 19709, 19822, 19941, 20038, 20190, 20405, 21749, 21837, 22006, 22110, 22198, 22894, 23117, 23270, 23389, 23637, 24501, 24629, 24805, 24997, 25101, 25214, 25270, 25485, 26838, 26918, 26997, 27094, 27149, 27277, 29590, 29797, 29895, 30013, 30094, 32037, 32157, 32237, 32349, 32437, 32566, 40374, 40453, 40629, 40685, 40765, 40926, 41126, 41214, 42157, 42237, 42334, 42485, 42604, 42757, 42829, 43174, 43342, 43485, 43573, 43757, 43829, 43941, 44093], "trial_type": "free-recall", "conditions": [24, 1600, "v", 24000], "internal_node_id": "0.0-169.0-0.0", "key_presses": [67, 76, 79, 84, 72, 69, 83, 13, 67, 79, 77, 69, 84, 13, 72, 69, 76, 77, 69, 84, 13, 80, 69, 78, 71, 85, 73, 78, 13, 68, 79, 78, 75, 69, 89, 13, 83, 84, 85, 68, 69, 78, 84, 13, 68, 65, 85, 71, 72, 84, 69, 82, 13, 67, 79, 78, 86, 73, 67, 84, 13, 68, 73, 8, 82, 73, 78, 75, 13, 78, 73, 71, 72, 84, 71, 79, 87, 78, 13, 68, 79, 76, 80, 72, 73, 78, 13, 68, 73, 78, 69, 82, 13, 67, 65, 70, 69, 13, 67, 79, 77, 69, 84, 13, 67, 76, 79, 84, 72, 69, 83, 13, 68, 79, 78, 75, 69, 89, 13, 83, 84, 85, 68, 69, 78, 84, 13], "trial": 5, "time_elapsed": 982270, "type": "FREE_RECALL", "trial_index": 223}, "uniqueid": "MTK3331:3LRLIPTPERG2U7QY5T6F4LBRXEYKAB", "dateTime": 1520443998487}, {"current_trial": 224, "trialdata": {"rt": 9716, "trial_type": "text", "internal_node_id": "0.0-170.0", "time_elapsed": 993994, "key_press": 32, "type": "INSTRUCTIONS", "trial_index": 224}, "uniqueid": "MTK3331:3LRLIPTPERG2U7QY5T6F4LBRXEYKAB", "dateTime": 1520444010205}, {"current_trial": 225, "trialdata": {"rt": [2411, 4194, 6722, 8675, 11755], "trial_type": "math-distractor", "key_times": [2091, 2203, 2411, 4019, 4194, 6459, 6547, 6722, 8267, 8394, 8675, 11179, 11218, 11755], "responses": ["21", "7", "23", "10", "21"], "num2": [8, 3, 9, 1, 9, 9], "num3": [9, 2, 9, 2, 8, 7], "conditions": [24, 800, "v", 12000], "internal_node_id": "0.0-171.0", "key_presses": [50, 49, 13, 55, 13, 50, 51, 13, 49, 48, 13, 50, 49, 13], "trial": 6, "time_elapsed": 1008000, "type": "DISTRACTOR", "trial_index": 225, "num1": [4, 2, 5, 7, 4, 9]}, "uniqueid": "MTK3331:3LRLIPTPERG2U7QY5T6F4LBRXEYKAB", "dateTime": 1520444024211}, {"current_trial": 226, "trialdata": {"rt": -1, "trial_type": "single-stim", "stimulus": "<p id=\"stim\">10</p>", "internal_node_id": "0.0-172.0-0.0", "time_elapsed": 1011005, "key_press": -1, "trial_index": 226}, "uniqueid": "MTK3331:3LRLIPTPERG2U7QY5T6F4LBRXEYKAB", "dateTime": 1520444027216}, {"current_trial": 227, "trialdata": {"rt": -1, "trial_type": "single-stim", "stimulus": "<p id=\"stim\">9</p>", "internal_node_id": "0.0-172.0-1.0", "time_elapsed": 1012008, "key_press": -1, "trial_index": 227}, "uniqueid": "MTK3331:3LRLIPTPERG2U7QY5T6F4LBRXEYKAB", "dateTime": 1520444028219}, {"current_trial": 228, "trialdata": {"rt": -1, "trial_type": "single-stim", "stimulus": "<p id=\"stim\">8</p>", "internal_node_id": "0.0-172.0-2.0", "time_elapsed": 1013010, "key_press": -1, "trial_index": 228}, "uniqueid": "MTK3331:3LRLIPTPERG2U7QY5T6F4LBRXEYKAB", "dateTime": 1520444029221}, {"current_trial": 229, "trialdata": {"rt": -1, "trial_type": "single-stim", "stimulus": "<p id=\"stim\">7</p>", "internal_node_id": "0.0-172.0-3.0", "time_elapsed": 1014012, "key_press": -1, "trial_index": 229}, "uniqueid": "MTK3331:3LRLIPTPERG2U7QY5T6F4LBRXEYKAB", "dateTime": 1520444030223}, {"current_trial": 230, "trialdata": {"rt": -1, "trial_type": "single-stim", "stimulus": "<p id=\"stim\">6</p>", "internal_node_id": "0.0-172.0-4.0", "time_elapsed": 1015015, "key_press": -1, "trial_index": 230}, "uniqueid": "MTK3331:3LRLIPTPERG2U7QY5T6F4LBRXEYKAB", "dateTime": 1520444031226}, {"current_trial": 231, "trialdata": {"rt": -1, "trial_type": "single-stim", "stimulus": "<p id=\"stim\">5</p>", "internal_node_id": "0.0-172.0-5.0", "time_elapsed": 1016018, "key_press": -1, "trial_index": 231}, "uniqueid": "MTK3331:3LRLIPTPERG2U7QY5T6F4LBRXEYKAB", "dateTime": 1520444032229}, {"current_trial": 232, "trialdata": {"rt": -1, "trial_type": "single-stim", "stimulus": "<p id=\"stim\">4</p>", "internal_node_id": "0.0-172.0-6.0", "time_elapsed": 1017021, "key_press": -1, "trial_index": 232}, "uniqueid": "MTK3331:3LRLIPTPERG2U7QY5T6F4LBRXEYKAB", "dateTime": 1520444033232}, {"current_trial": 233, "trialdata": {"rt": -1, "trial_type": "single-stim", "stimulus": "<p id=\"stim\">3</p>", "internal_node_id": "0.0-172.0-7.0", "time_elapsed": 1018023, "key_press": -1, "trial_index": 233}, "uniqueid": "MTK3331:3LRLIPTPERG2U7QY5T6F4LBRXEYKAB", "dateTime": 1520444034235}, {"current_trial": 234, "trialdata": {"rt": -1, "trial_type": "single-stim", "stimulus": "<p id=\"stim\">2</p>", "internal_node_id": "0.0-172.0-8.0", "time_elapsed": 1019026, "key_press": -1, "trial_index": 234}, "uniqueid": "MTK3331:3LRLIPTPERG2U7QY5T6F4LBRXEYKAB", "dateTime": 1520444035238}, {"current_trial": 235, "trialdata": {"rt": -1, "trial_type": "single-stim", "stimulus": "<p id=\"stim\">1</p>", "internal_node_id": "0.0-172.0-9.0", "time_elapsed": 1020030, "key_press": -1, "trial_index": 235}, "uniqueid": "MTK3331:3LRLIPTPERG2U7QY5T6F4LBRXEYKAB", "dateTime": 1520444036241}, {"current_trial": 236, "trialdata": {"rt": -1, "trial_type": "single-stim", "stimulus": "<p id=\"stim\">+</p>", "internal_node_id": "0.0-173.0-0.0", "time_elapsed": 1021532, "key_press": -1, "type": "FIXATION", "trial_index": 236}, "uniqueid": "MTK3331:3LRLIPTPERG2U7QY5T6F4LBRXEYKAB", "dateTime": 1520444037744}, {"current_trial": 237, "trialdata": {"rt": -1, "trial_type": "single-stim", "word": "canal", "stimulus": "<p id=\"stim\">CANAL</p>", "conditions": [24, 800, "v", 12000], "internal_node_id": "0.0-174.0", "trial": 6, "time_elapsed": 1022335, "serialpos": 0, "key_press": -1, "wordID": 225, "type": "PRES_VIS", "trial_index": 237}, "uniqueid": "MTK3331:3LRLIPTPERG2U7QY5T6F4LBRXEYKAB", "dateTime": 1520444038547}, {"current_trial": 238, "trialdata": {"rt": -1, "trial_type": "single-stim", "word": "hostess", "stimulus": "<p id=\"stim\">HOSTESS</p>", "conditions": [24, 800, "v", 12000], "internal_node_id": "0.0-175.0", "trial": 6, "time_elapsed": 1024323, "serialpos": 1, "key_press": -1, "wordID": 722, "type": "PRES_VIS", "trial_index": 238}, "uniqueid": "MTK3331:3LRLIPTPERG2U7QY5T6F4LBRXEYKAB", "dateTime": 1520444040534}, {"current_trial": 239, "trialdata": {"rt": -1, "trial_type": "single-stim", "word": "tutu", "stimulus": "<p id=\"stim\">TUTU</p>", "conditions": [24, 800, "v", 12000], "internal_node_id": "0.0-176.0", "trial": 6, "time_elapsed": 1026099, "serialpos": 2, "key_press": -1, "wordID": 1523, "type": "PRES_VIS", "trial_index": 239}, "uniqueid": "MTK3331:3LRLIPTPERG2U7QY5T6F4LBRXEYKAB", "dateTime": 1520444042311}, {"current_trial": 240, "trialdata": {"rt": -1, "trial_type": "single-stim", "word": "costume", "stimulus": "<p id=\"stim\">COSTUME</p>", "conditions": [24, 800, "v", 12000], "internal_node_id": "0.0-177.0", "trial": 6, "time_elapsed": 1027934, "serialpos": 3, "key_press": -1, "wordID": 382, "type": "PRES_VIS", "trial_index": 240}, "uniqueid": "MTK3331:3LRLIPTPERG2U7QY5T6F4LBRXEYKAB", "dateTime": 1520444044145}, {"current_trial": 241, "trialdata": {"rt": -1, "trial_type": "single-stim", "word": "shovel", "stimulus": "<p id=\"stim\">SHOVEL</p>", "conditions": [24, 800, "v", 12000], "internal_node_id": "0.0-178.0", "trial": 6, "time_elapsed": 1029919, "serialpos": 4, "key_press": -1, "wordID": 1294, "type": "PRES_VIS", "trial_index": 241}, "uniqueid": "MTK3331:3LRLIPTPERG2U7QY5T6F4LBRXEYKAB", "dateTime": 1520444046130}, {"current_trial": 242, "trialdata": {"rt": -1, "trial_type": "single-stim", "word": "sunrise", "stimulus": "<p id=\"stim\">SUNRISE</p>", "conditions": [24, 800, "v", 12000], "internal_node_id": "0.0-179.0", "trial": 6, "time_elapsed": 1031785, "serialpos": 5, "key_press": -1, "wordID": 1406, "type": "PRES_VIS", "trial_index": 242}, "uniqueid": "MTK3331:3LRLIPTPERG2U7QY5T6F4LBRXEYKAB", "dateTime": 1520444047997}, {"current_trial": 243, "trialdata": {"rt": -1, "trial_type": "single-stim", "word": "coin", "stimulus": "<p id=\"stim\">COIN</p>", "conditions": [24, 800, "v", 12000], "internal_node_id": "0.0-180