{"assignmentId": "35L9RVQFCPPV7Q3O5DK9RU7TCENHU9", "workerId": "MTK3613", "questiondata": {"avail_screen_height": 728, "color_depth": 24, "screen_width": 1366, "pixel_depth": 24, "avail_screen_width": 1366, "screen_height": 768}, "bonus": 0, "hitId": "356ZPKYPUHO2EWNN8PK1E4JD9FWPYK", "counterbalance": 1214, "useragent": "Mozilla/5.0 (Windows NT 10.0; Win64; x64) AppleWebKit/537.36 (KHTML, like Gecko) Chrome/64.0.3282.168 Safari/537.36", "eventdata": [{"eventtype": "initialized", "interval": 0, "value": null, "timestamp": 1520808887067}, {"eventtype": "window_resize", "interval": 0, "value": [1366, 721], "timestamp": 1520808887067}, {"eventtype": "focus", "interval": 37439, "value": "off", "timestamp": 1520808924506}, {"eventtype": "focus", "interval": 5356, "value": "on", "timestamp": 1520808929862}, {"eventtype": "focus", "interval": 3537, "value": "off", "timestamp": 1520808933399}, {"eventtype": "focus", "interval": 5677, "value": "on", "timestamp": 1520808939076}, {"eventtype": "focus", "interval": 5, "value": "off", "timestamp": 1520808939081}, {"eventtype": "focus", "interval": 20, "value": "on", "timestamp": 1520808939101}, {"eventtype": "focus", "interval": 1277738, "value": "off", "timestamp": 1520810216839}, {"eventtype": "focus", "interval": 9594, "value": "on", "timestamp": 1520810226433}], "data": [{"current_trial": 0, "trialdata": {"rt": 6224, "trial_type": "text", "internal_node_id": "0.0-0.0", "time_elapsed": 6228, "key_press": 13, "type": "INSTRUCTIONS", "trial_index": 0}, "uniqueid": "MTK3613:35L9RVQFCPPV7Q3O5DK9RU7TCENHU9", "dateTime": 1520808941170}, {"current_trial": 1, "trialdata": {"rt": 30187, "trial_type": "text", "internal_node_id": "0.0-1.0", "time_elapsed": 36416, "key_press": 13, "type": "INSTRUCTIONS", "trial_index": 1}, "uniqueid": "MTK3613:35L9RVQFCPPV7Q3O5DK9RU7TCENHU9", "dateTime": 1520808971358}, {"current_trial": 2, "trialdata": {"rt": [16625], "trial_type": "audio-test", "responses": ["ocean"], "internal_node_id": "0.0-2.0", "time_elapsed": 53050, "type": "AUDIO_TEST", "trial_index": 2}, "uniqueid": "MTK3613:35L9RVQFCPPV7Q3O5DK9RU7TCENHU9", "dateTime": 1520808987992}, {"current_trial": 3, "trialdata": {"rt": [11260], "trial_type": "audio-test", "responses": ["crystal"], "internal_node_id": "0.0-3.0", "time_elapsed": 64313, "type": "AUDIO_TEST", "trial_index": 3}, "uniqueid": "MTK3613:35L9RVQFCPPV7Q3O5DK9RU7TCENHU9", "dateTime": 1520808999255}, {"current_trial": 4, "trialdata": {"rt": [7967], "trial_type": "audio-test", "responses": ["spice"], "internal_node_id": "0.0-4.0", "time_elapsed": 72284, "type": "AUDIO_TEST", "trial_index": 4}, "uniqueid": "MTK3613:35L9RVQFCPPV7Q3O5DK9RU7TCENHU9", "dateTime": 1520809007227}, {"current_trial": 5, "trialdata": {"rt": 61369, "trial_type": "survey-text", "responses": "{\"Q0\":\"3:00 am\",\"Q1\":\"8:00 am\",\"Q2\":\"3\"}", "internal_node_id": "0.0-5.0", "time_elapsed": 134411, "type": "SLEEP_SURVEY", "trial_index": 5}, "uniqueid": "MTK3613:35L9RVQFCPPV7Q3O5DK9RU7TCENHU9", "dateTime": 1520809069353}, {"current_trial": 6, "trialdata": {"rt": 84471, "trial_type": "text", "internal_node_id": "0.0-6.0", "time_elapsed": 219885, "key_press": 13, "type": "INSTRUCTIONS", "trial_index": 6}, "uniqueid": "MTK3613:35L9RVQFCPPV7Q3O5DK9RU7TCENHU9", "dateTime": 1520809154827}, {"current_trial": 7, "trialdata": {"rt": 27170, "trial_type": "text", "internal_node_id": "0.0-7.0", "time_elapsed": 247558, "key_press": 13, "type": "INSTRUCTIONS", "trial_index": 7}, "uniqueid": "MTK3613:35L9RVQFCPPV7Q3O5DK9RU7TCENHU9", "dateTime": 1520809182500}, {"current_trial": 8, "trialdata": {"rt": 27220, "trial_type": "text", "internal_node_id": "0.0-8.0", "time_elapsed": 275279, "key_press": 13, "type": "INSTRUCTIONS", "trial_index": 8}, "uniqueid": "MTK3613:35L9RVQFCPPV7Q3O5DK9RU7TCENHU9", "dateTime": 1520809210221}, {"current_trial": 9, "trialdata": {"rt": [5568, 10081, 14142, 16895], "trial_type": "math-distractor", "key_times": [4157, 5073, 5568, 9459, 9606, 10081, 13329, 13695, 14142, 16531, 16895], "responses": ["17", "14", "11", "9"], "num2": [5, 9, 1, 2, 2], "num3": [7, 2, 5, 2, 9], "conditions": [18, 1200, "a", 18000], "internal_node_id": "0.0-9.0", "key_presses": [97, 103, 13, 97, 100, 13, 97, 97, 13, 105, 13], "trial": 0, "time_elapsed": 294294, "type": "DISTRACTOR", "trial_index": 9, "num1": [5, 3, 5, 5, 7]}, "uniqueid": "MTK3613:35L9RVQFCPPV7Q3O5DK9RU7TCENHU9", "dateTime": 1520809229236}, {"current_trial": 10, "trialdata": {"rt": -1, "trial_type": "single-stim", "stimulus": "<p id=\"stim\">10</p>", "internal_node_id": "0.0-10.0-0.0", "time_elapsed": 297300, "key_press": -1, "trial_index": 10}, "uniqueid": "MTK3613:35L9RVQFCPPV7Q3O5DK9RU7TCENHU9", "dateTime": 1520809232243}, {"current_trial": 11, "trialdata": {"rt": -1, "trial_type": "single-stim", "stimulus": "<p id=\"stim\">9</p>", "internal_node_id": "0.0-10.0-1.0", "time_elapsed": 298303, "key_press": -1, "trial_index": 11}, "uniqueid": "MTK3613:35L9RVQFCPPV7Q3O5DK9RU7TCENHU9", "dateTime": 1520809233245}, {"current_trial": 12, "trialdata": {"rt": -1, "trial_type": "single-stim", "stimulus": "<p id=\"stim\">8</p>", "internal_node_id": "0.0-10.0-2.0", "time_elapsed": 299305, "key_press": -1, "trial_index": 12}, "uniqueid": "MTK3613:35L9RVQFCPPV7Q3O5DK9RU7TCENHU9", "dateTime": 1520809234247}, {"current_trial": 13, "trialdata": {"rt": -1, "trial_type": "single-stim", "stimulus": "<p id=\"stim\">7</p>", "internal_node_id": "0.0-10.0-3.0", "time_elapsed": 300308, "key_press": -1, "trial_index": 13}, "uniqueid": "MTK3613:35L9RVQFCPPV7Q3O5DK9RU7TCENHU9", "dateTime": 1520809235250}, {"current_trial": 14, "trialdata": {"rt": -1, "trial_type": "single-stim", "stimulus": "<p id=\"stim\">6</p>", "internal_node_id": "0.0-10.0-4.0", "time_elapsed": 301312, "key_press": -1, "trial_index": 14}, "uniqueid": "MTK3613:35L9RVQFCPPV7Q3O5DK9RU7TCENHU9", "dateTime": 1520809236254}, {"current_trial": 15, "trialdata": {"rt": -1, "trial_type": "single-stim", "stimulus": "<p id=\"stim\">5</p>", "internal_node_id": "0.0-10.0-5.0", "time_elapsed": 302315, "key_press": -1, "trial_index": 15}, "uniqueid": "MTK3613:35L9RVQFCPPV7Q3O5DK9RU7TCENHU9", "dateTime": 1520809237257}, {"current_trial": 16, "trialdata": {"rt": -1, "trial_type": "single-stim", "stimulus": "<p id=\"stim\">4</p>", "internal_node_id": "0.0-10.0-6.0", "time_elapsed": 303320, "key_press": -1, "trial_index": 16}, "uniqueid": "MTK3613:35L9RVQFCPPV7Q3O5DK9RU7TCENHU9", "dateTime": 1520809238263}, {"current_trial": 17, "trialdata": {"rt": -1, "trial_type": "single-stim", "stimulus": "<p id=\"stim\">3</p>", "internal_node_id": "0.0-10.0-7.0", "time_elapsed": 304323, "key_press": -1, "trial_index": 17}, "uniqueid": "MTK3613:35L9RVQFCPPV7Q3O5DK9RU7TCENHU9", "dateTime": 1520809239265}, {"current_trial": 18, "trialdata": {"rt": -1, "trial_type": "single-stim", "stimulus": "<p id=\"stim\">2</p>", "internal_node_id": "0.0-10.0-8.0", "time_elapsed": 305324, "key_press": -1, "trial_index": 18}, "uniqueid": "MTK3613:35L9RVQFCPPV7Q3O5DK9RU7TCENHU9", "dateTime": 1520809240267}, {"current_trial": 19, "trialdata": {"rt": -1, "trial_type": "single-stim", "stimulus": "<p id=\"stim\">1</p>", "internal_node_id": "0.0-10.0-9.0", "time_elapsed": 306327, "key_press": -1, "trial_index": 19}, "uniqueid": "MTK3613:35L9RVQFCPPV7Q3O5DK9RU7TCENHU9", "dateTime": 1520809241269}, {"current_trial": 20, "trialdata": {"rt": -1, "trial_type": "single-stim", "stimulus": "<p id=\"stim\">+</p>", "internal_node_id": "0.0-11.0-0.0", "time_elapsed": 307829, "key_press": -1, "type": "FIXATION", "trial_index": 20}, "uniqueid": "MTK3613:35L9RVQFCPPV7Q3O5DK9RU7TCENHU9", "dateTime": 1520809242772}, {"current_trial": 21, "trialdata": {"rt": 1411.9999999999777, "trial_type": "single-audio", "word": "iceberg", "stimulus": "/static/audio/wordpool/ICEBERG.wav", "conditions": [18, 1200, "a", 18000], "internal_node_id": "0.0-12.0", "trial": 0, "time_elapsed": 309954, "serialpos": 0, "key_press": 17, "wordID": 730, "type": "PRES_AUD", "trial_index": 21}, "uniqueid": "MTK3613:35L9RVQFCPPV7Q3O5DK9RU7TCENHU9", "dateTime": 1520809244897}, {"current_trial": 22, "trialdata": {"rt": 49.33333333332257, "trial_type": "single-audio", "word": "outfit", "stimulus": "/static/audio/wordpool/OUTFIT.wav", "conditions": [18, 1200, "a", 18000], "internal_node_id": "0.0-13.0", "trial": 0, "time_elapsed": 312108, "serialpos": 1, "key_press": 174, "wordID": 987, "type": "PRES_AUD", "trial_index": 22}, "uniqueid": "MTK3613:35L9RVQFCPPV7Q3O5DK9RU7TCENHU9", "dateTime": 1520809247050}, {"current_trial": 23, "trialdata": {"rt": 939.9999999999977, "trial_type": "single-audio", "word": "dresser", "stimulus": "/static/audio/wordpool/DRESSER.wav", "conditions": [18, 1200, "a", 18000], "internal_node_id": "0.0-14.0", "trial": 0, "time_elapsed": 314441, "serialpos": 2, "key_press": 175, "wordID": 495, "type": "PRES_AUD", "trial_index": 23}, "uniqueid": "MTK3613:35L9RVQFCPPV7Q3O5DK9RU7TCENHU9", "dateTime": 1520809249383}, {"current_trial": 24, "trialdata": {"rt": -1000, "trial_type": "single-audio", "word": "perch", "stimulus": "/static/audio/wordpool/PERCH.wav", "conditions": [18, 1200, "a", 18000], "internal_node_id": "0.0-15.0", "trial": 0, "time_elapsed": 316494, "serialpos": 3, "key_press": -1, "wordID": 1047, "type": "PRES_AUD", "trial_index": 24}, "uniqueid": "MTK3613:35L9RVQFCPPV7Q3O5DK9RU7TCENHU9", "dateTime": 1520809251436}, {"current_trial": 25, "trialdata": {"rt": -1000, "trial_type": "single-audio", "word": "piston", "stimulus": "/static/audio/wordpool/PISTON.wav", "conditions": [18, 1200, "a", 18000], "internal_node_id": "0.0-16.0", "trial": 0, "time_elapsed": 318806, "serialpos": 4, "key_press": -1, "wordID": 1075, "type": "PRES_AUD", "trial_index": 25}, "uniqueid": "MTK3613:35L9RVQFCPPV7Q3O5DK9RU7TCENHU9", "dateTime": 1520809253748}, {"current_trial": 26, "trialdata": {"rt": -1000, "trial_type": "single-audio", "word": "dime", "stimulus": "/static/audio/wordpool/DIME.wav", "conditions": [18, 1200, "a", 18000], "internal_node_id": "0.0-17.0", "trial": 0, "time_elapsed": 321011, "serialpos": 5, "key_press": -1, "wordID": 465, "type": "PRES_AUD", "trial_index": 26}, "uniqueid": "MTK3613:35L9RVQFCPPV7Q3O5DK9RU7TCENHU9", "dateTime": 1520809255953}, {"current_trial": 27, "trialdata": {"rt": -1000, "trial_type": "single-audio", "word": "sword", "stimulus": "/static/audio/wordpool/SWORD.wav", "conditions": [18, 1200, "a", 18000], "internal_node_id": "0.0-18.0", "trial": 0, "time_elapsed": 323051, "serialpos": 6, "key_press": -1, "wordID": 1422, "type": "PRES_AUD", "trial_index": 27}, "uniqueid": "MTK3613:35L9RVQFCPPV7Q3O5DK9RU7TCENHU9", "dateTime": 1520809257993}, {"current_trial": 28, "trialdata": {"rt": -1000, "trial_type": "single-audio", "word": "wife", "stimulus": "/static/audio/wordpool/WIFE.wav", "conditions": [18, 1200, "a", 18000], "internal_node_id": "0.0-19.0", "trial": 0, "time_elapsed": 325231, "serialpos": 7, "key_press": -1, "wordID": 1608, "type": "PRES_AUD", "trial_index": 28}, "uniqueid": "MTK3613:35L9RVQFCPPV7Q3O5DK9RU7TCENHU9", "dateTime": 1520809260173}, {"current_trial": 29, "trialdata": {"rt": -1000, "trial_type": "single-audio", "word": "expert", "stimulus": "/static/audio/wordpool/EXPERT.wav", "conditions": [18, 1200, "a", 18000], "internal_node_id": "0.0-20.0", "trial": 0, "time_elapsed": 327477, "serialpos": 8, "key_press": -1, "wordID": 542, "type": "PRES_AUD", "trial_index": 29}, "uniqueid": "MTK3613:35L9RVQFCPPV7Q3O5DK9RU7TCENHU9", "dateTime": 1520809262419}, {"current_trial": 30, "trialdata": {"rt": -1000, "trial_type": "single-audio", "word": "pork", "stimulus": "/static/audio/wordpool/PORK.wav", "conditions": [18, 1200, "a", 18000], "internal_node_id": "0.0-21.0", "trial": 0, "time_elapsed": 329649, "serialpos": 9, "key_press": -1, "wordID": 1107, "type": "PRES_AUD", "trial_index": 30}, "uniqueid": "MTK3613:35L9RVQFCPPV7Q3O5DK9RU7TCENHU9", "dateTime": 1520809264592}, {"current_trial": 31, "trialdata": {"rt": -1000, "trial_type": "single-audio", "word": "banker", "stimulus": "/static/audio/wordpool/BANKER.wav", "conditions": [18, 1200, "a", 18000], "internal_node_id": "0.0-22.0", "trial": 0, "time_elapsed": 331997, "serialpos": 10, "key_press": -1, "wordID": 83, "type": "PRES_AUD", "trial_index": 31}, "uniqueid": "MTK3613:35L9RVQFCPPV7Q3O5DK9RU7TCENHU9", "dateTime": 1520809266939}, {"current_trial": 32, "trialdata": {"rt": -1000, "trial_type": "single-audio", "word": "baby", "stimulus": "/static/audio/wordpool/BABY.wav", "conditions": [18, 1200, "a", 18000], "internal_node_id": "0.0-23.0", "trial": 0, "time_elapsed": 334186, "serialpos": 11, "key_press": -1, "wordID": 63, "type": "PRES_AUD", "trial_index": 32}, "uniqueid": "MTK3613:35L9RVQFCPPV7Q3O5DK9RU7TCENHU9", "dateTime": 1520809269128}, {"current_trial": 33, "trialdata": {"rt": -1000, "trial_type": "single-audio", "word": "actress", "stimulus": "/static/audio/wordpool/ACTRESS.wav", "conditions": [18, 1200, "a", 18000], "internal_node_id": "0.0-24.0", "trial": 0, "time_elapsed": 336210, "serialpos": 12, "key_press": -1, "wordID": 5, "type": "PRES_AUD", "trial_index": 33}, "uniqueid": "MTK3613:35L9RVQFCPPV7Q3O5DK9RU7TCENHU9", "dateTime": 1520809271152}, {"current_trial": 34, "trialdata": {"rt": -1000, "trial_type": "single-audio", "word": "crib", "stimulus": "/static/audio/wordpool/CRIB.wav", "conditions": [18, 1200, "a", 18000], "internal_node_id": "0.0-25.0", "trial": 0, "time_elapsed": 338560, "serialpos": 13, "key_press": -1, "wordID": 406, "type": "PRES_AUD", "trial_index": 34}, "uniqueid": "MTK3613:35L9RVQFCPPV7Q3O5DK9RU7TCENHU9", "dateTime": 1520809273502}, {"current_trial": 35, "trialdata": {"rt": -1000, "trial_type": "single-audio", "word": "motel", "stimulus": "/static/audio/wordpool/MOTEL.wav", "conditions": [18, 1200, "a", 18000], "internal_node_id": "0.0-26.0", "trial": 0, "time_elapsed": 340873, "serialpos": 14, "key_press": -1, "wordID": 918, "type": "PRES_AUD", "trial_index": 35}, "uniqueid": "MTK3613:35L9RVQFCPPV7Q3O5DK9RU7TCENHU9", "dateTime": 1520809275815}, {"current_trial": 36, "trialdata": {"rt": -1000, "trial_type": "single-audio", "word": "gavel", "stimulus": "/static/audio/wordpool/GAVEL.wav", "conditions": [18, 1200, "a", 18000], "internal_node_id": "0.0-27.0", "trial": 0, "time_elapsed": 343255, "serialpos": 15, "key_press": -1, "wordID": 626, "type": "PRES_AUD", "trial_index": 36}, "uniqueid": "MTK3613:35L9RVQFCPPV7Q3O5DK9RU7TCENHU9", "dateTime": 1520809278197}, {"current_trial": 37, "trialdata": {"rt": -1000, "trial_type": "single-audio", "word": "sponge", "stimulus": "/static/audio/wordpool/SPONGE.wav", "conditions": [18, 1200, "a", 18000], "internal_node_id": "0.0-28.0", "trial": 0, "time_elapsed": 345481, "serialpos": 16, "key_press": -1, "wordID": 1354, "type": "PRES_AUD", "trial_index": 37}, "uniqueid": "MTK3613:35L9RVQFCPPV7Q3O5DK9RU7TCENHU9", "dateTime": 1520809280424}, {"current_trial": 38, "trialdata": {"rt": -1000, "trial_type": "single-audio", "word": "church", "stimulus": "/static/audio/wordpool/CHURCH.wav", "conditions": [18, 1200, "a", 18000], "internal_node_id": "0.0-29.0", "trial": 0, "time_elapsed": 347678, "serialpos": 17, "key_press": -1, "wordID": 306, "type": "PRES_AUD", "trial_index": 38}, "uniqueid": "MTK3613:35L9RVQFCPPV7Q3O5DK9RU7TCENHU9", "dateTime": 1520809282620}, {"current_trial": 39, "trialdata": {"rt": -1, "trial_type": "single-stim", "stimulus": "", "internal_node_id": "0.0-30.0-0.0", "time_elapsed": 349013, "key_press": -1, "type": "PRE_RECALL_DELAY", "trial_index": 39}, "uniqueid": "MTK3613:35L9RVQFCPPV7Q3O5DK9RU7TCENHU9", "dateTime": 1520809283955}, {"current_trial": 40, "trialdata": {"rt": -1000, "trial_type": "single-audio", "stimulus": "/static/audio/400Hz.wav", "internal_node_id": "0.0-31.0", "time_elapsed": 349516, "key_press": -1, "type": "PRE_RECALL_ALERT", "trial_index": 40}, "uniqueid": "MTK3613:35L9RVQFCPPV7Q3O5DK9RU7TCENHU9", "dateTime": 1520809284458}, {"current_trial": 41, "trialdata": {"rt": [2690, 4855, 6378, 8823, 10762, 16013, 19302, 29264], "recwords": ["sponge", "church", "baby", "dime", "banker", "dresser", "gavel", "pork"], "key_times": [1388, 1483, 1673, 1842, 2069, 2270, 2690, 3505, 3682, 3879, 4063, 4356, 4507, 4855, 5606, 5711, 5850, 6036, 6378, 7355, 8296, 8496, 8640, 8823, 9491, 9628, 10093, 10237, 10396, 10574, 10762, 13649, 13837, 14012, 14284, 14467, 14744, 14892, 16013, 17429, 17632, 17812, 18092, 18305, 19302, 28040, 28130, 28404, 28929, 29264], "trial_type": "free-recall", "conditions": [18, 1200, "a", 18000], "internal_node_id": "0.0-32.0-0.0", "key_presses": [83, 80, 79, 78, 71, 69, 13, 67, 72, 85, 82, 67, 72, 13, 66, 65, 66, 89, 13, 68, 73, 77, 69, 13, 66, 65, 78, 75, 69, 82, 13, 68, 82, 69, 83, 83, 69, 82, 13, 71, 65, 86, 69, 76, 13, 80, 79, 82, 75, 13], "trial": 0, "time_elapsed": 409521, "type": "FREE_RECALL", "trial_index": 41}, "uniqueid": "MTK3613:35L9RVQFCPPV7Q3O5DK9RU7TCENHU9", "dateTime": 1520809344469}, {"current_trial": 42, "trialdata": {"rt": 12679, "trial_type": "text", "internal_node_id": "0.0-33.0", "time_elapsed": 424207, "key_press": 13, "type": "INSTRUCTIONS", "trial_index": 42}, "uniqueid": "MTK3613:35L9RVQFCPPV7Q3O5DK9RU7TCENHU9", "dateTime": 1520809359149}, {"current_trial": 43, "trialdata": {"rt": [3171, 7290, 12798, 15214], "trial_type": "math-distractor", "key_times": [2771, 2861, 3171, 6926, 7025, 7290, 12487, 12609, 12798, 14962, 15214, 17885, 17983], "responses": ["13", "15", "16", "7"], "num2": [2, 4, 6, 1, 3], "num3": [9, 4, 3, 5, 2], "conditions": [18, 1200, "a", 18000], "internal_node_id": "0.0-34.0", "key_presses": [97, 99, 13, 97, 101, 13, 97, 102, 13, 103, 13, 97, 99], "trial": 1, "time_elapsed": 444216, "type": "DISTRACTOR", "trial_index": 43, "num1": [2, 7, 7, 1, 8]}, "uniqueid": "MTK3613:35L9RVQFCPPV7Q3O5DK9RU7TCENHU9", "dateTime": 1520809379158}, {"current_trial": 44, "trialdata": {"rt": -1, "trial_type": "single-stim", "stimulus": "<p id=\"stim\">10</p>", "internal_node_id": "0.0-35.0-0.0", "time_elapsed": 447220, "key_press": -1, "trial_index": 44}, "uniqueid": "MTK3613:35L9RVQFCPPV7Q3O5DK9RU7TCENHU9", "dateTime": 1520809382162}, {"current_trial": 45, "trialdata": {"rt": -1, "trial_type": "single-stim", "stimulus": "<p id=\"stim\">9</p>", "internal_node_id": "0.0-35.0-1.0", "time_elapsed": 448223, "key_press": -1, "trial_index": 45}, "uniqueid": "MTK3613:35L9RVQFCPPV7Q3O5DK9RU7TCENHU9", "dateTime": 1520809383166}, {"current_trial": 46, "trialdata": {"rt": -1, "trial_type": "single-stim", "stimulus": "<p id=\"stim\">8</p>", "internal_node_id": "0.0-35.0-2.0", "time_elapsed": 449226, "key_press": -1, "trial_index": 46}, "uniqueid": "MTK3613:35L9RVQFCPPV7Q3O5DK9RU7TCENHU9", "dateTime": 1520809384169}, {"current_trial": 47, "trialdata": {"rt": -1, "trial_type": "single-stim", "stimulus": "<p id=\"stim\">7</p>", "internal_node_id": "0.0-35.0-3.0", "time_elapsed": 450229, "key_press": -1, "trial_index": 47}, "uniqueid": "MTK3613:35L9RVQFCPPV7Q3O5DK9RU7TCENHU9", "dateTime": 1520809385172}, {"current_trial": 48, "trialdata": {"rt": -1, "trial_type": "single-stim", "stimulus": "<p id=\"stim\">6</p>", "internal_node_id": "0.0-35.0-4.0", "time_elapsed": 451232, "key_press": -1, "trial_index": 48}, "uniqueid": "MTK3613:35L9RVQFCPPV7Q3O5DK9RU7TCENHU9", "dateTime": 1520809386175}, {"current_trial": 49, "trialdata": {"rt": -1, "trial_type": "single-stim", "stimulus": "<p id=\"stim\">5</p>", "internal_node_id": "0.0-35.0-5.0", "time_elapsed": 452234, "key_press": -1, "trial_index": 49}, "uniqueid": "MTK3613:35L9RVQFCPPV7Q3O5DK9RU7TCENHU9", "dateTime": 1520809387177}, {"current_trial": 50, "trialdata": {"rt": -1, "trial_type": "single-stim", "stimulus": "<p id=\"stim\">4</p>", "internal_node_id": "0.0-35.0-6.0", "time_elapsed": 453237, "key_press": -1, "trial_index": 50}, "uniqueid": "MTK3613:35L9RVQFCPPV7Q3O5DK9RU7TCENHU9", "dateTime": 1520809388179}, {"current_trial": 51, "trialdata": {"rt": -1, "trial_type": "single-stim", "stimulus": "<p id=\"stim\">3</p>", "internal_node_id": "0.0-35.0-7.0", "time_elapsed": 454241, "key_press": -1, "trial_index": 51}, "uniqueid": "MTK3613:35L9RVQFCPPV7Q3O5DK9RU7TCENHU9", "dateTime": 1520809389183}, {"current_trial": 52, "trialdata": {"rt": -1, "trial_type": "single-stim", "stimulus": "<p id=\"stim\">2</p>", "internal_node_id": "0.0-35.0-8.0", "time_elapsed": 455245, "key_press": -1, "trial_index": 52}, "uniqueid": "MTK3613:35L9RVQFCPPV7Q3O5DK9RU7TCENHU9", "dateTime": 1520809390187}, {"current_trial": 53, "trialdata": {"rt": -1, "trial_type": "single-stim", "stimulus": "<p id=\"stim\">1</p>", "internal_node_id": "0.0-35.0-9.0", "time_elapsed": 456248, "key_press": -1, "trial_index": 53}, "uniqueid": "MTK3613:35L9RVQFCPPV7Q3O5DK9RU7TCENHU9", "dateTime": 1520809391190}, {"current_trial": 54, "trialdata": {"rt": -1, "trial_type": "single-stim", "stimulus": "<p id=\"stim\">+</p>", "internal_node_id": "0.0-36.0-0.0", "time_elapsed": 457750, "key_press": -1, "type": "FIXATION", "trial_index": 54}, "uniqueid": "MTK3613:35L9RVQFCPPV7Q3O5DK9RU7TCENHU9", "dateTime": 1520809392693}, {"current_trial": 55, "trialdata": {"rt": -1000, "trial_type": "single-audio", "word": "oyster", "stimulus": "/static/audio/wordpool/OYSTER.wav", "conditions": [18, 1200, "a", 18000], "internal_node_id": "0.0-37.0", "trial": 1, "time_elapsed": 460028, "serialpos": 0, "key_press": -1, "wordID": 994, "type": "PRES_AUD", "trial_index": 55}, "uniqueid": "MTK3613:35L9RVQFCPPV7Q3O5DK9RU7TCENHU9", "dateTime": 1520809394970}, {"current_trial": 56, "trialdata": {"rt": -1000, "trial_type": "single-audio", "word": "knapsack", "stimulus": "/static/audio/wordpool/KNAPSACK.wav", "conditions": [18, 1200, "a", 18000], "internal_node_id": "0.0-38.0", "trial": 1, "time_elapsed": 462147, "serialpos": 1, "key_press": -1, "wordID": 782, "type": "PRES_AUD", "trial_index": 56}, "uniqueid": "MTK3613:35L9RVQFCPPV7Q3O5DK9RU7TCENHU9", "dateTime": 1520809397089}, {"current_trial": 57, "trialdata": {"rt": -1000, "trial_type": "single-audio", "word": "gazelle", "stimulus": "/static/audio/wordpool/GAZELLE.wav", "conditions": [18, 1200, "a", 18000], "internal_node_id": "0.0-39.0", "trial": 1, "time_elapsed": 464362, "serialpos": 2, "key_press": -1, "wordID": 627, "type": "PRES_AUD", "trial_index": 57}, "uniqueid": "MTK3613:35L9RVQFCPPV7Q3O5DK9RU7TCENHU9", "dateTime": 1520809399304}, {"current_trial": 58, "trialdata": {"rt": -1000, "trial_type": "single-audio", "word": "lion", "stimulus": "/static/audio/wordpool/LION.wav", "conditions": [18, 1200, "a", 18000], "internal_node_id": "0.0-40.0", "trial": 1, "time_elapsed": 466422, "serialpos": 3, "key_press": -1, "wordID": 826, "type": "PRES_AUD", "trial_index": 58}, "uniqueid": "MTK3613:35L9RVQFCPPV7Q3O5DK9RU7TCENHU9", "dateTime": 1520809401364}, {"current_trial": 59, "trialdata": {"rt": -1000, "trial_type": "single-audio", "word": "valley", "stimulus": "/static/audio/wordpool/VALLEY.wav", "conditions": [18, 1200, "a", 18000], "internal_node_id": "0.0-41.0", "trial": 1, "time_elapsed": 468542, "serialpos": 4, "key_press": -1, "wordID": 1544, "type": "PRES_AUD", "trial_index": 59}, "uniqueid": "MTK3613:35L9RVQFCPPV7Q3O5DK9RU7TCENHU9", "dateTime": 1520809403484}, {"current_trial": 60, "trialdata": {"rt": -1000, "trial_type": "single-audio", "word": "stamp", "stimulus": "/static/audio/wordpool/STAMP.wav", "conditions": [18, 1200, "a", 18000], "internal_node_id": "0.0-42.0", "trial": 1, "time_elapsed": 470736, "serialpos": 5, "key_press": -1, "wordID": 1369, "type": "PRES_AUD", "trial_index": 60}, "uniqueid": "MTK3613:35L9RVQFCPPV7Q3O5DK9RU7TCENHU9", "dateTime": 1520809405678}, {"current_trial": 61, "trialdata": {"rt": -1000, "trial_type": "single-audio", "word": "cloud", "stimulus": "/static/audio/wordpool/CLOUD.wav", "conditions": [18, 1200, "a", 18000], "internal_node_id": "0.0-43.0", "trial": 1, "time_elapsed": 473104, "serialpos": 6, "key_press": -1, "wordID": 327, "type": "PRES_AUD", "trial_index": 61}, "uniqueid": "MTK3613:35L9RVQFCPPV7Q3O5DK9RU7TCENHU9", "dateTime": 1520809408047}, {"current_trial": 62, "trialdata": {"rt": -1000, "trial_type": "single-audio", "word": "ground", "stimulus": "/static/audio/wordpool/GROUND.wav", "conditions": [18, 1200, "a", 18000], "internal_node_id": "0.0-44.0", "trial": 1, "time_elapsed": 475424, "serialpos": 7, "key_press": -1, "wordID": 665, "type": "PRES_AUD", "trial_index": 62}, "uniqueid": "MTK3613:35L9RVQFCPPV7Q3O5DK9RU7TCENHU9", "dateTime": 1520809410366}, {"current_trial": 63, "trialdata": {"rt": -1000, "trial_type": "single-audio", "word": "finger", "stimulus": "/static/audio/wordpool/FINGER.wav", "conditions": [18, 1200, "a", 18000], "internal_node_id": "0.0-45.0", "trial": 1, "time_elapsed": 477569, "serialpos": 8, "key_press": -1, "wordID": 566, "type": "PRES_AUD", "trial_index": 63}, "uniqueid": "MTK3613:35L9RVQFCPPV7Q3O5DK9RU7TCENHU9", "dateTime": 1520809412511}, {"current_trial": 64, "trialdata": {"rt": -1000, "trial_type": "single-audio", "word": "orange", "stimulus": "/static/audio/wordpool/ORANGE.wav", "conditions": [18, 1200, "a", 18000], "internal_node_id": "0.0-46.0", "trial": 1, "time_elapsed": 479801, "serialpos": 9, "key_press": -1, "wordID": 979, "type": "PRES_AUD", "trial_index": 64}, "uniqueid": "MTK3613:35L9RVQFCPPV7Q3O5DK9RU7TCENHU9", "dateTime": 1520809414744}, {"current_trial": 65, "trialdata": {"rt": -1000, "trial_type": "single-audio", "word": "hawk", "stimulus": "/static/audio/wordpool/HAWK.wav", "conditions": [18, 1200, "a", 18000], "internal_node_id": "0.0-47.0", "trial": 1, "time_elapsed": 482201, "serialpos": 10, "key_press": -1, "wordID": 691, "type": "PRES_AUD", "trial_index": 65}, "uniqueid": "MTK3613:35L9RVQFCPPV7Q3O5DK9RU7TCENHU9", "dateTime": 1520809417143}, {"current_trial": 66, "trialdata": {"rt": -1000, "trial_type": "single-audio", "word": "mailman", "stimulus": "/static/audio/wordpool/MAILMAN.wav", "conditions": [18, 1200, "a", 18000], "internal_node_id": "0.0-48.0", "trial": 1, "time_elapsed": 484215, "serialpos": 11, "key_press": -1, "wordID": 857, "type": "PRES_AUD", "trial_index": 66}, "uniqueid": "MTK3613:35L9RVQFCPPV7Q3O5DK9RU7TCENHU9", "dateTime": 1520809419157}, {"current_trial": 67, "trialdata": {"rt": -1000, "trial_type": "single-audio", "word": "scallop", "stimulus": "/static/audio/wordpool/SCALLOP.wav", "conditions": [18, 1200, "a", 18000], "internal_node_id": "0.0-49.0", "trial": 1, "time_elapsed": 486249, "serialpos": 12, "key_press": -1, "wordID": 1241, "type": "PRES_AUD", "trial_index": 67}, "uniqueid": "MTK3613:35L9RVQFCPPV7Q3O5DK9RU7TCENHU9", "dateTime": 1520809421191}, {"current_trial": 68, "trialdata": {"rt": -1000, "trial_type": "single-audio", "word": "ulcer", "stimulus": "/static/audio/wordpool/ULCER.wav", "conditions": [18, 1200, "a", 18000], "internal_node_id": "0.0-50.0", "trial": 1, "time_elapsed": 488328, "serialpos": 13, "key_press": -1, "wordID": 1532, "type": "PRES_AUD", "trial_index": 68}, "uniqueid": "MTK3613:35L9RVQFCPPV7Q3O5DK9RU7TCENHU9", "dateTime": 1520809423272}, {"current_trial": 69, "trialdata": {"rt": -1000, "trial_type": "single-audio", "word": "outlaw", "stimulus": "/static/audio/wordpool/OUTLAW.wav", "conditions": [18, 1200, "a", 18000], "internal_node_id": "0.0-51.0", "trial": 1, "time_elapsed": 490590, "serialpos": 14, "key_press": -1, "wordID": 988, "type": "PRES_AUD", "trial_index": 69}, "uniqueid": "MTK3613:35L9RVQFCPPV7Q3O5DK9RU7TCENHU9", "dateTime": 1520809425532}, {"current_trial": 70, "trialdata": {"rt": -1000, "trial_type": "single-audio", "word": "worker", "stimulus": "/static/audio/wordpool/WORKER.wav", "conditions": [18, 1200, "a", 18000], "internal_node_id": "0.0-52.0", "trial": 1, "time_elapsed": 492647, "serialpos": 15, "key_press": -1, "wordID": 1620, "type": "PRES_AUD", "trial_index": 70}, "uniqueid": "MTK3613:35L9RVQFCPPV7Q3O5DK9RU7TCENHU9", "dateTime": 1520809427589}, {"current_trial": 71, "trialdata": {"rt": -1000, "trial_type": "single-audio", "word": "thief", "stimulus": "/static/audio/wordpool/THIEF.wav", "conditions": [18, 1200, "a", 18000], "internal_node_id": "0.0-53.0", "trial": 1, "time_elapsed": 494702, "serialpos": 16, "key_press": -1, "wordID": 1455, "type": "PRES_AUD", "trial_index": 71}, "uniqueid": "MTK3613:35L9RVQFCPPV7Q3O5DK9RU7TCENHU9", "dateTime": 1520809429644}, {"current_trial": 72, "trialdata": {"rt": -1000, "trial_type": "single-audio", "word": "buggy", "stimulus": "/static/audio/wordpool/BUGGY.wav", "conditions": [18, 1200, "a", 18000], "internal_node_id": "0.0-54.0", "trial": 1, "time_elapsed": 496999, "serialpos": 17, "key_press": -1, "wordID": 187, "type": "PRES_AUD", "trial_index": 72}, "uniqueid": "MTK3613:35L9RVQFCPPV7Q3O5DK9RU7TCENHU9", "dateTime": 1520809431941}, {"current_trial": 73, "trialdata": {"rt": -1, "trial_type": "single-stim", "stimulus": "", "internal_node_id": "0.0-55.0-0.0", "time_elapsed": 498255, "key_press": -1, "type": "PRE_RECALL_DELAY", "trial_index": 73}, "uniqueid": "MTK3613:35L9RVQFCPPV7Q3O5DK9RU7TCENHU9", "dateTime": 1520809433197}, {"current_trial": 74, "trialdata": {"rt": -1000, "trial_type": "single-audio", "stimulus": "/static/audio/400Hz.wav", "internal_node_id": "0.0-56.0", "time_elapsed": 498758, "key_press": -1, "type": "PRE_RECALL_ALERT", "trial_index": 74}, "uniqueid": "MTK3613:35L9RVQFCPPV7Q3O5DK9RU7TCENHU9", "dateTime": 1520809433700}, {"current_trial": 75, "trialdata": {"rt": [6505, 8697, 11087, 13968, 19624, 24488, 29528, 44925], "recwords": ["buggee", "lion", "beef", "hawk", "groud", "worker", "orange", "napsack"], "key_times": [3091, 3224, 3612, 3728, 4231, 4685, 6505, 7677, 7944, 8145, 8332, 8697, 9536, 9657, 9806, 10067, 11087, 13211, 13305, 13598, 13778, 13968, 17107, 17319, 18526, 18966, 19100, 19624, 23349, 23484, 23637, 23772, 23929, 24072, 24488, 26082, 26956, 27210, 27397, 27557, 27878, 29528, 41482, 41683, 42462, 43686, 43867, 44157, 44292, 44925], "trial_type": "free-recall", "conditions": [18, 1200, "a", 18000], "internal_node_id": "0.0-57.0-0.0", "key_presses": [66, 85, 71, 71, 69, 69, 13, 76, 73, 79, 78, 13, 66, 69, 69, 70, 13, 72, 65, 87, 75, 13, 71, 82, 79, 85, 68, 13, 87, 79, 82, 75, 69, 82, 13, 79, 82, 65, 78, 71, 69, 13, 78, 65, 80, 83, 65, 67, 75, 32], "trial": 1, "time_elapsed": 558764, "type": "FREE_RECALL", "trial_index": 75}, "uniqueid": "MTK3613:35L9RVQFCPPV7Q3O5DK9RU7TCENHU9", "dateTime": 1520809493712}, {"current_trial": 76, "trialdata": {"rt": 5128, "trial_type": "text", "internal_node_id": "0.0-58.0", "time_elapsed": 565898, "key_press": 13, "type": "INSTRUCTIONS", "trial_index": 76}, "uniqueid": "MTK3613:35L9RVQFCPPV7Q3O5DK9RU7TCENHU9", "dateTime": 1520809500840}, {"current_trial": 77, "trialdata": {"rt": [6409, 11366], "trial_type": "math-distractor", "key_times": [5920, 6008, 6409, 10994, 11110, 11366], "responses": ["19", "14"], "num2": [6, 5, 1], "num3": [6, 3, 6], "conditions": [24, 800, "a", 12000], "internal_node_id": "0.0-59.0", "key_presses": [97, 105, 13, 97, 100, 13], "trial": 2, "time_elapsed": 578905, "type": "DISTRACTOR", "trial_index": 77, "num1": [7, 6, 8]}, "uniqueid": "MTK3613:35L9RVQFCPPV7Q3O5DK9RU7TCENHU9", "dateTime": 1520809513848}, {"current_trial": 78, "trialdata": {"rt": -1, "trial_type": "single-stim", "stimulus": "<p id=\"stim\">10</p>", "internal_node_id": "0.0-60.0-0.0", "time_elapsed": 581909, "key_press": -1, "trial_index": 78}, "uniqueid": "MTK3613:35L9RVQFCPPV7Q3O5DK9RU7TCENHU9", "dateTime": 1520809516851}, {"current_trial": 79, "trialdata": {"rt": -1, "trial_type": "single-stim", "stimulus": "<p id=\"stim\">9</p>", "internal_node_id": "0.0-60.0-1.0", "time_elapsed": 582911, "key_press": -1, "trial_index": 79}, "uniqueid": "MTK3613:35L9RVQFCPPV7Q3O5DK9RU7TCENHU9", "dateTime": 1520809517853}, {"current_trial": 80, "trialdata": {"rt": -1, "trial_type": "single-stim", "stimulus": "<p id=\"stim\">8</p>", "internal_node_id": "0.0-60.0-2.0", "time_elapsed": 583914, "key_press": -1, "trial_index": 80}, "uniqueid": "MTK3613:35L9RVQFCPPV7Q3O5DK9RU7TCENHU9", "dateTime": 1520809518856}, {"current_trial": 81, "trialdata": {"rt": -1, "trial_type": "single-stim", "stimulus": "<p id=\"stim\">7</p>", "internal_node_id": "0.0-60.0-3.0", "time_elapsed": 584916, "key_press": -1, "trial_index": 81}, "uniqueid": "MTK3613:35L9RVQFCPPV7Q3O5DK9RU7TCENHU9", "dateTime": 1520809519858}, {"current_trial": 82, "trialdata": {"rt": -1, "trial_type": "single-stim", "stimulus": "<p id=\"stim\">6</p>", "internal_node_id": "0.0-60.0-4.0", "time_elapsed": 585919, "key_press": -1, "trial_index": 82}, "uniqueid": "MTK3613:35L9RVQFCPPV7Q3O5DK9RU7TCENHU9", "dateTime": 1520809520862}, {"current_trial": 83, "trialdata": {"rt": -1, "trial_type": "single-stim", "stimulus": "<p id=\"stim\">5</p>", "internal_node_id": "0.0-60.0-5.0", "time_elapsed": 586921, "key_press": -1, "trial_index": 83}, "uniqueid": "MTK3613:35L9RVQFCPPV7Q3O5DK9RU7TCENHU9", "dateTime": 1520809521864}, {"current_trial": 84, "trialdata": {"rt": -1, "trial_type": "single-stim", "stimulus": "<p id=\"stim\">4</p>", "internal_node_id": "0.0-60.0-6.0", "time_elapsed": 587925, "key_press": -1, "trial_index": 84}, "uniqueid": "MTK3613:35L9RVQFCPPV7Q3O5DK9RU7TCENHU9", "dateTime": 1520809522867}, {"current_trial": 85, "trialdata": {"rt": -1, "trial_type": "single-stim", "stimulus": "<p id=\"stim\">3</p>", "internal_node_id": "0.0-60.0-7.0", "time_elapsed": 588927, "key_press": -1, "trial_index": 85}, "uniqueid": "MTK3613:35L9RVQFCPPV7Q3O5DK9RU7TCENHU9", "dateTime": 1520809523870}, {"current_trial": 86, "trialdata": {"rt": -1, "trial_type": "single-stim", "stimulus": "<p id=\"stim\">2</p>", "internal_node_id": "0.0-60.0-8.0", "time_elapsed": 589930, "key_press": -1, "trial_index": 86}, "uniqueid": "MTK3613:35L9RVQFCPPV7Q3O5DK9RU7TCENHU9", "dateTime": 1520809524872}, {"current_trial": 87, "trialdata": {"rt": -1, "trial_type": "single-stim", "stimulus": "<p id=\"stim\">1</p>", "internal_node_id": "0.0-60.0-9.0", "time_elapsed": 590933, "key_press": -1, "trial_index": 87}, "uniqueid": "MTK3613:35L9RVQFCPPV7Q3O5DK9RU7TCENHU9", "dateTime": 1520809525875}, {"current_trial": 88, "trialdata": {"rt": -1, "trial_type": "single-stim", "stimulus": "<p id=\"stim\">+</p>", "internal_node_id": "0.0-61.0-0.0", "time_elapsed": 592434, "key_press": -1, "type": "FIXATION", "trial_index": 88}, "uniqueid": "MTK3613:35L9RVQFCPPV7Q3O5DK9RU7TCENHU9", "dateTime": 1520809527377}, {"current_trial": 89, "trialdata": {"rt": -1000, "trial_type": "single-audio", "word": "liver", "stimulus": "/static/audio/wordpool/LIVER.wav", "conditions": [24, 800, "a", 12000], "internal_node_id": "0.0-62.0", "trial": 2, "time_elapsed": 594260, "serialpos": 0, "key_press": -1, "wordID": 832, "type": "PRES_AUD", "trial_index": 89}, "uniqueid": "MTK3613:35L9RVQFCPPV7Q3O5DK9RU7TCENHU9", "dateTime": 1520809529202}, {"current_trial": 90, "trialdata": {"rt": -1000, "trial_type": "single-audio", "word": "fireplace", "stimulus": "/static/audio/wordpool/FIREPLACE.wav", "conditions": [24, 800, "a", 12000], "internal_node_id": "0.0-63.0", "trial": 2, "time_elapsed": 596229, "serialpos": 1, "key_press": -1, "wordID": 569, "type": "PRES_AUD", "trial_index": 90}, "uniqueid": "MTK3613:35L9RVQFCPPV7Q3O5DK9RU7TCENHU9", "dateTime": 1520809531171}, {"current_trial": 91, "trialdata": {"rt": -1000, "trial_type": "single-audio", "word": "leg", "stimulus": "/static/audio/wordpool/LEG.wav", "conditions": [24, 800, "a", 12000], "internal_node_id": "0.0-64.0", "trial": 2, "time_elapsed": 598033, "serialpos": 2, "key_press": -1, "wordID": 808, "type": "PRES_AUD", "trial_index": 91}, "uniqueid": "MTK3613:35L9RVQFCPPV7Q3O5DK9RU7TCENHU9", "dateTime": 1520809532975}, {"current_trial": 92, "trialdata": {"rt": -1000, "trial_type": "single-audio", "word": "coffee", "stimulus": "/static/audio/wordpool/COFFEE.wav", "conditions": [24, 800, "a", 12000], "internal_node_id": "0.0-65.0", "trial": 2, "time_elapsed": 599851, "serialpos": 3, "key_press": -1, "wordID": 340, "type": "PRES_AUD", "trial_index": 92}, "uniqueid": "MTK3613:35L9RVQFCPPV7Q3O5DK9RU7TCENHU9", "dateTime": 1520809534793}, {"current_trial": 93, "trialdata": {"rt": -1000, "trial_type": "single-audio", "word": "statue", "stimulus": "/static/audio/wordpool/STATUE.wav", "conditions": [24, 800, "a", 12000], "internal_node_id": "0.0-66.0", "trial": 2, "time_elapsed": 601518, "serialpos": 4, "key_press": -1, "wordID": 1373, "type": "PRES_AUD", "trial_index": 93}, "uniqueid": "MTK3613:35L9RVQFCPPV7Q3O5DK9RU7TCENHU9", "dateTime": 1520809536460}, {"current_trial": 94, "trialdata": {"rt": -1000, "trial_type": "single-audio", "word": "sculpture", "stimulus": "/static/audio/wordpool/SCULPTURE.wav", "conditions": [24, 800, "a", 12000], "internal_node_id": "0.0-67.0", "trial": 2, "time_elapsed": 603192, "serialpos": 5, "key_press": -1, "wordID": 1257, "type": "PRES_AUD", "trial_index": 94}, "uniqueid": "MTK3613:35L9RVQFCPPV7Q3O5DK9RU7TCENHU9", "dateTime": 1520809538135}, {"current_trial": 95, "trialdata": {"rt": -1000, "trial_type": "single-audio", "word": "crown", "stimulus": "/static/audio/wordpool/CROWN.wav", "conditions": [24, 800, "a", 12000], "internal_node_id": "0.0-68.0", "trial": 2, "time_elapsed": 604885, "serialpos": 6, "key_press": -1, "wordID": 414, "type": "PRES_AUD", "trial_index": 95}, "uniqueid": "MTK3613:35L9RVQFCPPV7Q3O5DK9RU7TCENHU9", "dateTime": 1520809539827}, {"current_trial": 96, "trialdata": {"rt": -1000, "trial_type": "single-audio", "word": "kidney", "stimulus": "/static/audio/wordpool/KIDNEY.wav", "conditions": [24, 800, "a", 12000], "internal_node_id": "0.0-69.0", "trial": 2, "time_elapsed": 606561, "serialpos": 7, "key_press": -1, "wordID": 775, "type": "PRES_AUD", "trial_index": 96}, "uniqueid": "MTK3613:35L9RVQFCPPV7Q3O5DK9RU7TCENHU9", "dateTime": 1520809541503}, {"current_trial": 97, "trialdata": {"rt": -1000, "trial_type": "single-audio", "word": "plaster", "stimulus": "/static/audio/wordpool/PLASTER.wav", "conditions": [24, 800, "a", 12000], "internal_node_id": "0.0-70.0", "trial": 2, "time_elapsed": 608476, "serialpos": 8, "key_press": -1, "wordID": 1084, "type": "PRES_AUD", "trial_index": 97}, "uniqueid": "MTK3613:35L9RVQFCPPV7Q3O5DK9RU7TCENHU9", "dateTime": 1520809543420}, {"current_trial": 98, "trialdata": {"rt": -1000, "trial_type": "single-audio", "word": "clam", "stimulus": "/static/audio/wordpool/CLAM.wav", "conditions": [24, 800, "a", 12000], "internal_node_id": "0.0-71.0", "trial": 2, "time_elapsed": 610289, "serialpos": 9, "key_press": -1, "wordID": 314, "type": "PRES_AUD", "trial_index": 98}, "uniqueid": "MTK3613:35L9RVQFCPPV7Q3O5DK9RU7TCENHU9", "dateTime": 1520809545231}, {"current_trial": 99, "trialdata": {"rt": -1000, "trial_type": "single-audio", "word": "salt", "stimulus": "/static/audio/wordpool/SALT.wav", "conditions": [24, 800, "a", 12000], "internal_node_id": "0.0-72.0", "trial": 2, "time_elapsed": 612217, "serialpos": 10, "key_press": -1, "wordID": 1228, "type": "PRES_AUD", "trial_index": 99}, "uniqueid": "MTK3613:35L9RVQFCPPV7Q3O5DK9RU7TCENHU9", "dateTime": 1520809547159}, {"current_trial": 100, "trialdata": {"rt": -1000, "trial_type": "single-audio", "word": "lace", "stimulus": "/static/audio/wordpool/LACE.wav", "conditions": [24, 800, "a", 12000], "internal_node_id": "0.0-73.0", "trial": 2, "time_elapsed": 613911, "serialpos": 11, "key_press": -1, "wordID": 791, "type": "PRES_AUD", "trial_index": 100}, "uniqueid": "MTK3613:35L9RVQFCPPV7Q3O5DK9RU7TCENHU9", "dateTime": 1520809548853}, {"current_trial": 101, "trialdata": {"rt": -1000, "trial_type": "single-audio", "word": "apple", "stimulus": "/static/audio/wordpool/APPLE.wav", "conditions": [24, 800, "a", 12000], "internal_node_id": "0.0-74.0", "trial": 2, "time_elapsed": 615595, "serialpos": 12, "key_press": -1, "wordID": 32, "type": "PRES_AUD", "trial_index": 101}, "uniqueid": "MTK3613:35L9RVQFCPPV7Q3O5DK9RU7TCENHU9", "dateTime": 1520809550537}, {"current_trial": 102, "trialdata": {"rt": -1000, "trial_type": "single-audio", "word": "clock", "stimulus": "/static/audio/wordpool/CLOCK.wav", "conditions": [24, 800, "a", 12000], "internal_node_id": "0.0-75.0", "trial": 2, "time_elapsed": 617464, "serialpos": 13, "key_press": -1, "wordID": 324, "type": "PRES_AUD", "trial_index": 102}, "uniqueid": "MTK3613:35L9RVQFCPPV7Q3O5DK9RU7TCENHU9", "dateTime": 1520809552406}, {"current_trial": 103, "trialdata": {"rt": -1000, "trial_type": "single-audio", "word": "cupboard", "stimulus": "/static/audio/wordpool/CUPBOARD.wav", "conditions": [24, 800, "a", 12000], "internal_node_id": "0.0-76.0", "trial": 2, "time_elapsed": 619423, "serialpos": 14, "key_press": -1, "wordID": 424, "type": "PRES_AUD", "trial_index": 103}, "uniqueid": "MTK3613:35L9RVQFCPPV7Q3O5DK9RU7TCENHU9", "dateTime": 1520809554365}, {"current_trial": 104, "trialdata": {"rt": -1000, "trial_type": "single-audio", "word": "uncle", "stimulus": "/static/audio/wordpool/UNCLE.wav", "conditions": [24, 800, "a", 12000], "internal_node_id": "0.0-77.0", "trial": 2, "time_elapsed": 621169, "serialpos": 15, "key_press": -1, "wordID": 1535, "type": "PRES_AUD", "trial_index": 104}, "uniqueid": "MTK3613:35L9RVQFCPPV7Q3O5DK9RU7TCENHU9", "dateTime": 1520809556111}, {"current_trial": 105, "trialdata": {"rt": -1000, "trial_type": "single-audio", "word": "county", "stimulus": "/static/audio/wordpool/COUNTY.wav", "conditions": [24, 800, "a", 12000], "internal_node_id": "0.0-78.0", "trial": 2, "time_elapsed": 622850, "serialpos": 16, "key_press": -1, "wordID": 388, "type": "PRES_AUD", "trial_index": 105}, "uniqueid": "MTK3613:35L9RVQFCPPV7Q3O5DK9RU7TCENHU9", "dateTime": 1520809557792}, {"current_trial": 106, "trialdata": {"rt": -1000, "trial_type": "single-audio", "word": "cashier", "stimulus": "/static/audio/wordpool/CASHIER.wav", "conditions": [24, 800, "a", 12000], "internal_node_id": "0.0-79.0", "trial": 2, "time_elapsed": 624748, "serialpos": 17, "key_press": -1, "wordID": 253, "type": "PRES_AUD", "trial_index": 106}, "uniqueid": "MTK3613:35L9RVQFCPPV7Q3O5DK9RU7TCENHU9", "dateTime": 1520809559690}, {"current_trial": 107, "trialdata": {"rt": -1000, "trial_type": "single-audio", "word": "waitress", "stimulus": "/static/audio/wordpool/WAITRESS.wav", "conditions": [24, 800, "a", 12000], "internal_node_id": "0.0-80.0", "trial": 2, "time_elapsed": 626463, "serialpos": 18, "key_press": -1, "wordID": 1580, "type": "PRES_AUD", "trial_index": 107}, "uniqueid": "MTK3613:35L9RVQFCPPV7Q3O5DK9RU7TCENHU9", "dateTime": 1520809561405}, {"current_trial": 108, "trialdata": {"rt": -1000, "trial_type": "single-audio", "word": "fruit", "stimulus": "/static/audio/wordpool/FRUIT.wav", "conditions": [24, 800, "a", 12000], "internal_node_id": "0.0-81.0", "trial": 2, "time_elapsed": 628253, "serialpos": 19, "key_press": -1, "wordID": 609, "type": "PRES_AUD", "trial_index": 108}, "uniqueid": "MTK3613:35L9RVQFCPPV7Q3O5DK9RU7TCENHU9", "dateTime": 1520809563195}, {"current_trial": 109, "trialdata": {"rt": -1000, "trial_type": "single-audio", "word": "snake", "stimulus": "/static/audio/wordpool/SNAKE.wav", "conditions": [24, 800, "a", 12000], "internal_node_id": "0.0-82.0", "trial": 2, "time_elapsed": 630202, "serialpos": 20, "key_press": -1, "wordID": 1332, "type": "PRES_AUD", "trial_index": 109}, "uniqueid": "MTK3613:35L9RVQFCPPV7Q3O5DK9RU7TCENHU9", "dateTime": 1520809565144}, {"current_trial": 110, "trialdata": {"rt": -1000, "trial_type": "single-audio", "word": "bug", "stimulus": "/static/audio/wordpool/BUG.wav", "conditions": [24, 800, "a", 12000], "internal_node_id": "0.0-83.0", "trial": 2, "time_elapsed": 632132, "serialpos": 21, "key_press": -1, "wordID": 186, "type": "PRES_AUD", "trial_index": 110}, "uniqueid": "MTK3613:35L9RVQFCPPV7Q3O5DK9RU7TCENHU9", "dateTime": 1520809567074}, {"current_trial": 111, "trialdata": {"rt": -1000, "trial_type": "single-audio", "word": "hatchet", "stimulus": "/static/audio/wordpool/HATCHET.wav", "conditions": [24, 800, "a", 12000], "internal_node_id": "0.0-84.0", "trial": 2, "time_elapsed": 633943, "serialpos": 22, "key_press": -1, "wordID": 690, "type": "PRES_AUD", "trial_index": 111}, "uniqueid": "MTK3613:35L9RVQFCPPV7Q3O5DK9RU7TCENHU9", "dateTime": 1520809568885}, {"current_trial": 112, "trialdata": {"rt": -1000, "trial_type": "single-audio", "word": "smog", "stimulus": "/static/audio/wordpool/SMOG.wav", "conditions": [24, 800, "a", 12000], "internal_node_id": "0.0-85.0", "trial": 2, "time_elapsed": 635854, "serialpos": 23, "key_press": -1, "wordID": 1329, "type": "PRES_AUD", "trial_index": 112}, "uniqueid": "MTK3613:35L9RVQFCPPV7Q3O5DK9RU7TCENHU9", "dateTime": 1520809570796}, {"current_trial": 113, "trialdata": {"rt": -1, "trial_type": "single-stim", "stimulus": "", "internal_node_id": "0.0-86.0-0.0", "time_elapsed": 637106, "key_press": -1, "type": "PRE_RECALL_DELAY", "trial_index": 113}, "uniqueid": "MTK3613:35L9RVQFCPPV7Q3O5DK9RU7TCENHU9", "dateTime": 1520809572048}, {"current_trial": 114, "trialdata": {"rt": -1000, "trial_type": "single-audio", "stimulus": "/static/audio/400Hz.wav", "internal_node_id": "0.0-87.0", "time_elapsed": 637607, "key_press": -1, "type": "PRE_RECALL_ALERT", "trial_index": 114}, "uniqueid": "MTK3613:35L9RVQFCPPV7Q3O5DK9RU7TCENHU9", "dateTime": 1520809572549}, {"current_trial": 115, "trialdata": {"rt": [2987, 4784, 6928, 9118, 11995, 13556, 15180, 17041, 22521], "recwords": ["fruit", "apple", "smog", "hatchet", "uncle", "leg", "liver", "kidney", "cubbord"], "key_times": [1184, 2048, 2471, 2598, 2809, 2987, 3673, 3853, 4015, 4251, 4430, 4784, 5624, 5787, 6041, 6360, 6928, 7667, 7767, 8010, 8322, 8489, 8650, 8910, 9118, 9816, 10009, 10470, 11500, 11629, 11995, 13033, 13175, 13397, 13556, 14212, 14413, 14589, 14747, 14881, 15180, 15766, 15968, 16153, 16428, 16575, 16758, 17041, 19758, 20078, 20474, 20612, 21309, 21370, 21701, 22521], "trial_type": "free-recall", "conditions": [24, 800, "a", 12000], "internal_node_id": "0.0-88.0-0.0", "key_presses": [70, 82, 85, 73, 84, 13, 65, 80, 80, 76, 69, 13, 83, 77, 79, 71, 13, 72, 65, 84, 67, 72, 69, 84, 13, 85, 78, 67, 76, 69, 13, 76, 69, 71, 13, 76, 73, 86, 69, 82, 13, 75, 73, 68, 78, 69, 89, 13, 67, 85, 66, 66, 79, 82, 68, 13], "trial": 2, "time_elapsed": 697611, "type": "FREE_RECALL", "trial_index": 115}, "uniqueid": "MTK3613:35L9RVQFCPPV7Q3O5DK9RU7TCENHU9", "dateTime": 1520809632562}, {"current_trial": 116, "trialdata": {"rt": 3116, "trial_type": "text", "internal_node_id": "0.0-89.0", "time_elapsed": 702739, "key_press": 13, "type": "INSTRUCTIONS", "trial_index": 116}, "uniqueid": "MTK3613:35L9RVQFCPPV7Q3O5DK9RU7TCENHU9", "dateTime": 1520809637681}, {"current_trial": 117, "trialdata": {"rt": [2066, 7289, 11271, 14719, 17063, 19660, 22859], "trial_type": "math-distractor", "key_times": [1890, 2066, 6942, 7046, 7289, 10921, 11062, 11271, 14345, 14489, 14719, 16886, 17063, 19334, 19439, 19660, 22537, 22636, 22859], "responses": ["6", "18", "14", "13", "6", "18", "13"], "num2": [1, 7, 4, 2, 2, 5, 1, 6], "num3": [4, 9, 3, 7, 2, 5, 8, 9], "conditions": [24, 800, "a", 24000], "internal_node_id": "0.0-90.0", "key_presses": [102, 13, 97, 104, 13, 97, 100, 13, 97, 99, 13, 102, 13, 97, 104, 13, 97, 99, 13], "trial": 3, "time_elapsed": 728744, "type": "DISTRACTOR", "trial_index": 117, "num1": [1, 2, 7, 4, 2, 8, 4, 1]}, "uniqueid": "MTK3613:35L9RVQFCPPV7Q3O5DK9RU7TCENHU9", "dateTime": 1520809663687}, {"current_trial": 118, "trialdata": {"rt": -1, "trial_type": "single-stim", "stimulus": "<p id=\"stim\">10</p>", "internal_node_id": "0.0-91.0-0.0", "time_elapsed": 731748, "key_press": -1, "trial_index": 118}, "uniqueid": "MTK3613:35L9RVQFCPPV7Q3O5DK9RU7TCENHU9", "dateTime": 1520809666690}, {"current_trial": 119, "trialdata": {"rt": -1, "trial_type": "single-stim", "stimulus": "<p id=\"stim\">9</p>", "internal_node_id": "0.0-91.0-1.0", "time_elapsed": 732751, "key_press": -1, "trial_index": 119}, "uniqueid": "MTK3613:35L9RVQFCPPV7Q3O5DK9RU7TCENHU9", "dateTime": 1520809667694}, {"current_trial": 120, "trialdata": {"rt": -1, "trial_type": "single-stim", "stimulus": "<p id=\"stim\">8</p>", "internal_node_id": "0.0-91.0-2.0", "time_elapsed": 733754, "key_press": -1, "trial_index": 120}, "uniqueid": "MTK3613:35L9RVQFCPPV7Q3O5DK9RU7TCENHU9", "dateTime": 1520809668696}, {"current_trial": 121, "trialdata": {"rt": -1, "trial_type": "single-stim", "stimulus": "<p id=\"stim\">7</p>", "internal_node_id": "0.0-91.0-3.0", "time_elapsed": 734756, "key_press": -1, "trial_index": 121}, "uniqueid": "MTK3613:35L9RVQFCPPV7Q3O5DK9RU7TCENHU9", "dateTime": 1520809669699}, {"current_trial": 122, "trialdata": {"rt": -1, "trial_type": "single-stim", "stimulus": "<p id=\"stim\">6</p>", "internal_node_id": "0.0-91.0-4.0", "time_elapsed": 735759, "key_press": -1, "trial_index": 122}, "uniqueid": "MTK3613:35L9RVQFCPPV7Q3O5DK9RU7TCENHU9", "dateTime": 1520809670701}, {"current_trial": 123, "trialdata": {"rt": -1, "trial_type": "single-stim", "stimulus": "<p id=\"stim\">5</p>", "internal_node_id": "0.0-91.0-5.0", "time_elapsed": 736762, "key_press": -1, "trial_index": 123}, "uniqueid": "MTK3613:35L9RVQFCPPV7Q3O5DK9RU7TCENHU9", "dateTime": 1520809671704}, {"current_trial": 124, "trialdata": {"rt": -1, "trial_type": "single-stim", "stimulus": "<p id=\"stim\">4</p>", "internal_node_id": "0.0-91.0-6.0", "time_elapsed": 737764, "key_press": -1, "trial_index": 124}, "uniqueid": "MTK3613:35L9RVQFCPPV7Q3O5DK9RU7TCENHU9", "dateTime": 1520809672706}, {"current_trial": 125, "trialdata": {"rt": -1, "trial_type": "single-stim", "stimulus": "<p id=\"stim\">3</p>", "internal_node_id": "0.0-91.0-7.0", "time_elapsed": 738767, "key_press": -1, "trial_index": 125}, "uniqueid": "MTK3613:35L9RVQFCPPV7Q3O5DK9RU7TCENHU9", "dateTime": 1520809673710}, {"current_trial": 126, "trialdata": {"rt": -1, "trial_type": "single-stim", "stimulus": "<p id=\"stim\">2</p>", "internal_node_id": "0.0-91.0-8.0", "time_elapsed": 739770, "key_press": -1, "trial_index": 126}, "uniqueid": "MTK3613:35L9RVQFCPPV7Q3O5DK9RU7TCENHU9", "dateTime": 1520809674712}, {"current_trial": 127, "trialdata": {"rt": -1, "trial_type": "single-stim", "stimulus": "<p id=\"stim\">1</p>", "internal_node_id": "0.0-91.0-9.0", "time_elapsed": 740773, "key_press": -1, "trial_index": 127}, "uniqueid": "MTK3613:35L9RVQFCPPV7Q3O5DK9RU7TCENHU9", "dateTime": 1520809675715}, {"current_trial": 128, "trialdata": {"rt": -1, "trial_type": "single-stim", "stimulus": "<p id=\"stim\">+</p>", "internal_node_id": "0.0-92.0-0.0", "time_elapsed": 742276, "key_press": -1, "type": "FIXATION", "trial_index": 128}, "uniqueid": "MTK3613:35L9RVQFCPPV7Q3O5DK9RU7TCENHU9", "dateTime": 1520809677218}, {"current_trial": 129, "trialdata": {"rt": -1000, "trial_type": "single-audio", "word": "cabbage", "stimulus": "/static/audio/wordpool/CABBAGE.wav", "conditions": [24, 800, "a", 24000], "internal_node_id": "0.0-93.0", "trial": 3, "time_elapsed": 744183, "serialpos": 0, "key_press": -1, "wordID": 209, "type": "PRES_AUD", "trial_index": 129}, "uniqueid": "MTK3613:35L9RVQFCPPV7Q3O5DK9RU7TCENHU9", "dateTime": 1520809679125}, {"current_trial": 130, "trialdata": {"rt": -1000, "trial_type": "single-audio", "word": "marrow", "stimulus": "/static/audio/wordpool/MARROW.wav", "conditions": [24, 800, "a", 24000], "internal_node_id": "0.0-94.0", "trial": 3, "time_elapsed": 746015, "serialpos": 1, "key_press": -1, "wordID": 871, "type": "PRES_AUD", "trial_index": 130}, "uniqueid": "MTK3613:35L9RVQFCPPV7Q3O5DK9RU7TCENHU9", "dateTime": 1520809680957}, {"current_trial": 131, "trialdata": {"rt": -1000, "trial_type": "single-audio", "word": "palace", "stimulus": "/static/audio/wordpool/PALACE.wav", "conditions": [24, 800, "a", 24000], "internal_node_id": "0.0-95.0", "trial": 3, "time_elapsed": 747836, "serialpos": 2, "key_press": -1, "wordID": 1005, "type": "PRES_AUD", "trial_index": 131}, "uniqueid": "MTK3613:35L9RVQFCPPV7Q3O5DK9RU7TCENHU9", "dateTime": 1520809682778}, {"current_trial": 132, "trialdata": {"rt": -1000, "trial_type": "single-audio", "word": "onion", "stimulus": "/static/audio/wordpool/ONION.wav", "conditions": [24, 800, "a", 24000], "internal_node_id": "0.0-96.0", "trial": 3, "time_elapsed": 749805, "serialpos": 3, "key_press": -1, "wordID": 976, "type": "PRES_AUD", "trial_index": 132}, "uniqueid": "MTK3613:35L9RVQFCPPV7Q3O5DK9RU7TCENHU9", "dateTime": 1520809684747}, {"current_trial": 133, "trialdata": {"rt": -1000, "trial_type": "single-audio", "word": "bureau", "stimulus": "/static/audio/wordpool/BUREAU.wav", "conditions": [24, 800, "a", 24000], "internal_node_id": "0.0-97.0", "trial": 3, "time_elapsed": 751654, "serialpos": 4, "key_press": -1, "wordID": 198, "type": "PRES_AUD", "trial_index": 133}, "uniqueid": "MTK3613:35L9RVQFCPPV7Q3O5DK9RU7TCENHU9", "dateTime": 1520809686596}, {"current_trial": 134, "trialdata": {"rt": -1000, "trial_type": "single-audio", "word": "report", "stimulus": "/static/audio/wordpool/REPORT.wav", "conditions": [24, 800, "a", 24000], "internal_node_id": "0.0-98.0", "trial": 3, "time_elapsed": 753363, "serialpos": 5, "key_press": -1, "wordID": 1183, "type": "PRES_AUD", "trial_index": 134}, "uniqueid": "MTK3613:35L9RVQFCPPV7Q3O5DK9RU7TCENHU9", "dateTime": 1520809688305}, {"current_trial": 135, "trialdata": {"rt": -1000, "trial_type": "single-audio", "word": "casket", "stimulus": "/static/audio/wordpool/CASKET.wav", "conditions": [24, 800, "a", 24000], "internal_node_id": "0.0-99.0", "trial": 3, "time_elapsed": 755133, "serialpos": 6, "key_press": -1, "wordID": 254, "type": "PRES_AUD", "trial_index": 135}, "uniqueid": "MTK3613:35L9RVQFCPPV7Q3O5DK9RU7TCENHU9", "dateTime": 1520809690075}, {"current_trial": 136, "trialdata": {"rt": -1000, "trial_type": "single-audio", "word": "slope", "stimulus": "/static/audio/wordpool/SLOPE.wav", "conditions": [24, 800, "a", 24000], "internal_node_id": "0.0-100.0", "trial": 3, "time_elapsed": 756863, "serialpos": 7, "key_press": -1, "wordID": 1327, "type": "PRES_AUD", "trial_index": 136}, "uniqueid": "MTK3613:35L9RVQFCPPV7Q3O5DK9RU7TCENHU9", "dateTime": 1520809691805}, {"current_trial": 137, "trialdata": {"rt": -1000, "trial_type": "single-audio", "word": "plate", "stimulus": "/static/audio/wordpool/PLATE.wav", "conditions": [24, 800, "a", 24000], "internal_node_id": "0.0-101.0", "trial": 3, "time_elapsed": 758550, "serialpos": 8, "key_press": -1, "wordID": 1085, "type": "PRES_AUD", "trial_index": 137}, "uniqueid": "MTK3613:35L9RVQFCPPV7Q3O5DK9RU7TCENHU9", "dateTime": 1520809693493}, {"current_trial": 138, "trialdata": {"rt": -1000, "trial_type": "single-audio", "word": "daughter", "stimulus": "/static/audio/wordpool/DAUGHTER.wav", "conditions": [24, 800, "a", 24000], "internal_node_id": "0.0-102.0", "trial": 3, "time_elapsed": 760490, "serialpos": 9, "key_press": -1, "wordID": 441, "type": "PRES_AUD", "trial_index": 138}, "uniqueid": "MTK3613:35L9RVQFCPPV7Q3O5DK9RU7TCENHU9", "dateTime": 1520809695432}, {"current_trial": 139, "trialdata": {"rt": -1000, "trial_type": "single-audio", "word": "child", "stimulus": "/static/audio/wordpool/CHILD.wav", "conditions": [24, 800, "a", 24000], "internal_node_id": "0.0-103.0", "trial": 3, "time_elapsed": 762225, "serialpos": 10, "key_press": -1, "wordID": 298, "type": "PRES_AUD", "trial_index": 139}, "uniqueid": "MTK3613:35L9RVQFCPPV7Q3O5DK9RU7TCENHU9", "dateTime": 1520809697167}, {"current_trial": 140, "trialdata": {"rt": -1000, "trial_type": "single-audio", "word": "tombstone", "stimulus": "/static/audio/wordpool/TOMBSTONE.wav", "conditions": [24, 800, "a", 24000], "internal_node_id": "0.0-104.0", "trial": 3, "time_elapsed": 763885, "serialpos": 11, "key_press": -1, "wordID": 1477, "type": "PRES_AUD", "trial_index": 140}, "uniqueid": "MTK3613:35L9RVQFCPPV7Q3O5DK9RU7TCENHU9", "dateTime": 1520809698827}, {"current_trial": 141, "trialdata": {"rt": -1000, "trial_type": "single-audio", "word": "cashew", "stimulus": "/static/audio/wordpool/CASHEW.wav", "conditions": [24, 800, "a", 24000], "internal_node_id": "0.0-105.0", "trial": 3, "time_elapsed": 765590, "serialpos": 12, "key_press": -1, "wordID": 252, "type": "PRES_AUD", "trial_index": 141}, "uniqueid": "MTK3613:35L9RVQFCPPV7Q3O5DK9RU7TCENHU9", "dateTime": 1520809700532}, {"current_trial": 142, "trialdata": {"rt": -1000, "trial_type": "single-audio", "word": "shrub", "stimulus": "/static/audio/wordpool/SHRUB.wav", "conditions": [24, 800, "a", 24000], "internal_node_id": "0.0-106.0", "trial": 3, "time_elapsed": 767445, "serialpos": 13, "key_press": -1, "wordID": 1298, "type": "PRES_AUD", "trial_index": 142}, "uniqueid": "MTK3613:35L9RVQFCPPV7Q3O5DK9RU7TCENHU9", "dateTime": 1520809702391}, {"current_trial": 143, "trialdata": {"rt": -1000, "trial_type": "single-audio", "word": "rebel", "stimulus": "/static/audio/wordpool/REBEL.wav", "conditions": [24, 800, "a", 24000], "internal_node_id": "0.0-107.0", "trial": 3, "time_elapsed": 769225, "serialpos": 14, "key_press": -1, "wordID": 1171, "type": "PRES_AUD", "trial_index": 143}, "uniqueid": "MTK3613:35L9RVQFCPPV7Q3O5DK9RU7TCENHU9", "dateTime": 1520809704167}, {"current_trial": 144, "trialdata": {"rt": -1000, "trial_type": "single-audio", "word": "hamper", "stimulus": "/static/audio/wordpool/HAMPER.wav", "conditions": [24, 800, "a", 24000], "internal_node_id": "0.0-108.0", "trial": 3, "time_elapsed": 770876, "serialpos": 15, "key_press": -1, "wordID": 681, "type": "PRES_AUD", "trial_index": 144}, "uniqueid": "MTK3613:35L9RVQFCPPV7Q3O5DK9RU7TCENHU9", "dateTime": 1520809705818}, {"current_trial": 145, "trialdata": {"rt": -1000, "trial_type": "single-audio", "word": "sphinx", "stimulus": "/static/audio/wordpool/SPHINX.wav", "conditions": [24, 800, "a", 24000], "internal_node_id": "0.0-109.0", "trial": 3, "time_elapsed": 772742, "serialpos": 16, "key_press": -1, "wordID": 1348, "type": "PRES_AUD", "trial_index": 145}, "uniqueid": "MTK3613:35L9RVQFCPPV7Q3O5DK9RU7TCENHU9", "dateTime": 1520809707684}, {"current_trial": 146, "trialdata": {"rt": -1000, "trial_type": "single-audio", "word": "wrist", "stimulus": "/static/audio/wordpool/WRIST.wav", "conditions": [24, 800, "a", 24000], "internal_node_id": "0.0-110.0", "trial": 3, "time_elapsed": 774689, "serialpos": 17, "key_press": -1, "wordID": 1625, "type": "PRES_AUD", "trial_index": 146}, "uniqueid": "MTK3613:35L9RVQFCPPV7Q3O5DK9RU7TCENHU9", "dateTime": 1520809709632}, {"current_trial": 147, "trialdata": {"rt": -1000, "trial_type": "single-audio", "word": "antler", "stimulus": "/static/audio/wordpool/ANTLER.wav", "conditions": [24, 800, "a", 24000], "internal_node_id": "0.0-111.0", "trial": 3, "time_elapsed": 776537, "serialpos": 18, "key_press": -1, "wordID": 28, "type": "PRES_AUD", "trial_index": 147}, "uniqueid": "MTK3613:35L9RVQFCPPV7Q3O5DK9RU7TCENHU9", "dateTime": 1520809711480}, {"current_trial": 148, "trialdata": {"rt": -1000, "trial_type": "single-audio", "word": "shortcake", "stimulus": "/static/audio/wordpool/SHORTCAKE.wav", "conditions": [24, 800, "a", 24000], "internal_node_id": "0.0-112.0", "trial": 3, "time_elapsed": 778384, "serialpos": 19, "key_press": -1, "wordID": 1291, "type": "PRES_AUD", "trial_index": 148}, "uniqueid": "MTK3613:35L9RVQFCPPV7Q3O5DK9RU7TCENHU9", "dateTime": 1520809713326}, {"current_trial": 149, "trialdata": {"rt": -1000, "trial_type": "single-audio", "word": "shoulder", "stimulus": "/static/audio/wordpool/SHOULDER.wav", "conditions": [24, 800, "a", 24000], "internal_node_id": "0.0-113.0", "trial": 3, "time_elapsed": 780372, "serialpos": 20, "key_press": -1, "wordID": 1293, "type": "PRES_AUD", "trial_index": 149}, "uniqueid": "MTK3613:35L9RVQFCPPV7Q3O5DK9RU7TCENHU9", "dateTime": 1520809715314}, {"current_trial": 150, "trialdata": {"rt": -1000, "trial_type": "single-audio", "word": "cattle", "stimulus": "/static/audio/wordpool/CATTLE.wav", "conditions": [24, 800, "a", 24000], "internal_node_id": "0.0-114.0", "trial": 3, "time_elapsed": 782088, "serialpos": 21, "key_press": -1, "wordID": 260, "type": "PRES_AUD", "trial_index": 150}, "uniqueid": "MTK3613:35L9RVQFCPPV7Q3O5DK9RU7TCENHU9", "dateTime": 1520809717030}, {"current_trial": 151, "trialdata": {"rt": -1000, "trial_type": "single-audio", "word": "beef", "stimulus": "/static/audio/wordpool/BEEF.wav", "conditions": [24, 800, "a", 24000], "internal_node_id": "0.0-115.0", "trial": 3, "time_elapsed": 783710, "serialpos": 22, "key_press": -1, "wordID": 112, "type": "PRES_AUD", "trial_index": 151}, "uniqueid": "MTK3613:35L9RVQFCPPV7Q3O5DK9RU7TCENHU9", "dateTime": 1520809718652}, {"current_trial": 152, "trialdata": {"rt": -1000, "trial_type": "single-audio", "word": "orchid", "stimulus": "/static/audio/wordpool/ORCHID.wav", "conditions": [24, 800, "a", 24000], "internal_node_id": "0.0-116.0", "trial": 3, "time_elapsed": 785543, "serialpos": 23, "key_press": -1, "wordID": 981, "type": "PRES_AUD", "trial_index": 152}, "uniqueid": "MTK3613:35L9RVQFCPPV7Q3O5DK9RU7TCENHU9", "dateTime": 1520809720486}, {"current_trial": 153, "trialdata": {"rt": -1, "trial_type": "single-stim", "stimulus": "", "internal_node_id": "0.0-117.0-0.0", "time_elapsed": 786851, "key_press": -1, "type": "PRE_RECALL_DELAY", "trial_index": 153}, "uniqueid": "MTK3613:35L9RVQFCPPV7Q3O5DK9RU7TCENHU9", "dateTime": 1520809721793}, {"current_trial": 154, "trialdata": {"rt": -1000, "trial_type": "single-audio", "stimulus": "/static/audio/400Hz.wav", "internal_node_id": "0.0-118.0", "time_elapsed": 787354, "key_press": -1, "type": "PRE_RECALL_ALERT", "trial_index": 154}, "uniqueid": "MTK3613:35L9RVQFCPPV7Q3O5DK9RU7TCENHU9", "dateTime": 1520809722296}, {"current_trial": 155, "trialdata": {"rt": [2811, 4633, 8727, 14064, 22672, 25156, 29401, 34117], "recwords": ["cattle", "beef", "orchid", "sholder", "slope", "daughter", "casket", "cabbage"], "key_times": [1218, 1373, 2244, 2367, 2521, 2625, 2811, 3473, 3612, 3766, 4207, 4633, 5321, 5497, 6392, 6511, 6626, 6861, 8080, 8243, 8727, 10365, 10547, 10554, 11115, 11687, 11832, 12023, 12794, 13032, 13262, 13426, 13643, 13764, 14064, 21176, 21292, 21527, 21634, 22499, 22672, 23392, 23638, 24003, 24253, 24396, 24541, 24750, 24933, 25156, 27919, 28143, 28381, 28806, 28891, 29137, 29401, 32186, 32385, 32767, 32903, 33048, 33271, 33477, 34117], "trial_type": "free-recall", "conditions": [24, 800, "a", 24000], "internal_node_id": "0.0-119.0-0.0", "key_presses": [67, 65, 84, 84, 76, 69, 13, 66, 69, 69, 70, 13, 79, 82, 67, 72, 73, 83, 8, 68, 13, 83, 79, 72, 76, 8, 8, 8, 72, 79, 76, 68, 69, 82, 13, 83, 76, 79, 80, 69, 13, 68, 65, 85, 71, 72, 84, 69, 82, 13, 67, 65, 83, 75, 69, 84, 13, 67, 65, 66, 66, 65, 71, 69, 13], "trial": 3, "time_elapsed": 847359, "type": "FREE_RECALL", "trial_index": 155}, "uniqueid": "MTK3613:35L9RVQFCPPV7Q3O5DK9RU7TCENHU9", "dateTime": 1520809782312}, {"current_trial": 156, "trialdata": {"rt": 1492, "trial_type": "text", "internal_node_id": "0.0-120.0", "time_elapsed": 850865, "key_press": 13, "type": "INSTRUCTIONS", "trial_index": 156}, "uniqueid": "MTK3613:35L9RVQFCPPV7Q3O5DK9RU7TCENHU9", "dateTime": 1520809785807}, {"current_trial": 157, "trialdata": {"rt": [8578, 11924, 12008, 13758, 19228, 21309], "trial_type": "math-distractor", "key_times": [8098, 8196, 8578, 11578, 11648, 11924, 12008, 13606, 13758, 18951, 19105, 19228, 21091, 21226, 21309], "responses": ["18", "13", "", "6", "22", "11"], "num2": [1, 3, 4, 1, 8, 8, 7], "num3": [9, 8, 1, 4, 7, 1, 3], "conditions": [24, 1600, "a", 24000], "internal_node_id": "0.0-121.0", "key_presses": [97, 104, 13, 97, 99, 13, 13, 102, 13, 98, 98, 13, 97, 97, 13], "trial": 4, "time_elapsed": 876872, "type": "DISTRACTOR", "trial_index": 157, "num1": [8, 2, 7, 1, 7, 2, 7]}, "uniqueid": "MTK3613:35L9RVQFCPPV7Q3O5DK9RU7TCENHU9", "dateTime": 1520809811814}, {"current_trial": 158, "trialdata": {"rt": -1, "trial_type": "single-stim", "stimulus": "<p id=\"stim\">10</p>", "internal_node_id": "0.0-122.0-0.0", "time_elapsed": 879874, "key_press": -1, "trial_index": 158}, "uniqueid": "MTK3613:35L9RVQFCPPV7Q3O5DK9RU7TCENHU9", "dateTime": 1520809814817}, {"current_trial": 159, "trialdata": {"rt": -1, "trial_type": "single-stim", "stimulus": "<p id=\"stim\">9</p>", "internal_node_id": "0.0-122.0-1.0", "time_elapsed": 880875, "key_press": -1, "trial_index": 159}, "uniqueid": "MTK3613:35L9RVQFCPPV7Q3O5DK9RU7TCENHU9", "dateTime": 1520809815817}, {"current_trial": 160, "trialdata": {"rt": -1, "trial_type": "single-stim", "stimulus": "<p id=\"stim\">8</p>", "internal_node_id": "0.0-122.0-2.0", "time_elapsed": 881877, "key_press": -1, "trial_index": 160}, "uniqueid": "MTK3613:35L9RVQFCPPV7Q3O5DK9RU7TCENHU9", "dateTime": 1520809816820}, {"current_trial": 161, "trialdata": {"rt": -1, "trial_type": "single-stim", "stimulus": "<p id=\"stim\">7</p>", "internal_node_id": "0.0-122.0-3.0", "time_elapsed": 882880, "key_press": -1, "trial_index": 161}, "uniqueid": "MTK3613:35L9RVQFCPPV7Q3O5DK9RU7TCENHU9", "dateTime": 1520809817822}, {"current_trial": 162, "trialdata": {"rt": -1, "trial_type": "single-stim", "stimulus": "<p id=\"stim\">6</p>", "internal_node_id": "0.0-122.0-4.0", "time_elapsed": 883882, "key_press": -1, "trial_index": 162}, "uniqueid": "MTK3613:35L9RVQFCPPV7Q3O5DK9RU7TCENHU9", "dateTime": 1520809818824}, {"current_trial": 163, "trialdata": {"rt": -1, "trial_type": "single-stim", "stimulus": "<p id=\"stim\">5</p>", "internal_node_id": "0.0-122.0-5.0", "time_elapsed": 884884, "key_press": -1, "trial_index": 163}, "uniqueid": "MTK3613:35L9RVQFCPPV7Q3O5DK9RU7TCENHU9", "dateTime": 1520809819826}, {"current_trial": 164, "trialdata": {"rt": -1, "trial_type": "single-stim", "stimulus": "<p id=\"stim\">4</p>", "internal_node_id": "0.0-122.0-6.0", "time_elapsed": 885887, "key_press": -1, "trial_index": 164}, "uniqueid": "MTK3613:35L9RVQFCPPV7Q3O5DK9RU7TCENHU9", "dateTime": 1520809820829}, {"current_trial": 165, "trialdata": {"rt": -1, "trial_type": "single-stim", "stimulus": "<p id=\"stim\">3</p>", "internal_node_id": "0.0-122.0-7.0", "time_elapsed": 886889, "key_press": -1, "trial_index": 165}, "uniqueid": "MTK3613:35L9RVQFCPPV7Q3O5DK9RU7TCENHU9", "dateTime": 1520809821831}, {"current_trial": 166, "trialdata": {"rt": -1, "trial_type": "single-stim", "stimulus": "<p id=\"stim\">2</p>", "internal_node_id": "0.0-122.0-8.0", "time_elapsed": 887891, "key_press": -1, "trial_index": 166}, "uniqueid": "MTK3613:35L9RVQFCPPV7Q3O5DK9RU7TCENHU9", "dateTime": 1520809822833}, {"current_trial": 167, "trialdata": {"rt": -1, "trial_type": "single-stim", "stimulus": "<p id=\"stim\">1</p>", "internal_node_id": "0.0-122.0-9.0", "time_elapsed": 888894, "key_press": -1, "trial_index": 167}, "uniqueid": "MTK3613:35L9RVQFCPPV7Q3O5DK9RU7TCENHU9", "dateTime": 1520809823836}, {"current_trial": 168, "trialdata": {"rt": -1, "trial_type": "single-stim", "stimulus": "<p id=\"stim\">+</p>", "internal_node_id": "0.0-123.0-0.0", "time_elapsed": 890397, "key_press": -1, "type": "FIXATION", "trial_index": 168}, "uniqueid": "MTK3613:35L9RVQFCPPV7Q3O5DK9RU7TCENHU9", "dateTime": 1520809825340}, {"current_trial": 169, "trialdata": {"rt": -1000, "trial_type": "single-audio", "word": "pigeon", "stimulus": "/static/audio/wordpool/PIGEON.wav", "conditions": [24, 1600, "a", 24000], "internal_node_id": "0.0-124.0", "trial": 4, "time_elapsed": 893066, "serialpos": 0, "key_press": -1, "wordID": 1064, "type": "PRES_AUD", "trial_index": 169}, "uniqueid": "MTK3613:35L9RVQFCPPV7Q3O5DK9RU7TCENHU9", "dateTime": 1520809828008}, {"current_trial": 170, "trialdata": {"rt": -1000, "trial_type": "single-audio", "word": "razor", "stimulus": "/static/audio/wordpool/RAZOR.wav", "conditions": [24, 1600, "a", 24000], "internal_node_id": "0.0-125.0", "trial": 4, "time_elapsed": 895715, "serialpos": 1, "key_press": -1, "wordID": 1170, "type": "PRES_AUD", "trial_index": 170}, "uniqueid": "MTK3613:35L9RVQFCPPV7Q3O5DK9RU7TCENHU9", "dateTime": 1520809830657}, {"current_trial": 171, "trialdata": {"rt": -1000, "trial_type": "single-audio", "word": "sibling", "stimulus": "/static/audio/wordpool/SIBLING.wav", "conditions": [24, 1600, "a", 24000], "internal_node_id": "0.0-126.0", "trial": 4, "time_elapsed": 898170, "serialpos": 2, "key_press": -1, "wordID": 1300, "type": "PRES_AUD", "trial_index": 171}, "uniqueid": "MTK3613:35L9RVQFCPPV7Q3O5DK9RU7TCENHU9", "dateTime": 1520809833112}, {"current_trial": 172, "trialdata": {"rt": -1000, "trial_type": "single-audio", "word": "milk", "stimulus": "/static/audio/wordpool/MILK.wav", "conditions": [24, 1600, "a", 24000], "internal_node_id": "0.0-127.0", "trial": 4, "time_elapsed": 900879, "serialpos": 3, "key_press": -1, "wordID": 894, "type": "PRES_AUD", "trial_index": 172}, "uniqueid": "MTK3613:35L9RVQFCPPV7Q3O5DK9RU7TCENHU9", "dateTime": 1520809835821}, {"current_trial": 173, "trialdata": {"rt": -1000, "trial_type": "single-audio", "word": "scissors", "stimulus": "/static/audio/wordpool/SCISSORS.wav", "conditions": [24, 1600, "a", 24000], "internal_node_id": "0.0-128.0", "trial": 4, "time_elapsed": 903498, "serialpos": 4, "key_press": -1, "wordID": 1249, "type": "PRES_AUD", "trial_index": 173}, "uniqueid": "MTK3613:35L9RVQFCPPV7Q3O5DK9RU7TCENHU9", "dateTime": 1520809838441}, {"current_trial": 174, "trialdata": {"rt": -1000, "trial_type": "single-audio", "word": "peanut", "stimulus": "/static/audio/wordpool/PEANUT.wav", "conditions": [24, 1600, "a", 24000], "internal_node_id": "0.0-129.0", "trial": 4, "time_elapsed": 906067, "serialpos": 5, "key_press": -1, "wordID": 1031, "type": "PRES_AUD", "trial_index": 174}, "uniqueid": "MTK3613:35L9RVQFCPPV7Q3O5DK9RU7TCENHU9", "dateTime": 1520809841009}, {"current_trial": 175, "trialdata": {"rt": -1000, "trial_type": "single-audio", "word": "brandy", "stimulus": "/static/audio/wordpool/BRANDY.wav", "conditions": [24, 1600, "a", 24000], "internal_node_id": "0.0-130.0", "trial": 4, "time_elapsed": 908551, "serialpos": 6, "key_press": -1, "wordID": 168, "type": "PRES_AUD", "trial_index": 175}, "uniqueid": "MTK3613:35L9RVQFCPPV7Q3O5DK9RU7TCENHU9", "dateTime": 1520809843493}, {"current_trial": 176, "trialdata": {"rt": -1000, "trial_type": "single-audio", "word": "neutron", "stimulus": "/static/audio/wordpool/NEUTRON.wav", "conditions": [24, 1600, "a", 24000], "internal_node_id": "0.0-131.0", "trial": 4, "time_elapsed": 911286, "serialpos": 7, "key_press": -1, "wordID": 946, "type": "PRES_AUD", "trial_index": 176}, "uniqueid": "MTK3613:35L9RVQFCPPV7Q3O5DK9RU7TCENHU9", "dateTime": 1520809846228}, {"current_trial": 177, "trialdata": {"rt": -1000, "trial_type": "single-audio", "word": "rod", "stimulus": "/static/audio/wordpool/ROD.wav", "conditions": [24, 1600, "a", 24000], "internal_node_id": "0.0-132.0", "trial": 4, "time_elapsed": 913708, "serialpos": 8, "key_press": -1, "wordID": 1202, "type": "PRES_AUD", "trial_index": 177}, "uniqueid": "MTK3613:35L9RVQFCPPV7Q3O5DK9RU7TCENHU9", "dateTime": 1520809848651}, {"current_trial": 178, "trialdata": {"rt": -1000, "trial_type": "single-audio", "word": "canal", "stimulus": "/static/audio/wordpool/CANAL.wav", "conditions": [24, 1600, "a", 24000], "internal_node_id": "0.0-133.0", "trial": 4, "time_elapsed": 916341, "serialpos": 9, "key_press": -1, "wordID": 225, "type": "PRES_AUD", "trial_index": 178}, "uniqueid": "MTK3613:35L9RVQFCPPV7Q3O5DK9RU7TCENHU9", "dateTime": 1520809851286}, {"current_trial": 179, "trialdata": {"rt": -1000, "trial_type": "single-audio", "word": "sunrise", "stimulus": "/static/audio/wordpool/SUNRISE.wav", "conditions": [24, 1600, "a", 24000], "internal_node_id": "0.0-134.0", "trial": 4, "time_elapsed": 919069, "serialpos": 10, "key_press": -1, "wordID": 1406, "type": "PRES_AUD", "trial_index": 179}, "uniqueid": "MTK3613:35L9RVQFCPPV7Q3O5DK9RU7TCENHU9", "dateTime": 1520809854011}, {"current_trial": 180, "trialdata": {"rt": -1000, "trial_type": "single-audio", "word": "sunset", "stimulus": "/static/audio/wordpool/SUNSET.wav", "conditions": [24, 1600, "a", 24000], "internal_node_id": "0.0-135.0", "trial": 4, "time_elapsed": 921834, "serialpos": 11, "key_press": -1, "wordID": 1407, "type": "PRES_AUD", "trial_index": 180}, "uniqueid": "MTK3613:35L9RVQFCPPV7Q3O5DK9RU7TCENHU9", "dateTime": 1520809856776}, {"current_trial": 181, "trialdata": {"rt": -1000, "trial_type": "single-audio", "word": "truck", "stimulus": "/static/audio/wordpool/TRUCK.wav", "conditions": [24, 1600, "a", 24000], "internal_node_id": "0.0-136.0", "trial": 4, "time_elapsed": 924367, "serialpos": 12, "key_press": -1, "wordID": 1511, "type": "PRES_AUD", "trial_index": 181}, "uniqueid": "MTK3613:35L9RVQFCPPV7Q3O5DK9RU7TCENHU9", "dateTime": 1520809859310}, {"current_trial": 182, "trialdata": {"rt": -1000, "trial_type": "single-audio", "word": "scarf", "stimulus": "/static/audio/wordpool/SCARF.wav", "conditions": [24, 1600, "a", 24000], "internal_node_id": "0.0-137.0", "trial": 4, "time_elapsed": 926896, "serialpos": 13, "key_press": -1, "wordID": 1245, "type": "PRES_AUD", "trial_index": 182}, "uniqueid": "MTK3613:35L9RVQFCPPV7Q3O5DK9RU7TCENHU9", "dateTime": 1520809861838}, {"current_trial": 183, "trialdata": {"rt": -1000, "trial_type": "single-audio", "word": "atom", "stimulus": "/static/audio/wordpool/ATOM.wav", "conditions": [24, 1600, "a", 24000], "internal_node_id": "0.0-138.0", "trial": 4, "time_elapsed": 929598, "serialpos": 14, "key_press": -1, "wordID": 54, "type": "PRES_AUD", "trial_index": 183}, "uniqueid": "MTK3613:35L9RVQFCPPV7Q3O5DK9RU7TCENHU9", "dateTime": 1520809864541}, {"current_trial": 184, "trialdata": {"rt": -1000, "trial_type": "single-audio", "word": "sketch", "stimulus": "/static/audio/wordpool/SKETCH.wav", "conditions": [24, 1600, "a", 24000], "internal_node_id": "0.0-139.0", "trial": 4, "time_elapsed": 932187, "serialpos": 15, "key_press": -1, "wordID": 1314, "type": "PRES_AUD", "trial_index": 184}, "uniqueid": "MTK3613:35L9RVQFCPPV7Q3O5DK9RU7TCENHU9", "dateTime": 1520809867129}, {"current_trial": 185, "trialdata": {"rt": -1000, "trial_type": "single-audio", "word": "robot", "stimulus": "/static/audio/wordpool/ROBOT.wav", "conditions": [24, 1600, "a", 24000], "internal_node_id": "0.0-140.0", "trial": 4, "time_elapsed": 934844, "serialpos": 16, "key_press": -1, "wordID": 1199, "type": "PRES_AUD", "trial_index": 185}, "uniqueid": "MTK3613:35L9RVQFCPPV7Q3O5DK9RU7TCENHU9", "dateTime": 1520809869788}, {"current_trial": 186, "trialdata": {"rt": -1000, "trial_type": "single-audio", "word": "sandwich", "stimulus": "/static/audio/wordpool/SANDWICH.wav", "conditions": [24, 1600, "a", 24000], "internal_node_id": "0.0-141.0", "trial": 4, "time_elapsed": 937422, "serialpos": 17, "key_press": -1, "wordID": 1231, "type": "PRES_AUD", "trial_index": 186}, "uniqueid": "MTK3613:35L9RVQFCPPV7Q3O5DK9RU7TCENHU9", "dateTime": 1520809872364}, {"current_trial": 187, "trialdata": {"rt": -1000, "trial_type": "single-audio", "word": "driver", "stimulus": "/static/audio/wordpool/DRIVER.wav", "conditions": [24, 1600, "a", 24000], "internal_node_id": "0.0-142.0", "trial": 4, "time_elapsed": 939867, "serialpos": 18, "key_press": -1, "wordID": 498, "type": "PRES_AUD", "trial_index": 187}, "uniqueid": "MTK3613:35L9RVQFCPPV7Q3O5DK9RU7TCENHU9", "dateTime": 1520809874809}, {"current_trial": 188, "trialdata": {"rt": -1000, "trial_type": "single-audio", "word": "poet", "stimulus": "/static/audio/wordpool/POET.wav", "conditions": [24, 1600, "a", 24000], "internal_node_id": "0.0-143.0", "trial": 4, "time_elapsed": 942589, "serialpos": 19, "key_press": -1, "wordID": 1094, "type": "PRES_AUD", "trial_index": 188}, "uniqueid": "MTK3613:35L9RVQFCPPV7Q3O5DK9RU7TCENHU9", "dateTime": 1520809877531}, {"current_trial": 189, "trialdata": {"rt": -1000, "trial_type": "single-audio", "word": "river", "stimulus": "/static/audio/wordpool/RIVER.wav", "conditions": [24, 1600, "a", 24000], "internal_node_id": "0.0-144.0", "trial": 4, "time_elapsed": 945220, "serialpos": 20, "key_press": -1, "wordID": 1193, "type": "PRES_AUD", "trial_index": 189}, "uniqueid": "MTK3613:35L9RVQFCPPV7Q3O5DK9RU7TCENHU9", "dateTime": 1520809880162}, {"current_trial": 190, "trialdata": {"rt": -1000, "trial_type": "single-audio", "word": "lake", "stimulus": "/static/audio/wordpool/LAKE.wav", "conditions": [24, 1600, "a", 24000], "internal_node_id": "0.0-145.0", "trial": 4, "time_elapsed": 947723, "serialpos": 21, "key_press": -1, "wordID": 795, "type": "PRES_AUD", "trial_index": 190}, "uniqueid": "MTK3613:35L9RVQFCPPV7Q3O5DK9RU7TCENHU9", "dateTime": 1520809882665}, {"current_trial": 191, "trialdata": {"rt": -1000, "trial_type": "single-audio", "word": "hiker", "stimulus": "/static/audio/wordpool/HIKER.wav", "conditions": [24, 1600, "a", 24000], "internal_node_id": "0.0-146.0", "trial": 4, "time_elapsed": 950423, "serialpos": 22, "key_press": -1, "wordID": 707, "type": "PRES_AUD", "trial_index": 191}, "uniqueid": "MTK3613:35L9RVQFCPPV7Q3O5DK9RU7TCENHU9", "dateTime": 1520809885365}, {"current_trial": 192, "trialdata": {"rt": -1000, "trial_type": "single-audio", "word": "gymnast", "stimulus": "/static/audio/wordpool/GYMNAST.wav", "conditions": [24, 1600, "a", 24000], "internal_node_id": "0.0-147.0", "trial": 4, "time_elapsed": 952922, "serialpos": 23, "key_press": -1, "wordID": 674, "type": "PRES_AUD", "trial_index": 192}, "uniqueid": "MTK3613:35L9RVQFCPPV7Q3O5DK9RU7TCENHU9", "dateTime": 1520809887865}, {"current_trial": 193, "trialdata": {"rt": -1, "trial_type": "single-stim", "stimulus": "", "internal_node_id": "0.0-148.0-0.0", "time_elapsed": 954192, "key_press": -1, "type": "PRE_RECALL_DELAY", "trial_index": 193}, "uniqueid": "MTK3613:35L9RVQFCPPV7Q3O5DK9RU7TCENHU9", "dateTime": 1520809889134}, {"current_trial": 194, "trialdata": {"rt": -1000, "trial_type": "single-audio", "stimulus": "/static/audio/400Hz.wav", "internal_node_id": "0.0-149.0", "time_elapsed": 954695, "key_press": -1, "type": "PRE_RECALL_ALERT", "trial_index": 194}, "uniqueid": "MTK3613:35L9RVQFCPPV7Q3O5DK9RU7TCENHU9", "dateTime": 1520809889637}, {"current_trial": 195, "trialdata": {"rt": [3102, 6155, 11806, 13721, 17578, 25336, 30971, 32980, 43596, 52894], "recwords": ["sandwich", "truck", "river", "cannal", "driver", "peanut", "sunrise", "sunset", "sibiling", "bird"], "key_times": [1029, 1203, 1361, 1527, 2402, 2504, 2770, 2878, 3102, 3843, 4265, 4519, 4779, 5791, 6155, 10871, 11027, 11225, 11414, 11519, 11806, 12550, 12660, 12958, 13089, 13256, 13354, 13721, 16180, 16372, 16532, 16875, 17052, 17189, 17578, 23642, 23782, 24026, 24531, 24661, 25161, 25336, 28421, 28507, 28649, 29686, 29840, 30491, 30714, 30971, 31857, 31983, 32105, 32346, 32591, 32835, 32980, 40726, 40892, 41197, 41532, 41955, 42137, 42828, 42921, 43596, 51154, 51216, 51418, 52164, 52381, 52566, 52894], "trial_type": "free-recall", "conditions": [24, 1600, "a", 24000], "internal_node_id": "0.0-150.0-0.0", "key_presses": [83, 65, 78, 68, 87, 73, 67, 72, 13, 84, 82, 85, 67, 75, 13, 82, 73, 86, 69, 82, 13, 67, 65, 78, 78, 65, 76, 13, 68, 82, 73, 86, 69, 82, 13, 80, 69, 65, 78, 85, 84, 13, 83, 85, 78, 82, 73, 83, 69, 13, 83, 85, 78, 83, 69, 84, 13, 83, 73, 66, 73, 76, 73, 78, 71, 13, 66, 73, 68, 8, 82, 68, 13], "trial": 4, "time_elapsed": 1014699, "type": "FREE_RECALL", "trial_index": 195}, "uniqueid": "MTK3613:35L9RVQFCPPV7Q3O5DK9RU7TCENHU9", "dateTime": 1520809949650}, {"current_trial": 196, "trialdata": {"rt": 1958, "trial_type": "text", "internal_node_id": "0.0-151.0", "time_elapsed": 1018668, "key_press": 13, "type": "INSTRUCTIONS", "trial_index": 196}, "uniqueid": "MTK3613:35L9RVQFCPPV7Q3O5DK9RU7TCENHU9", "dateTime": 1520809953610}, {"current_trial": 197, "trialdata": {"rt": [4744], "trial_type": "math-distractor", "key_times": [4261, 4310, 4744], "responses": ["18"], "num2": [6, 9], "num3": [9, 8], "conditions": [24, 800, "a", 12000], "internal_node_id": "0.0-152.0", "key_presses": [97, 104, 13], "trial": 5, "time_elapsed": 1032675, "type": "DISTRACTOR", "trial_index": 197, "num1": [3, 9]}, "uniqueid": "MTK3613:35L9RVQFCPPV7Q3O5DK9RU7TCENHU9", "dateTime": 1520809967617}, {"current_trial": 198, "trialdata": {"rt": -1, "trial_type": "single-stim", "stimulus": "<p id=\"stim\">10</p>", "internal_node_id": "0.0-153.0-0.0", "time_elapsed": 1035679, "key_press": -1, "trial_index": 198}, "uniqueid": "MTK3613:35L9RVQFCPPV7Q3O5DK9RU7TCENHU9", "dateTime": 1520809970621}, {"current_trial": 199, "trialdata": {"rt": -1, "trial_type": "single-stim", "stimulus": "<p id=\"stim\">9</p>", "internal_node_id": "0.0-153.0-1.0", "time_elapsed": 1036681, "key_press": -1, "trial_index": 199}, "uniqueid": "MTK3613:35L9RVQFCPPV7Q3O5DK9RU7TCENHU9", "dateTime": 1520809971624}, {"current_trial": 200, "trialdata": {"rt": -1, "trial_type": "single-stim", "stimulus": "<p id=\"stim\">8</p>", "internal_node_id": "0.0-153.0-2.0", "time_elapsed": 1037684, "key_press": -1, "trial_index": 200}, "uniqueid": "MTK3613:35L9RVQFCPPV7Q3O5DK9RU7TCENHU9", "dateTime": 1520809972627}, {"current_trial": 201, "trialdata": {"rt": -1, "trial_type": "single-stim", "stimulus": "<p id=\"stim\">7</p>", "internal_node_id": "0.0-153.0-3.0", "time_elapsed": 1038687, "key_press": -1, "trial_index": 201}, "uniqueid": "MTK3613:35L9RVQFCPPV7Q3O5DK9RU7TCENHU9", "dateTime": 1520809973630}, {"current_trial": 202, "trialdata": {"rt": -1, "trial_type": "single-stim", "stimulus": "<p id=\"stim\">6</p>", "internal_node_id": "0.0-153.0-4.0", "time_elapsed": 1039690, "key_press": -1, "trial_index": 202}, "uniqueid": "MTK3613:35L9RVQFCPPV7Q3O5DK9RU7TCENHU9", "dateTime": 1520809974633}, {"current_trial": 203, "trialdata": {"rt": -1, "trial_type": "single-stim", "stimulus": "<p id=\"stim\">5</p>", "internal_node_id": "0.0-153.0-5.0", "time_elapsed": 1040693, "key_press": -1, "trial_index": 203}, "uniqueid": "MTK3613:35L9RVQFCPPV7Q3O5DK9RU7TCENHU9", "dateTime": 1520809975636}, {"current_trial": 204, "trialdata": {"rt": -1, "trial_type": "single-stim", "stimulus": "<p id=\"stim\">4</p>", "internal_node_id": "0.0-153.0-6.0", "time_elapsed": 1041695, "key_press": -1, "trial_index": 204}, "uniqueid": "MTK3613:35L9RVQFCPPV7Q3O5DK9RU7TCENHU9", "dateTime": 1520809976637}, {"current_trial": 205, "trialdata": {"rt": -1, "trial_type": "single-stim", "stimulus": "<p id=\"stim\">3</p>", "internal_node_id": "0.0-153.0-7.0", "time_elapsed": 1042699, "key_press": -1, "trial_index": 205}, "uniqueid": "MTK3613:35L9RVQFCPPV7Q3O5DK9RU7TCENHU9", "dateTime": 1520809977641}, {"current_trial": 206, "trialdata": {"rt": -1, "trial_type": "single-stim", "stimulus": "<p id=\"stim\">2</p>", "internal_node_id": "0.0-153.0-8.0", "time_elapsed": 1043701, "key_press": -1, "trial_index": 206}, "uniqueid": "MTK3613:35L9RVQFCPPV7Q3O5DK9RU7TCENHU9", "dateTime": 1520809978643}, {"current_trial": 207, "trialdata": {"rt": -1, "trial_type": "single-stim", "stimulus": "<p id=\"stim\">1</p>", "internal_node_id": "0.0-153.0-9.0", "time_elapsed": 1044704, "key_press": -1, "trial_index": 207}, "uniqueid": "MTK3613:35L9RVQFCPPV7Q3O5DK9RU7TCENHU9", "dateTime": 1520809979646}, {"current_trial": 208, "trialdata": {"rt": -1, "trial_type": "single-stim", "stimulus": "<p id=\"stim\">+</p>", "internal_node_id": "0.0-154.0-0.0", "time_elapsed": 1046206, "key_press": -1, "type": "FIXATION", "trial_index": 208}, "uniqueid": "MTK3613:35L9RVQFCPPV7Q3O5DK9RU7TCENHU9", "dateTime": 1520809981148}, {"current_trial": 209, "trialdata": {"rt": -1000, "trial_type": "single-audio", "word": "omelet", "stimulus": "/static/audio/wordpool/OMELET.wav", "conditions": [24, 800, "a", 12000], "internal_node_id": "0.0-155.0", "trial": 5, "time_elapsed": 1048201, "serialpos": 0, "key_press": -1, "wordID": 975, "type": "PRES_AUD", "trial_index": 209}, "uniqueid": "MTK3613:35L9RVQFCPPV7Q3O5DK9RU7TCENHU9", "dateTime": 1520809983144}, {"current_trial": 210, "trialdata": {"rt": -1000, "trial_type": "single-audio", "word": "denim", "stimulus": "/static/audio/wordpool/DENIM.wav", "conditions": [24, 800, "a", 12000], "internal_node_id": "0.0-156.0", "trial": 5, "time_elapsed": 1050019, "serialpos": 1, "key_press": -1, "wordID": 445, "type": "PRES_AUD", "trial_index": 210}, "uniqueid": "MTK3613:35L9RVQFCPPV7Q3O5DK9RU7TCENHU9", "dateTime": 1520809984961}, {"current_trial": 211, "trialdata": {"rt": -1000, "trial_type": "single-audio", "word": "flesh", "stimulus": "/static/audio/wordpool/FLESH.wav", "conditions": [24, 800, "a", 12000], "internal_node_id": "0.0-157.0", "trial": 5, "time_elapsed": 1051870, "serialpos": 2, "key_press": -1, "wordID": 578, "type": "PRES_AUD", "trial_index": 211}, "uniqueid": "MTK3613:35L9RVQFCPPV7Q3O5DK9RU7TCENHU9", "dateTime": 1520809986812}, {"current_trial": 212, "trialdata": {"rt": -1000, "trial_type": "single-audio", "word": "knife", "stimulus": "/static/audio/wordpool/KNIFE.wav", "conditions": [24, 800, "a", 12000], "internal_node_id": "0.0-158.0", "trial": 5, "time_elapsed": 1053872, "serialpos": 3, "key_press": -1, "wordID": 784, "type": "PRES_AUD", "trial_index": 212}, "uniqueid": "MTK3613:35L9RVQFCPPV7Q3O5DK9RU7TCENHU9", "dateTime": 1520809988814}, {"current_trial": 213, "trialdata": {"rt": -1000, "trial_type": "single-audio", "word": "dorm", "stimulus": "/static/audio/wordpool/DORM.wav", "conditions": [24, 800, "a", 12000], "internal_node_id": "0.0-159.0", "trial": 5, "time_elapsed": 1055621, "serialpos": 4, "key_press": -1, "wordID": 487, "type": "PRES_AUD", "trial_index": 213}, "uniqueid": "MTK3613:35L9RVQFCPPV7Q3O5DK9RU7TCENHU9", "dateTime": 1520809990563}, {"current_trial": 214, "trialdata": {"rt": -1000, "trial_type": "single-audio", "word": "student", "stimulus": "/static/audio/wordpool/STUDENT.wav", "conditions": [24, 800, "a", 12000], "internal_node_id": "0.0-160.0", "trial": 5, "time_elapsed": 1057542, "serialpos": 5, "key_press": -1, "wordID": 1394, "type": "PRES_AUD", "trial_index": 214}, "uniqueid": "MTK3613:35L9RVQFCPPV7Q3O5DK9RU7TCENHU9", "dateTime": 1520809992484}, {"current_trial": 215, "trialdata": {"rt": -1000, "trial_type": "single-audio", "word": "skirt", "stimulus": "/static/audio/wordpool/SKIRT.wav", "conditions": [24, 800, "a", 12000], "internal_node_id": "0.0-161.0", "trial": 5, "time_elapsed": 1059205, "serialpos": 6, "key_press": -1, "wordID": 1318, "type": "PRES_AUD", "trial_index": 215}, "uniqueid": "MTK3613:35L9RVQFCPPV7Q3O5DK9RU7TCENHU9", "dateTime": 1520809994147}, {"current_trial": 216, "trialdata": {"rt": -1000, "trial_type": "single-audio", "word": "nurse", "stimulus": "/static/audio/wordpool/NURSE.wav", "conditions": [24, 800, "a", 12000], "internal_node_id": "0.0-162.0", "trial": 5, "time_elapsed": 1061072, "serialpos": 7, "key_press": -1, "wordID": 962, "type": "PRES_AUD", "trial_index": 216}, "uniqueid": "MTK3613:35L9RVQFCPPV7Q3O5DK9RU7TCENHU9", "dateTime": 1520809996014}, {"current_trial": 217, "trialdata": {"rt": -1000, "trial_type": "single-audio", "word": "queen", "stimulus": "/static/audio/wordpool/QUEEN.wav", "conditions": [24, 800, "a", 12000], "internal_node_id": "0.0-163.0", "trial": 5, "time_elapsed": 1062675, "serialpos": 8, "key_press": -1, "wordID": 1148, "type": "PRES_AUD", "trial_index": 217}, "uniqueid": "MTK3613:35L9RVQFCPPV7Q3O5DK9RU7TCENHU9", "dateTime": 1520809997617}, {"current_trial": 218, "trialdata": {"rt": -1000, "trial_type": "single-audio", "word": "chauffeur", "stimulus": "/static/audio/wordpool/CHAUFFEUR.wav", "conditions": [24, 800, "a", 12000], "internal_node_id": "0.0-164.0", "trial": 5, "time_elapsed": 1064467, "serialpos": 9, "key_press": -1, "wordID": 282, "type": "PRES_AUD", "trial_index": 218}, "uniqueid": "MTK3613:35L9RVQFCPPV7Q3O5DK9RU7TCENHU9", "dateTime": 1520809999410}, {"current_trial": 219, "trialdata": {"rt": -1000, "trial_type": "single-audio", "word": "dress", "stimulus": "/static/audio/wordpool/DRESS.wav", "conditions": [24, 800, "a", 12000], "internal_node_id": "0.0-165.0", "trial": 5, "time_elapsed": 1066349, "serialpos": 10, "key_press": -1, "wordID": 494, "type": "PRES_AUD", "trial_index": 219}, "uniqueid": "MTK3613:35L9RVQFCPPV7Q3O5DK9RU7TCENHU9", "dateTime": 1520810001295}, {"current_trial": 220, "trialdata": {"rt": -1000, "trial_type": "single-audio", "word": "lava", "stimulus": "/static/audio/wordpool/LAVA.wav", "conditions": [24, 800, "a", 12000], "internal_node_id": "0.0-166.0", "trial": 5, "time_elapsed": 1067995, "serialpos": 11, "key_press": -1, "wordID": 803, "type": "PRES_AUD", "trial_index": 220}, "uniqueid": "MTK3613:35L9RVQFCPPV7Q3O5DK9RU7TCENHU9", "dateTime": 1520810002938}, {"current_trial": 221, "trialdata": {"rt": -1000, "trial_type": "single-audio", "word": "maple", "stimulus": "/static/audio/wordpool/MAPLE.wav", "conditions": [24, 800, "a", 12000], "internal_node_id": "0.0-167.0", "trial": 5, "time_elapsed": 1069848, "serialpos": 12, "key_press": -1, "wordID": 865, "type": "PRES_AUD", "trial_index": 221}, "uniqueid": "MTK3613:35L9RVQFCPPV7Q3O5DK9RU7TCENHU9", "dateTime": 1520810004790}, {"current_trial": 222, "trialdata": {"rt": -1000, "trial_type": "single-audio", "word": "jury", "stimulus": "/static/audio/wordpool/JURY.wav", "conditions": [24, 800, "a", 12000], "internal_node_id": "0.0-168.0", "trial": 5, "time_elapsed": 1071523, "serialpos": 13, "key_press": -1, "wordID": 765, "type": "PRES_AUD", "trial_index": 222}, "uniqueid": "MTK3613:35L9RVQFCPPV7Q3O5DK9RU7TCENHU9", "dateTime": 1520810006465}, {"current_trial": 223, "trialdata": {"rt": -1000, "trial_type": "single-audio", "word": "muffin", "stimulus": "/static/audio/wordpool/MUFFIN.wav", "conditions": [24, 800, "a", 12000], "internal_node_id": "0.0-169.0", "trial": 5, "time_elapsed": 1073382, "serialpos": 14, "key_press": -1, "wordID": 928, "type": "PRES_AUD", "trial_index": 223}, "uniqueid": "MTK3613:35L9RVQFCPPV7Q3O5DK9RU7TCENHU9", "dateTime": 1520810008324}, {"current_trial": 224, "trialdata": {"rt": -1000, "trial_type": "single-audio", "word": "mammal", "stimulus": "/static/audio/wordpool/MAMMAL.wav", "conditions": [24, 800, "a", 12000], "internal_node_id": "0.0-170.0", "trial": 5, "time_elapsed": 1075085, "serialpos": 15, "key_press": -1, "wordID": 860, "type": "PRES_AUD", "trial_index": 224}, "uniqueid": "MTK3613:35L9RVQFCPPV7Q3O5DK9RU7TCENHU9", "dateTime": 1520810010028}, {"current_trial": 225, "trialdata": {"rt": -1000, "trial_type": "single-audio", "word": "freckle", "stimulus": "/static/audio/wordpool/FRECKLE.wav", "conditions": [24, 800, "a", 12000], "internal_node_id": "0.0-171.0", "trial": 5, "time_elapsed": 1076943, "serialpos": 16, "key_press": -1, "wordID": 601, "type": "PRES_AUD", "trial_index": 225}, "uniqueid": "MTK3613:35L9RVQFCPPV7Q3O5DK9RU7TCENHU9", "dateTime": 1520810011885}, {"current_trial": 226, "trialdata": {"rt": -1000, "trial_type": "single-audio", "word": "blade", "stimulus": "/static/audio/wordpool/BLADE.wav", "conditions": [24, 800, "a", 12000], "internal_node_id": "0.0-172.0", "trial": 5, "time_elapsed": 1078631, "serialpos": 17, "key_press": -1, "wordID": 133, "type": "PRES_AUD", "trial_index": 226}, "uniqueid": "MTK3613:35L9RVQFCPPV7Q3O5DK9RU7TCENHU9", "dateTime": 1520810013573}, {"current_trial": 227, "trialdata": {"rt": -1000, "trial_type": "single-audio", "word": "comet", "stimulus": "/static/audio/wordpool/COMET.wav", "conditions": [24, 800, "a", 12000], "internal_node_id": "0.0-173.0", "trial": 5, "time_elapsed": 1080272, "serialpos": 18, "key_press": -1, "wordID": 352, "type": "PRES_AUD", "trial_index": 227}, "uniqueid": "MTK3613:35L9RVQFCPPV7Q3O5DK9RU7TCENHU9", "dateTime": 1520810015214}, {"current_trial": 228, "trialdata": {"rt": -1000, "trial_type": "single-audio", "word": "message", "stimulus": "/static/audio/wordpool/MESSAGE.wav", "conditions": [24, 800, "a", 12000], "internal_node_id": "0.0-174.0", "trial": 5, "time_elapsed": 1082084, "serialpos": 19, "key_press": -1, "wordID": 887, "type": "PRES_AUD", "trial_index": 228}, "uniqueid": "MTK3613:35L9RVQFCPPV7Q3O5DK9RU7TCENHU9", "dateTime": 1520810017026}, {"current_trial": 229, "trialdata": {"rt": -1000, "trial_type": "single-audio", "word": "judge", "stimulus": "/static/audio/wordpool/JUDGE.wav", "conditions": [24, 800, "a", 12000], "internal_node_id": "0.0-175.0", "trial": 5, "time_elapsed": 1083801, "serialpos": 20, "key_press": -1, "wordID": 760, "type": "PRES_AUD", "trial_index": 229}, "uniqueid": "MTK3613:35L9RVQFCPPV7Q3O5DK9RU7TCENHU9", "dateTime": 1520810018743}, {"current_trial": 230, "trialdata": {"rt": -1000, "trial_type": "single-audio", "word": "citrus", "stimulus": "/static/audio/wordpool/CITRUS.wav", "conditions": [24, 800, "a", 12000], "internal_node_id": "0.0-176.0", "trial": 5, "time_elapsed": 1085611, "serialpos": 21, "key_press": -1, "wordID": 312, "type": "PRES_AUD", "trial_index": 230}, "uniqueid": "MTK3613:35L9RVQFCPPV7Q3O5DK9RU7TCENHU9", "dateTime": 1520810020553}, {"current_trial": 231, "trialdata": {"rt": -1000, "trial_type": "single-audio", "word": "peach", "stimulus": "/static/audio/wordpool/PEACH.wav", "conditions": [24, 800, "a", 12000], "internal_node_id": "0.0-177.0", "trial": 5, "time_elapsed": 1087336, "serialpos": 22, "key_press": -1, "wordID": 1030, "type": "PRES_AUD", "trial_index": 231}, "uniqueid": "MTK3613:35L9RVQFCPPV7Q3O5DK9RU7TCENHU9", "dateTime": 1520810022278}, {"current_trial": 232, "trialdata": {"rt": -1000, "trial_type": "single-audio", "word": "tunnel", "stimulus": "/static/audio/wordpool/TUNNEL.wav", "conditions": [24, 800, "a", 12000], "internal_node_id": "0.0-178.0", "trial": 5, "time_elapsed": 1089089, "serialpos": 23, "key_press": -1, "wordID": 1518, "type": "PRES_AUD", "trial_index": 232}, "uniqueid": "MTK3613:35L9RVQFCPPV7Q3O5DK9RU7TCENHU9", "dateTime": 1520810024031}, {"current_trial": 233, "trialdata": {"rt": -1, "trial_type": "single-stim", "stimulus": "", "internal_node_id": "0.0-179.0-0.0", "time_elapsed": 1090408, "key_press": -1, "type": "PRE_RECALL_DELAY", "trial_index": 233}, "uniqueid": "MTK3613:35L9RVQFCPPV7Q3O5DK9RU7TCENHU9", "dateTime": 1520810025350}, {"current_trial": 234, "trialdata": {"rt": -1000, "trial_type": "single-audio", "stimulus": "/static/audio/400Hz.wav", "internal_node_id": "0.0-180.0", "time_elapsed": 1090909, "key_press": -1, "type": "PRE_RECALL_ALERT", "trial_index": 234}, "uniqueid": "MTK3613:35L9RVQFCPPV7Q3O5DK9RU7TCENHU9", "dateTime": 1520810025851}, {"current_trial": 235, "trialdata": {"rt": [2280, 4431, 6326, 8355, 10600, 12266, 16431, 21178, 23350], "recwords": ["peach", "tunnel", "queen", "student", "dorm", "dress", "skirt", "flesh", "knife"], "key_times": [1261, 1414, 1621, 1888, 2032, 2280, 3062, 3248, 3500, 3656, 3817, 4206, 4431, 5372, 5520, 5691, 5872, 6038, 6326, 7124, 7396, 7565, 7748, 7885, 8074, 8196, 8355, 9517, 9740, 9934, 10076, 10600, 11347, 11546, 11699, 11948, 12118, 12266, 13054, 13183, 13464, 13616, 14914, 15824, 15986, 16431, 19962, 20101, 20257, 20679, 20790, 21178, 21835, 21947, 22133, 22338, 22455, 23350], "trial_type": "free-recall", "conditions": [24, 800, "a", 12000], "internal_node_id": "0.0-181.0-0.0", "key_presses": [80, 69, 65, 67, 72, 13, 84, 85, 78, 78, 69, 76, 13, 81, 85, 69, 69, 78, 13, 83, 84, 85, 68, 69, 78, 84, 13, 68, 79, 82, 77, 13, 68, 82, 69, 83, 83, 13, 83, 75, 73, 84, 8, 82, 84, 13, 70, 76, 69, 83, 72, 13, 75, 78, 73, 70, 69, 13], "trial": 5, "time_elapsed": 1150915, "type": "FREE_RECALL", "trial_index": 235}, "uniqueid": "MTK3613:35L9RVQFCPPV7Q3O5DK9RU7TCENHU9", "dateTime": 1520810085868}, {"current_trial": 236, "trialdata": {"rt": 2360, "trial_type": "text", "internal_node_id": "0.0-182.0", "time_elapsed": 1155288, "key_press": 13, "type": "INSTRUCTIONS", "trial_index": 236}, "uniqueid": "MTK3613:35L9RVQFCPPV7Q3O5DK9RU7TCENHU9", "dateTime": 1520810090231}, {"current_trial": 237, "trialdata": {"rt": [4979, 7340], "trial_type": "math-distractor", "key_times": [4540, 4621, 4979, 6963, 7099, 7340], "responses": ["18", "10"], "num2": [9, 2, 9], "num3": [5, 2, 8], "conditions": [12, 1600, "a", 12000], "internal_node_id": "0.0-183.0", "key_presses": [97, 104, 13, 97, 96, 13], "trial": 6, "time_elapsed": 1169295, "type": "DISTRACTOR", "trial_index": 237, "num1": [4, 6, 2]}, "uniqueid": "MTK3613:35L9RVQFCPPV7Q3O5DK9RU7TCENHU9", "dateTime": 1520810104237}, {"current_trial": 238, "trialdata": {"rt": -1, "trial_type": "single-stim", "stimulus": "<p id=\"stim\">10</p>", "internal_node_id": "0.0-184.0-0.0", "time_elapsed": 1172298, "key_press": -1, "trial_index": 238}, "uniqueid": "MTK3613:35L9RVQFCPPV7Q3O5DK9RU7TCENHU9", "dateTime": 1520810107241}, {"current_trial": 239, "trialdata": {"rt": -1, "trial_type": "single-stim", "stimulus": "<p id=\"stim\">9</p>", "internal_node_id": "0.0-184.0-1.0", "time_elapsed": 1173305, "key_press": -1, "trial_index": 239}, "uniqueid": "MTK3613:35L9RVQFCPPV7Q3O5DK9RU7TCENHU9", "dateTime": 1520810108248}, {"current_trial": 240, "trialdata": {"rt": -1, "trial_type": "single-stim", "stimulus": "<p id=\"stim\">8</p>", "internal_node_id": "0.0-184.0-2.0", "time_elapsed": 1174309, "key_press": -1, "trial_index": 240}, "uniqueid": "MTK3613:35L9RVQFCPPV7Q3O5DK9RU7TCENHU9", "dateTime": 1520810109251}, {"current_trial": 241, "trialdata": {"rt": -1, "trial_type": "single-stim", "stimulus": "<p id=\"stim\">7</p>", "internal_node_id": "0.0-184.0-3.0", "time_elapsed": 1175311, "key_press": -1, "trial_index": 241}, "uniqueid": "MTK3613:35L9RVQFCPPV7Q3O5DK9RU7TCENHU9", "dateTime": 1520810110254}, {"current_trial": 242, "trialdata": {"rt": -1, "trial_type": "single-stim", "stimulus": "<p id=\"stim\">6</p>", "internal_node_id": "0.0-184.0-4.0", "time_elapsed": 1176313, "key_press": -1, "trial_index": 242}, "uniqueid": "MTK3613:35L9RVQFCPPV7Q3O5DK9RU7TCENHU9", "dateTime": 1520810111256}, {"current_trial": 243, "trialdata": {"rt": -1, "trial_type": "single-stim", "stimulus": "<p id=\"stim\">5</p>", "internal_node_id": "0.0-184.0-5.0", "time_elapsed": 1177316, "key_press": -1, "trial_index": 243}, "uniqueid": "MTK3613:35L9RVQFCPPV7Q3O5DK9RU7TCENHU9", "dateTime": 1520810112259}, {"current_trial": 244, "trialdata": {"rt": -1, "trial_type": "single-stim", "stimulus": "<p id=\"stim\">4</p>", "internal_node_id": "0.0-184.0-6.0", "time_elapsed": 1178319, "key_press": -1, "trial_index": 244}, "uniqueid": "MTK3613:35L9RVQFCPPV7Q3O5DK9RU7TCENHU9", "dateTime": 1520810113262}, {"current_trial": 245, "trialdata": {"rt": -1, "trial_type": "single-stim", "stimulus": "<p id=\"stim\">3</p>", "internal_node_id": "0.0-184.0-7.0", "time_elapsed": 1179323, "key_press": -1, "trial_index": 245}, "uniqueid": "MTK3613:35L9RVQFCPPV7Q3O5DK9RU7TCENHU9", "dateTime": 1520810114265}, {"current_trial": 246, "trialdata": {"rt": -1, "trial_type": "single-stim", "stimulus": "<p id=\"stim\">2</p>", "internal_node_id": "0.0-184.0-8.0", "time_elapsed": 1180325, "key_press": -1, "trial_index": 246}, "uniqueid": "MTK3613:35L9RVQFCPPV7Q3O5DK9RU7TCENHU9", "dateTime": 1520810115267}, {"current_trial": 247, "trialdata": {"rt": -1, "trial_type": "single-stim", "stimulus": "<p id=\"stim\">1</p>", "internal_node_id": "0.0-184.0-9.0", "time_elapsed": 1181327, "key_press": -1, "trial_index": 247}, "uniqueid": "MTK3613:35L9RVQFCPPV7Q3O5DK9RU7TCENHU9", "dateTime": 1520810116269}, {"current_trial": 248, "trialdata": {"rt": -1, "trial_type": "single-stim", "stimulus": "<p id=\"stim\">+</p>", "internal_node_id": "0.0-185.0-0.0", "time_elapsed": 1182830, "key_press": -1, "type": "FIXATION", "trial_index": 248}, "uniqueid": "MTK3613:35L9RVQFCPPV7Q3O5DK9RU7TCENHU9", "dateTime": 1520810117772}, {"current_trial": 249, "trialdata": {"rt": -1000, "trial_type": "single-audio", "word": "flute", "stimulus": "/static/audio/wordpool/FLUTE.wav", "conditions": [12, 1600, "a", 12000], "internal_node_id": "0.0-186.0", "trial": 6, "time_elapsed": 1185576, "serialpos": 0, "key_press": -1, "wordID": 584, "type": "PRES_AUD", "trial_index": 249}, "uniqueid": "MTK3613:35L9RVQFCPPV7Q3O5DK9RU7TCENHU9", "dateTime": 1520810120518}, {"current_trial": 250, "trialdata": {"rt": -1000, "trial_type": "single-audio", "word": "chemist", "stimulus": "/static/audio/wordpool/CHEMIST.wav", "conditions": [12, 1600, "a", 12000], "internal_node_id": "0.0-187.0", "trial": 6, "time_elapsed": 1188160, "serialpos": 1, "key_press": -1, "wordID": 291, "type": "PRES_AUD", "trial_index": 250}, "uniqueid": "MTK3613:35L9RVQFCPPV7Q3O5DK9RU7TCENHU9", "dateTime": 1520810123102}, {"current_trial": 251, "trialdata": {"rt": -1000, "trial_type": "single-audio", "word": "female", "stimulus": "/static/audio/wordpool/FEMALE.wav", "conditions": [12, 1600, "a", 12000], "internal_node_id": "0.0-188.0", "trial": 6, "time_elapsed": 1190946, "serialpos": 2, "key_press": -1, "wordID": 558, "type": "PRES_AUD", "trial_index": 251}, "uniqueid": "MTK3613:35L9RVQFCPPV7Q3O5DK9RU7TCENHU9", "dateTime": 1520810125889}, {"current_trial": 252, "trialdata": {"rt": -1000, "trial_type": "single-audio", "word": "rabbit", "stimulus": "/static/audio/wordpool/RABB