{"assignmentId": "3YDTZAI2WYNLMHOVOIQ6M3TSWU2146", "workerId": "MTK3309", "questiondata": {"origin": "United States", "strat-rehearsal": "78", "marital": "Divorced", "education": "High school diploma", "ethnicity": "Not Hispanic", "color_depth": 24, "distracted": "No", "wrote-notes": "No", "strat-other": "", "screen_width": 1050, "avail_screen_width": 1050, "avail_screen_height": 1680, "strat-image": "0", "language": "english", "gender": "Female", "age": "35", "gender_other": "", "race": ["White"], "strat-categorize": "78", "pixel_depth": 24, "strat-spatial": "48", "strat-story": "64", "race_other": "", "screen_height": 1680}, "bonus": 0, "hitId": "3RTFSSG7T8D8Y6DP1W96CQPDTTJLWZ", "counterbalance": 1311, "useragent": "Mozilla/5.0 (Windows NT 6.1; Win64; x64) AppleWebKit/537.36 (KHTML, like Gecko) Chrome/64.0.3282.186 Safari/537.36", "eventdata": [{"eventtype": "initialized", "interval": 0, "value": null, "timestamp": 1520351910782}, {"eventtype": "window_resize", "interval": 0, "value": [1050, 429], "timestamp": 1520351910782}, {"eventtype": "focus", "interval": 552876, "value": "off", "timestamp": 1520352463658}, {"eventtype": "focus", "interval": 2098, "value": "on", "timestamp": 1520352465756}, {"eventtype": "focus", "interval": 391467, "value": "off", "timestamp": 1520352857223}, {"eventtype": "focus", "interval": 8548, "value": "on", "timestamp": 1520352865771}, {"eventtype": "focus", "interval": 85491, "value": "off", "timestamp": 1520352951262}, {"eventtype": "focus", "interval": 10535, "value": "on", "timestamp": 1520352961797}, {"eventtype": "focus", "interval": 23943, "value": "off", "timestamp": 1520352985740}, {"eventtype": "focus", "interval": 1123, "value": "on", "timestamp": 1520352986863}, {"eventtype": "focus", "interval": 11815, "value": "off", "timestamp": 1520352998678}, {"eventtype": "focus", "interval": 3169, "value": "on", "timestamp": 1520353001847}, {"eventtype": "focus", "interval": 262674, "value": "off", "timestamp": 1520353264521}, {"eventtype": "focus", "interval": 5228, "value": "on", "timestamp": 1520353269749}, {"eventtype": "focus", "interval": 463095, "value": "off", "timestamp": 1520353732844}, {"eventtype": "focus", "interval": 94798, "value": "on", "timestamp": 1520353827642}, {"eventtype": "focus", "interval": 127259, "value": "off", "timestamp": 1520353954901}, {"eventtype": "focus", "interval": 5953, "value": "on", "timestamp": 1520353960854}, {"eventtype": "focus", "interval": 295100, "value": "off", "timestamp": 1520354255954}, {"eventtype": "focus", "interval": 6320, "value": "on", "timestamp": 1520354262274}, {"eventtype": "focus", "interval": 34138, "value": "off", "timestamp": 1520354296412}, {"eventtype": "focus", "interval": 3706, "value": "on", "timestamp": 1520354300118}, {"eventtype": "focus", "interval": 49151, "value": "off", "timestamp": 1520354349269}, {"eventtype": "focus", "interval": 4378, "value": "on", "timestamp": 1520354353647}, {"eventtype": "focus", "interval": 38770, "value": "off", "timestamp": 1520354392417}, {"eventtype": "focus", "interval": 18619, "value": "on", "timestamp": 1520354411036}, {"eventtype": "focus", "interval": 84320, "value": "off", "timestamp": 1520354495356}, {"eventtype": "focus", "interval": 6048, "value": "on", "timestamp": 1520354501404}, {"eventtype": "focus", "interval": 456107, "value": "off", "timestamp": 1520354957511}, {"eventtype": "focus", "interval": 2723, "value": "on", "timestamp": 1520354960234}], "data": [{"current_trial": 0, "trialdata": {"rt": 1559, "trial_type": "text", "internal_node_id": "0.0-0.0", "time_elapsed": 1563, "key_press": 13, "type": "INSTRUCTIONS", "trial_index": 0}, "uniqueid": "MTK3309:3YDTZAI2WYNLMHOVOIQ6M3TSWU2146", "dateTime": 1520351912775}, {"current_trial": 1, "trialdata": {"rt": 23405, "trial_type": "text", "internal_node_id": "0.0-1.0", "time_elapsed": 24972, "key_press": 13, "type": "INSTRUCTIONS", "trial_index": 1}, "uniqueid": "MTK3309:3YDTZAI2WYNLMHOVOIQ6M3TSWU2146", "dateTime": 1520351936182}, {"current_trial": 2, "trialdata": {"rt": [13169], "trial_type": "audio-test", "responses": ["ocean"], "internal_node_id": "0.0-2.0", "time_elapsed": 38154, "type": "AUDIO_TEST", "trial_index": 2}, "uniqueid": "MTK3309:3YDTZAI2WYNLMHOVOIQ6M3TSWU2146", "dateTime": 1520351949365}, {"current_trial": 3, "trialdata": {"rt": [6650], "trial_type": "audio-test", "responses": ["crystal"], "internal_node_id": "0.0-3.0", "time_elapsed": 44811, "type": "AUDIO_TEST", "trial_index": 3}, "uniqueid": "MTK3309:3YDTZAI2WYNLMHOVOIQ6M3TSWU2146", "dateTime": 1520351956021}, {"current_trial": 4, "trialdata": {"rt": [4445], "trial_type": "audio-test", "responses": ["spice"], "internal_node_id": "0.0-4.0", "time_elapsed": 49263, "type": "AUDIO_TEST", "trial_index": 4}, "uniqueid": "MTK3309:3YDTZAI2WYNLMHOVOIQ6M3TSWU2146", "dateTime": 1520351960473}, {"current_trial": 5, "trialdata": {"rt": 23102, "trial_type": "survey-text", "responses": "{\"Q0\":\"10p\",\"Q1\":\"4:30a\",\"Q2\":\"3\"}", "internal_node_id": "0.0-5.0", "time_elapsed": 73116, "type": "SLEEP_SURVEY", "trial_index": 5}, "uniqueid": "MTK3309:3YDTZAI2WYNLMHOVOIQ6M3TSWU2146", "dateTime": 1520351984328}, {"current_trial": 6, "trialdata": {"rt": 32231, "trial_type": "text", "internal_node_id": "0.0-6.0", "time_elapsed": 106349, "key_press": 13, "type": "INSTRUCTIONS", "trial_index": 6}, "uniqueid": "MTK3309:3YDTZAI2WYNLMHOVOIQ6M3TSWU2146", "dateTime": 1520352017559}, {"current_trial": 7, "trialdata": {"rt": 14781, "trial_type": "text", "internal_node_id": "0.0-7.0", "time_elapsed": 121631, "key_press": 13, "type": "INSTRUCTIONS", "trial_index": 7}, "uniqueid": "MTK3309:3YDTZAI2WYNLMHOVOIQ6M3TSWU2146", "dateTime": 1520352032841}, {"current_trial": 8, "trialdata": {"rt": 8395, "trial_type": "text", "internal_node_id": "0.0-8.0", "time_elapsed": 130527, "key_press": 13, "type": "INSTRUCTIONS", "trial_index": 8}, "uniqueid": "MTK3309:3YDTZAI2WYNLMHOVOIQ6M3TSWU2146", "dateTime": 1520352041737}, {"current_trial": 9, "trialdata": {"rt": [2977, 4866, 9265, 11745, 14354, 16721], "trial_type": "math-distractor", "key_times": [2418, 2529, 2977, 4593, 4738, 4866, 8961, 9073, 9265, 11507, 11553, 11745, 13714, 13794, 14354, 16529, 16721], "responses": ["13", "13", "18", "15", "12", "6"], "num2": [7, 6, 9, 4, 1, 3, 3], "num3": [4, 1, 7, 3, 9, 2, 5], "conditions": [18, 1200, "v", 18000], "internal_node_id": "0.0-9.0", "key_presses": [97, 99, 13, 97, 99, 13, 97, 104, 13, 97, 101, 13, 97, 98, 13, 102, 13], "trial": 0, "time_elapsed": 149535, "type": "DISTRACTOR", "trial_index": 9, "num1": [2, 6, 2, 8, 2, 1, 2]}, "uniqueid": "MTK3309:3YDTZAI2WYNLMHOVOIQ6M3TSWU2146", "dateTime": 1520352060745}, {"current_trial": 10, "trialdata": {"rt": -1, "trial_type": "single-stim", "stimulus": "<p id=\"stim\">10</p>", "internal_node_id": "0.0-10.0-0.0", "time_elapsed": 152535, "key_press": -1, "trial_index": 10}, "uniqueid": "MTK3309:3YDTZAI2WYNLMHOVOIQ6M3TSWU2146", "dateTime": 1520352063745}, {"current_trial": 11, "trialdata": {"rt": -1, "trial_type": "single-stim", "stimulus": "<p id=\"stim\">9</p>", "internal_node_id": "0.0-10.0-1.0", "time_elapsed": 153535, "key_press": -1, "trial_index": 11}, "uniqueid": "MTK3309:3YDTZAI2WYNLMHOVOIQ6M3TSWU2146", "dateTime": 1520352064745}, {"current_trial": 12, "trialdata": {"rt": -1, "trial_type": "single-stim", "stimulus": "<p id=\"stim\">8</p>", "internal_node_id": "0.0-10.0-2.0", "time_elapsed": 154536, "key_press": -1, "trial_index": 12}, "uniqueid": "MTK3309:3YDTZAI2WYNLMHOVOIQ6M3TSWU2146", "dateTime": 1520352065747}, {"current_trial": 13, "trialdata": {"rt": -1, "trial_type": "single-stim", "stimulus": "<p id=\"stim\">7</p>", "internal_node_id": "0.0-10.0-3.0", "time_elapsed": 155537, "key_press": -1, "trial_index": 13}, "uniqueid": "MTK3309:3YDTZAI2WYNLMHOVOIQ6M3TSWU2146", "dateTime": 1520352066747}, {"current_trial": 14, "trialdata": {"rt": -1, "trial_type": "single-stim", "stimulus": "<p id=\"stim\">6</p>", "internal_node_id": "0.0-10.0-4.0", "time_elapsed": 156538, "key_press": -1, "trial_index": 14}, "uniqueid": "MTK3309:3YDTZAI2WYNLMHOVOIQ6M3TSWU2146", "dateTime": 1520352067748}, {"current_trial": 15, "trialdata": {"rt": -1, "trial_type": "single-stim", "stimulus": "<p id=\"stim\">5</p>", "internal_node_id": "0.0-10.0-5.0", "time_elapsed": 157539, "key_press": -1, "trial_index": 15}, "uniqueid": "MTK3309:3YDTZAI2WYNLMHOVOIQ6M3TSWU2146", "dateTime": 1520352068749}, {"current_trial": 16, "trialdata": {"rt": -1, "trial_type": "single-stim", "stimulus": "<p id=\"stim\">4</p>", "internal_node_id": "0.0-10.0-6.0", "time_elapsed": 158541, "key_press": -1, "trial_index": 16}, "uniqueid": "MTK3309:3YDTZAI2WYNLMHOVOIQ6M3TSWU2146", "dateTime": 1520352069751}, {"current_trial": 17, "trialdata": {"rt": -1, "trial_type": "single-stim", "stimulus": "<p id=\"stim\">3</p>", "internal_node_id": "0.0-10.0-7.0", "time_elapsed": 159541, "key_press": -1, "trial_index": 17}, "uniqueid": "MTK3309:3YDTZAI2WYNLMHOVOIQ6M3TSWU2146", "dateTime": 1520352070753}, {"current_trial": 18, "trialdata": {"rt": -1, "trial_type": "single-stim", "stimulus": "<p id=\"stim\">2</p>", "internal_node_id": "0.0-10.0-8.0", "time_elapsed": 160543, "key_press": -1, "trial_index": 18}, "uniqueid": "MTK3309:3YDTZAI2WYNLMHOVOIQ6M3TSWU2146", "dateTime": 1520352071753}, {"current_trial": 19, "trialdata": {"rt": -1, "trial_type": "single-stim", "stimulus": "<p id=\"stim\">1</p>", "internal_node_id": "0.0-10.0-9.0", "time_elapsed": 161544, "key_press": -1, "trial_index": 19}, "uniqueid": "MTK3309:3YDTZAI2WYNLMHOVOIQ6M3TSWU2146", "dateTime": 1520352072754}, {"current_trial": 20, "trialdata": {"rt": -1, "trial_type": "single-stim", "stimulus": "<p id=\"stim\">+</p>", "internal_node_id": "0.0-11.0-0.0", "time_elapsed": 163045, "key_press": -1, "type": "FIXATION", "trial_index": 20}, "uniqueid": "MTK3309:3YDTZAI2WYNLMHOVOIQ6M3TSWU2146", "dateTime": 1520352074256}, {"current_trial": 21, "trialdata": {"rt": -1, "trial_type": "single-stim", "word": "juggler", "stimulus": "<p id=\"stim\">JUGGLER</p>", "conditions": [18, 1200, "v", 18000], "internal_node_id": "0.0-12.0", "trial": 0, "time_elapsed": 164247, "serialpos": 0, "key_press": -1, "wordID": 762, "type": "PRES_VIS", "trial_index": 21}, "uniqueid": "MTK3309:3YDTZAI2WYNLMHOVOIQ6M3TSWU2146", "dateTime": 1520352075457}, {"current_trial": 22, "trialdata": {"rt": -1, "trial_type": "single-stim", "word": "onion", "stimulus": "<p id=\"stim\">ONION</p>", "conditions": [18, 1200, "v", 18000], "internal_node_id": "0.0-13.0", "trial": 0, "time_elapsed": 166384, "serialpos": 1, "key_press": -1, "wordID": 976, "type": "PRES_VIS", "trial_index": 22}, "uniqueid": "MTK3309:3YDTZAI2WYNLMHOVOIQ6M3TSWU2146", "dateTime": 1520352077594}, {"current_trial": 23, "trialdata": {"rt": -1, "trial_type": "single-stim", "word": "transplant", "stimulus": "<p id=\"stim\">TRANSPLANT</p>", "conditions": [18, 1200, "v", 18000], "internal_node_id": "0.0-14.0", "trial": 0, "time_elapsed": 168679, "serialpos": 2, "key_press": -1, "wordID": 1495, "type": "PRES_VIS", "trial_index": 23}, "uniqueid": "MTK3309:3YDTZAI2WYNLMHOVOIQ6M3TSWU2146", "dateTime": 1520352079889}, {"current_trial": 24, "trialdata": {"rt": -1, "trial_type": "single-stim", "word": "author", "stimulus": "<p id=\"stim\">AUTHOR</p>", "conditions": [18, 1200, "v", 18000], "internal_node_id": "0.0-15.0", "trial": 0, "time_elapsed": 170731, "serialpos": 3, "key_press": -1, "wordID": 60, "type": "PRES_VIS", "trial_index": 24}, "uniqueid": "MTK3309:3YDTZAI2WYNLMHOVOIQ6M3TSWU2146", "dateTime": 1520352081941}, {"current_trial": 25, "trialdata": {"rt": -1, "trial_type": "single-stim", "word": "backbone", "stimulus": "<p id=\"stim\">BACKBONE</p>", "conditions": [18, 1200, "v", 18000], "internal_node_id": "0.0-16.0", "trial": 0, "time_elapsed": 173107, "serialpos": 4, "key_press": -1, "wordID": 65, "type": "PRES_VIS", "trial_index": 25}, "uniqueid": "MTK3309:3YDTZAI2WYNLMHOVOIQ6M3TSWU2146", "dateTime": 1520352084317}, {"current_trial": 26, "trialdata": {"rt": -1, "trial_type": "single-stim", "word": "skillet", "stimulus": "<p id=\"stim\">SKILLET</p>", "conditions": [18, 1200, "v", 18000], "internal_node_id": "0.0-17.0", "trial": 0, "time_elapsed": 175195, "serialpos": 5, "key_press": -1, "wordID": 1316, "type": "PRES_VIS", "trial_index": 26}, "uniqueid": "MTK3309:3YDTZAI2WYNLMHOVOIQ6M3TSWU2146", "dateTime": 1520352086405}, {"current_trial": 27, "trialdata": {"rt": -1, "trial_type": "single-stim", "word": "beaver", "stimulus": "<p id=\"stim\">BEAVER</p>", "conditions": [18, 1200, "v", 18000], "internal_node_id": "0.0-18.0", "trial": 0, "time_elapsed": 177280, "serialpos": 6, "key_press": -1, "wordID": 108, "type": "PRES_VIS", "trial_index": 27}, "uniqueid": "MTK3309:3YDTZAI2WYNLMHOVOIQ6M3TSWU2146", "dateTime": 1520352088490}, {"current_trial": 28, "trialdata": {"rt": -1, "trial_type": "single-stim", "word": "agent", "stimulus": "<p id=\"stim\">AGENT</p>", "conditions": [18, 1200, "v", 18000], "internal_node_id": "0.0-19.0", "trial": 0, "time_elapsed": 179572, "serialpos": 7, "key_press": -1, "wordID": 9, "type": "PRES_VIS", "trial_index": 28}, "uniqueid": "MTK3309:3YDTZAI2WYNLMHOVOIQ6M3TSWU2146", "dateTime": 1520352090782}, {"current_trial": 29, "trialdata": {"rt": -1, "trial_type": "single-stim", "word": "airplane", "stimulus": "<p id=\"stim\">AIRPLANE</p>", "conditions": [18, 1200, "v", 18000], "internal_node_id": "0.0-20.0", "trial": 0, "time_elapsed": 181858, "serialpos": 8, "key_press": -1, "wordID": 11, "type": "PRES_VIS", "trial_index": 29}, "uniqueid": "MTK3309:3YDTZAI2WYNLMHOVOIQ6M3TSWU2146", "dateTime": 1520352093068}, {"current_trial": 30, "trialdata": {"rt": -1, "trial_type": "single-stim", "word": "film", "stimulus": "<p id=\"stim\">FILM</p>", "conditions": [18, 1200, "v", 18000], "internal_node_id": "0.0-21.0", "trial": 0, "time_elapsed": 184247, "serialpos": 9, "key_press": -1, "wordID": 564, "type": "PRES_VIS", "trial_index": 30}, "uniqueid": "MTK3309:3YDTZAI2WYNLMHOVOIQ6M3TSWU2146", "dateTime": 1520352095457}, {"current_trial": 31, "trialdata": {"rt": -1, "trial_type": "single-stim", "word": "playground", "stimulus": "<p id=\"stim\">PLAYGROUND</p>", "conditions": [18, 1200, "v", 18000], "internal_node_id": "0.0-22.0", "trial": 0, "time_elapsed": 186601, "serialpos": 10, "key_press": -1, "wordID": 1086, "type": "PRES_VIS", "trial_index": 31}, "uniqueid": "MTK3309:3YDTZAI2WYNLMHOVOIQ6M3TSWU2146", "dateTime": 1520352097811}, {"current_trial": 32, "trialdata": {"rt": -1, "trial_type": "single-stim", "word": "lion", "stimulus": "<p id=\"stim\">LION</p>", "conditions": [18, 1200, "v", 18000], "internal_node_id": "0.0-23.0", "trial": 0, "time_elapsed": 188668, "serialpos": 11, "key_press": -1, "wordID": 826, "type": "PRES_VIS", "trial_index": 32}, "uniqueid": "MTK3309:3YDTZAI2WYNLMHOVOIQ6M3TSWU2146", "dateTime": 1520352099878}, {"current_trial": 33, "trialdata": {"rt": -1, "trial_type": "single-stim", "word": "comet", "stimulus": "<p id=\"stim\">COMET</p>", "conditions": [18, 1200, "v", 18000], "internal_node_id": "0.0-24.0", "trial": 0, "time_elapsed": 190893, "serialpos": 12, "key_press": -1, "wordID": 352, "type": "PRES_VIS", "trial_index": 33}, "uniqueid": "MTK3309:3YDTZAI2WYNLMHOVOIQ6M3TSWU2146", "dateTime": 1520352102103}, {"current_trial": 34, "trialdata": {"rt": -1, "trial_type": "single-stim", "word": "relish", "stimulus": "<p id=\"stim\">RELISH</p>", "conditions": [18, 1200, "v", 18000], "internal_node_id": "0.0-25.0", "trial": 0, "time_elapsed": 192915, "serialpos": 13, "key_press": -1, "wordID": 1182, "type": "PRES_VIS", "trial_index": 34}, "uniqueid": "MTK3309:3YDTZAI2WYNLMHOVOIQ6M3TSWU2146", "dateTime": 1520352104126}, {"current_trial": 35, "trialdata": {"rt": -1, "trial_type": "single-stim", "word": "worker", "stimulus": "<p id=\"stim\">WORKER</p>", "conditions": [18, 1200, "v", 18000], "internal_node_id": "0.0-26.0", "trial": 0, "time_elapsed": 195224, "serialpos": 14, "key_press": -1, "wordID": 1620, "type": "PRES_VIS", "trial_index": 35}, "uniqueid": "MTK3309:3YDTZAI2WYNLMHOVOIQ6M3TSWU2146", "dateTime": 1520352106434}, {"current_trial": 36, "trialdata": {"rt": -1, "trial_type": "single-stim", "word": "tractor", "stimulus": "<p id=\"stim\">TRACTOR</p>", "conditions": [18, 1200, "v", 18000], "internal_node_id": "0.0-27.0", "trial": 0, "time_elapsed": 197260, "serialpos": 15, "key_press": -1, "wordID": 1492, "type": "PRES_VIS", "trial_index": 36}, "uniqueid": "MTK3309:3YDTZAI2WYNLMHOVOIQ6M3TSWU2146", "dateTime": 1520352108470}, {"current_trial": 37, "trialdata": {"rt": -1, "trial_type": "single-stim", "word": "bunny", "stimulus": "<p id=\"stim\">BUNNY</p>", "conditions": [18, 1200, "v", 18000], "internal_node_id": "0.0-28.0", "trial": 0, "time_elapsed": 199403, "serialpos": 16, "key_press": -1, "wordID": 197, "type": "PRES_VIS", "trial_index": 37}, "uniqueid": "MTK3309:3YDTZAI2WYNLMHOVOIQ6M3TSWU2146", "dateTime": 1520352110613}, {"current_trial": 38, "trialdata": {"rt": -1, "trial_type": "single-stim", "word": "football", "stimulus": "<p id=\"stim\">FOOTBALL</p>", "conditions": [18, 1200, "v", 18000], "internal_node_id": "0.0-29.0", "trial": 0, "time_elapsed": 201567, "serialpos": 17, "key_press": -1, "wordID": 590, "type": "PRES_VIS", "trial_index": 38}, "uniqueid": "MTK3309:3YDTZAI2WYNLMHOVOIQ6M3TSWU2146", "dateTime": 1520352112777}, {"current_trial": 39, "trialdata": {"rt": -1, "trial_type": "single-stim", "stimulus": "", "internal_node_id": "0.0-30.0-0.0", "time_elapsed": 203668, "key_press": -1, "type": "PRE_RECALL_DELAY", "trial_index": 39}, "uniqueid": "MTK3309:3YDTZAI2WYNLMHOVOIQ6M3TSWU2146", "dateTime": 1520352114878}, {"current_trial": 40, "trialdata": {"rt": -1000, "trial_type": "single-audio", "stimulus": "/static/audio/400Hz.wav", "internal_node_id": "0.0-31.0", "time_elapsed": 204171, "key_press": -1, "type": "PRE_RECALL_ALERT", "trial_index": 40}, "uniqueid": "MTK3309:3YDTZAI2WYNLMHOVOIQ6M3TSWU2146", "dateTime": 1520352115381}, {"current_trial": 41, "trialdata": {"rt": [3637, 6052, 8260, 49112], "recwords": ["juggler", "airplane", "tractor", "onion"], "key_times": [2181, 2372, 2836, 2996, 3140, 3269, 3364, 3637, 4580, 4740, 4868, 5220, 5316, 5460, 5620, 5812, 6052, 6789, 6964, 7044, 7268, 7460, 7573, 7684, 8260, 48215, 48423, 48649, 48727, 48918, 49112, 59688, 59927], "trial_type": "free-recall", "conditions": [18, 1200, "v", 18000], "internal_node_id": "0.0-32.0-0.0", "key_presses": [74, 85, 71, 71, 76, 69, 82, 13, 65, 73, 82, 80, 76, 65, 78, 69, 13, 84, 82, 65, 67, 84, 79, 82, 13, 79, 78, 73, 79, 78, 13, 84, 82], "trial": 0, "time_elapsed": 264176, "type": "FREE_RECALL", "trial_index": 41}, "uniqueid": "MTK3309:3YDTZAI2WYNLMHOVOIQ6M3TSWU2146", "dateTime": 1520352175389}, {"current_trial": 42, "trialdata": {"rt": 1216, "trial_type": "text", "internal_node_id": "0.0-33.0", "time_elapsed": 267396, "key_press": 13, "type": "INSTRUCTIONS", "trial_index": 42}, "uniqueid": "MTK3309:3YDTZAI2WYNLMHOVOIQ6M3TSWU2146", "dateTime": 1520352178606}, {"current_trial": 43, "trialdata": {"rt": [2221, 6766, 9581, 12605, 14189, 15998], "trial_type": "math-distractor", "key_times": [1933, 2062, 2221, 5925, 6094, 6766, 9309, 9375, 9581, 12285, 12461, 12605, 14029, 14189, 15663, 15808, 15998], "responses": ["13", "19", "18", "14", "6", "16"], "num2": [2, 9, 7, 5, 3, 9, 8], "num3": [3, 8, 2, 7, 2, 6, 6], "conditions": [18, 1200, "v", 18000], "internal_node_id": "0.0-34.0", "key_presses": [97, 99, 13, 97, 105, 13, 97, 104, 13, 97, 100, 13, 102, 13, 97, 102, 13], "trial": 1, "time_elapsed": 287399, "type": "DISTRACTOR", "trial_index": 43, "num1": [8, 2, 9, 2, 1, 1, 7]}, "uniqueid": "MTK3309:3YDTZAI2WYNLMHOVOIQ6M3TSWU2146", "dateTime": 1520352198609}, {"current_trial": 44, "trialdata": {"rt": -1, "trial_type": "single-stim", "stimulus": "<p id=\"stim\">10</p>", "internal_node_id": "0.0-35.0-0.0", "time_elapsed": 290400, "key_press": -1, "trial_index": 44}, "uniqueid": "MTK3309:3YDTZAI2WYNLMHOVOIQ6M3TSWU2146", "dateTime": 1520352201610}, {"current_trial": 45, "trialdata": {"rt": -1, "trial_type": "single-stim", "stimulus": "<p id=\"stim\">9</p>", "internal_node_id": "0.0-35.0-1.0", "time_elapsed": 291402, "key_press": -1, "trial_index": 45}, "uniqueid": "MTK3309:3YDTZAI2WYNLMHOVOIQ6M3TSWU2146", "dateTime": 1520352202612}, {"current_trial": 46, "trialdata": {"rt": -1, "trial_type": "single-stim", "stimulus": "<p id=\"stim\">8</p>", "internal_node_id": "0.0-35.0-2.0", "time_elapsed": 292402, "key_press": -1, "trial_index": 46}, "uniqueid": "MTK3309:3YDTZAI2WYNLMHOVOIQ6M3TSWU2146", "dateTime": 1520352203612}, {"current_trial": 47, "trialdata": {"rt": -1, "trial_type": "single-stim", "stimulus": "<p id=\"stim\">7</p>", "internal_node_id": "0.0-35.0-3.0", "time_elapsed": 293423, "key_press": -1, "trial_index": 47}, "uniqueid": "MTK3309:3YDTZAI2WYNLMHOVOIQ6M3TSWU2146", "dateTime": 1520352204634}, {"current_trial": 48, "trialdata": {"rt": -1, "trial_type": "single-stim", "stimulus": "<p id=\"stim\">6</p>", "internal_node_id": "0.0-35.0-4.0", "time_elapsed": 294434, "key_press": -1, "trial_index": 48}, "uniqueid": "MTK3309:3YDTZAI2WYNLMHOVOIQ6M3TSWU2146", "dateTime": 1520352205644}, {"current_trial": 49, "trialdata": {"rt": -1, "trial_type": "single-stim", "stimulus": "<p id=\"stim\">5</p>", "internal_node_id": "0.0-35.0-5.0", "time_elapsed": 295434, "key_press": -1, "trial_index": 49}, "uniqueid": "MTK3309:3YDTZAI2WYNLMHOVOIQ6M3TSWU2146", "dateTime": 1520352206644}, {"current_trial": 50, "trialdata": {"rt": -1, "trial_type": "single-stim", "stimulus": "<p id=\"stim\">4</p>", "internal_node_id": "0.0-35.0-6.0", "time_elapsed": 296438, "key_press": -1, "trial_index": 50}, "uniqueid": "MTK3309:3YDTZAI2WYNLMHOVOIQ6M3TSWU2146", "dateTime": 1520352207648}, {"current_trial": 51, "trialdata": {"rt": -1, "trial_type": "single-stim", "stimulus": "<p id=\"stim\">3</p>", "internal_node_id": "0.0-35.0-7.0", "time_elapsed": 297439, "key_press": -1, "trial_index": 51}, "uniqueid": "MTK3309:3YDTZAI2WYNLMHOVOIQ6M3TSWU2146", "dateTime": 1520352208649}, {"current_trial": 52, "trialdata": {"rt": -1, "trial_type": "single-stim", "stimulus": "<p id=\"stim\">2</p>", "internal_node_id": "0.0-35.0-8.0", "time_elapsed": 298440, "key_press": -1, "trial_index": 52}, "uniqueid": "MTK3309:3YDTZAI2WYNLMHOVOIQ6M3TSWU2146", "dateTime": 1520352209650}, {"current_trial": 53, "trialdata": {"rt": -1, "trial_type": "single-stim", "stimulus": "<p id=\"stim\">1</p>", "internal_node_id": "0.0-35.0-9.0", "time_elapsed": 299441, "key_press": -1, "trial_index": 53}, "uniqueid": "MTK3309:3YDTZAI2WYNLMHOVOIQ6M3TSWU2146", "dateTime": 1520352210651}, {"current_trial": 54, "trialdata": {"rt": -1, "trial_type": "single-stim", "stimulus": "<p id=\"stim\">+</p>", "internal_node_id": "0.0-36.0-0.0", "time_elapsed": 300942, "key_press": -1, "type": "FIXATION", "trial_index": 54}, "uniqueid": "MTK3309:3YDTZAI2WYNLMHOVOIQ6M3TSWU2146", "dateTime": 1520352212153}, {"current_trial": 55, "trialdata": {"rt": -1, "trial_type": "single-stim", "word": "cod", "stimulus": "<p id=\"stim\">COD</p>", "conditions": [18, 1200, "v", 18000], "internal_node_id": "0.0-37.0", "trial": 1, "time_elapsed": 302145, "serialpos": 0, "key_press": -1, "wordID": 339, "type": "PRES_VIS", "trial_index": 55}, "uniqueid": "MTK3309:3YDTZAI2WYNLMHOVOIQ6M3TSWU2146", "dateTime": 1520352213355}, {"current_trial": 56, "trialdata": {"rt": -1, "trial_type": "single-stim", "word": "student", "stimulus": "<p id=\"stim\">STUDENT</p>", "conditions": [18, 1200, "v", 18000], "internal_node_id": "0.0-38.0", "trial": 1, "time_elapsed": 304493, "serialpos": 1, "key_press": -1, "wordID": 1394, "type": "PRES_VIS", "trial_index": 56}, "uniqueid": "MTK3309:3YDTZAI2WYNLMHOVOIQ6M3TSWU2146", "dateTime": 1520352215703}, {"current_trial": 57, "trialdata": {"rt": -1, "trial_type": "single-stim", "word": "arm", "stimulus": "<p id=\"stim\">ARM</p>", "conditions": [18, 1200, "v", 18000], "internal_node_id": "0.0-39.0", "trial": 1, "time_elapsed": 306833, "serialpos": 2, "key_press": -1, "wordID": 37, "type": "PRES_VIS", "trial_index": 57}, "uniqueid": "MTK3309:3YDTZAI2WYNLMHOVOIQ6M3TSWU2146", "dateTime": 1520352218043}, {"current_trial": 58, "trialdata": {"rt": -1, "trial_type": "single-stim", "word": "pilot", "stimulus": "<p id=\"stim\">PILOT</p>", "conditions": [18, 1200, "v", 18000], "internal_node_id": "0.0-40.0", "trial": 1, "time_elapsed": 309230, "serialpos": 3, "key_press": -1, "wordID": 1069, "type": "PRES_VIS", "trial_index": 58}, "uniqueid": "MTK3309:3YDTZAI2WYNLMHOVOIQ6M3TSWU2146", "dateTime": 1520352220440}, {"current_trial": 59, "trialdata": {"rt": -1, "trial_type": "single-stim", "word": "padding", "stimulus": "<p id=\"stim\">PADDING</p>", "conditions": [18, 1200, "v", 18000], "internal_node_id": "0.0-41.0", "trial": 1, "time_elapsed": 311303, "serialpos": 4, "key_press": -1, "wordID": 998, "type": "PRES_VIS", "trial_index": 59}, "uniqueid": "MTK3309:3YDTZAI2WYNLMHOVOIQ6M3TSWU2146", "dateTime": 1520352222513}, {"current_trial": 60, "trialdata": {"rt": -1, "trial_type": "single-stim", "word": "swamp", "stimulus": "<p id=\"stim\">SWAMP</p>", "conditions": [18, 1200, "v", 18000], "internal_node_id": "0.0-42.0", "trial": 1, "time_elapsed": 313620, "serialpos": 5, "key_press": -1, "wordID": 1415, "type": "PRES_VIS", "trial_index": 60}, "uniqueid": "MTK3309:3YDTZAI2WYNLMHOVOIQ6M3TSWU2146", "dateTime": 1520352224831}, {"current_trial": 61, "trialdata": {"rt": -1, "trial_type": "single-stim", "word": "cousin", "stimulus": "<p id=\"stim\">COUSIN</p>", "conditions": [18, 1200, "v", 18000], "internal_node_id": "0.0-43.0", "trial": 1, "time_elapsed": 315806, "serialpos": 6, "key_press": -1, "wordID": 391, "type": "PRES_VIS", "trial_index": 61}, "uniqueid": "MTK3309:3YDTZAI2WYNLMHOVOIQ6M3TSWU2146", "dateTime": 1520352227016}, {"current_trial": 62, "trialdata": {"rt": -1, "trial_type": "single-stim", "word": "partner", "stimulus": "<p id=\"stim\">PARTNER</p>", "conditions": [18, 1200, "v", 18000], "internal_node_id": "0.0-44.0", "trial": 1, "time_elapsed": 318044, "serialpos": 7, "key_press": -1, "wordID": 1016, "type": "PRES_VIS", "trial_index": 62}, "uniqueid": "MTK3309:3YDTZAI2WYNLMHOVOIQ6M3TSWU2146", "dateTime": 1520352229255}, {"current_trial": 63, "trialdata": {"rt": -1, "trial_type": "single-stim", "word": "lightning", "stimulus": "<p id=\"stim\">LIGHTNING</p>", "conditions": [18, 1200, "v", 18000], "internal_node_id": "0.0-45.0", "trial": 1, "time_elapsed": 320417, "serialpos": 8, "key_press": -1, "wordID": 819, "type": "PRES_VIS", "trial_index": 63}, "uniqueid": "MTK3309:3YDTZAI2WYNLMHOVOIQ6M3TSWU2146", "dateTime": 1520352231627}, {"current_trial": 64, "trialdata": {"rt": -1, "trial_type": "single-stim", "word": "bureau", "stimulus": "<p id=\"stim\">BUREAU</p>", "conditions": [18, 1200, "v", 18000], "internal_node_id": "0.0-46.0", "trial": 1, "time_elapsed": 322753, "serialpos": 9, "key_press": -1, "wordID": 198, "type": "PRES_VIS", "trial_index": 64}, "uniqueid": "MTK3309:3YDTZAI2WYNLMHOVOIQ6M3TSWU2146", "dateTime": 1520352233963}, {"current_trial": 65, "trialdata": {"rt": -1, "trial_type": "single-stim", "word": "sandwich", "stimulus": "<p id=\"stim\">SANDWICH</p>", "conditions": [18, 1200, "v", 18000], "internal_node_id": "0.0-47.0", "trial": 1, "time_elapsed": 324844, "serialpos": 10, "key_press": -1, "wordID": 1231, "type": "PRES_VIS", "trial_index": 65}, "uniqueid": "MTK3309:3YDTZAI2WYNLMHOVOIQ6M3TSWU2146", "dateTime": 1520352236055}, {"current_trial": 66, "trialdata": {"rt": -1, "trial_type": "single-stim", "word": "fragrance", "stimulus": "<p id=\"stim\">FRAGRANCE</p>", "conditions": [18, 1200, "v", 18000], "internal_node_id": "0.0-48.0", "trial": 1, "time_elapsed": 327087, "serialpos": 11, "key_press": -1, "wordID": 598, "type": "PRES_VIS", "trial_index": 66}, "uniqueid": "MTK3309:3YDTZAI2WYNLMHOVOIQ6M3TSWU2146", "dateTime": 1520352238298}, {"current_trial": 67, "trialdata": {"rt": -1, "trial_type": "single-stim", "word": "jello", "stimulus": "<p id=\"stim\">JELLO</p>", "conditions": [18, 1200, "v", 18000], "internal_node_id": "0.0-49.0", "trial": 1, "time_elapsed": 329444, "serialpos": 12, "key_press": -1, "wordID": 753, "type": "PRES_VIS", "trial_index": 67}, "uniqueid": "MTK3309:3YDTZAI2WYNLMHOVOIQ6M3TSWU2146", "dateTime": 1520352240655}, {"current_trial": 68, "trialdata": {"rt": -1, "trial_type": "single-stim", "word": "gravel", "stimulus": "<p id=\"stim\">GRAVEL</p>", "conditions": [18, 1200, "v", 18000], "internal_node_id": "0.0-50.0", "trial": 1, "time_elapsed": 331564, "serialpos": 13, "key_press": -1, "wordID": 658, "type": "PRES_VIS", "trial_index": 68}, "uniqueid": "MTK3309:3YDTZAI2WYNLMHOVOIQ6M3TSWU2146", "dateTime": 1520352242774}, {"current_trial": 69, "trialdata": {"rt": -1, "trial_type": "single-stim", "word": "scarecrow", "stimulus": "<p id=\"stim\">SCARECROW</p>", "conditions": [18, 1200, "v", 18000], "internal_node_id": "0.0-51.0", "trial": 1, "time_elapsed": 333868, "serialpos": 14, "key_press": -1, "wordID": 1244, "type": "PRES_VIS", "trial_index": 69}, "uniqueid": "MTK3309:3YDTZAI2WYNLMHOVOIQ6M3TSWU2146", "dateTime": 1520352245078}, {"current_trial": 70, "trialdata": {"rt": -1, "trial_type": "single-stim", "word": "cowboy", "stimulus": "<p id=\"stim\">COWBOY</p>", "conditions": [18, 1200, "v", 18000], "internal_node_id": "0.0-52.0", "trial": 1, "time_elapsed": 335987, "serialpos": 15, "key_press": -1, "wordID": 394, "type": "PRES_VIS", "trial_index": 70}, "uniqueid": "MTK3309:3YDTZAI2WYNLMHOVOIQ6M3TSWU2146", "dateTime": 1520352247198}, {"current_trial": 71, "trialdata": {"rt": -1, "trial_type": "single-stim", "word": "badge", "stimulus": "<p id=\"stim\">BADGE</p>", "conditions": [18, 1200, "v", 18000], "internal_node_id": "0.0-53.0", "trial": 1, "time_elapsed": 338230, "serialpos": 16, "key_press": -1, "wordID": 67, "type": "PRES_VIS", "trial_index": 71}, "uniqueid": "MTK3309:3YDTZAI2WYNLMHOVOIQ6M3TSWU2146", "dateTime": 1520352249442}, {"current_trial": 72, "trialdata": {"rt": -1, "trial_type": "single-stim", "word": "hamper", "stimulus": "<p id=\"stim\">HAMPER</p>", "conditions": [18, 1200, "v", 18000], "internal_node_id": "0.0-54.0", "trial": 1, "time_elapsed": 340495, "serialpos": 17, "key_press": -1, "wordID": 681, "type": "PRES_VIS", "trial_index": 72}, "uniqueid": "MTK3309:3YDTZAI2WYNLMHOVOIQ6M3TSWU2146", "dateTime": 1520352251706}, {"current_trial": 73, "trialdata": {"rt": -1, "trial_type": "single-stim", "stimulus": "", "internal_node_id": "0.0-55.0-0.0", "time_elapsed": 342607, "key_press": -1, "type": "PRE_RECALL_DELAY", "trial_index": 73}, "uniqueid": "MTK3309:3YDTZAI2WYNLMHOVOIQ6M3TSWU2146", "dateTime": 1520352253818}, {"current_trial": 74, "trialdata": {"rt": -1000, "trial_type": "single-audio", "stimulus": "/static/audio/400Hz.wav", "internal_node_id": "0.0-56.0", "time_elapsed": 343108, "key_press": -1, "type": "PRE_RECALL_ALERT", "trial_index": 74}, "uniqueid": "MTK3309:3YDTZAI2WYNLMHOVOIQ6M3TSWU2146", "dateTime": 1520352254319}, {"current_trial": 75, "trialdata": {"rt": [2209, 4464, 7328, 13986, 26562, 47458], "recwords": ["arm", "badge", "scarecrow", "cowboy", "swamp", "cousin"], "key_times": [962, 1040, 1984, 2209, 2898, 3011, 3312, 3712, 3792, 3952, 4048, 4464, 5008, 5280, 5440, 5620, 5669, 6112, 6281, 6384, 6465, 7328, 12530, 12689, 12835, 13315, 13538, 13746, 13986, 25747, 25939, 26082, 26178, 26355, 26562, 46291, 46530, 46643, 46834, 47091, 47267, 47458], "trial_type": "free-recall", "conditions": [18, 1200, "v", 18000], "internal_node_id": "0.0-57.0-0.0", "key_presses": [65, 82, 77, 13, 66, 65, 83, 8, 68, 71, 69, 13, 83, 67, 65, 82, 69, 67, 82, 79, 87, 13, 67, 79, 87, 66, 79, 89, 13, 83, 87, 65, 77, 80, 13, 67, 79, 85, 83, 73, 78, 13], "trial": 1, "time_elapsed": 403113, "type": "FREE_RECALL", "trial_index": 75}, "uniqueid": "MTK3309:3YDTZAI2WYNLMHOVOIQ6M3TSWU2146", "dateTime": 1520352314326}, {"current_trial": 76, "trialdata": {"rt": 2413, "trial_type": "text", "internal_node_id": "0.0-58.0", "time_elapsed": 407530, "key_press": 13, "type": "INSTRUCTIONS", "trial_index": 76}, "uniqueid": "MTK3309:3YDTZAI2WYNLMHOVOIQ6M3TSWU2146", "dateTime": 1520352318740}, {"current_trial": 77, "trialdata": {"rt": [4285, 7457, 10092, 12112, 16385, 18928, 21616], "trial_type": "math-distractor", "key_times": [3965, 4109, 4285, 6766, 7085, 7457, 9873, 9952, 10092, 11872, 12112, 16065, 16161, 16385, 18657, 18785, 18928, 21281, 21424, 21616], "responses": ["17", "16", "10", "9", "18", "11", "18"], "num2": [5, 3, 4, 3, 8, 1, 8, 8], "num3": [3, 6, 3, 3, 7, 6, 6, 6], "conditions": [24, 1600, "v", 24000], "internal_node_id": "0.0-59.0", "key_presses": [97, 103, 13, 97, 102, 13, 97, 96, 13, 105, 13, 97, 104, 13, 97, 97, 13, 97, 104, 13], "trial": 2, "time_elapsed": 432559, "type": "DISTRACTOR", "trial_index": 77, "num1": [9, 7, 3, 3, 3, 4, 4, 6]}, "uniqueid": "MTK3309:3YDTZAI2WYNLMHOVOIQ6M3TSWU2146", "dateTime": 1520352343769}, {"current_trial": 78, "trialdata": {"rt": -1, "trial_type": "single-stim", "stimulus": "<p id=\"stim\">10</p>", "internal_node_id": "0.0-60.0-0.0", "time_elapsed": 435567, "key_press": -1, "trial_index": 78}, "uniqueid": "MTK3309:3YDTZAI2WYNLMHOVOIQ6M3TSWU2146", "dateTime": 1520352346779}, {"current_trial": 79, "trialdata": {"rt": -1, "trial_type": "single-stim", "stimulus": "<p id=\"stim\">9</p>", "internal_node_id": "0.0-60.0-1.0", "time_elapsed": 436570, "key_press": -1, "trial_index": 79}, "uniqueid": "MTK3309:3YDTZAI2WYNLMHOVOIQ6M3TSWU2146", "dateTime": 1520352347780}, {"current_trial": 80, "trialdata": {"rt": -1, "trial_type": "single-stim", "stimulus": "<p id=\"stim\">8</p>", "internal_node_id": "0.0-60.0-2.0", "time_elapsed": 437571, "key_press": -1, "trial_index": 80}, "uniqueid": "MTK3309:3YDTZAI2WYNLMHOVOIQ6M3TSWU2146", "dateTime": 1520352348781}, {"current_trial": 81, "trialdata": {"rt": -1, "trial_type": "single-stim", "stimulus": "<p id=\"stim\">7</p>", "internal_node_id": "0.0-60.0-3.0", "time_elapsed": 438573, "key_press": -1, "trial_index": 81}, "uniqueid": "MTK3309:3YDTZAI2WYNLMHOVOIQ6M3TSWU2146", "dateTime": 1520352349783}, {"current_trial": 82, "trialdata": {"rt": -1, "trial_type": "single-stim", "stimulus": "<p id=\"stim\">6</p>", "internal_node_id": "0.0-60.0-4.0", "time_elapsed": 439575, "key_press": -1, "trial_index": 82}, "uniqueid": "MTK3309:3YDTZAI2WYNLMHOVOIQ6M3TSWU2146", "dateTime": 1520352350785}, {"current_trial": 83, "trialdata": {"rt": -1, "trial_type": "single-stim", "stimulus": "<p id=\"stim\">5</p>", "internal_node_id": "0.0-60.0-5.0", "time_elapsed": 440599, "key_press": -1, "trial_index": 83}, "uniqueid": "MTK3309:3YDTZAI2WYNLMHOVOIQ6M3TSWU2146", "dateTime": 1520352351809}, {"current_trial": 84, "trialdata": {"rt": -1, "trial_type": "single-stim", "stimulus": "<p id=\"stim\">4</p>", "internal_node_id": "0.0-60.0-6.0", "time_elapsed": 441599, "key_press": -1, "trial_index": 84}, "uniqueid": "MTK3309:3YDTZAI2WYNLMHOVOIQ6M3TSWU2146", "dateTime": 1520352352810}, {"current_trial": 85, "trialdata": {"rt": -1, "trial_type": "single-stim", "stimulus": "<p id=\"stim\">3</p>", "internal_node_id": "0.0-60.0-7.0", "time_elapsed": 442600, "key_press": -1, "trial_index": 85}, "uniqueid": "MTK3309:3YDTZAI2WYNLMHOVOIQ6M3TSWU2146", "dateTime": 1520352353810}, {"current_trial": 86, "trialdata": {"rt": -1, "trial_type": "single-stim", "stimulus": "<p id=\"stim\">2</p>", "internal_node_id": "0.0-60.0-8.0", "time_elapsed": 443601, "key_press": -1, "trial_index": 86}, "uniqueid": "MTK3309:3YDTZAI2WYNLMHOVOIQ6M3TSWU2146", "dateTime": 1520352354811}, {"current_trial": 87, "trialdata": {"rt": -1, "trial_type": "single-stim", "stimulus": "<p id=\"stim\">1</p>", "internal_node_id": "0.0-60.0-9.0", "time_elapsed": 444602, "key_press": -1, "trial_index": 87}, "uniqueid": "MTK3309:3YDTZAI2WYNLMHOVOIQ6M3TSWU2146", "dateTime": 1520352355812}, {"current_trial": 88, "trialdata": {"rt": -1, "trial_type": "single-stim", "stimulus": "<p id=\"stim\">+</p>", "internal_node_id": "0.0-61.0-0.0", "time_elapsed": 446103, "key_press": -1, "type": "FIXATION", "trial_index": 88}, "uniqueid": "MTK3309:3YDTZAI2WYNLMHOVOIQ6M3TSWU2146", "dateTime": 1520352357313}, {"current_trial": 89, "trialdata": {"rt": -1, "trial_type": "single-stim", "word": "market", "stimulus": "<p id=\"stim\">MARKET</p>", "conditions": [24, 1600, "v", 24000], "internal_node_id": "0.0-62.0", "trial": 2, "time_elapsed": 447704, "serialpos": 0, "key_press": -1, "wordID": 870, "type": "PRES_VIS", "trial_index": 89}, "uniqueid": "MTK3309:3YDTZAI2WYNLMHOVOIQ6M3TSWU2146", "dateTime": 1520352358914}, {"current_trial": 90, "trialdata": {"rt": -1, "trial_type": "single-stim", "word": "bubble", "stimulus": "<p id=\"stim\">BUBBLE</p>", "conditions": [24, 1600, "v", 24000], "internal_node_id": "0.0-63.0", "trial": 2, "time_elapsed": 450415, "serialpos": 1, "key_press": -1, "wordID": 182, "type": "PRES_VIS", "trial_index": 90}, "uniqueid": "MTK3309:3YDTZAI2WYNLMHOVOIQ6M3TSWU2146", "dateTime": 1520352361625}, {"current_trial": 91, "trialdata": {"rt": -1, "trial_type": "single-stim", "word": "snail", "stimulus": "<p id=\"stim\">SNAIL</p>", "conditions": [24, 1600, "v", 24000], "internal_node_id": "0.0-64.0", "trial": 2, "time_elapsed": 452983, "serialpos": 2, "key_press": -1, "wordID": 1331, "type": "PRES_VIS", "trial_index": 91}, "uniqueid": "MTK3309:3YDTZAI2WYNLMHOVOIQ6M3TSWU2146", "dateTime": 1520352364194}, {"current_trial": 92, "trialdata": {"rt": -1, "trial_type": "single-stim", "word": "powder", "stimulus": "<p id=\"stim\">POWDER</p>", "conditions": [24, 1600, "v", 24000], "internal_node_id": "0.0-65.0", "trial": 2, "time_elapsed": 455549, "serialpos": 3, "key_press": -1, "wordID": 1116, "type": "PRES_VIS", "trial_index": 92}, "uniqueid": "MTK3309:3YDTZAI2WYNLMHOVOIQ6M3TSWU2146", "dateTime": 1520352366759}, {"current_trial": 93, "trialdata": {"rt": -1, "trial_type": "single-stim", "word": "money", "stimulus": "<p id=\"stim\">MONEY</p>", "conditions": [24, 1600, "v", 24000], "internal_node_id": "0.0-66.0", "trial": 2, "time_elapsed": 458239, "serialpos": 4, "key_press": -1, "wordID": 907, "type": "PRES_VIS", "trial_index": 93}, "uniqueid": "MTK3309:3YDTZAI2WYNLMHOVOIQ6M3TSWU2146", "dateTime": 1520352369449}, {"current_trial": 94, "trialdata": {"rt": -1, "trial_type": "single-stim", "word": "scissors", "stimulus": "<p id=\"stim\">SCISSORS</p>", "conditions": [24, 1600, "v", 24000], "internal_node_id": "0.0-67.0", "trial": 2, "time_elapsed": 460651, "serialpos": 5, "key_press": -1, "wordID": 1249, "type": "PRES_VIS", "trial_index": 94}, "uniqueid": "MTK3309:3YDTZAI2WYNLMHOVOIQ6M3TSWU2146", "dateTime": 1520352371861}, {"current_trial": 95, "trialdata": {"rt": -1, "trial_type": "single-stim", "word": "chapel", "stimulus": "<p id=\"stim\">CHAPEL</p>", "conditions": [24, 1600, "v", 24000], "internal_node_id": "0.0-68.0", "trial": 2, "time_elapsed": 463214, "serialpos": 6, "key_press": -1, "wordID": 279, "type": "PRES_VIS", "trial_index": 95}, "uniqueid": "MTK3309:3YDTZAI2WYNLMHOVOIQ6M3TSWU2146", "dateTime": 1520352374424}, {"current_trial": 96, "trialdata": {"rt": -1, "trial_type": "single-stim", "word": "ghetto", "stimulus": "<p id=\"stim\">GHETTO</p>", "conditions": [24, 1600, "v", 24000], "internal_node_id": "0.0-69.0", "trial": 2, "time_elapsed": 465691, "serialpos": 7, "key_press": -1, "wordID": 632, "type": "PRES_VIS", "trial_index": 96}, "uniqueid": "MTK3309:3YDTZAI2WYNLMHOVOIQ6M3TSWU2146", "dateTime": 1520352376901}, {"current_trial": 97, "trialdata": {"rt": -1, "trial_type": "single-stim", "word": "actor", "stimulus": "<p id=\"stim\">ACTOR</p>", "conditions": [24, 1600, "v", 24000], "internal_node_id": "0.0-70.0", "trial": 2, "time_elapsed": 468284, "serialpos": 8, "key_press": -1, "wordID": 4, "type": "PRES_VIS", "trial_index": 97}, "uniqueid": "MTK3309:3YDTZAI2WYNLMHOVOIQ6M3TSWU2146", "dateTime": 1520352379494}, {"current_trial": 98, "trialdata": {"rt": -1, "trial_type": "single-stim", "word": "actress", "stimulus": "<p id=\"stim\">ACTRESS</p>", "conditions": [24, 1600, "v", 24000], "internal_node_id": "0.0-71.0", "trial": 2, "time_elapsed": 471004, "serialpos": 9, "key_press": -1, "wordID": 5, "type": "PRES_VIS", "trial_index": 98}, "uniqueid": "MTK3309:3YDTZAI2WYNLMHOVOIQ6M3TSWU2146", "dateTime": 1520352382214}, {"current_trial": 99, "trialdata": {"rt": -1, "trial_type": "single-stim", "word": "tortoise", "stimulus": "<p id=\"stim\">TORTOISE</p>", "conditions": [24, 1600, "v", 24000], "internal_node_id": "0.0-72.0", "trial": 2, "time_elapsed": 473682, "serialpos": 10, "key_press": -1, "wordID": 1485, "type": "PRES_VIS", "trial_index": 99}, "uniqueid": "MTK3309:3YDTZAI2WYNLMHOVOIQ6M3TSWU2146", "dateTime": 1520352384892}, {"current_trial": 100, "trialdata": {"rt": -1, "trial_type": "single-stim", "word": "plaza", "stimulus": "<p id=\"stim\">PLAZA</p>", "conditions": [24, 1600, "v", 24000], "internal_node_id": "0.0-73.0", "trial": 2, "time_elapsed": 476220, "serialpos": 11, "key_press": -1, "wordID": 1087, "type": "PRES_VIS", "trial_index": 100}, "uniqueid": "MTK3309:3YDTZAI2WYNLMHOVOIQ6M3TSWU2146", "dateTime": 1520352387431}, {"current_trial": 101, "trialdata": {"rt": -1, "trial_type": "single-stim", "word": "shrub", "stimulus": "<p id=\"stim\">SHRUB</p>", "conditions": [24, 1600, "v", 24000], "internal_node_id": "0.0-74.0", "trial": 2, "time_elapsed": 478741, "serialpos": 12, "key_press": -1, "wordID": 1298, "type": "PRES_VIS", "trial_index": 101}, "uniqueid": "MTK3309:3YDTZAI2WYNLMHOVOIQ6M3TSWU2146", "dateTime": 1520352389951}, {"current_trial": 102, "trialdata": {"rt": -1, "trial_type": "single-stim", "word": "popcorn", "stimulus": "<p id=\"stim\">POPCORN</p>", "conditions": [24, 1600, "v", 24000], "internal_node_id": "0.0-75.0", "trial": 2, "time_elapsed": 481357, "serialpos": 13, "key_press": -1, "wordID": 1103, "type": "PRES_VIS", "trial_index": 102}, "uniqueid": "MTK3309:3YDTZAI2WYNLMHOVOIQ6M3TSWU2146", "dateTime": 1520352392567}, {"current_trial": 103, "trialdata": {"rt": -1, "trial_type": "single-stim", "word": "baby", "stimulus": "<p id=\"stim\">BABY</p>", "conditions": [24, 1600, "v", 24000], "internal_node_id": "0.0-76.0", "trial": 2, "time_elapsed": 483965, "serialpos": 14, "key_press": -1, "wordID": 63, "type": "PRES_VIS", "trial_index": 103}, "uniqueid": "MTK3309:3YDTZAI2WYNLMHOVOIQ6M3TSWU2146", "dateTime": 1520352395175}, {"current_trial": 104, "trialdata": {"rt": -1, "trial_type": "single-stim", "word": "shark", "stimulus": "<p id=\"stim\">SHARK</p>", "conditions": [24, 1600, "v", 24000], "internal_node_id": "0.0-77.0", "trial": 2, "time_elapsed": 486573, "serialpos": 15, "key_press": -1, "wordID": 1274, "type": "PRES_VIS", "trial_index": 104}, "uniqueid": "MTK3309:3YDTZAI2WYNLMHOVOIQ6M3TSWU2146", "dateTime": 1520352397784}, {"current_trial": 105, "trialdata": {"rt": -1, "trial_type": "single-stim", "word": "apron", "stimulus": "<p id=\"stim\">APRON</p>", "conditions": [24, 1600, "v", 24000], "internal_node_id": "0.0-78.0", "trial": 2, "time_elapsed": 489090, "serialpos": 16, "key_press": -1, "wordID": 34, "type": "PRES_VIS", "trial_index": 105}, "uniqueid": "MTK3309:3YDTZAI2WYNLMHOVOIQ6M3TSWU2146", "dateTime": 1520352400300}, {"current_trial": 106, "trialdata": {"rt": -1, "trial_type": "single-stim", "word": "wagon", "stimulus": "<p id=\"stim\">WAGON</p>", "conditions": [24, 1600, "v", 24000], "internal_node_id": "0.0-79.0", "trial": 2, "time_elapsed": 491888, "serialpos": 17, "key_press": -1, "wordID": 1577, "type": "PRES_VIS", "trial_index": 106}, "uniqueid": "MTK3309:3YDTZAI2WYNLMHOVOIQ6M3TSWU2146", "dateTime": 1520352403098}, {"current_trial": 107, "trialdata": {"rt": -1, "trial_type": "single-stim", "word": "switch", "stimulus": "<p id=\"stim\">SWITCH</p>", "conditions": [24, 1600, "v", 24000], "internal_node_id": "0.0-80.0", "trial": 2, "time_elapsed": 494290, "serialpos": 18, "key_press": -1, "wordID": 1421, "type": "PRES_VIS", "trial_index": 107}, "uniqueid": "MTK3309:3YDTZAI2WYNLMHOVOIQ6M3TSWU2146", "dateTime": 1520352405500}, {"current_trial": 108, "trialdata": {"rt": -1, "trial_type": "single-stim", "word": "sausage", "stimulus": "<p id=\"stim\">SAUSAGE</p>", "conditions": [24, 1600, "v", 24000], "internal_node_id": "0.0-81.0", "trial": 2, "time_elapsed": 496773, "serialpos": 19, "key_press": -1, "wordID": 1237, "type": "PRES_VIS", "trial_index": 108}, "uniqueid": "MTK3309:3YDTZAI2WYNLMHOVOIQ6M3TSWU2146", "dateTime": 1520352407983}, {"current_trial": 109, "trialdata": {"rt": -1, "trial_type": "single-stim", "word": "gazelle", "stimulus": "<p id=\"stim\">GAZELLE</p>", "conditions": [24, 1600, "v", 24000], "internal_node_id": "0.0-82.0", "trial": 2, "time_elapsed": 499365, "serialpos": 20, "key_press": -1, "wordID": 627, "type": "PRES_VIS", "trial_index": 109}, "uniqueid": "MTK3309:3YDTZAI2WYNLMHOVOIQ6M3TSWU2146", "dateTime": 1520352410575}, {"current_trial": 110, "trialdata": {"rt": -1, "trial_type": "single-stim", "word": "soda", "stimulus": "<p id=\"stim\">SODA</p>", "conditions": [24, 1600, "v", 24000], "internal_node_id": "0.0-83.0", "trial": 2, "time_elapsed": 502032, "serialpos": 21, "key_press": -1, "wordID": 1340, "type": "PRES_VIS", "trial_index": 110}, "uniqueid": "MTK3309:3YDTZAI2WYNLMHOVOIQ6M3TSWU2146", "dateTime": 1520352413242}, {"current_trial": 111, "trialdata": {"rt": -1, "trial_type": "single-stim", "word": "bug", "stimulus": "<p id=\"stim\">BUG</p>", "conditions": [24, 1600, "v", 24000], "internal_node_id": "0.0-84.0", "trial": 2, "time_elapsed": 504664, "serialpos": 22, "key_press": -1, "wordID": 186, "type": "PRES_VIS", "trial_index": 111}, "uniqueid": "MTK3309:3YDTZAI2WYNLMHOVOIQ6M3TSWU2146", "dateTime": 1520352415874}, {"current_trial": 112, "trialdata": {"rt": -1, "trial_type": "single-stim", "word": "virus", "stimulus": "<p id=\"stim\">VIRUS</p>", "conditions": [24, 1600, "v", 24000], "internal_node_id": "0.0-85.0", "trial": 2, "time_elapsed": 507307, "serialpos": 23, "key_press": -1, "wordID": 1571, "type": "PRES_VIS", "trial_index": 112}, "uniqueid": "MTK3309:3YDTZAI2WYNLMHOVOIQ6M3TSWU2146", "dateTime": 1520352418517}, {"current_trial": 113, "trialdata": {"rt": -1, "trial_type": "single-stim", "stimulus": "", "internal_node_id": "0.0-86.0-0.0", "time_elapsed": 509787, "key_press": -1, "type": "PRE_RECALL_DELAY", "trial_index": 113}, "uniqueid": "MTK3309:3YDTZAI2WYNLMHOVOIQ6M3TSWU2146", "dateTime": 1520352420997}, {"current_trial": 114, "trialdata": {"rt": -1000, "trial_type": "single-audio", "stimulus": "/static/audio/400Hz.wav", "internal_node_id": "0.0-87.0", "time_elapsed": 510289, "key_press": -1, "type": "PRE_RECALL_ALERT", "trial_index": 114}, "uniqueid": "MTK3309:3YDTZAI2WYNLMHOVOIQ6M3TSWU2146", "dateTime": 1520352421499}, {"current_trial": 115, "trialdata": {"rt": [1902, 3854, 5629, 6990, 8381, 10574, 13726, 18541, 30143], "recwords": ["snail", "bubble", "market", "ghetto", "actor", "actress", "baby", "bug", "popcorn"], "key_times": [976, 1070, 1196, 1278, 1677, 1902, 2543, 2655, 2798, 3006, 3230, 3374, 3854, 4365, 4477, 4574, 5101, 5214, 5343, 5629, 6109, 6221, 6317, 6525, 6669, 6766, 6990, 7501, 7725, 7950, 8078, 8174, 8381, 9357, 9536, 9741, 9886, 9982, 10253, 10397, 10574, 11710, 11821, 11917, 13373, 13726, 17902, 17982, 18269, 18541, 28817, 28913, 29056, 29300, 29504, 29631, 29856, 30143], "trial_type": "free-recall", "conditions": [24, 1600, "v", 24000], "internal_node_id": "0.0-88.0-0.0", "key_presses": [83, 78, 65, 73, 76, 13, 66, 85, 66, 66, 76, 69, 13, 77, 65, 82, 75, 69, 84, 13, 71, 72, 69, 84, 84, 79, 13, 65, 67, 84, 79, 82, 32, 65, 67, 84, 82, 69, 83, 83, 13, 66, 65, 66, 89, 13, 66, 85, 71, 13, 80, 79, 80, 67, 79, 82, 78, 13], "trial": 2, "time_elapsed": 570292, "type": "FREE_RECALL", "trial_index": 115}, "uniqueid": "MTK3309:3YDTZAI2WYNLMHOVOIQ6M3TSWU2146", "dateTime": 1520352481503}, {"current_trial": 116, "trialdata": {"rt": 1171, "trial_type": "text", "internal_node_id": "0.0-89.0", "time_elapsed": 573467, "key_press": 13, "type": "INSTRUCTIONS", "trial_index": 116}, "uniqueid": "MTK3309:3YDTZAI2WYNLMHOVOIQ6M3TSWU2146", "dateTime": 1520352484677}, {"current_trial": 117, "trialdata": {"rt": [1939, 4483, 6291, 8227, 10963], "trial_type": "math-distractor", "key_times": [1763, 1827, 1939, 4323, 4405, 4483, 5987, 6132, 6291, 7892, 8068, 8227, 10573, 10771, 10963], "responses": ["10", "20", "16", "17", "17"], "num2": [6, 9, 7, 1, 5, 7], "num3": [3, 9, 7, 7, 8, 3], "conditions": [12, 1600, "v", 12000], "internal_node_id": "0.0-90.0", "key_presses": [97, 96, 13, 98, 96, 13, 97, 102, 13, 97, 103, 13, 97, 103, 13], "trial": 3, "time_elapsed": 587469, "type": "DISTRACTOR", "trial_index": 117, "num1": [1, 2, 2, 9, 4, 5]}, "uniqueid": "MTK3309:3YDTZAI2WYNLMHOVOIQ6M3TSWU2146", "dateTime": 1520352498680}, {"current_trial": 118, "trialdata": {"rt": -1, "trial_type": "single-stim", "stimulus": "<p id=\"stim\">10</p>", "internal_node_id": "0.0-91.0-0.0", "time_elapsed": 590471, "key_press": -1, "trial_index": 118}, "uniqueid": "MTK3309:3YDTZAI2WYNLMHOVOIQ6M3TSWU2146", "dateTime": 1520352501681}, {"current_trial": 119, "trialdata": {"rt": -1, "trial_type": "single-stim", "stimulus": "<p id=\"stim\">9</p>", "internal_node_id": "0.0-91.0-1.0", "time_elapsed": 591471, "key_press": -1, "trial_index": 119}, "uniqueid": "MTK3309:3YDTZAI2WYNLMHOVOIQ6M3TSWU2146", "dateTime": 1520352502681}, {"current_trial": 120, "trialdata": {"rt": -1, "trial_type": "single-stim", "stimulus": "<p id=\"stim\">8</p>", "internal_node_id": "0.0-91.0-2.0", "time_elapsed": 592471, "key_press": -1, "trial_index": 120}, "uniqueid": "MTK3309:3YDTZAI2WYNLMHOVOIQ6M3TSWU2146", "dateTime": 1520352503682}, {"current_trial": 121, "trialdata": {"rt": -1, "trial_type": "single-stim", "stimulus": "<p id=\"stim\">7</p>", "internal_node_id": "0.0-91.0-3.0", "time_elapsed": 593473, "key_press": -1, "trial_index": 121}, "uniqueid": "MTK3309:3YDTZAI2WYNLMHOVOIQ6M3TSWU2146", "dateTime": 1520352504683}, {"current_trial": 122, "trialdata": {"rt": -1, "trial_type": "single-stim", "stimulus": "<p id=\"stim\">6</p>", "internal_node_id": "0.0-91.0-4.0", "time_elapsed": 594473, "key_press": -1, "trial_index": 122}, "uniqueid": "MTK3309:3YDTZAI2WYNLMHOVOIQ6M3TSWU2146", "dateTime": 1520352505683}, {"current_trial": 123, "trialdata": {"rt": -1, "trial_type": "single-stim", "stimulus": "<p id=\"stim\">5</p>", "internal_node_id": "0.0-91.0-5.0", "time_elapsed": 595473, "key_press": -1, "trial_index": 123}, "uniqueid": "MTK3309:3YDTZAI2WYNLMHOVOIQ6M3TSWU2146", "dateTime": 1520352506683}, {"current_trial": 124, "trialdata": {"rt": -1, "trial_type": "single-stim", "stimulus": "<p id=\"stim\">4</p>", "internal_node_id": "0.0-91.0-6.0", "time_elapsed": 596475, "key_press": -1, "trial_index": 124}, "uniqueid": "MTK3309:3YDTZAI2WYNLMHOVOIQ6M3TSWU2146", "dateTime": 1520352507686}, {"current_trial": 125, "trialdata": {"rt": -1, "trial_type": "single-stim", "stimulus": "<p id=\"stim\">3</p>", "internal_node_id": "0.0-91.0-7.0", "time_elapsed": 597478, "key_press": -1, "trial_index": 125}, "uniqueid": "MTK3309:3YDTZAI2WYNLMHOVOIQ6M3TSWU2146", "dateTime": 1520352508688}, {"current_trial": 126, "trialdata": {"rt": -1, "trial_type": "single-stim", "stimulus": "<p id=\"stim\">2</p>", "internal_node_id": "0.0-91.0-8.0", "time_elapsed": 598478, "key_press": -1, "trial_index": 126}, "uniqueid": "MTK3309:3YDTZAI2WYNLMHOVOIQ6M3TSWU2146", "dateTime": 1520352509688}, {"current_trial": 127, "trialdata": {"rt": -1, "trial_type": "single-stim", "stimulus": "<p id=\"stim\">1</p>", "internal_node_id": "0.0-91.0-9.0", "time_elapsed": 599479, "key_press": -1, "trial_index": 127}, "uniqueid": "MTK3309:3YDTZAI2WYNLMHOVOIQ6M3TSWU2146", "dateTime": 1520352510689}, {"current_trial": 128, "trialdata": {"rt": -1, "trial_type": "single-stim", "stimulus": "<p id=\"stim\">+</p>", "internal_node_id": "0.0-92.0-0.0", "time_elapsed": 600980, "key_press": -1, "type": "FIXATION", "trial_index": 128}, "uniqueid": "MTK3309:3YDTZAI2WYNLMHOVOIQ6M3TSWU2146", "dateTime": 1520352512190}, {"current_trial": 129, "trialdata": {"rt": -1, "trial_type": "single-stim", "word": "portrait", "stimulus": "<p id=\"stim\">PORTRAIT</p>", "conditions": [12, 1600, "v", 12000], "internal_node_id": "0.0-93.0", "trial": 3, "time_elapsed": 602580, "serialpos": 0, "key_press": -1, "wordID": 1110, "type": "PRES_VIS", "trial_index": 129}, "uniqueid": "MTK3309:3YDTZAI2WYNLMHOVOIQ6M3TSWU2146", "dateTime": 1520352513790}, {"current_trial": 130, "trialdata": {"rt": -1, "trial_type": "single-stim", "word": "banjo", "stimulus": "<p id=\"stim\">BANJO</p>", "conditions": [12, 1600, "v", 12000], "internal_node_id": "0.0-94.0", "trial": 3, "time_elapsed": 605298, "serialpos": 1, "key_press": -1, "wordID": 81, "type": "PRES_VIS", "trial_index": 130}, "uniqueid": "MTK3309:3YDTZAI2WYNLMHOVOIQ6M3TSWU2146", "dateTime": 1520352516508}, {"current_trial": 131, "trialdata": {"rt": -1, "trial_type": "single-stim", "word": "europe", "stimulus": "<p id=\"stim\">EUROPE</p>", "conditions": [12, 1600, "v", 12000], "internal_node_id": "0.0-95.0", "trial": 3, "time_elapsed": 607898, "serialpos": 2, "key_press": -1, "wordID": 540, "type": "PRES_VIS", "trial_index": 131}, "uniqueid": "MTK3309:3YDTZAI2WYNLMHOVOIQ6M3TSWU2146", "dateTime": 1520352519108}, {"current_trial": 132, "trialdata": {"rt": -1, "trial_type": "single-stim", "word": "window", "stimulus": "<p id=\"stim\">WINDOW</p>", "conditions": [12, 1600, "v", 12000], "internal_node_id": "0.0-96.0", "trial": 3, "time_elapsed": 610635, "serialpos": 3, "key_press": -1, "wordID": 1610, "type": "PRES_VIS", "trial_index": 132}, "uniqueid": "MTK3309:3YDTZAI2WYNLMHOVOIQ6M3TSWU2146", "dateTime": 1520352521845}, {"current_trial": 133, "trialdata": {"rt": -1, "trial_type": "single-stim", "word": "piano", "stimulus": "<p id=\"stim\">PIANO</p>", "conditions": [12, 1600, "v", 12000], "internal_node_id": "0.0-97.0", "trial": 3, "time_elapsed": 613269, "serialpos": 4, "key_press": -1, "wordID": 1056, "type": "PRES_VIS", "trial_index": 133}, "uniqueid": "MTK3309:3YDTZAI2WYNLMHOVOIQ6M3TSWU2146", "dateTime": 1520352524479}, {"current_trial": 134, "trialdata": {"rt": -1, "trial_type": "single-stim", "word": "mammal", "stimulus": "<p id=\"stim\">MAMMAL</p>", "conditions": [12, 1600, "v", 12000], "internal_node_id": "0.0-98.0", "trial": 3, "time_elapsed": 615889, "serialpos": 5, "key_press": -1, "wordID": 860, "type": "PRES_VIS", "trial_index": 134}, "uniqueid": "MTK3309:3YDTZAI2WYNLMHOVOIQ6M3TSWU2146", "dateTime": 1520352527099}, {"current_trial": 135, "trialdata": {"rt": -1, "trial_type": "single-stim", "word": "turtle", "stimulus": "<p id=\"stim\">TURTLE</p>", "conditions": [12, 1600, "v", 12000], "internal_node_id": "0.0-99.0", "trial": 3, "time_elapsed": 618324, "serialpos": 6, "key_press": -1, "wordID": 1521, "type": "PRES_VIS", "trial_index": 135}, "uniqueid": "MTK3309:3YDTZAI2WYNLMHOVOIQ6M3TSWU2146", "dateTime": 1520352529534}, {"current_trial": 136, "trialdata": {"rt": -1, "trial_type": "single-stim", "word": "denim", "stimulus": "<p id=\"stim\">DENIM</p>", "conditions": [12, 1600, "v", 12000], "internal_node_id": "0.0-100.0", "trial": 3, "time_elapsed": 620898, "serialpos": 7, "key_press": -1, "wordID": 445, "type": "PRES_VIS", "trial_index": 136}, "uniqueid": "MTK3309:3YDTZAI2WYNLMHOVOIQ6M3TSWU2146", "dateTime": 1520352532108}, {"current_trial": 137, "trialdata": {"rt": -1, "trial_type": "single-stim", "word": "outfit", "stimulus": "<p id=\"stim\">OUTFIT</p>", "conditions": [12, 1600, "v", 12000], "internal_node_id": "0.0-101.0", "trial": 3, "time_elapsed": 623582, "serialpos": 8, "key_press": -1, "wordID": 987, "type": "PRES_VIS", "trial_index": 137}, "uniqueid": "MTK3309:3YDTZAI2WYNLMHOVOIQ6M3TSWU2146", "dateTime": 1520352534792}, {"current_trial": 138, "trialdata": {"rt": -1, "trial_type": "single-stim", "word": "pepper", "stimulus": "<p id=\"stim\">PEPPER</p>", "conditions": [12, 1600, "v", 12000], "internal_node_id": "0.0-102.0", "trial": 3, "time_elapsed": 626062, "serialpos": 9, "key_press": -1, "wordID": 1046, "type": "PRES_VIS", "trial_index": 138}, "uniqueid": "MTK3309:3YDTZAI2WYNLMHOVOIQ6M3TSWU2146", "dateTime": 1520352537272}, {"current_trial": 139, "trialdata": {"rt": -1, "trial_type": "single-stim", "word": "patrol", "stimulus": "<p id=\"stim\">PATROL</p>", "conditions": [12, 1600, "v", 12000], "internal_node_id": "0.0-103.0", "trial": 3, "time_elapsed": 628804, "serialpos": 10, "key_press": -1, "wordID": 1026, "type": "PRES_VIS", "trial_index": 139}, "uniqueid": "MTK3309:3YDTZAI2WYNLMHOVOIQ6M3TSWU2146", "dateTime": 1520352540014}, {"current_trial": 140, "trialdata": {"rt": -1, "trial_type": "single-stim", "word": "leopard", "stimulus": "<p id=\"stim\">LEOPARD</p>", "conditions": [12, 1600, "v", 12000], "internal_node_id": "0.0-104.0", "trial": 3, "time_elapsed": 631283, "serialpos": 11, "key_press": -1, "wordID": 811, "type": "PRES_VIS", "trial_index": 140}, "uniqueid": "MTK3309:3YDTZAI2WYNLMHOVOIQ6M3TSWU2146", "dateTime": 1520352542493}, {"current_trial": 141, "trialdata": {"rt": -1, "trial_type": "single-stim", "stimulus": "", "internal_node_id": "0.0-105.0-0.0", "time_elapsed": 633409, "key_press": -1, "type": "PRE_RECALL_DELAY", "trial_index": 141}, "uniqueid": "MTK3309:3YDTZAI2WYNLMHOVOIQ6M3TSWU2146", "dateTime": 1520352544619}, {"current_trial": 142, "trialdata": {"rt": -1000, "trial_type": "single-audio", "stimulus": "/static/audio/400Hz.wav", "internal_node_id": "0.0-106.0", "time_elapsed": 633910, "key_press": -1, "type": "PRE_RECALL_ALERT", "trial_index": 142}, "uniqueid": "MTK3309:3YDTZAI2WYNLMHOVOIQ6M3TSWU2146", "dateTime": 1520352545121}, {"current_trial": 143, "trialdata": {"rt": [2540, 4683, 7787, 11069, 20027, 37605], "recwords": ["leopard", "window", "piano", "europe", "denim", "outfit"], "key_times": [1228, 1355, 1452, 1596, 1739, 1948, 2219, 2540, 3195, 3501, 3708, 3787, 3931, 4479, 4683, 5260, 5387, 5899, 6124, 6235, 6411, 6811, 6940, 7069, 7195, 7372, 7787, 8507, 8715, 8876, 9357, 9499, 9691, 9803, 10045, 10619, 10827, 11069, 18893, 19084, 19364, 19548, 19596, 20027, 36822, 36870, 37013, 37238, 37349, 37446, 37605], "trial_type": "free-recall", "conditions": [12, 1600, "v", 12000], "internal_node_id": "0.0-107.0-0.0", "key_presses": [76, 69, 79, 80, 65, 82, 68, 13, 87, 73, 78, 68, 79, 87, 13, 80, 69, 8, 73, 80, 65, 8, 8, 65, 78, 79, 13, 69, 73, 82, 8, 8, 85, 82, 79, 80, 69, 13, 68, 69, 78, 73, 77, 13, 79, 85, 84, 70, 73, 84, 13], "trial": 3, "time_elapsed": 693859, "type": "FREE_RECALL", "trial_index": 143}, "uniqueid": "MTK3309:3YDTZAI2WYNLMHOVOIQ6M3TSWU2146", "dateTime": 1520352605073}, {"current_trial": 144, "trialdata": {"rt": 1208, "trial_type": "text", "internal_node_id": "0.0-108.0", "time_elapsed": 697070, "key_press": 13, "type": "INSTRUCTIONS", "trial_index": 144}, "uniqueid": "MTK3309:3YDTZAI2WYNLMHOVOIQ6M3TSWU2146", "dateTime": 1520352608280}, {"current_trial": 145, "trialdata": {"rt": [2619, 5053, 8203], "trial_type": "math-distractor", "key_times": [2427, 2619, 4763, 4907, 5053, 7900, 8044, 8203, 10347, 11515], "responses": ["8", "16", "14"], "num2": [1, 2, 9, 2], "num3": [2, 9, 3, 6], "conditions": [12, 800, "v", 12000], "internal_node_id": "0.0-109.0", "key_presses": [104, 13, 97, 102, 13, 97, 100, 13, 97, 99], "trial": 4, "time_elapsed": 711075, "type": "DISTRACTOR", "trial_index": 145, "num1": [5, 5, 2, 5]}, "uniqueid": "MTK3309:3YDTZAI2WYNLMHOVOIQ6M3TSWU2146", "dateTime": 1520352622287}, {"current_trial": 146, "trialdata": {"rt": -1, "trial_type": "single-stim", "stimulus": "<p id=\"stim\">10</p>", "internal_node_id": "0.0-110.0-0.0", "time_elapsed": 714077, "key_press": -1, "trial_index": 146}, "uniqueid": "MTK3309:3YDTZAI2WYNLMHOVOIQ6M3TSWU2146", "dateTime": 1520352625287}, {"current_trial": 147, "trialdata": {"rt": -1, "trial_type": "single-stim", "stimulus": "<p id=\"stim\">9</p>", "internal_node_id": "0.0-110.0-1.0", "time_elapsed": 715079, "key_press": -1, "trial_index": 147}, "uniqueid": "MTK3309:3YDTZAI2WYNLMHOVOIQ6M3TSWU2146", "dateTime": 1520352626289}, {"current_trial": 148, "trialdata": {"rt": -1, "trial_type": "single-stim", "stimulus": "<p id=\"stim\">8</p>", "internal_node_id": "0.0-110.0-2.0", "time_elapsed": 716085, "key_press": -1, "trial_index": 148}, "uniqueid": "MTK3309:3YDTZAI2WYNLMHOVOIQ6M3TSWU2146", "dateTime": 1520352627295}, {"current_trial": 149, "trialdata": {"rt": -1, "trial_type": "single-stim", "stimulus": "<p id=\"stim\">7</p>", "internal_node_id": "0.0-110.0-3.0", "time_elapsed": 717100, "key_press": -1, "trial_index": 149}, "uniqueid": "MTK3309:3YDTZAI2WYNLMHOVOIQ6M3TSWU2146", "dateTime": 1520352628310}, {"current_trial": 150, "trialdata": {"rt": -1, "trial_type": "single-stim", "stimulus": "<p id=\"stim\">6</p>", "internal_node_id": "0.0-110.0-4.0", "time_elapsed": 718098, "key_press": -1, "trial_index": 150}, "uniqueid": "MTK3309:3YDTZAI2WYNLMHOVOIQ6M3TSWU2146", "dateTime": 1520352629308}, {"current_trial": 151, "trialdata": {"rt": -1, "trial_type": "single-stim", "stimulus": "<p id=\"stim\">5</p>", "internal_node_id": "0.0-110.0-5.0", "time_elapsed": 719098, "key_press": -1, "trial_index": 151}, "uniqueid": "MTK3309:3YDTZAI2WYNLMHOVOIQ6M3TSWU2146", "dateTime": 1520352630308}, {"current_trial": 152, "trialdata": {"rt": -1, "trial_type": "single-stim", "stimulus": "<p id=\"stim\">4</p>", "internal_node_id": "0.0-110.0-6.0", "time_elapsed": 720098, "key_press": -1, "trial_index": 152}, "uniqueid": "MTK3309:3YDTZAI2WYNLMHOVOIQ6M3TSWU2146", "dateTime": 1520352631308}, {"current_trial": 153, "trialdata": {"rt": -1, "trial_type": "single-stim", "stimulus": "<p id=\"stim\">3</p>", "internal_node_id": "0.0-110.0-7.0", "time_elapsed": 721098, "key_press": -1, "trial_index": 153}, "uniqueid": "MTK3309:3YDTZAI2WYNLMHOVOIQ6M3TSWU2146", "dateTime": 1520352632308}, {"current_trial": 154, "trialdata": {"rt": -1, "trial_type": "single-stim", "stimulus": "<p id=\"stim\">2</p>", "internal_node_id": "0.0-110.0-8.0", "time_elapsed": 722103, "key_press": -1, "trial_index": 154}, "uniqueid": "MTK3309:3YDTZAI2WYNLMHOVOIQ6M3TSWU2146", "dateTime": 1520352633313}, {"current_trial": 155, "trialdata": {"rt": -1, "trial_type": "single-stim", "stimulus": "<p id=\"stim\">1</p>", "internal_node_id": "0.0-110.0-9.0", "time_elapsed": 723104, "key_press": -1, "trial_index": 155}, "uniqueid": "MTK3309:3YDTZAI2WYNLMHOVOIQ6M3TSWU2146", "dateTime": 1520352634314}, {"current_trial": 156, "trialdata": {"rt": -1, "trial_type": "single-stim", "stimulus": "<p id=\"stim\">+</p>", "internal_node_id": "0.0-111.0-0.0", "time_elapsed": 724605, "key_press": -1, "type": "FIXATION", "trial_index": 156}, "uniqueid": "MTK3309:3YDTZAI2WYNLMHOVOIQ6M3TSWU2146", "dateTime": 1520352635815}, {"current_trial": 157, "trialdata": {"rt": -1, "trial_type": "single-stim", "word": "daughter", "stimulus": "<p id=\"stim\">DAUGHTER</p>", "conditions": [12, 800, "v", 12000], "internal_node_id": "0.0-112.0", "trial": 4, "time_elapsed": 725405, "serialpos": 0, "key_press": -1, "wordID": 441, "type": "PRES_VIS", "trial_index": 157}, "uniqueid": "MTK3309:3YDTZAI2WYNLMHOVOIQ6M3TSWU2146", "dateTime": 1520352636615}, {"current_trial": 158, "trialdata": {"rt": -1, "trial_type": "single-stim", "word": "wife", "stimulus": "<p id=\"stim\">WIFE</p>", "conditions": [12, 800, "v", 12000], "internal_node_id": "0.0-113.0", "trial": 4, "time_elapsed": 727397, "serialpos": 1, "key_press": -1, "wordID": 1608, "type": "PRES_VIS", "trial_index": 158}, "uniqueid": "MTK3309:3YDTZAI2WYNLMHOVOIQ6M3TSWU2146", "dateTime": 1520352638607}, {"current_trial": 159, "trialdata": {"rt": -1, "trial_type": "single-stim", "word": "cashew", "stimulus": "<p id=\"stim\">CASHEW</p>", "conditions": [12, 800, "v", 12000], "internal_node_id": "0.0-114.0", "trial": 4, "time_elapsed": 729274, "serialpos": 2, "key_press": -1, "wordID": 252, "type": "PRES_VIS", "trial_index": 159}, "uniqueid": "MTK3309:3YDTZAI2WYNLMHOVOIQ6M3TSWU2146", "dateTime": 1520352640484}, {"current_trial": 160, "trialdata": {"rt": -1, "trial_type": "single-stim", "word": "fleet", "stimulus": "<p id=\"stim\">FLEET</p>", "conditions": [12, 800, "v", 12000], "internal_node_id": "0.0-115.0", "trial": 4, "time_elapsed": 731241, "serialpos": 3, "key_press": -1, "wordID": 577, "type": "PRES_VIS", "trial_index": 160}, "uniqueid": "MTK3309:3YDTZAI2WYNLMHOVOIQ6M3TSWU2146", "dateTime": 1520352642451}, {"current_trial": 161, "trialdata": {"rt": -1, "trial_type": "single-stim", "word": "chauffeur", "stimulus": "<p id=\"stim\">CHAUFFEUR</p>", "conditions": [12, 800, "v", 12000], "internal_node_id": "0.0-116.0", "trial": 4, "time_elapsed": 733055, "serialpos": 4, "key_press": -1, "wordID": 282, "type": "PRES_VIS", "trial_index": 161}, "uniqueid": "MTK3309:3YDTZAI2WYNLMHOVOIQ6M3TSWU2146", "dateTime": 1520352644265}, {"current_trial": 162, "trialdata": {"rt": -1, "trial_type": "single-stim", "word": "plaid", "stimulus": "<p id=\"stim\">PLAID</p>", "conditions": [12, 800, "v", 12000], "internal_node_id": "0.0-117.0", "trial": 4, "time_elapsed": 734806, "serialpos": 5, "key_press": -1, "wordID": 1079, "type": "PRES_VIS", "trial_index": 162}, "uniqueid": "MTK3309:3YDTZAI2WYNLMHOVOIQ6M3TSWU2146", "dateTime": 1520352646016}, {"current_trial": 163, "trialdata": {"rt": -1, "trial_type": "single-stim", "word": "cyclone", "stimulus": "<p id=\"stim\">CYCLONE</p>", "conditions": [12, 800, "v", 12000], "internal_node_id": "0.0-118.0", "trial": 4, "time_elapsed": 736527, "serialpos": 6, "key_press": -1, "wordID": 430, "type": "PRES_VIS", "trial_index": 163}, "uniqueid": "MTK3309:3YDTZAI2WYNLMHOVOIQ6M3TSWU2146", "dateTime": 1520352647737}, {"current_trial": 164, "trialdata": {"rt": -1, "trial_type": "single-stim", "word": "dress", "stimulus": "<p id=\"stim\">DRESS</p>", "conditions": [12, 800, "v", 12000], "internal_node_id": "0.0-119.0", "trial": 4, "time_elapsed": 738365, "serialpos": 7, "key_press": -1, "wordID": 494, "type": "PRES_VIS", "trial_index": 164}, "uniqueid": "MTK3309:3YDTZAI2WYNLMHOVOIQ6M3TSWU2146", "dateTime": 1520352649575}, {"current_trial": 165, "trialdata": {"rt": -1, "trial_type": "single-stim", "word": "trout", "stimulus": "<p id=\"stim\">TROUT</p>", "conditions": [12, 800, "v", 12000], "internal_node_id": "0.0-120.0", "trial": 4, "time_elapsed": 740051, "serialpos": 8, "key_press": -1, "wordID": 1510, "type": "PRES_VIS", "trial_index": 165}, "uniqueid": "MTK3309:3YDTZAI2WYNLMHOVOIQ6M3TSWU2146", "dateTime": 1520352651261}, {"current_trial": 166, "trialdata": {"rt": -1, "trial_type": "single-stim", "word": "bison", "stimulus": "<p id=\"stim\">BISON</p>", "conditions": [12, 800, "v", 12000], "internal_node_id": "0.0-121.0", "trial": 4, "time_elapsed": 741804, "serialpos": 9, "key_press": -1, "wordID": 130, "type": "PRES_VIS", "trial_index": 166}, "uniqueid": "MTK3309:3YDTZAI2WYNLMHOVOIQ6M3TSWU2146", "dateTime": 1520352653014}, {"current_trial": 167, "trialdata": {"rt": -1, "trial_type": "single-stim", "word": "wardrobe", "stimulus": "<p id=\"stim\">WARDROBE</p>", "conditions": [12, 800, "v", 12000], "internal_node_id": "0.0-122.0", "trial": 4, "time_elapsed": 743686, "serialpos": 10, "key_press": -1, "wordID": 1586, "type": "PRES_VIS", "trial_index": 167}, "uniqueid": "MTK3309:3YDTZAI2WYNLMHOVOIQ6M3TSWU2146", "dateTime": 1520352654896}, {"current_trial": 168, "trialdata": {"rt": -1, "trial_type": "single-stim", "word": "leg", "stimulus": "<p id=\"stim\">LEG</p>", "conditions": [12, 800, "v", 12000], "internal_node_id": "0.0-123.0", "trial": 4, "time_elapsed": 745499, "serialpos": 11, "key_press": -1, "wordID": 808, "type": "PRES_VIS", "trial_index": 168}, "uniqueid": "MTK3309:3YDTZAI2WYNLMHOVOIQ6M3TSWU2146", "dateTime": 1520352656709}, {"current_trial": 169, "trialdata": {"rt": -1, "trial_type": "single-stim", "stimulus": "", "internal_node_id": "0.0-124.0-0.0", "time_elapsed": 747701, "key_press": -1, "type": "PRE_RECALL_DELAY", "trial_index": 169}, "uniqueid": "MTK3309:3YDTZAI2WYNLMHOVOIQ6M3TSWU2146", "dateTime": 1520352658911}, {"current_trial": 170, "trialdata": {"rt": -1000, "trial_type": "single-audio", "stimulus": "/static/audio/400Hz.wav", "internal_node_id": "0.0-125.0", "time_elapsed": 748201, "key_press": -1, "type": "PRE_RECALL_ALERT", "trial_index": 170}, "uniqueid": "MTK3309:3YDTZAI2WYNLMHOVOIQ6M3TSWU2146", "dateTime": 1520352659411}, {"current_trial": 171, "trialdata": {"rt": [4256, 5488, 6528, 8416, 11137, 12672, 26529, 28672, 31452], "recwords": ["wardrobe", "leg", "bison", "chauffer", "daughter", "fleet", "dress", "bison", "trout"], "key_times": [721, 912, 1104, 1328, 1570, 2011, 2496, 2736, 3297, 3424, 3937, 4112, 4256, 5136, 5233, 5392, 5488, 5760, 5936, 6032, 6128, 6288, 6528, 7056, 7188, 7265, 7488, 7649, 7776, 7920, 7984, 8416, 9617, 9809, 9937, 10016, 10113, 10238, 10369, 10449, 11137, 11985, 12112, 12177, 12353, 12499, 12672, 25776, 25937, 26032, 26257, 26401, 26529, 27648, 27777, 27888, 28001, 28464, 28672, 30908, 31084, 31196, 31244, 31359, 31452], "trial_type": "free-recall", "conditions": [12, 800, "v", 12000], "internal_node_id": "0.0-126.0-0.0", "key_presses": [87, 65, 82, 68, 82, 79, 78, 69, 8, 8, 66, 69, 13, 76, 69, 71, 13, 66, 73, 83, 79, 78, 13, 67, 72, 65, 85, 70, 70, 69, 82, 13, 68, 65, 85, 71, 72, 84, 69, 82, 13, 70, 76, 69, 69, 84, 13, 68, 82, 69, 83, 83, 13, 66, 73, 83, 79, 78, 13, 84, 82, 79, 85, 84, 13], "trial": 4, "time_elapsed": 808199, "type": "FREE_RECALL", "trial_index": 171}, "uniqueid": "MTK3309:3YDTZAI2WYNLMHOVOIQ6M3TSWU2146", "dateTime": 1520352719413}, {"current_trial": 172, "trialdata": {"rt": 1451, "trial_type": "text", "internal_node_id": "0.0-127.0", "time_elapsed": 811656, "key_press": 13, "type": "INSTRUCTIONS", "trial_index": 172}, "uniqueid": "MTK3309:3YDTZAI2WYNLMHOVOIQ6M3TSWU2146", "dateTime": 1520352722866}, {"current_trial": 173, "trialdata": {"rt": [2220, 3981, 6892, 8396, 10400, 12828, 16124, 17468, 20172, 21756, 23836], "trial_type": "math-distractor", "key_times": [1692, 1900, 2220, 3756, 3804, 3981, 6508, 6684, 6892, 8093, 8253, 8396, 10029, 10204, 10400, 12572, 12700, 12828, 15837, 15948, 16124, 17341, 17468, 19869, 20012, 20172, 21500, 21628, 21756, 23580, 23692, 23836], "responses": ["14", "10", "13", "16", "15", "11", "15", "5", "15", "16", "16"], "num2": [1, 2, 5, 7, 6, 6, 5, 2, 4, 8, 6, 2], "num3": [6, 1, 2, 2, 3, 1, 7, 2, 8, 6, 3, 5], "conditions": [12, 1600, "v", 24000], "internal_node_id": "0.0-128.0", "key_presses": [97, 100, 13, 97, 96, 13, 97, 99, 13, 97, 102, 13, 97, 101, 13, 97, 97, 13, 97, 101, 13, 101, 13, 97, 101, 13, 97, 102, 13, 97, 102, 13], "trial": 5, "time_elapsed": 837659, "type": "DISTRACTOR", "trial_index": 173, "num1": [7, 7, 6, 7, 6, 4, 3, 1, 3, 2, 7, 5]}, "uniqueid": "MTK3309:3YDTZAI2WYNLMHOVOIQ6M3TSWU2146", "dateTime": 1520352748869}, {"current_trial": 174, "trialdata": {"rt": -1, "trial_type": "single-stim", "stimulus": "<p id=\"stim\">10</p>", "internal_node_id": "0.0-129.0-0.0", "time_elapsed": 840656, "key_press": -1, "trial_index": 174}, "uniqueid": "MTK3309:3YDTZAI2WYNLMHOVOIQ6M3TSWU2146", "dateTime": 1520352751867}, {"current_trial": 175, "trialdata": {"rt": -1, "trial_type": "single-stim", "stimulus": "<p id=\"stim\">9</p>", "internal_node_id": "0.0-129.0-1.0", "time_elapsed": 841657, "key_press": -1, "trial_index": 175}, "uniqueid": "MTK3309:3YDTZAI2WYNLMHOVOIQ6M3TSWU2146", "dateTime": 1520352752867}, {"current_trial": 176, "trialdata": {"rt": -1, "trial_type": "single-stim", "stimulus": "<p id=\"stim\">8</p>", "internal_node_id": "0.0-129.0-2.0", "time_elapsed": 842658, "key_press": -1, "trial_index": 176}, "uniqueid": "MTK3309:3YDTZAI2WYNLMHOVOIQ6M3TSWU2146", "dateTime": 1520352753868}, {"current_trial": 177, "trialdata": {"rt": -1, "trial_type": "single-stim", "stimulus": "<p id=\"stim\">7</p>", "internal_node_id": "0.0-129.0-3.0", "time_elapsed": 843659, "key_press": -1, "trial_index": 177}, "uniqueid": "MTK3309:3YDTZAI2WYNLMHOVOIQ6M3TSWU2146", "dateTime": 1520352754869}, {"current_trial": 178, "trialdata": {"rt": -1, "trial_type": "single-stim", "stimulus": "<p id=\"stim\">6</p>", "internal_node_id": "0.0-129.0-4.0", "time_elapsed": 844660, "key_press": -1, "trial_index": 178}, "uniqueid": "MTK3309:3YDTZAI2WYNLMHOVOIQ6M3TSWU2146", "dateTime": 1520352755871}, {"current_trial": 179, "trialdata": {"rt": -1, "trial_type": "single-stim", "stimulus": "<p id=\"stim\">5</p>", "internal_node_id": "0.0-129.0-5.0", "time_elapsed": 845661, "key_press": -1, "trial_index": 179}, "uniqueid": "MTK3309:3YDTZAI2WYNLMHOVOIQ6M3TSWU2146", "dateTime": 1520352756872}, {"current_trial": 180, "trialdata": {"rt": -1, "trial_type": "single-stim", "stimulus": "<p id=\"stim\">4</p>", "internal_node_id": "0.0-129.0-6.0", "time_elapsed": 846662, "key_press": -1, "trial_index": 180}, "uniqueid": "MTK3309:3YDTZAI2WYNLMHOVOIQ6M3TSWU2146", "dateTime": 1520352757872}, {"current_trial": 181, "trialdata": {"rt": -1, "trial_type": "single-stim", "stimulus": "<p id=\"stim\">3</p>", "internal_node_id": "0.0-129.0-7.0", "time_elapsed": 847663, "key_press": -1, "trial_index": 181}, "uniqueid": "MTK3309:3YDTZAI2WYNLMHOVOIQ6M3TSWU2146", "dateTime": 1520352758873}, {"current_trial": 182, "trialdata": {"rt": -1, "trial_type": "single-stim", "stimulus": "<p id=\"stim\">2</p>", "internal_node_id": "0.0-129.0-8.0", "time_elapsed": 848664, "key_press": -1, "trial_index": 182}, "uniqueid": "MTK3309:3YDTZAI2WYNLMHOVOIQ6M3TSWU2146", "dateTime": 1520352759874}, {"current_trial": 183, "trialdata": {"rt": -1, "trial_type": "single-stim", "stimulus": "<p id=\"stim\">1</p>", "internal_node_id": "0.0-129.0-9.0", "time_elapsed": 849665, "key_press": -1, "trial_index": 183}, "uniqueid": "MTK3309:3YDTZAI2WYNLMHOVOIQ6M3TSWU2146", "dateTime": 1520352760875}, {"current_trial": 184, "trialdata": {"rt": -1, "trial_type": "single-stim", "stimulus": "<p id=\"stim\">+</p>", "internal_node_id": "0.0-130.0-0.0", "time_elapsed": 851166, "key_press": -1, "type": "FIXATION", "trial_index": 184}, "uniqueid": "MTK3309:3YDTZAI2WYNLMHOVOIQ6M3TSWU2146", "dateTime": 1520352762376}, {"current_trial": 185, "trialdata": {"rt": -1, "trial_type": "single-stim", "word": "twister", "stimulus": "<p id=\"stim\">TWISTER</p>", "conditions": [12, 1600, "v", 24000], "internal_node_id": "0.0-131.0", "trial": 5, "time_elapsed": 852768, "serialpos": 0, "key_press": -1, "wordID": 1529, "type": "PRES_VIS", "trial_index": 185}, "uniqueid": "MTK3309:3YDTZAI2WYNLMHOVOIQ6M3TSWU2146", "dateTime": 1520352763978}, {"current_trial": 186, "trialdata": {"rt": -1, "trial_type": "single-stim", "word": "frame", "stimulus": "<p id=\"stim\">FRAME</p>", "conditions": [12, 1600, "v", 24000], "internal_node_id": "0.0-132.0", "trial": 5, "time_elapsed": 855559, "serialpos": 1, "key_press": -1, "wordID": 599, "type": "PRES_VIS", "trial_index": 186}, "uniqueid": "MTK3309:3YDTZAI2WYNLMHOVOIQ6M3TSWU2146", "dateTime": 1520352766769}, {"current_trial": 187, "trialdata": {"rt": -1, "trial_type": "single-stim", "word": "thread", "stimulus": "<p id=\"stim\">THREAD</p>", "conditions": [12, 1600, "v", 24000], "internal_node_id": "0.0-133.0", "trial": 5, "time_elapsed": 858130, "serialpos": 2, "key_press": -1, "wordID": 1459, "type": "PRES_VIS", "trial_index": 187}, "uniqueid": "MTK3309:3YDTZAI2WYNLMHOVOIQ6M3TSWU2146", "dateTime": 1520352769340}, {"current_trial": 188, "trialdata": {"rt": -1, "trial_type": "single-stim", "word": "pliers", "stimulus": "<p id=\"stim\">PLIERS</p>", "conditions": [12, 1600, "v", 24000], "internal_node_id": "0.0-134.0", "trial": 5, "time_elapsed": 860637, "serialpos": 3, "key_press": -1, "wordID": 1088, "type": "PRES_VIS", "trial_index": 188}, "uniqueid": "MTK3309:3YDTZAI2WYNLMHOVOIQ6M3TSWU2146", "dateTime": 1520352771847}, {"current_trial": 189, "trialdata": {"rt": -1, "trial_type": "single-stim", "word": "thief", "stimulus": "<p id=\"stim\">THIEF</p>", "conditions": [12, 1600, "v", 24000], "internal_node_id": "0.0-135.0", "trial": 5, "time_elapsed": 863126, "serialpos": 4, "key_press": -1, "wordID": 1455, "type": "PRES_VIS", "trial_index": 189}, "uniqueid": "MTK3309:3YDTZAI2WYNLMHOVOIQ6M3TSWU2146", "dateTime": 1520352774338}, {"current_trial": 190, "trialdata": {"rt": -1, "trial_type": "single-stim", "word": "snack", "stimulus": "<p id=\"stim\">SNACK</p>", "conditions": [12, 1600, "v", 24000], "internal_node_id": "0.0-136.0", "trial": 5, "time_elapsed": 865885, "serialpos": 5, "key_press": -1, "wordID": 1330, "type": "PRES_VIS", "trial_index": 190}, "uniqueid": "MTK3309:3YDTZAI2WYNLMHOVOIQ6M3TSWU2146", "dateTime": 1520352777095}, {"current_trial": 191, "trialdata": {"rt": -1, "trial_type": "single-stim", "word": "pizza", "stimulus": "<p id=\"stim\">PIZZA</p>", "conditions": [12, 1600, "v", 24000], "internal_node_id": "0.0-137.0", "trial": 5, "time_elapsed": 868654, "serialpos": 6, "key_press": -1, "wordID": 1078, "type": "PRES_VIS", "trial_index": 191}, "uniqueid": "MTK3309:3YDTZAI2WYNLMHOVOIQ6M3TSWU2146", "dateTime": 1520352779864}, {"current_trial": 192, "trialdata": {"rt": -1, "trial_type": "single-stim", "word": "scalpel", "stimulus": "<p id=\"stim\">SCALPEL</p>", "conditions": [12, 1600, "v", 24000], "internal_node_id": "0.0-138.0", "trial": 5, "time_elapsed": 871169, "serialpos": 7, "key_press": -1, "wordID": 1242, "type": "PRES_VIS", "trial_index": 192}, "uniqueid": "MTK3309:3YDTZAI2WYNLMHOVOIQ6M3TSWU2146", "dateTime": 1520352782379}, {"current_trial": 193, "trialdata": {"rt": -1, "trial_type": "single-stim", "word": "robot", "stimulus": "<p id=\"stim\">ROBOT</p>", "conditions": [12, 1600, "v", 24000], "internal_node_id": "0.0-139.0", "trial": 5, "time_elapsed": 873640, "serialpos": 8, "key_press": -1, "wordID": 1199, "type": "PRES_VIS", "trial_index": 193}, "uniqueid": "MTK3309:3YDTZAI2WYNLMHOVOIQ6M3TSWU2146", "dateTime": 1520352784850}, {"current_trial": 194, "trialdata": {"rt": -1, "trial_type": "single-stim", "word": "widow", "stimulus": "<p id=\"stim\">WIDOW</p>", "conditions": [12, 1600, "v", 24000], "internal_node_id": "0.0-140.0", "trial": 5, "time_elapsed": 876342, "serialpos": 9, "key_press": -1, "wordID": 1607, "type": "PRES_VIS", "trial_index": 194}, "uniqueid": "MTK3309:3YDTZAI2WYNLMHOVOIQ6M3TSWU2146", "dateTime": 1520352787552}, {"current_trial": 195, "trialdata": {"rt": -1, "trial_type": "single-stim", "word": "razor", "stimulus": "<p id=\"stim\">RAZOR</p>", "conditions": [12, 1600, "v", 24000], "internal_node_id": "0.0-141.0", "trial": 5, "time_elapsed": 878859, "serialpos": 10, "key_press": -1, "wordID": 1170, "type": "PRES_VIS", "trial_index": 195}, "uniqueid": "MTK3309:3YDTZAI2WYNLMHOVOIQ6M3TSWU2146", "dateTime": 1520352790069}, {"current_trial": 196, "trialdata": {"rt": -1, "trial_type": "single-stim", "word": "fiddle", "stimulus": "<p id=\"stim\">FIDDLE</p>", "conditions": [12, 1600, "v", 24000], "internal_node_id": "0.0-142.0", "trial": 5, "time_elapsed": 881273, "serialpos": 11, "key_press": -1, "wordID": 560, "type": "PRES_VIS", "trial_index": 196}, "uniqueid": "MTK3309:3YDTZAI2WYNLMHOVOIQ6M3TSWU2146", "dateTime": 1520352792484}, {"current_trial": 197, "trialdata": {"rt": -1, "trial_type": "single-stim", "stimulus": "", "internal_node_id": "0.0-143.0-0.0", "time_elapsed": 883481, "key_press": -1, "type": "PRE_RECALL_DELAY", "trial_index": 197}, "uniqueid": "MTK3309:3YDTZAI2WYNLMHOVOIQ6M3TSWU2146", "dateTime": 1520352794691}, {"current_trial": 198, "trialdata": {"rt": -1000, "trial_type": "single-audio", "stimulus": "/static/audio/400Hz.wav", "internal_node_id": "0.0-144.0", "time_elapsed": 883982, "key_press": -1, "type": "PRE_RECALL_ALERT", "trial_index": 198}, "uniqueid": "MTK3309:3YDTZAI2WYNLMHOVOIQ6M3TSWU2146", "dateTime": 1520352795192}, {"current_trial": 199, "trialdata": {"rt": [2291, 4035, 5347, 6963, 9139, 11459, 12804, 28431], "recwords": ["twister", "frame", "thread", "pliers", "razor", "snack", "pizza", "widow"], "key_times": [644, 851, 1363, 1491, 1635, 1987, 2051, 2291, 3091, 3251, 3412, 3571, 3667, 4035, 4339, 4419, 4515, 4644, 4819, 5011, 5347, 5907, 6004, 6275, 6339, 6404, 6613, 6963, 7747, 7828, 8070, 8211, 8803, 9139, 10595, 10707, 10819, 10979, 11059, 11459, 12003, 12067, 12183, 12339, 12532, 12804, 27777, 27887, 27989, 28111, 28255, 28431], "trial_type": "free-recall", "conditions": [12, 1600, "v", 24000], "internal_node_id": "0.0-145.0-0.0", "key_presses": [84, 87, 73, 83, 84, 69, 82, 13, 70, 82, 65, 77, 69, 13, 84, 72, 82, 69, 65, 68, 13, 80, 76, 73, 69, 82, 83, 13, 82, 65, 90, 79, 82, 13, 83, 78, 65, 67, 75, 13, 80, 73, 90, 90, 65, 13, 87, 73, 68, 79, 87, 13], "trial": 5, "time_elapsed": 943981, "type": "FREE_RECALL", "trial_index": 199}, "uniqueid": "MTK3309:3YDTZAI2WYNLMHOVOIQ6M3TSWU2146", "dateTime": 1520352855194}, {"current_trial": 200, "trialdata": {"rt": 9903, "trial_type": "text", "internal_node_id": "0.0-146.0", "time_elapsed": 955888, "key_press": 13, "type": "INSTRUCTIONS", "trial_index": 200}, "uniqueid": "MTK3309:3YDTZAI2WYNLMHOVOIQ6M3TSWU2146", "dateTime": 1520352867098}, {"current_trial": 201, "trialdata": {"rt": [2187, 4715, 8027, 9500, 11644], "trial_type": "math-distractor", "key_times": [1963, 2011, 2187, 4411, 4507, 4715, 6587, 6636, 7549, 7803, 8027, 9180, 9324, 9500, 11436, 11483, 11644], "responses": ["20", "18", "11", "19", "10"], "num2": [9, 3, 4, 5, 6, 1], "num3": [9, 7, 6, 9, 2, 2], "conditions": [12, 800, "v", 12000], "internal_node_id": "0.0-147.0", "key_presses": [98, 96, 13, 97, 104, 13, 97, 96, 8, 97, 13, 97, 105, 13, 97, 96, 13], "trial": 6, "time_elapsed": 969887, "type": "DISTRACTOR", "trial_index": 201, "num1": [2, 8, 1, 5, 2, 1]}, "uniqueid": "MTK3309:3YDTZAI2WYNLMHOVOIQ6M3TSWU2146", "dateTime": 1520352881097}, {"current_trial": 202, "trialdata": {"rt": -1, "trial_type": "single-stim", "stimulus": "<p id=\"stim\">10</p>", "internal_node_id": "0.0-148.0-0.0", "time_elapsed": 972887, "key_press": -1, "trial_index": 202}, "uniqueid": "MTK3309:3YDTZAI2WYNLMHOVOIQ6M3TSWU2146", "dateTime": 1520352884097}, {"current_trial": 203, "trialdata": {"rt": -1, "trial_type": "single-stim", "stimulus": "<p id=\"stim\">9</p>", "internal_node_id": "0.0-148.0-1.0", "time_elapsed": 973888, "key_press": -1, "trial_index": 203}, "uniqueid": "MTK3309:3YDTZAI2WYNLMHOVOIQ6M3TSWU2146", "dateTime": 1520352885099}, {"current_trial": 204, "trialdata": {"rt": -1, "trial_type": "single-stim", "stimulus": "<p id=\"stim\">8</p>", "internal_node_id": "0.0-148.0-2.0", "time_elapsed": 974889, "key_press": -1, "trial_index": 204}, "uniqueid": "MTK3309:3YDTZAI2WYNLMHOVOIQ6M3TSWU2146", "dateTime": 1520352886099}, {"current_trial": 205, "trialdata": {"rt": -1, "trial_type": "single-stim", "stimulus": "<p id=\"stim\">7</p>", "internal_node_id": "0.0-148.0-3.0", "time_elapsed": 975889, "key_press": -1, "trial_index": 205}, "uniqueid": "MTK3309:3YDTZAI2WYNLMHOVOIQ6M3TSWU2146", "dateTime": 1520352887099}, {"current_trial": 206, "trialdata": {"rt": -1, "trial_type": "single-stim", "stimulus": "<p id=\"stim\">6</p>", "internal_node_id": "0.0-148.0-4.0", "time_elapsed": 976890, "key_press": -1, "trial_index": 206}, "uniqueid": "MTK3309:3YDTZAI2WYNLMHOVOIQ6M3TSWU2146", "dateTime": 1520352888100}, {"current_trial": 207, "trialdata": {"rt": -1, "trial_type": "single-stim", "stimulus": "<p id=\"stim\">5</p>", "internal_node_id": "0.0-148.0-5.0", "time_elapsed": 977891, "key_press": -1, "trial_index": 207}, "uniqueid": "MTK3309:3YDTZAI2WYNLMHOVOIQ6M3TSWU2146", "dateTime": 1520352889102}, {"current_trial": 208, "trialdata": {"rt": -1, "trial_type": "single-stim", "stimulus": "<p id=\"stim\">4</p>", "internal_node_id": "0.0-148.0-6.0", "time_elapsed": 978892, "key_press": -1, "trial_index": 208}, "uniqueid": "MTK3309:3YDTZAI2WYNLMHOVOIQ6M3TSWU2146", "dateTime": 1520352890104}, {"current_trial": 209, "trialdata": {"rt": -1, "trial_type": "single-stim", "stimulus": "<p id=\"stim\">3</p>", "internal_node_id": "0.0-148.0-7.0", "time_elapsed": 979895, "key_press": -1, "trial_index": 209}, "uniqueid": "MTK3309:3YDTZAI2WYNLMHOVOIQ6M3TSWU2146", "dateTime": 1520352891105}, {"current_trial": 210, "trialdata": {"rt": -1, "trial_type": "single-stim", "stimulus": "<p id=\"stim\">2</p>", "internal_node_id": "0.0-148.0-8.0", "time_elapsed": 980896, "key_press": -1, "trial_index": 210}, "uniqueid": "MTK3309:3YDTZAI2WYNLMHOVOIQ6M3TSWU2146", "dateTime": 1520352892106}, {"current_trial": 211, "trialdata": {"rt": -1, "trial_type": "single-stim", "stimulus": "<p id=\"stim\">1</p>", "internal_node_id": "0.0-148.0-9.0", "time_elapsed": 981897, "key_press": -1, "trial_index": 211}, "uniqueid": "MTK3309:3YDTZAI2WYNLMHOVOIQ6M3TSWU2146", "dateTime": 1520352893107}, {"current_trial": 212, "trialdata": {"rt": -1, "trial_type": "single-stim", "stimulus": "<p id=\"stim\">+</p>", "internal_node_id": "0.0-149.0-0.0", "time_elapsed": 983397, "key_press": -1, "type": "FIXATION", "trial_index": 212}, "uniqueid": "MTK3309:3YDTZAI2WYNLMHOVOIQ6M3TSWU2146", "dateTime": 1520352894607}, {"current_trial": 213, "trialdata": {"rt": -1, "trial_type": "single-stim", "word": "cabbage", "stimulus": "<p id=\"stim\">CABBAGE</p>", "conditions": [12, 800, "v", 12000], "internal_node_id": "0.0-150.0", "trial": 6, "time_elapsed": 984199, "serialpos": 0, "key_press": -1, "wordID": 209, "type": "PRES_VIS", "trial_index": 213}, "uniqueid": "MTK3309:3YDTZAI2WYNLMHOVOIQ6M3TSWU2146", "dateTime": 1520352895409}, {"current_trial": 214, "trialdata": {"rt": -1, "trial_type": "single-stim", "word": "cookbook", "stimulus": "<p id=\"stim\">COOKBOOK</p>", "conditions": [12, 800, "v", 12000], "internal_node_id": "0.0-151.0", "trial": 6, "time_elapsed": 986143, "serialpos": 1, "key_press": -1, "wordID": 372, "type": "PRES_VIS", "trial_index": 214}, "uniqueid": "MTK3309:3YDTZAI2WYNLMHOVOIQ6M3TSWU2146", "dateTime": 1520352897353}, {"current_trial": 215, "trialdata": {"rt": -1, "trial_type": "single-stim", "word": "child", "stimulus": "<p id=\"stim\">CHILD</p>", "conditions": [12, 800, "v", 12000], "internal_node_id": "0.0-152.0", "trial": 6, "time_elapsed": 988048, "serialpos": 2, "key_press": -1, "wordID": 298, "type": "PRES_VIS", "trial_index": 215}, "uniqueid": "MTK3309:3YDTZAI2WYNLMHOVOIQ6M3TSWU2146", "dateTime": 1520352899258}, {"current_trial": 216, "trialdata": {"rt": -1, "trial_type": "single-stim", "word": "girl", "stimulus": "<p id=\"stim\">GIRL</p>", "conditions": [12, 800, "v", 12000], "internal_node_id": "0.0-153.0", "trial": 6, "time_elapsed": 989709, "serialpos": 3, "key_press": -1, "wordID": 636, "type": "PRES_VIS", "trial_index": 216}, "uniqueid": "MTK3309:3YDTZAI2WYNLMHOVOIQ6M3TSWU2146", "dateTime": 1520352900919}, {"current_trial": 217, "trialdata": {"rt": -1, "trial_type": "single-stim", "word": "turnip", "stimulus": "<p id=\"stim\">TURNIP</p>", "conditions": [12, 800, "v", 12000], "internal_node_id": "0.0-154.0", "trial": 6, "time_elapsed": 991560, "serialpos": 4, "key_press": -1, "wordID": 1520, "type": "PRES_VIS", "trial_index": 217}, "uniqueid": "MTK3309:3YDTZAI2WYNLMHOVOIQ6M3TSWU2146", "dateTime": 1520352902770}, {"current_trial": 218, "trialdata": {"rt": -1, "trial_type": "single-stim", "word": "scotch", "stimulus": "<p id=\"stim\">SCOTCH</p>", "conditions": [12, 800, "v", 12000], "internal_node_id": "0.0-155.0", "trial": 6, "time_elapsed": 993535, "serialpos": 5, "key_press": -1, "wordID": 1250, "type": "PRES_VIS", "trial_index": 218}, "uniqueid": "MTK3309:3YDTZAI2WYNLMHOVOIQ6M3TSWU2146", "dateTime": 1520352904745}, {"current_trial": 219, "trialdata": {"rt": -1, "trial_type": "single-stim", "word": "glass", "stimulus": "<p id=\"stim\">GLASS</p>", "conditions": [12, 800, "v", 12000], "internal_node_id": "0.0-156.0", "trial": 6, "time_elapsed": 995479, "serialpos": 6, "key_press": -1, "wordID": 638, "type": "PRES_VIS", "trial_index": 219}, "uniqueid": "MTK3309:3YDTZAI2WYNLMHOVOIQ6M3TSWU2146", "dateTime": 1520352906689}, {"current_trial": 220, "trialdata": {"rt": -1, "trial_type": "single-stim", "word": "guitar", "stimulus": "<p id=\"stim\">GUITAR</p>", "conditions": [12, 800, "v", 12000], "internal_node_id": "0.0-157.0", "trial": 6, "time_elapsed": 997407, "serialpos": 7, "key_press": -1, "wordID": 669, "type": "PRES_VIS", "trial_index": 220}, "uniqueid": "MTK3309:3YDTZAI2WYNLMHOVOIQ6M3TSWU2146", "dateTime": 1520352908617}, {"current_trial": 221, "trialdata": {"rt": -1, "trial_type": "single-stim", "word": "catcher", "stimulus": "<p id=\"stim\">CATCHER</p>", "conditions": [12, 800, "v", 12000], "internal_node_id": "0.0-158.0", "trial": 6, "time_elapsed": 999334, "serialpos": 8, "key_press": -1, "wordID": 257, "type": "PRES_VIS", "trial_index": 221}, "uniqueid": "MTK3309:3YDTZAI2WYNLMHOVOIQ6M3TSWU2146", "dateTime": 1520352910544}, {"current_trial": 222, "trialdata": {"rt": -1, "trial_type": "single-stim", "word": "ointment", "stimulus": "<p id=\"stim\">OINTMENT</p>", "conditions": [12, 800, "v", 12000], "internal_node_id": "0.0-159.0", "trial": 6, "time_elapsed": 1001323, "serialpos": 9, "key_press": -1, "wordID": 973, "type": "PRES_VIS", "trial_index": 222}, "uniqueid": "MTK3309:3YDTZAI2WYNLMHOVOIQ6M3TSWU2146", "dateTime": 1520352912533}, {"current_trial": 223, "trialdata": {"rt": -1, "trial_type": "single-stim", "word": "pocket", "stimulus": "<p id=\"stim\">POCKET</p>", "conditions": [12, 800, "v", 12000], "internal_node_id": "0.0-160.0", "trial": 6, "time_elapsed": 1003030, "serialpos": 10, "key_press": -1, "wordID": 1092, "type": "PRES_VIS", "trial_index": 223}, "uniqueid": "MTK3309:3YDTZAI2WYNLMHOVOIQ6M3TSWU2146", "dateTime": 1520352914240}, {"current_trial": 224, "trialdata": {"rt": -1, "trial_type": "single-stim", "word": "honey", "stimulus": "<p id=\"stim\">HONEY</p>", "conditions": [12, 800, "v", 12000], "internal_node_id": "0.0-161.0", "trial": 6, "time_elapsed": 1004945, "serialpos": 11, "key_press": -1, "wordID": 712, "type": "PRES_VIS", "trial_index": 224}, "uniqueid": "MTK3309:3YDTZAI2WYNLMHOVOIQ6M3TSWU2146", "dateTime": 1520352916155}, {"current_trial": 225, "trialdata": {"rt": -1, "trial_type": "single-stim", "stimulus": "", "internal_node_id": "0.0-162.0-0.0", "time_elapsed": 1007413, "key_press": -1, "type": "PRE_RECALL_DELAY", "trial_index": 225}, "uniqueid": "MTK3309:3YDTZAI2WYNLMHOVOIQ6M3TSWU2146", "dateTime": 1520352918623}, {"current_trial": 226, "trialdata": {"rt": -1000, "trial_type": "single-audio", "stimulus": "/static/audio/400Hz.wav", "internal_node_id": "0.0-163.0", "time_elapsed": 1007914, "key_press": -1, "type": "PRE_RECALL_ALERT", "trial_index": 226}, "uniqueid": "MTK3309:3YDTZAI2WYNLMHOVOIQ6M3TSWU2146", "dateTime": 1520352919124}, {"current_trial": 227, "trialdata": {"rt": [3071, 4335, 5167, 6848, 9023, 54492], "recwords": ["ointment", "honey", "child", "girl", "cabbage", "chef"], "key_times": [1024, 1151, 1375, 1615, 1983, 2095, 2216, 2335, 3071, 3583, 3775, 3935, 4031, 4127, 4335, 4527, 4639, 4687, 4912, 5043, 5167, 6303, 6399, 6511, 6655, 6848, 7824, 8031, 8224, 8352, 8479, 8687, 8911, 9023, 53981, 54158, 54269, 54412, 54492], "trial_type": "free-recall", "conditions": [12, 800, "v", 12000], "internal_node_id": "0.0-164.0-0.0", "key_presses": [79, 73, 78, 84, 77, 69, 78, 84, 13, 72, 79, 78, 69, 89, 13, 67, 72, 73, 76, 68, 13, 71, 73, 82, 76, 13, 67, 65, 66, 66, 65, 71, 69, 13, 67, 72, 69, 70, 13], "trial": 6, "time_elapsed": 1067914, "type": "FREE_RECALL", "trial_index": 227}, "uniqueid": "MTK3309:3YDTZAI2WYNLMHOVOIQ6M3TSWU2146", "dateTime": 1520352979129}, {"current_trial": 228, "trialdata": {"rt": 1210, "trial_type": "text", "internal_node_id": "0.0-165.0", "time_elapsed": 1071129, "key_press": 13, "type": "INSTRUCTIONS", "trial_index": 228}, "uniqueid": "MTK3309:3YDTZAI2WYNLMHOVOIQ6M3TSWU2146", "dateTime": 1520352982339}, {"current_trial": 229, "trialdata": {"rt": [3326, 5454, 7466, 10666], "trial_type": "math-distractor", "key_times": [3134, 3326, 4766, 4942, 5454, 7274, 7466, 10316, 10506, 10666], "responses": ["8", "12", "9", "25"], "num2": [2, 2, 1, 9, 2], "num3": [2, 6, 2, 8, 7], "conditions": [24, 1600, "v", 12000], "internal_node_id": "0.0-166.0", "key_presses": [104, 13, 97, 98, 13, 105, 13, 98, 101, 13], "trial": 7, "time_elapsed": 1085128, "type": "DISTRACTOR", "trial_index": 229, "num1": [4, 4, 6, 8, 3]}, "uniqueid": "MTK3309:3YDTZAI2WYNLMHOVOIQ6M3TSWU2146", "dateTime": 1520352996338}, {"current_trial": 230, "trialdata": {"rt": -1, "trial_type": "single-stim", "stimulus": "<p id=\"stim\">10</p>", "internal_node_id": "0.0-167.0-0.0", "time_elapsed": 1088132, "key_press": -1, "trial_index": 230}, "uniqueid": "MTK3309:3YDTZAI2WYNLMHOVOIQ6M3TSWU2146", "dateTime": 1520352999342}, {"current_trial": 231, "trialdata": {"rt": -1, "trial_type": "single-stim", "stimulus": "<p id=\"stim\">9</p>", "internal_node_id": "0.0-167.0-1.0", "time_elapsed": 1089135, "key_press": -1, "trial_index": 231}, "uniqueid": "MTK3309:3YDTZAI2WYNLMHOVOIQ6M3TSWU2146", "dateTime": 1520353000346}, {"current_trial": 232, "trialdata": {"rt": -1, "trial_type": "single-stim", "stimulus": "<p id=\"stim\">8</p>", "internal_node_id": "0.0-167.0-2.0", "time_elapsed": 1090136, "key_press": -1, "trial_index": 232}, "uniqueid": "MTK3309:3YDTZAI2WYNLMHOVOIQ6M3TSWU2146", "dateTime": 1520353001347}, {"current_trial": 233, "trialdata": {"rt": -1, "trial_type": "single-stim", "stimulus": "<p id=\"stim\">7</p>", "internal_node_id": "0.0-167.0-3.0", "time_elapsed": 1091138, "key_press": -1, "trial_index": 233}, "uniqueid": "MTK3309:3YDTZAI2WYNLMHOVOIQ6M3TSWU2146", "dateTime": 1520353002348}, {"current_trial": 234, "trialdata": {"rt": -1, "trial_type": "single-stim", "stimulus": "<p id=\"stim\">6</p>", "internal_node_id": "0.0-167.0-4.0", "time_elapsed": 1092138, "key_press": -1, "trial_index": 234}, "uniqueid": "MTK3309:3YDTZAI2WYNLMHOVOIQ6M3TSWU2146", "dateTime": 1520353003348}, {"current_trial": 235, "trialdata": {"rt": -1, "trial_type": "single-stim", "stimulus": "<p id=\"stim\">5</p>", "internal_node_id": "0.0-167.0-5.0", "time_elapsed": 1093139, "key_press": -1, "trial_index": 235}, "uniqueid": "MTK3309:3YDTZAI2WYNLMHOVOIQ6M3TSWU2146", "dateTime": 1520353004350}, {"current_trial": 236, "trialdata": {"rt": -1, "trial_type": "single-stim", "stimulus": "<p id=\"stim\">4</p>", "internal_node_id": "0.0-167.0-6.0", "time_elapsed": 1094140, "key_press": -1, "trial_index": 236}, "uniqueid": "MTK3309:3YDTZAI2WYNLMHOVOIQ6M3TSWU2146", "dateTime": 1520353005351}, {"current_trial": 237, "trialdata": {"rt": -1, "trial_type": "single-stim", "stimulus": "<p id=\"stim\">3</p>", "internal_node_id": "0.0-167.0-7.0", "time_elapsed": 1095141, "key_press": -1, "trial_index": 237}, "uniqueid": "MTK3309:3YDTZAI2WYNLMHOVOIQ6M3TSWU2146", "dateTime": 1520353006351}, {"current_trial": 238, "trialdata": {"rt": -1, "trial_type": "single-stim", "stimulus": "<p id=\"stim\">2</p>", "internal_node_id": "0.0-167.0-8.0", "time_elapsed": 1096143, "key_press": -1, "trial_index": 238}, "uniqueid": "MTK3309:3YDTZAI2WYNLMHOVOIQ6M3TSWU2146", "dateTime": 1520353007353}, {"current_trial": 239, "trialdata": {"rt": -1, "trial_type": "single-stim", "stimulus": "<p id=\"stim\">1</p>", "internal_node_id": "0.0-167.0-9.0", "time_elapsed": 1097143, "key_press": -1, "trial_index": 239}, "uniqueid": "MTK3309:3YDTZAI2WYNLMHOVOIQ6M3TSWU2146", "dateTime": 1520353008353}, {"current_trial": 240, "trialdata": {"rt": -1, "trial_type": "single-stim", "stimulus": "<p id=\"stim\">+</p>", "internal_node_id": "0.0-168.0-0.0", "time_elapsed": 1098644, "key_press": -1, "type": "FIXATION", "trial_index": 240}, "uniqueid": "MTK3309:3YDTZAI2WYNLMHOVOIQ6M3TSWU2146", "dateTime": 1520353009855}, {"current_trial": 241, "trialdata": {"rt": -1, "trial_type": "single-stim", "word": "orchid", "stimulus": "<p id=\"stim\">ORCHID</p>", "conditions": [24, 1600, "v", 12000], "internal_node_id": "0.0-169.0", "trial": 7, "time_elapsed": 1100291, "serialpos": 0, "key_press": -1, "wordID": 981, "type": "PRES_VIS", "trial_index": 241}, "uniqueid": "MTK3309:3YDTZAI2WYNLMHOVOIQ6M3TSWU2146", "dateTime": 1520353011502}, {"current_trial": 242, "trialdata": {"rt": -1, "trial_type": "single-stim", "word": "sidewalk", "stimulus": "<p id=\"stim\">SIDEWALK</p>", "conditions": [24, 1600, "v", 12000], "internal_node_id": "0.0-170.0", "trial": 7, "time_elapsed": 1102722, "serialpos": 1, "key_press": -1, "wordID": 1302, "type": "PRES_VIS", "trial_index": 242}, "uniqueid": "MTK3309:3YDTZAI2WYNLMHOVOIQ6M3TSWU2146", "dateTime": 1520353013932}, {"current_trial": 243, "trialdata": {"rt": -1, "trial_type": "single-stim", "word": "ulcer", "stimulus": "<p id=\"stim\">ULCER</p>", "conditions": [24, 1600, "v", 12000], "internal_node_id": "0.0-171.0", "trial": 7, "time_elapsed": 1105178, "serialpos": 2, "key_press": -1, "wordID": 1532, "type": "PRES_VIS", "trial_index": 243}, "uniqueid": "MTK3309:3YDTZAI2WYNLMHOVOIQ6M3TSWU2146", "dateTime": 1520353016389}, {"current_trial": 244, "trialdata": {"rt": -1, "trial_type": "single-stim", "word": "breast", "stimulus": "<p id=\"stim\">BREAST</p>", "conditions": [24, 1600, "v", 12000], "internal_node_id": "0.0-172.0", "trial": 7, "time_elapsed": 1107834, "serialpos": 3, "key_press": -1, "wordID": 170, "type": "PRES_VIS", "trial_index": 244}, "uniqueid": "MTK3309:3YDTZAI2WYNLMHOVOIQ6M3TSWU2146", "dateTime": 1520353019045}, {"current_trial": 245, "trialdata": {"rt": -1, "trial_type": "single-stim", "word": "eyelash", "stimulus": "<p id=\"stim\">EYELASH</p>", "conditions": [24, 1600, "v", 12000], "internal_node_id": "0.0-173.0", "trial": 7, "time_elapsed": 1110236, "serialpos": 4, "key_press": -1, "wordID": 545, "type": "PRES_VIS", "trial_index": 245}, "uniqueid": "MTK3309:3YDTZAI2WYNLMHOVOIQ6M3TSWU2146", "dateTime": 1520353021447}, {"current_trial": 246, "trialdata": {"rt": -1, "trial_type": "single-stim", "word": "shovel", "stimulus": "<p id=\"stim\">SHOVEL</p>", "conditions": [24, 1600, "v", 12000], "internal_node_id": "0.0-174.0", "trial": 7, "time_elapsed": 1112650, "serialpos": 5, "key_press": -1, "wordID": 1294, "type": "PRES_VIS", "trial_index": 246}, "uniqueid": "MTK3309:3YDTZAI2WYNLMHOVOIQ6M3TSWU2146", "dateTime": 1520353023860}, {"current_trial": 247, "trialdata": {"rt": -1, "trial_type": "single-stim", "word": "necklace", "stimulus": "<p id=\"stim\">NECKLACE</p>", "conditions": [24, 1600, "v", 12000], "internal_node_id": "0.0-175.0", "trial": 7, "time_elapsed": 1115232, "serialpos": 6, "key_press": -1, "wordID": 939, "type": "PRES_VIS", "trial_index": 247}, "uniqueid": "MTK3309:3YDTZAI2WYNLMHOVOIQ6M3TSWU2146", "dateTime": 1520353026442}, {"current_trial": 248, "trialdata": {"rt": -1, "trial_type": "single-stim", "word": "lover", "stimulus": "<p id=\"stim\">LOVER</p>", "conditions": [24, 1600, "v", 12000], "internal_node_id": "0.0-176.0", "trial": 7, "time_elapsed": 1117684, "serialpos": 7, "key_press": -1, "wordID": 845, "type": "PRES_VIS", "trial_index": 248}, "uniqueid": "MTK3309:3YDTZAI2WYNLMHOVOIQ6M3TSWU2146", "dateTime": 1520353028894}, {"current_trial": 249, "trialdata": {"rt": -1, "trial_type": "single-stim", "word": "husband", "stimulus": "<p id=\"stim\">HUSBAND</p>", "conditions": [24, 1600, "v", 12000], "internal_node_id": "0.0-177.0", "trial": 7, "time_elapsed": 1120213, "serialpos": 8, "key_press": -1, "wordID": 727, "type": "PRES_VIS", "trial_index": 249}, "uniqueid": "MTK3309:3YDTZAI2WYNLMHOVOIQ6M3TSWU2146", "dateTime": 1520353031423}, {"current_trial": 250, "trialdata": {"rt": -1, "trial_type": "single-stim", "word": "convict", "stimulus": "<p id=\"stim\">CONVICT</p>", "conditions": [24, 1600, "v", 12000], "internal_node_id": "0.0-178.0", "trial": 7, "time_elapsed": 1122809, "serialpos": 9, "key_press": -1, "wordID": 370, "type": "PRES_VIS", "trial_index": 250}, "uniqueid": "MTK3309:3YDTZAI2WYNLMHOVOIQ6M3TSWU2146", "dateTime": 1520353034019}, {"current_trial": 251, "trialdata": {"rt": -1, "trial_type": "single-stim", "word": "handbag", "stimulus": "<p id=\"stim\">HANDBAG</p>", "conditions": [24, 1600, "v", 12000], "internal_node_id": "0.0-179.0", "trial": 7, "time_elapsed": 1125514, "serialpos": 10, "key_press": -1, "wordID": 683, "type": "PRES_VIS", "trial_index": 251}, "uniqueid": "MTK3309:3YDTZAI2WYNLMHOVOIQ6M3TSWU2146", "dateTime": 1520353036724}, {"current_trial": 252, "trialdata": {"rt": -1, "trial_type": "single-stim", "word": "igloo", "stimulus": "<p id=\"stim\">IGLOO</p>", "conditions": [24, 1600, "v", 12000], "internal_node_id": "0.0-180.0", "trial": 7, "time_elapsed": 1128209, "serialpos": 11, "key_press": -1, "wordID": 733, "type": "PRES_VIS", "trial_index": 252}, "uniqueid": "MTK3309:3YDTZAI2WYNLMHOVOIQ6M3TSWU2146", "dateTime": 1520353039420}, {"current_trial": 253, "trialdata": {"rt": -1, "trial_type"