{"assignmentId": "3HMIGG0U4MDJVOM0CANSH2K74M48YK", "workerId": "MTK3079", "questiondata": {"origin": "United States", "strat-rehearsal": "23", "marital": "Married/Domestic Partnership", "education": "Some college", "ethnicity": "Not Hispanic", "color_depth": 24, "distracted": "No", "wrote-notes": "No", "strat-other": "None", "screen_width": 1366, "avail_screen_width": 1366, "avail_screen_height": 728, "strat-image": "75", "language": "English", "gender": "Female", "age": "51", "gender_other": "", "race": ["White"], "strat-categorize": "64", "pixel_depth": 24, "strat-spatial": "51", "strat-story": "75", "race_other": "", "screen_height": 768}, "bonus": 0, "hitId": "311HQEI8RSNDDGTS8PS3SP1UF8B7ZP", "counterbalance": 645, "useragent": "Mozilla/5.0 (Windows NT 10.0; Win64; x64) AppleWebKit/537.36 (KHTML, like Gecko) Chrome/64.0.3282.186 Safari/537.36", "eventdata": [{"eventtype": "initialized", "interval": 0, "value": null, "timestamp": 1520007298181}, {"eventtype": "window_resize", "interval": 0, "value": [1242, 615], "timestamp": 1520007298181}, {"eventtype": "focus", "interval": 3097, "value": "off", "timestamp": 1520007301278}, {"eventtype": "focus", "interval": 7006, "value": "on", "timestamp": 1520007308284}, {"eventtype": "focus", "interval": 1301213, "value": "off", "timestamp": 1520008609497}, {"eventtype": "focus", "interval": 187, "value": "on", "timestamp": 1520008609684}, {"eventtype": "focus", "interval": 336040, "value": "off", "timestamp": 1520008945724}, {"eventtype": "focus", "interval": 6428, "value": "on", "timestamp": 1520008952152}, {"eventtype": "focus", "interval": 752753, "value": "off", "timestamp": 1520009704905}, {"eventtype": "focus", "interval": 10541, "value": "on", "timestamp": 1520009715446}, {"eventtype": "focus", "interval": 502566, "value": "off", "timestamp": 1520010218012}, {"eventtype": "focus", "interval": 8727, "value": "on", "timestamp": 1520010226739}], "data": [{"current_trial": 0, "trialdata": {"rt": 3080, "trial_type": "text", "internal_node_id": "0.0-0.0", "time_elapsed": 3091, "key_press": 32, "type": "INSTRUCTIONS", "trial_index": 0}, "uniqueid": "MTK3079:3HMIGG0U4MDJVOM0CANSH2K74M48YK", "dateTime": 1520007322836}, {"current_trial": 1, "trialdata": {"rt": 27045, "trial_type": "text", "internal_node_id": "0.0-1.0", "time_elapsed": 30146, "key_press": 71, "type": "INSTRUCTIONS", "trial_index": 1}, "uniqueid": "MTK3079:3HMIGG0U4MDJVOM0CANSH2K74M48YK", "dateTime": 1520007349888}, {"current_trial": 2, "trialdata": {"rt": [13654], "trial_type": "audio-test", "responses": ["ocean"], "internal_node_id": "0.0-2.0", "time_elapsed": 43867, "type": "AUDIO_TEST", "trial_index": 2}, "uniqueid": "MTK3079:3HMIGG0U4MDJVOM0CANSH2K74M48YK", "dateTime": 1520007363608}, {"current_trial": 3, "trialdata": {"rt": [7519], "trial_type": "audio-test", "responses": ["crystal"], "internal_node_id": "0.0-3.0", "time_elapsed": 51409, "type": "AUDIO_TEST", "trial_index": 3}, "uniqueid": "MTK3079:3HMIGG0U4MDJVOM0CANSH2K74M48YK", "dateTime": 1520007371150}, {"current_trial": 4, "trialdata": {"rt": [15222], "trial_type": "audio-test", "responses": ["spice"], "internal_node_id": "0.0-4.0", "time_elapsed": 66651, "type": "AUDIO_TEST", "trial_index": 4}, "uniqueid": "MTK3079:3HMIGG0U4MDJVOM0CANSH2K74M48YK", "dateTime": 1520007386392}, {"current_trial": 5, "trialdata": {"rt": 28072, "trial_type": "survey-text", "responses": "{\"Q0\":\"11:30\",\"Q1\":\"6:30\",\"Q2\":\"5\"}", "internal_node_id": "0.0-5.0", "time_elapsed": 95502, "type": "SLEEP_SURVEY", "trial_index": 5}, "uniqueid": "MTK3079:3HMIGG0U4MDJVOM0CANSH2K74M48YK", "dateTime": 1520007415243}, {"current_trial": 6, "trialdata": {"rt": 48549, "trial_type": "text", "internal_node_id": "0.0-6.0", "time_elapsed": 145055, "key_press": 32, "type": "INSTRUCTIONS", "trial_index": 6}, "uniqueid": "MTK3079:3HMIGG0U4MDJVOM0CANSH2K74M48YK", "dateTime": 1520007464798}, {"current_trial": 7, "trialdata": {"rt": 24469, "trial_type": "text", "internal_node_id": "0.0-7.0", "time_elapsed": 170028, "key_press": 32, "type": "INSTRUCTIONS", "trial_index": 7}, "uniqueid": "MTK3079:3HMIGG0U4MDJVOM0CANSH2K74M48YK", "dateTime": 1520007489770}, {"current_trial": 8, "trialdata": {"rt": 32826, "trial_type": "text", "internal_node_id": "0.0-8.0", "time_elapsed": 203358, "key_press": 32, "type": "INSTRUCTIONS", "trial_index": 8}, "uniqueid": "MTK3079:3HMIGG0U4MDJVOM0CANSH2K74M48YK", "dateTime": 1520007523099}, {"current_trial": 9, "trialdata": {"rt": [4203, 9402, 13509, 15735], "trial_type": "math-distractor", "key_times": [2940, 3154, 4203, 7902, 8315, 9402, 12538, 12766, 13509, 15201, 15422, 15735], "responses": ["15", "7", "16", "15"], "num2": [8, 2, 1, 8, 3], "num3": [5, 3, 8, 1, 6], "conditions": [18, 1200, "a", 18000], "internal_node_id": "0.0-9.0", "key_presses": [97, 101, 13, 103, 16, 13, 97, 102, 13, 97, 101, 13], "trial": 0, "time_elapsed": 222428, "type": "DISTRACTOR", "trial_index": 9, "num1": [2, 2, 7, 6, 5]}, "uniqueid": "MTK3079:3HMIGG0U4MDJVOM0CANSH2K74M48YK", "dateTime": 1520007542170}, {"current_trial": 10, "trialdata": {"rt": -1, "trial_type": "single-stim", "stimulus": "<p id=\"stim\">10</p>", "internal_node_id": "0.0-10.0-0.0", "time_elapsed": 225463, "key_press": -1, "trial_index": 10}, "uniqueid": "MTK3079:3HMIGG0U4MDJVOM0CANSH2K74M48YK", "dateTime": 1520007545204}, {"current_trial": 11, "trialdata": {"rt": -1, "trial_type": "single-stim", "stimulus": "<p id=\"stim\">9</p>", "internal_node_id": "0.0-10.0-1.0", "time_elapsed": 226467, "key_press": -1, "trial_index": 11}, "uniqueid": "MTK3079:3HMIGG0U4MDJVOM0CANSH2K74M48YK", "dateTime": 1520007546209}, {"current_trial": 12, "trialdata": {"rt": -1, "trial_type": "single-stim", "stimulus": "<p id=\"stim\">8</p>", "internal_node_id": "0.0-10.0-2.0", "time_elapsed": 227472, "key_press": -1, "trial_index": 12}, "uniqueid": "MTK3079:3HMIGG0U4MDJVOM0CANSH2K74M48YK", "dateTime": 1520007547215}, {"current_trial": 13, "trialdata": {"rt": -1, "trial_type": "single-stim", "stimulus": "<p id=\"stim\">7</p>", "internal_node_id": "0.0-10.0-3.0", "time_elapsed": 228493, "key_press": -1, "trial_index": 13}, "uniqueid": "MTK3079:3HMIGG0U4MDJVOM0CANSH2K74M48YK", "dateTime": 1520007548234}, {"current_trial": 14, "trialdata": {"rt": -1, "trial_type": "single-stim", "stimulus": "<p id=\"stim\">6</p>", "internal_node_id": "0.0-10.0-4.0", "time_elapsed": 229497, "key_press": -1, "trial_index": 14}, "uniqueid": "MTK3079:3HMIGG0U4MDJVOM0CANSH2K74M48YK", "dateTime": 1520007549238}, {"current_trial": 15, "trialdata": {"rt": -1, "trial_type": "single-stim", "stimulus": "<p id=\"stim\">5</p>", "internal_node_id": "0.0-10.0-5.0", "time_elapsed": 230504, "key_press": -1, "trial_index": 15}, "uniqueid": "MTK3079:3HMIGG0U4MDJVOM0CANSH2K74M48YK", "dateTime": 1520007550246}, {"current_trial": 16, "trialdata": {"rt": -1, "trial_type": "single-stim", "stimulus": "<p id=\"stim\">4</p>", "internal_node_id": "0.0-10.0-6.0", "time_elapsed": 231530, "key_press": -1, "trial_index": 16}, "uniqueid": "MTK3079:3HMIGG0U4MDJVOM0CANSH2K74M48YK", "dateTime": 1520007551271}, {"current_trial": 17, "trialdata": {"rt": -1, "trial_type": "single-stim", "stimulus": "<p id=\"stim\">3</p>", "internal_node_id": "0.0-10.0-7.0", "time_elapsed": 232533, "key_press": -1, "trial_index": 17}, "uniqueid": "MTK3079:3HMIGG0U4MDJVOM0CANSH2K74M48YK", "dateTime": 1520007552275}, {"current_trial": 18, "trialdata": {"rt": -1, "trial_type": "single-stim", "stimulus": "<p id=\"stim\">2</p>", "internal_node_id": "0.0-10.0-8.0", "time_elapsed": 233537, "key_press": -1, "trial_index": 18}, "uniqueid": "MTK3079:3HMIGG0U4MDJVOM0CANSH2K74M48YK", "dateTime": 1520007553278}, {"current_trial": 19, "trialdata": {"rt": -1, "trial_type": "single-stim", "stimulus": "<p id=\"stim\">1</p>", "internal_node_id": "0.0-10.0-9.0", "time_elapsed": 234551, "key_press": -1, "trial_index": 19}, "uniqueid": "MTK3079:3HMIGG0U4MDJVOM0CANSH2K74M48YK", "dateTime": 1520007554292}, {"current_trial": 20, "trialdata": {"rt": -1, "trial_type": "single-stim", "stimulus": "<p id=\"stim\">+</p>", "internal_node_id": "0.0-11.0-0.0", "time_elapsed": 236092, "key_press": -1, "type": "FIXATION", "trial_index": 20}, "uniqueid": "MTK3079:3HMIGG0U4MDJVOM0CANSH2K74M48YK", "dateTime": 1520007555833}, {"current_trial": 21, "trialdata": {"rt": -1000, "trial_type": "single-audio", "word": "coffee", "stimulus": "/static/audio/wordpool/COFFEE.wav", "conditions": [18, 1200, "a", 18000], "internal_node_id": "0.0-12.0", "trial": 0, "time_elapsed": 238271, "serialpos": 0, "key_press": -1, "wordID": 340, "type": "PRES_AUD", "trial_index": 21}, "uniqueid": "MTK3079:3HMIGG0U4MDJVOM0CANSH2K74M48YK", "dateTime": 1520007558012}, {"current_trial": 22, "trialdata": {"rt": -1000, "trial_type": "single-audio", "word": "sparrow", "stimulus": "/static/audio/wordpool/SPARROW.wav", "conditions": [18, 1200, "a", 18000], "internal_node_id": "0.0-13.0", "trial": 0, "time_elapsed": 240338, "serialpos": 1, "key_press": -1, "wordID": 1346, "type": "PRES_AUD", "trial_index": 22}, "uniqueid": "MTK3079:3HMIGG0U4MDJVOM0CANSH2K74M48YK", "dateTime": 1520007560079}, {"current_trial": 23, "trialdata": {"rt": -1000, "trial_type": "single-audio", "word": "lady", "stimulus": "/static/audio/wordpool/LADY.wav", "conditions": [18, 1200, "a", 18000], "internal_node_id": "0.0-14.0", "trial": 0, "time_elapsed": 242358, "serialpos": 2, "key_press": -1, "wordID": 793, "type": "PRES_AUD", "trial_index": 23}, "uniqueid": "MTK3079:3HMIGG0U4MDJVOM0CANSH2K74M48YK", "dateTime": 1520007562101}, {"current_trial": 24, "trialdata": {"rt": -1000, "trial_type": "single-audio", "word": "rooster", "stimulus": "/static/audio/wordpool/ROOSTER.wav", "conditions": [18, 1200, "a", 18000], "internal_node_id": "0.0-15.0", "trial": 0, "time_elapsed": 244586, "serialpos": 3, "key_press": -1, "wordID": 1208, "type": "PRES_AUD", "trial_index": 24}, "uniqueid": "MTK3079:3HMIGG0U4MDJVOM0CANSH2K74M48YK", "dateTime": 1520007564327}, {"current_trial": 25, "trialdata": {"rt": -1000, "trial_type": "single-audio", "word": "jungle", "stimulus": "/static/audio/wordpool/JUNGLE.wav", "conditions": [18, 1200, "a", 18000], "internal_node_id": "0.0-16.0", "trial": 0, "time_elapsed": 246859, "serialpos": 4, "key_press": -1, "wordID": 763, "type": "PRES_AUD", "trial_index": 25}, "uniqueid": "MTK3079:3HMIGG0U4MDJVOM0CANSH2K74M48YK", "dateTime": 1520007566601}, {"current_trial": 26, "trialdata": {"rt": -1000, "trial_type": "single-audio", "word": "rod", "stimulus": "/static/audio/wordpool/ROD.wav", "conditions": [18, 1200, "a", 18000], "internal_node_id": "0.0-17.0", "trial": 0, "time_elapsed": 249007, "serialpos": 5, "key_press": -1, "wordID": 1202, "type": "PRES_AUD", "trial_index": 26}, "uniqueid": "MTK3079:3HMIGG0U4MDJVOM0CANSH2K74M48YK", "dateTime": 1520007568749}, {"current_trial": 27, "trialdata": {"rt": -1000, "trial_type": "single-audio", "word": "guard", "stimulus": "/static/audio/wordpool/GUARD.wav", "conditions": [18, 1200, "a", 18000], "internal_node_id": "0.0-18.0", "trial": 0, "time_elapsed": 251274, "serialpos": 6, "key_press": -1, "wordID": 666, "type": "PRES_AUD", "trial_index": 27}, "uniqueid": "MTK3079:3HMIGG0U4MDJVOM0CANSH2K74M48YK", "dateTime": 1520007571015}, {"current_trial": 28, "trialdata": {"rt": -1000, "trial_type": "single-audio", "word": "picture", "stimulus": "/static/audio/wordpool/PICTURE.wav", "conditions": [18, 1200, "a", 18000], "internal_node_id": "0.0-19.0", "trial": 0, "time_elapsed": 253580, "serialpos": 7, "key_press": -1, "wordID": 1060, "type": "PRES_AUD", "trial_index": 28}, "uniqueid": "MTK3079:3HMIGG0U4MDJVOM0CANSH2K74M48YK", "dateTime": 1520007573321}, {"current_trial": 29, "trialdata": {"rt": -1000, "trial_type": "single-audio", "word": "football", "stimulus": "/static/audio/wordpool/FOOTBALL.wav", "conditions": [18, 1200, "a", 18000], "internal_node_id": "0.0-20.0", "trial": 0, "time_elapsed": 255844, "serialpos": 8, "key_press": -1, "wordID": 590, "type": "PRES_AUD", "trial_index": 29}, "uniqueid": "MTK3079:3HMIGG0U4MDJVOM0CANSH2K74M48YK", "dateTime": 1520007575586}, {"current_trial": 30, "trialdata": {"rt": -1000, "trial_type": "single-audio", "word": "cigar", "stimulus": "/static/audio/wordpool/CIGAR.wav", "conditions": [18, 1200, "a", 18000], "internal_node_id": "0.0-21.0", "trial": 0, "time_elapsed": 257872, "serialpos": 9, "key_press": -1, "wordID": 307, "type": "PRES_AUD", "trial_index": 30}, "uniqueid": "MTK3079:3HMIGG0U4MDJVOM0CANSH2K74M48YK", "dateTime": 1520007577613}, {"current_trial": 31, "trialdata": {"rt": -1000, "trial_type": "single-audio", "word": "money", "stimulus": "/static/audio/wordpool/MONEY.wav", "conditions": [18, 1200, "a", 18000], "internal_node_id": "0.0-22.0", "trial": 0, "time_elapsed": 260256, "serialpos": 10, "key_press": -1, "wordID": 907, "type": "PRES_AUD", "trial_index": 31}, "uniqueid": "MTK3079:3HMIGG0U4MDJVOM0CANSH2K74M48YK", "dateTime": 1520007579999}, {"current_trial": 32, "trialdata": {"rt": -1000, "trial_type": "single-audio", "word": "quarter", "stimulus": "/static/audio/wordpool/QUARTER.wav", "conditions": [18, 1200, "a", 18000], "internal_node_id": "0.0-23.0", "trial": 0, "time_elapsed": 262367, "serialpos": 11, "key_press": -1, "wordID": 1147, "type": "PRES_AUD", "trial_index": 32}, "uniqueid": "MTK3079:3HMIGG0U4MDJVOM0CANSH2K74M48YK", "dateTime": 1520007582109}, {"current_trial": 33, "trialdata": {"rt": -1000, "trial_type": "single-audio", "word": "mailman", "stimulus": "/static/audio/wordpool/MAILMAN.wav", "conditions": [18, 1200, "a", 18000], "internal_node_id": "0.0-24.0", "trial": 0, "time_elapsed": 264722, "serialpos": 12, "key_press": -1, "wordID": 857, "type": "PRES_AUD", "trial_index": 33}, "uniqueid": "MTK3079:3HMIGG0U4MDJVOM0CANSH2K74M48YK", "dateTime": 1520007584463}, {"current_trial": 34, "trialdata": {"rt": -1000, "trial_type": "single-audio", "word": "flask", "stimulus": "/static/audio/wordpool/FLASK.wav", "conditions": [18, 1200, "a", 18000], "internal_node_id": "0.0-25.0", "trial": 0, "time_elapsed": 267034, "serialpos": 13, "key_press": -1, "wordID": 575, "type": "PRES_AUD", "trial_index": 34}, "uniqueid": "MTK3079:3HMIGG0U4MDJVOM0CANSH2K74M48YK", "dateTime": 1520007586775}, {"current_trial": 35, "trialdata": {"rt": -1000, "trial_type": "single-audio", "word": "rug", "stimulus": "/static/audio/wordpool/RUG.wav", "conditions": [18, 1200, "a", 18000], "internal_node_id": "0.0-26.0", "trial": 0, "time_elapsed": 269272, "serialpos": 14, "key_press": -1, "wordID": 1214, "type": "PRES_AUD", "trial_index": 35}, "uniqueid": "MTK3079:3HMIGG0U4MDJVOM0CANSH2K74M48YK", "dateTime": 1520007589013}, {"current_trial": 36, "trialdata": {"rt": -1000, "trial_type": "single-audio", "word": "robin", "stimulus": "/static/audio/wordpool/ROBIN.wav", "conditions": [18, 1200, "a", 18000], "internal_node_id": "0.0-27.0", "trial": 0, "time_elapsed": 271566, "serialpos": 15, "key_press": -1, "wordID": 1198, "type": "PRES_AUD", "trial_index": 36}, "uniqueid": "MTK3079:3HMIGG0U4MDJVOM0CANSH2K74M48YK", "dateTime": 1520007591307}, {"current_trial": 37, "trialdata": {"rt": -1000, "trial_type": "single-audio", "word": "banjo", "stimulus": "/static/audio/wordpool/BANJO.wav", "conditions": [18, 1200, "a", 18000], "internal_node_id": "0.0-28.0", "trial": 0, "time_elapsed": 273869, "serialpos": 16, "key_press": -1, "wordID": 81, "type": "PRES_AUD", "trial_index": 37}, "uniqueid": "MTK3079:3HMIGG0U4MDJVOM0CANSH2K74M48YK", "dateTime": 1520007593610}, {"current_trial": 38, "trialdata": {"rt": -1000, "trial_type": "single-audio", "word": "fungus", "stimulus": "/static/audio/wordpool/FUNGUS.wav", "conditions": [18, 1200, "a", 18000], "internal_node_id": "0.0-29.0", "trial": 0, "time_elapsed": 276011, "serialpos": 17, "key_press": -1, "wordID": 613, "type": "PRES_AUD", "trial_index": 38}, "uniqueid": "MTK3079:3HMIGG0U4MDJVOM0CANSH2K74M48YK", "dateTime": 1520007595752}, {"current_trial": 39, "trialdata": {"rt": -1, "trial_type": "single-stim", "stimulus": "", "internal_node_id": "0.0-30.0-0.0", "time_elapsed": 277341, "key_press": -1, "type": "PRE_RECALL_DELAY", "trial_index": 39}, "uniqueid": "MTK3079:3HMIGG0U4MDJVOM0CANSH2K74M48YK", "dateTime": 1520007597083}, {"current_trial": 40, "trialdata": {"rt": -1000, "trial_type": "single-audio", "stimulus": "/static/audio/400Hz.wav", "internal_node_id": "0.0-31.0", "time_elapsed": 277844, "key_press": -1, "type": "PRE_RECALL_ALERT", "trial_index": 40}, "uniqueid": "MTK3079:3HMIGG0U4MDJVOM0CANSH2K74M48YK", "dateTime": 1520007597586}, {"current_trial": 41, "trialdata": {"rt": [4914, 7204, 10522, 14242, 16134, 19539, 22502, 25442, 27728, 30898, 32980, 36134, 38113, 40585, 44882, 51738, 55202], "recwords": ["banjo", "fungus", "sparrow", "robin", "drugs", "football", "picture", "rooster", "coffee", "cigar", "money", "guard", "jungle", "mailman", "quarter", "rod", "lady"], "key_times": [3563, 3744, 4008, 4289, 4526, 4914, 5689, 5904, 6162, 6383, 6554, 6814, 7204, 8888, 9071, 9256, 9443, 9589, 9799, 10171, 10522, 13046, 13356, 13558, 13744, 13964, 14242, 14917, 15082, 15300, 15481, 15943, 16134, 17674, 17879, 18079, 18182, 18728, 18928, 19112, 19259, 19539, 20164, 20399, 20616, 20871, 21057, 21129, 21313, 22502, 23346, 23539, 23723, 24153, 24402, 24940, 24975, 25442, 26571, 26750, 26975, 27151, 27324, 27515, 27728, 29783, 29965, 30146, 30403, 30516, 30898, 31360, 31574, 31980, 32192, 32375, 32980, 34766, 34907, 35214, 35393, 35660, 36134, 36539, 36883, 37198, 37384, 37569, 37711, 38113, 39258, 39404, 39587, 39778, 40010, 40156, 40336, 40585, 43462, 43642, 43861, 44047, 44284, 44504, 44607, 44882, 51021, 51204, 51554, 51738, 54245, 54497, 54763, 54917, 55202], "trial_type": "free-recall", "conditions": [18, 1200, "a", 18000], "internal_node_id": "0.0-32.0-0.0", "key_presses": [66, 65, 78, 74, 79, 13, 70, 85, 78, 71, 85, 83, 13, 83, 80, 65, 82, 82, 79, 87, 13, 82, 79, 66, 73, 78, 13, 68, 82, 85, 71, 83, 13, 70, 79, 79, 84, 66, 65, 76, 76, 13, 80, 73, 67, 84, 85, 82, 69, 13, 82, 79, 79, 83, 84, 69, 82, 13, 67, 79, 70, 70, 69, 69, 13, 67, 73, 71, 65, 82, 13, 77, 79, 78, 69, 89, 13, 71, 85, 65, 82, 68, 13, 74, 85, 78, 71, 76, 69, 13, 77, 65, 73, 76, 77, 65, 78, 13, 81, 85, 65, 82, 84, 69, 82, 13, 82, 79, 68, 13, 76, 65, 68, 89, 13], "trial": 0, "time_elapsed": 337857, "type": "FREE_RECALL", "trial_index": 41}, "uniqueid": "MTK3079:3HMIGG0U4MDJVOM0CANSH2K74M48YK", "dateTime": 1520007657607}, {"current_trial": 42, "trialdata": {"rt": 1946, "trial_type": "text", "internal_node_id": "0.0-33.0", "time_elapsed": 341816, "key_press": 32, "type": "INSTRUCTIONS", "trial_index": 42}, "uniqueid": "MTK3079:3HMIGG0U4MDJVOM0CANSH2K74M48YK", "dateTime": 1520007661557}, {"current_trial": 43, "trialdata": {"rt": [3527, 5230, 8045, 10494, 12665, 14972, 17307], "trial_type": "math-distractor", "key_times": [2966, 3205, 3527, 4915, 5230, 7602, 7819, 8045, 9868, 10494, 12134, 12379, 12665, 14520, 14733, 14972, 16742, 16928, 17307], "responses": ["18", "8", "20", "8", "18", "20", "12"], "num2": [9, 2, 9, 5, 5, 6, 2, 9], "num3": [4, 4, 3, 1, 6, 5, 9, 5], "conditions": [18, 1200, "a", 18000], "internal_node_id": "0.0-34.0", "key_presses": [97, 104, 13, 104, 13, 98, 96, 13, 104, 13, 97, 104, 13, 98, 96, 13, 97, 98, 13], "trial": 1, "time_elapsed": 361873, "type": "DISTRACTOR", "trial_index": 43, "num1": [5, 2, 8, 2, 7, 9, 1, 6]}, "uniqueid": "MTK3079:3HMIGG0U4MDJVOM0CANSH2K74M48YK", "dateTime": 1520007681614}, {"current_trial": 44, "trialdata": {"rt": -1, "trial_type": "single-stim", "stimulus": "<p id=\"stim\">10</p>", "internal_node_id": "0.0-35.0-0.0", "time_elapsed": 364878, "key_press": -1, "trial_index": 44}, "uniqueid": "MTK3079:3HMIGG0U4MDJVOM0CANSH2K74M48YK", "dateTime": 1520007684619}, {"current_trial": 45, "trialdata": {"rt": -1, "trial_type": "single-stim", "stimulus": "<p id=\"stim\">9</p>", "internal_node_id": "0.0-35.0-1.0", "time_elapsed": 365882, "key_press": -1, "trial_index": 45}, "uniqueid": "MTK3079:3HMIGG0U4MDJVOM0CANSH2K74M48YK", "dateTime": 1520007685623}, {"current_trial": 46, "trialdata": {"rt": -1, "trial_type": "single-stim", "stimulus": "<p id=\"stim\">8</p>", "internal_node_id": "0.0-35.0-2.0", "time_elapsed": 366884, "key_press": -1, "trial_index": 46}, "uniqueid": "MTK3079:3HMIGG0U4MDJVOM0CANSH2K74M48YK", "dateTime": 1520007686627}, {"current_trial": 47, "trialdata": {"rt": -1, "trial_type": "single-stim", "stimulus": "<p id=\"stim\">7</p>", "internal_node_id": "0.0-35.0-3.0", "time_elapsed": 367889, "key_press": -1, "trial_index": 47}, "uniqueid": "MTK3079:3HMIGG0U4MDJVOM0CANSH2K74M48YK", "dateTime": 1520007687631}, {"current_trial": 48, "trialdata": {"rt": -1, "trial_type": "single-stim", "stimulus": "<p id=\"stim\">6</p>", "internal_node_id": "0.0-35.0-4.0", "time_elapsed": 368892, "key_press": -1, "trial_index": 48}, "uniqueid": "MTK3079:3HMIGG0U4MDJVOM0CANSH2K74M48YK", "dateTime": 1520007688634}, {"current_trial": 49, "trialdata": {"rt": -1, "trial_type": "single-stim", "stimulus": "<p id=\"stim\">5</p>", "internal_node_id": "0.0-35.0-5.0", "time_elapsed": 369895, "key_press": -1, "trial_index": 49}, "uniqueid": "MTK3079:3HMIGG0U4MDJVOM0CANSH2K74M48YK", "dateTime": 1520007689637}, {"current_trial": 50, "trialdata": {"rt": -1, "trial_type": "single-stim", "stimulus": "<p id=\"stim\">4</p>", "internal_node_id": "0.0-35.0-6.0", "time_elapsed": 370899, "key_press": -1, "trial_index": 50}, "uniqueid": "MTK3079:3HMIGG0U4MDJVOM0CANSH2K74M48YK", "dateTime": 1520007690640}, {"current_trial": 51, "trialdata": {"rt": -1, "trial_type": "single-stim", "stimulus": "<p id=\"stim\">3</p>", "internal_node_id": "0.0-35.0-7.0", "time_elapsed": 371902, "key_press": -1, "trial_index": 51}, "uniqueid": "MTK3079:3HMIGG0U4MDJVOM0CANSH2K74M48YK", "dateTime": 1520007691644}, {"current_trial": 52, "trialdata": {"rt": -1, "trial_type": "single-stim", "stimulus": "<p id=\"stim\">2</p>", "internal_node_id": "0.0-35.0-8.0", "time_elapsed": 372904, "key_press": -1, "trial_index": 52}, "uniqueid": "MTK3079:3HMIGG0U4MDJVOM0CANSH2K74M48YK", "dateTime": 1520007692645}, {"current_trial": 53, "trialdata": {"rt": -1, "trial_type": "single-stim", "stimulus": "<p id=\"stim\">1</p>", "internal_node_id": "0.0-35.0-9.0", "time_elapsed": 373908, "key_press": -1, "trial_index": 53}, "uniqueid": "MTK3079:3HMIGG0U4MDJVOM0CANSH2K74M48YK", "dateTime": 1520007693649}, {"current_trial": 54, "trialdata": {"rt": -1, "trial_type": "single-stim", "stimulus": "<p id=\"stim\">+</p>", "internal_node_id": "0.0-36.0-0.0", "time_elapsed": 375412, "key_press": -1, "type": "FIXATION", "trial_index": 54}, "uniqueid": "MTK3079:3HMIGG0U4MDJVOM0CANSH2K74M48YK", "dateTime": 1520007695154}, {"current_trial": 55, "trialdata": {"rt": -1000, "trial_type": "single-audio", "word": "gift", "stimulus": "/static/audio/wordpool/GIFT.wav", "conditions": [18, 1200, "a", 18000], "internal_node_id": "0.0-37.0", "trial": 1, "time_elapsed": 377516, "serialpos": 0, "key_press": -1, "wordID": 634, "type": "PRES_AUD", "trial_index": 55}, "uniqueid": "MTK3079:3HMIGG0U4MDJVOM0CANSH2K74M48YK", "dateTime": 1520007697257}, {"current_trial": 56, "trialdata": {"rt": -1000, "trial_type": "single-audio", "word": "missile", "stimulus": "/static/audio/wordpool/MISSILE.wav", "conditions": [18, 1200, "a", 18000], "internal_node_id": "0.0-38.0", "trial": 1, "time_elapsed": 379830, "serialpos": 1, "key_press": -1, "wordID": 899, "type": "PRES_AUD", "trial_index": 56}, "uniqueid": "MTK3079:3HMIGG0U4MDJVOM0CANSH2K74M48YK", "dateTime": 1520007699572}, {"current_trial": 57, "trialdata": {"rt": -1000, "trial_type": "single-audio", "word": "diver", "stimulus": "/static/audio/wordpool/DIVER.wav", "conditions": [18, 1200, "a", 18000], "internal_node_id": "0.0-39.0", "trial": 1, "time_elapsed": 382101, "serialpos": 2, "key_press": -1, "wordID": 475, "type": "PRES_AUD", "trial_index": 57}, "uniqueid": "MTK3079:3HMIGG0U4MDJVOM0CANSH2K74M48YK", "dateTime": 1520007701842}, {"current_trial": 58, "trialdata": {"rt": -1000, "trial_type": "single-audio", "word": "pilot", "stimulus": "/static/audio/wordpool/PILOT.wav", "conditions": [18, 1200, "a", 18000], "internal_node_id": "0.0-40.0", "trial": 1, "time_elapsed": 384485, "serialpos": 3, "key_press": -1, "wordID": 1069, "type": "PRES_AUD", "trial_index": 58}, "uniqueid": "MTK3079:3HMIGG0U4MDJVOM0CANSH2K74M48YK", "dateTime": 1520007704226}, {"current_trial": 59, "trialdata": {"rt": -1000, "trial_type": "single-audio", "word": "fireplace", "stimulus": "/static/audio/wordpool/FIREPLACE.wav", "conditions": [18, 1200, "a", 18000], "internal_node_id": "0.0-41.0", "trial": 1, "time_elapsed": 386580, "serialpos": 4, "key_press": -1, "wordID": 569, "type": "PRES_AUD", "trial_index": 59}, "uniqueid": "MTK3079:3HMIGG0U4MDJVOM0CANSH2K74M48YK", "dateTime": 1520007706321}, {"current_trial": 60, "trialdata": {"rt": -1000, "trial_type": "single-audio", "word": "coin", "stimulus": "/static/audio/wordpool/COIN.wav", "conditions": [18, 1200, "a", 18000], "internal_node_id": "0.0-42.0", "trial": 1, "time_elapsed": 388642, "serialpos": 5, "key_press": -1, "wordID": 342, "type": "PRES_AUD", "trial_index": 60}, "uniqueid": "MTK3079:3HMIGG0U4MDJVOM0CANSH2K74M48YK", "dateTime": 1520007708383}, {"current_trial": 61, "trialdata": {"rt": -1000, "trial_type": "single-audio", "word": "dragon", "stimulus": "/static/audio/wordpool/DRAGON.wav", "conditions": [18, 1200, "a", 18000], "internal_node_id": "0.0-43.0", "trial": 1, "time_elapsed": 390843, "serialpos": 6, "key_press": -1, "wordID": 491, "type": "PRES_AUD", "trial_index": 61}, "uniqueid": "MTK3079:3HMIGG0U4MDJVOM0CANSH2K74M48YK", "dateTime": 1520007710584}, {"current_trial": 62, "trialdata": {"rt": -1000, "trial_type": "single-audio", "word": "body", "stimulus": "/static/audio/wordpool/BODY.wav", "conditions": [18, 1200, "a", 18000], "internal_node_id": "0.0-44.0", "trial": 1, "time_elapsed": 392912, "serialpos": 7, "key_press": -1, "wordID": 144, "type": "PRES_AUD", "trial_index": 62}, "uniqueid": "MTK3079:3HMIGG0U4MDJVOM0CANSH2K74M48YK", "dateTime": 1520007712654}, {"current_trial": 63, "trialdata": {"rt": -1000, "trial_type": "single-audio", "word": "stomach", "stimulus": "/static/audio/wordpool/STOMACH.wav", "conditions": [18, 1200, "a", 18000], "internal_node_id": "0.0-45.0", "trial": 1, "time_elapsed": 395240, "serialpos": 8, "key_press": -1, "wordID": 1383, "type": "PRES_AUD", "trial_index": 63}, "uniqueid": "MTK3079:3HMIGG0U4MDJVOM0CANSH2K74M48YK", "dateTime": 1520007714981}, {"current_trial": 64, "trialdata": {"rt": -1000, "trial_type": "single-audio", "word": "bubble", "stimulus": "/static/audio/wordpool/BUBBLE.wav", "conditions": [18, 1200, "a", 18000], "internal_node_id": "0.0-46.0", "trial": 1, "time_elapsed": 397593, "serialpos": 9, "key_press": -1, "wordID": 182, "type": "PRES_AUD", "trial_index": 64}, "uniqueid": "MTK3079:3HMIGG0U4MDJVOM0CANSH2K74M48YK", "dateTime": 1520007717335}, {"current_trial": 65, "trialdata": {"rt": -1000, "trial_type": "single-audio", "word": "whistle", "stimulus": "/static/audio/wordpool/WHISTLE.wav", "conditions": [18, 1200, "a", 18000], "internal_node_id": "0.0-47.0", "trial": 1, "time_elapsed": 399959, "serialpos": 10, "key_press": -1, "wordID": 1605, "type": "PRES_AUD", "trial_index": 65}, "uniqueid": "MTK3079:3HMIGG0U4MDJVOM0CANSH2K74M48YK", "dateTime": 1520007719701}, {"current_trial": 66, "trialdata": {"rt": -1000, "trial_type": "single-audio", "word": "tombstone", "stimulus": "/static/audio/wordpool/TOMBSTONE.wav", "conditions": [18, 1200, "a", 18000], "internal_node_id": "0.0-48.0", "trial": 1, "time_elapsed": 402101, "serialpos": 11, "key_press": -1, "wordID": 1477, "type": "PRES_AUD", "trial_index": 66}, "uniqueid": "MTK3079:3HMIGG0U4MDJVOM0CANSH2K74M48YK", "dateTime": 1520007721843}, {"current_trial": 67, "trialdata": {"rt": -1000, "trial_type": "single-audio", "word": "scalpel", "stimulus": "/static/audio/wordpool/SCALPEL.wav", "conditions": [18, 1200, "a", 18000], "internal_node_id": "0.0-49.0", "trial": 1, "time_elapsed": 404219, "serialpos": 12, "key_press": -1, "wordID": 1242, "type": "PRES_AUD", "trial_index": 67}, "uniqueid": "MTK3079:3HMIGG0U4MDJVOM0CANSH2K74M48YK", "dateTime": 1520007723961}, {"current_trial": 68, "trialdata": {"rt": -1000, "trial_type": "single-audio", "word": "liver", "stimulus": "/static/audio/wordpool/LIVER.wav", "conditions": [18, 1200, "a", 18000], "internal_node_id": "0.0-50.0", "trial": 1, "time_elapsed": 406450, "serialpos": 13, "key_press": -1, "wordID": 832, "type": "PRES_AUD", "trial_index": 68}, "uniqueid": "MTK3079:3HMIGG0U4MDJVOM0CANSH2K74M48YK", "dateTime": 1520007726198}, {"current_trial": 69, "trialdata": {"rt": -1000, "trial_type": "single-audio", "word": "parrot", "stimulus": "/static/audio/wordpool/PARROT.wav", "conditions": [18, 1200, "a", 18000], "internal_node_id": "0.0-51.0", "trial": 1, "time_elapsed": 408586, "serialpos": 14, "key_press": -1, "wordID": 1014, "type": "PRES_AUD", "trial_index": 69}, "uniqueid": "MTK3079:3HMIGG0U4MDJVOM0CANSH2K74M48YK", "dateTime": 1520007728327}, {"current_trial": 70, "trialdata": {"rt": -1000, "trial_type": "single-audio", "word": "friend", "stimulus": "/static/audio/wordpool/FRIEND.wav", "conditions": [18, 1200, "a", 18000], "internal_node_id": "0.0-52.0", "trial": 1, "time_elapsed": 410880, "serialpos": 15, "key_press": -1, "wordID": 605, "type": "PRES_AUD", "trial_index": 70}, "uniqueid": "MTK3079:3HMIGG0U4MDJVOM0CANSH2K74M48YK", "dateTime": 1520007730621}, {"current_trial": 71, "trialdata": {"rt": -1000, "trial_type": "single-audio", "word": "perfume", "stimulus": "/static/audio/wordpool/PERFUME.wav", "conditions": [18, 1200, "a", 18000], "internal_node_id": "0.0-53.0", "trial": 1, "time_elapsed": 413255, "serialpos": 16, "key_press": -1, "wordID": 1048, "type": "PRES_AUD", "trial_index": 71}, "uniqueid": "MTK3079:3HMIGG0U4MDJVOM0CANSH2K74M48YK", "dateTime": 1520007732996}, {"current_trial": 72, "trialdata": {"rt": -1000, "trial_type": "single-audio", "word": "seafood", "stimulus": "/static/audio/wordpool/SEAFOOD.wav", "conditions": [18, 1200, "a", 18000], "internal_node_id": "0.0-54.0", "trial": 1, "time_elapsed": 415645, "serialpos": 17, "key_press": -1, "wordID": 1259, "type": "PRES_AUD", "trial_index": 72}, "uniqueid": "MTK3079:3HMIGG0U4MDJVOM0CANSH2K74M48YK", "dateTime": 1520007735386}, {"current_trial": 73, "trialdata": {"rt": -1, "trial_type": "single-stim", "stimulus": "", "internal_node_id": "0.0-55.0-0.0", "time_elapsed": 417022, "key_press": -1, "type": "PRE_RECALL_DELAY", "trial_index": 73}, "uniqueid": "MTK3079:3HMIGG0U4MDJVOM0CANSH2K74M48YK", "dateTime": 1520007736765}, {"current_trial": 74, "trialdata": {"rt": -1000, "trial_type": "single-audio", "stimulus": "/static/audio/400Hz.wav", "internal_node_id": "0.0-56.0", "time_elapsed": 417526, "key_press": -1, "type": "PRE_RECALL_ALERT", "trial_index": 74}, "uniqueid": "MTK3079:3HMIGG0U4MDJVOM0CANSH2K74M48YK", "dateTime": 1520007737267}, {"current_trial": 75, "trialdata": {"rt": [3444, 6981, 11535, 14689, 16560, 18576, 25424, 28817, 31542, 37029, 39704, 43386, 46336, 51160, 55608, 57862], "recwords": ["perfume", "diver", "pilot", "whistle", "bubble", "gift", "fireplace", "body", "stomach", "liver", "friend", "coin", "fireplace", "dragon", "whistle", "tomb"], "key_times": [1790, 1949, 2055, 2365, 2584, 2952, 3095, 3444, 6170, 6363, 6542, 6766, 6797, 6981, 7516, 7888, 9886, 10662, 10889, 11104, 11343, 11535, 13351, 13481, 13592, 13951, 14180, 14379, 14527, 14689, 15044, 15200, 15346, 15953, 16181, 16367, 16560, 17677, 17895, 18112, 18319, 18576, 22448, 22753, 23019, 23127, 24118, 24490, 24683, 24864, 25004, 25424, 27609, 28144, 28329, 28506, 28817, 29112, 29408, 29589, 29838, 30068, 30430, 30539, 31542, 34678, 35617, 36013, 36206, 36384, 36629, 36702, 37029, 37486, 37904, 38211, 38711, 38979, 39126, 39280, 39451, 39704, 42054, 42620, 42765, 43099, 43386, 44497, 44719, 44858, 45001, 45290, 45727, 45911, 46014, 46192, 46336, 48898, 49452, 49708, 50288, 50393, 50465, 50665, 50869, 51160, 54122, 54305, 54425, 54572, 54879, 55122, 55266, 55608, 56904, 57106, 57410, 57592, 57862, 59457, 59664, 59946], "trial_type": "free-recall", "conditions": [18, 1200, "a", 18000], "internal_node_id": "0.0-57.0-0.0", "key_presses": [80, 69, 82, 70, 85, 77, 69, 13, 68, 73, 86, 69, 82, 13, 80, 79, 8, 73, 76, 79, 84, 13, 87, 72, 73, 83, 84, 76, 69, 13, 66, 85, 66, 66, 76, 69, 13, 71, 73, 70, 84, 13, 70, 73, 82, 69, 80, 76, 65, 67, 69, 13, 66, 79, 68, 89, 13, 83, 84, 79, 77, 65, 67, 72, 13, 83, 8, 76, 73, 86, 69, 82, 13, 70, 82, 69, 8, 73, 69, 78, 68, 13, 67, 79, 73, 78, 13, 70, 73, 82, 69, 80, 76, 65, 67, 69, 13, 68, 82, 71, 8, 65, 71, 79, 78, 13, 87, 72, 73, 83, 84, 76, 69, 13, 84, 79, 77, 66, 32, 84, 79, 77], "trial": 1, "time_elapsed": 477536, "type": "FREE_RECALL", "trial_index": 75}, "uniqueid": "MTK3079:3HMIGG0U4MDJVOM0CANSH2K74M48YK", "dateTime": 1520007797284}, {"current_trial": 76, "trialdata": {"rt": 21239, "trial_type": "text", "internal_node_id": "0.0-58.0", "time_elapsed": 500785, "key_press": 32, "type": "INSTRUCTIONS", "trial_index": 76}, "uniqueid": "MTK3079:3HMIGG0U4MDJVOM0CANSH2K74M48YK", "dateTime": 1520007820526}, {"current_trial": 77, "trialdata": {"rt": [3220, 9736, 11496], "trial_type": "math-distractor", "key_times": [2669, 2851, 3220, 9391, 9541, 9736, 10982, 11216, 11496], "responses": ["16", "22", "19"], "num2": [6, 6, 5, 5], "num3": [4, 7, 9, 6], "conditions": [12, 800, "a", 12000], "internal_node_id": "0.0-59.0", "key_presses": [97, 102, 13, 98, 98, 13, 97, 105, 13], "trial": 2, "time_elapsed": 513791, "type": "DISTRACTOR", "trial_index": 77, "num1": [6, 9, 5, 5]}, "uniqueid": "MTK3079:3HMIGG0U4MDJVOM0CANSH2K74M48YK", "dateTime": 1520007833533}, {"current_trial": 78, "trialdata": {"rt": -1, "trial_type": "single-stim", "stimulus": "<p id=\"stim\">10</p>", "internal_node_id": "0.0-60.0-0.0", "time_elapsed": 516794, "key_press": -1, "trial_index": 78}, "uniqueid": "MTK3079:3HMIGG0U4MDJVOM0CANSH2K74M48YK", "dateTime": 1520007836537}, {"current_trial": 79, "trialdata": {"rt": -1, "trial_type": "single-stim", "stimulus": "<p id=\"stim\">9</p>", "internal_node_id": "0.0-60.0-1.0", "time_elapsed": 517799, "key_press": -1, "trial_index": 79}, "uniqueid": "MTK3079:3HMIGG0U4MDJVOM0CANSH2K74M48YK", "dateTime": 1520007837540}, {"current_trial": 80, "trialdata": {"rt": -1, "trial_type": "single-stim", "stimulus": "<p id=\"stim\">8</p>", "internal_node_id": "0.0-60.0-2.0", "time_elapsed": 518858, "key_press": -1, "trial_index": 80}, "uniqueid": "MTK3079:3HMIGG0U4MDJVOM0CANSH2K74M48YK", "dateTime": 1520007838600}, {"current_trial": 81, "trialdata": {"rt": -1, "trial_type": "single-stim", "stimulus": "<p id=\"stim\">7</p>", "internal_node_id": "0.0-60.0-3.0", "time_elapsed": 519878, "key_press": -1, "trial_index": 81}, "uniqueid": "MTK3079:3HMIGG0U4MDJVOM0CANSH2K74M48YK", "dateTime": 1520007839619}, {"current_trial": 82, "trialdata": {"rt": -1, "trial_type": "single-stim", "stimulus": "<p id=\"stim\">6</p>", "internal_node_id": "0.0-60.0-4.0", "time_elapsed": 520885, "key_press": -1, "trial_index": 82}, "uniqueid": "MTK3079:3HMIGG0U4MDJVOM0CANSH2K74M48YK", "dateTime": 1520007840626}, {"current_trial": 83, "trialdata": {"rt": -1, "trial_type": "single-stim", "stimulus": "<p id=\"stim\">5</p>", "internal_node_id": "0.0-60.0-5.0", "time_elapsed": 521887, "key_press": -1, "trial_index": 83}, "uniqueid": "MTK3079:3HMIGG0U4MDJVOM0CANSH2K74M48YK", "dateTime": 1520007841630}, {"current_trial": 84, "trialdata": {"rt": -1, "trial_type": "single-stim", "stimulus": "<p id=\"stim\">4</p>", "internal_node_id": "0.0-60.0-6.0", "time_elapsed": 522896, "key_press": -1, "trial_index": 84}, "uniqueid": "MTK3079:3HMIGG0U4MDJVOM0CANSH2K74M48YK", "dateTime": 1520007842637}, {"current_trial": 85, "trialdata": {"rt": -1, "trial_type": "single-stim", "stimulus": "<p id=\"stim\">3</p>", "internal_node_id": "0.0-60.0-7.0", "time_elapsed": 523898, "key_press": -1, "trial_index": 85}, "uniqueid": "MTK3079:3HMIGG0U4MDJVOM0CANSH2K74M48YK", "dateTime": 1520007843640}, {"current_trial": 86, "trialdata": {"rt": -1, "trial_type": "single-stim", "stimulus": "<p id=\"stim\">2</p>", "internal_node_id": "0.0-60.0-8.0", "time_elapsed": 524900, "key_press": -1, "trial_index": 86}, "uniqueid": "MTK3079:3HMIGG0U4MDJVOM0CANSH2K74M48YK", "dateTime": 1520007844642}, {"current_trial": 87, "trialdata": {"rt": -1, "trial_type": "single-stim", "stimulus": "<p id=\"stim\">1</p>", "internal_node_id": "0.0-60.0-9.0", "time_elapsed": 525917, "key_press": -1, "trial_index": 87}, "uniqueid": "MTK3079:3HMIGG0U4MDJVOM0CANSH2K74M48YK", "dateTime": 1520007845658}, {"current_trial": 88, "trialdata": {"rt": -1, "trial_type": "single-stim", "stimulus": "<p id=\"stim\">+</p>", "internal_node_id": "0.0-61.0-0.0", "time_elapsed": 527443, "key_press": -1, "type": "FIXATION", "trial_index": 88}, "uniqueid": "MTK3079:3HMIGG0U4MDJVOM0CANSH2K74M48YK", "dateTime": 1520007847186}, {"current_trial": 89, "trialdata": {"rt": -1000, "trial_type": "single-audio", "word": "nomad", "stimulus": "/static/audio/wordpool/NOMAD.wav", "conditions": [12, 800, "a", 12000], "internal_node_id": "0.0-62.0", "trial": 2, "time_elapsed": 529077, "serialpos": 0, "key_press": -1, "wordID": 954, "type": "PRES_AUD", "trial_index": 89}, "uniqueid": "MTK3079:3HMIGG0U4MDJVOM0CANSH2K74M48YK", "dateTime": 1520007848818}, {"current_trial": 90, "trialdata": {"rt": -1000, "trial_type": "single-audio", "word": "briefcase", "stimulus": "/static/audio/wordpool/BRIEFCASE.wav", "conditions": [12, 800, "a", 12000], "internal_node_id": "0.0-63.0", "trial": 2, "time_elapsed": 531020, "serialpos": 1, "key_press": -1, "wordID": 174, "type": "PRES_AUD", "trial_index": 90}, "uniqueid": "MTK3079:3HMIGG0U4MDJVOM0CANSH2K74M48YK", "dateTime": 1520007850761}, {"current_trial": 91, "trialdata": {"rt": -1000, "trial_type": "single-audio", "word": "pocket", "stimulus": "/static/audio/wordpool/POCKET.wav", "conditions": [12, 800, "a", 12000], "internal_node_id": "0.0-64.0", "trial": 2, "time_elapsed": 532967, "serialpos": 2, "key_press": -1, "wordID": 1092, "type": "PRES_AUD", "trial_index": 91}, "uniqueid": "MTK3079:3HMIGG0U4MDJVOM0CANSH2K74M48YK", "dateTime": 1520007852708}, {"current_trial": 92, "trialdata": {"rt": -1000, "trial_type": "single-audio", "word": "drawing", "stimulus": "/static/audio/wordpool/DRAWING.wav", "conditions": [12, 800, "a", 12000], "internal_node_id": "0.0-65.0", "trial": 2, "time_elapsed": 534680, "serialpos": 3, "key_press": -1, "wordID": 493, "type": "PRES_AUD", "trial_index": 92}, "uniqueid": "MTK3079:3HMIGG0U4MDJVOM0CANSH2K74M48YK", "dateTime": 1520007854421}, {"current_trial": 93, "trialdata": {"rt": -1000, "trial_type": "single-audio", "word": "scribble", "stimulus": "/static/audio/wordpool/SCRIBBLE.wav", "conditions": [12, 800, "a", 12000], "internal_node_id": "0.0-66.0", "trial": 2, "time_elapsed": 536395, "serialpos": 4, "key_press": -1, "wordID": 1255, "type": "PRES_AUD", "trial_index": 93}, "uniqueid": "MTK3079:3HMIGG0U4MDJVOM0CANSH2K74M48YK", "dateTime": 1520007856137}, {"current_trial": 94, "trialdata": {"rt": -1000, "trial_type": "single-audio", "word": "skillet", "stimulus": "/static/audio/wordpool/SKILLET.wav", "conditions": [12, 800, "a", 12000], "internal_node_id": "0.0-67.0", "trial": 2, "time_elapsed": 538185, "serialpos": 5, "key_press": -1, "wordID": 1316, "type": "PRES_AUD", "trial_index": 94}, "uniqueid": "MTK3079:3HMIGG0U4MDJVOM0CANSH2K74M48YK", "dateTime": 1520007857926}, {"current_trial": 95, "trialdata": {"rt": -1000, "trial_type": "single-audio", "word": "leopard", "stimulus": "/static/audio/wordpool/LEOPARD.wav", "conditions": [12, 800, "a", 12000], "internal_node_id": "0.0-68.0", "trial": 2, "time_elapsed": 539906, "serialpos": 6, "key_press": -1, "wordID": 811, "type": "PRES_AUD", "trial_index": 95}, "uniqueid": "MTK3079:3HMIGG0U4MDJVOM0CANSH2K74M48YK", "dateTime": 1520007859648}, {"current_trial": 96, "trialdata": {"rt": -1000, "trial_type": "single-audio", "word": "burglar", "stimulus": "/static/audio/wordpool/BURGLAR.wav", "conditions": [12, 800, "a", 12000], "internal_node_id": "0.0-69.0", "trial": 2, "time_elapsed": 541713, "serialpos": 7, "key_press": -1, "wordID": 199, "type": "PRES_AUD", "trial_index": 96}, "uniqueid": "MTK3079:3HMIGG0U4MDJVOM0CANSH2K74M48YK", "dateTime": 1520007861454}, {"current_trial": 97, "trialdata": {"rt": -1000, "trial_type": "single-audio", "word": "farmer", "stimulus": "/static/audio/wordpool/FARMER.wav", "conditions": [12, 800, "a", 12000], "internal_node_id": "0.0-70.0", "trial": 2, "time_elapsed": 543453, "serialpos": 8, "key_press": -1, "wordID": 552, "type": "PRES_AUD", "trial_index": 97}, "uniqueid": "MTK3079:3HMIGG0U4MDJVOM0CANSH2K74M48YK", "dateTime": 1520007863195}, {"current_trial": 98, "trialdata": {"rt": -1000, "trial_type": "single-audio", "word": "zebra", "stimulus": "/static/audio/wordpool/ZEBRA.wav", "conditions": [12, 800, "a", 12000], "internal_node_id": "0.0-71.0", "trial": 2, "time_elapsed": 545276, "serialpos": 9, "key_press": -1, "wordID": 1634, "type": "PRES_AUD", "trial_index": 98}, "uniqueid": "MTK3079:3HMIGG0U4MDJVOM0CANSH2K74M48YK", "dateTime": 1520007865018}, {"current_trial": 99, "trialdata": {"rt": -1000, "trial_type": "single-audio", "word": "report", "stimulus": "/static/audio/wordpool/REPORT.wav", "conditions": [12, 800, "a", 12000], "internal_node_id": "0.0-72.0", "trial": 2, "time_elapsed": 547169, "serialpos": 10, "key_press": -1, "wordID": 1183, "type": "PRES_AUD", "trial_index": 99}, "uniqueid": "MTK3079:3HMIGG0U4MDJVOM0CANSH2K74M48YK", "dateTime": 1520007866910}, {"current_trial": 100, "trialdata": {"rt": -1000, "trial_type": "single-audio", "word": "possum", "stimulus": "/static/audio/wordpool/POSSUM.wav", "conditions": [12, 800, "a", 12000], "internal_node_id": "0.0-73.0", "trial": 2, "time_elapsed": 548811, "serialpos": 11, "key_press": -1, "wordID": 1111, "type": "PRES_AUD", "trial_index": 100}, "uniqueid": "MTK3079:3HMIGG0U4MDJVOM0CANSH2K74M48YK", "dateTime": 1520007868552}, {"current_trial": 101, "trialdata": {"rt": -1, "trial_type": "single-stim", "stimulus": "", "internal_node_id": "0.0-74.0-0.0", "time_elapsed": 550141, "key_press": -1, "type": "PRE_RECALL_DELAY", "trial_index": 101}, "uniqueid": "MTK3079:3HMIGG0U4MDJVOM0CANSH2K74M48YK", "dateTime": 1520007869882}, {"current_trial": 102, "trialdata": {"rt": -1000, "trial_type": "single-audio", "stimulus": "/static/audio/400Hz.wav", "internal_node_id": "0.0-75.0", "time_elapsed": 550644, "key_press": -1, "type": "PRE_RECALL_ALERT", "trial_index": 102}, "uniqueid": "MTK3079:3HMIGG0U4MDJVOM0CANSH2K74M48YK", "dateTime": 1520007870385}, {"current_trial": 103, "trialdata": {"rt": [5058, 9504, 14015, 16358, 18763, 20676, 24280, 32221, 43690, 56104], "recwords": ["nomac", "briefcase", "leopard", "farmer", "zebra", "report", "drawing", "skillet", "hoffa", "opposum"], "key_times": [2276, 2521, 3381, 3524, 3790, 4026, 4351, 4537, 4769, 5058, 6670, 6974, 7228, 7408, 7704, 8127, 8446, 8798, 9132, 9504, 9873, 10016, 10809, 11279, 11640, 11915, 12138, 12332, 12366, 13043, 13231, 14015, 15296, 15516, 15732, 15889, 16049, 16153, 16358, 16924, 17190, 17609, 17903, 18152, 18763, 19441, 19510, 19830, 20010, 20230, 20493, 20676, 22788, 23051, 23339, 23649, 23827, 23983, 24131, 24280, 31002, 31110, 31317, 31549, 31714, 31861, 32036, 32221, 41971, 42484, 42746, 43291, 43551, 43690, 46574, 47201, 47591, 48020, 48522, 48803, 49837, 50638, 51528, 51810, 52024, 52246, 52796, 53275, 53478, 53631, 53758, 53869, 54725, 54991, 55268, 55485, 55815, 56104], "trial_type": "free-recall", "conditions": [12, 800, "a", 12000], "internal_node_id": "0.0-76.0-0.0", "key_presses": [77, 79, 8, 8, 78, 79, 77, 65, 67, 13, 66, 82, 73, 69, 70, 67, 65, 83, 69, 13, 76, 69, 80, 8, 79, 80, 65, 82, 69, 8, 68, 13, 70, 65, 82, 77, 69, 82, 13, 90, 69, 66, 82, 65, 13, 82, 69, 80, 79, 82, 84, 13, 68, 82, 65, 87, 73, 78, 71, 13, 83, 75, 73, 76, 76, 69, 84, 13, 72, 79, 70, 70, 65, 13, 80, 8, 80, 8, 79, 80, 83, 8, 79, 83, 83, 85, 77, 8, 8, 8, 8, 8, 80, 79, 83, 85, 77, 13], "trial": 2, "time_elapsed": 610652, "type": "FREE_RECALL", "trial_index": 103}, "uniqueid": "MTK3079:3HMIGG0U4MDJVOM0CANSH2K74M48YK", "dateTime": 1520007930399}, {"current_trial": 104, "trialdata": {"rt": 25745, "trial_type": "text", "internal_node_id": "0.0-77.0", "time_elapsed": 638407, "key_press": 32, "type": "INSTRUCTIONS", "trial_index": 104}, "uniqueid": "MTK3079:3HMIGG0U4MDJVOM0CANSH2K74M48YK", "dateTime": 1520007958149}, {"current_trial": 105, "trialdata": {"rt": [1799, 4285, 6181, 11656, 14328, 17026, 19557, 21257, 23687], "trial_type": "math-distractor", "key_times": [1503, 1799, 3736, 3983, 4285, 5957, 6176, 6181, 8744, 10266, 11166, 11399, 11656, 13635, 13815, 14328, 16330, 16641, 17026, 19175, 19339, 19557, 20964, 21257, 23169, 23409, 23687], "responses": ["6", "17", "13", "19", "11", "19", "11", "8", "18"], "num2": [1, 4, 8, 2, 3, 2, 2, 1, 4, 6], "num3": [3, 4, 1, 8, 4, 9, 3, 6, 9, 9], "conditions": [12, 800, "a", 24000], "internal_node_id": "0.0-78.0", "key_presses": [102, 13, 97, 103, 13, 97, 99, 13, 97, 8, 97, 105, 13, 97, 97, 13, 97, 105, 13, 97, 97, 13, 104, 13, 97, 104, 13], "trial": 3, "time_elapsed": 664415, "type": "DISTRACTOR", "trial_index": 105, "num1": [2, 9, 4, 9, 4, 8, 6, 1, 5, 1]}, "uniqueid": "MTK3079:3HMIGG0U4MDJVOM0CANSH2K74M48YK", "dateTime": 1520007984157}, {"current_trial": 106, "trialdata": {"rt": -1, "trial_type": "single-stim", "stimulus": "<p id=\"stim\">10</p>", "internal_node_id": "0.0-79.0-0.0", "time_elapsed": 667419, "key_press": -1, "trial_index": 106}, "uniqueid": "MTK3079:3HMIGG0U4MDJVOM0CANSH2K74M48YK", "dateTime": 1520007987160}, {"current_trial": 107, "trialdata": {"rt": -1, "trial_type": "single-stim", "stimulus": "<p id=\"stim\">9</p>", "internal_node_id": "0.0-79.0-1.0", "time_elapsed": 668425, "key_press": -1, "trial_index": 107}, "uniqueid": "MTK3079:3HMIGG0U4MDJVOM0CANSH2K74M48YK", "dateTime": 1520007988167}, {"current_trial": 108, "trialdata": {"rt": -1, "trial_type": "single-stim", "stimulus": "<p id=\"stim\">8</p>", "internal_node_id": "0.0-79.0-2.0", "time_elapsed": 669428, "key_press": -1, "trial_index": 108}, "uniqueid": "MTK3079:3HMIGG0U4MDJVOM0CANSH2K74M48YK", "dateTime": 1520007989170}, {"current_trial": 109, "trialdata": {"rt": -1, "trial_type": "single-stim", "stimulus": "<p id=\"stim\">7</p>", "internal_node_id": "0.0-79.0-3.0", "time_elapsed": 670432, "key_press": -1, "trial_index": 109}, "uniqueid": "MTK3079:3HMIGG0U4MDJVOM0CANSH2K74M48YK", "dateTime": 1520007990173}, {"current_trial": 110, "trialdata": {"rt": -1, "trial_type": "single-stim", "stimulus": "<p id=\"stim\">6</p>", "internal_node_id": "0.0-79.0-4.0", "time_elapsed": 671442, "key_press": -1, "trial_index": 110}, "uniqueid": "MTK3079:3HMIGG0U4MDJVOM0CANSH2K74M48YK", "dateTime": 1520007991183}, {"current_trial": 111, "trialdata": {"rt": -1, "trial_type": "single-stim", "stimulus": "<p id=\"stim\">5</p>", "internal_node_id": "0.0-79.0-5.0", "time_elapsed": 672445, "key_press": -1, "trial_index": 111}, "uniqueid": "MTK3079:3HMIGG0U4MDJVOM0CANSH2K74M48YK", "dateTime": 1520007992186}, {"current_trial": 112, "trialdata": {"rt": -1, "trial_type": "single-stim", "stimulus": "<p id=\"stim\">4</p>", "internal_node_id": "0.0-79.0-6.0", "time_elapsed": 673449, "key_press": -1, "trial_index": 112}, "uniqueid": "MTK3079:3HMIGG0U4MDJVOM0CANSH2K74M48YK", "dateTime": 1520007993190}, {"current_trial": 113, "trialdata": {"rt": -1, "trial_type": "single-stim", "stimulus": "<p id=\"stim\">3</p>", "internal_node_id": "0.0-79.0-7.0", "time_elapsed": 674455, "key_press": -1, "trial_index": 113}, "uniqueid": "MTK3079:3HMIGG0U4MDJVOM0CANSH2K74M48YK", "dateTime": 1520007994196}, {"current_trial": 114, "trialdata": {"rt": -1, "trial_type": "single-stim", "stimulus": "<p id=\"stim\">2</p>", "internal_node_id": "0.0-79.0-8.0", "time_elapsed": 675458, "key_press": -1, "trial_index": 114}, "uniqueid": "MTK3079:3HMIGG0U4MDJVOM0CANSH2K74M48YK", "dateTime": 1520007995199}, {"current_trial": 115, "trialdata": {"rt": -1, "trial_type": "single-stim", "stimulus": "<p id=\"stim\">1</p>", "internal_node_id": "0.0-79.0-9.0", "time_elapsed": 676461, "key_press": -1, "trial_index": 115}, "uniqueid": "MTK3079:3HMIGG0U4MDJVOM0CANSH2K74M48YK", "dateTime": 1520007996202}, {"current_trial": 116, "trialdata": {"rt": -1, "trial_type": "single-stim", "stimulus": "<p id=\"stim\">+</p>", "internal_node_id": "0.0-80.0-0.0", "time_elapsed": 677966, "key_press": -1, "type": "FIXATION", "trial_index": 116}, "uniqueid": "MTK3079:3HMIGG0U4MDJVOM0CANSH2K74M48YK", "dateTime": 1520007997708}, {"current_trial": 117, "trialdata": {"rt": -1000, "trial_type": "single-audio", "word": "penguin", "stimulus": "/static/audio/wordpool/PENGUIN.wav", "conditions": [12, 800, "a", 24000], "internal_node_id": "0.0-81.0", "trial": 3, "time_elapsed": 679574, "serialpos": 0, "key_press": -1, "wordID": 1043, "type": "PRES_AUD", "trial_index": 117}, "uniqueid": "MTK3079:3HMIGG0U4MDJVOM0CANSH2K74M48YK", "dateTime": 1520007999316}, {"current_trial": 118, "trialdata": {"rt": -1000, "trial_type": "single-audio", "word": "panther", "stimulus": "/static/audio/wordpool/PANTHER.wav", "conditions": [12, 800, "a", 24000], "internal_node_id": "0.0-82.0", "trial": 3, "time_elapsed": 681429, "serialpos": 1, "key_press": -1, "wordID": 1008, "type": "PRES_AUD", "trial_index": 118}, "uniqueid": "MTK3079:3HMIGG0U4MDJVOM0CANSH2K74M48YK", "dateTime": 1520008001170}, {"current_trial": 119, "trialdata": {"rt": -1000, "trial_type": "single-audio", "word": "fox", "stimulus": "/static/audio/wordpool/FOX.wav", "conditions": [12, 800, "a", 24000], "internal_node_id": "0.0-83.0", "trial": 3, "time_elapsed": 683218, "serialpos": 2, "key_press": -1, "wordID": 597, "type": "PRES_AUD", "trial_index": 119}, "uniqueid": "MTK3079:3HMIGG0U4MDJVOM0CANSH2K74M48YK", "dateTime": 1520008002959}, {"current_trial": 120, "trialdata": {"rt": -1000, "trial_type": "single-audio", "word": "mailbox", "stimulus": "/static/audio/wordpool/MAILBOX.wav", "conditions": [12, 800, "a", 24000], "internal_node_id": "0.0-84.0", "trial": 3, "time_elapsed": 685160, "serialpos": 3, "key_press": -1, "wordID": 856, "type": "PRES_AUD", "trial_index": 120}, "uniqueid": "MTK3079:3HMIGG0U4MDJVOM0CANSH2K74M48YK", "dateTime": 1520008004903}, {"current_trial": 121, "trialdata": {"rt": -1000, "trial_type": "single-audio", "word": "staple", "stimulus": "/static/audio/wordpool/STAPLE.wav", "conditions": [12, 800, "a", 24000], "internal_node_id": "0.0-85.0", "trial": 3, "time_elapsed": 687134, "serialpos": 4, "key_press": -1, "wordID": 1370, "type": "PRES_AUD", "trial_index": 121}, "uniqueid": "MTK3079:3HMIGG0U4MDJVOM0CANSH2K74M48YK", "dateTime": 1520008006876}, {"current_trial": 122, "trialdata": {"rt": -1000, "trial_type": "single-audio", "word": "tablet", "stimulus": "/static/audio/wordpool/TABLET.wav", "conditions": [12, 800, "a", 24000], "internal_node_id": "0.0-86.0", "trial": 3, "time_elapsed": 689025, "serialpos": 5, "key_press": -1, "wordID": 1426, "type": "PRES_AUD", "trial_index": 122}, "uniqueid": "MTK3079:3HMIGG0U4MDJVOM0CANSH2K74M48YK", "dateTime": 1520008008768}, {"current_trial": 123, "trialdata": {"rt": -1000, "trial_type": "single-audio", "word": "venus", "stimulus": "/static/audio/wordpool/VENUS.wav", "conditions": [12, 800, "a", 24000], "internal_node_id": "0.0-87.0", "trial": 3, "time_elapsed": 690929, "serialpos": 6, "key_press": -1, "wordID": 1556, "type": "PRES_AUD", "trial_index": 123}, "uniqueid": "MTK3079:3HMIGG0U4MDJVOM0CANSH2K74M48YK", "dateTime": 1520008010670}, {"current_trial": 124, "trialdata": {"rt": -1000, "trial_type": "single-audio", "word": "orchid", "stimulus": "/static/audio/wordpool/ORCHID.wav", "conditions": [12, 800, "a", 24000], "internal_node_id": "0.0-88.0", "trial": 3, "time_elapsed": 692865, "serialpos": 7, "key_press": -1, "wordID": 981, "type": "PRES_AUD", "trial_index": 124}, "uniqueid": "MTK3079:3HMIGG0U4MDJVOM0CANSH2K74M48YK", "dateTime": 1520008012606}, {"current_trial": 125, "trialdata": {"rt": -1000, "trial_type": "single-audio", "word": "rifle", "stimulus": "/static/audio/wordpool/RIFLE.wav", "conditions": [12, 800, "a", 24000], "internal_node_id": "0.0-89.0", "trial": 3, "time_elapsed": 694665, "serialpos": 8, "key_press": -1, "wordID": 1191, "type": "PRES_AUD", "trial_index": 125}, "uniqueid": "MTK3079:3HMIGG0U4MDJVOM0CANSH2K74M48YK", "dateTime": 1520008014406}, {"current_trial": 126, "trialdata": {"rt": -1000, "trial_type": "single-audio", "word": "mammal", "stimulus": "/static/audio/wordpool/MAMMAL.wav", "conditions": [12, 800, "a", 24000], "internal_node_id": "0.0-90.0", "trial": 3, "time_elapsed": 696379, "serialpos": 9, "key_press": -1, "wordID": 860, "type": "PRES_AUD", "trial_index": 126}, "uniqueid": "MTK3079:3HMIGG0U4MDJVOM0CANSH2K74M48YK", "dateTime": 1520008016122}, {"current_trial": 127, "trialdata": {"rt": -1000, "trial_type": "single-audio", "word": "lily", "stimulus": "/static/audio/wordpool/LILY.wav", "conditions": [12, 800, "a", 24000], "internal_node_id": "0.0-91.0", "trial": 3, "time_elapsed": 698153, "serialpos": 10, "key_press": -1, "wordID": 820, "type": "PRES_AUD", "trial_index": 127}, "uniqueid": "MTK3079:3HMIGG0U4MDJVOM0CANSH2K74M48YK", "dateTime": 1520008017894}, {"current_trial": 128, "trialdata": {"rt": -1000, "trial_type": "single-audio", "word": "scissors", "stimulus": "/static/audio/wordpool/SCISSORS.wav", "conditions": [12, 800, "a", 24000], "internal_node_id": "0.0-92.0", "trial": 3, "time_elapsed": 700042, "serialpos": 11, "key_press": -1, "wordID": 1249, "type": "PRES_AUD", "trial_index": 128}, "uniqueid": "MTK3079:3HMIGG0U4MDJVOM0CANSH2K74M48YK", "dateTime": 1520008019783}, {"current_trial": 129, "trialdata": {"rt": -1, "trial_type": "single-stim", "stimulus": "", "internal_node_id": "0.0-93.0-0.0", "time_elapsed": 701272, "key_press": -1, "type": "PRE_RECALL_DELAY", "trial_index": 129}, "uniqueid": "MTK3079:3HMIGG0U4MDJVOM0CANSH2K74M48YK", "dateTime": 1520008021014}, {"current_trial": 130, "trialdata": {"rt": -1000, "trial_type": "single-audio", "stimulus": "/static/audio/400Hz.wav", "internal_node_id": "0.0-94.0", "time_elapsed": 701776, "key_press": -1, "type": "PRE_RECALL_ALERT", "trial_index": 130}, "uniqueid": "MTK3079:3HMIGG0U4MDJVOM0CANSH2K74M48YK", "dateTime": 1520008021517}, {"current_trial": 131, "trialdata": {"rt": [7221, 11683, 14111, 16065, 19591, 22126, 23808, 27880, 31307, 33913, 37960, 41868, 44009, 46239, 52790, 57453], "recwords": ["scissors", "mammal", "orchid", "lily", "panther", "venus", "fox", "staple", "mailbox", "tablet", "venus", "lily", "orchid", "tablet", "rifle", "mammel"], "key_times": [3028, 3334, 3535, 4001, 4880, 5303, 5596, 5798, 5975, 6413, 6653, 6991, 7221, 9042, 9187, 10084, 10250, 11225, 11370, 11683, 12838, 13004, 13429, 13540, 13688, 13884, 14111, 14552, 14750, 15409, 15636, 16065, 17953, 18142, 18316, 18524, 18670, 18939, 19047, 19591, 20826, 21014, 21320, 21540, 21777, 22126, 23126, 23355, 23582, 23808, 26300, 26606, 26863, 27084, 27326, 27436, 27880, 28273, 28418, 28559, 28755, 29177, 29371, 29812, 31307, 32025, 32236, 32571, 32796, 32944, 33324, 33913, 36815, 37141, 37410, 37604, 37781, 37960, 40381, 41023, 41271, 41551, 41868, 42896, 43044, 43387, 43534, 43624, 43770, 44009, 44561, 44761, 44994, 45181, 45327, 45876, 46239, 51791, 51941, 52273, 52463, 52611, 52790, 55184, 55349, 55532, 55744, 56178, 56530, 57453, 59915], "trial_type": "free-recall", "conditions": [12, 800, "a", 24000], "internal_node_id": "0.0-95.0-0.0", "key_presses": [83, 67, 86, 8, 79, 8, 73, 83, 83, 79, 82, 83, 13, 77, 65, 77, 77, 65, 76, 13, 79, 82, 67, 72, 73, 68, 13, 76, 73, 76, 89, 13, 80, 65, 78, 84, 72, 69, 82, 13, 86, 69, 78, 85, 83, 13, 70, 79, 88, 13, 83, 84, 65, 80, 76, 69, 13, 77, 65, 73, 76, 66, 79, 88, 13, 84, 65, 66, 76, 69, 84, 13, 86, 69, 78, 85, 83, 13, 76, 73, 76, 89, 13, 79, 82, 67, 72, 73, 68, 13, 84, 65, 66, 76, 69, 84, 13, 82, 73, 70, 76, 69, 13, 77, 65, 77, 77, 69, 76, 13, 77], "trial": 3, "time_elapsed": 761807, "type": "FREE_RECALL", "trial_index": 131}, "uniqueid": "MTK3079:3HMIGG0U4MDJVOM0CANSH2K74M48YK", "dateTime": 1520008081566}, {"current_trial": 132, "trialdata": {"rt": 15407, "trial_type": "text", "internal_node_id": "0.0-96.0", "time_elapsed": 779233, "key_press": 32, "type": "INSTRUCTIONS", "trial_index": 132}, "uniqueid": "MTK3079:3HMIGG0U4MDJVOM0CANSH2K74M48YK", "dateTime": 1520008098974}, {"current_trial": 133, "trialdata": {"rt": [2677, 5674, 9180], "trial_type": "math-distractor", "key_times": [2243, 2443, 2677, 5200, 5420, 5674, 8493, 8694, 9180, 11222], "responses": ["15", "15", "16"], "num2": [2, 4, 3, 9], "num3": [8, 3, 9, 8], "conditions": [24, 1600, "a", 12000], "internal_node_id": "0.0-97.0", "key_presses": [97, 101, 13, 97, 101, 13, 97, 102, 13, 98], "trial": 4, "time_elapsed": 793242, "type": "DISTRACTOR", "trial_index": 133, "num1": [5, 8, 4, 9]}, "uniqueid": "MTK3079:3HMIGG0U4MDJVOM0CANSH2K74M48YK", "dateTime": 1520008112983}, {"current_trial": 134, "trialdata": {"rt": -1, "trial_type": "single-stim", "stimulus": "<p id=\"stim\">10</p>", "internal_node_id": "0.0-98.0-0.0", "time_elapsed": 796248, "key_press": -1, "trial_index": 134}, "uniqueid": "MTK3079:3HMIGG0U4MDJVOM0CANSH2K74M48YK", "dateTime": 1520008115989}, {"current_trial": 135, "trialdata": {"rt": -1, "trial_type": "single-stim", "stimulus": "<p id=\"stim\">9</p>", "internal_node_id": "0.0-98.0-1.0", "time_elapsed": 797253, "key_press": -1, "trial_index": 135}, "uniqueid": "MTK3079:3HMIGG0U4MDJVOM0CANSH2K74M48YK", "dateTime": 1520008116995}, {"current_trial": 136, "trialdata": {"rt": -1, "trial_type": "single-stim", "stimulus": "<p id=\"stim\">8</p>", "internal_node_id": "0.0-98.0-2.0", "time_elapsed": 798260, "key_press": -1, "trial_index": 136}, "uniqueid": "MTK3079:3HMIGG0U4MDJVOM0CANSH2K74M48YK", "dateTime": 1520008118001}, {"current_trial": 137, "trialdata": {"rt": -1, "trial_type": "single-stim", "stimulus": "<p id=\"stim\">7</p>", "internal_node_id": "0.0-98.0-3.0", "time_elapsed": 799263, "key_press": -1, "trial_index": 137}, "uniqueid": "MTK3079:3HMIGG0U4MDJVOM0CANSH2K74M48YK", "dateTime": 1520008119004}, {"current_trial": 138, "trialdata": {"rt": -1, "trial_type": "single-stim", "stimulus": "<p id=\"stim\">6</p>", "internal_node_id": "0.0-98.0-4.0", "time_elapsed": 800271, "key_press": -1, "trial_index": 138}, "uniqueid": "MTK3079:3HMIGG0U4MDJVOM0CANSH2K74M48YK", "dateTime": 1520008120012}, {"current_trial": 139, "trialdata": {"rt": -1, "trial_type": "single-stim", "stimulus": "<p id=\"stim\">5</p>", "internal_node_id": "0.0-98.0-5.0", "time_elapsed": 801273, "key_press": -1, "trial_index": 139}, "uniqueid": "MTK3079:3HMIGG0U4MDJVOM0CANSH2K74M48YK", "dateTime": 1520008121014}, {"current_trial": 140, "trialdata": {"rt": -1, "trial_type": "single-stim", "stimulus": "<p id=\"stim\">4</p>", "internal_node_id": "0.0-98.0-6.0", "time_elapsed": 802276, "key_press": -1, "trial_index": 140}, "uniqueid": "MTK3079:3HMIGG0U4MDJVOM0CANSH2K74M48YK", "dateTime": 1520008122017}, {"current_trial": 141, "trialdata": {"rt": -1, "trial_type": "single-stim", "stimulus": "<p id=\"stim\">3</p>", "internal_node_id": "0.0-98.0-7.0", "time_elapsed": 803284, "key_press": -1, "trial_index": 141}, "uniqueid": "MTK3079:3HMIGG0U4MDJVOM0CANSH2K74M48YK", "dateTime": 1520008123025}, {"current_trial": 142, "trialdata": {"rt": -1, "trial_type": "single-stim", "stimulus": "<p id=\"stim\">2</p>", "internal_node_id": "0.0-98.0-8.0", "time_elapsed": 804284, "key_press": -1, "trial_index": 142}, "uniqueid": "MTK3079:3HMIGG0U4MDJVOM0CANSH2K74M48YK", "dateTime": 1520008124027}, {"current_trial": 143, "trialdata": {"rt": -1, "trial_type": "single-stim", "stimulus": "<p id=\"stim\">1</p>", "internal_node_id": "0.0-98.0-9.0", "time_elapsed": 805290, "key_press": -1, "trial_index": 143}, "uniqueid": "MTK3079:3HMIGG0U4MDJVOM0CANSH2K74M48YK", "dateTime": 1520008125031}, {"current_trial": 144, "trialdata": {"rt": -1, "trial_type": "single-stim", "stimulus": "<p id=\"stim\">+</p>", "internal_node_id": "0.0-99.0-0.0", "time_elapsed": 806791, "key_press": -1, "type": "FIXATION", "trial_index": 144}, "uniqueid": "MTK3079:3HMIGG0U4MDJVOM0CANSH2K74M48YK", "dateTime": 1520008126533}, {"current_trial": 145, "trialdata": {"rt": -1000, "trial_type": "single-audio", "word": "dashboard", "stimulus": "/static/audio/wordpool/DASHBOARD.wav", "conditions": [24, 1600, "a", 12000], "internal_node_id": "0.0-100.0", "trial": 4, "time_elapsed": 809423, "serialpos": 0, "key_press": -1, "wordID": 440, "type": "PRES_AUD", "trial_index": 145}, "uniqueid": "MTK3079:3HMIGG0U4MDJVOM0CANSH2K74M48YK", "dateTime": 1520008129164}, {"current_trial": 146, "trialdata": {"rt": -1000, "trial_type": "single-audio", "word": "suitcase", "stimulus": "/static/audio/wordpool/SUITCASE.wav", "conditions": [24, 1600, "a", 12000], "internal_node_id": "0.0-101.0", "trial": 4, "time_elapsed": 812032, "serialpos": 1, "key_press": -1, "wordID": 1402, "type": "PRES_AUD", "trial_index": 146}, "uniqueid": "MTK3079:3HMIGG0U4MDJVOM0CANSH2K74M48YK", "dateTime": 1520008131773}, {"current_trial": 147, "trialdata": {"rt": -1000, "trial_type": "single-audio", "word": "wrist", "stimulus": "/static/audio/wordpool/WRIST.wav", "conditions": [24, 1600, "a", 12000], "internal_node_id": "0.0-102.0", "trial": 4, "time_elapsed": 814548, "serialpos": 2, "key_press": -1, "wordID": 1625, "type": "PRES_AUD", "trial_index": 147}, "uniqueid": "MTK3079:3HMIGG0U4MDJVOM0CANSH2K74M48YK", "dateTime": 1520008134290}, {"current_trial": 148, "trialdata": {"rt": -1000, "trial_type": "single-audio", "word": "temple", "stimulus": "/static/audio/wordpool/TEMPLE.wav", "conditions": [24, 1600, "a", 12000], "internal_node_id": "0.0-103.0", "trial": 4, "time_elapsed": 817271, "serialpos": 3, "key_press": -1, "wordID": 1447, "type": "PRES_AUD", "trial_index": 148}, "uniqueid": "MTK3079:3HMIGG0U4MDJVOM0CANSH2K74M48YK", "dateTime": 1520008137014}, {"current_trial": 149, "trialdata": {"rt": -1000, "trial_type": "single-audio", "word": "luggage", "stimulus": "/static/audio/wordpool/LUGGAGE.wav", "conditions": [24, 1600, "a", 12000], "internal_node_id": "0.0-104.0", "trial": 4, "time_elapsed": 820041, "serialpos": 4, "key_press": -1, "wordID": 846, "type": "PRES_AUD", "trial_index": 149}, "uniqueid": "MTK3079:3HMIGG0U4MDJVOM0CANSH2K74M48YK", "dateTime": 1520008139782}, {"current_trial": 150, "trialdata": {"rt": -1000, "trial_type": "single-audio", "word": "london", "stimulus": "/static/audio/wordpool/LONDON.wav", "conditions": [24, 1600, "a", 12000], "internal_node_id": "0.0-105.0", "trial": 4, "time_elapsed": 822607, "serialpos": 5, "key_press": -1, "wordID": 842, "type": "PRES_AUD", "trial_index": 150}, "uniqueid": "MTK3079:3HMIGG0U4MDJVOM0CANSH2K74M48YK", "dateTime": 1520008142349}, {"current_trial": 151, "trialdata": {"rt": -1000, "trial_type": "single-audio", "word": "cousin", "stimulus": "/static/audio/wordpool/COUSIN.wav", "conditions": [24, 1600, "a", 12000], "internal_node_id": "0.0-106.0", "trial": 4, "time_elapsed": 825396, "serialpos": 6, "key_press": -1, "wordID": 391, "type": "PRES_AUD", "trial_index": 151}, "uniqueid": "MTK3079:3HMIGG0U4MDJVOM0CANSH2K74M48YK", "dateTime": 1520008145139}, {"current_trial": 152, "trialdata": {"rt": -1000, "trial_type": "single-audio", "word": "woman", "stimulus": "/static/audio/wordpool/WOMAN.wav", "conditions": [24, 1600, "a", 12000], "internal_node_id": "0.0-107.0", "trial": 4, "time_elapsed": 828046, "serialpos": 7, "key_press": -1, "wordID": 1619, "type": "PRES_AUD", "trial_index": 152}, "uniqueid": "MTK3079:3HMIGG0U4MDJVOM0CANSH2K74M48YK", "dateTime": 1520008147787}, {"current_trial": 153, "trialdata": {"rt": -1000, "trial_type": "single-audio", "word": "girl", "stimulus": "/static/audio/wordpool/GIRL.wav", "conditions": [24, 1600, "a", 12000], "internal_node_id": "0.0-108.0", "trial": 4, "time_elapsed": 830687, "serialpos": 8, "key_press": -1, "wordID": 636, "type": "PRES_AUD", "trial_index": 153}, "uniqueid": "MTK3079:3HMIGG0U4MDJVOM0CANSH2K74M48YK", "dateTime": 1520008150428}, {"current_trial": 154, "trialdata": {"rt": -1000, "trial_type": "single-audio", "word": "valley", "stimulus": "/static/audio/wordpool/VALLEY.wav", "conditions": [24, 1600, "a", 12000], "internal_node_id": "0.0-109.0", "trial": 4, "time_elapsed": 833463, "serialpos": 9, "key_press": -1, "wordID": 1544, "type": "PRES_AUD", "trial_index": 154}, "uniqueid": "MTK3079:3HMIGG0U4MDJVOM0CANSH2K74M48YK", "dateTime": 1520008153205}, {"current_trial": 155, "trialdata": {"rt": -1000, "trial_type": "single-audio", "word": "tourist", "stimulus": "/static/audio/wordpool/TOURIST.wav", "conditions": [24, 1600, "a", 12000], "internal_node_id": "0.0-110.0", "trial": 4, "time_elapsed": 836244, "serialpos": 10, "key_press": -1, "wordID": 1487, "type": "PRES_AUD", "trial_index": 155}, "uniqueid": "MTK3079:3HMIGG0U4MDJVOM0CANSH2K74M48YK", "dateTime": 1520008155986}, {"current_trial": 156, "trialdata": {"rt": -1000, "trial_type": "single-audio", "word": "chemist", "stimulus": "/static/audio/wordpool/CHEMIST.wav", "conditions": [24, 1600, "a", 12000], "internal_node_id": "0.0-111.0", "trial": 4, "time_elapsed": 838826, "serialpos": 11, "key_press": -1, "wordID": 291, "type": "PRES_AUD", "trial_index": 156}, "uniqueid": "MTK3079:3HMIGG0U4MDJVOM0CANSH2K74M48YK", "dateTime": 1520008158568}, {"current_trial": 157, "trialdata": {"rt": -1000, "trial_type": "single-audio", "word": "subway", "stimulus": "/static/audio/wordpool/SUBWAY.wav", "conditions": [24, 1600, "a", 12000], "internal_node_id": "0.0-112.0", "trial": 4, "time_elapsed": 841513, "serialpos": 12, "key_press": -1, "wordID": 1399, "type": "PRES_AUD", "trial_index": 157}, "uniqueid": "MTK3079:3HMIGG0U4MDJVOM0CANSH2K74M48YK", "dateTime": 1520008161254}, {"current_trial": 158, "trialdata": {"rt": -1000, "trial_type": "single-audio", "word": "plaster", "stimulus": "/static/audio/wordpool/PLASTER.wav", "conditions": [24, 1600, "a", 12000], "internal_node_id": "0.0-113.0", "trial": 4, "time_elapsed": 844315, "serialpos": 13, "key_press": -1, "wordID": 1084, "type": "PRES_AUD", "trial_index": 158}, "uniqueid": "MTK3079:3HMIGG0U4MDJVOM0CANSH2K74M48YK", "dateTime": 1520008164056}, {"current_trial": 159, "trialdata": {"rt": -1000, "trial_type": "single-audio", "word": "ozone", "stimulus": "/static/audio/wordpool/OZONE.wav", "conditions": [24, 1600, "a", 12000], "internal_node_id": "0.0-114.0", "trial": 4, "time_elapsed": 847115, "serialpos": 14, "key_press": -1, "wordID": 995, "type": "PRES_AUD", "trial_index": 159}, "uniqueid": "MTK3079:3HMIGG0U4MDJVOM0CANSH2K74M48YK", "dateTime": 1520008166857}, {"current_trial": 160, "trialdata": {"rt": -1000, "trial_type": "single-audio", "word": "smog", "stimulus": "/static/audio/wordpool/SMOG.wav", "conditions": [24, 1600, "a", 12000], "internal_node_id": "0.0-115.0", "trial": 4, "time_elapsed": 849614, "serialpos": 15, "key_press": -1, "wordID": 1329, "type": "PRES_AUD", "trial_index": 160}, "uniqueid": "MTK3079:3HMIGG0U4MDJVOM0CANSH2K74M48YK", "dateTime": 1520008169355}, {"current_trial": 161, "trialdata": {"rt": -1000, "trial_type": "single-audio", "word": "match", "stimulus": "/static/audio/wordpool/MATCH.wav", "conditions": [24, 1600, "a", 12000], "internal_node_id": "0.0-116.0", "trial": 4, "time_elapsed": 852200, "serialpos": 16, "key_press": -1, "wordID": 877, "type": "PRES_AUD", "trial_index": 161}, "uniqueid": "MTK3079:3HMIGG0U4MDJVOM0CANSH2K74M48YK", "dateTime": 1520008171941}, {"current_trial": 162, "trialdata": {"rt": -1000, "trial_type": "single-audio", "word": "snake", "stimulus": "/static/audio/wordpool/SNAKE.wav", "conditions": [24, 1600, "a", 12000], "internal_node_id": "0.0-117.0", "trial": 4, "time_elapsed": 854663, "serialpos": 17, "key_press": -1, "wordID": 1332, "type": "PRES_AUD", "trial_index": 162}, "uniqueid": "MTK3079:3HMIGG0U4MDJVOM0CANSH2K74M48YK", "dateTime": 1520008174404}, {"current_trial": 163, "trialdata": {"rt": -1000, "trial_type": "single-audio", "word": "razor", "stimulus": "/static/audio/wordpool/RAZOR.wav", "conditions": [24, 1600, "a", 12000], "internal_node_id": "0.0-118.0", "trial": 4, "time_elapsed": 857372, "serialpos": 18, "key_press": -1, "wordID": 1170, "type": "PRES_AUD", "trial_index": 163}, "uniqueid": "MTK3079:3HMIGG0U4MDJVOM0CANSH2K74M48YK", "dateTime": 1520008177113}, {"current_trial": 164, "trialdata": {"rt": -1000, "trial_type": "single-audio", "word": "mop", "stimulus": "/static/audio/wordpool/MOP.wav", "conditions": [24, 1600, "a", 12000], "internal_node_id": "0.0-119.0", "trial": 4, "time_elapsed": 860082, "serialpos": 19, "key_press": -1, "wordID": 915, "type": "PRES_AUD", "trial_index": 164}, "uniqueid": "MTK3079:3HMIGG0U4MDJVOM0CANSH2K74M48YK", "dateTime": 1520008179823}, {"current_trial": 165, "trialdata": {"rt": -1000, "trial_type": "single-audio", "word": "playground", "stimulus": "/static/audio/wordpool/PLAYGROUND.wav", "conditions": [24, 1600, "a", 12000], "internal_node_id": "0.0-120.0", "trial": 4, "time_elapsed": 862801, "serialpos": 20, "key_press": -1, "wordID": 1086, "type": "PRES_AUD", "trial_index": 165}, "uniqueid": "MTK3079:3HMIGG0U4MDJVOM0CANSH2K74M48YK", "dateTime": 1520008182543}, {"current_trial": 166, "trialdata": {"rt": -1000, "trial_type": "single-audio", "word": "machine", "stimulus": "/static/audio/wordpool/MACHINE.wav", "conditions": [24, 1600, "a", 12000], "internal_node_id": "0.0-121.0", "trial": 4, "time_elapsed": 865270, "serialpos": 21, "key_press": -1, "wordID": 851, "type": "PRES_AUD", "trial_index": 166}, "uniqueid": "MTK3079:3HMIGG0U4MDJVOM0CANSH2K74M48YK", "dateTime": 1520008185011}, {"current_trial": 167, "trialdata": {"rt": -1000, "trial_type": "single-audio", "word": "tortoise", "stimulus": "/static/audio/wordpool/TORTOISE.wav", "conditions": [24, 1600, "a", 12000], "internal_node_id": "0.0-122.0", "trial": 4, "time_elapsed": 867877, "serialpos": 22, "key_press": -1, "wordID": 1485, "type": "PRES_AUD", "trial_index": 167}, "uniqueid": "MTK3079:3HMIGG0U4MDJVOM0CANSH2K74M48YK", "dateTime": 1520008187618}, {"current_trial": 168, "trialdata": {"rt": -1000, "trial_type": "single-audio", "word": "sidewalk", "stimulus": "/static/audio/wordpool/SIDEWALK.wav", "conditions": [24, 1600, "a", 12000], "internal_node_id": "0.0-123.0", "trial": 4, "time_elapsed": 870682, "serialpos": 23, "key_press": -1, "wordID": 1302, "type": "PRES_AUD", "trial_index": 168}, "uniqueid": "MTK3079:3HMIGG0U4MDJVOM0CANSH2K74M48YK", "dateTime": 1520008190423}, {"current_trial": 169, "trialdata": {"rt": -1, "trial_type": "single-stim", "stimulus": "", "internal_node_id": "0.0-124.0-0.0", "time_elapsed": 872090, "key_press": -1, "type": "PRE_RECALL_DELAY", "trial_index": 169}, "uniqueid": "MTK3079:3HMIGG0U4MDJVOM0CANSH2K74M48YK", "dateTime": 1520008191832}, {"current_trial": 170, "trialdata": {"rt": -1000, "trial_type": "single-audio", "stimulus": "/static/audio/400Hz.wav", "internal_node_id": "0.0-125.0", "time_elapsed": 872593, "key_press": -1, "type": "PRE_RECALL_ALERT", "trial_index": 170}, "uniqueid": "MTK3079:3HMIGG0U4MDJVOM0CANSH2K74M48YK", "dateTime": 1520008192334}, {"current_trial": 171, "trialdata": {"rt": [4417, 10988, 18646, 20835, 25664, 28362, 34060, 37932, 38995, 41436, 44732, 48490, 51461, 55280, 59472], "recwords": ["sidewalk", "tortise", "playground", "london", "suitcase", "tourist", "luggage", "valley", "girl", "temple", "wrist", "cousin", "woman", "subway", "ozone"], "key_times": [2600, 2831, 2989, 3167, 3563, 3747, 3925, 3996, 4417, 5159, 5437, 5547, 5693, 6843, 7047, 7373, 7861, 8329, 8447, 8635, 9044, 9966, 10988, 15675, 15964, 16108, 16389, 16574, 16920, 17102, 17143, 17365, 17511, 17915, 18088, 18362, 18477, 18646, 19048, 19278, 19537, 19757, 20243, 20520, 20835, 23248, 23320, 23561, 23751, 24410, 24668, 25026, 25250, 25664, 26983, 27214, 27322, 27431, 27737, 27884, 28134, 28362, 30754, 30993, 31188, 31384, 32680, 33328, 33475, 33547, 33750, 34060, 36795, 37037, 37221, 37368, 37479, 37663, 37932, 38229, 38373, 38520, 38698, 38995, 39457, 39759, 39984, 40221, 40456, 40573, 41436, 43539, 43790, 44090, 44238, 44413, 44732, 47245, 47403, 47569, 47784, 48005, 48249, 48490, 48792, 48902, 49319, 49517, 49626, 50288, 50476, 50620, 50941, 51085, 51190, 51461, 53633, 53897, 54067, 54542, 54798, 54942, 55280, 57904, 58045, 58619, 58843, 58959, 59472], "trial_type": "free-recall", "conditions": [24, 1600, "a", 12000], "internal_node_id": "0.0-126.0-0.0", "key_presses": [83, 73, 68, 69, 87, 65, 76, 75, 13, 84, 79, 85, 82, 8, 8, 82, 73, 8, 84, 73, 83, 69, 13, 80, 76, 65, 89, 71, 82, 79, 85, 68, 78, 8, 8, 78, 68, 13, 76, 79, 78, 68, 79, 78, 13, 83, 85, 73, 84, 67, 65, 83, 69, 13, 84, 79, 85, 82, 73, 83, 84, 13, 76, 85, 71, 71, 69, 8, 65, 71, 69, 13, 86, 65, 76, 76, 69, 89, 13, 71, 73, 82, 76, 13, 84, 69, 77, 80, 76, 69, 13, 87, 82, 73, 83, 84, 13, 67, 79, 85, 83, 73, 78, 13, 87, 79, 78, 65, 77, 8, 8, 8, 77, 65, 78, 13, 83, 85, 66, 87, 65, 89, 13, 79, 90, 79, 78, 69, 13], "trial": 4, "time_elapsed": 932615, "type": "FREE_RECALL", "trial_index": 171}, "uniqueid": "MTK3079:3HMIGG0U4MDJVOM0CANSH2K74M48YK", "dateTime": 1520008252368}, {"current_trial": 172, "trialdata": {"rt": 11158, "trial_type": "text", "internal_node_id": "0.0-127.0", "time_elapsed": 945789, "key_press": 32, "type": "INSTRUCTIONS", "trial_index": 172}, "uniqueid": "MTK3079:3HMIGG0U4MDJVOM0CANSH2K74M48YK", "dateTime": 1520008265530}, {"current_trial": 173, "trialdata": {"rt": [1792, 4238, 6161, 7553, 10060], "trial_type": "math-distractor", "key_times": [1535, 1792, 3829, 4025, 4238, 5746, 5949, 6161, 7294, 7553, 9264, 9493, 10060, 11592], "responses": ["8", "14", "14", "6", "19"], "num2": [1, 4, 6, 1, 8, 2], "num3": [4, 7, 3, 2, 5, 6], "conditions": [24, 800, "a", 12000], "internal_node_id": "0.0-128.0", "key_presses": [104, 13, 97, 100, 13, 97, 100, 13, 102, 13, 97, 105, 13, 97], "trial": 5, "time_elapsed": 959807, "type": "DISTRACTOR", "trial_index": 173, "num1": [3, 3, 5, 3, 6, 8]}, "uniqueid": "MTK3079:3HMIGG0U4MDJVOM0CANSH2K74M48YK", "dateTime": 1520008279548}, {"current_trial": 174, "trialdata": {"rt": -1, "trial_type": "single-stim", "stimulus": "<p id=\"stim\">10</p>", "internal_node_id": "0.0-129.0-0.0", "time_elapsed": 962812, "key_press": -1, "trial_index": 174}, "uniqueid": "MTK3079:3HMIGG0U4MDJVOM0CANSH2K74M48YK", "dateTime": 1520008282553}, {"current_trial": 175, "trialdata": {"rt": -1, "trial_type": "single-stim", "stimulus": "<p id=\"stim\">9</p>", "internal_node_id": "0.0-129.0-1.0", "time_elapsed": 963814, "key_press": -1, "trial_index": 175}, "uniqueid": "MTK3079:3HMIGG0U4MDJVOM0CANSH2K74M48YK", "dateTime": 1520008283556}, {"current_trial": 176, "trialdata": {"rt": -1, "trial_type": "single-stim", "stimulus": "<p id=\"stim\">8</p>", "internal_node_id": "0.0-129.0-2.0", "time_elapsed": 964831, "key_press": -1, "trial_index": 176}, "uniqueid": "MTK3079:3HMIGG0U4MDJVOM0CANSH2K74M48YK", "dateTime": 1520008284573}, {"current_trial": 177, "trialdata": {"rt": -1, "trial_type": "single-stim", "stimulus": "<p id=\"stim\">7</p>", "internal_node_id": "0.0-129.0-3.0", "time_elapsed": 965835, "key_press": -1, "trial_index": 177}, "uniqueid": "MTK3079:3HMIGG0U4MDJVOM0CANSH2K74M48YK", "dateTime": 1520008285576}, {"current_trial": 178, "trialdata": {"rt": -1, "trial_type": "single-stim", "stimulus": "<p id=\"stim\">6</p>", "internal_node_id": "0.0-129.0-4.0", "time_elapsed": 966836, "key_press": -1, "trial_index": 178}, "uniqueid": "MTK3079:3HMIGG0U4MDJVOM0CANSH2K74M48YK", "dateTime": 1520008286578}, {"current_trial": 179, "trialdata": {"rt": -1, "trial_type": "single-stim", "stimulus": "<p id=\"stim\">5</p>", "internal_node_id": "0.0-129.0-5.0", "time_elapsed": 967844, "key_press": -1, "trial_index": 179}, "uniqueid": "MTK3079:3HMIGG0U4MDJVOM0CANSH2K74M48YK", "dateTime": 1520008287586}, {"current_trial": 180, "trialdata": {"rt": -1, "trial_type": "single-stim", "stimulus": "<p id=\"stim\">4</p>", "internal_node_id": "0.0-129.0-6.0", "time_elapsed": 968847, "key_press": -1, "trial_index": 180}, "uniqueid": "MTK3079:3HMIGG0U4MDJVOM0CANSH2K74M48YK", "dateTime": 1520008288588}, {"current_trial": 181, "trialdata": {"rt": -1, "trial_type": "single-stim", "stimulus": "<p id=\"stim\">3</p>", "internal_node_id": "0.0-129.0-7.0", "time_elapsed": 969850, "key_press": -1, "trial_index": 181}, "uniqueid": "MTK3079:3HMIGG0U4MDJVOM0CANSH2K74M48YK", "dateTime": 1520008289591}, {"current_trial": 182, "trialdata": {"rt": -1, "trial_type": "single-stim", "stimulus": "<p id=\"stim\">2</p>", "internal_node_id": "0.0-129.0-8.0", "time_elapsed": 970860, "key_press": -1, "trial_index": 182}, "uniqueid": "MTK3079:3HMIGG0U4MDJVOM0CANSH2K74M48YK", "dateTime": 1520008290602}, {"current_trial": 183, "trialdata": {"rt": -1, "trial_type": "single-stim", "stimulus": "<p id=\"stim\">1</p>", "internal_node_id": "0.0-129.0-9.0", "time_elapsed": 971862, "key_press": -1, "trial_index": 183}, "uniqueid": "MTK3079:3HMIGG0U4MDJVOM0CANSH2K74M48YK", "dateTime": 1520008291604}, {"current_trial": 184, "trialdata": {"rt": -1, "trial_type": "single-stim", "stimulus": "<p id=\"stim\">+</p>", "internal_node_id": "0.0-130.0-0.0", "time_elapsed": 973367, "key_press": -1, "type": "FIXATION", "trial_index": 184}, "uniqueid": "MTK3079:3HMIGG0U4MDJVOM0CANSH2K74M48YK", "dateTime": 1520008293108}, {"current_trial": 185, "trialdata": {"rt": -1000, "trial_type": "single-audio", "word": "lizard", "stimulus": "/static/audio/wordpool/LIZARD.wav", "conditions": [24, 800, "a", 12000], "internal_node_id": "0.0-131.0", "trial": 5, "time_elapsed": 975235, "serialpos": 0, "key_press": -1, "wordID": 833, "type": "PRES_AUD", "trial_index": 185}, "uniqueid": "MTK3079:3HMIGG0U4MDJVOM0CANSH2K74M48YK", "dateTime": 1520008294976}, {"current_trial": 186, "trialdata": {"rt": -1000, "trial_type": "single-audio", "word": "egypt", "stimulus": "/static/audio/wordpool/EGYPT.wav", "conditions": [24, 800, "a", 12000], "internal_node_id": "0.0-132.0", "trial": 5, "time_elapsed": 977102, "serialpos": 1, "key_press": -1, "wordID": 518, "type": "PRES_AUD", "trial_index": 186}, "uniqueid": "MTK3079:3HMIGG0U4MDJVOM0CANSH2K74M48YK", "dateTime": 1520008296847}, {"current_trial": 187, "trialdata": {"rt": -1000, "trial_type": "single-audio", "word": "lace", "stimulus": "/static/audio/wordpool/LACE.wav", "conditions": [24, 800, "a", 12000], "internal_node_id": "0.0-133.0", "trial": 5, "time_elapsed": 978854, "serialpos": 2, "key_press": -1, "wordID": 791, "type": "PRES_AUD", "trial_index": 187}, "uniqueid": "MTK3079:3HMIGG0U4MDJVOM0CANSH2K74M48YK", "dateTime": 1520008298596}, {"current_trial": 188, "trialdata": {"rt": -1000, "trial_type": "single-audio", "word": "island", "stimulus": "/static/audio/wordpool/ISLAND.wav", "conditions": [24, 800, "a", 12000], "internal_node_id": "0.0-134.0", "trial": 5, "time_elapsed": 980851, "serialpos": 3, "key_press": -1, "wordID": 744, "type": "PRES_AUD", "trial_index": 188}, "uniqueid": "MTK3079:3HMIGG0U4MDJVOM0CANSH2K74M48YK", "dateTime": 1520008300592}, {"current_trial": 189, "trialdata": {"rt": -1000, "trial_type": "single-audio", "word": "helmet", "stimulus": "/static/audio/wordpool/HELMET.wav", "conditions": [24, 800, "a", 12000], "internal_node_id": "0.0-135.0", "trial": 5, "time_elapsed": 982851, "serialpos": 4, "key_press": -1, "wordID": 701, "type": "PRES_AUD", "trial_index": 189}, "uniqueid": "MTK3079:3HMIGG0U4MDJVOM0CANSH2K74M48YK", "dateTime": 1520008302593}, {"current_trial": 190, "trialdata": {"rt": -1000, "trial_type": "single-audio", "word": "snail", "stimulus": "/static/audio/wordpool/SNAIL.wav", "conditions": [24, 800, "a", 12000], "internal_node_id": "0.0-136.0", "trial": 5, "time_elapsed": 984634, "serialpos": 5, "key_press": -1, "wordID": 1331, "type": "PRES_AUD", "trial_index": 190}, "uniqueid": "MTK3079:3HMIGG0U4MDJVOM0CANSH2K74M48YK", "dateTime": 1520008304376}, {"current_trial": 191, "trialdata": {"rt": -1000, "trial_type": "single-audio", "word": "shortcake", "stimulus": "/static/audio/wordpool/SHORTCAKE.wav", "conditions": [24, 800, "a", 12000], "internal_node_id": "0.0-137.0", "trial": 5, "time_elapsed": 986520, "serialpos": 6, "key_press": -1, "wordID": 1291, "type": "PRES_AUD", "trial_index": 191}, "uniqueid": "MTK3079:3HMIGG0U4MDJVOM0CANSH2K74M48YK", "dateTime": 1520008306261}, {"current_trial": 192, "trialdata": {"rt": -1000, "trial_type": "single-audio", "word": "antler", "stimulus": "/static/audio/wordpool/ANTLER.wav", "conditions": [24, 800, "a", 12000], "internal_node_id": "0.0-138.0", "trial": 5, "time_elapsed": 988476, "serialpos": 7, "key_press": -1, "wordID": 28, "type": "PRES_AUD", "trial_index": 192}, "uniqueid": "MTK3079:3HMIGG0U4MDJVOM0CANSH2K74M48YK", "dateTime": 1520008308217}, {"current_trial": 193, "trialdata": {"rt": -1000, "trial_type": "single-audio", "word": "scallop", "stimulus": "/static/audio/wordpool/SCALLOP.wav", "conditions": [24, 800, "a", 12000], "internal_node_id": "0.0-139.0", "trial": 5, "time_elapsed": 990394, "serialpos": 8, "key_press": -1, "wordID": 1241, "type": "PRES_AUD", "trial_index": 193}, "uniqueid": "MTK3079:3HMIGG0U4MDJVOM0CANSH2K74M48YK", "dateTime": 1520008310135}, {"current_trial": 194, "trialdata": {"rt": -1000, "trial_type": "single-audio", "word": "driver", "stimulus": "/static/audio/wordpool/DRIVER.wav", "conditions": [24, 800, "a", 12000], "internal_node_id": "0.0-140.0", "trial": 5, "time_elapsed": 992011, "serialpos": 9, "key_press": -1, "wordID": 498, "type": "PRES_AUD", "trial_index": 194}, "uniqueid": "MTK3079:3HMIGG0U4MDJVOM0CANSH2K74M48YK", "dateTime": 1520008311753}, {"current_trial": 195, "trialdata": {"rt": -1000, "trial_type": "single-audio", "word": "truck", "stimulus": "/static/audio/wordpool/TRUCK.wav", "conditions": [24, 800, "a", 12000], "internal_node_id": "0.0-141.0", "trial": 5, "time_elapsed": 993633, "serialpos": 10, "key_press": -1, "wordID": 1511, "type": "PRES_AUD", "trial_index": 195}, "uniqueid": "MTK3079:3HMIGG0U4MDJVOM0CANSH2K74M48YK", "dateTime": 1520008313374}, {"current_trial": 196, "trialdata": {"rt": -1000, "trial_type": "single-audio", "word": "grape", "stimulus": "/static/audio/wordpool/GRAPE.wav", "conditions": [24, 800, "a", 12000], "internal_node_id": "0.0-142.0", "trial": 5, "time_elapsed": 995554, "serialpos": 11, "key_press": -1, "wordID": 653, "type": "PRES_AUD", "trial_index": 196}, "uniqueid": "MTK3079:3HMIGG0U4MDJVOM0CANSH2K74M48YK", "dateTime": 1520008315295}, {"current_trial": 197, "trialdata": {"rt": -1000, "trial_type": "single-audio", "word": "soda", "stimulus": "/static/audio/wordpool/SODA.wav", "conditions": [24, 800, "a", 12000], "internal_node_id": "0.0-143.0", "trial": 5, "time_elapsed": 997456, "serialpos": 12, "key_press": -1, "wordID": 1340, "type": "PRES_AUD", "trial_index": 197}, "uniqueid": "MTK3079:3HMIGG0U4MDJVOM0CANSH2K74M48YK", "dateTime": 1520008317197}, {"current_trial": 198, "trialdata": {"rt": -1000, "trial_type": "single-audio", "word": "drink", "stimulus": "/static/audio/wordpool/DRINK.wav", "conditions": [24, 800, "a", 12000], "internal_node_id": "0.0-144.0", "trial": 5, "time_elapsed": 999317, "serialpos": 13, "key_press": -1, "wordID": 497, "type": "PRES_AUD", "trial_index": 198}, "uniqueid": "MTK3079:3HMIGG0U4MDJVOM0CANSH2K74M48YK", "dateTime": 1520008319058}, {"current_trial": 199, "trialdata": {"rt": -1000, "trial_type": "single-audio", "word": "marine", "stimulus": "/static/audio/wordpool/MARINE.wav", "conditions": [24, 800, "a", 12000], "internal_node_id": "0.0-145.0", "trial": 5, "time_elapsed": 1001031, "serialpos": 14, "key_press": -1, "wordID": 868, "type": "PRES_AUD", "trial_index": 199}, "uniqueid": "MTK3079:3HMIGG0U4MDJVOM0CANSH2K74M48YK", "dateTime": 1520008320773}, {"current_trial": 200, "trialdata": {"rt": -1000, "trial_type": "single-audio", "word": "lamp", "stimulus": "/static/audio/wordpool/LAMP.wav", "conditions": [24, 800, "a", 12000], "internal_node_id": "0.0-146.0", "trial": 5, "time_elapsed": 1002952, "serialpos": 15, "key_press": -1, "wordID": 797, "type": "PRES_AUD", "trial_index": 200}, "uniqueid": "MTK3079:3HMIGG0U4MDJVOM0CANSH2K74M48YK", "dateTime": 1520008322694}, {"current_trial": 201, "trialdata": {"rt": -1000, "trial_type": "single-audio", "word": "barrel", "stimulus": "/static/audio/wordpool/BARREL.wav", "conditions": [24, 800, "a", 12000], "internal_node_id": "0.0-147.0", "trial": 5, "time_elapsed": 1004738, "serialpos": 16, "key_press": -1, "wordID": 90, "type": "PRES_AUD", "trial_index": 201}, "uniqueid": "MTK3079:3HMIGG0U4MDJVOM0CANSH2K74M48YK", "dateTime": 1520008324479}, {"current_trial": 202, "trialdata": {"rt": -1000, "trial_type": "single-audio", "word": "lake", "stimulus": "/static/audio/wordpool/LAKE.wav", "conditions": [24, 800, "a", 12000], "internal_node_id": "0.0-148.0", "trial": 5, "time_elapsed": 1006477, "serialpos": 17, "key_press": -1, "wordID": 795, "type": "PRES_AUD", "trial_index": 202}, "uniqueid": "MTK3079:3HMIGG0U4MDJVOM0CANSH2K74M48YK", "dateTime": 1520008326218}, {"current_trial": 203, "trialdata": {"rt": -1000, "trial_type": "single-audio", "word": "captive", "stimulus": "/static/audio/wordpool/CAPTIVE.wav", "conditions": [24, 800, "a", 12000], "internal_node_id": "0.0-149.0", "trial": 5, "time_elapsed": 1008379, "serialpos": 18, "key_press": -1, "wordID": 239, "type": "PRES_AUD", "trial_index": 203}, "uniqueid": "MTK3079:3HMIGG0U4MDJVOM0CANSH2K74M48YK", "dateTime": 1520008328120}, {"current_trial": 204, "trialdata": {"rt": -1000, "trial_type": "single-audio", "word": "cricket", "stimulus": "/static/audio/wordpool/CRICKET.wav", "conditions": [24, 800, "a", 12000], "internal_node_id": "0.0-150.0", "trial": 5, "time_elapsed": 1010160, "serialpos": 19, "key_press": -1, "wordID": 407, "type": "PRES_AUD", "trial_index": 204}, "uniqueid": "MTK3079:3HMIGG0U4MDJVOM0CANSH2K74M48YK", "dateTime": 1520008329901}, {"current_trial": 205, "trialdata": {"rt": -1000, "trial_type": "single-audio", "word": "canal", "stimulus": "/static/audio/wordpool/CANAL.wav", "conditions": [24, 800, "a", 12000], "internal_node_id": "0.0-151.0", "trial": 5, "time_elapsed": 1012154, "serialpos": 20, "key_press": -1, "wordID": 225, "type": "PRES_AUD", "trial_index": 205}, "uniqueid": "MTK3079:3HMIGG0U4MDJVOM0CANSH2K74M48YK", "dateTime": 1520008331895}, {"current_trial": 206, "trialdata": {"rt": -1000, "trial_type": "single-audio", "word": "crevice", "stimulus": "/static/audio/wordpool/CREVICE.wav", "conditions": [24, 800, "a", 12000], "internal_node_id": "0.0-152.0", "trial": 5, "time_elapsed": 1014045, "serialpos": 21, "key_press": -1, "wordID": 404, "type": "PRES_AUD", "trial_index": 206}, "uniqueid": "MTK3079:3HMIGG0U4MDJVOM0CANSH2K74M48YK", "dateTime": 1520008333786}, {"current_trial": 207, "trialdata": {"rt": -1000, "trial_type": "single-audio", "word": "citrus", "stimulus": "/static/audio/wordpool/CITRUS.wav", "conditions": [24, 800, "a", 12000], "internal_node_id": "0.0-153.0", "trial": 5, "time_elapsed": 1015761, "serialpos": 22, "key_press": -1, "wordID": 312, "type": "PRES_AUD", "trial_index": 207}, "uniqueid": "MTK3079:3HMIGG0U4MDJVOM0CANSH2K74M48YK", "dateTime": 1520008335503}, {"current_trial": 208, "trialdata": {"rt": -1000, "trial_type": "single-audio", "word": "gallon", "stimulus": "/static/audio/wordpool/GALLON.wav", "conditions": [24, 800, "a", 12000], "internal_node_id": "0.0-154.0", "trial": 5, "time_elapsed": 1017524, "serialpos": 23, "key_press": -1, "wordID": 617, "type": "PRES_AUD", "trial_index": 208}, "uniqueid": "MTK3079:3HMIGG0U4MDJVOM0CANSH2K74M48YK", "dateTime": 1520008337266}, {"current_trial": 209, "trialdata": {"rt": -1, "trial_type": "single-stim", "stimulus": "", "internal_node_id": "0.0-155.0-0.0", "time_elapsed": 1018825, "key_press": -1, "type": "PRE_RECALL_DELAY", "trial_index": 209}, "uniqueid": "MTK3079:3HMIGG0U4MDJVOM0CANSH2K74M48YK", "dateTime": 1520008338566}, {"current_trial": 210, "trialdata": {"rt": -1000, "trial_type": "single-audio", "stimulus": "/static/audio/400Hz.wav", "internal_node_id": "0.0-156.0", "time_elapsed": 1019330, "key_press": -1, "type": "PRE_RECALL_ALERT", "trial_index": 210}, "uniqueid": "MTK3079:3HMIGG0U4MDJVOM0CANSH2K74M48YK", "dateTime": 1520008339071}, {"current_trial": 211, "trialdata": {"rt": [5830, 9980, 13579, 17288, 19669, 21186, 23845, 27455, 28853, 32049, 34591, 36288, 39981, 43240, 46459, 48996, 51702, 53921, 56604, 58198], "recwords": ["lizard", "snail", "helmet", "egypt", "drive", "truck", "grape", "marine", "soda", "lamp", "lace", "island", "snail", "helmet", "scallop", "ocean", "lake", "gallon", "citrus", "grape"], "key_times": [4400, 4603, 4775, 5056, 5240, 5589, 5830, 8687, 8916, 9148, 9473, 9688, 9980, 10744, 10903, 11047, 11306, 11899, 12219, 12396, 13016, 13163, 13311, 13579, 15598, 16003, 16328, 16746, 17107, 17288, 18659, 18918, 19105, 19279, 19451, 19669, 20154, 20332, 20490, 20714, 20879, 21186, 22311, 22538, 22768, 23088, 23499, 23845, 26596, 26704, 26813, 26999, 27165, 27311, 27455, 27885, 28030, 28212, 28469, 28853, 31012, 31213, 31392, 31668, 32049, 33704, 33860, 34146, 34290, 34591, 34934, 35102, 35316, 35498, 35642, 36056, 36288, 38384, 39150, 39336, 39476, 39699, 39981, 41840, 41987, 42088, 42398, 42833, 43029, 43240, 44467, 44737, 44971, 45335, 45536, 45736, 45950, 46459, 46848, 47012, 47089, 47166, 47408, 47892, 48043, 48206, 48363, 48570, 48742, 48996, 50906, 51127, 51292, 51396, 51702, 52690, 52960, 53147, 53284, 53462, 53634, 53921, 54512, 54662, 54890, 55111, 55343, 55725, 55978, 56165, 56604, 56855, 57094, 57333, 57607, 57981, 58198], "trial_type": "free-recall", "conditions": [24, 800, "a", 12000], "internal_node_id": "0.0-157.0-0.0", "key_presses": [76, 73, 90, 65, 82, 68, 13, 83, 78, 65, 73, 76, 13, 72, 69, 76, 80, 8, 77, 65, 8, 69, 84, 13, 69, 71, 89, 80, 84, 13, 68, 82, 73, 86, 69, 13, 84, 82, 85, 67, 75, 13, 71, 82, 65, 80, 69, 13, 77, 65, 82, 73, 78, 69, 13, 83, 79, 68, 65, 13, 76, 65, 77, 80, 13, 76, 65, 67, 69, 13, 73, 83, 76, 65, 78, 68, 13, 83, 78, 65, 73, 76, 32, 72, 69, 76, 77, 69, 84, 13, 83, 67, 65, 76, 76, 79, 80, 13, 79, 67, 67, 69, 65, 8, 8, 8, 69, 65, 78, 13, 76, 65, 75, 69, 13, 71, 65, 76, 76, 79, 78, 13, 67, 73, 84, 82, 73, 8, 85, 83, 13, 71, 82, 65, 80, 69, 13], "trial": 5, "time_elapsed": 1079337, "type": "FREE_RECALL", "trial_index": 211}, "uniqueid": "MTK3079:3HMIGG0U4MDJVOM0CANSH2K74M48YK", "dateTime": 1520008399088}, {"current_trial": 212, "trialdata": {"rt": 15092, "trial_type": "text", "internal_node_id": "0.0-158.0", "time_elapsed": 1096442, "key_press": 32, "type": "INSTRUCTIONS", "trial_index": 212}, "uniqueid": "MTK3079:3HMIGG0U4MDJVOM0CANSH2K74M48YK", "dateTime": 1520008416184}, {"current_trial": 213, "trialdata": {"rt": [1387, 3791, 5939, 7464, 10820, 13213, 15522, 18882, 20364, 22540], "trial_type": "math-distractor", "key_times": [1071, 1228, 1387, 2828, 2869, 3289, 3791, 5517, 5743, 5939, 7005, 7278, 7464, 10410, 10631, 10820, 12762, 12999, 13213, 15170, 15422, 15522, 17221, 18171, 18553, 18695, 18882, 19919, 20119, 20364, 22145, 22343, 22540], "responses": ["11", "12", "10", "10", "24", "12", "20", "20", "12", "21"], "num2": [1, 3, 4, 3, 7, 7, 5, 6, 5, 5, 6], "num3": [5, 3, 3, 2, 8, 1, 9, 7, 2, 8, 7], "conditions": [24, 1600, "a", 24000], "internal_node_id": "0.0-159.0", "key_presses": [97, 97, 13, 97, 16, 98, 13, 97, 96, 13, 97, 96, 13, 98, 100, 13, 97, 98, 13, 98, 96, 13, 102, 8, 98, 96, 13, 97, 98, 13, 98, 97, 13], "trial": 6, "time_elapsed": 1122460, "type": "DISTRACTOR", "trial_index": 213, "num1": [5, 6, 3, 5, 9, 4, 6, 7, 5, 8, 5]}, "uniqueid": "MTK3079:3HMIGG0U4MDJVOM0CANSH2K74M48YK", "dateTime": 1520008442201}, {"current_trial": 214, "trialdata": {"rt": -1, "trial_type": "single-stim", "stimulus": "<p id=\"stim\">10</p>", "internal_node_id": "0.0-160.0-0.0", "time_elapsed": 1125465, "key_press": -1, "trial_index": 214}, "uniqueid": "MTK3079:3HMIGG0U4MDJVOM0CANSH2K74M48YK", "dateTime": 1520008445206}, {"current_trial": 215, "trialdata": {"rt": -1, "trial_type": "single-stim", "stimulus": "<p id=\"stim\">9</p>", "internal_node_id": "0.0-160.0-1.0", "time_elapsed": 1126506, "key_press": -1, "trial_index": 215}, "uniqueid": "MTK3079:3HMIGG0U4MDJVOM0CANSH2K74M48YK", "dateTime": 1520008446247}, {"current_trial": 216, "trialdata": {"rt": -1, "trial_type": "single-stim", "stimulus": "<p id=\"stim\">8</p>", "internal_node_id": "0.0-160.0-2.0", "time_elapsed": 1127510, "key_press": -1, "trial_index": 216}, "uniqueid": "MTK3079:3HMIGG0U4MDJVOM0CANSH2K74M48YK", "dateTime": 1520008447251}, {"current_trial": 217, "trialdata": {"rt": -1, "trial_type": "single-stim", "stimulus": "<p id=\"stim\">7</p>", "internal_node_id": "0.0-160.0-3.0", "time_elapsed": 1128513, "key_press": -1, "trial_index": 217}, "uniqueid": "MTK3079:3HMIGG0U4MDJVOM0CANSH2K74M48YK", "dateTime": 1520008448255}, {"current_trial": 218, "trialdata": {"rt": -1, "trial_type": "single-stim", "stimulus": "<p id=\"stim\">6</p>", "internal_node_id": "0.0-160.0-4.0", "time_elapsed": 1129525, "key_press": -1, "trial_index": 218}, "uniqueid": "MTK3079:3HMIGG0U4MDJVOM0CANSH2K74M48YK", "dateTime": 1520008449266}, {"current_trial": 219, "trialdata": {"rt": -1, "trial_type": "single-stim", "stimulus": "<p id=\"stim\">5</p>", "internal_node_id": "0.0-160.0-5.0", "time_elapsed": 1130528, "key_press": -1, "trial_index": 219}, "uniqueid": "MTK3079:3HMIGG0U4MDJVOM0CANSH2K74M48YK", "dateTime": 1520008450269}, {"current_trial": 220, "trialdata": {"rt": -1, "trial_type": "single-stim", "stimulus": "<p id=\"stim\">4</p>", "internal_node_id": "0.0-160.0-6.0", "time_elapsed": 1131532, "key_press": -1, "trial_index": 220}, "uniqueid": "MTK3079:3HMIGG0U4MDJVOM0CANSH2K74M48YK", "dateTime": 1520008451273}, {"current_trial": 221, "trialdata": {"rt": -1, "trial_type": "single-stim", "stimulus": "<p id=\"stim\">3</p>", "internal_node_id": "0.0-160.0-7.0", "time_elapsed": 1132558, "key_press": -1, "trial_index": 221}, "uniqueid": "MTK3079:3HMIGG0U4MDJVOM0CANSH2K74M48YK", "dateTime": 1520008452299}, {"current_trial": 222, "trialdata": {"rt": -1, "trial_type": "single-stim", "stimulus": "<p id=\"stim\">2</p>", "internal_node_id": "0.0-160.0-8.0", "time_elapsed": 1133562, "key_press": -1, "trial_index": 222}, "uniqueid": "MTK3079:3HMIGG0U4MDJVOM0CANSH2K74M48YK", "dateTime": 1520008453303}, {"current_trial": 223, "trialdata": {"rt": -1, "trial_type": "single-stim", "stimulus": "<p id=\"stim\">1</p>", "internal_node_id": "0.0-160.0-9.0", "time_elapsed": 1134565, "key_press": -1, "trial_index": 223}, "uniqueid": "MTK3079:3HMIGG0U4MDJVOM0CANSH2K74M48YK", "dateTime": 1520008454307}, {"current_trial": 224, "trialdata": {"rt": -1, "trial_type": "single-stim", "stimulus": "<p id=\"stim\">+</p>", "internal_node_id": "0.0-161.0-0.0", "time_elapsed": 1136067, "key_press": -1, "type": "FIXATION", "trial_index": 224}, "uniqueid": "MTK3079:3HMIGG0U4MDJVOM0CANSH2K74M48YK", "dateTime": 1520008455809}, {"current_trial": 225, "trialdata": {"rt": -1000, "trial_type": "single-audio", "word": "relish", "stimulus": "/static/audio/wordpool/RELISH.wav", "conditions": [24, 1600, "a", 24000], "internal_node_id": "0.0-162.0", "trial": 6, "time_elapsed": 1138688, "serialpos": 0, "key_press": -1, "wordID": 1182, "type": "PRES_AUD", "trial_index": 225}, "uniqueid": "MTK3079:3HMIGG0U4MDJVOM0CANSH2K74M48YK", "dateTime": 1520008458429}, {"current_trial": 226, "trialdata": {"rt": -1000, "trial_type": "single-audio", "word": "neutron", "stimulus": "/static/audio/wordpool/NEUTRON.wav", "conditions": [24, 1600, "a", 24000], "internal_node_id": "0.0-163.0", "trial": 6, "time_elapsed": 1141354, "serialpos": 1, "key_press": -1, "wordID": 946, "type": "PRES_AUD", "trial_index": 226}, "uniqueid": "MTK3079:3HMIGG0U4MDJVOM0CANSH2K74M48YK", "dateTime": 1520008461095}, {"current_trial": 227, "trialdata": {"rt": -1000, "trial_type": "single-audio", "word": "brick", "stimulus": "/static/audio/wordpool/BRICK.wav", "conditions": [24, 1600, "a", 24000], "internal_node_id": "0.0-164.0", "trial": 6, "time_elapsed": 1143954, "serialpos": 2, "key_press": -1, "wordID": 171, "type": "PRES_AUD", "trial_index": 227}, "uniqueid": "MTK3079:3HMIGG0U4MDJVOM0CANSH2K74M48YK", "dateTime": 1520008463695}, {"current_trial": 228, "trialdata": {"rt": -1000, "trial_type": "single-audio", "word": "lunch", "stimulus": "/static/audio/wordpool/LUNCH.wav", "conditions": [24, 1600, "a", 24000], "internal_node_id": "0.0-165.0", "trial": 6, "time_elapsed": 1146469, "serialpos": 3, "key_press": -1, "wordID": 848, "type": "PRES_AUD", "trial_index": 228}, "uniqueid": "MTK3079:3HMIGG0U4MDJVOM0CANSH2K74M48YK", "dateTime": 1520008466210}, {"current_trial": 229, "trialdata": {"rt": -1000, "trial_type": "single-audio", "word": "diner", "stimulus": "/static/audio/wordpool/DINER.wav", "conditions": [24, 1600, "a", 24000], "internal_node_id": "0.0-166.0", "trial": 6, "time_elapsed": 1148897, "serialpos": 4, "key_press": -1, "wordID": 466, "type": "PRES_AUD", "trial_index": 229}, "uniqueid": "MTK3079:3HMIGG0U4MDJVOM0CANSH2K74M48YK", "dateTime": 1520008468639}, {"current_trial": 230, "trialdata": {"rt": -1000, "trial_type": "single-audio", "word": "kidney", "stimulus": "/static/audio/wordpool/KIDNEY.wav", "conditions": [24, 1600, "a", 24000], "internal_node_id": "0.0-167.0", "trial": 6, "time_elapsed": 1151426, "serialpos": 5, "key_press": -1, "wordID": 775, "type": "PRES_AUD", "trial_index": 230}, "uniqueid": "MTK3079:3HMIGG0U4MDJVOM0CANSH2K74M48YK", "dateTime": 1520008471167}, {"current_trial": 231, "trialdata": {"rt": -1000, "trial_type": "single-audio", "word": "transplant", "stimulus": "/static/audio/wordpool/TRANSPLANT.wav", "conditions": [24, 1600, "a", 24000], "internal_node_id": "0.0-168.0", "trial": 6, "time_elapsed": 1154043, "serialpos": 6, "key_press": -1, "wordID": 1495, "type": "PRES_AUD", "trial_index": 231}, "uniqueid": "MTK3079:3HMIGG0U4MDJVOM0CANSH2K74M48YK", "dateTime": 1520008473784}, {"current_trial": 232, "trialdata": {"rt": -1000, "trial_type": "single-audio", "word": "waiter", "stimulus": "/static/audio/wordpool/WAITER.wav", "conditions": [24, 1600, "a", 24000], "internal_node_id": "0.0-169.0", "trial": 6, "time_elapsed": 1156669, "serialpos": 7, "key_press": -1, "wordID": 1579, "type": "PRES_AUD", "trial_index": 232}, "uniqueid": "MTK3079:3HMIGG0U4MDJVOM0CANSH2K74M48YK", "dateTime": 1520008476410}, {"current_trial": 233, "trialdata": {"rt": -1000, "trial_type": "single-audio", "word": "paddle", "stimulus": "/static/audio/wordpool/PADDLE.wav", "conditions": [24, 1600, "a", 24000], "internal_node_id": "0.0-170.0", "trial": 6, "time_elapsed": 1159311, "serialpos": 8, "key_press": -1, "wordID": 999, "type": "PRES_AUD", "trial_index": 233}, "uniqueid": "MTK3079:3HMIGG0U4MDJVOM0CANSH2K74M48YK", "dateTime": 1520008479052}, {"current_trial": 234, "trialdata": {"rt": -1000, "trial_type": "single-audio", "word": "bacon", "stimulus": "/static/audio/wordpool/BACON.wav", "conditions": [24, 1600, "a", 24000], "internal_node_id": "0.0-171.0", "trial": 6, "time_elapsed": 1161820, "serialpos": 9, "key_press": -1, "wordID": 66, "type": "PRES_AUD", "trial_index": 234}, "uniqueid": "MTK3079:3HMIGG0U4MDJVOM0CANSH2K74M48YK", "dateTime": 1520008481563}, {"current_trial": 235, "trialdata": {"rt": -1000, "trial_type": "single-audio", "word": "marrow", "stimulus": "/static/audio/wordpool/MARROW.wav", "conditions": [24, 1600, "a", 24000], "internal_node_id": "0.0-172.0", "trial": 6, "time_elapsed": 1164262, "serialpos": 10, "key_press": -1, "wordID": 871, "type": "PRES_AUD", "trial_index": 235}, "uniqueid": "MTK3079:3HMIGG0U4MDJVOM0CANSH2K74M48YK", "dateTime": 1520008484004}, {"current_trial": 236, "trialdata": {"rt": -1000, "trial_type": "single-audio", "word": "highway", "stimulus": "/static/audio/wordpool/HIGHWAY.wav", "conditions": [24, 1600, "a", 24000], "internal_node_id": "0.0-173.0", "trial": 6, "time_elapsed": 1167016, "serialpos": 11, "key_press": -1, "wordID": 706, "type": "PRES_AUD", "trial_index": 236}, "uniqueid": "MTK3079:3HMIGG0U4MDJVOM0CANSH2K74M48YK", "dateTime": 1520008486761}, {"current_trial": 237, "trialdata": {"rt": -1000, "trial_type": "single-audio", "word": "brandy", "stimulus": "/static/audio/wordpool/BRANDY.wav", "conditions": [24, 1600, "a", 24000], "internal_node_id": "0.0-174.0", "trial": 6, "time_elapsed": 1169781, "serialpos": 12, "key_press": -1, "wordID": 168, "type": "PRES_AUD", "trial_index": 237}, 