{"condition": 0, "counterbalance": 316, "assignmentId": "3KRVW3HTZOS1KRCV755M4YX1Y4KSMO", "workerId": "MTK0513", "hitId": "306W7JMRYY5LVWVVCG46K7QMW8PB83", "currenttrial": 623, "bonus": 0, "data": [{"uniqueid": "MTK0513:3KRVW3HTZOS1KRCV755M4YX1Y4KSMO", "current_trial": 0, "dateTime": 1511194761516, "trialdata": {"rt": 1675, "key_press": 32, "type": "INSTRUCTIONS", "trial_type": "text", "trial_index": 0, "time_elapsed": 1678, "internal_node_id": "0.0-0.0"}}, {"uniqueid": "MTK0513:3KRVW3HTZOS1KRCV755M4YX1Y4KSMO", "current_trial": 1, "dateTime": 1511194776262, "trialdata": {"rt": 14743, "key_press": 32, "type": "INSTRUCTIONS", "trial_type": "text", "trial_index": 1, "time_elapsed": 16425, "internal_node_id": "0.0-1.0"}}, {"uniqueid": "MTK0513:3KRVW3HTZOS1KRCV755M4YX1Y4KSMO", "current_trial": 2, "dateTime": 1511194789523, "trialdata": {"rt": [13237], "responses": ["ocean"], "type": "AUDIO_TEST", "trial_type": "audio-test", "trial_index": 2, "time_elapsed": 29686, "internal_node_id": "0.0-2.0"}}, {"uniqueid": "MTK0513:3KRVW3HTZOS1KRCV755M4YX1Y4KSMO", "current_trial": 3, "dateTime": 1511194818691, "trialdata": {"rt": [1254, 29165], "responses": ["", "crystal"], "type": "AUDIO_TEST", "trial_type": "audio-test", "trial_index": 3, "time_elapsed": 58854, "internal_node_id": "0.0-3.0"}}, {"uniqueid": "MTK0513:3KRVW3HTZOS1KRCV755M4YX1Y4KSMO", "current_trial": 4, "dateTime": 1511194827306, "trialdata": {"rt": [8612], "responses": ["spice"], "type": "AUDIO_TEST", "trial_type": "audio-test", "trial_index": 4, "time_elapsed": 67469, "internal_node_id": "0.0-4.0"}}, {"uniqueid": "MTK0513:3KRVW3HTZOS1KRCV755M4YX1Y4KSMO", "current_trial": 5, "dateTime": 1511194867193, "trialdata": {"rt": 39134, "responses": "{\"Q0\":\"11:00pm\",\"Q1\":\"8:00am\",\"Q2\":\"5\"}", "type": "SLEEP_SURVEY", "trial_type": "survey-text", "trial_index": 5, "time_elapsed": 107356, "internal_node_id": "0.0-5.0"}}, {"uniqueid": "MTK0513:3KRVW3HTZOS1KRCV755M4YX1Y4KSMO", "current_trial": 6, "dateTime": 1511194910808, "trialdata": {"rt": 42614, "key_press": 32, "type": "INSTRUCTIONS", "trial_type": "text", "trial_index": 6, "time_elapsed": 150971, "internal_node_id": "0.0-6.0"}}, {"uniqueid": "MTK0513:3KRVW3HTZOS1KRCV755M4YX1Y4KSMO", "current_trial": 7, "dateTime": 1511195036033, "trialdata": {"rt": 124723, "key_press": 32, "type": "INSTRUCTIONS", "trial_type": "text", "trial_index": 7, "time_elapsed": 276196, "internal_node_id": "0.0-7.0"}}, {"uniqueid": "MTK0513:3KRVW3HTZOS1KRCV755M4YX1Y4KSMO", "current_trial": 8, "dateTime": 1511195046939, "trialdata": {"rt": 10403, "key_press": 32, "type": "INSTRUCTIONS", "trial_type": "text", "trial_index": 8, "time_elapsed": 287102, "internal_node_id": "0.0-8.0"}}, {"uniqueid": "MTK0513:3KRVW3HTZOS1KRCV755M4YX1Y4KSMO", "current_trial": 9, "dateTime": 1511195065951, "trialdata": {"rt": [4683, 6987, 9947], "responses": ["14", "11", "10"], "num1": [4, 3, 7, 6], "num2": [7, 7, 1, 5], "num3": [3, 1, 2, 9], "type": "DISTRACTOR", "conditions": [18, 1200, "a", 18000], "trial": 0, "trial_type": "math-distractor", "trial_index": 9, "time_elapsed": 306114, "internal_node_id": "0.0-9.0"}}, {"uniqueid": "MTK0513:3KRVW3HTZOS1KRCV755M4YX1Y4KSMO", "current_trial": 10, "dateTime": 1511195068955, "trialdata": {"rt": -1, "stimulus": "<p id=\"stim\">10</p>", "key_press": -1, "trial_type": "single-stim", "trial_index": 10, "time_elapsed": 309118, "internal_node_id": "0.0-10.0-0.0"}}, {"uniqueid": "MTK0513:3KRVW3HTZOS1KRCV755M4YX1Y4KSMO", "current_trial": 11, "dateTime": 1511195069957, "trialdata": {"rt": -1, "stimulus": "<p id=\"stim\">9</p>", "key_press": -1, "trial_type": "single-stim", "trial_index": 11, "time_elapsed": 310119, "internal_node_id": "0.0-10.0-1.0"}}, {"uniqueid": "MTK0513:3KRVW3HTZOS1KRCV755M4YX1Y4KSMO", "current_trial": 12, "dateTime": 1511195070959, "trialdata": {"rt": -1, "stimulus": "<p id=\"stim\">8</p>", "key_press": -1, "trial_type": "single-stim", "trial_index": 12, "time_elapsed": 311121, "internal_node_id": "0.0-10.0-2.0"}}, {"uniqueid": "MTK0513:3KRVW3HTZOS1KRCV755M4YX1Y4KSMO", "current_trial": 13, "dateTime": 1511195071961, "trialdata": {"rt": -1, "stimulus": "<p id=\"stim\">7</p>", "key_press": -1, "trial_type": "single-stim", "trial_index": 13, "time_elapsed": 312124, "internal_node_id": "0.0-10.0-3.0"}}, {"uniqueid": "MTK0513:3KRVW3HTZOS1KRCV755M4YX1Y4KSMO", "current_trial": 14, "dateTime": 1511195072962, "trialdata": {"rt": -1, "stimulus": "<p id=\"stim\">6</p>", "key_press": -1, "trial_type": "single-stim", "trial_index": 14, "time_elapsed": 313125, "internal_node_id": "0.0-10.0-4.0"}}, {"uniqueid": "MTK0513:3KRVW3HTZOS1KRCV755M4YX1Y4KSMO", "current_trial": 15, "dateTime": 1511195073964, "trialdata": {"rt": -1, "stimulus": "<p id=\"stim\">5</p>", "key_press": -1, "trial_type": "single-stim", "trial_index": 15, "time_elapsed": 314127, "internal_node_id": "0.0-10.0-5.0"}}, {"uniqueid": "MTK0513:3KRVW3HTZOS1KRCV755M4YX1Y4KSMO", "current_trial": 16, "dateTime": 1511195074966, "trialdata": {"rt": -1, "stimulus": "<p id=\"stim\">4</p>", "key_press": -1, "trial_type": "single-stim", "trial_index": 16, "time_elapsed": 315128, "internal_node_id": "0.0-10.0-6.0"}}, {"uniqueid": "MTK0513:3KRVW3HTZOS1KRCV755M4YX1Y4KSMO", "current_trial": 17, "dateTime": 1511195075976, "trialdata": {"rt": -1, "stimulus": "<p id=\"stim\">3</p>", "key_press": -1, "trial_type": "single-stim", "trial_index": 17, "time_elapsed": 316138, "internal_node_id": "0.0-10.0-7.0"}}, {"uniqueid": "MTK0513:3KRVW3HTZOS1KRCV755M4YX1Y4KSMO", "current_trial": 18, "dateTime": 1511195076980, "trialdata": {"rt": -1, "stimulus": "<p id=\"stim\">2</p>", "key_press": -1, "trial_type": "single-stim", "trial_index": 18, "time_elapsed": 317143, "internal_node_id": "0.0-10.0-8.0"}}, {"uniqueid": "MTK0513:3KRVW3HTZOS1KRCV755M4YX1Y4KSMO", "current_trial": 19, "dateTime": 1511195077983, "trialdata": {"rt": -1, "stimulus": "<p id=\"stim\">1</p>", "key_press": -1, "trial_type": "single-stim", "trial_index": 19, "time_elapsed": 318146, "internal_node_id": "0.0-10.0-9.0"}}, {"uniqueid": "MTK0513:3KRVW3HTZOS1KRCV755M4YX1Y4KSMO", "current_trial": 20, "dateTime": 1511195079485, "trialdata": {"rt": -1, "stimulus": "<p id=\"stim\">+</p>", "key_press": -1, "type": "FIXATION", "trial_type": "single-stim", "trial_index": 20, "time_elapsed": 319647, "internal_node_id": "0.0-11.0-0.0"}}, {"uniqueid": "MTK0513:3KRVW3HTZOS1KRCV755M4YX1Y4KSMO", "current_trial": 21, "dateTime": 1511195081793, "trialdata": {"rt": -1000, "stimulus": "/static/audio/wordpool/ACTOR.wav", "key_press": -1, "type": "PRES_AUD", "word": "actor", "wordID": 4, "conditions": [18, 1200, "a", 18000], "trial": 0, "serialpos": 0, "trial_type": "single-audio", "trial_index": 21, "time_elapsed": 321956, "internal_node_id": "0.0-12.0"}}, {"uniqueid": "MTK0513:3KRVW3HTZOS1KRCV755M4YX1Y4KSMO", "current_trial": 22, "dateTime": 1511195083839, "trialdata": {"rt": -1000, "stimulus": "/static/audio/wordpool/FOOT.wav", "key_press": -1, "type": "PRES_AUD", "word": "foot", "wordID": 589, "conditions": [18, 1200, "a", 18000], "trial": 0, "serialpos": 1, "trial_type": "single-audio", "trial_index": 22, "time_elapsed": 324002, "internal_node_id": "0.0-13.0"}}, {"uniqueid": "MTK0513:3KRVW3HTZOS1KRCV755M4YX1Y4KSMO", "current_trial": 23, "dateTime": 1511195086208, "trialdata": {"rt": -1000, "stimulus": "/static/audio/wordpool/GYMNAST.wav", "key_press": -1, "type": "PRES_AUD", "word": "gymnast", "wordID": 674, "conditions": [18, 1200, "a", 18000], "trial": 0, "serialpos": 2, "trial_type": "single-audio", "trial_index": 23, "time_elapsed": 326371, "internal_node_id": "0.0-14.0"}}, {"uniqueid": "MTK0513:3KRVW3HTZOS1KRCV755M4YX1Y4KSMO", "current_trial": 24, "dateTime": 1511195088260, "trialdata": {"rt": -1000, "stimulus": "/static/audio/wordpool/CHEST.wav", "key_press": -1, "type": "PRES_AUD", "word": "chest", "wordID": 294, "conditions": [18, 1200, "a", 18000], "trial": 0, "serialpos": 3, "trial_type": "single-audio", "trial_index": 24, "time_elapsed": 328423, "internal_node_id": "0.0-15.0"}}, {"uniqueid": "MTK0513:3KRVW3HTZOS1KRCV755M4YX1Y4KSMO", "current_trial": 25, "dateTime": 1511195090334, "trialdata": {"rt": -1000, "stimulus": "/static/audio/wordpool/MONEY.wav", "key_press": -1, "type": "PRES_AUD", "word": "money", "wordID": 907, "conditions": [18, 1200, "a", 18000], "trial": 0, "serialpos": 4, "trial_type": "single-audio", "trial_index": 25, "time_elapsed": 330497, "internal_node_id": "0.0-16.0"}}, {"uniqueid": "MTK0513:3KRVW3HTZOS1KRCV755M4YX1Y4KSMO", "current_trial": 26, "dateTime": 1511195092362, "trialdata": {"rt": -1000, "stimulus": "/static/audio/wordpool/CUPBOARD.wav", "key_press": -1, "type": "PRES_AUD", "word": "cupboard", "wordID": 424, "conditions": [18, 1200, "a", 18000], "trial": 0, "serialpos": 5, "trial_type": "single-audio", "trial_index": 26, "time_elapsed": 332525, "internal_node_id": "0.0-17.0"}}, {"uniqueid": "MTK0513:3KRVW3HTZOS1KRCV755M4YX1Y4KSMO", "current_trial": 27, "dateTime": 1511195094611, "trialdata": {"rt": -1000, "stimulus": "/static/audio/wordpool/SALAD.wav", "key_press": -1, "type": "PRES_AUD", "word": "salad", "wordID": 1223, "conditions": [18, 1200, "a", 18000], "trial": 0, "serialpos": 6, "trial_type": "single-audio", "trial_index": 27, "time_elapsed": 334774, "internal_node_id": "0.0-18.0"}}, {"uniqueid": "MTK0513:3KRVW3HTZOS1KRCV755M4YX1Y4KSMO", "current_trial": 28, "dateTime": 1511195096704, "trialdata": {"rt": -1000, "stimulus": "/static/audio/wordpool/SUNSET.wav", "key_press": -1, "type": "PRES_AUD", "word": "sunset", "wordID": 1407, "conditions": [18, 1200, "a", 18000], "trial": 0, "serialpos": 7, "trial_type": "single-audio", "trial_index": 28, "time_elapsed": 336866, "internal_node_id": "0.0-19.0"}}, {"uniqueid": "MTK0513:3KRVW3HTZOS1KRCV755M4YX1Y4KSMO", "current_trial": 29, "dateTime": 1511195098726, "trialdata": {"rt": -1000, "stimulus": "/static/audio/wordpool/COUNTRY.wav", "key_press": -1, "type": "PRES_AUD", "word": "country", "wordID": 387, "conditions": [18, 1200, "a", 18000], "trial": 0, "serialpos": 8, "trial_type": "single-audio", "trial_index": 29, "time_elapsed": 338889, "internal_node_id": "0.0-20.0"}}, {"uniqueid": "MTK0513:3KRVW3HTZOS1KRCV755M4YX1Y4KSMO", "current_trial": 30, "dateTime": 1511195100811, "trialdata": {"rt": -1000, "stimulus": "/static/audio/wordpool/BATHTUB.wav", "key_press": -1, "type": "PRES_AUD", "word": "bathtub", "wordID": 99, "conditions": [18, 1200, "a", 18000], "trial": 0, "serialpos": 9, "trial_type": "single-audio", "trial_index": 30, "time_elapsed": 340973, "internal_node_id": "0.0-21.0"}}, {"uniqueid": "MTK0513:3KRVW3HTZOS1KRCV755M4YX1Y4KSMO", "current_trial": 31, "dateTime": 1511195103145, "trialdata": {"rt": -1000, "stimulus": "/static/audio/wordpool/BRICK.wav", "key_press": -1, "type": "PRES_AUD", "word": "brick", "wordID": 171, "conditions": [18, 1200, "a", 18000], "trial": 0, "serialpos": 10, "trial_type": "single-audio", "trial_index": 31, "time_elapsed": 343308, "internal_node_id": "0.0-22.0"}}, {"uniqueid": "MTK0513:3KRVW3HTZOS1KRCV755M4YX1Y4KSMO", "current_trial": 32, "dateTime": 1511195105333, "trialdata": {"rt": -1000, "stimulus": "/static/audio/wordpool/CONCERT.wav", "key_press": -1, "type": "PRES_AUD", "word": "concert", "wordID": 359, "conditions": [18, 1200, "a", 18000], "trial": 0, "serialpos": 11, "trial_type": "single-audio", "trial_index": 32, "time_elapsed": 345496, "internal_node_id": "0.0-23.0"}}, {"uniqueid": "MTK0513:3KRVW3HTZOS1KRCV755M4YX1Y4KSMO", "current_trial": 33, "dateTime": 1511195107336, "trialdata": {"rt": -1000, "stimulus": "/static/audio/wordpool/SPHINX.wav", "key_press": -1, "type": "PRES_AUD", "word": "sphinx", "wordID": 1348, "conditions": [18, 1200, "a", 18000], "trial": 0, "serialpos": 12, "trial_type": "single-audio", "trial_index": 33, "time_elapsed": 347499, "internal_node_id": "0.0-24.0"}}, {"uniqueid": "MTK0513:3KRVW3HTZOS1KRCV755M4YX1Y4KSMO", "current_trial": 34, "dateTime": 1511195109638, "trialdata": {"rt": -1000, "stimulus": "/static/audio/wordpool/SADDLE.wav", "key_press": -1, "type": "PRES_AUD", "word": "saddle", "wordID": 1220, "conditions": [18, 1200, "a", 18000], "trial": 0, "serialpos": 13, "trial_type": "single-audio", "trial_index": 34, "time_elapsed": 349801, "internal_node_id": "0.0-25.0"}}, {"uniqueid": "MTK0513:3KRVW3HTZOS1KRCV755M4YX1Y4KSMO", "current_trial": 35, "dateTime": 1511195112001, "trialdata": {"rt": -1000, "stimulus": "/static/audio/wordpool/FRAME.wav", "key_press": -1, "type": "PRES_AUD", "word": "frame", "wordID": 599, "conditions": [18, 1200, "a", 18000], "trial": 0, "serialpos": 14, "trial_type": "single-audio", "trial_index": 35, "time_elapsed": 352163, "internal_node_id": "0.0-26.0"}}, {"uniqueid": "MTK0513:3KRVW3HTZOS1KRCV755M4YX1Y4KSMO", "current_trial": 36, "dateTime": 1511195114327, "trialdata": {"rt": -1000, "stimulus": "/static/audio/wordpool/BRANCH.wav", "key_press": -1, "type": "PRES_AUD", "word": "branch", "wordID": 167, "conditions": [18, 1200, "a", 18000], "trial": 0, "serialpos": 15, "trial_type": "single-audio", "trial_index": 36, "time_elapsed": 354490, "internal_node_id": "0.0-27.0"}}, {"uniqueid": "MTK0513:3KRVW3HTZOS1KRCV755M4YX1Y4KSMO", "current_trial": 37, "dateTime": 1511195116622, "trialdata": {"rt": -1000, "stimulus": "/static/audio/wordpool/PASSAGE.wav", "key_press": -1, "type": "PRES_AUD", "word": "passage", "wordID": 1018, "conditions": [18, 1200, "a", 18000], "trial": 0, "serialpos": 16, "trial_type": "single-audio", "trial_index": 37, "time_elapsed": 356785, "internal_node_id": "0.0-28.0"}}, {"uniqueid": "MTK0513:3KRVW3HTZOS1KRCV755M4YX1Y4KSMO", "current_trial": 38, "dateTime": 1511195118755, "trialdata": {"rt": -1000, "stimulus": "/static/audio/wordpool/TERMITE.wav", "key_press": -1, "type": "PRES_AUD", "word": "termite", "wordID": 1450, "conditions": [18, 1200, "a", 18000], "trial": 0, "serialpos": 17, "trial_type": "single-audio", "trial_index": 38, "time_elapsed": 358918, "internal_node_id": "0.0-29.0"}}, {"uniqueid": "MTK0513:3KRVW3HTZOS1KRCV755M4YX1Y4KSMO", "current_trial": 39, "dateTime": 1511195120027, "trialdata": {"rt": -1, "stimulus": "", "key_press": -1, "type": "PRE_RECALL_DELAY", "trial_type": "single-stim", "trial_index": 39, "time_elapsed": 360190, "internal_node_id": "0.0-30.0-0.0"}}, {"uniqueid": "MTK0513:3KRVW3HTZOS1KRCV755M4YX1Y4KSMO", "current_trial": 40, "dateTime": 1511195120530, "trialdata": {"rt": -1000, "stimulus": "/static/audio/400Hz.wav", "key_press": -1, "type": "PRE_RECALL_ALERT", "trial_type": "single-audio", "trial_index": 40, "time_elapsed": 360693, "internal_node_id": "0.0-31.0"}}, {"uniqueid": "MTK0513:3KRVW3HTZOS1KRCV755M4YX1Y4KSMO", "current_trial": 41, "dateTime": 1511195180535, "trialdata": {"rt": [5957, 8254, 11831, 13621], "recwords": ["brick", "country", "bathhouse", "passage"], "type": "FREE_RECALL", "conditions": [18, 1200, "a", 18000], "trial": 0, "trial_type": "free-recall", "trial_index": 41, "time_elapsed": 420696, "internal_node_id": "0.0-32.0-0.0"}}, {"uniqueid": "MTK0513:3KRVW3HTZOS1KRCV755M4YX1Y4KSMO", "current_trial": 42, "dateTime": 1511195186777, "trialdata": {"rt": 4238, "key_press": 32, "type": "INSTRUCTIONS", "trial_type": "text", "trial_index": 42, "time_elapsed": 426940, "internal_node_id": "0.0-33.0"}}, {"uniqueid": "MTK0513:3KRVW3HTZOS1KRCV755M4YX1Y4KSMO", "current_trial": 43, "dateTime": 1511195206786, "trialdata": {"rt": [3704, 6757, 12432, 15344], "responses": ["12", "9", "17", "10"], "num1": [2, 2, 8, 1, 7], "num2": [9, 2, 2, 2, 3], "num3": [1, 5, 7, 7, 5], "type": "DISTRACTOR", "conditions": [18, 1200, "v", 18000], "trial": 1, "trial_type": "math-distractor", "trial_index": 43, "time_elapsed": 446949, "internal_node_id": "0.0-34.0"}}, {"uniqueid": "MTK0513:3KRVW3HTZOS1KRCV755M4YX1Y4KSMO", "current_trial": 44, "dateTime": 1511195209789, "trialdata": {"rt": -1, "stimulus": "<p id=\"stim\">10</p>", "key_press": -1, "trial_type": "single-stim", "trial_index": 44, "time_elapsed": 449952, "internal_node_id": "0.0-35.0-0.0"}}, {"uniqueid": "MTK0513:3KRVW3HTZOS1KRCV755M4YX1Y4KSMO", "current_trial": 45, "dateTime": 1511195210791, "trialdata": {"rt": -1, "stimulus": "<p id=\"stim\">9</p>", "key_press": -1, "trial_type": "single-stim", "trial_index": 45, "time_elapsed": 450954, "internal_node_id": "0.0-35.0-1.0"}}, {"uniqueid": "MTK0513:3KRVW3HTZOS1KRCV755M4YX1Y4KSMO", "current_trial": 46, "dateTime": 1511195211793, "trialdata": {"rt": -1, "stimulus": "<p id=\"stim\">8</p>", "key_press": -1, "trial_type": "single-stim", "trial_index": 46, "time_elapsed": 451956, "internal_node_id": "0.0-35.0-2.0"}}, {"uniqueid": "MTK0513:3KRVW3HTZOS1KRCV755M4YX1Y4KSMO", "current_trial": 47, "dateTime": 1511195212795, "trialdata": {"rt": -1, "stimulus": "<p id=\"stim\">7</p>", "key_press": -1, "trial_type": "single-stim", "trial_index": 47, "time_elapsed": 452958, "internal_node_id": "0.0-35.0-3.0"}}, {"uniqueid": "MTK0513:3KRVW3HTZOS1KRCV755M4YX1Y4KSMO", "current_trial": 48, "dateTime": 1511195213796, "trialdata": {"rt": -1, "stimulus": "<p id=\"stim\">6</p>", "key_press": -1, "trial_type": "single-stim", "trial_index": 48, "time_elapsed": 453959, "internal_node_id": "0.0-35.0-4.0"}}, {"uniqueid": "MTK0513:3KRVW3HTZOS1KRCV755M4YX1Y4KSMO", "current_trial": 49, "dateTime": 1511195214799, "trialdata": {"rt": -1, "stimulus": "<p id=\"stim\">5</p>", "key_press": -1, "trial_type": "single-stim", "trial_index": 49, "time_elapsed": 454962, "internal_node_id": "0.0-35.0-5.0"}}, {"uniqueid": "MTK0513:3KRVW3HTZOS1KRCV755M4YX1Y4KSMO", "current_trial": 50, "dateTime": 1511195215801, "trialdata": {"rt": -1, "stimulus": "<p id=\"stim\">4</p>", "key_press": -1, "trial_type": "single-stim", "trial_index": 50, "time_elapsed": 455964, "internal_node_id": "0.0-35.0-6.0"}}, {"uniqueid": "MTK0513:3KRVW3HTZOS1KRCV755M4YX1Y4KSMO", "current_trial": 51, "dateTime": 1511195216802, "trialdata": {"rt": -1, "stimulus": "<p id=\"stim\">3</p>", "key_press": -1, "trial_type": "single-stim", "trial_index": 51, "time_elapsed": 456965, "internal_node_id": "0.0-35.0-7.0"}}, {"uniqueid": "MTK0513:3KRVW3HTZOS1KRCV755M4YX1Y4KSMO", "current_trial": 52, "dateTime": 1511195217803, "trialdata": {"rt": -1, "stimulus": "<p id=\"stim\">2</p>", "key_press": -1, "trial_type": "single-stim", "trial_index": 52, "time_elapsed": 457966, "internal_node_id": "0.0-35.0-8.0"}}, {"uniqueid": "MTK0513:3KRVW3HTZOS1KRCV755M4YX1Y4KSMO", "current_trial": 53, "dateTime": 1511195218806, "trialdata": {"rt": -1, "stimulus": "<p id=\"stim\">1</p>", "key_press": -1, "trial_type": "single-stim", "trial_index": 53, "time_elapsed": 458968, "internal_node_id": "0.0-35.0-9.0"}}, {"uniqueid": "MTK0513:3KRVW3HTZOS1KRCV755M4YX1Y4KSMO", "current_trial": 54, "dateTime": 1511195220307, "trialdata": {"rt": -1, "stimulus": "<p id=\"stim\">+</p>", "key_press": -1, "type": "FIXATION", "trial_type": "single-stim", "trial_index": 54, "time_elapsed": 460470, "internal_node_id": "0.0-36.0-0.0"}}, {"uniqueid": "MTK0513:3KRVW3HTZOS1KRCV755M4YX1Y4KSMO", "current_trial": 55, "dateTime": 1511195221508, "trialdata": {"rt": -1, "stimulus": "<p id=\"stim\">FLUTE</p>", "key_press": -1, "type": "PRES_VIS", "word": "flute", "wordID": 584, "conditions": [18, 1200, "v", 18000], "trial": 1, "serialpos": 0, "trial_type": "single-stim", "trial_index": 55, "time_elapsed": 461671, "internal_node_id": "0.0-37.0"}}, {"uniqueid": "MTK0513:3KRVW3HTZOS1KRCV755M4YX1Y4KSMO", "current_trial": 56, "dateTime": 1511195223703, "trialdata": {"rt": -1, "stimulus": "<p id=\"stim\">SEAGULL</p>", "key_press": -1, "type": "PRES_VIS", "word": "seagull", "wordID": 1260, "conditions": [18, 1200, "v", 18000], "trial": 1, "serialpos": 1, "trial_type": "single-stim", "trial_index": 56, "time_elapsed": 463866, "internal_node_id": "0.0-38.0"}}, {"uniqueid": "MTK0513:3KRVW3HTZOS1KRCV755M4YX1Y4KSMO", "current_trial": 57, "dateTime": 1511195225866, "trialdata": {"rt": -1, "stimulus": "<p id=\"stim\">PEPPER</p>", "key_press": -1, "type": "PRES_VIS", "word": "pepper", "wordID": 1046, "conditions": [18, 1200, "v", 18000], "trial": 1, "serialpos": 2, "trial_type": "single-stim", "trial_index": 57, "time_elapsed": 466028, "internal_node_id": "0.0-39.0"}}, {"uniqueid": "MTK0513:3KRVW3HTZOS1KRCV755M4YX1Y4KSMO", "current_trial": 58, "dateTime": 1511195228142, "trialdata": {"rt": -1, "stimulus": "<p id=\"stim\">CABIN</p>", "key_press": -1, "type": "PRES_VIS", "word": "cabin", "wordID": 210, "conditions": [18, 1200, "v", 18000], "trial": 1, "serialpos": 3, "trial_type": "single-stim", "trial_index": 58, "time_elapsed": 468304, "internal_node_id": "0.0-40.0"}}, {"uniqueid": "MTK0513:3KRVW3HTZOS1KRCV755M4YX1Y4KSMO", "current_trial": 59, "dateTime": 1511195230316, "trialdata": {"rt": -1, "stimulus": "<p id=\"stim\">SMOG</p>", "key_press": -1, "type": "PRES_VIS", "word": "smog", "wordID": 1329, "conditions": [18, 1200, "v", 18000], "trial": 1, "serialpos": 4, "trial_type": "single-stim", "trial_index": 59, "time_elapsed": 470479, "internal_node_id": "0.0-41.0"}}, {"uniqueid": "MTK0513:3KRVW3HTZOS1KRCV755M4YX1Y4KSMO", "current_trial": 60, "dateTime": 1511195232493, "trialdata": {"rt": -1, "stimulus": "<p id=\"stim\">WITNESS</p>", "key_press": -1, "type": "PRES_VIS", "word": "witness", "wordID": 1617, "conditions": [18, 1200, "v", 18000], "trial": 1, "serialpos": 5, "trial_type": "single-stim", "trial_index": 60, "time_elapsed": 472655, "internal_node_id": "0.0-42.0"}}, {"uniqueid": "MTK0513:3KRVW3HTZOS1KRCV755M4YX1Y4KSMO", "current_trial": 61, "dateTime": 1511195234861, "trialdata": {"rt": -1, "stimulus": "<p id=\"stim\">DUST</p>", "key_press": -1, "type": "PRES_VIS", "word": "dust", "wordID": 507, "conditions": [18, 1200, "v", 18000], "trial": 1, "serialpos": 6, "trial_type": "single-stim", "trial_index": 61, "time_elapsed": 475023, "internal_node_id": "0.0-43.0"}}, {"uniqueid": "MTK0513:3KRVW3HTZOS1KRCV755M4YX1Y4KSMO", "current_trial": 62, "dateTime": 1511195236966, "trialdata": {"rt": -1, "stimulus": "<p id=\"stim\">NURSE</p>", "key_press": -1, "type": "PRES_VIS", "word": "nurse", "wordID": 962, "conditions": [18, 1200, "v", 18000], "trial": 1, "serialpos": 7, "trial_type": "single-stim", "trial_index": 62, "time_elapsed": 477128, "internal_node_id": "0.0-44.0"}}, {"uniqueid": "MTK0513:3KRVW3HTZOS1KRCV755M4YX1Y4KSMO", "current_trial": 63, "dateTime": 1511195239087, "trialdata": {"rt": -1, "stimulus": "<p id=\"stim\">SWAMP</p>", "key_press": -1, "type": "PRES_VIS", "word": "swamp", "wordID": 1415, "conditions": [18, 1200, "v", 18000], "trial": 1, "serialpos": 8, "trial_type": "single-stim", "trial_index": 63, "time_elapsed": 479250, "internal_node_id": "0.0-45.0"}}, {"uniqueid": "MTK0513:3KRVW3HTZOS1KRCV755M4YX1Y4KSMO", "current_trial": 64, "dateTime": 1511195241226, "trialdata": {"rt": -1, "stimulus": "<p id=\"stim\">FUNGUS</p>", "key_press": -1, "type": "PRES_VIS", "word": "fungus", "wordID": 613, "conditions": [18, 1200, "v", 18000], "trial": 1, "serialpos": 9, "trial_type": "single-stim", "trial_index": 64, "time_elapsed": 481388, "internal_node_id": "0.0-46.0"}}, {"uniqueid": "MTK0513:3KRVW3HTZOS1KRCV755M4YX1Y4KSMO", "current_trial": 65, "dateTime": 1511195243432, "trialdata": {"rt": -1, "stimulus": "<p id=\"stim\">FINGER</p>", "key_press": -1, "type": "PRES_VIS", "word": "finger", "wordID": 566, "conditions": [18, 1200, "v", 18000], "trial": 1, "serialpos": 10, "trial_type": "single-stim", "trial_index": 65, "time_elapsed": 483594, "internal_node_id": "0.0-47.0"}}, {"uniqueid": "MTK0513:3KRVW3HTZOS1KRCV755M4YX1Y4KSMO", "current_trial": 66, "dateTime": 1511195245693, "trialdata": {"rt": -1, "stimulus": "<p id=\"stim\">SUPPER</p>", "key_press": -1, "type": "PRES_VIS", "word": "supper", "wordID": 1410, "conditions": [18, 1200, "v", 18000], "trial": 1, "serialpos": 11, "trial_type": "single-stim", "trial_index": 66, "time_elapsed": 485855, "internal_node_id": "0.0-48.0"}}, {"uniqueid": "MTK0513:3KRVW3HTZOS1KRCV755M4YX1Y4KSMO", "current_trial": 67, "dateTime": 1511195247825, "trialdata": {"rt": -1, "stimulus": "<p id=\"stim\">LOVER</p>", "key_press": -1, "type": "PRES_VIS", "word": "lover", "wordID": 845, "conditions": [18, 1200, "v", 18000], "trial": 1, "serialpos": 12, "trial_type": "single-stim", "trial_index": 67, "time_elapsed": 487987, "internal_node_id": "0.0-49.0"}}, {"uniqueid": "MTK0513:3KRVW3HTZOS1KRCV755M4YX1Y4KSMO", "current_trial": 68, "dateTime": 1511195250023, "trialdata": {"rt": -1, "stimulus": "<p id=\"stim\">TABLE</p>", "key_press": -1, "type": "PRES_VIS", "word": "table", "wordID": 1425, "conditions": [18, 1200, "v", 18000], "trial": 1, "serialpos": 13, "trial_type": "single-stim", "trial_index": 68, "time_elapsed": 490183, "internal_node_id": "0.0-50.0"}}, {"uniqueid": "MTK0513:3KRVW3HTZOS1KRCV755M4YX1Y4KSMO", "current_trial": 69, "dateTime": 1511195252252, "trialdata": {"rt": -1, "stimulus": "<p id=\"stim\">NEUTRON</p>", "key_press": -1, "type": "PRES_VIS", "word": "neutron", "wordID": 946, "conditions": [18, 1200, "v", 18000], "trial": 1, "serialpos": 14, "trial_type": "single-stim", "trial_index": 69, "time_elapsed": 492414, "internal_node_id": "0.0-51.0"}}, {"uniqueid": "MTK0513:3KRVW3HTZOS1KRCV755M4YX1Y4KSMO", "current_trial": 70, "dateTime": 1511195254469, "trialdata": {"rt": -1, "stimulus": "<p id=\"stim\">SCALPEL</p>", "key_press": -1, "type": "PRES_VIS", "word": "scalpel", "wordID": 1242, "conditions": [18, 1200, "v", 18000], "trial": 1, "serialpos": 15, "trial_type": "single-stim", "trial_index": 70, "time_elapsed": 494632, "internal_node_id": "0.0-52.0"}}, {"uniqueid": "MTK0513:3KRVW3HTZOS1KRCV755M4YX1Y4KSMO", "current_trial": 71, "dateTime": 1511195256714, "trialdata": {"rt": -1, "stimulus": "<p id=\"stim\">ANTLER</p>", "key_press": -1, "type": "PRES_VIS", "word": "antler", "wordID": 28, "conditions": [18, 1200, "v", 18000], "trial": 1, "serialpos": 16, "trial_type": "single-stim", "trial_index": 71, "time_elapsed": 496877, "internal_node_id": "0.0-53.0"}}, {"uniqueid": "MTK0513:3KRVW3HTZOS1KRCV755M4YX1Y4KSMO", "current_trial": 72, "dateTime": 1511195258836, "trialdata": {"rt": -1, "stimulus": "<p id=\"stim\">AUTHOR</p>", "key_press": -1, "type": "PRES_VIS", "word": "author", "wordID": 60, "conditions": [18, 1200, "v", 18000], "trial": 1, "serialpos": 17, "trial_type": "single-stim", "trial_index": 72, "time_elapsed": 498999, "internal_node_id": "0.0-54.0"}}, {"uniqueid": "MTK0513:3KRVW3HTZOS1KRCV755M4YX1Y4KSMO", "current_trial": 73, "dateTime": 1511195261112, "trialdata": {"rt": -1, "stimulus": "", "key_press": -1, "type": "PRE_RECALL_DELAY", "trial_type": "single-stim", "trial_index": 73, "time_elapsed": 501275, "internal_node_id": "0.0-55.0-0.0"}}, {"uniqueid": "MTK0513:3KRVW3HTZOS1KRCV755M4YX1Y4KSMO", "current_trial": 74, "dateTime": 1511195261614, "trialdata": {"rt": -1000, "stimulus": "/static/audio/400Hz.wav", "key_press": -1, "type": "PRE_RECALL_ALERT", "trial_type": "single-audio", "trial_index": 74, "time_elapsed": 501777, "internal_node_id": "0.0-56.0"}}, {"uniqueid": "MTK0513:3KRVW3HTZOS1KRCV755M4YX1Y4KSMO", "current_trial": 75, "dateTime": 1511195321618, "trialdata": {"rt": [2784, 5303, 6983, 12943], "recwords": ["flute", "seagull", "pepper", "author"], "type": "FREE_RECALL", "conditions": [18, 1200, "v", 18000], "trial": 1, "trial_type": "free-recall", "trial_index": 75, "time_elapsed": 561780, "internal_node_id": "0.0-57.0-0.0"}}, {"uniqueid": "MTK0513:3KRVW3HTZOS1KRCV755M4YX1Y4KSMO", "current_trial": 76, "dateTime": 1511195326464, "trialdata": {"rt": 2838, "key_press": 32, "type": "INSTRUCTIONS", "trial_type": "text", "trial_index": 76, "time_elapsed": 566620, "internal_node_id": "0.0-58.0"}}, {"uniqueid": "MTK0513:3KRVW3HTZOS1KRCV755M4YX1Y4KSMO", "current_trial": 77, "dateTime": 1511195351467, "trialdata": {"rt": [8374, 12590, 15598, 22157], "responses": ["20", "12", "15", "15"], "num1": [6, 5, 9, 3, 6], "num2": [6, 2, 5, 9, 3], "num3": [8, 5, 1, 3, 2], "type": "DISTRACTOR", "conditions": [12, 800, "a", 24000], "trial": 2, "trial_type": "math-distractor", "trial_index": 77, "time_elapsed": 591630, "internal_node_id": "0.0-59.0"}}, {"uniqueid": "MTK0513:3KRVW3HTZOS1KRCV755M4YX1Y4KSMO", "current_trial": 78, "dateTime": 1511195354469, "trialdata": {"rt": -1, "stimulus": "<p id=\"stim\">10</p>", "key_press": -1, "trial_type": "single-stim", "trial_index": 78, "time_elapsed": 594632, "internal_node_id": "0.0-60.0-0.0"}}, {"uniqueid": "MTK0513:3KRVW3HTZOS1KRCV755M4YX1Y4KSMO", "current_trial": 79, "dateTime": 1511195355471, "trialdata": {"rt": -1, "stimulus": "<p id=\"stim\">9</p>", "key_press": -1, "trial_type": "single-stim", "trial_index": 79, "time_elapsed": 595634, "internal_node_id": "0.0-60.0-1.0"}}, {"uniqueid": "MTK0513:3KRVW3HTZOS1KRCV755M4YX1Y4KSMO", "current_trial": 80, "dateTime": 1511195356473, "trialdata": {"rt": -1, "stimulus": "<p id=\"stim\">8</p>", "key_press": -1, "trial_type": "single-stim", "trial_index": 80, "time_elapsed": 596636, "internal_node_id": "0.0-60.0-2.0"}}, {"uniqueid": "MTK0513:3KRVW3HTZOS1KRCV755M4YX1Y4KSMO", "current_trial": 81, "dateTime": 1511195357473, "trialdata": {"rt": -1, "stimulus": "<p id=\"stim\">7</p>", "key_press": -1, "trial_type": "single-stim", "trial_index": 81, "time_elapsed": 597636, "internal_node_id": "0.0-60.0-3.0"}}, {"uniqueid": "MTK0513:3KRVW3HTZOS1KRCV755M4YX1Y4KSMO", "current_trial": 82, "dateTime": 1511195358474, "trialdata": {"rt": -1, "stimulus": "<p id=\"stim\">6</p>", "key_press": -1, "trial_type": "single-stim", "trial_index": 82, "time_elapsed": 598637, "internal_node_id": "0.0-60.0-4.0"}}, {"uniqueid": "MTK0513:3KRVW3HTZOS1KRCV755M4YX1Y4KSMO", "current_trial": 83, "dateTime": 1511195359476, "trialdata": {"rt": -1, "stimulus": "<p id=\"stim\">5</p>", "key_press": -1, "trial_type": "single-stim", "trial_index": 83, "time_elapsed": 599639, "internal_node_id": "0.0-60.0-5.0"}}, {"uniqueid": "MTK0513:3KRVW3HTZOS1KRCV755M4YX1Y4KSMO", "current_trial": 84, "dateTime": 1511195360476, "trialdata": {"rt": -1, "stimulus": "<p id=\"stim\">4</p>", "key_press": -1, "trial_type": "single-stim", "trial_index": 84, "time_elapsed": 600639, "internal_node_id": "0.0-60.0-6.0"}}, {"uniqueid": "MTK0513:3KRVW3HTZOS1KRCV755M4YX1Y4KSMO", "current_trial": 85, "dateTime": 1511195361478, "trialdata": {"rt": -1, "stimulus": "<p id=\"stim\">3</p>", "key_press": -1, "trial_type": "single-stim", "trial_index": 85, "time_elapsed": 601641, "internal_node_id": "0.0-60.0-7.0"}}, {"uniqueid": "MTK0513:3KRVW3HTZOS1KRCV755M4YX1Y4KSMO", "current_trial": 86, "dateTime": 1511195362479, "trialdata": {"rt": -1, "stimulus": "<p id=\"stim\">2</p>", "key_press": -1, "trial_type": "single-stim", "trial_index": 86, "time_elapsed": 602642, "internal_node_id": "0.0-60.0-8.0"}}, {"uniqueid": "MTK0513:3KRVW3HTZOS1KRCV755M4YX1Y4KSMO", "current_trial": 87, "dateTime": 1511195363479, "trialdata": {"rt": -1, "stimulus": "<p id=\"stim\">1</p>", "key_press": -1, "trial_type": "single-stim", "trial_index": 87, "time_elapsed": 603642, "internal_node_id": "0.0-60.0-9.0"}}, {"uniqueid": "MTK0513:3KRVW3HTZOS1KRCV755M4YX1Y4KSMO", "current_trial": 88, "dateTime": 1511195364980, "trialdata": {"rt": -1, "stimulus": "<p id=\"stim\">+</p>", "key_press": -1, "type": "FIXATION", "trial_type": "single-stim", "trial_index": 88, "time_elapsed": 605143, "internal_node_id": "0.0-61.0-0.0"}}, {"uniqueid": "MTK0513:3KRVW3HTZOS1KRCV755M4YX1Y4KSMO", "current_trial": 89, "dateTime": 1511195366890, "trialdata": {"rt": -1000, "stimulus": "/static/audio/wordpool/SISTER.wav", "key_press": -1, "type": "PRES_AUD", "word": "sister", "wordID": 1311, "conditions": [12, 800, "a", 24000], "trial": 2, "serialpos": 0, "trial_type": "single-audio", "trial_index": 89, "time_elapsed": 607053, "internal_node_id": "0.0-62.0"}}, {"uniqueid": "MTK0513:3KRVW3HTZOS1KRCV755M4YX1Y4KSMO", "current_trial": 90, "dateTime": 1511195368657, "trialdata": {"rt": -1000, "stimulus": "/static/audio/wordpool/BADGE.wav", "key_press": -1, "type": "PRES_AUD", "word": "badge", "wordID": 67, "conditions": [12, 800, "a", 24000], "trial": 2, "serialpos": 1, "trial_type": "single-audio", "trial_index": 90, "time_elapsed": 608820, "internal_node_id": "0.0-63.0"}}, {"uniqueid": "MTK0513:3KRVW3HTZOS1KRCV755M4YX1Y4KSMO", "current_trial": 91, "dateTime": 1511195370300, "trialdata": {"rt": -1000, "stimulus": "/static/audio/wordpool/DONOR.wav", "key_press": -1, "type": "PRES_AUD", "word": "donor", "wordID": 484, "conditions": [12, 800, "a", 24000], "trial": 2, "serialpos": 2, "trial_type": "single-audio", "trial_index": 91, "time_elapsed": 610463, "internal_node_id": "0.0-64.0"}}, {"uniqueid": "MTK0513:3KRVW3HTZOS1KRCV755M4YX1Y4KSMO", "current_trial": 92, "dateTime": 1511195372234, "trialdata": {"rt": -1000, "stimulus": "/static/audio/wordpool/ARM.wav", "key_press": -1, "type": "PRES_AUD", "word": "arm", "wordID": 37, "conditions": [12, 800, "a", 24000], "trial": 2, "serialpos": 3, "trial_type": "single-audio", "trial_index": 92, "time_elapsed": 612397, "internal_node_id": "0.0-65.0"}}, {"uniqueid": "MTK0513:3KRVW3HTZOS1KRCV755M4YX1Y4KSMO", "current_trial": 93, "dateTime": 1511195374117, "trialdata": {"rt": -1000, "stimulus": "/static/audio/wordpool/PUPPY.wav", "key_press": -1, "type": "PRES_AUD", "word": "puppy", "wordID": 1143, "conditions": [12, 800, "a", 24000], "trial": 2, "serialpos": 4, "trial_type": "single-audio", "trial_index": 93, "time_elapsed": 614280, "internal_node_id": "0.0-66.0"}}, {"uniqueid": "MTK0513:3KRVW3HTZOS1KRCV755M4YX1Y4KSMO", "current_trial": 94, "dateTime": 1511195375892, "trialdata": {"rt": -1000, "stimulus": "/static/audio/wordpool/RABBIT.wav", "key_press": -1, "type": "PRES_AUD", "word": "rabbit", "wordID": 1151, "conditions": [12, 800, "a", 24000], "trial": 2, "serialpos": 5, "trial_type": "single-audio", "trial_index": 94, "time_elapsed": 616055, "internal_node_id": "0.0-67.0"}}, {"uniqueid": "MTK0513:3KRVW3HTZOS1KRCV755M4YX1Y4KSMO", "current_trial": 95, "dateTime": 1511195377728, "trialdata": {"rt": -1000, "stimulus": "/static/audio/wordpool/PARTNER.wav", "key_press": -1, "type": "PRES_AUD", "word": "partner", "wordID": 1016, "conditions": [12, 800, "a", 24000], "trial": 2, "serialpos": 6, "trial_type": "single-audio", "trial_index": 95, "time_elapsed": 617891, "internal_node_id": "0.0-68.0"}}, {"uniqueid": "MTK0513:3KRVW3HTZOS1KRCV755M4YX1Y4KSMO", "current_trial": 96, "dateTime": 1511195379535, "trialdata": {"rt": -1000, "stimulus": "/static/audio/wordpool/PACKAGE.wav", "key_press": -1, "type": "PRES_AUD", "word": "package", "wordID": 996, "conditions": [12, 800, "a", 24000], "trial": 2, "serialpos": 7, "trial_type": "single-audio", "trial_index": 96, "time_elapsed": 619698, "internal_node_id": "0.0-69.0"}}, {"uniqueid": "MTK0513:3KRVW3HTZOS1KRCV755M4YX1Y4KSMO", "current_trial": 97, "dateTime": 1511195381338, "trialdata": {"rt": -1000, "stimulus": "/static/audio/wordpool/SANDWICH.wav", "key_press": -1, "type": "PRES_AUD", "word": "sandwich", "wordID": 1231, "conditions": [12, 800, "a", 24000], "trial": 2, "serialpos": 8, "trial_type": "single-audio", "trial_index": 97, "time_elapsed": 621501, "internal_node_id": "0.0-70.0"}}, {"uniqueid": "MTK0513:3KRVW3HTZOS1KRCV755M4YX1Y4KSMO", "current_trial": 98, "dateTime": 1511195383127, "trialdata": {"rt": -1000, "stimulus": "/static/audio/wordpool/ACTRESS.wav", "key_press": -1, "type": "PRES_AUD", "word": "actress", "wordID": 5, "conditions": [12, 800, "a", 24000], "trial": 2, "serialpos": 9, "trial_type": "single-audio", "trial_index": 98, "time_elapsed": 623290, "internal_node_id": "0.0-71.0"}}, {"uniqueid": "MTK0513:3KRVW3HTZOS1KRCV755M4YX1Y4KSMO", "current_trial": 99, "dateTime": 1511195385016, "trialdata": {"rt": -1000, "stimulus": "/static/audio/wordpool/TYPIST.wav", "key_press": -1, "type": "PRES_AUD", "word": "typist", "wordID": 1531, "conditions": [12, 800, "a", 24000], "trial": 2, "serialpos": 10, "trial_type": "single-audio", "trial_index": 99, "time_elapsed": 625179, "internal_node_id": "0.0-72.0"}}, {"uniqueid": "MTK0513:3KRVW3HTZOS1KRCV755M4YX1Y4KSMO", "current_trial": 100, "dateTime": 1511195386800, "trialdata": {"rt": -1000, "stimulus": "/static/audio/wordpool/SAUSAGE.wav", "key_press": -1, "type": "PRES_AUD", "word": "sausage", "wordID": 1237, "conditions": [12, 800, "a", 24000], "trial": 2, "serialpos": 11, "trial_type": "single-audio", "trial_index": 100, "time_elapsed": 626963, "internal_node_id": "0.0-73.0"}}, {"uniqueid": "MTK0513:3KRVW3HTZOS1KRCV755M4YX1Y4KSMO", "current_trial": 101, "dateTime": 1511195388119, "trialdata": {"rt": -1, "stimulus": "", "key_press": -1, "type": "PRE_RECALL_DELAY", "trial_type": "single-stim", "trial_index": 101, "time_elapsed": 628282, "internal_node_id": "0.0-74.0-0.0"}}, {"uniqueid": "MTK0513:3KRVW3HTZOS1KRCV755M4YX1Y4KSMO", "current_trial": 102, "dateTime": 1511195388626, "trialdata": {"rt": -1000, "stimulus": "/static/audio/400Hz.wav", "key_press": -1, "type": "PRE_RECALL_ALERT", "trial_type": "single-audio", "trial_index": 102, "time_elapsed": 628784, "internal_node_id": "0.0-75.0"}}, {"uniqueid": "MTK0513:3KRVW3HTZOS1KRCV755M4YX1Y4KSMO", "current_trial": 103, "dateTime": 1511195448632, "trialdata": {"rt": [4244, 6307, 8787, 10907, 13219], "recwords": ["sister", "arm", "package", "rabbit", "donor"], "type": "FREE_RECALL", "conditions": [12, 800, "a", 24000], "trial": 2, "trial_type": "free-recall", "trial_index": 103, "time_elapsed": 688791, "internal_node_id": "0.0-76.0-0.0"}}, {"uniqueid": "MTK0513:3KRVW3HTZOS1KRCV755M4YX1Y4KSMO", "current_trial": 104, "dateTime": 1511195460614, "trialdata": {"rt": 9981, "key_press": 32, "type": "INSTRUCTIONS", "trial_type": "text", "trial_index": 104, "time_elapsed": 700777, "internal_node_id": "0.0-77.0"}}, {"uniqueid": "MTK0513:3KRVW3HTZOS1KRCV755M4YX1Y4KSMO", "current_trial": 105, "dateTime": 1511195486616, "trialdata": {"rt": [6037, 10574, 12998, 17685], "responses": ["12 ", "16", "14", "15"], "num1": [4, 3, 6, 5, 5], "num2": [6, 7, 5, 4, 9], "num3": [2, 6, 3, 6, 3], "type": "DISTRACTOR", "conditions": [24, 1600, "a", 24000], "trial": 3, "trial_type": "math-distractor", "trial_index": 105, "time_elapsed": 726779, "internal_node_id": "0.0-78.0"}}, {"uniqueid": "MTK0513:3KRVW3HTZOS1KRCV755M4YX1Y4KSMO", "current_trial": 106, "dateTime": 1511195489618, "trialdata": {"rt": -1, "stimulus": "<p id=\"stim\">10</p>", "key_press": -1, "trial_type": "single-stim", "trial_index": 106, "time_elapsed": 729781, "internal_node_id": "0.0-79.0-0.0"}}, {"uniqueid": "MTK0513:3KRVW3HTZOS1KRCV755M4YX1Y4KSMO", "current_trial": 107, "dateTime": 1511195490620, "trialdata": {"rt": -1, "stimulus": "<p id=\"stim\">9</p>", "key_press": -1, "trial_type": "single-stim", "trial_index": 107, "time_elapsed": 730783, "internal_node_id": "0.0-79.0-1.0"}}, {"uniqueid": "MTK0513:3KRVW3HTZOS1KRCV755M4YX1Y4KSMO", "current_trial": 108, "dateTime": 1511195491621, "trialdata": {"rt": -1, "stimulus": "<p id=\"stim\">8</p>", "key_press": -1, "trial_type": "single-stim", "trial_index": 108, "time_elapsed": 731784, "internal_node_id": "0.0-79.0-2.0"}}, {"uniqueid": "MTK0513:3KRVW3HTZOS1KRCV755M4YX1Y4KSMO", "current_trial": 109, "dateTime": 1511195492623, "trialdata": {"rt": -1, "stimulus": "<p id=\"stim\">7</p>", "key_press": -1, "trial_type": "single-stim", "trial_index": 109, "time_elapsed": 732786, "internal_node_id": "0.0-79.0-3.0"}}, {"uniqueid": "MTK0513:3KRVW3HTZOS1KRCV755M4YX1Y4KSMO", "current_trial": 110, "dateTime": 1511195493625, "trialdata": {"rt": -1, "stimulus": "<p id=\"stim\">6</p>", "key_press": -1, "trial_type": "single-stim", "trial_index": 110, "time_elapsed": 733787, "internal_node_id": "0.0-79.0-4.0"}}, {"uniqueid": "MTK0513:3KRVW3HTZOS1KRCV755M4YX1Y4KSMO", "current_trial": 111, "dateTime": 1511195494626, "trialdata": {"rt": -1, "stimulus": "<p id=\"stim\">5</p>", "key_press": -1, "trial_type": "single-stim", "trial_index": 111, "time_elapsed": 734788, "internal_node_id": "0.0-79.0-5.0"}}, {"uniqueid": "MTK0513:3KRVW3HTZOS1KRCV755M4YX1Y4KSMO", "current_trial": 112, "dateTime": 1511195495627, "trialdata": {"rt": -1, "stimulus": "<p id=\"stim\">4</p>", "key_press": -1, "trial_type": "single-stim", "trial_index": 112, "time_elapsed": 735790, "internal_node_id": "0.0-79.0-6.0"}}, {"uniqueid": "MTK0513:3KRVW3HTZOS1KRCV755M4YX1Y4KSMO", "current_trial": 113, "dateTime": 1511195496629, "trialdata": {"rt": -1, "stimulus": "<p id=\"stim\">3</p>", "key_press": -1, "trial_type": "single-stim", "trial_index": 113, "time_elapsed": 736792, "internal_node_id": "0.0-79.0-7.0"}}, {"uniqueid": "MTK0513:3KRVW3HTZOS1KRCV755M4YX1Y4KSMO", "current_trial": 114, "dateTime": 1511195497630, "trialdata": {"rt": -1, "stimulus": "<p id=\"stim\">2</p>", "key_press": -1, "trial_type": "single-stim", "trial_index": 114, "time_elapsed": 737793, "internal_node_id": "0.0-79.0-8.0"}}, {"uniqueid": "MTK0513:3KRVW3HTZOS1KRCV755M4YX1Y4KSMO", "current_trial": 115, "dateTime": 1511195498634, "trialdata": {"rt": -1, "stimulus": "<p id=\"stim\">1</p>", "key_press": -1, "trial_type": "single-stim", "trial_index": 115, "time_elapsed": 738797, "internal_node_id": "0.0-79.0-9.0"}}, {"uniqueid": "MTK0513:3KRVW3HTZOS1KRCV755M4YX1Y4KSMO", "current_trial": 116, "dateTime": 1511195500135, "trialdata": {"rt": -1, "stimulus": "<p id=\"stim\">+</p>", "key_press": -1, "type": "FIXATION", "trial_type": "single-stim", "trial_index": 116, "time_elapsed": 740298, "internal_node_id": "0.0-80.0-0.0"}}, {"uniqueid": "MTK0513:3KRVW3HTZOS1KRCV755M4YX1Y4KSMO", "current_trial": 117, "dateTime": 1511195502934, "trialdata": {"rt": -1000, "stimulus": "/static/audio/wordpool/FLASHLIGHT.wav", "key_press": -1, "type": "PRES_AUD", "word": "flashlight", "wordID": 574, "conditions": [24, 1600, "a", 24000], "trial": 3, "serialpos": 0, "trial_type": "single-audio", "trial_index": 117, "time_elapsed": 743097, "internal_node_id": "0.0-81.0"}}, {"uniqueid": "MTK0513:3KRVW3HTZOS1KRCV755M4YX1Y4KSMO", "current_trial": 118, "dateTime": 1511195505585, "trialdata": {"rt": -1000, "stimulus": "/static/audio/wordpool/PLUTO.wav", "key_press": -1, "type": "PRES_AUD", "word": "pluto", "wordID": 1091, "conditions": [24, 1600, "a", 24000], "trial": 3, "serialpos": 1, "trial_type": "single-audio", "trial_index": 118, "time_elapsed": 745748, "internal_node_id": "0.0-82.0"}}, {"uniqueid": "MTK0513:3KRVW3HTZOS1KRCV755M4YX1Y4KSMO", "current_trial": 119, "dateTime": 1511195508327, "trialdata": {"rt": -1000, "stimulus": "/static/audio/wordpool/LAKE.wav", "key_press": -1, "type": "PRES_AUD", "word": "lake", "wordID": 795, "conditions": [24, 1600, "a", 24000], "trial": 3, "serialpos": 2, "trial_type": "single-audio", "trial_index": 119, "time_elapsed": 748490, "internal_node_id": "0.0-83.0"}}, {"uniqueid": "MTK0513:3KRVW3HTZOS1KRCV755M4YX1Y4KSMO", "current_trial": 120, "dateTime": 1511195510972, "trialdata": {"rt": -1000, "stimulus": "/static/audio/wordpool/TURTLE.wav", "key_press": -1, "type": "PRES_AUD", "word": "turtle", "wordID": 1521, "conditions": [24, 1600, "a", 24000], "trial": 3, "serialpos": 3, "trial_type": "single-audio", "trial_index": 120, "time_elapsed": 751134, "internal_node_id": "0.0-84.0"}}, {"uniqueid": "MTK0513:3KRVW3HTZOS1KRCV755M4YX1Y4KSMO", "current_trial": 121, "dateTime": 1511195513729, "trialdata": {"rt": -1000, "stimulus": "/static/audio/wordpool/WHISTLE.wav", "key_press": -1, "type": "PRES_AUD", "word": "whistle", "wordID": 1605, "conditions": [24, 1600, "a", 24000], "trial": 3, "serialpos": 4, "trial_type": "single-audio", "trial_index": 121, "time_elapsed": 753892, "internal_node_id": "0.0-85.0"}}, {"uniqueid": "MTK0513:3KRVW3HTZOS1KRCV755M4YX1Y4KSMO", "current_trial": 122, "dateTime": 1511195516155, "trialdata": {"rt": -1000, "stimulus": "/static/audio/wordpool/PIZZA.wav", "key_press": -1, "type": "PRES_AUD", "word": "pizza", "wordID": 1078, "conditions": [24, 1600, "a", 24000], "trial": 3, "serialpos": 5, "trial_type": "single-audio", "trial_index": 122, "time_elapsed": 756318, "internal_node_id": "0.0-86.0"}}, {"uniqueid": "MTK0513:3KRVW3HTZOS1KRCV755M4YX1Y4KSMO", "current_trial": 123, "dateTime": 1511195518801, "trialdata": {"rt": -1000, "stimulus": "/static/audio/wordpool/DOUGHNUT.wav", "key_press": -1, "type": "PRES_AUD", "word": "doughnut", "wordID": 489, "conditions": [24, 1600, "a", 24000], "trial": 3, "serialpos": 6, "trial_type": "single-audio", "trial_index": 123, "time_elapsed": 758964, "internal_node_id": "0.0-87.0"}}, {"uniqueid": "MTK0513:3KRVW3HTZOS1KRCV755M4YX1Y4KSMO", "current_trial": 124, "dateTime": 1511195521390, "trialdata": {"rt": -1000, "stimulus": "/static/audio/wordpool/MARSH.wav", "key_press": -1, "type": "PRES_AUD", "word": "marsh", "wordID": 873, "conditions": [24, 1600, "a", 24000], "trial": 3, "serialpos": 7, "trial_type": "single-audio", "trial_index": 124, "time_elapsed": 761553, "internal_node_id": "0.0-88.0"}}, {"uniqueid": "MTK0513:3KRVW3HTZOS1KRCV755M4YX1Y4KSMO", "current_trial": 125, "dateTime": 1511195524123, "trialdata": {"rt": -1000, "stimulus": "/static/audio/wordpool/MOTEL.wav", "key_press": -1, "type": "PRES_AUD", "word": "motel", "wordID": 918, "conditions": [24, 1600, "a", 24000], "trial": 3, "serialpos": 8, "trial_type": "single-audio", "trial_index": 125, "time_elapsed": 764286, "internal_node_id": "0.0-89.0"}}, {"uniqueid": "MTK0513:3KRVW3HTZOS1KRCV755M4YX1Y4KSMO", "current_trial": 126, "dateTime": 1511195526730, "trialdata": {"rt": -1000, "stimulus": "/static/audio/wordpool/SUBWAY.wav", "key_press": -1, "type": "PRES_AUD", "word": "subway", "wordID": 1399, "conditions": [24, 1600, "a", 24000], "trial": 3, "serialpos": 9, "trial_type": "single-audio", "trial_index": 126, "time_elapsed": 766893, "internal_node_id": "0.0-90.0"}}, {"uniqueid": "MTK0513:3KRVW3HTZOS1KRCV755M4YX1Y4KSMO", "current_trial": 127, "dateTime": 1511195529502, "trialdata": {"rt": -1000, "stimulus": "/static/audio/wordpool/DINER.wav", "key_press": -1, "type": "PRES_AUD", "word": "diner", "wordID": 466, "conditions": [24, 1600, "a", 24000], "trial": 3, "serialpos": 10, "trial_type": "single-audio", "trial_index": 127, "time_elapsed": 769665, "internal_node_id": "0.0-91.0"}}, {"uniqueid": "MTK0513:3KRVW3HTZOS1KRCV755M4YX1Y4KSMO", "current_trial": 128, "dateTime": 1511195532108, "trialdata": {"rt": -1000, "stimulus": "/static/audio/wordpool/KEEPER.wav", "key_press": -1, "type": "PRES_AUD", "word": "keeper", "wordID": 768, "conditions": [24, 1600, "a", 24000], "trial": 3, "serialpos": 11, "trial_type": "single-audio", "trial_index": 128, "time_elapsed": 772271, "internal_node_id": "0.0-92.0"}}, {"uniqueid": "MTK0513:3KRVW3HTZOS1KRCV755M4YX1Y4KSMO", "current_trial": 129, "dateTime": 1511195534740, "trialdata": {"rt": -1000, "stimulus": "/static/audio/wordpool/CLOTHES.wav", "key_press": -1, "type": "PRES_AUD", "word": "clothes", "wordID": 326, "conditions": [24, 1600, "a", 24000], "trial": 3, "serialpos": 12, "trial_type": "single-audio", "trial_index": 129, "time_elapsed": 774903, "internal_node_id": "0.0-93.0"}}, {"uniqueid": "MTK0513:3KRVW3HTZOS1KRCV755M4YX1Y4KSMO", "current_trial": 130, "dateTime": 1511195537187, "trialdata": {"rt": -1000, "stimulus": "/static/audio/wordpool/WIFE.wav", "key_press": -1, "type": "PRES_AUD", "word": "wife", "wordID": 1608, "conditions": [24, 1600, "a", 24000], "trial": 3, "serialpos": 13, "trial_type": "single-audio", "trial_index": 130, "time_elapsed": 777350, "internal_node_id": "0.0-94.0"}}, {"uniqueid": "MTK0513:3KRVW3HTZOS1KRCV755M4YX1Y4KSMO", "current_trial": 131, "dateTime": 1511195539660, "trialdata": {"rt": -1000, "stimulus": "/static/audio/wordpool/OFFICE.wav", "key_press": -1, "type": "PRES_AUD", "word": "office", "wordID": 971, "conditions": [24, 1600, "a", 24000], "trial": 3, "serialpos": 14, "trial_type": "single-audio", "trial_index": 131, "time_elapsed": 779823, "internal_node_id": "0.0-95.0"}}, {"uniqueid": "MTK0513:3KRVW3HTZOS1KRCV755M4YX1Y4KSMO", "current_trial": 132, "dateTime": 1511195542217, "trialdata": {"rt": -1000, "stimulus": "/static/audio/wordpool/BRANDY.wav", "key_press": -1, "type": "PRES_AUD", "word": "brandy", "wordID": 168, "conditions": [24, 1600, "a", 24000], "trial": 3, "serialpos": 15, "trial_type": "single-audio", "trial_index": 132, "time_elapsed": 782380, "internal_node_id": "0.0-96.0"}}, {"uniqueid": "MTK0513:3KRVW3HTZOS1KRCV755M4YX1Y4KSMO", "current_trial": 133, "dateTime": 1511195544894, "trialdata": {"rt": -1000, "stimulus": "/static/audio/wordpool/GIRL.wav", "key_press": -1, "type": "PRES_AUD", "word": "girl", "wordID": 636, "conditions": [24, 1600, "a", 24000], "trial": 3, "serialpos": 16, "trial_type": "single-audio", "trial_index": 133, "time_elapsed": 785057, "internal_node_id": "0.0-97.0"}}, {"uniqueid": "MTK0513:3KRVW3HTZOS1KRCV755M4YX1Y4KSMO", "current_trial": 134, "dateTime": 1511195547416, "trialdata": {"rt": -1000, "stimulus": "/static/audio/wordpool/BOYFRIEND.wav", "key_press": -1, "type": "PRES_AUD", "word": "boyfriend", "wordID": 161, "conditions": [24, 1600, "a", 24000], "trial": 3, "serialpos": 17, "trial_type": "single-audio", "trial_index": 134, "time_elapsed": 787579, "internal_node_id": "0.0-98.0"}}, {"uniqueid": "MTK0513:3KRVW3HTZOS1KRCV755M4YX1Y4KSMO", "current_trial": 135, "dateTime": 1511195550112, "trialdata": {"rt": -1000, "stimulus": "/static/audio/wordpool/PUDDING.wav", "key_press": -1, "type": "PRES_AUD", "word": "pudding", "wordID": 1138, "conditions": [24, 1600, "a", 24000], "trial": 3, "serialpos": 18, "trial_type": "single-audio", "trial_index": 135, "time_elapsed": 790275, "internal_node_id": "0.0-99.0"}}, {"uniqueid": "MTK0513:3KRVW3HTZOS1KRCV755M4YX1Y4KSMO", "current_trial": 136, "dateTime": 1511195552791, "trialdata": {"rt": -1000, "stimulus": "/static/audio/wordpool/APRON.wav", "key_press": -1, "type": "PRES_AUD", "word": "apron", "wordID": 34, "conditions": [24, 1600, "a", 24000], "trial": 3, "serialpos": 19, "trial_type": "single-audio", "trial_index": 136, "time_elapsed": 792954, "internal_node_id": "0.0-100.0"}}, {"uniqueid": "MTK0513:3KRVW3HTZOS1KRCV755M4YX1Y4KSMO", "current_trial": 137, "dateTime": 1511195555426, "trialdata": {"rt": -1000, "stimulus": "/static/audio/wordpool/CAFE.wav", "key_press": -1, "type": "PRES_AUD", "word": "cafe", "wordID": 215, "conditions": [24, 1600, "a", 24000], "trial": 3, "serialpos": 20, "trial_type": "single-audio", "trial_index": 137, "time_elapsed": 795589, "internal_node_id": "0.0-101.0"}}, {"uniqueid": "MTK0513:3KRVW3HTZOS1KRCV755M4YX1Y4KSMO", "current_trial": 138, "dateTime": 1511195558057, "trialdata": {"rt": -1000, "stimulus": "/static/audio/wordpool/SOFTBALL.wav", "key_press": -1, "type": "PRES_AUD", "word": "softball", "wordID": 1342, "conditions": [24, 1600, "a", 24000], "trial": 3, "serialpos": 21, "trial_type": "single-audio", "trial_index": 138, "time_elapsed": 798220, "internal_node_id": "0.0-102.0"}}, {"uniqueid": "MTK0513:3KRVW3HTZOS1KRCV755M4YX1Y4KSMO", "current_trial": 139, "dateTime": 1511195560650, "trialdata": {"rt": -1000, "stimulus": "/static/audio/wordpool/WARDROBE.wav", "key_press": -1, "type": "PRES_AUD", "word": "wardrobe", "wordID": 1586, "conditions": [24, 1600, "a", 24000], "trial": 3, "serialpos": 22, "trial_type": "single-audio", "trial_index": 139, "time_elapsed": 800813, "internal_node_id": "0.0-103.0"}}, {"uniqueid": "MTK0513:3KRVW3HTZOS1KRCV755M4YX1Y4KSMO", "current_trial": 140, "dateTime": 1511195563409, "trialdata": {"rt": -1000, "stimulus": "/static/audio/wordpool/DOLPHIN.wav", "key_press": -1, "type": "PRES_AUD", "word": "dolphin", "wordID": 482, "conditions": [24, 1600, "a", 24000], "trial": 3, "serialpos": 23, "trial_type": "single-audio", "trial_index": 140, "time_elapsed": 803572, "internal_node_id": "0.0-104.0"}}, {"uniqueid": "MTK0513:3KRVW3HTZOS1KRCV755M4YX1Y4KSMO", "current_trial": 141, "dateTime": 1511195564708, "trialdata": {"rt": -1, "stimulus": "", "key_press": -1, "type": "PRE_RECALL_DELAY", "trial_type": "single-stim", "trial_index": 141, "time_elapsed": 804871, "internal_node_id": "0.0-105.0-0.0"}}, {"uniqueid": "MTK0513:3KRVW3HTZOS1KRCV755M4YX1Y4KSMO", "current_trial": 142, "dateTime": 1511195565211, "trialdata": {"rt": -1000, "stimulus": "/static/audio/400Hz.wav", "key_press": -1, "type": "PRE_RECALL_ALERT", "trial_type": "single-audio", "trial_index": 142, "time_elapsed": 805373, "internal_node_id": "0.0-106.0"}}, {"uniqueid": "MTK0513:3KRVW3HTZOS1KRCV755M4YX1Y4KSMO", "current_trial": 143, "dateTime": 1511195625221, "trialdata": {"rt": [3376, 5696, 9168, 13721, 17320, 21209], "recwords": ["pizza", "turtle", "wife", "dolphin", "donut", "marsh"], "type": "FREE_RECALL", "conditions": [24, 1600, "a", 24000], "trial": 3, "trial_type": "free-recall", "trial_index": 143, "time_elapsed": 865378, "internal_node_id": "0.0-107.0-0.0"}}, {"uniqueid": "MTK0513:3KRVW3HTZOS1KRCV755M4YX1Y4KSMO", "current_trial": 144, "dateTime": 1511195629367, "trialdata": {"rt": 2144, "key_press": 32, "type": "INSTRUCTIONS", "trial_type": "text", "trial_index": 144, "time_elapsed": 869530, "internal_node_id": "0.0-108.0"}}, {"uniqueid": "MTK0513:3KRVW3HTZOS1KRCV755M4YX1Y4KSMO", "current_trial": 145, "dateTime": 1511195643378, "trialdata": {"rt": [5371, 9467], "responses": ["15", "22"], "num1": [8, 9, 6], "num2": [3, 6, 1], "num3": [4, 7, 8], "type": "DISTRACTOR", "conditions": [24, 1600, "v", 12000], "trial": 4, "trial_type": "math-distractor", "trial_index": 145, "time_elapsed": 883541, "internal_node_id": "0.0-109.0"}}, {"uniqueid": "MTK0513:3KRVW3HTZOS1KRCV755M4YX1Y4KSMO", "current_trial": 146, "dateTime": 1511195646381, "trialdata": {"rt": -1, "stimulus": "<p id=\"stim\">10</p>", "key_press": -1, "trial_type": "single-stim", "trial_index": 146, "time_elapsed": 886543, "internal_node_id": "0.0-110.0-0.0"}}, {"uniqueid": "MTK0513:3KRVW3HTZOS1KRCV755M4YX1Y4KSMO", "current_trial": 147, "dateTime": 1511195647383, "trialdata": {"rt": -1, "stimulus": "<p id=\"stim\">9</p>", "key_press": -1, "trial_type": "single-stim", "trial_index": 147, "time_elapsed": 887545, "internal_node_id": "0.0-110.0-1.0"}}, {"uniqueid": "MTK0513:3KRVW3HTZOS1KRCV755M4YX1Y4KSMO", "current_trial": 148, "dateTime": 1511195648384, "trialdata": {"rt": -1, "stimulus": "<p id=\"stim\">8</p>", "key_press": -1, "trial_type": "single-stim", "trial_index": 148, "time_elapsed": 888547, "internal_node_id": "0.0-110.0-2.0"}}, {"uniqueid": "MTK0513:3KRVW3HTZOS1KRCV755M4YX1Y4KSMO", "current_trial": 149, "dateTime": 1511195649389, "trialdata": {"rt": -1, "stimulus": "<p id=\"stim\">7</p>", "key_press": -1, "trial_type": "single-stim", "trial_index": 149, "time_elapsed": 889549, "internal_node_id": "0.0-110.0-3.0"}}, {"uniqueid": "MTK0513:3KRVW3HTZOS1KRCV755M4YX1Y4KSMO", "current_trial": 150, "dateTime": 1511195650391, "trialdata": {"rt": -1, "stimulus": "<p id=\"stim\">6</p>", "key_press": -1, "trial_type": "single-stim", "trial_index": 150, "time_elapsed": 890554, "internal_node_id": "0.0-110.0-4.0"}}, {"uniqueid": "MTK0513:3KRVW3HTZOS1KRCV755M4YX1Y4KSMO", "current_trial": 151, "dateTime": 1511195651393, "trialdata": {"rt": -1, "stimulus": "<p id=\"stim\">5</p>", "key_press": -1, "trial_type": "single-stim", "trial_index": 151, "time_elapsed": 891556, "internal_node_id": "0.0-110.0-5.0"}}, {"uniqueid": "MTK0513:3KRVW3HTZOS1KRCV755M4YX1Y4KSMO", "current_trial": 152, "dateTime": 1511195652395, "trialdata": {"rt": -1, "stimulus": "<p id=\"stim\">4</p>", "key_press": -1, "trial_type": "single-stim", "trial_index": 152, "time_elapsed": 892558, "internal_node_id": "0.0-110.0-6.0"}}, {"uniqueid": "MTK0513:3KRVW3HTZOS1KRCV755M4YX1Y4KSMO", "current_trial": 153, "dateTime": 1511195653398, "trialdata": {"rt": -1, "stimulus": "<p id=\"stim\">3</p>", "key_press": -1, "trial_type": "single-stim", "trial_index": 153, "time_elapsed": 893560, "internal_node_id": "0.0-110.0-7.0"}}, {"uniqueid": "MTK0513:3KRVW3HTZOS1KRCV755M4YX1Y4KSMO", "current_trial": 154, "dateTime": 1511195654399, "trialdata": {"rt": -1, "stimulus": "<p id=\"stim\">2</p>", "key_press": -1, "trial_type": "single-stim", "trial_index": 154, "time_elapsed": 894562, "internal_node_id": "0.0-110.0-8.0"}}, {"uniqueid": "MTK0513:3KRVW3HTZOS1KRCV755M4YX1Y4KSMO", "current_trial": 155, "dateTime": 1511195655402, "trialdata": {"rt": -1, "stimulus": "<p id=\"stim\">1</p>", "key_press": -1, "trial_type": "single-stim", "trial_index": 155, "time_elapsed": 895565, "internal_node_id": "0.0-110.0-9.0"}}, {"uniqueid": "MTK0513:3KRVW3HTZOS1KRCV755M4YX1Y4KSMO", "current_trial": 156, "dateTime": 1511195656903, "trialdata": {"rt": -1, "stimulus": "<p id=\"stim\">+</p>", "key_press": -1, "type": "FIXATION", "trial_type": "single-stim", "trial_index": 156, "time_elapsed": 897066, "internal_node_id": "0.0-111.0-0.0"}}, {"uniqueid": "MTK0513:3KRVW3HTZOS1KRCV755M4YX1Y4KSMO", "current_trial": 157, "dateTime": 1511195658505, "trialdata": {"rt": -1, "stimulus": "<p id=\"stim\">FIDDLE</p>", "key_press": -1, "type": "PRES_VIS", "word": "fiddle", "wordID": 560, "conditions": [24, 1600, "v", 12000], "trial": 4, "serialpos": 0, "trial_type": "single-stim", "trial_index": 157, "time_elapsed": 898668, "internal_node_id": "0.0-112.0"}}, {"uniqueid": "MTK0513:3KRVW3HTZOS1KRCV755M4YX1Y4KSMO", "current_trial": 158, "dateTime": 1511195661138, "trialdata": {"rt": -1, "stimulus": "<p id=\"stim\">MACHINE</p>", "key_press": -1, "type": "PRES_VIS", "word": "machine", "wordID": 851, "conditions": [24, 1600, "v", 12000], "trial": 4, "serialpos": 1, "trial_type": "single-stim", "trial_index": 158, "time_elapsed": 901301, "internal_node_id": "0.0-113.0"}}, {"uniqueid": "MTK0513:3KRVW3HTZOS1KRCV755M4YX1Y4KSMO", "current_trial": 159, "dateTime": 1511195663598, "trialdata": {"rt": -1, "stimulus": "<p id=\"stim\">PLAZA</p>", "key_press": -1, "type": "PRES_VIS", "word": "plaza", "wordID": 1087, "conditions": [24, 1600, "v", 12000], "trial": 4, "serialpos": 2, "trial_type": "single-stim", "trial_index": 159, "time_elapsed": 903761, "internal_node_id": "0.0-114.0"}}, {"uniqueid": "MTK0513:3KRVW3HTZOS1KRCV755M4YX1Y4KSMO", "current_trial": 160, "dateTime": 1511195666237, "trialdata": {"rt": -1, "stimulus": "<p id=\"stim\">SPACE</p>", "key_press": -1, "type": "PRES_VIS", "word": "space", "wordID": 1344, "conditions": [24, 1600, "v", 12000], "trial": 4, "serialpos": 3, "trial_type": "single-stim", "trial_index": 160, "time_elapsed": 906400, "internal_node_id": "0.0-115.0"}}, {"uniqueid": "MTK0513:3KRVW3HTZOS1KRCV755M4YX1Y4KSMO", "current_trial": 161, "dateTime": 1511195668977, "trialdata": {"rt": -1, "stimulus": "<p id=\"stim\">TOURIST</p>", "key_press": -1, "type": "PRES_VIS", "word": "tourist", "wordID": 1487, "conditions": [24, 1600, "v", 12000], "trial": 4, "serialpos": 4, "trial_type": "single-stim", "trial_index": 161, "time_elapsed": 909139, "internal_node_id": "0.0-116.0"}}, {"uniqueid": "MTK0513:3KRVW3HTZOS1KRCV755M4YX1Y4KSMO", "current_trial": 162, "dateTime": 1511195671735, "trialdata": {"rt": -1, "stimulus": "<p id=\"stim\">COCKTAIL</p>", "key_press": -1, "type": "PRES_VIS", "word": "cocktail", "wordID": 337, "conditions": [24, 1600, "v", 12000], "trial": 4, "serialpos": 5, "trial_type": "single-stim", "trial_index": 162, "time_elapsed": 911898, "internal_node_id": "0.0-117.0"}}, {"uniqueid": "MTK0513:3KRVW3HTZOS1KRCV755M4YX1Y4KSMO", "current_trial": 163, "dateTime": 1511195674324, "trialdata": {"rt": -1, "stimulus": "<p id=\"stim\">SHERIFF</p>", "key_press": -1, "type": "PRES_VIS", "word": "sheriff", "wordID": 1283, "conditions": [24, 1600, "v", 12000], "trial": 4, "serialpos": 6, "trial_type": "single-stim", "trial_index": 163, "time_elapsed": 914487, "internal_node_id": "0.0-118.0"}}, {"uniqueid": "MTK0513:3KRVW3HTZOS1KRCV755M4YX1Y4KSMO", "current_trial": 164, "dateTime": 1511195676895, "trialdata": {"rt": -1, "stimulus": "<p id=\"stim\">FLOWER</p>", "key_press": -1, "type": "PRES_VIS", "word": "flower", "wordID": 583, "conditions": [24, 1600, "v", 12000], "trial": 4, "serialpos": 7, "trial_type": "single-stim", "trial_index": 164, "time_elapsed": 917058, "internal_node_id": "0.0-119.0"}}, {"uniqueid": "MTK0513:3KRVW3HTZOS1KRCV755M4YX1Y4KSMO", "current_trial": 165, "dateTime": 1511195679334, "trialdata": {"rt": -1, "stimulus": "<p id=\"stim\">GARDEN</p>", "key_press": -1, "type": "PRES_VIS", "word": "garden", "wordID": 622, "conditions": [24, 1600, "v", 12000], "trial": 4, "serialpos": 8, "trial_type": "single-stim", "trial_index": 165, "time_elapsed": 919496, "internal_node_id": "0.0-120.0"}}, {"uniqueid": "MTK0513:3KRVW3HTZOS1KRCV755M4YX1Y4KSMO", "current_trial": 166, "dateTime": 1511195681920, "trialdata": {"rt": -1, "stimulus": "<p id=\"stim\">HOUND</p>", "key_press": -1, "type": "PRES_VIS", "word": "hound", "wordID": 723, "conditions": [24, 1600, "v", 12000], "trial": 4, "serialpos": 9, "trial_type": "single-stim", "trial_index": 166, "time_elapsed": 922082, "internal_node_id": "0.0-121.0"}}, {"uniqueid": "MTK0513:3KRVW3HTZOS1KRCV755M4YX1Y4KSMO", "current_trial": 167, "dateTime": 1511195684429, "trialdata": {"rt": -1, "stimulus": "<p id=\"stim\">COUNTY</p>", "key_press": -1, "type": "PRES_VIS", "word": "county", "wordID": 388, "conditions": [24, 1600, "v", 12000], "trial": 4, "serialpos": 10, "trial_type": "single-stim", "trial_index": 167, "time_elapsed": 924592, "internal_node_id": "0.0-122.0"}}, {"uniqueid": "MTK0513:3KRVW3HTZOS1KRCV755M4YX1Y4KSMO", "current_trial": 168, "dateTime": 1511195687049, "trialdata": {"rt": -1, "stimulus": "<p id=\"stim\">GRAPE</p>", "key_press": -1, "type": "PRES_VIS", "word": "grape", "wordID": 653, "conditions": [24, 1600, "v", 12000], "trial": 4, "serialpos": 11, "trial_type": "single-stim", "trial_index": 168, "time_elapsed": 927212, "internal_node_id": "0.0-123.0"}}, {"uniqueid": "MTK0513:3KRVW3HTZOS1KRCV755M4YX1Y4KSMO", "current_trial": 169, "dateTime": 1511195689484, "trialdata": {"rt": -1, "stimulus": "<p id=\"stim\">ONION</p>", "key_press": -1, "type": "PRES_VIS", "word": "onion", "wordID": 976, "conditions": [24, 1600, "v", 12000], "trial": 4, "serialpos": 12, "trial_type": "single-stim", "trial_index": 169, "time_elapsed": 929647, "internal_node_id": "0.0-124.0"}}, {"uniqueid": "MTK0513:3KRVW3HTZOS1KRCV755M4YX1Y4KSMO", "current_trial": 170, "dateTime": 1511195692105, "trialdata": {"rt": -1, "stimulus": "<p id=\"stim\">CATCHER</p>", "key_press": -1, "type": "PRES_VIS", "word": "catcher", "wordID": 257, "conditions": [24, 1600, "v", 12000], "trial": 4, "serialpos": 13, "trial_type": "single-stim", "trial_index": 170, "time_elapsed": 932267, "internal_node_id": "0.0-125.0"}}, {"uniqueid": "MTK0513:3KRVW3HTZOS1KRCV755M4YX1Y4KSMO", "current_trial": 171, "dateTime": 1511195694835, "trialdata": {"rt": -1, "stimulus": "<p id=\"stim\">ATOM</p>", "key_press": -1, "type": "PRES_VIS", "word": "atom", "wordID": 54, "conditions": [24, 1600, "v", 12000], "trial": 4, "serialpos": 14, "trial_type": "single-stim", "trial_index": 171, "time_elapsed": 934997, "internal_node_id": "0.0-126.0"}}, {"uniqueid": "MTK0513:3KRVW3HTZOS1KRCV755M4YX1Y4KSMO", "current_trial": 172, "dateTime": 1511195697396, "trialdata": {"rt": -1, "stimulus": "<p id=\"stim\">MATTRESS</p>", "key_press": -1, "type": "PRES_VIS", "word": "mattress", "wordID": 878, "conditions": [24, 1600, "v", 12000], "trial": 4, "serialpos": 15, "trial_type": "single-stim", "trial_index": 172, "time_elapsed": 937558, "internal_node_id": "0.0-127.0"}}, {"uniqueid": "MTK0513:3KRVW3HTZOS1KRCV755M4YX1Y4KSMO", "current_trial": 173, "dateTime": 1511195699823, "trialdata": {"rt": -1, "stimulus": "<p id=\"stim\">BARREL</p>", "key_press": -1, "type": "PRES_VIS", "word": "barrel", "wordID": 90, "conditions": [24, 1600, "v", 12000], "trial": 4, "serialpos": 16, "trial_type": "single-stim", "trial_index": 173, "time_elapsed": 939986, "internal_node_id": "0.0-128.0"}}, {"uniqueid": "MTK0513:3KRVW3HTZOS1KRCV755M4YX1Y4KSMO", "current_trial": 174, "dateTime": 1511195702291, "trialdata": {"rt": -1, "stimulus": "<p id=\"stim\">COSTUME</p>", "key_press": -1, "type": "PRES_VIS", "word": "costume", "wordID": 382, "conditions": [24, 1600, "v", 12000], "trial": 4, "serialpos": 17, "trial_type": "single-stim", "trial_index": 174, "time_elapsed": 942453, "internal_node_id": "0.0-129.0"}}, {"uniqueid": "MTK0513:3KRVW3HTZOS1KRCV755M4YX1Y4KSMO", "current_trial": 175, "dateTime": 1511195704920, "trialdata": {"rt": -1, "stimulus": "<p id=\"stim\">SCARECROW</p>", "key_press": -1, "type": "PRES_VIS", "word": "scarecrow", "wordID": 1244, "conditions": [24, 1600, "v", 12000], "trial": 4, "serialpos": 18, "trial_type": "single-stim", "trial_index": 175, "time_elapsed": 945082, "internal_node_id": "0.0-130.0"}}, {"uniqueid": "MTK0513:3KRVW3HTZOS1KRCV755M4YX1Y4KSMO", "current_trial": 176, "dateTime": 1511195707675, "trialdata": {"rt": -1, "stimulus": "<p id=\"stim\">PEACH</p>", "key_press": -1, "type": "PRES_VIS", "word": "peach", "wordID": 1030, "conditions": [24, 1600, "v", 12000], "trial": 4, "serialpos": 19, "trial_type": "single-stim", "trial_index": 176, "time_elapsed": 947838, "internal_node_id": "0.0-131.0"}}, {"uniqueid": "MTK0513:3KRVW3HTZOS1KRCV755M4YX1Y4KSMO", "current_trial": 177, "dateTime": 1511195710179, "trialdata": {"rt": -1, "stimulus": "<p id=\"stim\">CREATURE</p>", "key_press": -1, "type": "PRES_VIS", "word": "creature", "wordID": 402, "conditions": [24, 1600, "v", 12000], "trial": 4, "serialpos": 20, "trial_type": "single-stim", "trial_index": 177, "time_elapsed": 950342, "internal_node_id": "0.0-132.0"}}, {"uniqueid": "MTK0513:3KRVW3HTZOS1KRCV755M4YX1Y4KSMO", "current_trial": 178, "dateTime": 1511195712899, "trialdata": {"rt": -1, "stimulus": "<p id=\"stim\">PARSLEY</p>", "key_press": -1, "type": "PRES_VIS", "word": "parsley", "wordID": 1015, "conditions": [24, 1600, "v", 12000], "trial": 4, "serialpos": 21, "trial_type": "single-stim", "trial_index": 178, "time_elapsed": 953062, "internal_node_id": "0.0-133.0"}}, {"uniqueid": "MTK0513:3KRVW3HTZOS1KRCV755M4YX1Y4KSMO", "current_trial": 179, "dateTime": 1511195715423, "trialdata": {"rt": -1, "stimulus": "<p id=\"stim\">COFFEE</p>", "key_press": -1, "type": "PRES_VIS", "word": "coffee", "wordID": 340, "conditions": [24, 1600, "v", 12000], "trial": 4, "serialpos": 22, "trial_type": "single-stim", "trial_index": 179, "time_elapsed": 955585, "internal_node_id": "0.0-134.0"}}, {"uniqueid": "MTK0513:3KRVW3HTZOS1KRCV755M4YX1Y4KSMO", "current_trial": 180, "dateTime": 1511195718150, "trialdata": {"rt": -1, "stimulus": "<p id=\"stim\">WAGON</p>", "key_press": -1, "type": "PRES_VIS", "word": "wagon", "wordID": 1577, "conditions": [24, 1600, "v", 12000], "trial": 4, "serialpos": 23, "trial_type": "single-stim", "trial_index": 180, "time_elapsed": 958313, "internal_node_id": "0.0-135.0"}}, {"uniqueid": "MTK0513:3KRVW3HTZOS1KRCV755M4YX1Y4KSMO", "current_trial": 181, "dateTime": 1511195720598, "trialdata": {"rt": -1, "stimulus": "", "key_press": -1, "type": "PRE_RECALL_DELAY", "trial_type": "single-stim", "trial_index": 181, "time_elapsed": 960761, "internal_node_id": "0.0-136.0-0.0"}}, {"uniqueid": "MTK0513:3KRVW3HTZOS1KRCV755M4YX1Y4KSMO", "current_trial": 182, "dateTime": 1511195721100, "trialdata": {"rt": -1000, "stimulus": "/static/audio/400Hz.wav", "key_press": -1, "type": "PRE_RECALL_ALERT", "trial_type": "single-audio", "trial_index": 182, "time_elapsed": 961263, "internal_node_id": "0.0-137.0"}}, {"uniqueid": "MTK0513:3KRVW3HTZOS1KRCV755M4YX1Y4KSMO", "current_trial": 183, "dateTime": 1511195781107, "trialdata": {"rt": [3591, 5527, 7415, 9248, 10952], "recwords": ["county", "grape", "mattress", "barrell", "costume"], "type": "FREE_RECALL", "conditions": [24, 1600, "v", 12000], "trial": 4, "trial_type": "free-recall", "trial_index": 183, "time_elapsed": 1021267, "internal_node_id": "0.0-138.0-0.0"}}, {"uniqueid": "MTK0513:3KRVW3HTZOS1KRCV755M4YX1Y4KSMO", "current_trial": 184, "dateTime": 1511195790693, "trialdata": {"rt": 7584, "key_press": 32, "type": "INSTRUCTIONS", "trial_type": "text", "trial_index": 184, "time_elapsed": 1030856, "internal_node_id": "0.0-139.0"}}, {"uniqueid": "MTK0513:3KRVW3HTZOS1KRCV755M4YX1Y4KSMO", "current_trial": 185, "dateTime": 1511195816696, "trialdata": {"rt": [4102, 7566, 11647, 14814, 17509, 20406, 23838], "responses": ["14", "17", "17", "10", "13", "9", "21"], "num1": [4, 3, 3, 5, 5, 2, 8, 5], "num2": [6, 8, 6, 3, 7, 1, 9, 2], "num3": [4, 6, 8, 2, 1, 6, 4, 7], "type": "DISTRACTOR", "conditions": [12, 1600, "v", 24000], "trial": 5, "trial_type": "math-distractor", "trial_index": 185, "time_elapsed": 1056859, "internal_node_id": "0.0-140.0"}}, {"uniqueid": "MTK0513:3KRVW3HTZOS1KRCV755M4YX1Y4KSMO", "current_trial": 186, "dateTime": 1511195819698, "trialdata": {"rt": -1, "stimulus": "<p id=\"stim\">10</p>", "key_press": -1, "trial_type": "single-stim", "trial_index": 186, "time_elapsed": 1059861, "internal_node_id": "0.0-141.0-0.0"}}, {"uniqueid": "MTK0513:3KRVW3HTZOS1KRCV755M4YX1Y4KSMO", "current_trial": 187, "dateTime": 1511195820699, "trialdata": {"rt": -1, "stimulus": "<p id=\"stim\">9</p>", "key_press": -1, "trial_type": "single-stim", "trial_index": 187, "time_elapsed": 1060862, "internal_node_id": "0.0-141.0-1.0"}}, {"uniqueid": "MTK0513:3KRVW3HTZOS1KRCV755M4YX1Y4KSMO", "current_trial": 188, "dateTime": 1511195821704, "trialdata": {"rt": -1, "stimulus": "<p id=\"stim\">8</p>", "key_press": -1, "trial_type": "single-stim", "trial_index": 188, "time_elapsed": 1061867, "internal_node_id": "0.0-141.0-2.0"}}, {"uniqueid": "MTK0513:3KRVW3HTZOS1KRCV755M4YX1Y4KSMO", "current_trial": 189, "dateTime": 1511195822704, "trialdata": {"rt": -1, "stimulus": "<p id=\"stim\">7</p>", "key_press": -1, "trial_type": "single-stim", "trial_index": 189, "time_elapsed": 1062867, "internal_node_id": "0.0-141.0-3.0"}}, {"uniqueid": "MTK0513:3KRVW3HTZOS1KRCV755M4YX1Y4KSMO", "current_trial": 190, "dateTime": 1511195823706, "trialdata": {"rt": -1, "stimulus": "<p id=\"stim\">6</p>", "key_press": -1, "trial_type": "single-stim", "trial_index": 190, "time_elapsed": 1063869, "internal_node_id": "0.0-141.0-4.0"}}, {"uniqueid": "MTK0513:3KRVW3HTZOS1KRCV755M4YX1Y4KSMO", "current_trial": 191, "dateTime": 1511195824708, "trialdata": {"rt": -1, "stimulus": "<p id=\"stim\">5</p>", "key_press": -1, "trial_type": "single-stim", "trial_index": 191, "time_elapsed": 1064870, "internal_node_id": "0.0-141.0-5.0"}}, {"uniqueid": "MTK0513:3KRVW3HTZOS1KRCV755M4YX1Y4KSMO", "current_trial": 192, "dateTime": 1511195825710, "trialdata": {"rt": -1, "stimulus": "<p id=\"stim\">4</p>", "key_press": -1, "trial_type": "single-stim", "trial_index": 192, "time_elapsed": 1065872, "internal_node_id": "0.0-141.0-6.0"}}, {"uniqueid": "MTK0513:3KRVW3HTZOS1KRCV755M4YX1Y4KSMO", "current_trial": 193, "dateTime": 1511195826713, "trialdata": {"rt": -1, "stimulus": "<p id=\"stim\">3</p>", "key_press": -1, "trial_type": "single-stim", "trial_index": 193, "time_elapsed": 1066875, "internal_node_id": "0.0-141.0-7.0"}}, {"uniqueid": "MTK0513:3KRVW3HTZOS1KRCV755M4YX1Y4KSMO", "current_trial": 194, "dateTime": 1511195827714, "trialdata": {"rt": -1, "stimulus": "<p id=\"stim\">2</p>", "key_press": -1, "trial_type": "single-stim", "trial_index": 194, "time_elapsed": 1067877, "internal_node_id": "0.0-141.0-8.0"}}, {"uniqueid": "MTK0513:3KRVW3HTZOS1KRCV755M4YX1Y4KSMO", "current_trial": 195, "dateTime": 1511195828715, "trialdata": {"rt": -1, "stimulus": "<p id=\"stim\">1</p>", "key_press": -1, "trial_type": "single-stim", "trial_index": 195, "time_elapsed": 1068878, "internal_node_id": "0.0-141.0-9.0"}}, {"uniqueid": "MTK0513:3KRVW3HTZOS1KRCV755M4YX1Y4KSMO", "current_trial": 196, "dateTime": 1511195830217, "trialdata": {"rt": -1, "stimulus": "<p id=\"stim\">+</p>", "key_press": -1, "type": "FIXATION", "trial_type": "single-stim", "trial_index": 196, "time_elapsed": 1070380, "internal_node_id": "0.0-142.0-0.0"}}, {"uniqueid": "MTK0513:3KRVW3HTZOS1KRCV755M4YX1Y4KSMO", "current_trial": 197, "dateTime": 1511195831818, "trialdata": {"rt": -1, "stimulus": "<p id=\"stim\">JOURNAL</p>", "key_press": -1, "type": "PRES_VIS", "word": "journal", "wordID": 759, "conditions": [12, 1600, "v", 24000], "trial": 5, "serialpos": 0, "trial_type": "single-stim", "trial_index": 197, "time_elapsed": 1071981, "internal_node_id": "0.0-143.0"}}, {"uniqueid": "MTK0513:3KRVW3HTZOS1KRCV755M4YX1Y4KSMO", "current_trial": 198, "dateTime": 1511195834405, "trialdata": {"rt": -1, "stimulus": "<p id=\"stim\">TABLET</p>", "key_press": -1, "type": "PRES_VIS", "word": "tablet", "wordID": 1426, "conditions": [12, 1600, "v", 24000], "trial": 5, "serialpos": 1, "trial_type": "single-stim", "trial_index": 198, "time_elapsed": 1074567, "internal_node_id": "0.0-144.0"}}, {"uniqueid": "MTK0513:3KRVW3HTZOS1KRCV755M4YX1Y4KSMO", "current_trial": 199, "dateTime": 1511195837126, "trialdata": {"rt": -1, "stimulus": "<p id=\"stim\">MOTOR</p>", "key_press": -1, "type": "PRES_VIS", "word": "motor", "wordID": 921, "conditions": [12, 1600, "v", 24000], "trial": 5, "serialpos": 2, "trial_type": "single-stim", "trial_index": 199, "time_elapsed": 1077289, "internal_node_id": "0.0-145.0"}}, {"uniqueid": "MTK0513:3KRVW3HTZOS1KRCV755M4YX1Y4KSMO", "current_trial": 200, "dateTime": 1511195839754, "trialdata": {"rt": -1, "stimulus": "<p id=\"stim\">RAZOR</p>", "key_press": -1, "type": "PRES_VIS", "word": "razor", "wordID": 1170, "conditions": [12, 1600, "v", 24000], "trial": 5, "serialpos": 3, "trial_type": "single-stim", "trial_index": 200, "time_elapsed": 1079916, "internal_node_id": "0.0-146.0"}}, {"uniqueid": "MTK0513:3KRVW3HTZOS1KRCV755M4YX1Y4KSMO", "current_trial": 201, "dateTime": 1511195842318, "trialdata": {"rt": -1, "stimulus": "<p id=\"stim\">HANDBAG</p>", "key_press": -1, "type": "PRES_VIS", "word": "handbag", "wordID": 683, "conditions": [12, 1600, "v", 24000], "trial": 5, "serialpos": 4, "trial_type": "single-stim", "trial_index": 201, "time_elapsed": 1082481, "internal_node_id": "0.0-147.0"}}, {"uniqueid": "MTK0513:3KRVW3HTZOS1KRCV755M4YX1Y4KSMO", "current_trial": 202, "dateTime": 1511195844801, "trialdata": {"rt": -1, "stimulus": "<p id=\"stim\">MOP</p>", "key_press": -1, "type": "PRES_VIS", "word": "mop", "wordID": 915, "conditions": [12, 1600, "v", 24000], "trial": 5, "serialpos": 5, "trial_type": "single-stim", "trial_index": 202, "time_elapsed": 1084964, "internal_node_id": "0.0-148.0"}}, {"uniqueid": "MTK0513:3KRVW3HTZOS1KRCV755M4YX1Y4KSMO", "current_trial": 203, "dateTime": 1511195847436, "trialdata": {"rt": -1, "stimulus": "<p id=\"stim\">NOVEL</p>", "key_press": -1, "type": "PRES_VIS", "word": "novel", "wordID": 959, "conditions": [12, 1600, "v", 24000], "trial": 5, "serialpos": 6, "trial_type": "single-stim", "trial_index": 203, "time_elapsed": 1087599, "internal_node_id": "0.0-149.0"}}, {"uniqueid": "MTK0513:3KRVW3HTZOS1KRCV755M4YX1Y4KSMO", "current_trial": 204, "dateTime": 1511195850166, "trialdata": {"rt": -1, "stimulus": "<p id=\"stim\">CHURCH</p>", "key_press": -1, "type": "PRES_VIS", "word": "church", "wordID": 306, "conditions": [12, 1600, "v", 24000], "trial": 5, "serialpos": 7, "trial_type": "single-stim", "trial_index": 204, "time_elapsed": 1090329, "internal_node_id": "0.0-150.0"}}, {"uniqueid": "MTK0513:3KRVW3HTZOS1KRCV755M4YX1Y4KSMO", "current_trial": 205, "dateTime": 1511195852697, "trialdata": {"rt": -1, "stimulus": "<p id=\"stim\">CHAPEL</p>", "key_press": -1, "type": "PRES_VIS", "word": "chapel", "wordID": 279, "conditions": [12, 1600, "v", 24000], "trial": 5, "serialpos": 8, "trial_type": "single-stim", "trial_index": 205, "time_elapsed": 1092859, "internal_node_id": "0.0-151.0"}}, {"uniqueid": "MTK0513:3KRVW3HTZOS1KRCV755M4YX1Y4KSMO", "current_trial": 206, "dateTime": 1511195855429, "trialdata": {"rt": -1, "stimulus": "<p id=\"stim\">CHAUFFEUR</p>", "key_press": -1, "type": "PRES_VIS", "word": "chauffeur", "wordID": 282, "conditions": [12, 1600, "v", 24000], "trial": 5, "serialpos": 9, "trial_type": "single-stim", "trial_index": 206, "time_elapsed": 1095592, "internal_node_id": "0.0-152.0"}}, {"uniqueid": "MTK0513:3KRVW3HTZOS1KRCV755M4YX1Y4KSMO", "current_trial": 207, "dateTime": 1511195857980, "trialdata": {"rt": -1, "stimulus": "<p id=\"stim\">BLADE</p>", "key_press": -1, "type": "PRES_VIS", "word": "blade", "wordID": 133, "conditions": [12, 1600, "v", 24000], "trial": 5, "serialpos": 10, "trial_type": "single-stim", "trial_index": 207, "time_elapsed": 1098143, "internal_node_id": "0.0-153.0"}}, {"uniqueid": "MTK0513:3KRVW3HTZOS1KRCV755M4YX1Y4KSMO", "current_trial": 208, "dateTime": 1511195860605, "trialdata": {"rt": -1, "stimulus": "<p id=\"stim\">FOOTBALL</p>", "key_press": -1, "type": "PRES_VIS", "word": "football", "wordID": 590, "conditions": [12, 1600, "v", 24000], "trial": 5, "serialpos": 11, "trial_type": "single-stim", "trial_index": 208, "time_elapsed": 1100768, "internal_node_id": "0.0-154.0"}}, {"uniqueid": "MTK0513:3KRVW3HTZOS1KRCV755M4YX1Y4KSMO", "current_trial": 209, "dateTime": 1511195863007, "trialdata": {"rt": -1, "stimulus": "", "key_press": -1, "type": "PRE_RECALL_DELAY", "trial_type": "single-stim", "trial_index": 209, "time_elapsed": 1103170, "internal_node_id": "0.0-155.0-0.0"}}, {"uniqueid": "MTK0513:3KRVW3HTZOS1KRCV755M4YX1Y4KSMO", "current_trial": 210, "dateTime": 1511195863509, "trialdata": {"rt": -1000, "stimulus": "/static/audio/400Hz.wav", "key_press": -1, "type": "PRE_RECALL_ALERT", "trial_type": "single-audio", "trial_index": 210, "time_elapsed": 1103671, "internal_node_id": "0.0-156.0"}}, {"uniqueid": "MTK0513:3KRVW3HTZOS1KRCV755M4YX1Y4KSMO", "current_trial": 211, "dateTime": 1511195923523, "trialdata": {"rt": [7550, 12957, 18541, 24541, 29109], "recwords": ["journal", "tablet", "motor", "razor", "handbag"], "type": "FREE_RECALL", "conditions": [12, 1600, "v", 24000], "trial": 5, "trial_type": "free-recall", "trial_index": 211, "time_elapsed": 1163676, "internal_node_id": "0.0-157.0-0.0"}}, {"uniqueid": "MTK0513:3KRVW3HTZOS1KRCV755M4YX1Y4KSMO", "current_trial": 212, "dateTime": 1511195927166, "trialdata": {"rt": 1641, "key_press": 32, "type": "INSTRUCTIONS", "trial_type": "text", "trial_index": 212, "time_elapsed": 1167329, "internal_node_id": "0.0-158.0"}}, {"uniqueid": "MTK0513:3KRVW3HTZOS1KRCV755M4YX1Y4KSMO", "current_trial": 213, "dateTime": 1511195941171, "trialdata": {"rt": [6115, 9994], "responses": ["23", "14"], "num1": [7, 9, 4], "num2": [8, 2, 1], "num3": [8, 3, 2], "type": "DISTRACTOR", "conditions": [12, 1600, "a", 12000], "trial": 6, "trial_type": "math-distractor", "trial_index": 213, "time_elapsed": 1181334, "internal_node_id": "0.0-159.0"}}, {"uniqueid": "MTK0513:3KRVW3HTZOS1KRCV755M4YX1Y4KSMO", "current_trial": 214, "dateTime": 1511195944173, "trialdata": {"rt": -1, "stimulus": "<p id=\"stim\">10</p>", "key_press": -1, "trial_type": "single-stim", "trial_index": 214, "time_elapsed": 1184336, "internal_node_id": "0.0-160.0-0.0"}}, {"uniqueid": "MTK0513:3KRVW3HTZOS1KRCV755M4YX1Y4KSMO", "current_trial": 215, "dateTime": 1511195945174, "trialdata": {"rt": -1, "stimulus": "<p id=\"stim\">9</p>", "key_press": -1, "trial_type": "single-stim", "trial_index": 215, "time_elapsed": 1185337, "internal_node_id": "0.0-160.0-1.0"}}, {"uniqueid": "MTK0513:3KRVW3HTZOS1KRCV755M4YX1Y4KSMO", "current_trial": 216, "dateTime": 1511195946176, "trialdata": {"rt": -1, "stimulus": "<p id=\"stim\">8</p>", "key_press": -1, "trial_type": "single-stim", "trial_index": 216, "time_elapsed": 1186338, "internal_node_id": "0.0-160.0-2.0"}}, {"uniqueid": "MTK0513:3KRVW3HTZOS1KRCV755M4YX1Y4KSMO", "current_trial": 217, "dateTime": 1511195947177, "trialdata": {"rt": -1, "stimulus": "<p id=\"stim\">7</p>", "key_press": -1, "trial_type": "single-stim", "trial_index": 217, "time_elapsed": 1187340, "internal_node_id": "0.0-160.0-3.0"}}, {"uniqueid": "MTK0513:3KRVW3HTZOS1KRCV755M4YX1Y4KSMO", "current_trial": 218, "dateTime": 1511195948180, "trialdata": {"rt": -1, "stimulus": "<p id=\"stim\">6</p>", "key_press": -1, "trial_type": "single-stim", "trial_index": 218, "time_elapsed": 1188342, "internal_node_id": "0.0-160.0-4.0"}}, {"uniqueid": "MTK0513:3KRVW3HTZOS1KRCV755M4YX1Y4KSMO", "current_trial": 219, "dateTime": 1511195949181, "trialdata": {"rt": -1, "stimulus": "<p id=\"stim\">5</p>", "key_press": -1, "trial_type": "single-stim", "trial_index": 219, "time_elapsed": 1189344, "internal_node_id": "0.0-160.0-5.0"}}, {"uniqueid": "MTK0513:3KRVW3HTZOS1KRCV755M4YX1Y4KSMO", "current_trial": 220, "dateTime": 1511195950183, "trialdata": {"rt": -1, "stimulus": "<p id=\"stim\">4</p>", "key_press": -1, "trial_type": "single-stim", "trial_index": 220, "time_elapsed": 1190345, "internal_node_id": "0.0-160.0-6.0"}}, {"uniqueid": "MTK0513:3KRVW3HTZOS1KRCV755M4YX1Y4KSMO", "current_trial": 221, "dateTime": 1511195951185, "trialdata": {"rt": -1, "stimulus": "<p id=\"stim\">3</p>", "key_press": -1, "trial_type": "single-stim", "trial_index": 221, "time_elapsed": 1191347, "internal_node_id": "0.0-160.0-7.0"}}, {"uniqueid": "MTK0513:3KRVW3HTZOS1KRCV755M4YX1Y4KSMO", "current_trial": 222, "dateTime": 1511195952185, "trialdata": {"rt": -1, "stimulus": "<p id=\"stim\">2</p>", "key_press": -1, "trial_type": "single-stim", "trial_index": 222, "time_elapsed": 1192348, "internal_node_id": "0.0-160.0-8.0"}}, {"uniqueid": "MTK0513:3KRVW3HTZOS1KRCV755M4YX1Y4KSMO", "current_trial": 223, "dateTime": 1511195953186, "trialdata": {"rt": -1, "stimulus": "<p id=\"stim\">1</p>", "key_press": -1, "trial_type": "single-stim", "trial_index": 223, "time_elapsed": 1193349, "internal_node_id": "0.0-160.0-9.0"}}, {"uniqueid": "MTK0513:3KRVW3HTZOS1KRCV755M4YX1Y4KSMO", "current_trial": 224, "dateTime": 1511195954688, "trialdata": {"rt": -1, "stimulus": "<p id=\"stim\">+</p>", "key_press": -1, "type": "FIXATION", "trial_type": "single-stim", "trial_index": 224, "time_elapsed": 1194851, "internal_node_id": "0.0-161.0-0.0"}}, {"uniqueid": "MTK0513:3KRVW3HTZOS1KRCV755M4YX1Y4KSMO", "current_trial": 225, "dateTime": 1511195957244, "trialdata": {"rt": -1000, "stimulus": "/static/audio/wordpool/PERMIT.wav", "key_press": -1, "type": "PRES_AUD", "word": "permit", "wordID": 1050, "conditions": [12, 1600, "a", 12000], "trial": 6, "serialpos": 0, "trial_type": "single-audio", "trial_index": 225, "time_elapsed": 1197407, "internal_node_id": "0.0-162.0"}}, {"uniqueid": "MTK0513:3KRVW3HTZOS1KRCV755M4YX1Y4KSMO", "current_trial": 226, "dateTime": 1511195959684, "trialdata": {"rt": -1000, "stimulus": "/static/audio/wordpool/STUDENT.wav", "key_press": -1, "type": "PRES_AUD", "word": "student", "wordID": 1394, "conditions": [12, 1600, "a", 12000], "trial": 6, "serialpos": 1, "trial_type": "single-audio", "trial_index": 226, "time_elapsed": 1199847, "internal_node_id": "0.0-163.0"}}, {"uniqueid": "MTK0513:3KRVW3HTZOS1KRCV755M4YX1Y4KSMO", "current_trial": 227, "dateTime": 1511195962088, "trialdata": {"rt": -1000, "stimulus": "/static/audio/wordpool/BLENDER.wav", "key_press": -1, "type": "PRES_AUD", "word": "blender", "wordID": 135, "conditions": [12, 1600, "a", 12000], "trial": 6, "serialpos": 2, "trial_type": "single-audio", "trial_index": 227, "time_elapsed": 1202251, "internal_node_id": "0.0-164.0"}}, {"uniqueid": "MTK0513:3KRVW3HTZOS1KRCV755M4YX1Y4KSMO", "current_trial": 228, "dateTime": 1511195964632, "trialdata": {"rt": -1000, "stimulus": "/static/audio/wordpool/SEAL.wav", "key_press": -1, "type": "PRES_AUD", "word": "seal", "wordID": 1261, "conditions": [12, 1600, "a", 12000], "trial": 6, "serialpos": 3, "trial_type": "single-audio", "trial_index": 228, "time_elapsed": 1204795, "internal_node_id": "0.0-165.0"}}, {"uniqueid": "MTK0513:3KRVW3HTZOS1KRCV755M4YX1Y4KSMO", "current_trial": 229, "dateTime": 1511195967253, "trialdata": {"rt": -1000, "stimulus": "/static/audio/wordpool/GLOVE.wav", "key_press": -1, "type": "PRES_AUD", "word": "glove", "wordID": 641, "conditions": [12, 1600, "a", 12000], "trial": 6, "serialpos": 4, "trial_type": "single-audio", "trial_index": 229, "time_elapsed": 1207416, "internal_node_id": "0.0-166.0"}}, {"uniqueid": "MTK0513:3KRVW3HTZOS1KRCV755M4YX1Y4KSMO", "current_trial": 230, "dateTime": 1511195969876, "trialdata": {"rt": -1000, "stimulus": "/static/audio/wordpool/PASTA.wav", "key_press": -1, "type": "PRES_AUD", "word": "pasta", "wordID": 1020, "conditions": [12, 1600, "a", 12000], "trial": 6, "serialpos": 5, "trial_type": "single-audio", "trial_index": 230, "time_elapsed": 1210039, "internal_node_id": "0.0-167.0"}}, {"uniqueid": "MTK0513:3KRVW3HTZOS1KRCV755M4YX1Y4KSMO", "current_trial": 231, "dateTime": 1511195972538, "trialdata": {"rt": -1000, "stimulus": "/static/audio/wordpool/LUNCH.wav", "key_press": -1, "type": "PRES_AUD", "word": "lunch", "wordID": 848, "conditions": [12, 1600, "a", 12000], "trial": 6, "serialpos": 6, "trial_type": "single-audio", "trial_index": 231, "time_elapsed": 1212701, "internal_node_id": "0.0-168.0"}}, {"uniqueid": "MTK0513:3KRVW3HTZOS1KRCV755M4YX1Y4KSMO", "current_trial": 232, "dateTime": 1511195975061, "trialdata": {"rt": -1000, "stimulus": "/static/audio/wordpool/KETCHUP.wav", "key_press": -1, "type": "PRES_AUD", "word": "ketchup", "wordID": 770, "conditions": [12, 1600, "a", 12000], "trial": 6, "serialpos": 7, "trial_type": "single-audio", "trial_index": 232, "time_elapsed": 1215224, "internal_node_id": "0.0-169.0"}}, {"uniqueid": "MTK0513:3KRVW3HTZOS1KRCV755M4YX1Y4KSMO", "current_trial": 233, "dateTime": 1511195977670, "trialdata": {"rt": -1000, "stimulus": "/static/audio/wordpool/COUSIN.wav", "key_press": -1, "type": "PRES_AUD", "word": "cousin", "wordID": 391, "conditions": [12, 1600, "a", 12000], "trial": 6, "serialpos": 8, "trial_type": "single-audio", "trial_index": 233, "time_elapsed": 1217833, "internal_node_id": "0.0-170.0"}}, {"uniqueid": "MTK0513:3KRVW3HTZOS1KRCV755M4YX1Y4KSMO", "current_trial": 234, "dateTime": 1511195980347, "trialdata": {"rt": -1000, "stimulus": "/static/audio/wordpool/HUSBAND.wav", "key_press": -1, "type": "PRES_AUD", "word": "husband", "wordID": 727, "conditions": [12, 1600, "a", 12000], "trial": 6, "serialpos": 9, "trial_type": "single-audio", "trial_index": 234, "time_elapsed": 1220510, "internal_node_id": "0.0-171.0"}}, {"uniqueid": "MTK0513:3KRVW3HTZOS1KRCV755M4YX1Y4KSMO", "current_trial": 235, "dateTime": 1511195982787, "trialdata": {"rt": -1000, "stimulus": "/static/audio/wordpool/CONTRACT.wav", "key_press": -1, "type": "PRES_AUD", "word": "contract", "wordID": 367, "conditions": [12, 1600, "a", 12000], "trial": 6, "serialpos": 10, "trial_type": "single-audio", "trial_index": 235, "time_elapsed": 1222950, "internal_node_id": "0.0-172.0"}}, {"uniqueid": "MTK0513:3KRVW3HTZOS1KRCV755M4YX1Y4KSMO", "current_trial": 236, "dateTime": 1511195985522, "trialdata": {"rt": -1000, "stimulus": "/static/audio/wordpool/SHORTCAKE.wav", "key_press": -1, "type": "PRES_AUD", "word": "shortcake", "wordID": 1291, "conditions": [12, 1600, "a", 12000], "trial": 6, "serialpos": 11, "trial_type": "single-audio", "trial_index": 236, "time_elapsed": 1225685, "internal_node_id": "0.0-173.0"}}, {"uniqueid": "MTK0513:3KRVW3HTZOS1KRCV755M4YX1Y4KSMO", "current_trial": 237, "dateTime": 1511195986795, "trialdata": {"rt": -1, "stimulus": "", "key_press": -1, "type": "PRE_RECALL_DELAY", "trial_type": "single-stim", "trial_index": 237, "time_elapsed": 1226957, "internal_node_id": "0.0-174.0-0.0"}}, {"uniqueid": "MTK0513:3KRVW3HTZOS1KRCV755M4YX1Y4KSMO", "current_trial": 238, "dateTime": 1511195987296, "trialdata": {"rt": -1000, "stimulus": "/static/audio/400Hz.wav", "key_press": -1, "type": "PRE_RECALL_ALERT", "trial_type": "single-audio", "trial_index": 238, "time_elapsed": 1227459, "internal_node_id": "0.0-175.0"}}, {"uniqueid": "MTK0513:3KRVW3HTZOS1KRCV755M4YX1Y4KSMO", "current_trial": 239, "dateTime": 1511196047300, "trialdata": {"rt": [5827, 11586, 18627, 20883, 26114], "recwords": ["student", "blender", "seal", "glove", "pasta"], "type": "FREE_RECALL", "conditions": [12, 1600, "a", 12000], "trial": 6, "trial_type": "free-recall", "trial_index": 239, "time_elapsed": 1287460, "internal_node_id": "0.0-176.0-0.0"}}, {"uniqueid": "MTK0513:3KRVW3HTZOS1KRCV755M4YX1Y4KSMO", "current_trial": 240, "dateTime": 1511196051859, "trialdata": {"rt": 2558, "key_press": 32, "type": "INSTRUCTIONS", "trial_type": "text", "trial_index": 240, "time_elapsed": 1292022, "internal_node_id": "0.0-177.0"}}, {"uniqueid": "MTK0513:3KRVW3HTZOS1KRCV755M4YX1Y4KSMO", "current_trial": 241, "dateTime": 1511196077876, "trialdata": {"rt": [4096, 6177, 9743, 12144, 14063, 18638, 21358], "responses": ["14", "10", "16", "14", "22", "8", "10"], "num1": [4, 3, 4, 5, 9, 4, 2, 9], "num2": [7, 6, 3, 2, 9, 3, 7, 5], "num3": [3, 1, 9, 7, 4, 1, 1, 8], "type": "DISTRACTOR", "conditions": [24, 800, "a", 24000], "trial": 7, "trial_type": "math-distractor", "trial_index": 241, "time_elapsed": 1318039, "internal_node_id": "0.0-178.0"}}, {"uniqueid": "MTK0513:3KRVW3HTZOS1KRCV755M4YX1Y4KSMO", "current_trial": 242, "dateTime": 1511196080880, "trialdata": {"rt": -1, "stimulus": "<p id=\"stim\">10</p>", "key_press": -1, "trial_type": "single-stim", "trial_index": 242, "time_elapsed": 1321043, "internal_node_id": "0.0-179.0-0.0"}}, {"uniqueid": "MTK0513:3KRVW3HTZOS1KRCV755M4YX1Y4KSMO", "current_trial": 243, "dateTime": 1511196081882, "trialdata": {"rt": -1, "stimulus": "<p id=\"stim\">9</p>", "key_press": -1, "trial_type": "single-stim", "trial_index": 243, "time_elapsed": 1322045, "internal_node_id": "0.0-179.0-1.0"}}, {"uniqueid": "MTK0513:3KRVW3HTZOS1KRCV755M4YX1Y4KSMO", "current_trial": 244, "dateTime": 1511196082883, "trialdata": {"rt": -1, "stimulus": "<p id=\"stim\">8</p>", "key_press": -1, "trial_type": "single-stim", "trial_index": 244, "time_elapsed": 1323046, "internal_node_id": "0.0-179.0-2.0"}}, {"uniqueid": "MTK0513:3KRVW3HTZOS1KRCV755M4YX1Y4KSMO", "current_trial": 245, "dateTime": 1511196083885, "trialdata": {"rt": -1, "stimulus": "<p id=\"stim\">7</p>", "key_press": -1, "trial_type": "single-stim", "trial_index": 245, "time_elapsed": 1324048, "internal_node_id": "0.0-179.0-3.0"}}, {"uniqueid": "MTK0513:3KRVW3HTZOS1KRCV755M4YX1Y4KSMO", "current_trial": 246, "dateTime": 1511196084886, "trialdata": {"rt": -1, "stimulus": "<p id=\"stim\">6</p>", "key_press": -1, "trial_type": "single-stim", "trial_index": 246, "time_elapsed": 1325049, "internal_node_id": "0.0-179.0-4.0"}}, {"uniqueid": "MTK0513:3KRVW3HTZOS1KRCV755M4YX1Y4KSMO", "current_trial": 247, "dateTime": 1511196085888, "trialdata": {"rt": -1, "stimulus": "<p id=\"stim\">5</p>", "key_press": -1, "trial_type": "single-stim", "trial_index": 247, "time_elapsed": 1326051, "internal_node_id": "0.0-179.0-5.0"}}, {"uniqueid": "MTK0513:3KRVW3HTZOS1KRCV755M4YX1Y4KSMO", "current_trial": 248, "dateTime": 1511196086889, "trialdata": {"rt": -1, "stimulus": "<p id=\"stim\">4</p>", "key_press": -1, "trial_type": "single-stim", "trial_index": 248, "time_elapsed": 1327052, "internal_node_id": "0.0-179.0-6.0"}}, {"uniqueid": "MTK0513:3KRVW3HTZOS1KRCV755M4YX1Y4KSMO", "current_trial": 249, "dateTime": 1511196087890, "trialdata": {"rt": -1, "stimulus": "<p id=\"stim\">3</p>", "key_press": -1, "trial_type": "single-stim", "trial_index": 249, "time_elapsed": 1328053, "internal_node_id": "0.0-179.0-7.0"}}, {"uniqueid": "MTK0513:3KRVW3HTZOS1KRCV755M4YX1Y4KSMO", "current_trial": 250, "dateTime": 1511196088891, "trialdata": {"rt": -1, "stimulus": "<p id=\"stim\">2</p>", "key_press": -1, "trial_type": "single-stim", "trial_index": 250, "time_elapsed": 1329054, "internal_node_id": "0.0-179.0-8.0"}}, {"uniqueid": "MTK0513:3KRVW3HTZOS1KRCV755M4YX1Y4KSMO", "current_trial": 251, "dateTime": 1511196089893, "trialdata": {"rt": -1, "stimulus": "<p id=\"stim\">1</p>", "key_press": -1, "trial_type": "single-stim", "trial_index": 251, "time_elapsed": 1330056, "internal_node_id": "0.0-179.0-9.0"}}, {"uniqueid": "MTK0513:3KRVW3HTZOS1KRCV755M4YX1Y4KSMO", "current_trial": 252, "dateTime": 1511196091394, "trialdata": {"rt": -1, "stimulus": "<p id=\"stim\">+</p>", "key_press": -1, "type": "FIXATION", "trial_type": "single-stim", "trial_index": 252, "time_elapsed": 1331557, "internal_node_id": "0.0-180.0-0.0"}}, {"uniqueid": "MTK0513:3KRVW3HTZOS1KRCV755M4YX1Y4KSMO", "current_trial": 253, "dateTime": 1511196093159, "trialdata": {"rt": -1000, "stimulus": "/static/audio/wordpool/CLOUD.wav", "key_press": -1, "type": "PRES_AUD", "word": "cloud", "wordID": 327, "conditions": [24, 800, "a", 24000], "trial": 7, "serialpos": 0, "trial_type": "single-audio", "trial_index": 253, "time_elapsed": 1333322, "internal_node_id": "0.0-181.0"}}, {"uniqueid": "MTK0513:3KRVW3HTZOS1KRCV755M4YX1Y4KSMO", "current_trial": 254, "dateTime": 1511196095125, "trialdata": {"rt": -1000, "stimulus": "/static/audio/wordpool/SCALLOP.wav", "key_press": -1, "type": "PRES_AUD", "word": "scallop", "wordID": 1241, "conditions": [24, 800, "a", 24000], "trial": 7, "serialpos": 1, "trial_type": "single-audio", "trial_index": 254, "time_elapsed": 1335288, "internal_node_id": "0.0-182.0"}}, {"uniqueid": "MTK0513:3KRVW3HTZOS1KRCV755M4YX1Y4KSMO", "current_trial": 255, "dateTime": 1511196096805, "trialdata": {"rt": -1000, "stimulus": "/static/audio/wordpool/VELVET.wav", "key_press": -1, "type": "PRES_AUD", "word": "velvet", "wordID": 1554, "conditions": [24, 800, "a", 24000], "trial": 7, "serialpos": 2, "trial_type": "single-audio", "trial_index": 255, "time_elapsed": 1336968, "internal_node_id": "0.0-183.0"}}, {"uniqueid": "MTK0513:3KRVW3HTZOS1KRCV755M4YX1Y4KSMO", "current_trial": 256, "dateTime": 1511196098440, "trialdata": {"rt": -1000, "stimulus": "/static/audio/wordpool/LACE.wav", "key_press": -1, "type": "PRES_AUD", "word": "lace", "wordID": 791, "conditions": [24, 800, "a", 24000], "trial": 7, "serialpos": 3, "trial_type": "single-audio", "trial_index": 256, "time_elapsed": 1338603, "internal_node_id": "0.0-184.0"}}, {"uniqueid": "MTK0513:3KRVW3HTZOS1KRCV755M4YX1Y4KSMO", "current_trial": 257, "dateTime": 1511196100354, "trialdata": {"rt": -1000, "stimulus": "/static/audio/wordpool/BEAVER.wav", "key_press": -1, "type": "PRES_AUD", "word": "beaver", "wordID": 108, "conditions": [24, 800, "a", 24000], "trial": 7, "serialpos": 4, "trial_type": "single-audio", "trial_index": 257, "time_elapsed": 1340517, "internal_node_id": "0.0-185.0"}}, {"uniqueid": "MTK0513:3KRVW3HTZOS1KRCV755M4YX1Y4KSMO", "current_trial": 258, "dateTime": 1511196102336, "trialdata": {"rt": -1000, "stimulus": "/static/audio/wordpool/LIGHTNING.wav", "key_press": -1, "type": "PRES_AUD", "word": "lightning", "wordID": 819, "conditions": [24, 800, "a", 24000], "trial": 7, "serialpos": 5, "trial_type": "single-audio", "trial_index": 258, "time_elapsed": 1342499, "internal_node_id": "0.0-186.0"}}, {"uniqueid": "MTK0513:3KRVW3HTZOS1KRCV755M4YX1Y4KSMO", "current_trial": 259, "dateTime": 1511196104036, "trialdata": {"rt": -1000, "stimulus": "/static/audio/wordpool/OYSTER.wav", "key_press": -1, "type": "PRES_AUD", "word": "oyster", "wordID": 994, "conditions": [24, 800, "a", 24000], "trial": 7, "serialpos": 6, "trial_type": "single-audio", "trial_index": 259, "time_elapsed": 1344199, "internal_node_id": "0.0-187.0"}}, {"uniqueid": "MTK0513:3KRVW3HTZOS1KRCV755M4YX1Y4KSMO", "current_trial": 260, "dateTime": 1511196105714, "trialdata": {"rt": -1000, "stimulus": "/static/audio/wordpool/DENTIST.wav", "key_press": -1, "type": "PRES_AUD", "word": "dentist", "wordID": 446, "conditions": [24, 800, "a", 24000], "trial": 7, "serialpos": 7, "trial_type": "single-audio", "trial_index": 260, "time_elapsed": 1345876, "internal_node_id": "0.0-188.0"}}, {"uniqueid": "MTK0513:3KRVW3HTZOS1KRCV755M4YX1Y4KSMO", "current_trial": 261, "dateTime": 1511196107395, "trialdata": {"rt": -1000, "stimulus": "/static/audio/wordpool/MISSILE.wav", "key_press": -1, "type": "PRES_AUD", "word": "missile", "wordID": 899, "conditions": [24, 800, "a", 24000], "trial": 7, "serialpos": 8, "trial_type": "single-audio", "trial_index": 261, "time_elapsed": 1347558, "internal_node_id": "0.0-189.0"}}, {"uniqueid": "MTK0513:3KRVW3HTZOS1KRCV755M4YX1Y4KSMO", "current_trial": 262, "dateTime": 1511196109068, "trialdata": {"rt": -1000, "stimulus": "/static/audio/wordpool/TORTOISE.wav", "key_press": -1, "type": "PRES_AUD", "word": "tortoise", "wordID": 1485, "conditions": [24, 800, "a", 24000], "trial": 7, "serialpos": 9, "trial_type": "single-audio", "trial_index": 262, "time_elapsed": 1349231, "internal_node_id": "0.0-190.0"}}, {"uniqueid": "MTK0513:3KRVW3HTZOS1KRCV755M4YX1Y4KSMO", "current_trial": 263, "dateTime": 1511196110868, "trialdata": {"rt": -1000, "stimulus": "/static/audio/wordpool/SALMON.wav", "key_press": -1, "type": "PRES_AUD", "word": "salmon", "wordID": 1226, "conditions": [24, 800, "a", 24000], "trial": 7, "serialpos": 10, "trial_type": "single-audio", "trial_index": 263, "time_elapsed": 1351031, "internal_node_id": "0.0-191.0"}}, {"uniqueid": "MTK0513:3KRVW3HTZOS1KRCV755M4YX1Y4KSMO", "current_trial": 264, "dateTime": 1511196112670, "trialdata": {"rt": -1000, "stimulus": "/static/audio/wordpool/SEAFOOD.wav", "key_press": -1, "type": "PRES_AUD", "word": "seafood", "wordID": 1259, "conditions": [24, 800, "a", 24000], "trial": 7, "serialpos": 11, "trial_type": "single-audio", "trial_index": 264, "time_elapsed": 1352833, "internal_node_id": "0.0-192.0"}}, {"uniqueid": "MTK0513:3KRVW3HTZOS1KRCV755M4YX1Y4KSMO", "current_trial": 265, "dateTime": 1511196114588, "trialdata": {"rt": -1000, "stimulus": "/static/audio/wordpool/AIRPORT.wav", "key_press": -1, "type": "PRES_AUD", "word": "airport", "wordID": 12, "conditions": [24, 800, "a", 24000], "trial": 7, "serialpos": 12, "trial_type": "single-audio", "trial_index": 265, "time_elapsed": 1354751, "internal_node_id": "0.0-193.0"}}, {"uniqueid": "MTK0513:3KRVW3HTZOS1KRCV755M4YX1Y4KSMO", "current_trial": 266, "dateTime": 1511196116497, "trialdata": {"rt": -1000, "stimulus": "/static/audio/wordpool/SHIRT.wav", "key_press": -1, "type": "PRES_AUD", "word": "shirt", "wordID": 1286, "conditions": [24, 800, "a", 24000], "trial": 7, "serialpos": 13, "trial_type": "single-audio", "trial_index": 266, "time_elapsed": 1356660, "internal_node_id": "0.0-194.0"}}, {"uniqueid": "MTK0513:3KRVW3HTZOS1KRCV755M4YX1Y4KSMO", "current_trial": 267, "dateTime": 1511196118337, "trialdata": {"rt": -1000, "stimulus": "/static/audio/wordpool/HOSTESS.wav", "key_press": -1, "type": "PRES_AUD", "word": "hostess", "wordID": 722, "conditions": [24, 800, "a", 24000], "trial": 7, "serialpos": 14, "trial_type": "single-audio", "trial_index": 267, "time_elapsed": 1358497, "internal_node_id": "0.0-195.0"}}, {"uniqueid": "MTK0513:3KRVW3HTZOS1KRCV755M4YX1Y4KSMO", "current_trial": 268, "dateTime": 1511196119965, "trialdata": {"rt": -1000, "stimulus": "/static/audio/wordpool/STREAM.wav", "key_press": -1, "type": "PRES_AUD", "word": "stream", "wordID": 1391, "conditions": [24, 800, "a", 24000], "trial": 7, "serialpos": 15, "trial_type": "single-audio", "trial_index": 268, "time_elapsed": 1360128, "internal_node_id": "0.0-196.0"}}, {"uniqueid": "MTK0513:3KRVW3HTZOS1KRCV755M4YX1Y4KSMO", "current_trial": 269, "dateTime": 1511196121826, "trialdata": {"rt": -1000, "stimulus": "/static/audio/wordpool/SHELTER.wav", "key_press": -1, "type": "PRES_AUD", "word": "shelter", "wordID": 1281, "conditions": [24, 800, "a", 24000], "trial": 7, "serialpos": 16, "trial_type": "single-audio", "trial_index": 269, "time_elapsed": 1361989, "internal_node_id": "0.0-197.0"}}, {"uniqueid": "MTK0513:3KRVW3HTZOS1KRCV755M4YX1Y4KSMO", "current_trial": 270, "dateTime": 1511196123792, "trialdata": {"rt": -1000, "stimulus": "/static/audio/wordpool/NIGHTGOWN.wav", "key_press": -1, "type": "PRES_AUD", "word": "nightgown", "wordID": 952, "conditions": [24, 800, "a", 24000], "trial": 7, "serialpos": 17, "trial_type": "single-audio", "trial_index": 270, "time_elapsed": 1363955, "internal_node_id": "0.0-198.0"}}, {"uniqueid": "MTK0513:3KRVW3HTZOS1KRCV755M4YX1Y4KSMO", "current_trial": 271, "dateTime": 1511196125670, "trialdata": {"rt": -1000, "stimulus": "/static/audio/wordpool/BANQUET.wav", "key_press": -1, "type": "PRES_AUD", "word": "banquet", "wordID": 85, "conditions": [24, 800, "a", 24000], "trial": 7, "serialpos": 18, "trial_type": "single-audio", "trial_index": 271, "time_elapsed": 1365833, "internal_node_id": "0.0-199.0"}}, {"uniqueid": "MTK0513:3KRVW3HTZOS1KRCV755M4YX1Y4KSMO", "current_trial": 272, "dateTime": 1511196127409, "trialdata": {"rt": -1000, "stimulus": "/static/audio/wordpool/BEAKER.wav", "key_press": -1, "type": "PRES_AUD", "word": "beaker", "wordID": 103, "conditions": [24, 800, "a", 24000], "trial": 7, "serial