{"condition": 0, "counterbalance": 304, "assignmentId": "38F71OA9GU3SGM791L5NXZEMBWTFMX", "workerId": "MTK0918", "hitId": "3VMHWJRYHVN1NE8JPQ2UJWY02S8XFN", "currenttrial": 184, "bonus": 0, "data": [{"uniqueid": "MTK0918:38F71OA9GU3SGM791L5NXZEMBWTFMX", "current_trial": 0, "dateTime": 1512881337315, "trialdata": {"rt": 211602, "key_press": 32, "type": "INSTRUCTIONS", "trial_type": "text", "trial_index": 0, "time_elapsed": 211604, "internal_node_id": "0.0-0.0"}}, {"uniqueid": "MTK0918:38F71OA9GU3SGM791L5NXZEMBWTFMX", "current_trial": 1, "dateTime": 1512881350139, "trialdata": {"rt": 12821, "key_press": 32, "type": "INSTRUCTIONS", "trial_type": "text", "trial_index": 1, "time_elapsed": 224430, "internal_node_id": "0.0-1.0"}}, {"uniqueid": "MTK0918:38F71OA9GU3SGM791L5NXZEMBWTFMX", "current_trial": 2, "dateTime": 1512881363922, "trialdata": {"rt": [13722], "responses": ["ocean"], "type": "AUDIO_TEST", "trial_type": "audio-test", "trial_index": 2, "time_elapsed": 238213, "internal_node_id": "0.0-2.0"}}, {"uniqueid": "MTK0918:38F71OA9GU3SGM791L5NXZEMBWTFMX", "current_trial": 3, "dateTime": 1512881374706, "trialdata": {"rt": [10781], "responses": ["crystal"], "type": "AUDIO_TEST", "trial_type": "audio-test", "trial_index": 3, "time_elapsed": 248997, "internal_node_id": "0.0-3.0"}}, {"uniqueid": "MTK0918:38F71OA9GU3SGM791L5NXZEMBWTFMX", "current_trial": 4, "dateTime": 1512881383818, "trialdata": {"rt": [9109], "responses": ["spice"], "type": "AUDIO_TEST", "trial_type": "audio-test", "trial_index": 4, "time_elapsed": 258109, "internal_node_id": "0.0-4.0"}}, {"uniqueid": "MTK0918:38F71OA9GU3SGM791L5NXZEMBWTFMX", "current_trial": 5, "dateTime": 1512881404682, "trialdata": {"rt": 20111, "responses": "{\"Q0\":\"1:00 am\",\"Q1\":\"7:30\",\"Q2\":\"4\"}", "type": "SLEEP_SURVEY", "trial_type": "survey-text", "trial_index": 5, "time_elapsed": 278973, "internal_node_id": "0.0-5.0"}}, {"uniqueid": "MTK0918:38F71OA9GU3SGM791L5NXZEMBWTFMX", "current_trial": 6, "dateTime": 1512881447817, "trialdata": {"rt": 42132, "key_press": 72, "type": "INSTRUCTIONS", "trial_type": "text", "trial_index": 6, "time_elapsed": 322108, "internal_node_id": "0.0-6.0"}}, {"uniqueid": "MTK0918:38F71OA9GU3SGM791L5NXZEMBWTFMX", "current_trial": 7, "dateTime": 1512881458090, "trialdata": {"rt": 9771, "key_press": 74, "type": "INSTRUCTIONS", "trial_type": "text", "trial_index": 7, "time_elapsed": 332380, "internal_node_id": "0.0-7.0"}}, {"uniqueid": "MTK0918:38F71OA9GU3SGM791L5NXZEMBWTFMX", "current_trial": 8, "dateTime": 1512881466361, "trialdata": {"rt": 7771, "key_press": 75, "type": "INSTRUCTIONS", "trial_type": "text", "trial_index": 8, "time_elapsed": 340652, "internal_node_id": "0.0-8.0"}}, {"uniqueid": "MTK0918:38F71OA9GU3SGM791L5NXZEMBWTFMX", "current_trial": 9, "dateTime": 1512881485374, "trialdata": {"rt": [5988, 8796, 13516, 15508], "responses": ["8", "18", "22", "14"], "num1": [1, 6, 8, 2, 3], "num2": [3, 8, 8, 6, 6], "num3": [4, 4, 6, 6, 6], "type": "DISTRACTOR", "conditions": [18, 1200, "a", 18000], "trial": 0, "trial_type": "math-distractor", "trial_index": 9, "time_elapsed": 359665, "internal_node_id": "0.0-9.0"}}, {"uniqueid": "MTK0918:38F71OA9GU3SGM791L5NXZEMBWTFMX", "current_trial": 10, "dateTime": 1512881488377, "trialdata": {"rt": -1, "stimulus": "<p id=\"stim\">10</p>", "key_press": -1, "trial_type": "single-stim", "trial_index": 10, "time_elapsed": 362668, "internal_node_id": "0.0-10.0-0.0"}}, {"uniqueid": "MTK0918:38F71OA9GU3SGM791L5NXZEMBWTFMX", "current_trial": 11, "dateTime": 1512881489378, "trialdata": {"rt": -1, "stimulus": "<p id=\"stim\">9</p>", "key_press": -1, "trial_type": "single-stim", "trial_index": 11, "time_elapsed": 363669, "internal_node_id": "0.0-10.0-1.0"}}, {"uniqueid": "MTK0918:38F71OA9GU3SGM791L5NXZEMBWTFMX", "current_trial": 12, "dateTime": 1512881490379, "trialdata": {"rt": -1, "stimulus": "<p id=\"stim\">8</p>", "key_press": -1, "trial_type": "single-stim", "trial_index": 12, "time_elapsed": 364670, "internal_node_id": "0.0-10.0-2.0"}}, {"uniqueid": "MTK0918:38F71OA9GU3SGM791L5NXZEMBWTFMX", "current_trial": 13, "dateTime": 1512881491381, "trialdata": {"rt": -1, "stimulus": "<p id=\"stim\">7</p>", "key_press": -1, "trial_type": "single-stim", "trial_index": 13, "time_elapsed": 365672, "internal_node_id": "0.0-10.0-3.0"}}, {"uniqueid": "MTK0918:38F71OA9GU3SGM791L5NXZEMBWTFMX", "current_trial": 14, "dateTime": 1512881492382, "trialdata": {"rt": -1, "stimulus": "<p id=\"stim\">6</p>", "key_press": -1, "trial_type": "single-stim", "trial_index": 14, "time_elapsed": 366673, "internal_node_id": "0.0-10.0-4.0"}}, {"uniqueid": "MTK0918:38F71OA9GU3SGM791L5NXZEMBWTFMX", "current_trial": 15, "dateTime": 1512881493383, "trialdata": {"rt": -1, "stimulus": "<p id=\"stim\">5</p>", "key_press": -1, "trial_type": "single-stim", "trial_index": 15, "time_elapsed": 367674, "internal_node_id": "0.0-10.0-5.0"}}, {"uniqueid": "MTK0918:38F71OA9GU3SGM791L5NXZEMBWTFMX", "current_trial": 16, "dateTime": 1512881494384, "trialdata": {"rt": -1, "stimulus": "<p id=\"stim\">4</p>", "key_press": -1, "trial_type": "single-stim", "trial_index": 16, "time_elapsed": 368675, "internal_node_id": "0.0-10.0-6.0"}}, {"uniqueid": "MTK0918:38F71OA9GU3SGM791L5NXZEMBWTFMX", "current_trial": 17, "dateTime": 1512881495385, "trialdata": {"rt": -1, "stimulus": "<p id=\"stim\">3</p>", "key_press": -1, "trial_type": "single-stim", "trial_index": 17, "time_elapsed": 369676, "internal_node_id": "0.0-10.0-7.0"}}, {"uniqueid": "MTK0918:38F71OA9GU3SGM791L5NXZEMBWTFMX", "current_trial": 18, "dateTime": 1512881496386, "trialdata": {"rt": -1, "stimulus": "<p id=\"stim\">2</p>", "key_press": -1, "trial_type": "single-stim", "trial_index": 18, "time_elapsed": 370677, "internal_node_id": "0.0-10.0-8.0"}}, {"uniqueid": "MTK0918:38F71OA9GU3SGM791L5NXZEMBWTFMX", "current_trial": 19, "dateTime": 1512881497387, "trialdata": {"rt": -1, "stimulus": "<p id=\"stim\">1</p>", "key_press": -1, "trial_type": "single-stim", "trial_index": 19, "time_elapsed": 371678, "internal_node_id": "0.0-10.0-9.0"}}, {"uniqueid": "MTK0918:38F71OA9GU3SGM791L5NXZEMBWTFMX", "current_trial": 20, "dateTime": 1512881498888, "trialdata": {"rt": -1, "stimulus": "<p id=\"stim\">+</p>", "key_press": -1, "type": "FIXATION", "trial_type": "single-stim", "trial_index": 20, "time_elapsed": 373179, "internal_node_id": "0.0-11.0-0.0"}}, {"uniqueid": "MTK0918:38F71OA9GU3SGM791L5NXZEMBWTFMX", "current_trial": 21, "dateTime": 1512881501111, "trialdata": {"rt": -1000, "stimulus": "/static/audio/wordpool/CABIN.wav", "key_press": -1, "type": "PRES_AUD", "word": "cabin", "wordID": 210, "conditions": [18, 1200, "a", 18000], "trial": 0, "serialpos": 0, "trial_type": "single-audio", "trial_index": 21, "time_elapsed": 375402, "internal_node_id": "0.0-12.0"}}, {"uniqueid": "MTK0918:38F71OA9GU3SGM791L5NXZEMBWTFMX", "current_trial": 22, "dateTime": 1512881503139, "trialdata": {"rt": -1000, "stimulus": "/static/audio/wordpool/BATHTUB.wav", "key_press": -1, "type": "PRES_AUD", "word": "bathtub", "wordID": 99, "conditions": [18, 1200, "a", 18000], "trial": 0, "serialpos": 1, "trial_type": "single-audio", "trial_index": 22, "time_elapsed": 377430, "internal_node_id": "0.0-13.0"}}, {"uniqueid": "MTK0918:38F71OA9GU3SGM791L5NXZEMBWTFMX", "current_trial": 23, "dateTime": 1512881505234, "trialdata": {"rt": -1000, "stimulus": "/static/audio/wordpool/YACHT.wav", "key_press": -1, "type": "PRES_AUD", "word": "yacht", "wordID": 1628, "conditions": [18, 1200, "a", 18000], "trial": 0, "serialpos": 2, "trial_type": "single-audio", "trial_index": 23, "time_elapsed": 379525, "internal_node_id": "0.0-14.0"}}, {"uniqueid": "MTK0918:38F71OA9GU3SGM791L5NXZEMBWTFMX", "current_trial": 24, "dateTime": 1512881507374, "trialdata": {"rt": -1000, "stimulus": "/static/audio/wordpool/SHOVEL.wav", "key_press": -1, "type": "PRES_AUD", "word": "shovel", "wordID": 1294, "conditions": [18, 1200, "a", 18000], "trial": 0, "serialpos": 3, "trial_type": "single-audio", "trial_index": 24, "time_elapsed": 381665, "internal_node_id": "0.0-15.0"}}, {"uniqueid": "MTK0918:38F71OA9GU3SGM791L5NXZEMBWTFMX", "current_trial": 25, "dateTime": 1512881509412, "trialdata": {"rt": -1000, "stimulus": "/static/audio/wordpool/EAGLE.wav", "key_press": -1, "type": "PRES_AUD", "word": "eagle", "wordID": 511, "conditions": [18, 1200, "a", 18000], "trial": 0, "serialpos": 4, "trial_type": "single-audio", "trial_index": 25, "time_elapsed": 383703, "internal_node_id": "0.0-16.0"}}, {"uniqueid": "MTK0918:38F71OA9GU3SGM791L5NXZEMBWTFMX", "current_trial": 26, "dateTime": 1512881511773, "trialdata": {"rt": -1000, "stimulus": "/static/audio/wordpool/JURY.wav", "key_press": -1, "type": "PRES_AUD", "word": "jury", "wordID": 765, "conditions": [18, 1200, "a", 18000], "trial": 0, "serialpos": 5, "trial_type": "single-audio", "trial_index": 26, "time_elapsed": 386064, "internal_node_id": "0.0-17.0"}}, {"uniqueid": "MTK0918:38F71OA9GU3SGM791L5NXZEMBWTFMX", "current_trial": 27, "dateTime": 1512881514094, "trialdata": {"rt": -1000, "stimulus": "/static/audio/wordpool/PIANO.wav", "key_press": -1, "type": "PRES_AUD", "word": "piano", "wordID": 1056, "conditions": [18, 1200, "a", 18000], "trial": 0, "serialpos": 6, "trial_type": "single-audio", "trial_index": 27, "time_elapsed": 388385, "internal_node_id": "0.0-18.0"}}, {"uniqueid": "MTK0918:38F71OA9GU3SGM791L5NXZEMBWTFMX", "current_trial": 28, "dateTime": 1512881516438, "trialdata": {"rt": -1000, "stimulus": "/static/audio/wordpool/PLUTO.wav", "key_press": -1, "type": "PRES_AUD", "word": "pluto", "wordID": 1091, "conditions": [18, 1200, "a", 18000], "trial": 0, "serialpos": 7, "trial_type": "single-audio", "trial_index": 28, "time_elapsed": 390729, "internal_node_id": "0.0-19.0"}}, {"uniqueid": "MTK0918:38F71OA9GU3SGM791L5NXZEMBWTFMX", "current_trial": 29, "dateTime": 1512881518692, "trialdata": {"rt": -1000, "stimulus": "/static/audio/wordpool/MARKER.wav", "key_press": -1, "type": "PRES_AUD", "word": "marker", "wordID": 869, "conditions": [18, 1200, "a", 18000], "trial": 0, "serialpos": 8, "trial_type": "single-audio", "trial_index": 29, "time_elapsed": 392983, "internal_node_id": "0.0-20.0"}}, {"uniqueid": "MTK0918:38F71OA9GU3SGM791L5NXZEMBWTFMX", "current_trial": 30, "dateTime": 1512881521012, "trialdata": {"rt": -1000, "stimulus": "/static/audio/wordpool/PEBBLE.wav", "key_press": -1, "type": "PRES_AUD", "word": "pebble", "wordID": 1034, "conditions": [18, 1200, "a", 18000], "trial": 0, "serialpos": 9, "trial_type": "single-audio", "trial_index": 30, "time_elapsed": 395303, "internal_node_id": "0.0-21.0"}}, {"uniqueid": "MTK0918:38F71OA9GU3SGM791L5NXZEMBWTFMX", "current_trial": 31, "dateTime": 1512881523338, "trialdata": {"rt": -1000, "stimulus": "/static/audio/wordpool/GRILL.wav", "key_press": -1, "type": "PRES_AUD", "word": "grill", "wordID": 660, "conditions": [18, 1200, "a", 18000], "trial": 0, "serialpos": 10, "trial_type": "single-audio", "trial_index": 31, "time_elapsed": 397629, "internal_node_id": "0.0-22.0"}}, {"uniqueid": "MTK0918:38F71OA9GU3SGM791L5NXZEMBWTFMX", "current_trial": 32, "dateTime": 1512881525495, "trialdata": {"rt": -1000, "stimulus": "/static/audio/wordpool/PERMIT.wav", "key_press": -1, "type": "PRES_AUD", "word": "permit", "wordID": 1050, "conditions": [18, 1200, "a", 18000], "trial": 0, "serialpos": 11, "trial_type": "single-audio", "trial_index": 32, "time_elapsed": 399786, "internal_node_id": "0.0-23.0"}}, {"uniqueid": "MTK0918:38F71OA9GU3SGM791L5NXZEMBWTFMX", "current_trial": 33, "dateTime": 1512881527772, "trialdata": {"rt": -1000, "stimulus": "/static/audio/wordpool/WORLD.wav", "key_press": -1, "type": "PRES_AUD", "word": "world", "wordID": 1621, "conditions": [18, 1200, "a", 18000], "trial": 0, "serialpos": 12, "trial_type": "single-audio", "trial_index": 33, "time_elapsed": 402063, "internal_node_id": "0.0-24.0"}}, {"uniqueid": "MTK0918:38F71OA9GU3SGM791L5NXZEMBWTFMX", "current_trial": 34, "dateTime": 1512881530050, "trialdata": {"rt": -1000, "stimulus": "/static/audio/wordpool/FIREMAN.wav", "key_press": -1, "type": "PRES_AUD", "word": "fireman", "wordID": 568, "conditions": [18, 1200, "a", 18000], "trial": 0, "serialpos": 13, "trial_type": "single-audio", "trial_index": 34, "time_elapsed": 404341, "internal_node_id": "0.0-25.0"}}, {"uniqueid": "MTK0918:38F71OA9GU3SGM791L5NXZEMBWTFMX", "current_trial": 35, "dateTime": 1512881532246, "trialdata": {"rt": -1000, "stimulus": "/static/audio/wordpool/NECKLACE.wav", "key_press": -1, "type": "PRES_AUD", "word": "necklace", "wordID": 939, "conditions": [18, 1200, "a", 18000], "trial": 0, "serialpos": 14, "trial_type": "single-audio", "trial_index": 35, "time_elapsed": 406537, "internal_node_id": "0.0-26.0"}}, {"uniqueid": "MTK0918:38F71OA9GU3SGM791L5NXZEMBWTFMX", "current_trial": 36, "dateTime": 1512881534299, "trialdata": {"rt": -1000, "stimulus": "/static/audio/wordpool/DENIM.wav", "key_press": -1, "type": "PRES_AUD", "word": "denim", "wordID": 445, "conditions": [18, 1200, "a", 18000], "trial": 0, "serialpos": 15, "trial_type": "single-audio", "trial_index": 36, "time_elapsed": 408590, "internal_node_id": "0.0-27.0"}}, {"uniqueid": "MTK0918:38F71OA9GU3SGM791L5NXZEMBWTFMX", "current_trial": 37, "dateTime": 1512881536463, "trialdata": {"rt": -1000, "stimulus": "/static/audio/wordpool/BROTHER.wav", "key_press": -1, "type": "PRES_AUD", "word": "brother", "wordID": 178, "conditions": [18, 1200, "a", 18000], "trial": 0, "serialpos": 16, "trial_type": "single-audio", "trial_index": 37, "time_elapsed": 410754, "internal_node_id": "0.0-28.0"}}, {"uniqueid": "MTK0918:38F71OA9GU3SGM791L5NXZEMBWTFMX", "current_trial": 38, "dateTime": 1512881538521, "trialdata": {"rt": -1000, "stimulus": "/static/audio/wordpool/WASHER.wav", "key_press": -1, "type": "PRES_AUD", "word": "washer", "wordID": 1591, "conditions": [18, 1200, "a", 18000], "trial": 0, "serialpos": 17, "trial_type": "single-audio", "trial_index": 38, "time_elapsed": 412812, "internal_node_id": "0.0-29.0"}}, {"uniqueid": "MTK0918:38F71OA9GU3SGM791L5NXZEMBWTFMX", "current_trial": 39, "dateTime": 1512881539812, "trialdata": {"rt": -1, "stimulus": "", "key_press": -1, "type": "PRE_RECALL_DELAY", "trial_type": "single-stim", "trial_index": 39, "time_elapsed": 414103, "internal_node_id": "0.0-30.0-0.0"}}, {"uniqueid": "MTK0918:38F71OA9GU3SGM791L5NXZEMBWTFMX", "current_trial": 40, "dateTime": 1512881540313, "trialdata": {"rt": -1000, "stimulus": "/static/audio/400Hz.wav", "key_press": -1, "type": "PRE_RECALL_ALERT", "trial_type": "single-audio", "trial_index": 40, "time_elapsed": 414604, "internal_node_id": "0.0-31.0"}}, {"uniqueid": "MTK0918:38F71OA9GU3SGM791L5NXZEMBWTFMX", "current_trial": 41, "dateTime": 1512881600318, "trialdata": {"rt": [3686, 5686, 8294, 13134, 36070], "recwords": ["washer", "fireman", "pebble", "cabin", ""], "type": "FREE_RECALL", "conditions": [18, 1200, "a", 18000], "trial": 0, "trial_type": "free-recall", "trial_index": 41, "time_elapsed": 474606, "internal_node_id": "0.0-32.0-0.0"}}, {"uniqueid": "MTK0918:38F71OA9GU3SGM791L5NXZEMBWTFMX", "current_trial": 42, "dateTime": 1512881604977, "trialdata": {"rt": 2657, "key_press": 32, "type": "INSTRUCTIONS", "trial_type": "text", "trial_index": 42, "time_elapsed": 479268, "internal_node_id": "0.0-33.0"}}, {"uniqueid": "MTK0918:38F71OA9GU3SGM791L5NXZEMBWTFMX", "current_trial": 43, "dateTime": 1512881624980, "trialdata": {"rt": [2710, 8438, 10246, 14399, 17062], "responses": ["16", "24", "11", "26", "14"], "num1": [8, 8, 6, 9, 3, 1], "num2": [4, 7, 4, 8, 9, 1], "num3": [4, 9, 1, 9, 2, 5], "type": "DISTRACTOR", "conditions": [18, 1200, "v", 18000], "trial": 1, "trial_type": "math-distractor", "trial_index": 43, "time_elapsed": 499271, "internal_node_id": "0.0-34.0"}}, {"uniqueid": "MTK0918:38F71OA9GU3SGM791L5NXZEMBWTFMX", "current_trial": 44, "dateTime": 1512881627982, "trialdata": {"rt": -1, "stimulus": "<p id=\"stim\">10</p>", "key_press": -1, "trial_type": "single-stim", "trial_index": 44, "time_elapsed": 502272, "internal_node_id": "0.0-35.0-0.0"}}, {"uniqueid": "MTK0918:38F71OA9GU3SGM791L5NXZEMBWTFMX", "current_trial": 45, "dateTime": 1512881628983, "trialdata": {"rt": -1, "stimulus": "<p id=\"stim\">9</p>", "key_press": -1, "trial_type": "single-stim", "trial_index": 45, "time_elapsed": 503274, "internal_node_id": "0.0-35.0-1.0"}}, {"uniqueid": "MTK0918:38F71OA9GU3SGM791L5NXZEMBWTFMX", "current_trial": 46, "dateTime": 1512881629984, "trialdata": {"rt": -1, "stimulus": "<p id=\"stim\">8</p>", "key_press": -1, "trial_type": "single-stim", "trial_index": 46, "time_elapsed": 504275, "internal_node_id": "0.0-35.0-2.0"}}, {"uniqueid": "MTK0918:38F71OA9GU3SGM791L5NXZEMBWTFMX", "current_trial": 47, "dateTime": 1512881630985, "trialdata": {"rt": -1, "stimulus": "<p id=\"stim\">7</p>", "key_press": -1, "trial_type": "single-stim", "trial_index": 47, "time_elapsed": 505276, "internal_node_id": "0.0-35.0-3.0"}}, {"uniqueid": "MTK0918:38F71OA9GU3SGM791L5NXZEMBWTFMX", "current_trial": 48, "dateTime": 1512881631986, "trialdata": {"rt": -1, "stimulus": "<p id=\"stim\">6</p>", "key_press": -1, "trial_type": "single-stim", "trial_index": 48, "time_elapsed": 506277, "internal_node_id": "0.0-35.0-4.0"}}, {"uniqueid": "MTK0918:38F71OA9GU3SGM791L5NXZEMBWTFMX", "current_trial": 49, "dateTime": 1512881632987, "trialdata": {"rt": -1, "stimulus": "<p id=\"stim\">5</p>", "key_press": -1, "trial_type": "single-stim", "trial_index": 49, "time_elapsed": 507277, "internal_node_id": "0.0-35.0-5.0"}}, {"uniqueid": "MTK0918:38F71OA9GU3SGM791L5NXZEMBWTFMX", "current_trial": 50, "dateTime": 1512881633987, "trialdata": {"rt": -1, "stimulus": "<p id=\"stim\">4</p>", "key_press": -1, "trial_type": "single-stim", "trial_index": 50, "time_elapsed": 508278, "internal_node_id": "0.0-35.0-6.0"}}, {"uniqueid": "MTK0918:38F71OA9GU3SGM791L5NXZEMBWTFMX", "current_trial": 51, "dateTime": 1512881634989, "trialdata": {"rt": -1, "stimulus": "<p id=\"stim\">3</p>", "key_press": -1, "trial_type": "single-stim", "trial_index": 51, "time_elapsed": 509280, "internal_node_id": "0.0-35.0-7.0"}}, {"uniqueid": "MTK0918:38F71OA9GU3SGM791L5NXZEMBWTFMX", "current_trial": 52, "dateTime": 1512881635991, "trialdata": {"rt": -1, "stimulus": "<p id=\"stim\">2</p>", "key_press": -1, "trial_type": "single-stim", "trial_index": 52, "time_elapsed": 510282, "internal_node_id": "0.0-35.0-8.0"}}, {"uniqueid": "MTK0918:38F71OA9GU3SGM791L5NXZEMBWTFMX", "current_trial": 53, "dateTime": 1512881636992, "trialdata": {"rt": -1, "stimulus": "<p id=\"stim\">1</p>", "key_press": -1, "trial_type": "single-stim", "trial_index": 53, "time_elapsed": 511283, "internal_node_id": "0.0-35.0-9.0"}}, {"uniqueid": "MTK0918:38F71OA9GU3SGM791L5NXZEMBWTFMX", "current_trial": 54, "dateTime": 1512881638493, "trialdata": {"rt": -1, "stimulus": "<p id=\"stim\">+</p>", "key_press": -1, "type": "FIXATION", "trial_type": "single-stim", "trial_index": 54, "time_elapsed": 512784, "internal_node_id": "0.0-36.0-0.0"}}, {"uniqueid": "MTK0918:38F71OA9GU3SGM791L5NXZEMBWTFMX", "current_trial": 55, "dateTime": 1512881639694, "trialdata": {"rt": -1, "stimulus": "<p id=\"stim\">BRIEFCASE</p>", "key_press": -1, "type": "PRES_VIS", "word": "briefcase", "wordID": 174, "conditions": [18, 1200, "v", 18000], "trial": 1, "serialpos": 0, "trial_type": "single-stim", "trial_index": 55, "time_elapsed": 513985, "internal_node_id": "0.0-37.0"}}, {"uniqueid": "MTK0918:38F71OA9GU3SGM791L5NXZEMBWTFMX", "current_trial": 56, "dateTime": 1512881641796, "trialdata": {"rt": -1, "stimulus": "<p id=\"stim\">ROBIN</p>", "key_press": -1, "type": "PRES_VIS", "word": "robin", "wordID": 1198, "conditions": [18, 1200, "v", 18000], "trial": 1, "serialpos": 1, "trial_type": "single-stim", "trial_index": 56, "time_elapsed": 516087, "internal_node_id": "0.0-38.0"}}, {"uniqueid": "MTK0918:38F71OA9GU3SGM791L5NXZEMBWTFMX", "current_trial": 57, "dateTime": 1512881644110, "trialdata": {"rt": -1, "stimulus": "<p id=\"stim\">ROD</p>", "key_press": -1, "type": "PRES_VIS", "word": "rod", "wordID": 1202, "conditions": [18, 1200, "v", 18000], "trial": 1, "serialpos": 2, "trial_type": "single-stim", "trial_index": 57, "time_elapsed": 518401, "internal_node_id": "0.0-39.0"}}, {"uniqueid": "MTK0918:38F71OA9GU3SGM791L5NXZEMBWTFMX", "current_trial": 58, "dateTime": 1512881646352, "trialdata": {"rt": -1, "stimulus": "<p id=\"stim\">PUPPY</p>", "key_press": -1, "type": "PRES_VIS", "word": "puppy", "wordID": 1143, "conditions": [18, 1200, "v", 18000], "trial": 1, "serialpos": 3, "trial_type": "single-stim", "trial_index": 58, "time_elapsed": 520643, "internal_node_id": "0.0-40.0"}}, {"uniqueid": "MTK0918:38F71OA9GU3SGM791L5NXZEMBWTFMX", "current_trial": 59, "dateTime": 1512881648375, "trialdata": {"rt": -1, "stimulus": "<p id=\"stim\">CLAMP</p>", "key_press": -1, "type": "PRES_VIS", "word": "clamp", "wordID": 315, "conditions": [18, 1200, "v", 18000], "trial": 1, "serialpos": 4, "trial_type": "single-stim", "trial_index": 59, "time_elapsed": 522666, "internal_node_id": "0.0-41.0"}}, {"uniqueid": "MTK0918:38F71OA9GU3SGM791L5NXZEMBWTFMX", "current_trial": 60, "dateTime": 1512881650412, "trialdata": {"rt": -1, "stimulus": "<p id=\"stim\">JELLO</p>", "key_press": -1, "type": "PRES_VIS", "word": "jello", "wordID": 753, "conditions": [18, 1200, "v", 18000], "trial": 1, "serialpos": 5, "trial_type": "single-stim", "trial_index": 60, "time_elapsed": 524703, "internal_node_id": "0.0-42.0"}}, {"uniqueid": "MTK0918:38F71OA9GU3SGM791L5NXZEMBWTFMX", "current_trial": 61, "dateTime": 1512881652813, "trialdata": {"rt": -1, "stimulus": "<p id=\"stim\">SLUG</p>", "key_press": -1, "type": "PRES_VIS", "word": "slug", "wordID": 1328, "conditions": [18, 1200, "v", 18000], "trial": 1, "serialpos": 6, "trial_type": "single-stim", "trial_index": 61, "time_elapsed": 527104, "internal_node_id": "0.0-43.0"}}, {"uniqueid": "MTK0918:38F71OA9GU3SGM791L5NXZEMBWTFMX", "current_trial": 62, "dateTime": 1512881655133, "trialdata": {"rt": -1, "stimulus": "<p id=\"stim\">ICING</p>", "key_press": -1, "type": "PRES_VIS", "word": "icing", "wordID": 731, "conditions": [18, 1200, "v", 18000], "trial": 1, "serialpos": 7, "trial_type": "single-stim", "trial_index": 62, "time_elapsed": 529424, "internal_node_id": "0.0-44.0"}}, {"uniqueid": "MTK0918:38F71OA9GU3SGM791L5NXZEMBWTFMX", "current_trial": 63, "dateTime": 1512881657449, "trialdata": {"rt": -1, "stimulus": "<p id=\"stim\">PERCH</p>", "key_press": -1, "type": "PRES_VIS", "word": "perch", "wordID": 1047, "conditions": [18, 1200, "v", 18000], "trial": 1, "serialpos": 8, "trial_type": "single-stim", "trial_index": 63, "time_elapsed": 531740, "internal_node_id": "0.0-45.0"}}, {"uniqueid": "MTK0918:38F71OA9GU3SGM791L5NXZEMBWTFMX", "current_trial": 64, "dateTime": 1512881659528, "trialdata": {"rt": -1, "stimulus": "<p id=\"stim\">HEADBAND</p>", "key_press": -1, "type": "PRES_VIS", "word": "headband", "wordID": 695, "conditions": [18, 1200, "v", 18000], "trial": 1, "serialpos": 9, "trial_type": "single-stim", "trial_index": 64, "time_elapsed": 533819, "internal_node_id": "0.0-46.0"}}, {"uniqueid": "MTK0918:38F71OA9GU3SGM791L5NXZEMBWTFMX", "current_trial": 65, "dateTime": 1512881661724, "trialdata": {"rt": -1, "stimulus": "<p id=\"stim\">BEAVER</p>", "key_press": -1, "type": "PRES_VIS", "word": "beaver", "wordID": 108, "conditions": [18, 1200, "v", 18000], "trial": 1, "serialpos": 10, "trial_type": "single-stim", "trial_index": 65, "time_elapsed": 536015, "internal_node_id": "0.0-47.0"}}, {"uniqueid": "MTK0918:38F71OA9GU3SGM791L5NXZEMBWTFMX", "current_trial": 66, "dateTime": 1512881663942, "trialdata": {"rt": -1, "stimulus": "<p id=\"stim\">MUSTARD</p>", "key_press": -1, "type": "PRES_VIS", "word": "mustard", "wordID": 934, "conditions": [18, 1200, "v", 18000], "trial": 1, "serialpos": 11, "trial_type": "single-stim", "trial_index": 66, "time_elapsed": 538233, "internal_node_id": "0.0-48.0"}}, {"uniqueid": "MTK0918:38F71OA9GU3SGM791L5NXZEMBWTFMX", "current_trial": 67, "dateTime": 1512881666123, "trialdata": {"rt": -1, "stimulus": "<p id=\"stim\">PASTRY</p>", "key_press": -1, "type": "PRES_VIS", "word": "pastry", "wordID": 1021, "conditions": [18, 1200, "v", 18000], "trial": 1, "serialpos": 12, "trial_type": "single-stim", "trial_index": 67, "time_elapsed": 540414, "internal_node_id": "0.0-49.0"}}, {"uniqueid": "MTK0918:38F71OA9GU3SGM791L5NXZEMBWTFMX", "current_trial": 68, "dateTime": 1512881668411, "trialdata": {"rt": -1, "stimulus": "<p id=\"stim\">WAITRESS</p>", "key_press": -1, "type": "PRES_VIS", "word": "waitress", "wordID": 1580, "conditions": [18, 1200, "v", 18000], "trial": 1, "serialpos": 13, "trial_type": "single-stim", "trial_index": 68, "time_elapsed": 542701, "internal_node_id": "0.0-50.0"}}, {"uniqueid": "MTK0918:38F71OA9GU3SGM791L5NXZEMBWTFMX", "current_trial": 69, "dateTime": 1512881670551, "trialdata": {"rt": -1, "stimulus": "<p id=\"stim\">KITCHEN</p>", "key_press": -1, "type": "PRES_VIS", "word": "kitchen", "wordID": 777, "conditions": [18, 1200, "v", 18000], "trial": 1, "serialpos": 14, "trial_type": "single-stim", "trial_index": 69, "time_elapsed": 544842, "internal_node_id": "0.0-51.0"}}, {"uniqueid": "MTK0918:38F71OA9GU3SGM791L5NXZEMBWTFMX", "current_trial": 70, "dateTime": 1512881672563, "trialdata": {"rt": -1, "stimulus": "<p id=\"stim\">SALT</p>", "key_press": -1, "type": "PRES_VIS", "word": "salt", "wordID": 1228, "conditions": [18, 1200, "v", 18000], "trial": 1, "serialpos": 15, "trial_type": "single-stim", "trial_index": 70, "time_elapsed": 546854, "internal_node_id": "0.0-52.0"}}, {"uniqueid": "MTK0918:38F71OA9GU3SGM791L5NXZEMBWTFMX", "current_trial": 71, "dateTime": 1512881674702, "trialdata": {"rt": -1, "stimulus": "<p id=\"stim\">REBEL</p>", "key_press": -1, "type": "PRES_VIS", "word": "rebel", "wordID": 1171, "conditions": [18, 1200, "v", 18000], "trial": 1, "serialpos": 16, "trial_type": "single-stim", "trial_index": 71, "time_elapsed": 548993, "internal_node_id": "0.0-53.0"}}, {"uniqueid": "MTK0918:38F71OA9GU3SGM791L5NXZEMBWTFMX", "current_trial": 72, "dateTime": 1512881676962, "trialdata": {"rt": -1, "stimulus": "<p id=\"stim\">PICTURE</p>", "key_press": -1, "type": "PRES_VIS", "word": "picture", "wordID": 1060, "conditions": [18, 1200, "v", 18000], "trial": 1, "serialpos": 17, "trial_type": "single-stim", "trial_index": 72, "time_elapsed": 551253, "internal_node_id": "0.0-54.0"}}, {"uniqueid": "MTK0918:38F71OA9GU3SGM791L5NXZEMBWTFMX", "current_trial": 73, "dateTime": 1512881679287, "trialdata": {"rt": -1, "stimulus": "", "key_press": -1, "type": "PRE_RECALL_DELAY", "trial_type": "single-stim", "trial_index": 73, "time_elapsed": 553578, "internal_node_id": "0.0-55.0-0.0"}}, {"uniqueid": "MTK0918:38F71OA9GU3SGM791L5NXZEMBWTFMX", "current_trial": 74, "dateTime": 1512881679788, "trialdata": {"rt": -1000, "stimulus": "/static/audio/400Hz.wav", "key_press": -1, "type": "PRE_RECALL_ALERT", "trial_type": "single-audio", "trial_index": 74, "time_elapsed": 554079, "internal_node_id": "0.0-56.0"}}, {"uniqueid": "MTK0918:38F71OA9GU3SGM791L5NXZEMBWTFMX", "current_trial": 75, "dateTime": 1512881739791, "trialdata": {"rt": [5819, 7963, 10139, 12787, 20163], "recwords": ["rebel", "clamp", "rod", "picture", "waitress"], "type": "FREE_RECALL", "conditions": [18, 1200, "v", 18000], "trial": 1, "trial_type": "free-recall", "trial_index": 75, "time_elapsed": 614080, "internal_node_id": "0.0-57.0-0.0"}}, {"uniqueid": "MTK0918:38F71OA9GU3SGM791L5NXZEMBWTFMX", "current_trial": 76, "dateTime": 1512881748786, "trialdata": {"rt": 6991, "key_press": 32, "type": "INSTRUCTIONS", "trial_type": "text", "trial_index": 76, "time_elapsed": 623075, "internal_node_id": "0.0-58.0"}}, {"uniqueid": "MTK0918:38F71OA9GU3SGM791L5NXZEMBWTFMX", "current_trial": 77, "dateTime": 1512881773790, "trialdata": {"rt": [3291, 4939, 6835, 8803, 11995, 14779, 16275, 17627, 21435], "responses": ["10", "5", "12", "13", "23", "18", "18", "6", "16"], "num1": [6, 2, 2, 9, 9, 7, 3, 1, 6, 9], "num2": [2, 2, 9, 2, 6, 9, 7, 2, 7, 8], "num3": [2, 1, 1, 2, 8, 2, 8, 3, 3, 8], "type": "DISTRACTOR", "conditions": [12, 1600, "a", 24000], "trial": 2, "trial_type": "math-distractor", "trial_index": 77, "time_elapsed": 648081, "internal_node_id": "0.0-59.0"}}, {"uniqueid": "MTK0918:38F71OA9GU3SGM791L5NXZEMBWTFMX", "current_trial": 78, "dateTime": 1512881776791, "trialdata": {"rt": -1, "stimulus": "<p id=\"stim\">10</p>", "key_press": -1, "trial_type": "single-stim", "trial_index": 78, "time_elapsed": 651082, "internal_node_id": "0.0-60.0-0.0"}}, {"uniqueid": "MTK0918:38F71OA9GU3SGM791L5NXZEMBWTFMX", "current_trial": 79, "dateTime": 1512881777794, "trialdata": {"rt": -1, "stimulus": "<p id=\"stim\">9</p>", "key_press": -1, "trial_type": "single-stim", "trial_index": 79, "time_elapsed": 652085, "internal_node_id": "0.0-60.0-1.0"}}, {"uniqueid": "MTK0918:38F71OA9GU3SGM791L5NXZEMBWTFMX", "current_trial": 80, "dateTime": 1512881778797, "trialdata": {"rt": -1, "stimulus": "<p id=\"stim\">8</p>", "key_press": -1, "trial_type": "single-stim", "trial_index": 80, "time_elapsed": 653088, "internal_node_id": "0.0-60.0-2.0"}}, {"uniqueid": "MTK0918:38F71OA9GU3SGM791L5NXZEMBWTFMX", "current_trial": 81, "dateTime": 1512881779798, "trialdata": {"rt": -1, "stimulus": "<p id=\"stim\">7</p>", "key_press": -1, "trial_type": "single-stim", "trial_index": 81, "time_elapsed": 654089, "internal_node_id": "0.0-60.0-3.0"}}, {"uniqueid": "MTK0918:38F71OA9GU3SGM791L5NXZEMBWTFMX", "current_trial": 82, "dateTime": 1512881780800, "trialdata": {"rt": -1, "stimulus": "<p id=\"stim\">6</p>", "key_press": -1, "trial_type": "single-stim", "trial_index": 82, "time_elapsed": 655091, "internal_node_id": "0.0-60.0-4.0"}}, {"uniqueid": "MTK0918:38F71OA9GU3SGM791L5NXZEMBWTFMX", "current_trial": 83, "dateTime": 1512881781800, "trialdata": {"rt": -1, "stimulus": "<p id=\"stim\">5</p>", "key_press": -1, "trial_type": "single-stim", "trial_index": 83, "time_elapsed": 656091, "internal_node_id": "0.0-60.0-5.0"}}, {"uniqueid": "MTK0918:38F71OA9GU3SGM791L5NXZEMBWTFMX", "current_trial": 84, "dateTime": 1512881782801, "trialdata": {"rt": -1, "stimulus": "<p id=\"stim\">4</p>", "key_press": -1, "trial_type": "single-stim", "trial_index": 84, "time_elapsed": 657092, "internal_node_id": "0.0-60.0-6.0"}}, {"uniqueid": "MTK0918:38F71OA9GU3SGM791L5NXZEMBWTFMX", "current_trial": 85, "dateTime": 1512881783802, "trialdata": {"rt": -1, "stimulus": "<p id=\"stim\">3</p>", "key_press": -1, "trial_type": "single-stim", "trial_index": 85, "time_elapsed": 658093, "internal_node_id": "0.0-60.0-7.0"}}, {"uniqueid": "MTK0918:38F71OA9GU3SGM791L5NXZEMBWTFMX", "current_trial": 86, "dateTime": 1512881784803, "trialdata": {"rt": -1, "stimulus": "<p id=\"stim\">2</p>", "key_press": -1, "trial_type": "single-stim", "trial_index": 86, "time_elapsed": 659094, "internal_node_id": "0.0-60.0-8.0"}}, {"uniqueid": "MTK0918:38F71OA9GU3SGM791L5NXZEMBWTFMX", "current_trial": 87, "dateTime": 1512881785804, "trialdata": {"rt": -1, "stimulus": "<p id=\"stim\">1</p>", "key_press": -1, "trial_type": "single-stim", "trial_index": 87, "time_elapsed": 660095, "internal_node_id": "0.0-60.0-9.0"}}, {"uniqueid": "MTK0918:38F71OA9GU3SGM791L5NXZEMBWTFMX", "current_trial": 88, "dateTime": 1512881787307, "trialdata": {"rt": -1, "stimulus": "<p id=\"stim\">+</p>", "key_press": -1, "type": "FIXATION", "trial_type": "single-stim", "trial_index": 88, "time_elapsed": 661598, "internal_node_id": "0.0-61.0-0.0"}}, {"uniqueid": "MTK0918:38F71OA9GU3SGM791L5NXZEMBWTFMX", "current_trial": 89, "dateTime": 1512881789768, "trialdata": {"rt": -1000, "stimulus": "/static/audio/wordpool/FIREPLACE.wav", "key_press": -1, "type": "PRES_AUD", "word": "fireplace", "wordID": 569, "conditions": [12, 1600, "a", 24000], "trial": 2, "serialpos": 0, "trial_type": "single-audio", "trial_index": 89, "time_elapsed": 664057, "internal_node_id": "0.0-62.0"}}, {"uniqueid": "MTK0918:38F71OA9GU3SGM791L5NXZEMBWTFMX", "current_trial": 90, "dateTime": 1512881792300, "trialdata": {"rt": -1000, "stimulus": "/static/audio/wordpool/PIMPLE.wav", "key_press": -1, "type": "PRES_AUD", "word": "pimple", "wordID": 1070, "conditions": [12, 1600, "a", 24000], "trial": 2, "serialpos": 1, "trial_type": "single-audio", "trial_index": 90, "time_elapsed": 666591, "internal_node_id": "0.0-63.0"}}, {"uniqueid": "MTK0918:38F71OA9GU3SGM791L5NXZEMBWTFMX", "current_trial": 91, "dateTime": 1512881795028, "trialdata": {"rt": -1000, "stimulus": "/static/audio/wordpool/EXPERT.wav", "key_press": -1, "type": "PRES_AUD", "word": "expert", "wordID": 542, "conditions": [12, 1600, "a", 24000], "trial": 2, "serialpos": 2, "trial_type": "single-audio", "trial_index": 91, "time_elapsed": 669319, "internal_node_id": "0.0-64.0"}}, {"uniqueid": "MTK0918:38F71OA9GU3SGM791L5NXZEMBWTFMX", "current_trial": 92, "dateTime": 1512881797516, "trialdata": {"rt": -1000, "stimulus": "/static/audio/wordpool/JUGGLER.wav", "key_press": -1, "type": "PRES_AUD", "word": "juggler", "wordID": 762, "conditions": [12, 1600, "a", 24000], "trial": 2, "serialpos": 3, "trial_type": "single-audio", "trial_index": 92, "time_elapsed": 671807, "internal_node_id": "0.0-65.0"}}, {"uniqueid": "MTK0918:38F71OA9GU3SGM791L5NXZEMBWTFMX", "current_trial": 93, "dateTime": 1512881800304, "trialdata": {"rt": -1000, "stimulus": "/static/audio/wordpool/COTTAGE.wav", "key_press": -1, "type": "PRES_AUD", "word": "cottage", "wordID": 383, "conditions": [12, 1600, "a", 24000], "trial": 2, "serialpos": 4, "trial_type": "single-audio", "trial_index": 93, "time_elapsed": 674595, "internal_node_id": "0.0-66.0"}}, {"uniqueid": "MTK0918:38F71OA9GU3SGM791L5NXZEMBWTFMX", "current_trial": 94, "dateTime": 1512881803087, "trialdata": {"rt": -1000, "stimulus": "/static/audio/wordpool/QUAIL.wav", "key_press": -1, "type": "PRES_AUD", "word": "quail", "wordID": 1146, "conditions": [12, 1600, "a", 24000], "trial": 2, "serialpos": 5, "trial_type": "single-audio", "trial_index": 94, "time_elapsed": 677378, "internal_node_id": "0.0-67.0"}}, {"uniqueid": "MTK0918:38F71OA9GU3SGM791L5NXZEMBWTFMX", "current_trial": 95, "dateTime": 1512881805705, "trialdata": {"rt": -1000, "stimulus": "/static/audio/wordpool/SKIRT.wav", "key_press": -1, "type": "PRES_AUD", "word": "skirt", "wordID": 1318, "conditions": [12, 1600, "a", 24000], "trial": 2, "serialpos": 6, "trial_type": "single-audio", "trial_index": 95, "time_elapsed": 679996, "internal_node_id": "0.0-68.0"}}, {"uniqueid": "MTK0918:38F71OA9GU3SGM791L5NXZEMBWTFMX", "current_trial": 96, "dateTime": 1512881808226, "trialdata": {"rt": -1000, "stimulus": "/static/audio/wordpool/BLOUSE.wav", "key_press": -1, "type": "PRES_AUD", "word": "blouse", "wordID": 138, "conditions": [12, 1600, "a", 24000], "trial": 2, "serialpos": 7, "trial_type": "single-audio", "trial_index": 96, "time_elapsed": 682517, "internal_node_id": "0.0-69.0"}}, {"uniqueid": "MTK0918:38F71OA9GU3SGM791L5NXZEMBWTFMX", "current_trial": 97, "dateTime": 1512881810698, "trialdata": {"rt": -1000, "stimulus": "/static/audio/wordpool/WARDROBE.wav", "key_press": -1, "type": "PRES_AUD", "word": "wardrobe", "wordID": 1586, "conditions": [12, 1600, "a", 24000], "trial": 2, "serialpos": 8, "trial_type": "single-audio", "trial_index": 97, "time_elapsed": 684989, "internal_node_id": "0.0-70.0"}}, {"uniqueid": "MTK0918:38F71OA9GU3SGM791L5NXZEMBWTFMX", "current_trial": 98, "dateTime": 1512881813401, "trialdata": {"rt": -1000, "stimulus": "/static/audio/wordpool/DUST.wav", "key_press": -1, "type": "PRES_AUD", "word": "dust", "wordID": 507, "conditions": [12, 1600, "a", 24000], "trial": 2, "serialpos": 9, "trial_type": "single-audio", "trial_index": 98, "time_elapsed": 687692, "internal_node_id": "0.0-71.0"}}, {"uniqueid": "MTK0918:38F71OA9GU3SGM791L5NXZEMBWTFMX", "current_trial": 99, "dateTime": 1512881815864, "trialdata": {"rt": -1000, "stimulus": "/static/audio/wordpool/ULCER.wav", "key_press": -1, "type": "PRES_AUD", "word": "ulcer", "wordID": 1532, "conditions": [12, 1600, "a", 24000], "trial": 2, "serialpos": 10, "trial_type": "single-audio", "trial_index": 99, "time_elapsed": 690155, "internal_node_id": "0.0-72.0"}}, {"uniqueid": "MTK0918:38F71OA9GU3SGM791L5NXZEMBWTFMX", "current_trial": 100, "dateTime": 1512881818603, "trialdata": {"rt": -1000, "stimulus": "/static/audio/wordpool/FRECKLE.wav", "key_press": -1, "type": "PRES_AUD", "word": "freckle", "wordID": 601, "conditions": [12, 1600, "a", 24000], "trial": 2, "serialpos": 11, "trial_type": "single-audio", "trial_index": 100, "time_elapsed": 692894, "internal_node_id": "0.0-73.0"}}, {"uniqueid": "MTK0918:38F71OA9GU3SGM791L5NXZEMBWTFMX", "current_trial": 101, "dateTime": 1512881819932, "trialdata": {"rt": -1, "stimulus": "", "key_press": -1, "type": "PRE_RECALL_DELAY", "trial_type": "single-stim", "trial_index": 101, "time_elapsed": 694223, "internal_node_id": "0.0-74.0-0.0"}}, {"uniqueid": "MTK0918:38F71OA9GU3SGM791L5NXZEMBWTFMX", "current_trial": 102, "dateTime": 1512881820433, "trialdata": {"rt": -1000, "stimulus": "/static/audio/400Hz.wav", "key_press": -1, "type": "PRE_RECALL_ALERT", "trial_type": "single-audio", "trial_index": 102, "time_elapsed": 694724, "internal_node_id": "0.0-75.0"}}, {"uniqueid": "MTK0918:38F71OA9GU3SGM791L5NXZEMBWTFMX", "current_trial": 103, "dateTime": 1512881880435, "trialdata": {"rt": [5646, 9102, 18238], "recwords": ["ulcer", "freckle", "juggler"], "type": "FREE_RECALL", "conditions": [12, 1600, "a", 24000], "trial": 2, "trial_type": "free-recall", "trial_index": 103, "time_elapsed": 754725, "internal_node_id": "0.0-76.0-0.0"}}, {"uniqueid": "MTK0918:38F71OA9GU3SGM791L5NXZEMBWTFMX", "current_trial": 104, "dateTime": 1512881885343, "trialdata": {"rt": 2907, "key_press": 32, "type": "INSTRUCTIONS", "trial_type": "text", "trial_index": 104, "time_elapsed": 759634, "internal_node_id": "0.0-77.0"}}, {"uniqueid": "MTK0918:38F71OA9GU3SGM791L5NXZEMBWTFMX", "current_trial": 105, "dateTime": 1512881899346, "trialdata": {"rt": [3398, 5238, 7438, 10302], "responses": ["15", "14", "13", "14"], "num1": [3, 8, 3, 2, 9], "num2": [5, 2, 1, 7, 9], "num3": [7, 4, 9, 5, 1], "type": "DISTRACTOR", "conditions": [24, 1600, "a", 12000], "trial": 3, "trial_type": "math-distractor", "trial_index": 105, "time_elapsed": 773637, "internal_node_id": "0.0-78.0"}}, {"uniqueid": "MTK0918:38F71OA9GU3SGM791L5NXZEMBWTFMX", "current_trial": 106, "dateTime": 1512881902348, "trialdata": {"rt": -1, "stimulus": "<p id=\"stim\">10</p>", "key_press": -1, "trial_type": "single-stim", "trial_index": 106, "time_elapsed": 776639, "internal_node_id": "0.0-79.0-0.0"}}, {"uniqueid": "MTK0918:38F71OA9GU3SGM791L5NXZEMBWTFMX", "current_trial": 107, "dateTime": 1512881903349, "trialdata": {"rt": -1, "stimulus": "<p id=\"stim\">9</p>", "key_press": -1, "trial_type": "single-stim", "trial_index": 107, "time_elapsed": 777640, "internal_node_id": "0.0-79.0-1.0"}}, {"uniqueid": "MTK0918:38F71OA9GU3SGM791L5NXZEMBWTFMX", "current_trial": 108, "dateTime": 1512881904350, "trialdata": {"rt": -1, "stimulus": "<p id=\"stim\">8</p>", "key_press": -1, "trial_type": "single-stim", "trial_index": 108, "time_elapsed": 778641, "internal_node_id": "0.0-79.0-2.0"}}, {"uniqueid": "MTK0918:38F71OA9GU3SGM791L5NXZEMBWTFMX", "current_trial": 109, "dateTime": 1512881905351, "trialdata": {"rt": -1, "stimulus": "<p id=\"stim\">7</p>", "key_press": -1, "trial_type": "single-stim", "trial_index": 109, "time_elapsed": 779642, "internal_node_id": "0.0-79.0-3.0"}}, {"uniqueid": "MTK0918:38F71OA9GU3SGM791L5NXZEMBWTFMX", "current_trial": 110, "dateTime": 1512881906353, "trialdata": {"rt": -1, "stimulus": "<p id=\"stim\">6</p>", "key_press": -1, "trial_type": "single-stim", "trial_index": 110, "time_elapsed": 780643, "internal_node_id": "0.0-79.0-4.0"}}, {"uniqueid": "MTK0918:38F71OA9GU3SGM791L5NXZEMBWTFMX", "current_trial": 111, "dateTime": 1512881907354, "trialdata": {"rt": -1, "stimulus": "<p id=\"stim\">5</p>", "key_press": -1, "trial_type": "single-stim", "trial_index": 111, "time_elapsed": 781644, "internal_node_id": "0.0-79.0-5.0"}}, {"uniqueid": "MTK0918:38F71OA9GU3SGM791L5NXZEMBWTFMX", "current_trial": 112, "dateTime": 1512881908357, "trialdata": {"rt": -1, "stimulus": "<p id=\"stim\">4</p>", "key_press": -1, "trial_type": "single-stim", "trial_index": 112, "time_elapsed": 782648, "internal_node_id": "0.0-79.0-6.0"}}, {"uniqueid": "MTK0918:38F71OA9GU3SGM791L5NXZEMBWTFMX", "current_trial": 113, "dateTime": 1512881909359, "trialdata": {"rt": -1, "stimulus": "<p id=\"stim\">3</p>", "key_press": -1, "trial_type": "single-stim", "trial_index": 113, "time_elapsed": 783650, "internal_node_id": "0.0-79.0-7.0"}}, {"uniqueid": "MTK0918:38F71OA9GU3SGM791L5NXZEMBWTFMX", "current_trial": 114, "dateTime": 1512881910360, "trialdata": {"rt": -1, "stimulus": "<p id=\"stim\">2</p>", "key_press": -1, "trial_type": "single-stim", "trial_index": 114, "time_elapsed": 784651, "internal_node_id": "0.0-79.0-8.0"}}, {"uniqueid": "MTK0918:38F71OA9GU3SGM791L5NXZEMBWTFMX", "current_trial": 115, "dateTime": 1512881911361, "trialdata": {"rt": -1, "stimulus": "<p id=\"stim\">1</p>", "key_press": -1, "trial_type": "single-stim", "trial_index": 115, "time_elapsed": 785652, "internal_node_id": "0.0-79.0-9.0"}}, {"uniqueid": "MTK0918:38F71OA9GU3SGM791L5NXZEMBWTFMX", "current_trial": 116, "dateTime": 1512881912863, "trialdata": {"rt": -1, "stimulus": "<p id=\"stim\">+</p>", "key_press": -1, "type": "FIXATION", "trial_type": "single-stim", "trial_index": 116, "time_elapsed": 787154, "internal_node_id": "0.0-80.0-0.0"}}, {"uniqueid": "MTK0918:38F71OA9GU3SGM791L5NXZEMBWTFMX", "current_trial": 117, "dateTime": 1512881915558, "trialdata": {"rt": -1000, "stimulus": "/static/audio/wordpool/BOYFRIEND.wav", "key_press": -1, "type": "PRES_AUD", "word": "boyfriend", "wordID": 161, "conditions": [24, 1600, "a", 12000], "trial": 3, "serialpos": 0, "trial_type": "single-audio", "trial_index": 117, "time_elapsed": 789849, "internal_node_id": "0.0-81.0"}}, {"uniqueid": "MTK0918:38F71OA9GU3SGM791L5NXZEMBWTFMX", "current_trial": 118, "dateTime": 1512881918003, "trialdata": {"rt": -1000, "stimulus": "/static/audio/wordpool/PUDDING.wav", "key_press": -1, "type": "PRES_AUD", "word": "pudding", "wordID": 1138, "conditions": [24, 1600, "a", 12000], "trial": 3, "serialpos": 1, "trial_type": "single-audio", "trial_index": 118, "time_elapsed": 792294, "internal_node_id": "0.0-82.0"}}, {"uniqueid": "MTK0918:38F71OA9GU3SGM791L5NXZEMBWTFMX", "current_trial": 119, "dateTime": 1512881920614, "trialdata": {"rt": -1000, "stimulus": "/static/audio/wordpool/JELLY.wav", "key_press": -1, "type": "PRES_AUD", "word": "jelly", "wordID": 754, "conditions": [24, 1600, "a", 12000], "trial": 3, "serialpos": 2, "trial_type": "single-audio", "trial_index": 119, "time_elapsed": 794905, "internal_node_id": "0.0-83.0"}}, {"uniqueid": "MTK0918:38F71OA9GU3SGM791L5NXZEMBWTFMX", "current_trial": 120, "dateTime": 1512881923050, "trialdata": {"rt": -1000, "stimulus": "/static/audio/wordpool/SNACK.wav", "key_press": -1, "type": "PRES_AUD", "word": "snack", "wordID": 1330, "conditions": [24, 1600, "a", 12000], "trial": 3, "serialpos": 3, "trial_type": "single-audio", "trial_index": 120, "time_elapsed": 797341, "internal_node_id": "0.0-84.0"}}, {"uniqueid": "MTK0918:38F71OA9GU3SGM791L5NXZEMBWTFMX", "current_trial": 121, "dateTime": 1512881925656, "trialdata": {"rt": -1000, "stimulus": "/static/audio/wordpool/MAMMAL.wav", "key_press": -1, "type": "PRES_AUD", "word": "mammal", "wordID": 860, "conditions": [24, 1600, "a", 12000], "trial": 3, "serialpos": 4, "trial_type": "single-audio", "trial_index": 121, "time_elapsed": 799947, "internal_node_id": "0.0-85.0"}}, {"uniqueid": "MTK0918:38F71OA9GU3SGM791L5NXZEMBWTFMX", "current_trial": 122, "dateTime": 1512881928145, "trialdata": {"rt": -1000, "stimulus": "/static/audio/wordpool/TYPIST.wav", "key_press": -1, "type": "PRES_AUD", "word": "typist", "wordID": 1531, "conditions": [24, 1600, "a", 12000], "trial": 3, "serialpos": 5, "trial_type": "single-audio", "trial_index": 122, "time_elapsed": 802436, "internal_node_id": "0.0-86.0"}}, {"uniqueid": "MTK0918:38F71OA9GU3SGM791L5NXZEMBWTFMX", "current_trial": 123, "dateTime": 1512881930886, "trialdata": {"rt": -1000, "stimulus": "/static/audio/wordpool/MONEY.wav", "key_press": -1, "type": "PRES_AUD", "word": "money", "wordID": 907, "conditions": [24, 1600, "a", 12000], "trial": 3, "serialpos": 6, "trial_type": "single-audio", "trial_index": 123, "time_elapsed": 805177, "internal_node_id": "0.0-87.0"}}, {"uniqueid": "MTK0918:38F71OA9GU3SGM791L5NXZEMBWTFMX", "current_trial": 124, "dateTime": 1512881933646, "trialdata": {"rt": -1000, "stimulus": "/static/audio/wordpool/GIRL.wav", "key_press": -1, "type": "PRES_AUD", "word": "girl", "wordID": 636, "conditions": [24, 1600, "a", 12000], "trial": 3, "serialpos": 7, "trial_type": "single-audio", "trial_index": 124, "time_elapsed": 807937, "internal_node_id": "0.0-88.0"}}, {"uniqueid": "MTK0918:38F71OA9GU3SGM791L5NXZEMBWTFMX", "current_trial": 125, "dateTime": 1512881936342, "trialdata": {"rt": -1000, "stimulus": "/static/audio/wordpool/CUSTARD.wav", "key_press": -1, "type": "PRES_AUD", "word": "custard", "wordID": 428, "conditions": [24, 1600, "a", 12000], "trial": 3, "serialpos": 8, "trial_type": "single-audio", "trial_index": 125, "time_elapsed": 810633, "internal_node_id": "0.0-89.0"}}, {"uniqueid": "MTK0918:38F71OA9GU3SGM791L5NXZEMBWTFMX", "current_trial": 126, "dateTime": 1512881939028, "trialdata": {"rt": -1000, "stimulus": "/static/audio/wordpool/OYSTER.wav", "key_press": -1, "type": "PRES_AUD", "word": "oyster", "wordID": 994, "conditions": [24, 1600, "a", 12000], "trial": 3, "serialpos": 9, "trial_type": "single-audio", "trial_index": 126, "time_elapsed": 813319, "internal_node_id": "0.0-90.0"}}, {"uniqueid": "MTK0918:38F71OA9GU3SGM791L5NXZEMBWTFMX", "current_trial": 127, "dateTime": 1512881941513, "trialdata": {"rt": -1000, "stimulus": "/static/audio/wordpool/CLAM.wav", "key_press": -1, "type": "PRES_AUD", "word": "clam", "wordID": 314, "conditions": [24, 1600, "a", 12000], "trial": 3, "serialpos": 10, "trial_type": "single-audio", "trial_index": 127, "time_elapsed": 815804, "internal_node_id": "0.0-91.0"}}, {"uniqueid": "MTK0918:38F71OA9GU3SGM791L5NXZEMBWTFMX", "current_trial": 128, "dateTime": 1512881943940, "trialdata": {"rt": -1000, "stimulus": "/static/audio/wordpool/LOVER.wav", "key_press": -1, "type": "PRES_AUD", "word": "lover", "wordID": 845, "conditions": [24, 1600, "a", 12000], "trial": 3, "serialpos": 11, "trial_type": "single-audio", "trial_index": 128, "time_elapsed": 818230, "internal_node_id": "0.0-92.0"}}, {"uniqueid": "MTK0918:38F71OA9GU3SGM791L5NXZEMBWTFMX", "current_trial": 129, "dateTime": 1512881946364, "trialdata": {"rt": -1000, "stimulus": "/static/audio/wordpool/CIGAR.wav", "key_press": -1, "type": "PRES_AUD", "word": "cigar", "wordID": 307, "conditions": [24, 1600, "a", 12000], "trial": 3, "serialpos": 12, "trial_type": "single-audio", "trial_index": 129, "time_elapsed": 820655, "internal_node_id": "0.0-93.0"}}, {"uniqueid": "MTK0918:38F71OA9GU3SGM791L5NXZEMBWTFMX", "current_trial": 130, "dateTime": 1512881948995, "trialdata": {"rt": -1000, "stimulus": "/static/audio/wordpool/ANKLE.wav", "key_press": -1, "type": "PRES_AUD", "word": "ankle", "wordID": 23, "conditions": [24, 1600, "a", 12000], "trial": 3, "serialpos": 13, "trial_type": "single-audio", "trial_index": 130, "time_elapsed": 823286, "internal_node_id": "0.0-94.0"}}, {"uniqueid": "MTK0918:38F71OA9GU3SGM791L5NXZEMBWTFMX", "current_trial": 131, "dateTime": 1512881951404, "trialdata": {"rt": -1000, "stimulus": "/static/audio/wordpool/POLICE.wav", "key_press": -1, "type": "PRES_AUD", "word": "police", "wordID": 1097, "conditions": [24, 1600, "a", 12000], "trial": 3, "serialpos": 14, "trial_type": "single-audio", "trial_index": 131, "time_elapsed": 825695, "internal_node_id": "0.0-95.0"}}, {"uniqueid": "MTK0918:38F71OA9GU3SGM791L5NXZEMBWTFMX", "current_trial": 132, "dateTime": 1512881954155, "trialdata": {"rt": -1000, "stimulus": "/static/audio/wordpool/DRUG.wav", "key_press": -1, "type": "PRES_AUD", "word": "drug", "wordID": 500, "conditions": [24, 1600, "a", 12000], "trial": 3, "serialpos": 15, "trial_type": "single-audio", "trial_index": 132, "time_elapsed": 828446, "internal_node_id": "0.0-96.0"}}, {"uniqueid": "MTK0918:38F71OA9GU3SGM791L5NXZEMBWTFMX", "current_trial": 133, "dateTime": 1512881956626, "trialdata": {"rt": -1000, "stimulus": "/static/audio/wordpool/SMOG.wav", "key_press": -1, "type": "PRES_AUD", "word": "smog", "wordID": 1329, "conditions": [24, 1600, "a", 12000], "trial": 3, "serialpos": 16, "trial_type": "single-audio", "trial_index": 133, "time_elapsed": 830917, "internal_node_id": "0.0-97.0"}}, {"uniqueid": "MTK0918:38F71OA9GU3SGM791L5NXZEMBWTFMX", "current_trial": 134, "dateTime": 1512881959027, "trialdata": {"rt": -1000, "stimulus": "/static/audio/wordpool/BEAKER.wav", "key_press": -1, "type": "PRES_AUD", "word": "beaker", "wordID": 103, "conditions": [24, 1600, "a", 12000], "trial": 3, "serialpos": 17, "trial_type": "single-audio", "trial_index": 134, "time_elapsed": 833318, "internal_node_id": "0.0-98.0"}}, {"uniqueid": "MTK0918:38F71OA9GU3SGM791L5NXZEMBWTFMX", "current_trial": 135, "dateTime": 1512881961683, "trialdata": {"rt": -1000, "stimulus": "/static/audio/wordpool/FLASK.wav", "key_press": -1, "type": "PRES_AUD", "word": "flask", "wordID": 575, "conditions": [24, 1600, "a", 12000], "trial": 3, "serialpos": 18, "trial_type": "single-audio", "trial_index": 135, "time_elapsed": 835974, "internal_node_id": "0.0-99.0"}}, {"uniqueid": "MTK0918:38F71OA9GU3SGM791L5NXZEMBWTFMX", "current_trial": 136, "dateTime": 1512881964279, "trialdata": {"rt": -1000, "stimulus": "/static/audio/wordpool/ONION.wav", "key_press": -1, "type": "PRES_AUD", "word": "onion", "wordID": 976, "conditions": [24, 1600, "a", 12000], "trial": 3, "serialpos": 19, "trial_type": "single-audio", "trial_index": 136, "time_elapsed": 838570, "internal_node_id": "0.0-100.0"}}, {"uniqueid": "MTK0918:38F71OA9GU3SGM791L5NXZEMBWTFMX", "current_trial": 137, "dateTime": 1512881966718, "trialdata": {"rt": -1000, "stimulus": "/static/audio/wordpool/ELBOW.wav", "key_press": -1, "type": "PRES_AUD", "word": "elbow", "wordID": 519, "conditions": [24, 1600, "a", 12000], "trial": 3, "serialpos": 20, "trial_type": "single-audio", "trial_index": 137, "time_elapsed": 841009, "internal_node_id": "0.0-101.0"}}, {"uniqueid": "MTK0918:38F71OA9GU3SGM791L5NXZEMBWTFMX", "current_trial": 138, "dateTime": 1512881969330, "trialdata": {"rt": -1000, "stimulus": "/static/audio/wordpool/GLOVE.wav", "key_press": -1, "type": "PRES_AUD", "word": "glove", "wordID": 641, "conditions": [24, 1600, "a", 12000], "trial": 3, "serialpos": 21, "trial_type": "single-audio", "trial_index": 138, "time_elapsed": 843621, "internal_node_id": "0.0-102.0"}}, {"uniqueid": "MTK0918:38F71OA9GU3SGM791L5NXZEMBWTFMX", "current_trial": 139, "dateTime": 1512881971957, "trialdata": {"rt": -1000, "stimulus": "/static/audio/wordpool/RADISH.wav", "key_press": -1, "type": "PRES_AUD", "word": "radish", "wordID": 1157, "conditions": [24, 1600, "a", 12000], "trial": 3, "serialpos": 22, "trial_type": "single-audio", "trial_index": 139, "time_elapsed": 846248, "internal_node_id": "0.0-103.0"}}, {"uniqueid": "MTK0918:38F71OA9GU3SGM791L5NXZEMBWTFMX", "current_trial": 140, "dateTime": 1512881974486, "trialdata": {"rt": -1000, "stimulus": "/static/audio/wordpool/GYMNAST.wav", "key_press": -1, "type": "PRES_AUD", "word": "gymnast", "wordID": 674, "conditions": [24, 1600, "a", 12000], "trial": 3, "serialpos": 23, "trial_type": "single-audio", "trial_index": 140, "time_elapsed": 848777, "internal_node_id": "0.0-104.0"}}, {"uniqueid": "MTK0918:38F71OA9GU3SGM791L5NXZEMBWTFMX", "current_trial": 141, "dateTime": 1512881975858, "trialdata": {"rt": -1, "stimulus": "", "key_press": -1, "type": "PRE_RECALL_DELAY", "trial_type": "single-stim", "trial_index": 141, "time_elapsed": 850149, "internal_node_id": "0.0-105.0-0.0"}}, {"uniqueid": "MTK0918:38F71OA9GU3SGM791L5NXZEMBWTFMX", "current_trial": 142, "dateTime": 1512881976359, "trialdata": {"rt": -1000, "stimulus": "/static/audio/400Hz.wav", "key_press": -1, "type": "PRE_RECALL_ALERT", "trial_type": "single-audio", "trial_index": 142, "time_elapsed": 850650, "internal_node_id": "0.0-106.0"}}, {"uniqueid": "MTK0918:38F71OA9GU3SGM791L5NXZEMBWTFMX", "current_trial": 143, "dateTime": 1512882036361, "trialdata": {"rt": [4183, 6719, 8463, 9991, 12735, 15103, 17191], "recwords": ["cigar", "oyster", "clam", "drug", "gymnast", "police", "girl"], "type": "FREE_RECALL", "conditions": [24, 1600, "a", 12000], "trial": 3, "trial_type": "free-recall", "trial_index": 143, "time_elapsed": 910651, "internal_node_id": "0.0-107.0-0.0"}}, {"uniqueid": "MTK0918:38F71OA9GU3SGM791L5NXZEMBWTFMX", "current_trial": 144, "dateTime": 1512884781258, "trialdata": {"rt": 2742896, "key_press": 32, "type": "INSTRUCTIONS", "trial_type": "text", "trial_index": 144, "time_elapsed": 3655549, "internal_node_id": "0.0-108.0"}}, {"uniqueid": "MTK0918:38F71OA9GU3SGM791L5NXZEMBWTFMX", "current_trial": 145, "dateTime": 1512884807260, "trialdata": {"rt": [], "responses": [], "num1": [3], "num2": [7], "num3": [2], "type": "DISTRACTOR", "conditions": [24, 1600, "a", 24000], "trial": 4, "trial_type": "math-distractor", "trial_index": 145, "time_elapsed": 3681551, "internal_node_id": "0.0-109.0"}}, {"uniqueid": "MTK0918:38F71OA9GU3SGM791L5NXZEMBWTFMX", "current_trial": 146, "dateTime": 1512884810264, "trialdata": {"rt": -1, "stimulus": "<p id=\"stim\">10</p>", "key_press": -1, "trial_type": "single-stim", "trial_index": 146, "time_elapsed": 3684555, "internal_node_id": "0.0-110.0-0.0"}}, {"uniqueid": "MTK0918:38F71OA9GU3SGM791L5NXZEMBWTFMX", "current_trial": 147, "dateTime": 1512884811265, "trialdata": {"rt": -1, "stimulus": "<p id=\"stim\">9</p>", "key_press": -1, "trial_type": "single-stim", "trial_index": 147, "time_elapsed": 3685556, "internal_node_id": "0.0-110.0-1.0"}}, {"uniqueid": "MTK0918:38F71OA9GU3SGM791L5NXZEMBWTFMX", "current_trial": 148, "dateTime": 1512884812265, "trialdata": {"rt": -1, "stimulus": "<p id=\"stim\">8</p>", "key_press": -1, "trial_type": "single-stim", "trial_index": 148, "time_elapsed": 3686556, "internal_node_id": "0.0-110.0-2.0"}}, {"uniqueid": "MTK0918:38F71OA9GU3SGM791L5NXZEMBWTFMX", "current_trial": 149, "dateTime": 1512884813266, "trialdata": {"rt": -1, "stimulus": "<p id=\"stim\">7</p>", "key_press": -1, "trial_type": "single-stim", "trial_index": 149, "time_elapsed": 3687557, "internal_node_id": "0.0-110.0-3.0"}}, {"uniqueid": "MTK0918:38F71OA9GU3SGM791L5NXZEMBWTFMX", "current_trial": 150, "dateTime": 1512884814267, "trialdata": {"rt": -1, "stimulus": "<p id=\"stim\">6</p>", "key_press": -1, "trial_type": "single-stim", "trial_index": 150, "time_elapsed": 3688558, "internal_node_id": "0.0-110.0-4.0"}}, {"uniqueid": "MTK0918:38F71OA9GU3SGM791L5NXZEMBWTFMX", "current_trial": 151, "dateTime": 1512884815268, "trialdata": {"rt": -1, "stimulus": "<p id=\"stim\">5</p>", "key_press": -1, "trial_type": "single-stim", "trial_index": 151, "time_elapsed": 3689559, "internal_node_id": "0.0-110.0-5.0"}}, {"uniqueid": "MTK0918:38F71OA9GU3SGM791L5NXZEMBWTFMX", "current_trial": 152, "dateTime": 1512884816270, "trialdata": {"rt": -1, "stimulus": "<p id=\"stim\">4</p>", "key_press": -1, "trial_type": "single-stim", "trial_index": 152, "time_elapsed": 3690560, "internal_node_id": "0.0-110.0-6.0"}}, {"uniqueid": "MTK0918:38F71OA9GU3SGM791L5NXZEMBWTFMX", "current_trial": 153, "dateTime": 1512884817271, "trialdata": {"rt": -1, "stimulus": "<p id=\"stim\">3</p>", "key_press": -1, "trial_type": "single-stim", "trial_index": 153, "time_elapsed": 3691562, "internal_node_id": "0.0-110.0-7.0"}}, {"uniqueid": "MTK0918:38F71OA9GU3SGM791L5NXZEMBWTFMX", "current_trial": 154, "dateTime": 1512884818271, "trialdata": {"rt": -1, "stimulus": "<p id=\"stim\">2</p>", "key_press": -1, "trial_type": "single-stim", "trial_index": 154, "time_elapsed": 3692562, "internal_node_id": "0.0-110.0-8.0"}}, {"uniqueid": "MTK0918:38F71OA9GU3SGM791L5NXZEMBWTFMX", "current_trial": 155, "dateTime": 1512884819272, "trialdata": {"rt": -1, "stimulus": "<p id=\"stim\">1</p>", "key_press": -1, "trial_type": "single-stim", "trial_index": 155, "time_elapsed": 3693563, "internal_node_id": "0.0-110.0-9.0"}}, {"uniqueid": "MTK0918:38F71OA9GU3SGM791L5NXZEMBWTFMX", "current_trial": 156, "dateTime": 1512884820773, "trialdata": {"rt": -1, "stimulus": "<p id=\"stim\">+</p>", "key_press": -1, "type": "FIXATION", "trial_type": "single-stim", "trial_index": 156, "time_elapsed": 3695064, "internal_node_id": "0.0-111.0-0.0"}}, {"uniqueid": "MTK0918:38F71OA9GU3SGM791L5NXZEMBWTFMX", "current_trial": 157, "dateTime": 1512884823540, "trialdata": {"rt": -1000, "stimulus": "/static/audio/wordpool/DORM.wav", "key_press": -1, "type": "PRES_AUD", "word": "dorm", "wordID": 487, "conditions": [24, 1600, "a", 24000], "trial": 4, "serialpos": 0, "trial_type": "single-audio", "trial_index": 157, "time_elapsed": 3697831, "internal_node_id": "0.0-112.0"}}, {"uniqueid": "MTK0918:38F71OA9GU3SGM791L5NXZEMBWTFMX", "current_trial": 158, "dateTime": 1512884826159, "trialdata": {"rt": -1000, "stimulus": "/static/audio/wordpool/PATROL.wav", "key_press": -1, "type": "PRES_AUD", "word": "patrol", "wordID": 1026, "conditions": [24, 1600, "a", 24000], "trial": 4, "serialpos": 1, "trial_type": "single-audio", "trial_index": 158, "time_elapsed": 3700450, "internal_node_id": "0.0-113.0"}}, {"uniqueid": "MTK0918:38F71OA9GU3SGM791L5NXZEMBWTFMX", "current_trial": 159, "dateTime": 1512884828886, "trialdata": {"rt": -1000, "stimulus": "/static/audio/wordpool/CATTLE.wav", "key_press": -1, "type": "PRES_AUD", "word": "cattle", "wordID": 260, "conditions": [24, 1600, "a", 24000], "trial": 4, "serialpos": 2, "trial_type": "single-audio", "trial_index": 159, "time_elapsed": 3703177, "internal_node_id": "0.0-114.0"}}, {"uniqueid": "MTK0918:38F71OA9GU3SGM791L5NXZEMBWTFMX", "current_trial": 160, "dateTime": 1512884831667, "trialdata": {"rt": -1000, "stimulus": "/static/audio/wordpool/SAUSAGE.wav", "key_press": -1, "type": "PRES_AUD", "word": "sausage", "wordID": 1237, "conditions": [24, 1600, "a", 24000], "trial": 4, "serialpos": 3, "trial_type": "single-audio", "trial_index": 160, "time_elapsed": 3705958, "internal_node_id": "0.0-115.0"}}, {"uniqueid": "MTK0918:38F71OA9GU3SGM791L5NXZEMBWTFMX", "current_trial": 161, "dateTime": 1512884834112, "trialdata": {"rt": -1000, "stimulus": "/static/audio/wordpool/ARM.wav", "key_press": -1, "type": "PRES_AUD", "word": "arm", "wordID": 37, "conditions": [24, 1600, "a", 24000], "trial": 4, "serialpos": 4, "trial_type": "single-audio", "trial_index": 161, "time_elapsed": 3708402, "internal_node_id": "0.0-116.0"}}, {"uniqueid": "MTK0918:38F71OA9GU3SGM791L5NXZEMBWTFMX", "current_trial": 162, "dateTime": 1512884836798, "trialdata": {"rt": -1000, "stimulus": "/static/audio/wordpool/SWORD.wav", "key_press": -1, "type": "PRES_AUD", "word": "sword", "wordID": 1422, "conditions": [24, 1600, "a", 24000], "trial": 4, "serialpos": 5, "trial_type": "single-audio", "trial_index": 162, "time_elapsed": 3711089, "internal_node_id": "0.0-117.0"}}, {"uniqueid": "MTK0918:38F71OA9GU3SGM791L5NXZEMBWTFMX", "current_trial": 163, "dateTime": 1512884839469, "trialdata": {"rt": -1000, "stimulus": "/static/audio/wordpool/FLASHLIGHT.wav", "key_press": -1, "type": "PRES_AUD", "word": "flashlight", "wordID": 574, "conditions": [24, 1600, "a", 24000], "trial": 4, "serialpos": 6, "trial_type": "single-audio", "trial_index": 163, "time_elapsed": 3713760, "internal_node_id": "0.0-118.0"}}, {"uniqueid": "MTK0918:38F71OA9GU3SGM791L5NXZEMBWTFMX", "current_trial": 164, "dateTime": 1512884841952, "trialdata": {"rt": -1000, "stimulus": "/static/audio/wordpool/STUDENT.wav", "key_press": -1, "type": "PRES_AUD", "word": "student", "wordID": 1394, "conditions": [24, 1600, "a", 24000], "trial": 4, "serialpos": 7, "trial_type": "single-audio", "trial_index": 164, "time_elapsed": 3716243, "internal_node_id": "0.0-119.0"}}, {"uniqueid": "MTK0918:38F71OA9GU3SGM791L5NXZEMBWTFMX", "current_trial": 165, "dateTime": 1512884844476, "trialdata": {"rt": -1000, "stimulus": "/static/audio/wordpool/GROUND.wav", "key_press": -1, "type": "PRES_AUD", "word": "ground", "wordID": 665, "conditions": [24, 1600, "a", 24000], "trial": 4, "serialpos": 8, "trial_type": "single-audio", "trial_index": 165, "time_elapsed": 3718767, "internal_node_id": "0.0-120.0"}}, {"uniqueid": "MTK0918:38F71OA9GU3SGM791L5NXZEMBWTFMX", "current_trial": 166, "dateTime": 1512884847220, "trialdata": {"rt": -1000, "stimulus": "/static/audio/wordpool/FLUTE.wav", "key_press": -1, "type": "PRES_AUD", "word": "flute", "wordID": 584, "conditions": [24, 1600, "a", 24000], "trial": 4, "serialpos": 9, "trial_type": "single-audio", "trial_index": 166, "time_elapsed": 3721511, "internal_node_id": "0.0-121.0"}}, {"uniqueid": "MTK0918:38F71OA9GU3SGM791L5NXZEMBWTFMX", "current_trial": 167, "dateTime": 1512884849956, "trialdata": {"rt": -1000, "stimulus": "/static/audio/wordpool/FIDDLE.wav", "key_press": -1, "type": "PRES_AUD", "word": "fiddle", "wordID": 560, "conditions": [24, 1600, "a", 24000], "trial": 4, "serialpos": 10, "trial_type": "single-audio", "trial_index": 167, "time_elapsed": 3724247, "internal_node_id": "0.0-122.0"}}, {"uniqueid": "MTK0918:38F71OA9GU3SGM791L5NXZEMBWTFMX", "current_trial": 168, "dateTime": 1512884852500, "trialdata": {"rt": -1000, "stimulus": "/static/audio/wordpool/SUPPER.wav", "key_press": -1, "type": "PRES_AUD", "word": "supper", "wordID": 1410, "conditions": [24, 1600, "a", 24000], "trial": 4, "serialpos": 11, "trial_type": "single-audio", "trial_index": 168, "time_elapsed": 3726791, "internal_node_id": "0.0-123.0"}}, {"uniqueid": "MTK0918:38F71OA9GU3SGM791L5NXZEMBWTFMX", "current_trial": 169, "dateTime": 1512884855112, "trialdata": {"rt": -1000, "stimulus": "/static/audio/wordpool/MISSILE.wav", "key_press": -1, "type": "PRES_AUD", "word": "missile", "wordID": 899, "conditions": [24, 1600, "a", 24000], "trial": 4, "serialpos": 12, "trial_type": "single-audio", "trial_index": 169, "time_elapsed": 3729403, "internal_node_id": "0.0-124.0"}}, {"uniqueid": "MTK0918:38F71OA9GU3SGM791L5NXZEMBWTFMX", "current_trial": 170, "dateTime": 1512884857553, "trialdata": {"rt": -1000, "stimulus": "/static/audio/wordpool/SPARROW.wav", "key_press": -1, "type": "PRES_AUD", "word": "sparrow", "wordID": 1346, "conditions": [24, 1600, "a", 24000], "trial": 4, "serialpos": 13, "trial_type": "single-audio", "trial_index": 170, "time_elapsed": 3731844, "internal_node_id": "0.0-125.0"}}, {"uniqueid": "MTK0918:38F71OA9GU3SGM791L5NXZEMBWTFMX", "current_trial": 171, "dateTime": 1512884860283, "trialdata": {"rt": -1000, "stimulus": "/static/audio/wordpool/GOBLIN.wav", "key_press": -1, "type": "PRES_AUD", "word": "goblin", "wordID": 644, "conditions": [24, 1600, "a", 24000], "trial": 4, "serialpos": 14, "trial_type": "single-audio", "trial_index": 171, "time_elapsed": 3734573, "internal_node_id": "0.0-126.0"}}, {"uniqueid": "MTK0918:38F71OA9GU3SGM791L5NXZEMBWTFMX", "current_trial": 172, "dateTime": 1512884862978, "trialdata": {"rt": -1000, "stimulus": "/static/audio/wordpool/FRUIT.wav", "key_press": -1, "type": "PRES_AUD", "word": "fruit", "wordID": 609, "conditions": [24, 1600, "a", 24000], "trial": 4, "serialpos": 15, "trial_type": "single-audio", "trial_index": 172, "time_elapsed": 3737269, "internal_node_id": "0.0-127.0"}}, {"uniqueid": "MTK0918:38F71OA9GU3SGM791L5NXZEMBWTFMX", "current_trial": 173, "dateTime": 1512884865448, "trialdata": {"rt": -1000, "stimulus": "/static/audio/wordpool/WHISTLE.wav", "key_press": -1, "type": "PRES_AUD", "word": "whistle", "wordID": 1605, "conditions": [24, 1600, "a", 24000], "trial": 4, "serialpos": 16, "trial_type": "single-audio", "trial_index": 173, "time_elapsed": 3739739, "internal_node_id": "0.0-128.0"}}, {"uniqueid": "MTK0918:38F71OA9GU3SGM791L5NXZEMBWTFMX", "current_trial": 174, "dateTime": 1512884867922, "trialdata": {"rt": -1000, "stimulus": "/static/audio/wordpool/CAPTIVE.wav", "key_press": -1, "type": "PRES_AUD", "word": "captive", "wordID": 239, "conditions": [24, 1600, "a", 24000], "trial": 4, "serialpos": 17, "trial_type": "single-audio", "trial_index": 174, "time_elapsed": 3742213, "internal_node_id": "0.0-129.0"}}, {"uniqueid": "MTK0918:38F71OA9GU3SGM791L5NXZEMBWTFMX", "current_trial": 175, "dateTime": 1512884870721, "trialdata": {"rt": -1000, "stimulus": "/static/audio/wordpool/BUG.wav", "key_press": -1, "type": "PRES_AUD", "word": "bug", "wordID": 186, "conditions": [24, 1600, "a", 24000], "trial": 4, "serialpos": 18, "trial_type": "single-audio", "trial_index": 175, "time_elapsed": 3745012, "internal_node_id": "0.0-130.0"}}, {"uniqueid": "MTK0918:38F71OA9GU3SGM791L5NXZEMBWTFMX", "current_trial": 176, "dateTime": 1512884873490, "trialdata": {"rt": -1000, "stimulus": "/static/audio/wordpool/SEAL.wav", "key_press": -1, "type": "PRES_AUD", "word": "seal", "wordID": 1261, "conditions": [24, 1600, "a", 24000], "trial": 4, "serialpos": 19, "trial_type": "single-audio", "trial_index": 176, "time_elapsed": 3747781, "internal_node_id": "0.0-131.0"}}, {"uniqueid": "MTK0918:38F71OA9GU3SGM791L5NXZEMBWTFMX", "current_trial": 177, "dateTime": 1512884876264, "trialdata": {"rt": -1000, "stimulus": "/static/audio/wordpool/TUTU.wav", "key_press": -1, "type": "PRES_AUD", "word": "tutu", "wordID": 1523, "conditions": [24, 1600, "a", 24000], "trial": 4, "serialpos": 20, "trial_type": "single-audio", "trial_index": 177, "time_elapsed": 3750555, "internal_node_id": "0.0-132.0"}}, {"uniqueid": "MTK0918:38F71OA9GU3SGM791L5NXZEMBWTFMX", "current_trial": 178, "dateTime": 1512884878926, "trialdata": {"rt": -1000, "stimulus": "/static/audio/wordpool/DRESS.wav", "key_press": -1, "type": "PRES_AUD", "word": "dress", "wordID": 494, "conditions": [24, 1600, "a", 24000], "trial": 4, "serialpos": 21, "trial_type": "single-audio", "trial_index": 178, "time_elapsed": 3753217, "internal_node_id": "0.0-133.0"}}, {"uniqueid": "MTK0918:38F71OA9GU3SGM791L5NXZEMBWTFMX", "current_trial": 179, "dateTime": 1512884881327, "trialdata": {"rt": -1000, "stimulus": "/static/audio/wordpool/GAVEL.wav", "key_press": -1, "type": "PRES_AUD", "word": "gavel", "wordID": 626, "conditions": [24, 1600, "a", 24000], "trial": 4, "serialpos": 22, "trial_type": "single-audio", "trial_index": 179, "time_elapsed": 3755618, "internal_node_id": "0.0-134.0"}}, {"uniqueid": "MTK0918:38F71OA9GU3SGM791L5NXZEMBWTFMX", "current_trial": 180, "dateTime": 1512884883864, "trialdata": {"rt": -1000, "stimulus": "/static/audio/wordpool/ROCKET.wav", "key_press": -1, "type": "PRES_AUD", "word": "rocket", "wordID": 1201, "conditions": [24, 1600, "a", 24000], "trial": 4, "serialpos": 23, "trial_type": "single-audio", "trial_index": 180, "time_elapsed": 3758155, "internal_node_id": "0.0-135.0"}}, {"uniqueid": "MTK0918:38F71OA9GU3SGM791L5NXZEMBWTFMX", "current_trial": 181, "dateTime": 1512884885198, "trialdata": {"rt": -1, "stimulus": "", "key_press": -1, "type": "PRE_RECALL_DELAY", "trial_type": "single-stim", "trial_index": 181, "time_elapsed": 3759489, "internal_node_id": "0.0-136.0-0.0"}}, {"uniqueid": "MTK0918:38F71OA9GU3SGM791L5NXZEMBWTFMX", "current_trial": 182, "dateTime": 1512884885700, "trialdata": {"rt": -1000, "stimulus": "/static/audio/400Hz.wav", "key_press": -1, "type": "PRE_RECALL_ALERT", "trial_type": "single-audio", "trial_index": 182, "time_elapsed": 3759990, "internal_node_id": "0.0-137.0"}}, {"uniqueid": "MTK0918:38F71OA9GU3SGM791L5NXZEMBWTFMX", "current_trial": 183, "dateTime": 1512884945703, "trialdata": {"rt": [], "recwords": [], "type": "FREE_RECALL", "conditions": [24, 1600, "a", 24000], "trial": 4, "trial_type": "free-recall", "trial_index": 183, "time_elapsed": 3819993, "internal_node_id": "0.0-138.0-0.0"}}], "questiondata": {}, "eventdata": [{"eventtype": "initialized", "value": null, "timestamp": 1512881095015, "interval": 0}, {"eventtype": "window_resize", "value": [836, 859], "timestamp": 1512881095015, "interval": 0}, {"eventtype": "focus", "value": "off", "timestamp": 1512881104084, "interval": 9069}, {"eventtype": "focus", "value": "on", "timestamp": 1512881335408, "interval": 231324}, {"eventtype": "focus", "value": "off", "timestamp": 1512881415627, "interval": 80219}, {"eventtype": "focus", "value": "on", "timestamp": 1512881446684, "interval": 31057}, {"eventtype": "focus", "value": "off", "timestamp": 1512881492139, "interval": 45455}, {"eventtype": "focus", "value": "on", "timestamp": 1512881494389, "interval": 2250}, {"eventtype": "focus", "value": "off", "timestamp": 1512881504355, "interval": 9966}, {"eventtype": "focus", "value": "on", "timestamp": 1512881520075, "interval": 15720}, {"eventtype": "focus", "value": "off", "timestamp": 1512881521617, "interval": 1542}, {"eventtype": "focus", "value": "on", "timestamp": 1512881541427, "interval": 19810}, {"eventtype": "window_resize", "value": [836, 857], "timestamp": 1512881578955, "interval": 37528}, {"eventtype": "focus", "value": "off", "timestamp": 1512881582632, "interval": 3677}, {"eventtype": "focus", "value": "on", "timestamp": 1512881598796, "interval": 16164}, {"eventtype": "focus", "value": "off", "timestamp": 1512881738576, "interval": 139780}, {"eventtype": "focus", "value": "on", "timestamp": 1512881743273, "interval": 4697}, {"eventtype": "focus", "value": "off", "timestamp": 1512881778416, "interval": 35143}, {"eventtype": "focus", "value": "on", "timestamp": 1512881806609, "interval": 28193}, {"eventtype": "focus", "value": "off", "timestamp": 1512881911447, "interval": 104838}, {"eventtype": "focus", "value": "on", "timestamp": 1512881978480, "interval": 67033}], "useragent": "Mozilla/5.0 (Windows NT 10.0; Win64; x64) AppleWebKit/537.36 (KHTML, like Gecko) Chrome/63.0.3239.84 Safari/537.36", "mode": "live", "status": "user data saved"}