{"condition": 0, "counterbalance": 1923, "assignmentId": "3YZ8UPK3VUT4QIS8JL68G3ADR3ICUL", "workerId": "MTK0780", "hitId": "3XABXM4AJ1C8Z2XKVY1WFWLLILL8QX", "currenttrial": 112, "bonus": 0, "data": [{"uniqueid": "MTK0780:3YZ8UPK3VUT4QIS8JL68G3ADR3ICUL", "current_trial": 0, "dateTime": 1512752240721, "trialdata": {"rt": 3079, "key_press": 32, "type": "INSTRUCTIONS", "trial_type": "text", "trial_index": 0, "time_elapsed": 3084, "internal_node_id": "0.0-0.0"}}, {"uniqueid": "MTK0780:3YZ8UPK3VUT4QIS8JL68G3ADR3ICUL", "current_trial": 1, "dateTime": 1512752263162, "trialdata": {"rt": 22437, "key_press": 13, "type": "INSTRUCTIONS", "trial_type": "text", "trial_index": 1, "time_elapsed": 25526, "internal_node_id": "0.0-1.0"}}, {"uniqueid": "MTK0780:3YZ8UPK3VUT4QIS8JL68G3ADR3ICUL", "current_trial": 2, "dateTime": 1512752297101, "trialdata": {"rt": [33934], "responses": ["ocean"], "type": "AUDIO_TEST", "trial_type": "audio-test", "trial_index": 2, "time_elapsed": 59465, "internal_node_id": "0.0-2.0"}}, {"uniqueid": "MTK0780:3YZ8UPK3VUT4QIS8JL68G3ADR3ICUL", "current_trial": 3, "dateTime": 1512752305791, "trialdata": {"rt": [8685], "responses": ["crystal"], "type": "AUDIO_TEST", "trial_type": "audio-test", "trial_index": 3, "time_elapsed": 68154, "internal_node_id": "0.0-3.0"}}, {"uniqueid": "MTK0780:3YZ8UPK3VUT4QIS8JL68G3ADR3ICUL", "current_trial": 4, "dateTime": 1512752332328, "trialdata": {"rt": [26534], "responses": ["spice"], "type": "AUDIO_TEST", "trial_type": "audio-test", "trial_index": 4, "time_elapsed": 94692, "internal_node_id": "0.0-4.0"}}, {"uniqueid": "MTK0780:3YZ8UPK3VUT4QIS8JL68G3ADR3ICUL", "current_trial": 5, "dateTime": 1512752367642, "trialdata": {"rt": 34555, "responses": "{\"Q0\":\"11:45pm\",\"Q1\":\"6am\",\"Q2\":\"5\"}", "type": "SLEEP_SURVEY", "trial_type": "survey-text", "trial_index": 5, "time_elapsed": 130006, "internal_node_id": "0.0-5.0"}}, {"uniqueid": "MTK0780:3YZ8UPK3VUT4QIS8JL68G3ADR3ICUL", "current_trial": 6, "dateTime": 1512752436478, "trialdata": {"rt": 67830, "key_press": 20, "type": "INSTRUCTIONS", "trial_type": "text", "trial_index": 6, "time_elapsed": 198842, "internal_node_id": "0.0-6.0"}}, {"uniqueid": "MTK0780:3YZ8UPK3VUT4QIS8JL68G3ADR3ICUL", "current_trial": 7, "dateTime": 1512752463089, "trialdata": {"rt": 26103, "key_press": 13, "type": "INSTRUCTIONS", "trial_type": "text", "trial_index": 7, "time_elapsed": 225453, "internal_node_id": "0.0-7.0"}}, {"uniqueid": "MTK0780:3YZ8UPK3VUT4QIS8JL68G3ADR3ICUL", "current_trial": 8, "dateTime": 1512752649434, "trialdata": {"rt": 185843, "key_press": 13, "type": "INSTRUCTIONS", "trial_type": "text", "trial_index": 8, "time_elapsed": 411798, "internal_node_id": "0.0-8.0"}}, {"uniqueid": "MTK0780:3YZ8UPK3VUT4QIS8JL68G3ADR3ICUL", "current_trial": 9, "dateTime": 1512752668489, "trialdata": {"rt": [5518, 10655, 14546], "responses": ["12", "9", "12"], "num1": [9, 3, 6, 7], "num2": [2, 2, 3, 6], "num3": [1, 4, 3, 5], "type": "DISTRACTOR", "conditions": [18, 1200, "a", 18000], "trial": 0, "trial_type": "math-distractor", "trial_index": 9, "time_elapsed": 430853, "internal_node_id": "0.0-9.0"}}, {"uniqueid": "MTK0780:3YZ8UPK3VUT4QIS8JL68G3ADR3ICUL", "current_trial": 10, "dateTime": 1512752671494, "trialdata": {"rt": -1, "stimulus": "<p id=\"stim\">10</p>", "key_press": -1, "trial_type": "single-stim", "trial_index": 10, "time_elapsed": 433858, "internal_node_id": "0.0-10.0-0.0"}}, {"uniqueid": "MTK0780:3YZ8UPK3VUT4QIS8JL68G3ADR3ICUL", "current_trial": 11, "dateTime": 1512752672498, "trialdata": {"rt": -1, "stimulus": "<p id=\"stim\">9</p>", "key_press": -1, "trial_type": "single-stim", "trial_index": 11, "time_elapsed": 434862, "internal_node_id": "0.0-10.0-1.0"}}, {"uniqueid": "MTK0780:3YZ8UPK3VUT4QIS8JL68G3ADR3ICUL", "current_trial": 12, "dateTime": 1512752673499, "trialdata": {"rt": -1, "stimulus": "<p id=\"stim\">8</p>", "key_press": -1, "trial_type": "single-stim", "trial_index": 12, "time_elapsed": 435863, "internal_node_id": "0.0-10.0-2.0"}}, {"uniqueid": "MTK0780:3YZ8UPK3VUT4QIS8JL68G3ADR3ICUL", "current_trial": 13, "dateTime": 1512752674502, "trialdata": {"rt": -1, "stimulus": "<p id=\"stim\">7</p>", "key_press": -1, "trial_type": "single-stim", "trial_index": 13, "time_elapsed": 436866, "internal_node_id": "0.0-10.0-3.0"}}, {"uniqueid": "MTK0780:3YZ8UPK3VUT4QIS8JL68G3ADR3ICUL", "current_trial": 14, "dateTime": 1512752675504, "trialdata": {"rt": -1, "stimulus": "<p id=\"stim\">6</p>", "key_press": -1, "trial_type": "single-stim", "trial_index": 14, "time_elapsed": 437868, "internal_node_id": "0.0-10.0-4.0"}}, {"uniqueid": "MTK0780:3YZ8UPK3VUT4QIS8JL68G3ADR3ICUL", "current_trial": 15, "dateTime": 1512752676507, "trialdata": {"rt": -1, "stimulus": "<p id=\"stim\">5</p>", "key_press": -1, "trial_type": "single-stim", "trial_index": 15, "time_elapsed": 438871, "internal_node_id": "0.0-10.0-5.0"}}, {"uniqueid": "MTK0780:3YZ8UPK3VUT4QIS8JL68G3ADR3ICUL", "current_trial": 16, "dateTime": 1512752677512, "trialdata": {"rt": -1, "stimulus": "<p id=\"stim\">4</p>", "key_press": -1, "trial_type": "single-stim", "trial_index": 16, "time_elapsed": 439876, "internal_node_id": "0.0-10.0-6.0"}}, {"uniqueid": "MTK0780:3YZ8UPK3VUT4QIS8JL68G3ADR3ICUL", "current_trial": 17, "dateTime": 1512752678513, "trialdata": {"rt": -1, "stimulus": "<p id=\"stim\">3</p>", "key_press": -1, "trial_type": "single-stim", "trial_index": 17, "time_elapsed": 440877, "internal_node_id": "0.0-10.0-7.0"}}, {"uniqueid": "MTK0780:3YZ8UPK3VUT4QIS8JL68G3ADR3ICUL", "current_trial": 18, "dateTime": 1512752679517, "trialdata": {"rt": -1, "stimulus": "<p id=\"stim\">2</p>", "key_press": -1, "trial_type": "single-stim", "trial_index": 18, "time_elapsed": 441881, "internal_node_id": "0.0-10.0-8.0"}}, {"uniqueid": "MTK0780:3YZ8UPK3VUT4QIS8JL68G3ADR3ICUL", "current_trial": 19, "dateTime": 1512752680522, "trialdata": {"rt": -1, "stimulus": "<p id=\"stim\">1</p>", "key_press": -1, "trial_type": "single-stim", "trial_index": 19, "time_elapsed": 442886, "internal_node_id": "0.0-10.0-9.0"}}, {"uniqueid": "MTK0780:3YZ8UPK3VUT4QIS8JL68G3ADR3ICUL", "current_trial": 20, "dateTime": 1512752682024, "trialdata": {"rt": -1, "stimulus": "<p id=\"stim\">+</p>", "key_press": -1, "type": "FIXATION", "trial_type": "single-stim", "trial_index": 20, "time_elapsed": 444388, "internal_node_id": "0.0-11.0-0.0"}}, {"uniqueid": "MTK0780:3YZ8UPK3VUT4QIS8JL68G3ADR3ICUL", "current_trial": 21, "dateTime": 1512752684049, "trialdata": {"rt": -1000, "stimulus": "/static/audio/wordpool/KETCHUP.wav", "key_press": -1, "type": "PRES_AUD", "word": "ketchup", "wordID": 770, "conditions": [18, 1200, "a", 18000], "trial": 0, "serialpos": 0, "trial_type": "single-audio", "trial_index": 21, "time_elapsed": 446413, "internal_node_id": "0.0-12.0"}}, {"uniqueid": "MTK0780:3YZ8UPK3VUT4QIS8JL68G3ADR3ICUL", "current_trial": 22, "dateTime": 1512752686154, "trialdata": {"rt": -1000, "stimulus": "/static/audio/wordpool/JELLY.wav", "key_press": -1, "type": "PRES_AUD", "word": "jelly", "wordID": 754, "conditions": [18, 1200, "a", 18000], "trial": 0, "serialpos": 1, "trial_type": "single-audio", "trial_index": 22, "time_elapsed": 448518, "internal_node_id": "0.0-13.0"}}, {"uniqueid": "MTK0780:3YZ8UPK3VUT4QIS8JL68G3ADR3ICUL", "current_trial": 23, "dateTime": 1512752688175, "trialdata": {"rt": -1000, "stimulus": "/static/audio/wordpool/SCARECROW.wav", "key_press": -1, "type": "PRES_AUD", "word": "scarecrow", "wordID": 1244, "conditions": [18, 1200, "a", 18000], "trial": 0, "serialpos": 2, "trial_type": "single-audio", "trial_index": 23, "time_elapsed": 450539, "internal_node_id": "0.0-14.0"}}, {"uniqueid": "MTK0780:3YZ8UPK3VUT4QIS8JL68G3ADR3ICUL", "current_trial": 24, "dateTime": 1512752690356, "trialdata": {"rt": -1000, "stimulus": "/static/audio/wordpool/LOFT.wav", "key_press": -1, "type": "PRES_AUD", "word": "loft", "wordID": 839, "conditions": [18, 1200, "a", 18000], "trial": 0, "serialpos": 3, "trial_type": "single-audio", "trial_index": 24, "time_elapsed": 452720, "internal_node_id": "0.0-15.0"}}, {"uniqueid": "MTK0780:3YZ8UPK3VUT4QIS8JL68G3ADR3ICUL", "current_trial": 25, "dateTime": 1512752692475, "trialdata": {"rt": -1000, "stimulus": "/static/audio/wordpool/CAMEL.wav", "key_press": -1, "type": "PRES_AUD", "word": "camel", "wordID": 222, "conditions": [18, 1200, "a", 18000], "trial": 0, "serialpos": 4, "trial_type": "single-audio", "trial_index": 25, "time_elapsed": 454839, "internal_node_id": "0.0-16.0"}}, {"uniqueid": "MTK0780:3YZ8UPK3VUT4QIS8JL68G3ADR3ICUL", "current_trial": 26, "dateTime": 1512752694618, "trialdata": {"rt": -1000, "stimulus": "/static/audio/wordpool/BURGLAR.wav", "key_press": -1, "type": "PRES_AUD", "word": "burglar", "wordID": 199, "conditions": [18, 1200, "a", 18000], "trial": 0, "serialpos": 5, "trial_type": "single-audio", "trial_index": 26, "time_elapsed": 456982, "internal_node_id": "0.0-17.0"}}, {"uniqueid": "MTK0780:3YZ8UPK3VUT4QIS8JL68G3ADR3ICUL", "current_trial": 27, "dateTime": 1512752696908, "trialdata": {"rt": -1000, "stimulus": "/static/audio/wordpool/APRON.wav", "key_press": -1, "type": "PRES_AUD", "word": "apron", "wordID": 34, "conditions": [18, 1200, "a", 18000], "trial": 0, "serialpos": 6, "trial_type": "single-audio", "trial_index": 27, "time_elapsed": 459272, "internal_node_id": "0.0-18.0"}}, {"uniqueid": "MTK0780:3YZ8UPK3VUT4QIS8JL68G3ADR3ICUL", "current_trial": 28, "dateTime": 1512752699116, "trialdata": {"rt": -1000, "stimulus": "/static/audio/wordpool/LUMBER.wav", "key_press": -1, "type": "PRES_AUD", "word": "lumber", "wordID": 847, "conditions": [18, 1200, "a", 18000], "trial": 0, "serialpos": 7, "trial_type": "single-audio", "trial_index": 28, "time_elapsed": 461480, "internal_node_id": "0.0-19.0"}}, {"uniqueid": "MTK0780:3YZ8UPK3VUT4QIS8JL68G3ADR3ICUL", "current_trial": 29, "dateTime": 1512752701363, "trialdata": {"rt": -1000, "stimulus": "/static/audio/wordpool/NOVEL.wav", "key_press": -1, "type": "PRES_AUD", "word": "novel", "wordID": 959, "conditions": [18, 1200, "a", 18000], "trial": 0, "serialpos": 8, "trial_type": "single-audio", "trial_index": 29, "time_elapsed": 463727, "internal_node_id": "0.0-20.0"}}, {"uniqueid": "MTK0780:3YZ8UPK3VUT4QIS8JL68G3ADR3ICUL", "current_trial": 30, "dateTime": 1512752703457, "trialdata": {"rt": -1000, "stimulus": "/static/audio/wordpool/WASHER.wav", "key_press": -1, "type": "PRES_AUD", "word": "washer", "wordID": 1591, "conditions": [18, 1200, "a", 18000], "trial": 0, "serialpos": 9, "trial_type": "single-audio", "trial_index": 30, "time_elapsed": 465821, "internal_node_id": "0.0-21.0"}}, {"uniqueid": "MTK0780:3YZ8UPK3VUT4QIS8JL68G3ADR3ICUL", "current_trial": 31, "dateTime": 1512752705703, "trialdata": {"rt": -1000, "stimulus": "/static/audio/wordpool/AIRPORT.wav", "key_press": -1, "type": "PRES_AUD", "word": "airport", "wordID": 12, "conditions": [18, 1200, "a", 18000], "trial": 0, "serialpos": 10, "trial_type": "single-audio", "trial_index": 31, "time_elapsed": 468066, "internal_node_id": "0.0-22.0"}}, {"uniqueid": "MTK0780:3YZ8UPK3VUT4QIS8JL68G3ADR3ICUL", "current_trial": 32, "dateTime": 1512752707981, "trialdata": {"rt": -1000, "stimulus": "/static/audio/wordpool/COLLEGE.wav", "key_press": -1, "type": "PRES_AUD", "word": "college", "wordID": 345, "conditions": [18, 1200, "a", 18000], "trial": 0, "serialpos": 11, "trial_type": "single-audio", "trial_index": 32, "time_elapsed": 470345, "internal_node_id": "0.0-23.0"}}, {"uniqueid": "MTK0780:3YZ8UPK3VUT4QIS8JL68G3ADR3ICUL", "current_trial": 33, "dateTime": 1512752710021, "trialdata": {"rt": -1000, "stimulus": "/static/audio/wordpool/COMET.wav", "key_press": -1, "type": "PRES_AUD", "word": "comet", "wordID": 352, "conditions": [18, 1200, "a", 18000], "trial": 0, "serialpos": 12, "trial_type": "single-audio", "trial_index": 33, "time_elapsed": 472385, "internal_node_id": "0.0-24.0"}}, {"uniqueid": "MTK0780:3YZ8UPK3VUT4QIS8JL68G3ADR3ICUL", "current_trial": 34, "dateTime": 1512752712358, "trialdata": {"rt": -1000, "stimulus": "/static/audio/wordpool/WHISKERS.wav", "key_press": -1, "type": "PRES_AUD", "word": "whiskers", "wordID": 1604, "conditions": [18, 1200, "a", 18000], "trial": 0, "serialpos": 13, "trial_type": "single-audio", "trial_index": 34, "time_elapsed": 474722, "internal_node_id": "0.0-25.0"}}, {"uniqueid": "MTK0780:3YZ8UPK3VUT4QIS8JL68G3ADR3ICUL", "current_trial": 35, "dateTime": 1512752714504, "trialdata": {"rt": -1000, "stimulus": "/static/audio/wordpool/PRIMATE.wav", "key_press": -1, "type": "PRES_AUD", "word": "primate", "wordID": 1122, "conditions": [18, 1200, "a", 18000], "trial": 0, "serialpos": 14, "trial_type": "single-audio", "trial_index": 35, "time_elapsed": 476868, "internal_node_id": "0.0-26.0"}}, {"uniqueid": "MTK0780:3YZ8UPK3VUT4QIS8JL68G3ADR3ICUL", "current_trial": 36, "dateTime": 1512752716753, "trialdata": {"rt": -1000, "stimulus": "/static/audio/wordpool/POLICE.wav", "key_press": -1, "type": "PRES_AUD", "word": "police", "wordID": 1097, "conditions": [18, 1200, "a", 18000], "trial": 0, "serialpos": 15, "trial_type": "single-audio", "trial_index": 36, "time_elapsed": 479116, "internal_node_id": "0.0-27.0"}}, {"uniqueid": "MTK0780:3YZ8UPK3VUT4QIS8JL68G3ADR3ICUL", "current_trial": 37, "dateTime": 1512752718909, "trialdata": {"rt": -1000, "stimulus": "/static/audio/wordpool/OMELET.wav", "key_press": -1, "type": "PRES_AUD", "word": "omelet", "wordID": 975, "conditions": [18, 1200, "a", 18000], "trial": 0, "serialpos": 16, "trial_type": "single-audio", "trial_index": 37, "time_elapsed": 481273, "internal_node_id": "0.0-28.0"}}, {"uniqueid": "MTK0780:3YZ8UPK3VUT4QIS8JL68G3ADR3ICUL", "current_trial": 38, "dateTime": 1512752720954, "trialdata": {"rt": -1000, "stimulus": "/static/audio/wordpool/NAPKIN.wav", "key_press": -1, "type": "PRES_AUD", "word": "napkin", "wordID": 936, "conditions": [18, 1200, "a", 18000], "trial": 0, "serialpos": 17, "trial_type": "single-audio", "trial_index": 38, "time_elapsed": 483318, "internal_node_id": "0.0-29.0"}}, {"uniqueid": "MTK0780:3YZ8UPK3VUT4QIS8JL68G3ADR3ICUL", "current_trial": 39, "dateTime": 1512752722227, "trialdata": {"rt": -1, "stimulus": "", "key_press": -1, "type": "PRE_RECALL_DELAY", "trial_type": "single-stim", "trial_index": 39, "time_elapsed": 484591, "internal_node_id": "0.0-30.0-0.0"}}, {"uniqueid": "MTK0780:3YZ8UPK3VUT4QIS8JL68G3ADR3ICUL", "current_trial": 40, "dateTime": 1512752722736, "trialdata": {"rt": -1000, "stimulus": "/static/audio/400Hz.wav", "key_press": -1, "type": "PRE_RECALL_ALERT", "trial_type": "single-audio", "trial_index": 40, "time_elapsed": 485100, "internal_node_id": "0.0-31.0"}}, {"uniqueid": "MTK0780:3YZ8UPK3VUT4QIS8JL68G3ADR3ICUL", "current_trial": 41, "dateTime": 1512752782744, "trialdata": {"rt": [7159, 9951, 13271, 22984, 31819, 42056, 45158], "recwords": ["ketchup", "jelly", "omelet", "release", "burgular", "army", ""], "type": "FREE_RECALL", "conditions": [18, 1200, "a", 18000], "trial": 0, "trial_type": "free-recall", "trial_index": 41, "time_elapsed": 545104, "internal_node_id": "0.0-32.0-0.0"}}, {"uniqueid": "MTK0780:3YZ8UPK3VUT4QIS8JL68G3ADR3ICUL", "current_trial": 42, "dateTime": 1512752821282, "trialdata": {"rt": 36537, "key_press": 13, "type": "INSTRUCTIONS", "trial_type": "text", "trial_index": 42, "time_elapsed": 583646, "internal_node_id": "0.0-33.0"}}, {"uniqueid": "MTK0780:3YZ8UPK3VUT4QIS8JL68G3ADR3ICUL", "current_trial": 43, "dateTime": 1512752841290, "trialdata": {"rt": [3975, 6237, 9162, 13420, 15911], "responses": ["10", "10", "7", "16", "5"], "num1": [2, 1, 1, 5, 1, 4], "num2": [2, 8, 4, 6, 1, 2], "num3": [6, 1, 2, 6, 3, 8], "type": "DISTRACTOR", "conditions": [18, 1200, "v", 18000], "trial": 1, "trial_type": "math-distractor", "trial_index": 43, "time_elapsed": 603654, "internal_node_id": "0.0-34.0"}}, {"uniqueid": "MTK0780:3YZ8UPK3VUT4QIS8JL68G3ADR3ICUL", "current_trial": 44, "dateTime": 1512752844294, "trialdata": {"rt": -1, "stimulus": "<p id=\"stim\">10</p>", "key_press": -1, "trial_type": "single-stim", "trial_index": 44, "time_elapsed": 606658, "internal_node_id": "0.0-35.0-0.0"}}, {"uniqueid": "MTK0780:3YZ8UPK3VUT4QIS8JL68G3ADR3ICUL", "current_trial": 45, "dateTime": 1512752845296, "trialdata": {"rt": -1, "stimulus": "<p id=\"stim\">9</p>", "key_press": -1, "trial_type": "single-stim", "trial_index": 45, "time_elapsed": 607660, "internal_node_id": "0.0-35.0-1.0"}}, {"uniqueid": "MTK0780:3YZ8UPK3VUT4QIS8JL68G3ADR3ICUL", "current_trial": 46, "dateTime": 1512752846298, "trialdata": {"rt": -1, "stimulus": "<p id=\"stim\">8</p>", "key_press": -1, "trial_type": "single-stim", "trial_index": 46, "time_elapsed": 608662, "internal_node_id": "0.0-35.0-2.0"}}, {"uniqueid": "MTK0780:3YZ8UPK3VUT4QIS8JL68G3ADR3ICUL", "current_trial": 47, "dateTime": 1512752847302, "trialdata": {"rt": -1, "stimulus": "<p id=\"stim\">7</p>", "key_press": -1, "trial_type": "single-stim", "trial_index": 47, "time_elapsed": 609666, "internal_node_id": "0.0-35.0-3.0"}}, {"uniqueid": "MTK0780:3YZ8UPK3VUT4QIS8JL68G3ADR3ICUL", "current_trial": 48, "dateTime": 1512752848304, "trialdata": {"rt": -1, "stimulus": "<p id=\"stim\">6</p>", "key_press": -1, "trial_type": "single-stim", "trial_index": 48, "time_elapsed": 610668, "internal_node_id": "0.0-35.0-4.0"}}, {"uniqueid": "MTK0780:3YZ8UPK3VUT4QIS8JL68G3ADR3ICUL", "current_trial": 49, "dateTime": 1512752849305, "trialdata": {"rt": -1, "stimulus": "<p id=\"stim\">5</p>", "key_press": -1, "trial_type": "single-stim", "trial_index": 49, "time_elapsed": 611669, "internal_node_id": "0.0-35.0-5.0"}}, {"uniqueid": "MTK0780:3YZ8UPK3VUT4QIS8JL68G3ADR3ICUL", "current_trial": 50, "dateTime": 1512752850306, "trialdata": {"rt": -1, "stimulus": "<p id=\"stim\">4</p>", "key_press": -1, "trial_type": "single-stim", "trial_index": 50, "time_elapsed": 612670, "internal_node_id": "0.0-35.0-6.0"}}, {"uniqueid": "MTK0780:3YZ8UPK3VUT4QIS8JL68G3ADR3ICUL", "current_trial": 51, "dateTime": 1512752851309, "trialdata": {"rt": -1, "stimulus": "<p id=\"stim\">3</p>", "key_press": -1, "trial_type": "single-stim", "trial_index": 51, "time_elapsed": 613673, "internal_node_id": "0.0-35.0-7.0"}}, {"uniqueid": "MTK0780:3YZ8UPK3VUT4QIS8JL68G3ADR3ICUL", "current_trial": 52, "dateTime": 1512752852312, "trialdata": {"rt": -1, "stimulus": "<p id=\"stim\">2</p>", "key_press": -1, "trial_type": "single-stim", "trial_index": 52, "time_elapsed": 614676, "internal_node_id": "0.0-35.0-8.0"}}, {"uniqueid": "MTK0780:3YZ8UPK3VUT4QIS8JL68G3ADR3ICUL", "current_trial": 53, "dateTime": 1512752853316, "trialdata": {"rt": -1, "stimulus": "<p id=\"stim\">1</p>", "key_press": -1, "trial_type": "single-stim", "trial_index": 53, "time_elapsed": 615680, "internal_node_id": "0.0-35.0-9.0"}}, {"uniqueid": "MTK0780:3YZ8UPK3VUT4QIS8JL68G3ADR3ICUL", "current_trial": 54, "dateTime": 1512752854820, "trialdata": {"rt": -1, "stimulus": "<p id=\"stim\">+</p>", "key_press": -1, "type": "FIXATION", "trial_type": "single-stim", "trial_index": 54, "time_elapsed": 617184, "internal_node_id": "0.0-36.0-0.0"}}, {"uniqueid": "MTK0780:3YZ8UPK3VUT4QIS8JL68G3ADR3ICUL", "current_trial": 55, "dateTime": 1512752856022, "trialdata": {"rt": -1, "stimulus": "<p id=\"stim\">STALLION</p>", "key_press": -1, "type": "PRES_VIS", "word": "stallion", "wordID": 1368, "conditions": [18, 1200, "v", 18000], "trial": 1, "serialpos": 0, "trial_type": "single-stim", "trial_index": 55, "time_elapsed": 618386, "internal_node_id": "0.0-37.0"}}, {"uniqueid": "MTK0780:3YZ8UPK3VUT4QIS8JL68G3ADR3ICUL", "current_trial": 56, "dateTime": 1512752858364, "trialdata": {"rt": -1, "stimulus": "<p id=\"stim\">POWDER</p>", "key_press": -1, "type": "PRES_VIS", "word": "powder", "wordID": 1116, "conditions": [18, 1200, "v", 18000], "trial": 1, "serialpos": 1, "trial_type": "single-stim", "trial_index": 56, "time_elapsed": 620728, "internal_node_id": "0.0-38.0"}}, {"uniqueid": "MTK0780:3YZ8UPK3VUT4QIS8JL68G3ADR3ICUL", "current_trial": 57, "dateTime": 1512752860714, "trialdata": {"rt": -1, "stimulus": "<p id=\"stim\">PATIENT</p>", "key_press": -1, "type": "PRES_VIS", "word": "patient", "wordID": 1023, "conditions": [18, 1200, "v", 18000], "trial": 1, "serialpos": 2, "trial_type": "single-stim", "trial_index": 57, "time_elapsed": 623078, "internal_node_id": "0.0-39.0"}}, {"uniqueid": "MTK0780:3YZ8UPK3VUT4QIS8JL68G3ADR3ICUL", "current_trial": 58, "dateTime": 1512752863109, "trialdata": {"rt": -1, "stimulus": "<p id=\"stim\">KNAPSACK</p>", "key_press": -1, "type": "PRES_VIS", "word": "knapsack", "wordID": 782, "conditions": [18, 1200, "v", 18000], "trial": 1, "serialpos": 3, "trial_type": "single-stim", "trial_index": 58, "time_elapsed": 625473, "internal_node_id": "0.0-40.0"}}, {"uniqueid": "MTK0780:3YZ8UPK3VUT4QIS8JL68G3ADR3ICUL", "current_trial": 59, "dateTime": 1512752865420, "trialdata": {"rt": -1, "stimulus": "<p id=\"stim\">REPORT</p>", "key_press": -1, "type": "PRES_VIS", "word": "report", "wordID": 1183, "conditions": [18, 1200, "v", 18000], "trial": 1, "serialpos": 4, "trial_type": "single-stim", "trial_index": 59, "time_elapsed": 627784, "internal_node_id": "0.0-41.0"}}, {"uniqueid": "MTK0780:3YZ8UPK3VUT4QIS8JL68G3ADR3ICUL", "current_trial": 60, "dateTime": 1512752867585, "trialdata": {"rt": -1, "stimulus": "<p id=\"stim\">GALLON</p>", "key_press": -1, "type": "PRES_VIS", "word": "gallon", "wordID": 617, "conditions": [18, 1200, "v", 18000], "trial": 1, "serialpos": 5, "trial_type": "single-stim", "trial_index": 60, "time_elapsed": 629949, "internal_node_id": "0.0-42.0"}}, {"uniqueid": "MTK0780:3YZ8UPK3VUT4QIS8JL68G3ADR3ICUL", "current_trial": 61, "dateTime": 1512752869848, "trialdata": {"rt": -1, "stimulus": "<p id=\"stim\">RUG</p>", "key_press": -1, "type": "PRES_VIS", "word": "rug", "wordID": 1214, "conditions": [18, 1200, "v", 18000], "trial": 1, "serialpos": 6, "trial_type": "single-stim", "trial_index": 61, "time_elapsed": 632212, "internal_node_id": "0.0-43.0"}}, {"uniqueid": "MTK0780:3YZ8UPK3VUT4QIS8JL68G3ADR3ICUL", "current_trial": 62, "dateTime": 1512752872158, "trialdata": {"rt": -1, "stimulus": "<p id=\"stim\">DRIVER</p>", "key_press": -1, "type": "PRES_VIS", "word": "driver", "wordID": 498, "conditions": [18, 1200, "v", 18000], "trial": 1, "serialpos": 7, "trial_type": "single-stim", "trial_index": 62, "time_elapsed": 634522, "internal_node_id": "0.0-44.0"}}, {"uniqueid": "MTK0780:3YZ8UPK3VUT4QIS8JL68G3ADR3ICUL", "current_trial": 63, "dateTime": 1512752874458, "trialdata": {"rt": -1, "stimulus": "<p id=\"stim\">CRAYON</p>", "key_press": -1, "type": "PRES_VIS", "word": "crayon", "wordID": 400, "conditions": [18, 1200, "v", 18000], "trial": 1, "serialpos": 8, "trial_type": "single-stim", "trial_index": 63, "time_elapsed": 636822, "internal_node_id": "0.0-45.0"}}, {"uniqueid": "MTK0780:3YZ8UPK3VUT4QIS8JL68G3ADR3ICUL", "current_trial": 64, "dateTime": 1512752876764, "trialdata": {"rt": -1, "stimulus": "<p id=\"stim\">FIREMAN</p>", "key_press": -1, "type": "PRES_VIS", "word": "fireman", "wordID": 568, "conditions": [18, 1200, "v", 18000], "trial": 1, "serialpos": 9, "trial_type": "single-stim", "trial_index": 64, "time_elapsed": 639128, "internal_node_id": "0.0-46.0"}}, {"uniqueid": "MTK0780:3YZ8UPK3VUT4QIS8JL68G3ADR3ICUL", "current_trial": 65, "dateTime": 1512752879068, "trialdata": {"rt": -1, "stimulus": "<p id=\"stim\">BUNNY</p>", "key_press": -1, "type": "PRES_VIS", "word": "bunny", "wordID": 197, "conditions": [18, 1200, "v", 18000], "trial": 1, "serialpos": 10, "trial_type": "single-stim", "trial_index": 65, "time_elapsed": 641432, "internal_node_id": "0.0-47.0"}}, {"uniqueid": "MTK0780:3YZ8UPK3VUT4QIS8JL68G3ADR3ICUL", "current_trial": 66, "dateTime": 1512752881310, "trialdata": {"rt": -1, "stimulus": "<p id=\"stim\">SLIME</p>", "key_press": -1, "type": "PRES_VIS", "word": "slime", "wordID": 1326, "conditions": [18, 1200, "v", 18000], "trial": 1, "serialpos": 11, "trial_type": "single-stim", "trial_index": 66, "time_elapsed": 643674, "internal_node_id": "0.0-48.0"}}, {"uniqueid": "MTK0780:3YZ8UPK3VUT4QIS8JL68G3ADR3ICUL", "current_trial": 67, "dateTime": 1512752883332, "trialdata": {"rt": -1, "stimulus": "<p id=\"stim\">PIANO</p>", "key_press": -1, "type": "PRES_VIS", "word": "piano", "wordID": 1056, "conditions": [18, 1200, "v", 18000], "trial": 1, "serialpos": 12, "trial_type": "single-stim", "trial_index": 67, "time_elapsed": 645696, "internal_node_id": "0.0-49.0"}}, {"uniqueid": "MTK0780:3YZ8UPK3VUT4QIS8JL68G3ADR3ICUL", "current_trial": 68, "dateTime": 1512752885622, "trialdata": {"rt": -1, "stimulus": "<p id=\"stim\">LUGGAGE</p>", "key_press": -1, "type": "PRES_VIS", "word": "luggage", "wordID": 846, "conditions": [18, 1200, "v", 18000], "trial": 1, "serialpos": 13, "trial_type": "single-stim", "trial_index": 68, "time_elapsed": 647982, "internal_node_id": "0.0-50.0"}}, {"uniqueid": "MTK0780:3YZ8UPK3VUT4QIS8JL68G3ADR3ICUL", "current_trial": 69, "dateTime": 1512752887862, "trialdata": {"rt": -1, "stimulus": "<p id=\"stim\">RIVER</p>", "key_press": -1, "type": "PRES_VIS", "word": "river", "wordID": 1193, "conditions": [18, 1200, "v", 18000], "trial": 1, "serialpos": 14, "trial_type": "single-stim", "trial_index": 69, "time_elapsed": 650226, "internal_node_id": "0.0-51.0"}}, {"uniqueid": "MTK0780:3YZ8UPK3VUT4QIS8JL68G3ADR3ICUL", "current_trial": 70, "dateTime": 1512752890056, "trialdata": {"rt": -1, "stimulus": "<p id=\"stim\">DENIM</p>", "key_press": -1, "type": "PRES_VIS", "word": "denim", "wordID": 445, "conditions": [18, 1200, "v", 18000], "trial": 1, "serialpos": 15, "trial_type": "single-stim", "trial_index": 70, "time_elapsed": 652420, "internal_node_id": "0.0-52.0"}}, {"uniqueid": "MTK0780:3YZ8UPK3VUT4QIS8JL68G3ADR3ICUL", "current_trial": 71, "dateTime": 1512752892456, "trialdata": {"rt": -1, "stimulus": "<p id=\"stim\">POPCORN</p>", "key_press": -1, "type": "PRES_VIS", "word": "popcorn", "wordID": 1103, "conditions": [18, 1200, "v", 18000], "trial": 1, "serialpos": 16, "trial_type": "single-stim", "trial_index": 71, "time_elapsed": 654820, "internal_node_id": "0.0-53.0"}}, {"uniqueid": "MTK0780:3YZ8UPK3VUT4QIS8JL68G3ADR3ICUL", "current_trial": 72, "dateTime": 1512752894656, "trialdata": {"rt": -1, "stimulus": "<p id=\"stim\">SODA</p>", "key_press": -1, "type": "PRES_VIS", "word": "soda", "wordID": 1340, "conditions": [18, 1200, "v", 18000], "trial": 1, "serialpos": 17, "trial_type": "single-stim", "trial_index": 72, "time_elapsed": 657020, "internal_node_id": "0.0-54.0"}}, {"uniqueid": "MTK0780:3YZ8UPK3VUT4QIS8JL68G3ADR3ICUL", "current_trial": 73, "dateTime": 1512752896826, "trialdata": {"rt": -1, "stimulus": "", "key_press": -1, "type": "PRE_RECALL_DELAY", "trial_type": "single-stim", "trial_index": 73, "time_elapsed": 659190, "internal_node_id": "0.0-55.0-0.0"}}, {"uniqueid": "MTK0780:3YZ8UPK3VUT4QIS8JL68G3ADR3ICUL", "current_trial": 74, "dateTime": 1512752897330, "trialdata": {"rt": -1000, "stimulus": "/static/audio/400Hz.wav", "key_press": -1, "type": "PRE_RECALL_ALERT", "trial_type": "single-audio", "trial_index": 74, "time_elapsed": 659694, "internal_node_id": "0.0-56.0"}}, {"uniqueid": "MTK0780:3YZ8UPK3VUT4QIS8JL68G3ADR3ICUL", "current_trial": 75, "dateTime": 1512752957335, "trialdata": {"rt": [16365, 20122, 27632, 30945, 34799, 50162], "recwords": ["slime", "fireman", "piano", "luggage", "crayon", "bunny"], "type": "FREE_RECALL", "conditions": [18, 1200, "v", 18000], "trial": 1, "trial_type": "free-recall", "trial_index": 75, "time_elapsed": 719699, "internal_node_id": "0.0-57.0-0.0"}}, {"uniqueid": "MTK0780:3YZ8UPK3VUT4QIS8JL68G3ADR3ICUL", "current_trial": 76, "dateTime": 1512753008149, "trialdata": {"rt": 48804, "key_press": 13, "type": "INSTRUCTIONS", "trial_type": "text", "trial_index": 76, "time_elapsed": 770509, "internal_node_id": "0.0-58.0"}}, {"uniqueid": "MTK0780:3YZ8UPK3VUT4QIS8JL68G3ADR3ICUL", "current_trial": 77, "dateTime": 1512753021158, "trialdata": {"rt": [6190, 10780], "responses": ["21", "12"], "num1": [8, 4, 9], "num2": [8, 7, 9], "num3": [7, 1, 8], "type": "DISTRACTOR", "conditions": [24, 1600, "v", 12000], "trial": 2, "trial_type": "math-distractor", "trial_index": 77, "time_elapsed": 783522, "internal_node_id": "0.0-59.0"}}, {"uniqueid": "MTK0780:3YZ8UPK3VUT4QIS8JL68G3ADR3ICUL", "current_trial": 78, "dateTime": 1512753024163, "trialdata": {"rt": -1, "stimulus": "<p id=\"stim\">10</p>", "key_press": -1, "trial_type": "single-stim", "trial_index": 78, "time_elapsed": 786527, "internal_node_id": "0.0-60.0-0.0"}}, {"uniqueid": "MTK0780:3YZ8UPK3VUT4QIS8JL68G3ADR3ICUL", "current_trial": 79, "dateTime": 1512753025167, "trialdata": {"rt": -1, "stimulus": "<p id=\"stim\">9</p>", "key_press": -1, "trial_type": "single-stim", "trial_index": 79, "time_elapsed": 787531, "internal_node_id": "0.0-60.0-1.0"}}, {"uniqueid": "MTK0780:3YZ8UPK3VUT4QIS8JL68G3ADR3ICUL", "current_trial": 80, "dateTime": 1512753026170, "trialdata": {"rt": -1, "stimulus": "<p id=\"stim\">8</p>", "key_press": -1, "trial_type": "single-stim", "trial_index": 80, "time_elapsed": 788534, "internal_node_id": "0.0-60.0-2.0"}}, {"uniqueid": "MTK0780:3YZ8UPK3VUT4QIS8JL68G3ADR3ICUL", "current_trial": 81, "dateTime": 1512753027173, "trialdata": {"rt": -1, "stimulus": "<p id=\"stim\">7</p>", "key_press": -1, "trial_type": "single-stim", "trial_index": 81, "time_elapsed": 789537, "internal_node_id": "0.0-60.0-3.0"}}, {"uniqueid": "MTK0780:3YZ8UPK3VUT4QIS8JL68G3ADR3ICUL", "current_trial": 82, "dateTime": 1512753028175, "trialdata": {"rt": -1, "stimulus": "<p id=\"stim\">6</p>", "key_press": -1, "trial_type": "single-stim", "trial_index": 82, "time_elapsed": 790539, "internal_node_id": "0.0-60.0-4.0"}}, {"uniqueid": "MTK0780:3YZ8UPK3VUT4QIS8JL68G3ADR3ICUL", "current_trial": 83, "dateTime": 1512753029177, "trialdata": {"rt": -1, "stimulus": "<p id=\"stim\">5</p>", "key_press": -1, "trial_type": "single-stim", "trial_index": 83, "time_elapsed": 791541, "internal_node_id": "0.0-60.0-5.0"}}, {"uniqueid": "MTK0780:3YZ8UPK3VUT4QIS8JL68G3ADR3ICUL", "current_trial": 84, "dateTime": 1512753030178, "trialdata": {"rt": -1, "stimulus": "<p id=\"stim\">4</p>", "key_press": -1, "trial_type": "single-stim", "trial_index": 84, "time_elapsed": 792542, "internal_node_id": "0.0-60.0-6.0"}}, {"uniqueid": "MTK0780:3YZ8UPK3VUT4QIS8JL68G3ADR3ICUL", "current_trial": 85, "dateTime": 1512753031180, "trialdata": {"rt": -1, "stimulus": "<p id=\"stim\">3</p>", "key_press": -1, "trial_type": "single-stim", "trial_index": 85, "time_elapsed": 793544, "internal_node_id": "0.0-60.0-7.0"}}, {"uniqueid": "MTK0780:3YZ8UPK3VUT4QIS8JL68G3ADR3ICUL", "current_trial": 86, "dateTime": 1512753032181, "trialdata": {"rt": -1, "stimulus": "<p id=\"stim\">2</p>", "key_press": -1, "trial_type": "single-stim", "trial_index": 86, "time_elapsed": 794545, "internal_node_id": "0.0-60.0-8.0"}}, {"uniqueid": "MTK0780:3YZ8UPK3VUT4QIS8JL68G3ADR3ICUL", "current_trial": 87, "dateTime": 1512753033184, "trialdata": {"rt": -1, "stimulus": "<p id=\"stim\">1</p>", "key_press": -1, "trial_type": "single-stim", "trial_index": 87, "time_elapsed": 795548, "internal_node_id": "0.0-60.0-9.0"}}, {"uniqueid": "MTK0780:3YZ8UPK3VUT4QIS8JL68G3ADR3ICUL", "current_trial": 88, "dateTime": 1512753034689, "trialdata": {"rt": -1, "stimulus": "<p id=\"stim\">+</p>", "key_press": -1, "type": "FIXATION", "trial_type": "single-stim", "trial_index": 88, "time_elapsed": 797053, "internal_node_id": "0.0-61.0-0.0"}}, {"uniqueid": "MTK0780:3YZ8UPK3VUT4QIS8JL68G3ADR3ICUL", "current_trial": 89, "dateTime": 1512753036292, "trialdata": {"rt": -1, "stimulus": "<p id=\"stim\">DONKEY</p>", "key_press": -1, "type": "PRES_VIS", "word": "donkey", "wordID": 483, "conditions": [24, 1600, "v", 12000], "trial": 2, "serialpos": 0, "trial_type": "single-stim", "trial_index": 89, "time_elapsed": 798656, "internal_node_id": "0.0-62.0"}}, {"uniqueid": "MTK0780:3YZ8UPK3VUT4QIS8JL68G3ADR3ICUL", "current_trial": 90, "dateTime": 1512753038999, "trialdata": {"rt": -1, "stimulus": "<p id=\"stim\">SUSPECT</p>", "key_press": -1, "type": "PRES_VIS", "word": "suspect", "wordID": 1414, "conditions": [24, 1600, "v", 12000], "trial": 2, "serialpos": 1, "trial_type": "single-stim", "trial_index": 90, "time_elapsed": 801363, "internal_node_id": "0.0-63.0"}}, {"uniqueid": "MTK0780:3YZ8UPK3VUT4QIS8JL68G3ADR3ICUL", "current_trial": 91, "dateTime": 1512753041415, "trialdata": {"rt": -1, "stimulus": "<p id=\"stim\">SLUG</p>", "key_press": -1, "type": "PRES_VIS", "word": "slug", "wordID": 1328, "conditions": [24, 1600, "v", 12000], "trial": 2, "serialpos": 2, "trial_type": "single-stim", "trial_index": 91, "time_elapsed": 803779, "internal_node_id": "0.0-64.0"}}, {"uniqueid": "MTK0780:3YZ8UPK3VUT4QIS8JL68G3ADR3ICUL", "current_trial": 92, "dateTime": 1512753043842, "trialdata": {"rt": -1, "stimulus": "<p id=\"stim\">FLESH</p>", "key_press": -1, "type": "PRES_VIS", "word": "flesh", "wordID": 578, "conditions": [24, 1600, "v", 12000], "trial": 2, "serialpos": 3, "trial_type": "single-stim", "trial_index": 92, "time_elapsed": 806206, "internal_node_id": "0.0-65.0"}}, {"uniqueid": "MTK0780:3YZ8UPK3VUT4QIS8JL68G3ADR3ICUL", "current_trial": 93, "dateTime": 1512753046347, "trialdata": {"rt": -1, "stimulus": "<p id=\"stim\">BLOUSE</p>", "key_press": -1, "type": "PRES_VIS", "word": "blouse", "wordID": 138, "conditions": [24, 1600, "v", 12000], "trial": 2, "serialpos": 4, "trial_type": "single-stim", "trial_index": 93, "time_elapsed": 808711, "internal_node_id": "0.0-66.0"}}, {"uniqueid": "MTK0780:3YZ8UPK3VUT4QIS8JL68G3ADR3ICUL", "current_trial": 94, "dateTime": 1512753048950, "trialdata": {"rt": -1, "stimulus": "<p id=\"stim\">PARTNER</p>", "key_press": -1, "type": "PRES_VIS", "word": "partner", "wordID": 1016, "conditions": [24, 1600, "v", 12000], "trial": 2, "serialpos": 5, "trial_type": "single-stim", "trial_index": 94, "time_elapsed": 811314, "internal_node_id": "0.0-67.0"}}, {"uniqueid": "MTK0780:3YZ8UPK3VUT4QIS8JL68G3ADR3ICUL", "current_trial": 95, "dateTime": 1512753051437, "trialdata": {"rt": -1, "stimulus": "<p id=\"stim\">WOMAN</p>", "key_press": -1, "type": "PRES_VIS", "word": "woman", "wordID": 1619, "conditions": [24, 1600, "v", 12000], "trial": 2, "serialpos": 6, "trial_type": "single-stim", "trial_index": 95, "time_elapsed": 813801, "internal_node_id": "0.0-68.0"}}, {"uniqueid": "MTK0780:3YZ8UPK3VUT4QIS8JL68G3ADR3ICUL", "current_trial": 96, "dateTime": 1512753054180, "trialdata": {"rt": -1, "stimulus": "<p id=\"stim\">LADY</p>", "key_press": -1, "type": "PRES_VIS", "word": "lady", "wordID": 793, "conditions": [24, 1600, "v", 12000], "trial": 2, "serialpos": 7, "trial_type": "single-stim", "trial_index": 96, "time_elapsed": 816544, "internal_node_id": "0.0-69.0"}}, {"uniqueid": "MTK0780:3YZ8UPK3VUT4QIS8JL68G3ADR3ICUL", "current_trial": 97, "dateTime": 1512753056671, "trialdata": {"rt": -1, "stimulus": "<p id=\"stim\">COOK</p>", "key_press": -1, "type": "PRES_VIS", "word": "cook", "wordID": 371, "conditions": [24, 1600, "v", 12000], "trial": 2, "serialpos": 8, "trial_type": "single-stim", "trial_index": 97, "time_elapsed": 819035, "internal_node_id": "0.0-70.0"}}, {"uniqueid": "MTK0780:3YZ8UPK3VUT4QIS8JL68G3ADR3ICUL", "current_trial": 98, "dateTime": 1512753059112, "trialdata": {"rt": -1, "stimulus": "<p id=\"stim\">GLOVE</p>", "key_press": -1, "type": "PRES_VIS", "word": "glove", "wordID": 641, "conditions": [24, 1600, "v", 12000], "trial": 2, "serialpos": 9, "trial_type": "single-stim", "trial_index": 98, "time_elapsed": 821476, "internal_node_id": "0.0-71.0"}}, {"uniqueid": "MTK0780:3YZ8UPK3VUT4QIS8JL68G3ADR3ICUL", "current_trial": 99, "dateTime": 1512753061728, "trialdata": {"rt": -1, "stimulus": "<p id=\"stim\">NIGHTGOWN</p>", "key_press": -1, "type": "PRES_VIS", "word": "nightgown", "wordID": 952, "conditions": [24, 1600, "v", 12000], "trial": 2, "serialpos": 10, "trial_type": "single-stim", "trial_index": 99, "time_elapsed": 824092, "internal_node_id": "0.0-72.0"}}, {"uniqueid": "MTK0780:3YZ8UPK3VUT4QIS8JL68G3ADR3ICUL", "current_trial": 100, "dateTime": 1512753064500, "trialdata": {"rt": -1, "stimulus": "<p id=\"stim\">GAZELLE</p>", "key_press": -1, "type": "PRES_VIS", "word": "gazelle", "wordID": 627, "conditions": [24, 1600, "v", 12000], "trial": 2, "serialpos": 11, "trial_type": "single-stim", "trial_index": 100, "time_elapsed": 826864, "internal_node_id": "0.0-73.0"}}, {"uniqueid": "MTK0780:3YZ8UPK3VUT4QIS8JL68G3ADR3ICUL", "current_trial": 101, "dateTime": 1512753066940, "trialdata": {"rt": -1, "stimulus": "<p id=\"stim\">TROMBONE</p>", "key_press": -1, "type": "PRES_VIS", "word": "trombone", "wordID": 1507, "conditions": [24, 1600, "v", 12000], "trial": 2, "serialpos": 12, "trial_type": "single-stim", "trial_index": 101, "time_elapsed": 829304, "internal_node_id": "0.0-74.0"}}, {"uniqueid": "MTK0780:3YZ8UPK3VUT4QIS8JL68G3ADR3ICUL", "current_trial": 102, "dateTime": 1512753069595, "trialdata": {"rt": -1, "stimulus": "<p id=\"stim\">STOMACH</p>", "key_press": -1, "type": "PRES_VIS", "word": "stomach", "wordID": 1383, "conditions": [24, 1600, "v", 12000], "trial": 2, "serialpos": 13, "trial_type": "single-stim", "trial_index": 102, "time_elapsed": 831959, "internal_node_id": "0.0-75.0"}}, {"uniqueid": "MTK0780:3YZ8UPK3VUT4QIS8JL68G3ADR3ICUL", "current_trial": 103, "dateTime": 1512753072285, "trialdata": {"rt": -1, "stimulus": "<p id=\"stim\">MUFFIN</p>", "key_press": -1, "type": "PRES_VIS", "word": "muffin", "wordID": 928, "conditions": [24, 1600, "v", 12000], "trial": 2, "serialpos": 14, "trial_type": "single-stim", "trial_index": 103, "time_elapsed": 834649, "internal_node_id": "0.0-76.0"}}, {"uniqueid": "MTK0780:3YZ8UPK3VUT4QIS8JL68G3ADR3ICUL", "current_trial": 104, "dateTime": 1512753074754, "trialdata": {"rt": -1, "stimulus": "<p id=\"stim\">BISON</p>", "key_press": -1, "type": "PRES_VIS", "word": "bison", "wordID": 130, "conditions": [24, 1600, "v", 12000], "trial": 2, "serialpos": 15, "trial_type": "single-stim", "trial_index": 104, "time_elapsed": 837118, "internal_node_id": "0.0-77.0"}}, {"uniqueid": "MTK0780:3YZ8UPK3VUT4QIS8JL68G3ADR3ICUL", "current_trial": 105, "dateTime": 1512753077197, "trialdata": {"rt": -1, "stimulus": "<p id=\"stim\">GRAPE</p>", "key_press": -1, "type": "PRES_VIS", "word": "grape", "wordID": 653, "conditions": [24, 1600, "v", 12000], "trial": 2, "serialpos": 16, "trial_type": "single-stim", "trial_index": 105, "time_elapsed": 839561, "internal_node_id": "0.0-78.0"}}, {"uniqueid": "MTK0780:3YZ8UPK3VUT4QIS8JL68G3ADR3ICUL", "current_trial": 106, "dateTime": 1512753079688, "trialdata": {"rt": -1, "stimulus": "<p id=\"stim\">BEAKER</p>", "key_press": -1, "type": "PRES_VIS", "word": "beaker", "wordID": 103, "conditions": [24, 1600, "v", 12000], "trial": 2, "serialpos": 17, "trial_type": "single-stim", "trial_index": 106, "time_elapsed": 842052, "internal_node_id": "0.0-79.0"}}, {"uniqueid": "MTK0780:3YZ8UPK3VUT4QIS8JL68G3ADR3ICUL", "current_trial": 107, "dateTime": 1512753082249, "trialdata": {"rt": -1, "stimulus": "<p id=\"stim\">BUBBLE</p>", "key_press": -1, "type": "PRES_VIS", "word": "bubble", "wordID": 182, "conditions": [24, 1600, "v", 12000], "trial": 2, "serialpos": 18, "trial_type": "single-stim", "trial_index": 107, "time_elapsed": 844613, "internal_node_id": "0.0-80.0"}}, {"uniqueid": "MTK0780:3YZ8UPK3VUT4QIS8JL68G3ADR3ICUL", "current_trial": 108, "dateTime": 1512753084794, "trialdata": {"rt": -1, "stimulus": "<p id=\"stim\">SPOON</p>", "key_press": -1, "type": "PRES_VIS", "word": "spoon", "wordID": 1356, "conditions": [24, 1600, "v", 12000], "trial": 2, "serialpos": 19, "trial_type": "single-stim", "trial_index": 108, "time_elapsed": 847158, "internal_node_id": "0.0-81.0"}}, {"uniqueid": "MTK0780:3YZ8UPK3VUT4QIS8JL68G3ADR3ICUL", "current_trial": 109, "dateTime": 1512753087485, "trialdata": {"rt": -1, "stimulus": "<p id=\"stim\">FIDDLE</p>", "key_press": -1, "type": "PRES_VIS", "word": "fiddle", "wordID": 560, "conditions": [24, 1600, "v", 12000], "trial": 2, "serialpos": 20, "trial_type": "single-stim", "trial_index": 109, "time_elapsed": 849849, "internal_node_id": "0.0-82.0"}}, {"uniqueid": "MTK0780:3YZ8UPK3VUT4QIS8JL68G3ADR3ICUL", "current_trial": 110, "dateTime": 1512753090146, "trialdata": {"rt": -1, "stimulus": "<p id=\"stim\">PLIERS</p>", "key_press": -1, "type": "PRES_VIS", "word": "pliers", "wordID": 1088, "conditions": [24, 1600, "v", 12000], "trial": 2, "serialpos": 21, "trial_type": "single-stim", "trial_index": 110, "time_elapsed": 852510, "internal_node_id": "0.0-83.0"}}, {"uniqueid": "MTK0780:3YZ8UPK3VUT4QIS8JL68G3ADR3ICUL", "current_trial": 111, "dateTime": 1512753092574, "trialdata": {"rt": -1, "stimulus": "<p id=\"stim\">PISTOL</p>", "key_press": -1, "type": "PRES_VIS", "word": "pistol", "wordID": 1074, "conditions": [24, 1600, "v", 12000], "trial": 2, "serialpos": 22, "trial_type": "single-stim", "trial_index": 111, "time_elapsed": 854938, "internal_node_id": "0.0-84.0"}}], "questiondata": {}, "eventdata": [{"eventtype": "initialized", "value": null, "timestamp": 1512752227962, "interval": 0}, {"eventtype": "window_resize", "value": [1366, 721], "timestamp": 1512752227962, "interval": 0}, {"eventtype": "window_resize", "value": [1366, 677], "timestamp": 1512752291629, "interval": 63667}, {"eventtype": "focus", "value": "off", "timestamp": 1512752691342, "interval": 399713}, {"eventtype": "focus", "value": "on", "timestamp": 1512752697096, "interval": 5754}], "useragent": "Mozilla/5.0 (Windows NT 10.0; Win64; x64) AppleWebKit/537.36 (KHTML, like Gecko) Chrome/62.0.3202.94 Safari/537.36", "mode": "live", "status": "user data saved"}