{"condition": 0, "counterbalance": 2900, "assignmentId": "31IBVUNM9T6B691IFD6EKVXZ1IVVF5", "workerId": "MTK0678", "hitId": "33NKDW9FFXPUK2O9YOCTBQDX5DCCXJ", "currenttrial": 41, "bonus": 0, "data": [{"uniqueid": "MTK0678:31IBVUNM9T6B691IFD6EKVXZ1IVVF5", "current_trial": 0, "dateTime": 1512592865806, "trialdata": {"rt": 2947, "key_press": 32, "type": "INSTRUCTIONS", "trial_type": "text", "trial_index": 0, "time_elapsed": 2947, "internal_node_id": "0.0-0.0"}}, {"uniqueid": "MTK0678:31IBVUNM9T6B691IFD6EKVXZ1IVVF5", "current_trial": 1, "dateTime": 1512592885156, "trialdata": {"rt": 19350, "key_press": 32, "type": "INSTRUCTIONS", "trial_type": "text", "trial_index": 1, "time_elapsed": 22298, "internal_node_id": "0.0-1.0"}}, {"uniqueid": "MTK0678:31IBVUNM9T6B691IFD6EKVXZ1IVVF5", "current_trial": 2, "dateTime": 1512592891349, "trialdata": {"rt": [6161], "responses": ["ocean"], "type": "AUDIO_TEST", "trial_type": "audio-test", "trial_index": 2, "time_elapsed": 28491, "internal_node_id": "0.0-2.0"}}, {"uniqueid": "MTK0678:31IBVUNM9T6B691IFD6EKVXZ1IVVF5", "current_trial": 3, "dateTime": 1512592897439, "trialdata": {"rt": [6081], "responses": ["crystal"], "type": "AUDIO_TEST", "trial_type": "audio-test", "trial_index": 3, "time_elapsed": 34581, "internal_node_id": "0.0-3.0"}}, {"uniqueid": "MTK0678:31IBVUNM9T6B691IFD6EKVXZ1IVVF5", "current_trial": 4, "dateTime": 1512592903144, "trialdata": {"rt": [5697], "responses": ["spice"], "type": "AUDIO_TEST", "trial_type": "audio-test", "trial_index": 4, "time_elapsed": 40286, "internal_node_id": "0.0-4.0"}}, {"uniqueid": "MTK0678:31IBVUNM9T6B691IFD6EKVXZ1IVVF5", "current_trial": 5, "dateTime": 1512592925095, "trialdata": {"rt": 21198, "responses": "{\"Q0\":\"11 PM\",\"Q1\":\"830 AM\",\"Q2\":\"4\"}", "type": "SLEEP_SURVEY", "trial_type": "survey-text", "trial_index": 5, "time_elapsed": 62237, "internal_node_id": "0.0-5.0"}}, {"uniqueid": "MTK0678:31IBVUNM9T6B691IFD6EKVXZ1IVVF5", "current_trial": 6, "dateTime": 1512592969207, "trialdata": {"rt": 43100, "key_press": 32, "type": "INSTRUCTIONS", "trial_type": "text", "trial_index": 6, "time_elapsed": 106349, "internal_node_id": "0.0-6.0"}}, {"uniqueid": "MTK0678:31IBVUNM9T6B691IFD6EKVXZ1IVVF5", "current_trial": 7, "dateTime": 1512592985643, "trialdata": {"rt": 15933, "key_press": 32, "type": "INSTRUCTIONS", "trial_type": "text", "trial_index": 7, "time_elapsed": 122785, "internal_node_id": "0.0-7.0"}}, {"uniqueid": "MTK0678:31IBVUNM9T6B691IFD6EKVXZ1IVVF5", "current_trial": 8, "dateTime": 1512592996900, "trialdata": {"rt": 10726, "key_press": 32, "type": "INSTRUCTIONS", "trial_type": "text", "trial_index": 8, "time_elapsed": 134042, "internal_node_id": "0.0-8.0"}}, {"uniqueid": "MTK0678:31IBVUNM9T6B691IFD6EKVXZ1IVVF5", "current_trial": 9, "dateTime": 1512593015918, "trialdata": {"rt": [3349, 5940, 9034, 11102, 14609], "responses": ["9", "18", "19", "17", "19"], "num1": [2, 5, 6, 8, 7, 4], "num2": [2, 8, 7, 8, 4, 3], "num3": [5, 5, 6, 1, 8, 5], "type": "DISTRACTOR", "conditions": [18, 1200, "a", 18000], "trial": 0, "trial_type": "math-distractor", "trial_index": 9, "time_elapsed": 153060, "internal_node_id": "0.0-9.0"}}, {"uniqueid": "MTK0678:31IBVUNM9T6B691IFD6EKVXZ1IVVF5", "current_trial": 10, "dateTime": 1512593018952, "trialdata": {"rt": -1, "stimulus": "<p id=\"stim\">10</p>", "key_press": -1, "trial_type": "single-stim", "trial_index": 10, "time_elapsed": 156093, "internal_node_id": "0.0-10.0-0.0"}}, {"uniqueid": "MTK0678:31IBVUNM9T6B691IFD6EKVXZ1IVVF5", "current_trial": 11, "dateTime": 1512593019950, "trialdata": {"rt": -1, "stimulus": "<p id=\"stim\">9</p>", "key_press": -1, "trial_type": "single-stim", "trial_index": 11, "time_elapsed": 157092, "internal_node_id": "0.0-10.0-1.0"}}, {"uniqueid": "MTK0678:31IBVUNM9T6B691IFD6EKVXZ1IVVF5", "current_trial": 12, "dateTime": 1512593020937, "trialdata": {"rt": -1, "stimulus": "<p id=\"stim\">8</p>", "key_press": -1, "trial_type": "single-stim", "trial_index": 12, "time_elapsed": 158079, "internal_node_id": "0.0-10.0-2.0"}}, {"uniqueid": "MTK0678:31IBVUNM9T6B691IFD6EKVXZ1IVVF5", "current_trial": 13, "dateTime": 1512593021943, "trialdata": {"rt": -1, "stimulus": "<p id=\"stim\">7</p>", "key_press": -1, "trial_type": "single-stim", "trial_index": 13, "time_elapsed": 159085, "internal_node_id": "0.0-10.0-3.0"}}, {"uniqueid": "MTK0678:31IBVUNM9T6B691IFD6EKVXZ1IVVF5", "current_trial": 14, "dateTime": 1512593022947, "trialdata": {"rt": -1, "stimulus": "<p id=\"stim\">6</p>", "key_press": -1, "trial_type": "single-stim", "trial_index": 14, "time_elapsed": 160089, "internal_node_id": "0.0-10.0-4.0"}}, {"uniqueid": "MTK0678:31IBVUNM9T6B691IFD6EKVXZ1IVVF5", "current_trial": 15, "dateTime": 1512593023936, "trialdata": {"rt": -1, "stimulus": "<p id=\"stim\">5</p>", "key_press": -1, "trial_type": "single-stim", "trial_index": 15, "time_elapsed": 161078, "internal_node_id": "0.0-10.0-5.0"}}, {"uniqueid": "MTK0678:31IBVUNM9T6B691IFD6EKVXZ1IVVF5", "current_trial": 16, "dateTime": 1512593024942, "trialdata": {"rt": -1, "stimulus": "<p id=\"stim\">4</p>", "key_press": -1, "trial_type": "single-stim", "trial_index": 16, "time_elapsed": 162084, "internal_node_id": "0.0-10.0-6.0"}}, {"uniqueid": "MTK0678:31IBVUNM9T6B691IFD6EKVXZ1IVVF5", "current_trial": 17, "dateTime": 1512593025941, "trialdata": {"rt": -1, "stimulus": "<p id=\"stim\">3</p>", "key_press": -1, "trial_type": "single-stim", "trial_index": 17, "time_elapsed": 163082, "internal_node_id": "0.0-10.0-7.0"}}, {"uniqueid": "MTK0678:31IBVUNM9T6B691IFD6EKVXZ1IVVF5", "current_trial": 18, "dateTime": 1512593026943, "trialdata": {"rt": -1, "stimulus": "<p id=\"stim\">2</p>", "key_press": -1, "trial_type": "single-stim", "trial_index": 18, "time_elapsed": 164085, "internal_node_id": "0.0-10.0-8.0"}}, {"uniqueid": "MTK0678:31IBVUNM9T6B691IFD6EKVXZ1IVVF5", "current_trial": 19, "dateTime": 1512593027959, "trialdata": {"rt": -1, "stimulus": "<p id=\"stim\">1</p>", "key_press": -1, "trial_type": "single-stim", "trial_index": 19, "time_elapsed": 165101, "internal_node_id": "0.0-10.0-9.0"}}, {"uniqueid": "MTK0678:31IBVUNM9T6B691IFD6EKVXZ1IVVF5", "current_trial": 20, "dateTime": 1512593029474, "trialdata": {"rt": -1, "stimulus": "<p id=\"stim\">+</p>", "key_press": -1, "type": "FIXATION", "trial_type": "single-stim", "trial_index": 20, "time_elapsed": 166616, "internal_node_id": "0.0-11.0-0.0"}}, {"uniqueid": "MTK0678:31IBVUNM9T6B691IFD6EKVXZ1IVVF5", "current_trial": 21, "dateTime": 1512593032153, "trialdata": {"rt": -1000, "stimulus": "/static/audio/wordpool/CRAYON.wav", "key_press": -1, "type": "PRES_AUD", "word": "crayon", "wordID": 400, "conditions": [18, 1200, "a", 18000], "trial": 0, "serialpos": 0, "trial_type": "single-audio", "trial_index": 21, "time_elapsed": 169295, "internal_node_id": "0.0-12.0"}}, {"uniqueid": "MTK0678:31IBVUNM9T6B691IFD6EKVXZ1IVVF5", "current_trial": 22, "dateTime": 1512593034530, "trialdata": {"rt": -1000, "stimulus": "/static/audio/wordpool/TRENCH.wav", "key_press": -1, "type": "PRES_AUD", "word": "trench", "wordID": 1502, "conditions": [18, 1200, "a", 18000], "trial": 0, "serialpos": 1, "trial_type": "single-audio", "trial_index": 22, "time_elapsed": 171672, "internal_node_id": "0.0-13.0"}}, {"uniqueid": "MTK0678:31IBVUNM9T6B691IFD6EKVXZ1IVVF5", "current_trial": 23, "dateTime": 1512593036674, "trialdata": {"rt": -1000, "stimulus": "/static/audio/wordpool/FLIPPER.wav", "key_press": -1, "type": "PRES_AUD", "word": "flipper", "wordID": 579, "conditions": [18, 1200, "a", 18000], "trial": 0, "serialpos": 2, "trial_type": "single-audio", "trial_index": 23, "time_elapsed": 173816, "internal_node_id": "0.0-14.0"}}, {"uniqueid": "MTK0678:31IBVUNM9T6B691IFD6EKVXZ1IVVF5", "current_trial": 24, "dateTime": 1512593038973, "trialdata": {"rt": -1000, "stimulus": "/static/audio/wordpool/FILM.wav", "key_press": -1, "type": "PRES_AUD", "word": "film", "wordID": 564, "conditions": [18, 1200, "a", 18000], "trial": 0, "serialpos": 3, "trial_type": "single-audio", "trial_index": 24, "time_elapsed": 176115, "internal_node_id": "0.0-15.0"}}, {"uniqueid": "MTK0678:31IBVUNM9T6B691IFD6EKVXZ1IVVF5", "current_trial": 25, "dateTime": 1512593041302, "trialdata": {"rt": -1000, "stimulus": "/static/audio/wordpool/STUDENT.wav", "key_press": -1, "type": "PRES_AUD", "word": "student", "wordID": 1394, "conditions": [18, 1200, "a", 18000], "trial": 0, "serialpos": 4, "trial_type": "single-audio", "trial_index": 25, "time_elapsed": 178444, "internal_node_id": "0.0-16.0"}}, {"uniqueid": "MTK0678:31IBVUNM9T6B691IFD6EKVXZ1IVVF5", "current_trial": 26, "dateTime": 1512593043445, "trialdata": {"rt": -1000, "stimulus": "/static/audio/wordpool/CRIB.wav", "key_press": -1, "type": "PRES_AUD", "word": "crib", "wordID": 406, "conditions": [18, 1200, "a", 18000], "trial": 0, "serialpos": 5, "trial_type": "single-audio", "trial_index": 26, "time_elapsed": 180587, "internal_node_id": "0.0-17.0"}}, {"uniqueid": "MTK0678:31IBVUNM9T6B691IFD6EKVXZ1IVVF5", "current_trial": 27, "dateTime": 1512593045856, "trialdata": {"rt": -1000, "stimulus": "/static/audio/wordpool/BANK.wav", "key_press": -1, "type": "PRES_AUD", "word": "bank", "wordID": 82, "conditions": [18, 1200, "a", 18000], "trial": 0, "serialpos": 6, "trial_type": "single-audio", "trial_index": 27, "time_elapsed": 182998, "internal_node_id": "0.0-18.0"}}, {"uniqueid": "MTK0678:31IBVUNM9T6B691IFD6EKVXZ1IVVF5", "current_trial": 28, "dateTime": 1512593048125, "trialdata": {"rt": -1000, "stimulus": "/static/audio/wordpool/TOASTER.wav", "key_press": -1, "type": "PRES_AUD", "word": "toaster", "wordID": 1471, "conditions": [18, 1200, "a", 18000], "trial": 0, "serialpos": 7, "trial_type": "single-audio", "trial_index": 28, "time_elapsed": 185267, "internal_node_id": "0.0-19.0"}}, {"uniqueid": "MTK0678:31IBVUNM9T6B691IFD6EKVXZ1IVVF5", "current_trial": 29, "dateTime": 1512593050503, "trialdata": {"rt": -1000, "stimulus": "/static/audio/wordpool/SNACK.wav", "key_press": -1, "type": "PRES_AUD", "word": "snack", "wordID": 1330, "conditions": [18, 1200, "a", 18000], "trial": 0, "serialpos": 8, "trial_type": "single-audio", "trial_index": 29, "time_elapsed": 187645, "internal_node_id": "0.0-20.0"}}, {"uniqueid": "MTK0678:31IBVUNM9T6B691IFD6EKVXZ1IVVF5", "current_trial": 30, "dateTime": 1512593052722, "trialdata": {"rt": -1000, "stimulus": "/static/audio/wordpool/SWAMP.wav", "key_press": -1, "type": "PRES_AUD", "word": "swamp", "wordID": 1415, "conditions": [18, 1200, "a", 18000], "trial": 0, "serialpos": 9, "trial_type": "single-audio", "trial_index": 30, "time_elapsed": 189864, "internal_node_id": "0.0-21.0"}}, {"uniqueid": "MTK0678:31IBVUNM9T6B691IFD6EKVXZ1IVVF5", "current_trial": 31, "dateTime": 1512593055130, "trialdata": {"rt": -1000, "stimulus": "/static/audio/wordpool/MOTOR.wav", "key_press": -1, "type": "PRES_AUD", "word": "motor", "wordID": 921, "conditions": [18, 1200, "a", 18000], "trial": 0, "serialpos": 10, "trial_type": "single-audio", "trial_index": 31, "time_elapsed": 192272, "internal_node_id": "0.0-22.0"}}, {"uniqueid": "MTK0678:31IBVUNM9T6B691IFD6EKVXZ1IVVF5", "current_trial": 32, "dateTime": 1512593057334, "trialdata": {"rt": -1000, "stimulus": "/static/audio/wordpool/CURTAIN.wav", "key_press": -1, "type": "PRES_AUD", "word": "curtain", "wordID": 426, "conditions": [18, 1200, "a", 18000], "trial": 0, "serialpos": 11, "trial_type": "single-audio", "trial_index": 32, "time_elapsed": 194476, "internal_node_id": "0.0-23.0"}}, {"uniqueid": "MTK0678:31IBVUNM9T6B691IFD6EKVXZ1IVVF5", "current_trial": 33, "dateTime": 1512593059583, "trialdata": {"rt": -1000, "stimulus": "/static/audio/wordpool/POPCORN.wav", "key_press": -1, "type": "PRES_AUD", "word": "popcorn", "wordID": 1103, "conditions": [18, 1200, "a", 18000], "trial": 0, "serialpos": 12, "trial_type": "single-audio", "trial_index": 33, "time_elapsed": 196725, "internal_node_id": "0.0-24.0"}}, {"uniqueid": "MTK0678:31IBVUNM9T6B691IFD6EKVXZ1IVVF5", "current_trial": 34, "dateTime": 1512593061787, "trialdata": {"rt": -1000, "stimulus": "/static/audio/wordpool/DRIVER.wav", "key_press": -1, "type": "PRES_AUD", "word": "driver", "wordID": 498, "conditions": [18, 1200, "a", 18000], "trial": 0, "serialpos": 13, "trial_type": "single-audio", "trial_index": 34, "time_elapsed": 198929, "internal_node_id": "0.0-25.0"}}, {"uniqueid": "MTK0678:31IBVUNM9T6B691IFD6EKVXZ1IVVF5", "current_trial": 35, "dateTime": 1512593063946, "trialdata": {"rt": -1000, "stimulus": "/static/audio/wordpool/DIVER.wav", "key_press": -1, "type": "PRES_AUD", "word": "diver", "wordID": 475, "conditions": [18, 1200, "a", 18000], "trial": 0, "serialpos": 14, "trial_type": "single-audio", "trial_index": 35, "time_elapsed": 201088, "internal_node_id": "0.0-26.0"}}, {"uniqueid": "MTK0678:31IBVUNM9T6B691IFD6EKVXZ1IVVF5", "current_trial": 36, "dateTime": 1512593066068, "trialdata": {"rt": -1000, "stimulus": "/static/audio/wordpool/REPORT.wav", "key_press": -1, "type": "PRES_AUD", "word": "report", "wordID": 1183, "conditions": [18, 1200, "a", 18000], "trial": 0, "serialpos": 15, "trial_type": "single-audio", "trial_index": 36, "time_elapsed": 203210, "internal_node_id": "0.0-27.0"}}, {"uniqueid": "MTK0678:31IBVUNM9T6B691IFD6EKVXZ1IVVF5", "current_trial": 37, "dateTime": 1512593068188, "trialdata": {"rt": -1000, "stimulus": "/static/audio/wordpool/CROWN.wav", "key_press": -1, "type": "PRES_AUD", "word": "crown", "wordID": 414, "conditions": [18, 1200, "a", 18000], "trial": 0, "serialpos": 16, "trial_type": "single-audio", "trial_index": 37, "time_elapsed": 205330, "internal_node_id": "0.0-28.0"}}, {"uniqueid": "MTK0678:31IBVUNM9T6B691IFD6EKVXZ1IVVF5", "current_trial": 38, "dateTime": 1512593070444, "trialdata": {"rt": -1000, "stimulus": "/static/audio/wordpool/TABLE.wav", "key_press": -1, "type": "PRES_AUD", "word": "table", "wordID": 1425, "conditions": [18, 1200, "a", 18000], "trial": 0, "serialpos": 17, "trial_type": "single-audio", "trial_index": 38, "time_elapsed": 207586, "internal_node_id": "0.0-29.0"}}, {"uniqueid": "MTK0678:31IBVUNM9T6B691IFD6EKVXZ1IVVF5", "current_trial": 39, "dateTime": 1512593071774, "trialdata": {"rt": -1, "stimulus": "", "key_press": -1, "type": "PRE_RECALL_DELAY", "trial_type": "single-stim", "trial_index": 39, "time_elapsed": 208916, "internal_node_id": "0.0-30.0-0.0"}}, {"uniqueid": "MTK0678:31IBVUNM9T6B691IFD6EKVXZ1IVVF5", "current_trial": 40, "dateTime": 1512593072287, "trialdata": {"rt": -1000, "stimulus": "/static/audio/400Hz.wav", "key_press": -1, "type": "PRE_RECALL_ALERT", "trial_type": "single-audio", "trial_index": 40, "time_elapsed": 209429, "internal_node_id": "0.0-31.0"}}], "questiondata": {}, "eventdata": [{"eventtype": "initialized", "value": null, "timestamp": 1512592835191, "interval": 0}, {"eventtype": "window_resize", "value": [2560, 1323], "timestamp": 1512592835191, "interval": 0}, {"eventtype": "focus", "value": "on", "timestamp": 1512592836095, "interval": 904}, {"eventtype": "focus", "value": "off", "timestamp": 1512592845482, "interval": 9387}, {"eventtype": "focus", "value": "on", "timestamp": 1512592848811, "interval": 3329}, {"eventtype": "focus", "value": "off", "timestamp": 1512592849873, "interval": 1062}, {"eventtype": "window_resize", "value": [1200, 855], "timestamp": 1512592850143, "interval": 270}, {"eventtype": "focus", "value": "on", "timestamp": 1512592850868, "interval": 725}, {"eventtype": "focus", "value": "off", "timestamp": 1512592852391, "interval": 1523}, {"eventtype": "focus", "value": "on", "timestamp": 1512592856390, "interval": 3999}, {"eventtype": "focus", "value": "off", "timestamp": 1512592859795, "interval": 3405}, {"eventtype": "window_resize", "value": [2560, 1323], "timestamp": 1512592860109, "interval": 314}, {"eventtype": "focus", "value": "on", "timestamp": 1512592860509, "interval": 400}], "useragent": "Mozilla/5.0 (Windows NT 10.0; Win64; x64) AppleWebKit/537.36 (KHTML, like Gecko) Chrome/58.0.3029.110 Safari/537.36 Edge/16.16299", "mode": "live"}