{"condition": 0, "counterbalance": 859, "assignmentId": "32SCWG5HIIB2IWBBS8UBKXV4LLM6P2", "workerId": "MTK0523", "hitId": "3MJ9GGZYO3D5Q7OEQLV9F5TDSQQA2I", "currenttrial": 136, "bonus": 0, "data": [{"uniqueid": "MTK0523:32SCWG5HIIB2IWBBS8UBKXV4LLM6P2", "current_trial": 0, "dateTime": 1511200242304, "trialdata": {"rt": 3361, "key_press": 32, "type": "INSTRUCTIONS", "trial_type": "text", "trial_index": 0, "time_elapsed": 3364, "internal_node_id": "0.0-0.0"}}, {"uniqueid": "MTK0523:32SCWG5HIIB2IWBBS8UBKXV4LLM6P2", "current_trial": 1, "dateTime": 1511200263069, "trialdata": {"rt": 20764, "key_press": 32, "type": "INSTRUCTIONS", "trial_type": "text", "trial_index": 1, "time_elapsed": 24130, "internal_node_id": "0.0-1.0"}}, {"uniqueid": "MTK0523:32SCWG5HIIB2IWBBS8UBKXV4LLM6P2", "current_trial": 2, "dateTime": 1511200279215, "trialdata": {"rt": [16129], "responses": ["ocean"], "type": "AUDIO_TEST", "trial_type": "audio-test", "trial_index": 2, "time_elapsed": 40276, "internal_node_id": "0.0-2.0"}}, {"uniqueid": "MTK0523:32SCWG5HIIB2IWBBS8UBKXV4LLM6P2", "current_trial": 3, "dateTime": 1511200285502, "trialdata": {"rt": [6284], "responses": ["crystal"], "type": "AUDIO_TEST", "trial_type": "audio-test", "trial_index": 3, "time_elapsed": 46563, "internal_node_id": "0.0-3.0"}}, {"uniqueid": "MTK0523:32SCWG5HIIB2IWBBS8UBKXV4LLM6P2", "current_trial": 4, "dateTime": 1511200296765, "trialdata": {"rt": [11261], "responses": ["spice"], "type": "AUDIO_TEST", "trial_type": "audio-test", "trial_index": 4, "time_elapsed": 57826, "internal_node_id": "0.0-4.0"}}, {"uniqueid": "MTK0523:32SCWG5HIIB2IWBBS8UBKXV4LLM6P2", "current_trial": 5, "dateTime": 1511200331140, "trialdata": {"rt": 33621, "responses": "{\"Q0\":\"10:30 p.m.\",\"Q1\":\"7:05 a.m.\",\"Q2\":\"4\"}", "type": "SLEEP_SURVEY", "trial_type": "survey-text", "trial_index": 5, "time_elapsed": 92201, "internal_node_id": "0.0-5.0"}}, {"uniqueid": "MTK0523:32SCWG5HIIB2IWBBS8UBKXV4LLM6P2", "current_trial": 6, "dateTime": 1511200386667, "trialdata": {"rt": 54526, "key_press": 13, "type": "INSTRUCTIONS", "trial_type": "text", "trial_index": 6, "time_elapsed": 147728, "internal_node_id": "0.0-6.0"}}, {"uniqueid": "MTK0523:32SCWG5HIIB2IWBBS8UBKXV4LLM6P2", "current_trial": 7, "dateTime": 1511200400764, "trialdata": {"rt": 13595, "key_press": 13, "type": "INSTRUCTIONS", "trial_type": "text", "trial_index": 7, "time_elapsed": 161825, "internal_node_id": "0.0-7.0"}}, {"uniqueid": "MTK0523:32SCWG5HIIB2IWBBS8UBKXV4LLM6P2", "current_trial": 8, "dateTime": 1511200417285, "trialdata": {"rt": 16019, "key_press": 13, "type": "INSTRUCTIONS", "trial_type": "text", "trial_index": 8, "time_elapsed": 178345, "internal_node_id": "0.0-8.0"}}, {"uniqueid": "MTK0523:32SCWG5HIIB2IWBBS8UBKXV4LLM6P2", "current_trial": 9, "dateTime": 1511200436291, "trialdata": {"rt": [4378, 7114, 9179, 11434, 13402, 15498], "responses": ["17", "14", "13", "8", "12", "10"], "num1": [7, 3, 7, 2, 4, 1, 6], "num2": [1, 8, 2, 2, 5, 5, 2], "num3": [9, 3, 4, 4, 3, 4, 1], "type": "DISTRACTOR", "conditions": [18, 1200, "v", 18000], "trial": 0, "trial_type": "math-distractor", "trial_index": 9, "time_elapsed": 197352, "internal_node_id": "0.0-9.0"}}, {"uniqueid": "MTK0523:32SCWG5HIIB2IWBBS8UBKXV4LLM6P2", "current_trial": 10, "dateTime": 1511200439294, "trialdata": {"rt": -1, "stimulus": "<p id=\"stim\">10</p>", "key_press": -1, "trial_type": "single-stim", "trial_index": 10, "time_elapsed": 200354, "internal_node_id": "0.0-10.0-0.0"}}, {"uniqueid": "MTK0523:32SCWG5HIIB2IWBBS8UBKXV4LLM6P2", "current_trial": 11, "dateTime": 1511200440295, "trialdata": {"rt": -1, "stimulus": "<p id=\"stim\">9</p>", "key_press": -1, "trial_type": "single-stim", "trial_index": 11, "time_elapsed": 201356, "internal_node_id": "0.0-10.0-1.0"}}, {"uniqueid": "MTK0523:32SCWG5HIIB2IWBBS8UBKXV4LLM6P2", "current_trial": 12, "dateTime": 1511200441297, "trialdata": {"rt": -1, "stimulus": "<p id=\"stim\">8</p>", "key_press": -1, "trial_type": "single-stim", "trial_index": 12, "time_elapsed": 202358, "internal_node_id": "0.0-10.0-2.0"}}, {"uniqueid": "MTK0523:32SCWG5HIIB2IWBBS8UBKXV4LLM6P2", "current_trial": 13, "dateTime": 1511200442298, "trialdata": {"rt": -1, "stimulus": "<p id=\"stim\">7</p>", "key_press": -1, "trial_type": "single-stim", "trial_index": 13, "time_elapsed": 203359, "internal_node_id": "0.0-10.0-3.0"}}, {"uniqueid": "MTK0523:32SCWG5HIIB2IWBBS8UBKXV4LLM6P2", "current_trial": 14, "dateTime": 1511200443299, "trialdata": {"rt": -1, "stimulus": "<p id=\"stim\">6</p>", "key_press": -1, "trial_type": "single-stim", "trial_index": 14, "time_elapsed": 204360, "internal_node_id": "0.0-10.0-4.0"}}, {"uniqueid": "MTK0523:32SCWG5HIIB2IWBBS8UBKXV4LLM6P2", "current_trial": 15, "dateTime": 1511200444302, "trialdata": {"rt": -1, "stimulus": "<p id=\"stim\">5</p>", "key_press": -1, "trial_type": "single-stim", "trial_index": 15, "time_elapsed": 205363, "internal_node_id": "0.0-10.0-5.0"}}, {"uniqueid": "MTK0523:32SCWG5HIIB2IWBBS8UBKXV4LLM6P2", "current_trial": 16, "dateTime": 1511200445303, "trialdata": {"rt": -1, "stimulus": "<p id=\"stim\">4</p>", "key_press": -1, "trial_type": "single-stim", "trial_index": 16, "time_elapsed": 206364, "internal_node_id": "0.0-10.0-6.0"}}, {"uniqueid": "MTK0523:32SCWG5HIIB2IWBBS8UBKXV4LLM6P2", "current_trial": 17, "dateTime": 1511200446304, "trialdata": {"rt": -1, "stimulus": "<p id=\"stim\">3</p>", "key_press": -1, "trial_type": "single-stim", "trial_index": 17, "time_elapsed": 207365, "internal_node_id": "0.0-10.0-7.0"}}, {"uniqueid": "MTK0523:32SCWG5HIIB2IWBBS8UBKXV4LLM6P2", "current_trial": 18, "dateTime": 1511200447306, "trialdata": {"rt": -1, "stimulus": "<p id=\"stim\">2</p>", "key_press": -1, "trial_type": "single-stim", "trial_index": 18, "time_elapsed": 208367, "internal_node_id": "0.0-10.0-8.0"}}, {"uniqueid": "MTK0523:32SCWG5HIIB2IWBBS8UBKXV4LLM6P2", "current_trial": 19, "dateTime": 1511200448309, "trialdata": {"rt": -1, "stimulus": "<p id=\"stim\">1</p>", "key_press": -1, "trial_type": "single-stim", "trial_index": 19, "time_elapsed": 209370, "internal_node_id": "0.0-10.0-9.0"}}, {"uniqueid": "MTK0523:32SCWG5HIIB2IWBBS8UBKXV4LLM6P2", "current_trial": 20, "dateTime": 1511200449811, "trialdata": {"rt": -1, "stimulus": "<p id=\"stim\">+</p>", "key_press": -1, "type": "FIXATION", "trial_type": "single-stim", "trial_index": 20, "time_elapsed": 210872, "internal_node_id": "0.0-11.0-0.0"}}, {"uniqueid": "MTK0523:32SCWG5HIIB2IWBBS8UBKXV4LLM6P2", "current_trial": 21, "dateTime": 1511200451013, "trialdata": {"rt": -1, "stimulus": "<p id=\"stim\">DIME</p>", "key_press": -1, "type": "PRES_VIS", "word": "dime", "wordID": 465, "conditions": [18, 1200, "v", 18000], "trial": 0, "serialpos": 0, "trial_type": "single-stim", "trial_index": 21, "time_elapsed": 212074, "internal_node_id": "0.0-12.0"}}, {"uniqueid": "MTK0523:32SCWG5HIIB2IWBBS8UBKXV4LLM6P2", "current_trial": 22, "dateTime": 1511200453301, "trialdata": {"rt": -1, "stimulus": "<p id=\"stim\">DRAGON</p>", "key_press": -1, "type": "PRES_VIS", "word": "dragon", "wordID": 491, "conditions": [18, 1200, "v", 18000], "trial": 0, "serialpos": 1, "trial_type": "single-stim", "trial_index": 22, "time_elapsed": 214362, "internal_node_id": "0.0-13.0"}}, {"uniqueid": "MTK0523:32SCWG5HIIB2IWBBS8UBKXV4LLM6P2", "current_trial": 23, "dateTime": 1511200455580, "trialdata": {"rt": -1, "stimulus": "<p id=\"stim\">SLOPE</p>", "key_press": -1, "type": "PRES_VIS", "word": "slope", "wordID": 1327, "conditions": [18, 1200, "v", 18000], "trial": 0, "serialpos": 2, "trial_type": "single-stim", "trial_index": 23, "time_elapsed": 216641, "internal_node_id": "0.0-14.0"}}, {"uniqueid": "MTK0523:32SCWG5HIIB2IWBBS8UBKXV4LLM6P2", "current_trial": 24, "dateTime": 1511200457730, "trialdata": {"rt": -1, "stimulus": "<p id=\"stim\">SALMON</p>", "key_press": -1, "type": "PRES_VIS", "word": "salmon", "wordID": 1226, "conditions": [18, 1200, "v", 18000], "trial": 0, "serialpos": 3, "trial_type": "single-stim", "trial_index": 24, "time_elapsed": 218791, "internal_node_id": "0.0-15.0"}}, {"uniqueid": "MTK0523:32SCWG5HIIB2IWBBS8UBKXV4LLM6P2", "current_trial": 25, "dateTime": 1511200459881, "trialdata": {"rt": -1, "stimulus": "<p id=\"stim\">SNAIL</p>", "key_press": -1, "type": "PRES_VIS", "word": "snail", "wordID": 1331, "conditions": [18, 1200, "v", 18000], "trial": 0, "serialpos": 4, "trial_type": "single-stim", "trial_index": 25, "time_elapsed": 220942, "internal_node_id": "0.0-16.0"}}, {"uniqueid": "MTK0523:32SCWG5HIIB2IWBBS8UBKXV4LLM6P2", "current_trial": 26, "dateTime": 1511200461961, "trialdata": {"rt": -1, "stimulus": "<p id=\"stim\">FLUTE</p>", "key_press": -1, "type": "PRES_VIS", "word": "flute", "wordID": 584, "conditions": [18, 1200, "v", 18000], "trial": 0, "serialpos": 5, "trial_type": "single-stim", "trial_index": 26, "time_elapsed": 223022, "internal_node_id": "0.0-17.0"}}, {"uniqueid": "MTK0523:32SCWG5HIIB2IWBBS8UBKXV4LLM6P2", "current_trial": 27, "dateTime": 1511200463987, "trialdata": {"rt": -1, "stimulus": "<p id=\"stim\">HAWK</p>", "key_press": -1, "type": "PRES_VIS", "word": "hawk", "wordID": 691, "conditions": [18, 1200, "v", 18000], "trial": 0, "serialpos": 6, "trial_type": "single-stim", "trial_index": 27, "time_elapsed": 225048, "internal_node_id": "0.0-18.0"}}, {"uniqueid": "MTK0523:32SCWG5HIIB2IWBBS8UBKXV4LLM6P2", "current_trial": 28, "dateTime": 1511200466289, "trialdata": {"rt": -1, "stimulus": "<p id=\"stim\">GARDEN</p>", "key_press": -1, "type": "PRES_VIS", "word": "garden", "wordID": 622, "conditions": [18, 1200, "v", 18000], "trial": 0, "serialpos": 7, "trial_type": "single-stim", "trial_index": 28, "time_elapsed": 227350, "internal_node_id": "0.0-19.0"}}, {"uniqueid": "MTK0523:32SCWG5HIIB2IWBBS8UBKXV4LLM6P2", "current_trial": 29, "dateTime": 1511200468495, "trialdata": {"rt": -1, "stimulus": "<p id=\"stim\">TEMPLE</p>", "key_press": -1, "type": "PRES_VIS", "word": "temple", "wordID": 1447, "conditions": [18, 1200, "v", 18000], "trial": 0, "serialpos": 8, "trial_type": "single-stim", "trial_index": 29, "time_elapsed": 229556, "internal_node_id": "0.0-20.0"}}, {"uniqueid": "MTK0523:32SCWG5HIIB2IWBBS8UBKXV4LLM6P2", "current_trial": 30, "dateTime": 1511200470684, "trialdata": {"rt": -1, "stimulus": "<p id=\"stim\">WASHER</p>", "key_press": -1, "type": "PRES_VIS", "word": "washer", "wordID": 1591, "conditions": [18, 1200, "v", 18000], "trial": 0, "serialpos": 9, "trial_type": "single-stim", "trial_index": 30, "time_elapsed": 231744, "internal_node_id": "0.0-21.0"}}, {"uniqueid": "MTK0523:32SCWG5HIIB2IWBBS8UBKXV4LLM6P2", "current_trial": 31, "dateTime": 1511200473028, "trialdata": {"rt": -1, "stimulus": "<p id=\"stim\">MESSAGE</p>", "key_press": -1, "type": "PRES_VIS", "word": "message", "wordID": 887, "conditions": [18, 1200, "v", 18000], "trial": 0, "serialpos": 10, "trial_type": "single-stim", "trial_index": 31, "time_elapsed": 234089, "internal_node_id": "0.0-22.0"}}, {"uniqueid": "MTK0523:32SCWG5HIIB2IWBBS8UBKXV4LLM6P2", "current_trial": 32, "dateTime": 1511200475090, "trialdata": {"rt": -1, "stimulus": "<p id=\"stim\">MARSH</p>", "key_press": -1, "type": "PRES_VIS", "word": "marsh", "wordID": 873, "conditions": [18, 1200, "v", 18000], "trial": 0, "serialpos": 11, "trial_type": "single-stim", "trial_index": 32, "time_elapsed": 236151, "internal_node_id": "0.0-23.0"}}, {"uniqueid": "MTK0523:32SCWG5HIIB2IWBBS8UBKXV4LLM6P2", "current_trial": 33, "dateTime": 1511200477308, "trialdata": {"rt": -1, "stimulus": "<p id=\"stim\">SERVER</p>", "key_press": -1, "type": "PRES_VIS", "word": "server", "wordID": 1271, "conditions": [18, 1200, "v", 18000], "trial": 0, "serialpos": 12, "trial_type": "single-stim", "trial_index": 33, "time_elapsed": 238369, "internal_node_id": "0.0-24.0"}}, {"uniqueid": "MTK0523:32SCWG5HIIB2IWBBS8UBKXV4LLM6P2", "current_trial": 34, "dateTime": 1511200479323, "trialdata": {"rt": -1, "stimulus": "<p id=\"stim\">SPIDER</p>", "key_press": -1, "type": "PRES_VIS", "word": "spider", "wordID": 1350, "conditions": [18, 1200, "v", 18000], "trial": 0, "serialpos": 13, "trial_type": "single-stim", "trial_index": 34, "time_elapsed": 240384, "internal_node_id": "0.0-25.0"}}, {"uniqueid": "MTK0523:32SCWG5HIIB2IWBBS8UBKXV4LLM6P2", "current_trial": 35, "dateTime": 1511200481570, "trialdata": {"rt": -1, "stimulus": "<p id=\"stim\">SHORTCAKE</p>", "key_press": -1, "type": "PRES_VIS", "word": "shortcake", "wordID": 1291, "conditions": [18, 1200, "v", 18000], "trial": 0, "serialpos": 14, "trial_type": "single-stim", "trial_index": 35, "time_elapsed": 242631, "internal_node_id": "0.0-26.0"}}, {"uniqueid": "MTK0523:32SCWG5HIIB2IWBBS8UBKXV4LLM6P2", "current_trial": 36, "dateTime": 1511200483724, "trialdata": {"rt": -1, "stimulus": "<p id=\"stim\">BROTHER</p>", "key_press": -1, "type": "PRES_VIS", "word": "brother", "wordID": 178, "conditions": [18, 1200, "v", 18000], "trial": 0, "serialpos": 15, "trial_type": "single-stim", "trial_index": 36, "time_elapsed": 244785, "internal_node_id": "0.0-27.0"}}, {"uniqueid": "MTK0523:32SCWG5HIIB2IWBBS8UBKXV4LLM6P2", "current_trial": 37, "dateTime": 1511200485978, "trialdata": {"rt": -1, "stimulus": "<p id=\"stim\">RIVER</p>", "key_press": -1, "type": "PRES_VIS", "word": "river", "wordID": 1193, "conditions": [18, 1200, "v", 18000], "trial": 0, "serialpos": 16, "trial_type": "single-stim", "trial_index": 37, "time_elapsed": 247039, "internal_node_id": "0.0-28.0"}}, {"uniqueid": "MTK0523:32SCWG5HIIB2IWBBS8UBKXV4LLM6P2", "current_trial": 38, "dateTime": 1511200488207, "trialdata": {"rt": -1, "stimulus": "<p id=\"stim\">MISTER</p>", "key_press": -1, "type": "PRES_VIS", "word": "mister", "wordID": 900, "conditions": [18, 1200, "v", 18000], "trial": 0, "serialpos": 17, "trial_type": "single-stim", "trial_index": 38, "time_elapsed": 249268, "internal_node_id": "0.0-29.0"}}, {"uniqueid": "MTK0523:32SCWG5HIIB2IWBBS8UBKXV4LLM6P2", "current_trial": 39, "dateTime": 1511200490421, "trialdata": {"rt": -1, "stimulus": "", "key_press": -1, "type": "PRE_RECALL_DELAY", "trial_type": "single-stim", "trial_index": 39, "time_elapsed": 251482, "internal_node_id": "0.0-30.0-0.0"}}, {"uniqueid": "MTK0523:32SCWG5HIIB2IWBBS8UBKXV4LLM6P2", "current_trial": 40, "dateTime": 1511200490924, "trialdata": {"rt": -1000, "stimulus": "/static/audio/400Hz.wav", "key_press": -1, "type": "PRE_RECALL_ALERT", "trial_type": "single-audio", "trial_index": 40, "time_elapsed": 251985, "internal_node_id": "0.0-31.0"}}, {"uniqueid": "MTK0523:32SCWG5HIIB2IWBBS8UBKXV4LLM6P2", "current_trial": 41, "dateTime": 1511200550930, "trialdata": {"rt": [3901, 7261, 9101, 11660, 17693, 20636, 26205, 40542], "recwords": ["spider", "salmon", "slope", "dragon", "brother", "smoke", "hawk", "snail"], "type": "FREE_RECALL", "conditions": [18, 1200, "v", 18000], "trial": 0, "trial_type": "free-recall", "trial_index": 41, "time_elapsed": 311989, "internal_node_id": "0.0-32.0-0.0"}}, {"uniqueid": "MTK0523:32SCWG5HIIB2IWBBS8UBKXV4LLM6P2", "current_trial": 42, "dateTime": 1511200554268, "trialdata": {"rt": 1336, "key_press": 32, "type": "INSTRUCTIONS", "trial_type": "text", "trial_index": 42, "time_elapsed": 315329, "internal_node_id": "0.0-33.0"}}, {"uniqueid": "MTK0523:32SCWG5HIIB2IWBBS8UBKXV4LLM6P2", "current_trial": 43, "dateTime": 1511200574273, "trialdata": {"rt": [2189, 3933, 5597, 8205, 10573, 13805, 16957], "responses": ["12", "14", "7", "15", "11", "25", "20"], "num1": [5, 6, 5, 3, 5, 9, 6, 7], "num2": [6, 6, 1, 2, 3, 9, 5, 3], "num3": [1, 2, 1, 6, 3, 7, 9, 8], "type": "DISTRACTOR", "conditions": [18, 1200, "a", 18000], "trial": 1, "trial_type": "math-distractor", "trial_index": 43, "time_elapsed": 335332, "internal_node_id": "0.0-34.0"}}, {"uniqueid": "MTK0523:32SCWG5HIIB2IWBBS8UBKXV4LLM6P2", "current_trial": 44, "dateTime": 1511200577275, "trialdata": {"rt": -1, "stimulus": "<p id=\"stim\">10</p>", "key_press": -1, "trial_type": "single-stim", "trial_index": 44, "time_elapsed": 338336, "internal_node_id": "0.0-35.0-0.0"}}, {"uniqueid": "MTK0523:32SCWG5HIIB2IWBBS8UBKXV4LLM6P2", "current_trial": 45, "dateTime": 1511200578276, "trialdata": {"rt": -1, "stimulus": "<p id=\"stim\">9</p>", "key_press": -1, "trial_type": "single-stim", "trial_index": 45, "time_elapsed": 339337, "internal_node_id": "0.0-35.0-1.0"}}, {"uniqueid": "MTK0523:32SCWG5HIIB2IWBBS8UBKXV4LLM6P2", "current_trial": 46, "dateTime": 1511200579278, "trialdata": {"rt": -1, "stimulus": "<p id=\"stim\">8</p>", "key_press": -1, "trial_type": "single-stim", "trial_index": 46, "time_elapsed": 340339, "internal_node_id": "0.0-35.0-2.0"}}, {"uniqueid": "MTK0523:32SCWG5HIIB2IWBBS8UBKXV4LLM6P2", "current_trial": 47, "dateTime": 1511200580279, "trialdata": {"rt": -1, "stimulus": "<p id=\"stim\">7</p>", "key_press": -1, "trial_type": "single-stim", "trial_index": 47, "time_elapsed": 341340, "internal_node_id": "0.0-35.0-3.0"}}, {"uniqueid": "MTK0523:32SCWG5HIIB2IWBBS8UBKXV4LLM6P2", "current_trial": 48, "dateTime": 1511200581280, "trialdata": {"rt": -1, "stimulus": "<p id=\"stim\">6</p>", "key_press": -1, "trial_type": "single-stim", "trial_index": 48, "time_elapsed": 342341, "internal_node_id": "0.0-35.0-4.0"}}, {"uniqueid": "MTK0523:32SCWG5HIIB2IWBBS8UBKXV4LLM6P2", "current_trial": 49, "dateTime": 1511200582282, "trialdata": {"rt": -1, "stimulus": "<p id=\"stim\">5</p>", "key_press": -1, "trial_type": "single-stim", "trial_index": 49, "time_elapsed": 343343, "internal_node_id": "0.0-35.0-5.0"}}, {"uniqueid": "MTK0523:32SCWG5HIIB2IWBBS8UBKXV4LLM6P2", "current_trial": 50, "dateTime": 1511200583283, "trialdata": {"rt": -1, "stimulus": "<p id=\"stim\">4</p>", "key_press": -1, "trial_type": "single-stim", "trial_index": 50, "time_elapsed": 344344, "internal_node_id": "0.0-35.0-6.0"}}, {"uniqueid": "MTK0523:32SCWG5HIIB2IWBBS8UBKXV4LLM6P2", "current_trial": 51, "dateTime": 1511200584284, "trialdata": {"rt": -1, "stimulus": "<p id=\"stim\">3</p>", "key_press": -1, "trial_type": "single-stim", "trial_index": 51, "time_elapsed": 345345, "internal_node_id": "0.0-35.0-7.0"}}, {"uniqueid": "MTK0523:32SCWG5HIIB2IWBBS8UBKXV4LLM6P2", "current_trial": 52, "dateTime": 1511200585286, "trialdata": {"rt": -1, "stimulus": "<p id=\"stim\">2</p>", "key_press": -1, "trial_type": "single-stim", "trial_index": 52, "time_elapsed": 346347, "internal_node_id": "0.0-35.0-8.0"}}, {"uniqueid": "MTK0523:32SCWG5HIIB2IWBBS8UBKXV4LLM6P2", "current_trial": 53, "dateTime": 1511200586287, "trialdata": {"rt": -1, "stimulus": "<p id=\"stim\">1</p>", "key_press": -1, "trial_type": "single-stim", "trial_index": 53, "time_elapsed": 347348, "internal_node_id": "0.0-35.0-9.0"}}, {"uniqueid": "MTK0523:32SCWG5HIIB2IWBBS8UBKXV4LLM6P2", "current_trial": 54, "dateTime": 1511200587788, "trialdata": {"rt": -1, "stimulus": "<p id=\"stim\">+</p>", "key_press": -1, "type": "FIXATION", "trial_type": "single-stim", "trial_index": 54, "time_elapsed": 348849, "internal_node_id": "0.0-36.0-0.0"}}, {"uniqueid": "MTK0523:32SCWG5HIIB2IWBBS8UBKXV4LLM6P2", "current_trial": 55, "dateTime": 1511200590020, "trialdata": {"rt": -1000, "stimulus": "/static/audio/wordpool/SILK.wav", "key_press": -1, "type": "PRES_AUD", "word": "silk", "wordID": 1306, "conditions": [18, 1200, "a", 18000], "trial": 1, "serialpos": 0, "trial_type": "single-audio", "trial_index": 55, "time_elapsed": 351080, "internal_node_id": "0.0-37.0"}}, {"uniqueid": "MTK0523:32SCWG5HIIB2IWBBS8UBKXV4LLM6P2", "current_trial": 56, "dateTime": 1511200592203, "trialdata": {"rt": -1000, "stimulus": "/static/audio/wordpool/REPORT.wav", "key_press": -1, "type": "PRES_AUD", "word": "report", "wordID": 1183, "conditions": [18, 1200, "a", 18000], "trial": 1, "serialpos": 1, "trial_type": "single-audio", "trial_index": 56, "time_elapsed": 353264, "internal_node_id": "0.0-38.0"}}, {"uniqueid": "MTK0523:32SCWG5HIIB2IWBBS8UBKXV4LLM6P2", "current_trial": 57, "dateTime": 1511200594559, "trialdata": {"rt": -1000, "stimulus": "/static/audio/wordpool/SEAFOOD.wav", "key_press": -1, "type": "PRES_AUD", "word": "seafood", "wordID": 1259, "conditions": [18, 1200, "a", 18000], "trial": 1, "serialpos": 2, "trial_type": "single-audio", "trial_index": 57, "time_elapsed": 355619, "internal_node_id": "0.0-39.0"}}, {"uniqueid": "MTK0523:32SCWG5HIIB2IWBBS8UBKXV4LLM6P2", "current_trial": 58, "dateTime": 1511200596593, "trialdata": {"rt": -1000, "stimulus": "/static/audio/wordpool/SHORTS.wav", "key_press": -1, "type": "PRES_AUD", "word": "shorts", "wordID": 1292, "conditions": [18, 1200, "a", 18000], "trial": 1, "serialpos": 3, "trial_type": "single-audio", "trial_index": 58, "time_elapsed": 357653, "internal_node_id": "0.0-40.0"}}, {"uniqueid": "MTK0523:32SCWG5HIIB2IWBBS8UBKXV4LLM6P2", "current_trial": 59, "dateTime": 1511200598931, "trialdata": {"rt": -1000, "stimulus": "/static/audio/wordpool/HELMET.wav", "key_press": -1, "type": "PRES_AUD", "word": "helmet", "wordID": 701, "conditions": [18, 1200, "a", 18000], "trial": 1, "serialpos": 4, "trial_type": "single-audio", "trial_index": 59, "time_elapsed": 359991, "internal_node_id": "0.0-41.0"}}, {"uniqueid": "MTK0523:32SCWG5HIIB2IWBBS8UBKXV4LLM6P2", "current_trial": 60, "dateTime": 1511200600935, "trialdata": {"rt": -1000, "stimulus": "/static/audio/wordpool/LADY.wav", "key_press": -1, "type": "PRES_AUD", "word": "lady", "wordID": 793, "conditions": [18, 1200, "a", 18000], "trial": 1, "serialpos": 5, "trial_type": "single-audio", "trial_index": 60, "time_elapsed": 361995, "internal_node_id": "0.0-42.0"}}, {"uniqueid": "MTK0523:32SCWG5HIIB2IWBBS8UBKXV4LLM6P2", "current_trial": 61, "dateTime": 1511200603148, "trialdata": {"rt": -1000, "stimulus": "/static/audio/wordpool/SUNSET.wav", "key_press": -1, "type": "PRES_AUD", "word": "sunset", "wordID": 1407, "conditions": [18, 1200, "a", 18000], "trial": 1, "serialpos": 6, "trial_type": "single-audio", "trial_index": 61, "time_elapsed": 364209, "internal_node_id": "0.0-43.0"}}, {"uniqueid": "MTK0523:32SCWG5HIIB2IWBBS8UBKXV4LLM6P2", "current_trial": 62, "dateTime": 1511200605312, "trialdata": {"rt": -1000, "stimulus": "/static/audio/wordpool/JELLY.wav", "key_press": -1, "type": "PRES_AUD", "word": "jelly", "wordID": 754, "conditions": [18, 1200, "a", 18000], "trial": 1, "serialpos": 7, "trial_type": "single-audio", "trial_index": 62, "time_elapsed": 366372, "internal_node_id": "0.0-44.0"}}, {"uniqueid": "MTK0523:32SCWG5HIIB2IWBBS8UBKXV4LLM6P2", "current_trial": 63, "dateTime": 1511200607626, "trialdata": {"rt": -1000, "stimulus": "/static/audio/wordpool/BADGE.wav", "key_press": -1, "type": "PRES_AUD", "word": "badge", "wordID": 67, "conditions": [18, 1200, "a", 18000], "trial": 1, "serialpos": 8, "trial_type": "single-audio", "trial_index": 63, "time_elapsed": 368687, "internal_node_id": "0.0-45.0"}}, {"uniqueid": "MTK0523:32SCWG5HIIB2IWBBS8UBKXV4LLM6P2", "current_trial": 64, "dateTime": 1511200609782, "trialdata": {"rt": -1000, "stimulus": "/static/audio/wordpool/GROUND.wav", "key_press": -1, "type": "PRES_AUD", "word": "ground", "wordID": 665, "conditions": [18, 1200, "a", 18000], "trial": 1, "serialpos": 9, "trial_type": "single-audio", "trial_index": 64, "time_elapsed": 370842, "internal_node_id": "0.0-46.0"}}, {"uniqueid": "MTK0523:32SCWG5HIIB2IWBBS8UBKXV4LLM6P2", "current_trial": 65, "dateTime": 1511200611802, "trialdata": {"rt": -1000, "stimulus": "/static/audio/wordpool/POISON.wav", "key_press": -1, "type": "PRES_AUD", "word": "poison", "wordID": 1095, "conditions": [18, 1200, "a", 18000], "trial": 1, "serialpos": 10, "trial_type": "single-audio", "trial_index": 65, "time_elapsed": 372863, "internal_node_id": "0.0-47.0"}}, {"uniqueid": "MTK0523:32SCWG5HIIB2IWBBS8UBKXV4LLM6P2", "current_trial": 66, "dateTime": 1511200614136, "trialdata": {"rt": -1000, "stimulus": "/static/audio/wordpool/RECORD.wav", "key_press": -1, "type": "PRES_AUD", "word": "record", "wordID": 1175, "conditions": [18, 1200, "a", 18000], "trial": 1, "serialpos": 11, "trial_type": "single-audio", "trial_index": 66, "time_elapsed": 375197, "internal_node_id": "0.0-48.0"}}, {"uniqueid": "MTK0523:32SCWG5HIIB2IWBBS8UBKXV4LLM6P2", "current_trial": 67, "dateTime": 1511200616335, "trialdata": {"rt": -1000, "stimulus": "/static/audio/wordpool/TURTLE.wav", "key_press": -1, "type": "PRES_AUD", "word": "turtle", "wordID": 1521, "conditions": [18, 1200, "a", 18000], "trial": 1, "serialpos": 12, "trial_type": "single-audio", "trial_index": 67, "time_elapsed": 377396, "internal_node_id": "0.0-49.0"}}, {"uniqueid": "MTK0523:32SCWG5HIIB2IWBBS8UBKXV4LLM6P2", "current_trial": 68, "dateTime": 1511200618679, "trialdata": {"rt": -1000, "stimulus": "/static/audio/wordpool/COMET.wav", "key_press": -1, "type": "PRES_AUD", "word": "comet", "wordID": 352, "conditions": [18, 1200, "a", 18000], "trial": 1, "serialpos": 13, "trial_type": "single-audio", "trial_index": 68, "time_elapsed": 379737, "internal_node_id": "0.0-50.0"}}, {"uniqueid": "MTK0523:32SCWG5HIIB2IWBBS8UBKXV4LLM6P2", "current_trial": 69, "dateTime": 1511200620847, "trialdata": {"rt": -1000, "stimulus": "/static/audio/wordpool/SHERIFF.wav", "key_press": -1, "type": "PRES_AUD", "word": "sheriff", "wordID": 1283, "conditions": [18, 1200, "a", 18000], "trial": 1, "serialpos": 14, "trial_type": "single-audio", "trial_index": 69, "time_elapsed": 381907, "internal_node_id": "0.0-51.0"}}, {"uniqueid": "MTK0523:32SCWG5HIIB2IWBBS8UBKXV4LLM6P2", "current_trial": 70, "dateTime": 1511200622863, "trialdata": {"rt": -1000, "stimulus": "/static/audio/wordpool/AGENT.wav", "key_press": -1, "type": "PRES_AUD", "word": "agent", "wordID": 9, "conditions": [18, 1200, "a", 18000], "trial": 1, "serialpos": 15, "trial_type": "single-audio", "trial_index": 70, "time_elapsed": 383923, "internal_node_id": "0.0-52.0"}}, {"uniqueid": "MTK0523:32SCWG5HIIB2IWBBS8UBKXV4LLM6P2", "current_trial": 71, "dateTime": 1511200625108, "trialdata": {"rt": -1000, "stimulus": "/static/audio/wordpool/LODGE.wav", "key_press": -1, "type": "PRES_AUD", "word": "lodge", "wordID": 838, "conditions": [18, 1200, "a", 18000], "trial": 1, "serialpos": 16, "trial_type": "single-audio", "trial_index": 71, "time_elapsed": 386169, "internal_node_id": "0.0-53.0"}}, {"uniqueid": "MTK0523:32SCWG5HIIB2IWBBS8UBKXV4LLM6P2", "current_trial": 72, "dateTime": 1511200627369, "trialdata": {"rt": -1000, "stimulus": "/static/audio/wordpool/FRAME.wav", "key_press": -1, "type": "PRES_AUD", "word": "frame", "wordID": 599, "conditions": [18, 1200, "a", 18000], "trial": 1, "serialpos": 17, "trial_type": "single-audio", "trial_index": 72, "time_elapsed": 388429, "internal_node_id": "0.0-54.0"}}, {"uniqueid": "MTK0523:32SCWG5HIIB2IWBBS8UBKXV4LLM6P2", "current_trial": 73, "dateTime": 1511200628723, "trialdata": {"rt": -1, "stimulus": "", "key_press": -1, "type": "PRE_RECALL_DELAY", "trial_type": "single-stim", "trial_index": 73, "time_elapsed": 389783, "internal_node_id": "0.0-55.0-0.0"}}, {"uniqueid": "MTK0523:32SCWG5HIIB2IWBBS8UBKXV4LLM6P2", "current_trial": 74, "dateTime": 1511200629224, "trialdata": {"rt": -1000, "stimulus": "/static/audio/400Hz.wav", "key_press": -1, "type": "PRE_RECALL_ALERT", "trial_type": "single-audio", "trial_index": 74, "time_elapsed": 390285, "internal_node_id": "0.0-56.0"}}, {"uniqueid": "MTK0523:32SCWG5HIIB2IWBBS8UBKXV4LLM6P2", "current_trial": 75, "dateTime": 1511200689231, "trialdata": {"rt": [2834, 4882, 9937, 11202, 16241, 20018, 22354], "recwords": ["frame", "agent", "lodge", "fire", "silk", "badge", "lodge"], "type": "FREE_RECALL", "conditions": [18, 1200, "a", 18000], "trial": 1, "trial_type": "free-recall", "trial_index": 75, "time_elapsed": 450289, "internal_node_id": "0.0-57.0-0.0"}}, {"uniqueid": "MTK0523:32SCWG5HIIB2IWBBS8UBKXV4LLM6P2", "current_trial": 76, "dateTime": 1511200693647, "trialdata": {"rt": 2411, "key_press": 32, "type": "INSTRUCTIONS", "trial_type": "text", "trial_index": 76, "time_elapsed": 454704, "internal_node_id": "0.0-58.0"}}, {"uniqueid": "MTK0523:32SCWG5HIIB2IWBBS8UBKXV4LLM6P2", "current_trial": 77, "dateTime": 1511200706649, "trialdata": {"rt": [3954, 7186, 10642], "responses": ["21", "15", "14"], "num1": [8, 5, 6, 4], "num2": [8, 1, 1, 5], "num3": [5, 9, 7, 2], "type": "DISTRACTOR", "conditions": [24, 1600, "v", 12000], "trial": 2, "trial_type": "math-distractor", "trial_index": 77, "time_elapsed": 467710, "internal_node_id": "0.0-59.0"}}, {"uniqueid": "MTK0523:32SCWG5HIIB2IWBBS8UBKXV4LLM6P2", "current_trial": 78, "dateTime": 1511200709651, "trialdata": {"rt": -1, "stimulus": "<p id=\"stim\">10</p>", "key_press": -1, "trial_type": "single-stim", "trial_index": 78, "time_elapsed": 470712, "internal_node_id": "0.0-60.0-0.0"}}, {"uniqueid": "MTK0523:32SCWG5HIIB2IWBBS8UBKXV4LLM6P2", "current_trial": 79, "dateTime": 1511200710652, "trialdata": {"rt": -1, "stimulus": "<p id=\"stim\">9</p>", "key_press": -1, "trial_type": "single-stim", "trial_index": 79, "time_elapsed": 471713, "internal_node_id": "0.0-60.0-1.0"}}, {"uniqueid": "MTK0523:32SCWG5HIIB2IWBBS8UBKXV4LLM6P2", "current_trial": 80, "dateTime": 1511200711653, "trialdata": {"rt": -1, "stimulus": "<p id=\"stim\">8</p>", "key_press": -1, "trial_type": "single-stim", "trial_index": 80, "time_elapsed": 472714, "internal_node_id": "0.0-60.0-2.0"}}, {"uniqueid": "MTK0523:32SCWG5HIIB2IWBBS8UBKXV4LLM6P2", "current_trial": 81, "dateTime": 1511200712654, "trialdata": {"rt": -1, "stimulus": "<p id=\"stim\">7</p>", "key_press": -1, "trial_type": "single-stim", "trial_index": 81, "time_elapsed": 473715, "internal_node_id": "0.0-60.0-3.0"}}, {"uniqueid": "MTK0523:32SCWG5HIIB2IWBBS8UBKXV4LLM6P2", "current_trial": 82, "dateTime": 1511200713655, "trialdata": {"rt": -1, "stimulus": "<p id=\"stim\">6</p>", "key_press": -1, "trial_type": "single-stim", "trial_index": 82, "time_elapsed": 474716, "internal_node_id": "0.0-60.0-4.0"}}, {"uniqueid": "MTK0523:32SCWG5HIIB2IWBBS8UBKXV4LLM6P2", "current_trial": 83, "dateTime": 1511200714657, "trialdata": {"rt": -1, "stimulus": "<p id=\"stim\">5</p>", "key_press": -1, "trial_type": "single-stim", "trial_index": 83, "time_elapsed": 475718, "internal_node_id": "0.0-60.0-5.0"}}, {"uniqueid": "MTK0523:32SCWG5HIIB2IWBBS8UBKXV4LLM6P2", "current_trial": 84, "dateTime": 1511200715658, "trialdata": {"rt": -1, "stimulus": "<p id=\"stim\">4</p>", "key_press": -1, "trial_type": "single-stim", "trial_index": 84, "time_elapsed": 476719, "internal_node_id": "0.0-60.0-6.0"}}, {"uniqueid": "MTK0523:32SCWG5HIIB2IWBBS8UBKXV4LLM6P2", "current_trial": 85, "dateTime": 1511200716660, "trialdata": {"rt": -1, "stimulus": "<p id=\"stim\">3</p>", "key_press": -1, "trial_type": "single-stim", "trial_index": 85, "time_elapsed": 477721, "internal_node_id": "0.0-60.0-7.0"}}, {"uniqueid": "MTK0523:32SCWG5HIIB2IWBBS8UBKXV4LLM6P2", "current_trial": 86, "dateTime": 1511200717662, "trialdata": {"rt": -1, "stimulus": "<p id=\"stim\">2</p>", "key_press": -1, "trial_type": "single-stim", "trial_index": 86, "time_elapsed": 478723, "internal_node_id": "0.0-60.0-8.0"}}, {"uniqueid": "MTK0523:32SCWG5HIIB2IWBBS8UBKXV4LLM6P2", "current_trial": 87, "dateTime": 1511200718663, "trialdata": {"rt": -1, "stimulus": "<p id=\"stim\">1</p>", "key_press": -1, "trial_type": "single-stim", "trial_index": 87, "time_elapsed": 479724, "internal_node_id": "0.0-60.0-9.0"}}, {"uniqueid": "MTK0523:32SCWG5HIIB2IWBBS8UBKXV4LLM6P2", "current_trial": 88, "dateTime": 1511200720165, "trialdata": {"rt": -1, "stimulus": "<p id=\"stim\">+</p>", "key_press": -1, "type": "FIXATION", "trial_type": "single-stim", "trial_index": 88, "time_elapsed": 481226, "internal_node_id": "0.0-61.0-0.0"}}, {"uniqueid": "MTK0523:32SCWG5HIIB2IWBBS8UBKXV4LLM6P2", "current_trial": 89, "dateTime": 1511200721768, "trialdata": {"rt": -1, "stimulus": "<p id=\"stim\">SPOON</p>", "key_press": -1, "type": "PRES_VIS", "word": "spoon", "wordID": 1356, "conditions": [24, 1600, "v", 12000], "trial": 2, "serialpos": 0, "trial_type": "single-stim", "trial_index": 89, "time_elapsed": 482829, "internal_node_id": "0.0-62.0"}}, {"uniqueid": "MTK0523:32SCWG5HIIB2IWBBS8UBKXV4LLM6P2", "current_trial": 90, "dateTime": 1511200724392, "trialdata": {"rt": -1, "stimulus": "<p id=\"stim\">SISTER</p>", "key_press": -1, "type": "PRES_VIS", "word": "sister", "wordID": 1311, "conditions": [24, 1600, "v", 12000], "trial": 2, "serialpos": 1, "trial_type": "single-stim", "trial_index": 90, "time_elapsed": 485453, "internal_node_id": "0.0-63.0"}}, {"uniqueid": "MTK0523:32SCWG5HIIB2IWBBS8UBKXV4LLM6P2", "current_trial": 91, "dateTime": 1511200727100, "trialdata": {"rt": -1, "stimulus": "<p id=\"stim\">APPLE</p>", "key_press": -1, "type": "PRES_VIS", "word": "apple", "wordID": 32, "conditions": [24, 1600, "v", 12000], "trial": 2, "serialpos": 2, "trial_type": "single-stim", "trial_index": 91, "time_elapsed": 488161, "internal_node_id": "0.0-64.0"}}, {"uniqueid": "MTK0523:32SCWG5HIIB2IWBBS8UBKXV4LLM6P2", "current_trial": 92, "dateTime": 1511200729623, "trialdata": {"rt": -1, "stimulus": "<p id=\"stim\">TORTOISE</p>", "key_press": -1, "type": "PRES_VIS", "word": "tortoise", "wordID": 1485, "conditions": [24, 1600, "v", 12000], "trial": 2, "serialpos": 3, "trial_type": "single-stim", "trial_index": 92, "time_elapsed": 490684, "internal_node_id": "0.0-65.0"}}, {"uniqueid": "MTK0523:32SCWG5HIIB2IWBBS8UBKXV4LLM6P2", "current_trial": 93, "dateTime": 1511200732166, "trialdata": {"rt": -1, "stimulus": "<p id=\"stim\">LION</p>", "key_press": -1, "type": "PRES_VIS", "word": "lion", "wordID": 826, "conditions": [24, 1600, "v", 12000], "trial": 2, "serialpos": 4, "trial_type": "single-stim", "trial_index": 93, "time_elapsed": 493227, "internal_node_id": "0.0-66.0"}}, {"uniqueid": "MTK0523:32SCWG5HIIB2IWBBS8UBKXV4LLM6P2", "current_trial": 94, "dateTime": 1511200734591, "trialdata": {"rt": -1, "stimulus": "<p id=\"stim\">TWIG</p>", "key_press": -1, "type": "PRES_VIS", "word": "twig", "wordID": 1526, "conditions": [24, 1600, "v", 12000], "trial": 2, "serialpos": 5, "trial_type": "single-stim", "trial_index": 94, "time_elapsed": 495652, "internal_node_id": "0.0-67.0"}}, {"uniqueid": "MTK0523:32SCWG5HIIB2IWBBS8UBKXV4LLM6P2", "current_trial": 95, "dateTime": 1511200737186, "trialdata": {"rt": -1, "stimulus": "<p id=\"stim\">ATLAS</p>", "key_press": -1, "type": "PRES_VIS", "word": "atlas", "wordID": 52, "conditions": [24, 1600, "v", 12000], "trial": 2, "serialpos": 6, "trial_type": "single-stim", "trial_index": 95, "time_elapsed": 498247, "internal_node_id": "0.0-68.0"}}, {"uniqueid": "MTK0523:32SCWG5HIIB2IWBBS8UBKXV4LLM6P2", "current_trial": 96, "dateTime": 1511200739953, "trialdata": {"rt": -1, "stimulus": "<p id=\"stim\">MONSTER</p>", "key_press": -1, "type": "PRES_VIS", "word": "monster", "wordID": 911, "conditions": [24, 1600, "v", 12000], "trial": 2, "serialpos": 7, "trial_type": "single-stim", "trial_index": 96, "time_elapsed": 501014, "internal_node_id": "0.0-69.0"}}, {"uniqueid": "MTK0523:32SCWG5HIIB2IWBBS8UBKXV4LLM6P2", "current_trial": 97, "dateTime": 1511200742417, "trialdata": {"rt": -1, "stimulus": "<p id=\"stim\">TABLE</p>", "key_press": -1, "type": "PRES_VIS", "word": "table", "wordID": 1425, "conditions": [24, 1600, "v", 12000], "trial": 2, "serialpos": 8, "trial_type": "single-stim", "trial_index": 97, "time_elapsed": 503478, "internal_node_id": "0.0-70.0"}}, {"uniqueid": "MTK0523:32SCWG5HIIB2IWBBS8UBKXV4LLM6P2", "current_trial": 98, "dateTime": 1511200744967, "trialdata": {"rt": -1, "stimulus": "<p id=\"stim\">SKILLET</p>", "key_press": -1, "type": "PRES_VIS", "word": "skillet", "wordID": 1316, "conditions": [24, 1600, "v", 12000], "trial": 2, "serialpos": 9, "trial_type": "single-stim", "trial_index": 98, "time_elapsed": 506028, "internal_node_id": "0.0-71.0"}}, {"uniqueid": "MTK0523:32SCWG5HIIB2IWBBS8UBKXV4LLM6P2", "current_trial": 99, "dateTime": 1511200747603, "trialdata": {"rt": -1, "stimulus": "<p id=\"stim\">SUSPECT</p>", "key_press": -1, "type": "PRES_VIS", "word": "suspect", "wordID": 1414, "conditions": [24, 1600, "v", 12000], "trial": 2, "serialpos": 10, "trial_type": "single-stim", "trial_index": 99, "time_elapsed": 508664, "internal_node_id": "0.0-72.0"}}, {"uniqueid": "MTK0523:32SCWG5HIIB2IWBBS8UBKXV4LLM6P2", "current_trial": 100, "dateTime": 1511200750320, "trialdata": {"rt": -1, "stimulus": "<p id=\"stim\">ROBBER</p>", "key_press": -1, "type": "PRES_VIS", "word": "robber", "wordID": 1196, "conditions": [24, 1600, "v", 12000], "trial": 2, "serialpos": 11, "trial_type": "single-stim", "trial_index": 100, "time_elapsed": 511381, "internal_node_id": "0.0-73.0"}}, {"uniqueid": "MTK0523:32SCWG5HIIB2IWBBS8UBKXV4LLM6P2", "current_trial": 101, "dateTime": 1511200752816, "trialdata": {"rt": -1, "stimulus": "<p id=\"stim\">BURGLAR</p>", "key_press": -1, "type": "PRES_VIS", "word": "burglar", "wordID": 199, "conditions": [24, 1600, "v", 12000], "trial": 2, "serialpos": 12, "trial_type": "single-stim", "trial_index": 101, "time_elapsed": 513877, "internal_node_id": "0.0-74.0"}}, {"uniqueid": "MTK0523:32SCWG5HIIB2IWBBS8UBKXV4LLM6P2", "current_trial": 102, "dateTime": 1511200755538, "trialdata": {"rt": -1, "stimulus": "<p id=\"stim\">CONVICT</p>", "key_press": -1, "type": "PRES_VIS", "word": "convict", "wordID": 370, "conditions": [24, 1600, "v", 12000], "trial": 2, "serialpos": 13, "trial_type": "single-stim", "trial_index": 102, "time_elapsed": 516599, "internal_node_id": "0.0-75.0"}}, {"uniqueid": "MTK0523:32SCWG5HIIB2IWBBS8UBKXV4LLM6P2", "current_trial": 103, "dateTime": 1511200757958, "trialdata": {"rt": -1, "stimulus": "<p id=\"stim\">NOTEBOOK</p>", "key_press": -1, "type": "PRES_VIS", "word": "notebook", "wordID": 958, "conditions": [24, 1600, "v", 12000], "trial": 2, "serialpos": 14, "trial_type": "single-stim", "trial_index": 103, "time_elapsed": 519019, "internal_node_id": "0.0-76.0"}}, {"uniqueid": "MTK0523:32SCWG5HIIB2IWBBS8UBKXV4LLM6P2", "current_trial": 104, "dateTime": 1511200760463, "trialdata": {"rt": -1, "stimulus": "<p id=\"stim\">WARDROBE</p>", "key_press": -1, "type": "PRES_VIS", "word": "wardrobe", "wordID": 1586, "conditions": [24, 1600, "v", 12000], "trial": 2, "serialpos": 15, "trial_type": "single-stim", "trial_index": 104, "time_elapsed": 521524, "internal_node_id": "0.0-77.0"}}, {"uniqueid": "MTK0523:32SCWG5HIIB2IWBBS8UBKXV4LLM6P2", "current_trial": 105, "dateTime": 1511200763068, "trialdata": {"rt": -1, "stimulus": "<p id=\"stim\">QUAIL</p>", "key_press": -1, "type": "PRES_VIS", "word": "quail", "wordID": 1146, "conditions": [24, 1600, "v", 12000], "trial": 2, "serialpos": 16, "trial_type": "single-stim", "trial_index": 105, "time_elapsed": 524129, "internal_node_id": "0.0-78.0"}}, {"uniqueid": "MTK0523:32SCWG5HIIB2IWBBS8UBKXV4LLM6P2", "current_trial": 106, "dateTime": 1511200765791, "trialdata": {"rt": -1, "stimulus": "<p id=\"stim\">GRAPE</p>", "key_press": -1, "type": "PRES_VIS", "word": "grape", "wordID": 653, "conditions": [24, 1600, "v", 12000], "trial": 2, "serialpos": 17, "trial_type": "single-stim", "trial_index": 106, "time_elapsed": 526852, "internal_node_id": "0.0-79.0"}}, {"uniqueid": "MTK0523:32SCWG5HIIB2IWBBS8UBKXV4LLM6P2", "current_trial": 107, "dateTime": 1511200768266, "trialdata": {"rt": -1, "stimulus": "<p id=\"stim\">FOOTBALL</p>", "key_press": -1, "type": "PRES_VIS", "word": "football", "wordID": 590, "conditions": [24, 1600, "v", 12000], "trial": 2, "serialpos": 18, "trial_type": "single-stim", "trial_index": 107, "time_elapsed": 529327, "internal_node_id": "0.0-80.0"}}, {"uniqueid": "MTK0523:32SCWG5HIIB2IWBBS8UBKXV4LLM6P2", "current_trial": 108, "dateTime": 1511200771041, "trialdata": {"rt": -1, "stimulus": "<p id=\"stim\">FOX</p>", "key_press": -1, "type": "PRES_VIS", "word": "fox", "wordID": 597, "conditions": [24, 1600, "v", 12000], "trial": 2, "serialpos": 19, "trial_type": "single-stim", "trial_index": 108, "time_elapsed": 532102, "internal_node_id": "0.0-81.0"}}, {"uniqueid": "MTK0523:32SCWG5HIIB2IWBBS8UBKXV4LLM6P2", "current_trial": 109, "dateTime": 1511200773518, "trialdata": {"rt": -1, "stimulus": "<p id=\"stim\">CREATURE</p>", "key_press": -1, "type": "PRES_VIS", "word": "creature", "wordID": 402, "conditions": [24, 1600, "v", 12000], "trial": 2, "serialpos": 20, "trial_type": "single-stim", "trial_index": 109, "time_elapsed": 534579, "internal_node_id": "0.0-82.0"}}, {"uniqueid": "MTK0523:32SCWG5HIIB2IWBBS8UBKXV4LLM6P2", "current_trial": 110, "dateTime": 1511200776191, "trialdata": {"rt": -1, "stimulus": "<p id=\"stim\">COSTUME</p>", "key_press": -1, "type": "PRES_VIS", "word": "costume", "wordID": 382, "conditions": [24, 1600, "v", 12000], "trial": 2, "serialpos": 21, "trial_type": "single-stim", "trial_index": 110, "time_elapsed": 537252, "internal_node_id": "0.0-83.0"}}, {"uniqueid": "MTK0523:32SCWG5HIIB2IWBBS8UBKXV4LLM6P2", "current_trial": 111, "dateTime": 1511200778860, "trialdata": {"rt": -1, "stimulus": "<p id=\"stim\">PUDDLE</p>", "key_press": -1, "type": "PRES_VIS", "word": "puddle", "wordID": 1139, "conditions": [24, 1600, "v", 12000], "trial": 2, "serialpos": 22, "trial_type": "single-stim", "trial_index": 111, "time_elapsed": 539920, "internal_node_id": "0.0-84.0"}}, {"uniqueid": "MTK0523:32SCWG5HIIB2IWBBS8UBKXV4LLM6P2", "current_trial": 112, "dateTime": 1511200781283, "trialdata": {"rt": -1, "stimulus": "<p id=\"stim\">SUNRISE</p>", "key_press": -1, "type": "PRES_VIS", "word": "sunrise", "wordID": 1406, "conditions": [24, 1600, "v", 12000], "trial": 2, "serialpos": 23, "trial_type": "single-stim", "trial_index": 112, "time_elapsed": 542344, "internal_node_id": "0.0-85.0"}}, {"uniqueid": "MTK0523:32SCWG5HIIB2IWBBS8UBKXV4LLM6P2", "current_trial": 113, "dateTime": 1511200783764, "trialdata": {"rt": -1, "stimulus": "", "key_press": -1, "type": "PRE_RECALL_DELAY", "trial_type": "single-stim", "trial_index": 113, "time_elapsed": 544825, "internal_node_id": "0.0-86.0-0.0"}}, {"uniqueid": "MTK0523:32SCWG5HIIB2IWBBS8UBKXV4LLM6P2", "current_trial": 114, "dateTime": 1511200784266, "trialdata": {"rt": -1000, "stimulus": "/static/audio/400Hz.wav", "key_press": -1, "type": "PRE_RECALL_ALERT", "trial_type": "single-audio", "trial_index": 114, "time_elapsed": 545326, "internal_node_id": "0.0-87.0"}}, {"uniqueid": "MTK0523:32SCWG5HIIB2IWBBS8UBKXV4LLM6P2", "current_trial": 115, "dateTime": 1511200844271, "trialdata": {"rt": [2302, 9246, 22413, 24973, 33645, 36317, 38781], "recwords": ["sunrise", "surprise", "tortoise", "skillet", "burglar", "convict", "spoon"], "type": "FREE_RECALL", "conditions": [24, 1600, "v", 12000], "trial": 2, "trial_type": "free-recall", "trial_index": 115, "time_elapsed": 605329, "internal_node_id": "0.0-88.0-0.0"}}, {"uniqueid": "MTK0523:32SCWG5HIIB2IWBBS8UBKXV4LLM6P2", "current_trial": 116, "dateTime": 1511200847769, "trialdata": {"rt": 1496, "key_press": 32, "type": "INSTRUCTIONS", "trial_type": "text", "trial_index": 116, "time_elapsed": 608830, "internal_node_id": "0.0-89.0"}}, {"uniqueid": "MTK0523:32SCWG5HIIB2IWBBS8UBKXV4LLM6P2", "current_trial": 117, "dateTime": 1511200861772, "trialdata": {"rt": [3757, 5677, 9357], "responses": ["9", "12", "22"], "num1": [2, 8, 9, 7], "num2": [4, 1, 6, 2], "num3": [3, 3, 7, 6], "type": "DISTRACTOR", "conditions": [12, 1600, "v", 12000], "trial": 3, "trial_type": "math-distractor", "trial_index": 117, "time_elapsed": 622833, "internal_node_id": "0.0-90.0"}}, {"uniqueid": "MTK0523:32SCWG5HIIB2IWBBS8UBKXV4LLM6P2", "current_trial": 118, "dateTime": 1511200864774, "trialdata": {"rt": -1, "stimulus": "<p id=\"stim\">10</p>", "key_press": -1, "trial_type": "single-stim", "trial_index": 118, "time_elapsed": 625835, "internal_node_id": "0.0-91.0-0.0"}}, {"uniqueid": "MTK0523:32SCWG5HIIB2IWBBS8UBKXV4LLM6P2", "current_trial": 119, "dateTime": 1511200865775, "trialdata": {"rt": -1, "stimulus": "<p id=\"stim\">9</p>", "key_press": -1, "trial_type": "single-stim", "trial_index": 119, "time_elapsed": 626836, "internal_node_id": "0.0-91.0-1.0"}}, {"uniqueid": "MTK0523:32SCWG5HIIB2IWBBS8UBKXV4LLM6P2", "current_trial": 120, "dateTime": 1511200866776, "trialdata": {"rt": -1, "stimulus": "<p id=\"stim\">8</p>", "key_press": -1, "trial_type": "single-stim", "trial_index": 120, "time_elapsed": 627837, "internal_node_id": "0.0-91.0-2.0"}}, {"uniqueid": "MTK0523:32SCWG5HIIB2IWBBS8UBKXV4LLM6P2", "current_trial": 121, "dateTime": 1511200867778, "trialdata": {"rt": -1, "stimulus": "<p id=\"stim\">7</p>", "key_press": -1, "trial_type": "single-stim", "trial_index": 121, "time_elapsed": 628839, "internal_node_id": "0.0-91.0-3.0"}}, {"uniqueid": "MTK0523:32SCWG5HIIB2IWBBS8UBKXV4LLM6P2", "current_trial": 122, "dateTime": 1511200868779, "trialdata": {"rt": -1, "stimulus": "<p id=\"stim\">6</p>", "key_press": -1, "trial_type": "single-stim", "trial_index": 122, "time_elapsed": 629840, "internal_node_id": "0.0-91.0-4.0"}}, {"uniqueid": "MTK0523:32SCWG5HIIB2IWBBS8UBKXV4LLM6P2", "current_trial": 123, "dateTime": 1511200869781, "trialdata": {"rt": -1, "stimulus": "<p id=\"stim\">5</p>", "key_press": -1, "trial_type": "single-stim", "trial_index": 123, "time_elapsed": 630842, "internal_node_id": "0.0-91.0-5.0"}}, {"uniqueid": "MTK0523:32SCWG5HIIB2IWBBS8UBKXV4LLM6P2", "current_trial": 124, "dateTime": 1511200870783, "trialdata": {"rt": -1, "stimulus": "<p id=\"stim\">4</p>", "key_press": -1, "trial_type": "single-stim", "trial_index": 124, "time_elapsed": 631844, "internal_node_id": "0.0-91.0-6.0"}}, {"uniqueid": "MTK0523:32SCWG5HIIB2IWBBS8UBKXV4LLM6P2", "current_trial": 125, "dateTime": 1511200871785, "trialdata": {"rt": -1, "stimulus": "<p id=\"stim\">3</p>", "key_press": -1, "trial_type": "single-stim", "trial_index": 125, "time_elapsed": 632846, "internal_node_id": "0.0-91.0-7.0"}}, {"uniqueid": "MTK0523:32SCWG5HIIB2IWBBS8UBKXV4LLM6P2", "current_trial": 126, "dateTime": 1511200872788, "trialdata": {"rt": -1, "stimulus": "<p id=\"stim\">2</p>", "key_press": -1, "trial_type": "single-stim", "trial_index": 126, "time_elapsed": 633849, "internal_node_id": "0.0-91.0-8.0"}}, {"uniqueid": "MTK0523:32SCWG5HIIB2IWBBS8UBKXV4LLM6P2", "current_trial": 127, "dateTime": 1511200873789, "trialdata": {"rt": -1, "stimulus": "<p id=\"stim\">1</p>", "key_press": -1, "trial_type": "single-stim", "trial_index": 127, "time_elapsed": 634850, "internal_node_id": "0.0-91.0-9.0"}}, {"uniqueid": "MTK0523:32SCWG5HIIB2IWBBS8UBKXV4LLM6P2", "current_trial": 128, "dateTime": 1511200875290, "trialdata": {"rt": -1, "stimulus": "<p id=\"stim\">+</p>", "key_press": -1, "type": "FIXATION", "trial_type": "single-stim", "trial_index": 128, "time_elapsed": 636351, "internal_node_id": "0.0-92.0-0.0"}}, {"uniqueid": "MTK0523:32SCWG5HIIB2IWBBS8UBKXV4LLM6P2", "current_trial": 129, "dateTime": 1511200876891, "trialdata": {"rt": -1, "stimulus": "<p id=\"stim\">TOASTER</p>", "key_press": -1, "type": "PRES_VIS", "word": "toaster", "wordID": 1471, "conditions": [12, 1600, "v", 12000], "trial": 3, "serialpos": 0, "trial_type": "single-stim", "trial_index": 129, "time_elapsed": 637952, "internal_node_id": "0.0-93.0"}}, {"uniqueid": "MTK0523:32SCWG5HIIB2IWBBS8UBKXV4LLM6P2", "current_trial": 130, "dateTime": 1511200879425, "trialdata": {"rt": -1, "stimulus": "<p id=\"stim\">PICTURE</p>", "key_press": -1, "type": "PRES_VIS", "word": "picture", "wordID": 1060, "conditions": [12, 1600, "v", 12000], "trial": 3, "serialpos": 1, "trial_type": "single-stim", "trial_index": 130, "time_elapsed": 640486, "internal_node_id": "0.0-94.0"}}, {"uniqueid": "MTK0523:32SCWG5HIIB2IWBBS8UBKXV4LLM6P2", "current_trial": 131, "dateTime": 1511200882226, "trialdata": {"rt": -1, "stimulus": "<p id=\"stim\">PLAZA</p>", "key_press": -1, "type": "PRES_VIS", "word": "plaza", "wordID": 1087, "conditions": [12, 1600, "v", 12000], "trial": 3, "serialpos": 2, "trial_type": "single-stim", "trial_index": 131, "time_elapsed": 643287, "internal_node_id": "0.0-95.0"}}, {"uniqueid": "MTK0523:32SCWG5HIIB2IWBBS8UBKXV4LLM6P2", "current_trial": 132, "dateTime": 1511200884884, "trialdata": {"rt": -1, "stimulus": "<p id=\"stim\">CHAPEL</p>", "key_press": -1, "type": "PRES_VIS", "word": "chapel", "wordID": 279, "conditions": [12, 1600, "v", 12000], "trial": 3, "serialpos": 3, "trial_type": "single-stim", "trial_index": 132, "time_elapsed": 645945, "internal_node_id": "0.0-96.0"}}, {"uniqueid": "MTK0523:32SCWG5HIIB2IWBBS8UBKXV4LLM6P2", "current_trial": 133, "dateTime": 1511200887451, "trialdata": {"rt": -1, "stimulus": "<p id=\"stim\">SCISSORS</p>", "key_press": -1, "type": "PRES_VIS", "word": "scissors", "wordID": 1249, "conditions": [12, 1600, "v", 12000], "trial": 3, "serialpos": 4, "trial_type": "single-stim", "trial_index": 133, "time_elapsed": 648512, "internal_node_id": "0.0-97.0"}}, {"uniqueid": "MTK0523:32SCWG5HIIB2IWBBS8UBKXV4LLM6P2", "current_trial": 134, "dateTime": 1511200890048, "trialdata": {"rt": -1, "stimulus": "<p id=\"stim\">PORTRAIT</p>", "key_press": -1, "type": "PRES_VIS", "word": "portrait", "wordID": 1110, "conditions": [12, 1600, "v", 12000], "trial": 3, "serialpos": 5, "trial_type": "single-stim", "trial_index": 134, "time_elapsed": 651109, "internal_node_id": "0.0-98.0"}}, {"uniqueid": "MTK0523:32SCWG5HIIB2IWBBS8UBKXV4LLM6P2", "current_trial": 135, "dateTime": 1511200892468, "trialdata": {"rt": -1, "stimulus": "<p id=\"stim\">OINTMENT</p>", "key_press": -1, "type": "PRES_VIS", "word": "ointment", "wordID": 973, "conditions": [12, 1600, "v", 12000], "trial": 3, "serialpos": 6, "trial_type": "single-stim", "trial_index": 135, "time_elapsed": 653529, "internal_node_id": "0.0-99.0"}}], "questiondata": {}, "eventdata": [{"eventtype": "initialized", "value": null, "timestamp": 1511200228962, "interval": 0}, {"eventtype": "window_resize", "value": [1920, 1025], "timestamp": 1511200228963, "interval": 1}, {"eventtype": "focus", "value": "off", "timestamp": 1511200268147, "interval": 39184}, {"eventtype": "focus", "value": "on", "timestamp": 1511200271807, "interval": 3660}, {"eventtype": "focus", "value": "off", "timestamp": 1511200789161, "interval": 517354}, {"eventtype": "focus", "value": "on", "timestamp": 1511200791738, "interval": 2577}, {"eventtype": "focus", "value": "on", "timestamp": 1511200791739, "interval": 1}, {"eventtype": "focus", "value": "off", "timestamp": 1511200798263, "interval": 6524}, {"eventtype": "focus", "value": "on", "timestamp": 1511200805830, "interval": 7567}, {"eventtype": "focus", "value": "off", "timestamp": 1511200814178, "interval": 8348}, {"eventtype": "focus", "value": "on", "timestamp": 1511200817627, "interval": 3449}, {"eventtype": "focus", "value": "off", "timestamp": 1511200834355, "interval": 16728}, {"eventtype": "focus", "value": "on", "timestamp": 1511200835313, "interval": 958}], "useragent": "Mozilla/5.0 (Windows NT 10.0; Win64; x64) AppleWebKit/537.36 (KHTML, like Gecko) Chrome/62.0.3202.94 Safari/537.36", "mode": "live", "status": "user data saved"}