{"condition": 0, "counterbalance": 1708, "assignmentId": "39ZSFO5CA93RYWYETDNU37N8HNEUJ4", "workerId": "MTK0835", "hitId": "3VGZ74AYTGNJYGTJ9ECPN4D22PXGCG", "currenttrial": 171, "bonus": 0, "data": [{"uniqueid": "MTK0835:39ZSFO5CA93RYWYETDNU37N8HNEUJ4", "current_trial": 0, "dateTime": 1512767855602, "trialdata": {"rt": 1858, "key_press": 32, "type": "INSTRUCTIONS", "trial_type": "text", "trial_index": 0, "time_elapsed": 1861, "internal_node_id": "0.0-0.0"}}, {"uniqueid": "MTK0835:39ZSFO5CA93RYWYETDNU37N8HNEUJ4", "current_trial": 1, "dateTime": 1512767862277, "trialdata": {"rt": 6674, "key_press": 32, "type": "INSTRUCTIONS", "trial_type": "text", "trial_index": 1, "time_elapsed": 8537, "internal_node_id": "0.0-1.0"}}, {"uniqueid": "MTK0835:39ZSFO5CA93RYWYETDNU37N8HNEUJ4", "current_trial": 2, "dateTime": 1512767869388, "trialdata": {"rt": [7102], "responses": ["ocean"], "type": "AUDIO_TEST", "trial_type": "audio-test", "trial_index": 2, "time_elapsed": 15648, "internal_node_id": "0.0-2.0"}}, {"uniqueid": "MTK0835:39ZSFO5CA93RYWYETDNU37N8HNEUJ4", "current_trial": 3, "dateTime": 1512767885726, "trialdata": {"rt": [16333], "responses": ["crystal"], "type": "AUDIO_TEST", "trial_type": "audio-test", "trial_index": 3, "time_elapsed": 31986, "internal_node_id": "0.0-3.0"}}, {"uniqueid": "MTK0835:39ZSFO5CA93RYWYETDNU37N8HNEUJ4", "current_trial": 4, "dateTime": 1512767893392, "trialdata": {"rt": [7660], "responses": ["spice"], "type": "AUDIO_TEST", "trial_type": "audio-test", "trial_index": 4, "time_elapsed": 39652, "internal_node_id": "0.0-4.0"}}, {"uniqueid": "MTK0835:39ZSFO5CA93RYWYETDNU37N8HNEUJ4", "current_trial": 5, "dateTime": 1512767921501, "trialdata": {"rt": 27355, "responses": "{\"Q0\":\"9\",\"Q1\":\"8\",\"Q2\":\"1\"}", "type": "SLEEP_SURVEY", "trial_type": "survey-text", "trial_index": 5, "time_elapsed": 67761, "internal_node_id": "0.0-5.0"}}, {"uniqueid": "MTK0835:39ZSFO5CA93RYWYETDNU37N8HNEUJ4", "current_trial": 6, "dateTime": 1512767924447, "trialdata": {"rt": 1944, "key_press": 32, "type": "INSTRUCTIONS", "trial_type": "text", "trial_index": 6, "time_elapsed": 70706, "internal_node_id": "0.0-6.0"}}, {"uniqueid": "MTK0835:39ZSFO5CA93RYWYETDNU37N8HNEUJ4", "current_trial": 7, "dateTime": 1512767928250, "trialdata": {"rt": 3302, "key_press": 32, "type": "INSTRUCTIONS", "trial_type": "text", "trial_index": 7, "time_elapsed": 74510, "internal_node_id": "0.0-7.0"}}, {"uniqueid": "MTK0835:39ZSFO5CA93RYWYETDNU37N8HNEUJ4", "current_trial": 8, "dateTime": 1512767929621, "trialdata": {"rt": 869, "key_press": 32, "type": "INSTRUCTIONS", "trial_type": "text", "trial_index": 8, "time_elapsed": 75880, "internal_node_id": "0.0-8.0"}}, {"uniqueid": "MTK0835:39ZSFO5CA93RYWYETDNU37N8HNEUJ4", "current_trial": 9, "dateTime": 1512767948629, "trialdata": {"rt": [3125, 7345, 9360, 11748, 13802, 16842], "responses": ["9", "18", "15", "14", "13", "21"], "num1": [1, 7, 5, 7, 6, 7, 5], "num2": [5, 2, 9, 5, 6, 9, 2], "num3": [3, 9, 1, 2, 1, 5, 8], "type": "DISTRACTOR", "conditions": [18, 1200, "a", 18000], "trial": 0, "trial_type": "math-distractor", "trial_index": 9, "time_elapsed": 94889, "internal_node_id": "0.0-9.0"}}, {"uniqueid": "MTK0835:39ZSFO5CA93RYWYETDNU37N8HNEUJ4", "current_trial": 10, "dateTime": 1512767951632, "trialdata": {"rt": -1, "stimulus": "<p id=\"stim\">10</p>", "key_press": -1, "trial_type": "single-stim", "trial_index": 10, "time_elapsed": 97892, "internal_node_id": "0.0-10.0-0.0"}}, {"uniqueid": "MTK0835:39ZSFO5CA93RYWYETDNU37N8HNEUJ4", "current_trial": 11, "dateTime": 1512767952634, "trialdata": {"rt": -1, "stimulus": "<p id=\"stim\">9</p>", "key_press": -1, "trial_type": "single-stim", "trial_index": 11, "time_elapsed": 98894, "internal_node_id": "0.0-10.0-1.0"}}, {"uniqueid": "MTK0835:39ZSFO5CA93RYWYETDNU37N8HNEUJ4", "current_trial": 12, "dateTime": 1512767953636, "trialdata": {"rt": -1, "stimulus": "<p id=\"stim\">8</p>", "key_press": -1, "trial_type": "single-stim", "trial_index": 12, "time_elapsed": 99896, "internal_node_id": "0.0-10.0-2.0"}}, {"uniqueid": "MTK0835:39ZSFO5CA93RYWYETDNU37N8HNEUJ4", "current_trial": 13, "dateTime": 1512767954640, "trialdata": {"rt": -1, "stimulus": "<p id=\"stim\">7</p>", "key_press": -1, "trial_type": "single-stim", "trial_index": 13, "time_elapsed": 100899, "internal_node_id": "0.0-10.0-3.0"}}, {"uniqueid": "MTK0835:39ZSFO5CA93RYWYETDNU37N8HNEUJ4", "current_trial": 14, "dateTime": 1512767955642, "trialdata": {"rt": -1, "stimulus": "<p id=\"stim\">6</p>", "key_press": -1, "trial_type": "single-stim", "trial_index": 14, "time_elapsed": 101902, "internal_node_id": "0.0-10.0-4.0"}}, {"uniqueid": "MTK0835:39ZSFO5CA93RYWYETDNU37N8HNEUJ4", "current_trial": 15, "dateTime": 1512767956643, "trialdata": {"rt": -1, "stimulus": "<p id=\"stim\">5</p>", "key_press": -1, "trial_type": "single-stim", "trial_index": 15, "time_elapsed": 102903, "internal_node_id": "0.0-10.0-5.0"}}, {"uniqueid": "MTK0835:39ZSFO5CA93RYWYETDNU37N8HNEUJ4", "current_trial": 16, "dateTime": 1512767957645, "trialdata": {"rt": -1, "stimulus": "<p id=\"stim\">4</p>", "key_press": -1, "trial_type": "single-stim", "trial_index": 16, "time_elapsed": 103905, "internal_node_id": "0.0-10.0-6.0"}}, {"uniqueid": "MTK0835:39ZSFO5CA93RYWYETDNU37N8HNEUJ4", "current_trial": 17, "dateTime": 1512767958647, "trialdata": {"rt": -1, "stimulus": "<p id=\"stim\">3</p>", "key_press": -1, "trial_type": "single-stim", "trial_index": 17, "time_elapsed": 104906, "internal_node_id": "0.0-10.0-7.0"}}, {"uniqueid": "MTK0835:39ZSFO5CA93RYWYETDNU37N8HNEUJ4", "current_trial": 18, "dateTime": 1512767959648, "trialdata": {"rt": -1, "stimulus": "<p id=\"stim\">2</p>", "key_press": -1, "trial_type": "single-stim", "trial_index": 18, "time_elapsed": 105908, "internal_node_id": "0.0-10.0-8.0"}}, {"uniqueid": "MTK0835:39ZSFO5CA93RYWYETDNU37N8HNEUJ4", "current_trial": 19, "dateTime": 1512767960650, "trialdata": {"rt": -1, "stimulus": "<p id=\"stim\">1</p>", "key_press": -1, "trial_type": "single-stim", "trial_index": 19, "time_elapsed": 106910, "internal_node_id": "0.0-10.0-9.0"}}, {"uniqueid": "MTK0835:39ZSFO5CA93RYWYETDNU37N8HNEUJ4", "current_trial": 20, "dateTime": 1512767962152, "trialdata": {"rt": -1, "stimulus": "<p id=\"stim\">+</p>", "key_press": -1, "type": "FIXATION", "trial_type": "single-stim", "trial_index": 20, "time_elapsed": 108412, "internal_node_id": "0.0-11.0-0.0"}}, {"uniqueid": "MTK0835:39ZSFO5CA93RYWYETDNU37N8HNEUJ4", "current_trial": 21, "dateTime": 1512767964288, "trialdata": {"rt": -1000, "stimulus": "/static/audio/wordpool/COSTUME.wav", "key_press": -1, "type": "PRES_AUD", "word": "costume", "wordID": 382, "conditions": [18, 1200, "a", 18000], "trial": 0, "serialpos": 0, "trial_type": "single-audio", "trial_index": 21, "time_elapsed": 110548, "internal_node_id": "0.0-12.0"}}, {"uniqueid": "MTK0835:39ZSFO5CA93RYWYETDNU37N8HNEUJ4", "current_trial": 22, "dateTime": 1512767966451, "trialdata": {"rt": -1000, "stimulus": "/static/audio/wordpool/RUG.wav", "key_press": -1, "type": "PRES_AUD", "word": "rug", "wordID": 1214, "conditions": [18, 1200, "a", 18000], "trial": 0, "serialpos": 1, "trial_type": "single-audio", "trial_index": 22, "time_elapsed": 112711, "internal_node_id": "0.0-13.0"}}, {"uniqueid": "MTK0835:39ZSFO5CA93RYWYETDNU37N8HNEUJ4", "current_trial": 23, "dateTime": 1512767968791, "trialdata": {"rt": -1000, "stimulus": "/static/audio/wordpool/TEACHER.wav", "key_press": -1, "type": "PRES_AUD", "word": "teacher", "wordID": 1439, "conditions": [18, 1200, "a", 18000], "trial": 0, "serialpos": 2, "trial_type": "single-audio", "trial_index": 23, "time_elapsed": 115051, "internal_node_id": "0.0-14.0"}}, {"uniqueid": "MTK0835:39ZSFO5CA93RYWYETDNU37N8HNEUJ4", "current_trial": 24, "dateTime": 1512767971107, "trialdata": {"rt": -1000, "stimulus": "/static/audio/wordpool/BACON.wav", "key_press": -1, "type": "PRES_AUD", "word": "bacon", "wordID": 66, "conditions": [18, 1200, "a", 18000], "trial": 0, "serialpos": 3, "trial_type": "single-audio", "trial_index": 24, "time_elapsed": 117366, "internal_node_id": "0.0-15.0"}}, {"uniqueid": "MTK0835:39ZSFO5CA93RYWYETDNU37N8HNEUJ4", "current_trial": 25, "dateTime": 1512767973150, "trialdata": {"rt": -1000, "stimulus": "/static/audio/wordpool/WHISKERS.wav", "key_press": -1, "type": "PRES_AUD", "word": "whiskers", "wordID": 1604, "conditions": [18, 1200, "a", 18000], "trial": 0, "serialpos": 4, "trial_type": "single-audio", "trial_index": 25, "time_elapsed": 119409, "internal_node_id": "0.0-16.0"}}, {"uniqueid": "MTK0835:39ZSFO5CA93RYWYETDNU37N8HNEUJ4", "current_trial": 26, "dateTime": 1512767975446, "trialdata": {"rt": -1000, "stimulus": "/static/audio/wordpool/ITEM.wav", "key_press": -1, "type": "PRES_AUD", "word": "item", "wordID": 745, "conditions": [18, 1200, "a", 18000], "trial": 0, "serialpos": 5, "trial_type": "single-audio", "trial_index": 26, "time_elapsed": 121706, "internal_node_id": "0.0-17.0"}}, {"uniqueid": "MTK0835:39ZSFO5CA93RYWYETDNU37N8HNEUJ4", "current_trial": 27, "dateTime": 1512767977561, "trialdata": {"rt": -1000, "stimulus": "/static/audio/wordpool/CATTLE.wav", "key_press": -1, "type": "PRES_AUD", "word": "cattle", "wordID": 260, "conditions": [18, 1200, "a", 18000], "trial": 0, "serialpos": 6, "trial_type": "single-audio", "trial_index": 27, "time_elapsed": 123821, "internal_node_id": "0.0-18.0"}}, {"uniqueid": "MTK0835:39ZSFO5CA93RYWYETDNU37N8HNEUJ4", "current_trial": 28, "dateTime": 1512767979689, "trialdata": {"rt": -1000, "stimulus": "/static/audio/wordpool/HELMET.wav", "key_press": -1, "type": "PRES_AUD", "word": "helmet", "wordID": 701, "conditions": [18, 1200, "a", 18000], "trial": 0, "serialpos": 7, "trial_type": "single-audio", "trial_index": 28, "time_elapsed": 125949, "internal_node_id": "0.0-19.0"}}, {"uniqueid": "MTK0835:39ZSFO5CA93RYWYETDNU37N8HNEUJ4", "current_trial": 29, "dateTime": 1512767981752, "trialdata": {"rt": -1000, "stimulus": "/static/audio/wordpool/BOX.wav", "key_press": -1, "type": "PRES_AUD", "word": "box", "wordID": 158, "conditions": [18, 1200, "a", 18000], "trial": 0, "serialpos": 8, "trial_type": "single-audio", "trial_index": 29, "time_elapsed": 128012, "internal_node_id": "0.0-20.0"}}, {"uniqueid": "MTK0835:39ZSFO5CA93RYWYETDNU37N8HNEUJ4", "current_trial": 30, "dateTime": 1512767983913, "trialdata": {"rt": -1000, "stimulus": "/static/audio/wordpool/STREAM.wav", "key_press": -1, "type": "PRES_AUD", "word": "stream", "wordID": 1391, "conditions": [18, 1200, "a", 18000], "trial": 0, "serialpos": 9, "trial_type": "single-audio", "trial_index": 30, "time_elapsed": 130173, "internal_node_id": "0.0-21.0"}}, {"uniqueid": "MTK0835:39ZSFO5CA93RYWYETDNU37N8HNEUJ4", "current_trial": 31, "dateTime": 1512767986285, "trialdata": {"rt": -1000, "stimulus": "/static/audio/wordpool/ZIPPER.wav", "key_press": -1, "type": "PRES_AUD", "word": "zipper", "wordID": 1635, "conditions": [18, 1200, "a", 18000], "trial": 0, "serialpos": 10, "trial_type": "single-audio", "trial_index": 31, "time_elapsed": 132545, "internal_node_id": "0.0-22.0"}}, {"uniqueid": "MTK0835:39ZSFO5CA93RYWYETDNU37N8HNEUJ4", "current_trial": 32, "dateTime": 1512767988494, "trialdata": {"rt": -1000, "stimulus": "/static/audio/wordpool/POISON.wav", "key_press": -1, "type": "PRES_AUD", "word": "poison", "wordID": 1095, "conditions": [18, 1200, "a", 18000], "trial": 0, "serialpos": 11, "trial_type": "single-audio", "trial_index": 32, "time_elapsed": 134754, "internal_node_id": "0.0-23.0"}}, {"uniqueid": "MTK0835:39ZSFO5CA93RYWYETDNU37N8HNEUJ4", "current_trial": 33, "dateTime": 1512767990739, "trialdata": {"rt": -1000, "stimulus": "/static/audio/wordpool/SPOON.wav", "key_press": -1, "type": "PRES_AUD", "word": "spoon", "wordID": 1356, "conditions": [18, 1200, "a", 18000], "trial": 0, "serialpos": 12, "trial_type": "single-audio", "trial_index": 33, "time_elapsed": 136998, "internal_node_id": "0.0-24.0"}}, {"uniqueid": "MTK0835:39ZSFO5CA93RYWYETDNU37N8HNEUJ4", "current_trial": 34, "dateTime": 1512767993005, "trialdata": {"rt": -1000, "stimulus": "/static/audio/wordpool/PRINCESS.wav", "key_press": -1, "type": "PRES_AUD", "word": "princess", "wordID": 1124, "conditions": [18, 1200, "a", 18000], "trial": 0, "serialpos": 13, "trial_type": "single-audio", "trial_index": 34, "time_elapsed": 139264, "internal_node_id": "0.0-25.0"}}, {"uniqueid": "MTK0835:39ZSFO5CA93RYWYETDNU37N8HNEUJ4", "current_trial": 35, "dateTime": 1512767995368, "trialdata": {"rt": -1000, "stimulus": "/static/audio/wordpool/SHRUB.wav", "key_press": -1, "type": "PRES_AUD", "word": "shrub", "wordID": 1298, "conditions": [18, 1200, "a", 18000], "trial": 0, "serialpos": 14, "trial_type": "single-audio", "trial_index": 35, "time_elapsed": 141628, "internal_node_id": "0.0-26.0"}}, {"uniqueid": "MTK0835:39ZSFO5CA93RYWYETDNU37N8HNEUJ4", "current_trial": 36, "dateTime": 1512767997441, "trialdata": {"rt": -1000, "stimulus": "/static/audio/wordpool/SHORTS.wav", "key_press": -1, "type": "PRES_AUD", "word": "shorts", "wordID": 1292, "conditions": [18, 1200, "a", 18000], "trial": 0, "serialpos": 15, "trial_type": "single-audio", "trial_index": 36, "time_elapsed": 143700, "internal_node_id": "0.0-27.0"}}, {"uniqueid": "MTK0835:39ZSFO5CA93RYWYETDNU37N8HNEUJ4", "current_trial": 37, "dateTime": 1512767999540, "trialdata": {"rt": -1000, "stimulus": "/static/audio/wordpool/STOVE.wav", "key_press": -1, "type": "PRES_AUD", "word": "stove", "wordID": 1387, "conditions": [18, 1200, "a", 18000], "trial": 0, "serialpos": 16, "trial_type": "single-audio", "trial_index": 37, "time_elapsed": 145800, "internal_node_id": "0.0-28.0"}}, {"uniqueid": "MTK0835:39ZSFO5CA93RYWYETDNU37N8HNEUJ4", "current_trial": 38, "dateTime": 1512768001676, "trialdata": {"rt": -1000, "stimulus": "/static/audio/wordpool/EAGLE.wav", "key_press": -1, "type": "PRES_AUD", "word": "eagle", "wordID": 511, "conditions": [18, 1200, "a", 18000], "trial": 0, "serialpos": 17, "trial_type": "single-audio", "trial_index": 38, "time_elapsed": 147936, "internal_node_id": "0.0-29.0"}}, {"uniqueid": "MTK0835:39ZSFO5CA93RYWYETDNU37N8HNEUJ4", "current_trial": 39, "dateTime": 1512768003037, "trialdata": {"rt": -1, "stimulus": "", "key_press": -1, "type": "PRE_RECALL_DELAY", "trial_type": "single-stim", "trial_index": 39, "time_elapsed": 149297, "internal_node_id": "0.0-30.0-0.0"}}, {"uniqueid": "MTK0835:39ZSFO5CA93RYWYETDNU37N8HNEUJ4", "current_trial": 40, "dateTime": 1512768003539, "trialdata": {"rt": -1000, "stimulus": "/static/audio/400Hz.wav", "key_press": -1, "type": "PRE_RECALL_ALERT", "trial_type": "single-audio", "trial_index": 40, "time_elapsed": 149799, "internal_node_id": "0.0-31.0"}}, {"uniqueid": "MTK0835:39ZSFO5CA93RYWYETDNU37N8HNEUJ4", "current_trial": 41, "dateTime": 1512768063549, "trialdata": {"rt": [5129, 9103, 18095, 21401, 41959, 48630, 51879, 54533, 56157, 57352], "recwords": ["eagle", "stove", "oven", "swoon", "swoon", "zorp", "apron", "oven", "stove", "store"], "type": "FREE_RECALL", "conditions": [18, 1200, "a", 18000], "trial": 0, "trial_type": "free-recall", "trial_index": 41, "time_elapsed": 209806, "internal_node_id": "0.0-32.0-0.0"}}, {"uniqueid": "MTK0835:39ZSFO5CA93RYWYETDNU37N8HNEUJ4", "current_trial": 42, "dateTime": 1512768067480, "trialdata": {"rt": 1929, "key_press": 32, "type": "INSTRUCTIONS", "trial_type": "text", "trial_index": 42, "time_elapsed": 213739, "internal_node_id": "0.0-33.0"}}, {"uniqueid": "MTK0835:39ZSFO5CA93RYWYETDNU37N8HNEUJ4", "current_trial": 43, "dateTime": 1512768087485, "trialdata": {"rt": [3593, 6639, 8861, 12253, 14522, 17736], "responses": ["18", "16", "21", "20", "20", "13"], "num1": [8, 5, 9, 8, 5, 4, 7], "num2": [6, 7, 9, 5, 6, 2, 5], "num3": [4, 4, 3, 7, 9, 7, 8], "type": "DISTRACTOR", "conditions": [18, 1200, "v", 18000], "trial": 1, "trial_type": "math-distractor", "trial_index": 43, "time_elapsed": 233745, "internal_node_id": "0.0-34.0"}}, {"uniqueid": "MTK0835:39ZSFO5CA93RYWYETDNU37N8HNEUJ4", "current_trial": 44, "dateTime": 1512768090488, "trialdata": {"rt": -1, "stimulus": "<p id=\"stim\">10</p>", "key_press": -1, "trial_type": "single-stim", "trial_index": 44, "time_elapsed": 236748, "internal_node_id": "0.0-35.0-0.0"}}, {"uniqueid": "MTK0835:39ZSFO5CA93RYWYETDNU37N8HNEUJ4", "current_trial": 45, "dateTime": 1512768091490, "trialdata": {"rt": -1, "stimulus": "<p id=\"stim\">9</p>", "key_press": -1, "trial_type": "single-stim", "trial_index": 45, "time_elapsed": 237750, "internal_node_id": "0.0-35.0-1.0"}}, {"uniqueid": "MTK0835:39ZSFO5CA93RYWYETDNU37N8HNEUJ4", "current_trial": 46, "dateTime": 1512768092492, "trialdata": {"rt": -1, "stimulus": "<p id=\"stim\">8</p>", "key_press": -1, "trial_type": "single-stim", "trial_index": 46, "time_elapsed": 238751, "internal_node_id": "0.0-35.0-2.0"}}, {"uniqueid": "MTK0835:39ZSFO5CA93RYWYETDNU37N8HNEUJ4", "current_trial": 47, "dateTime": 1512768093493, "trialdata": {"rt": -1, "stimulus": "<p id=\"stim\">7</p>", "key_press": -1, "trial_type": "single-stim", "trial_index": 47, "time_elapsed": 239753, "internal_node_id": "0.0-35.0-3.0"}}, {"uniqueid": "MTK0835:39ZSFO5CA93RYWYETDNU37N8HNEUJ4", "current_trial": 48, "dateTime": 1512768094495, "trialdata": {"rt": -1, "stimulus": "<p id=\"stim\">6</p>", "key_press": -1, "trial_type": "single-stim", "trial_index": 48, "time_elapsed": 240755, "internal_node_id": "0.0-35.0-4.0"}}, {"uniqueid": "MTK0835:39ZSFO5CA93RYWYETDNU37N8HNEUJ4", "current_trial": 49, "dateTime": 1512768095496, "trialdata": {"rt": -1, "stimulus": "<p id=\"stim\">5</p>", "key_press": -1, "trial_type": "single-stim", "trial_index": 49, "time_elapsed": 241756, "internal_node_id": "0.0-35.0-5.0"}}, {"uniqueid": "MTK0835:39ZSFO5CA93RYWYETDNU37N8HNEUJ4", "current_trial": 50, "dateTime": 1512768096499, "trialdata": {"rt": -1, "stimulus": "<p id=\"stim\">4</p>", "key_press": -1, "trial_type": "single-stim", "trial_index": 50, "time_elapsed": 242758, "internal_node_id": "0.0-35.0-6.0"}}, {"uniqueid": "MTK0835:39ZSFO5CA93RYWYETDNU37N8HNEUJ4", "current_trial": 51, "dateTime": 1512768097505, "trialdata": {"rt": -1, "stimulus": "<p id=\"stim\">3</p>", "key_press": -1, "trial_type": "single-stim", "trial_index": 51, "time_elapsed": 243765, "internal_node_id": "0.0-35.0-7.0"}}, {"uniqueid": "MTK0835:39ZSFO5CA93RYWYETDNU37N8HNEUJ4", "current_trial": 52, "dateTime": 1512768098506, "trialdata": {"rt": -1, "stimulus": "<p id=\"stim\">2</p>", "key_press": -1, "trial_type": "single-stim", "trial_index": 52, "time_elapsed": 244766, "internal_node_id": "0.0-35.0-8.0"}}, {"uniqueid": "MTK0835:39ZSFO5CA93RYWYETDNU37N8HNEUJ4", "current_trial": 53, "dateTime": 1512768099508, "trialdata": {"rt": -1, "stimulus": "<p id=\"stim\">1</p>", "key_press": -1, "trial_type": "single-stim", "trial_index": 53, "time_elapsed": 245768, "internal_node_id": "0.0-35.0-9.0"}}, {"uniqueid": "MTK0835:39ZSFO5CA93RYWYETDNU37N8HNEUJ4", "current_trial": 54, "dateTime": 1512768101009, "trialdata": {"rt": -1, "stimulus": "<p id=\"stim\">+</p>", "key_press": -1, "type": "FIXATION", "trial_type": "single-stim", "trial_index": 54, "time_elapsed": 247269, "internal_node_id": "0.0-36.0-0.0"}}, {"uniqueid": "MTK0835:39ZSFO5CA93RYWYETDNU37N8HNEUJ4", "current_trial": 55, "dateTime": 1512768102211, "trialdata": {"rt": -1, "stimulus": "<p id=\"stim\">WRENCH</p>", "key_press": -1, "type": "PRES_VIS", "word": "wrench", "wordID": 1624, "conditions": [18, 1200, "v", 18000], "trial": 1, "serialpos": 0, "trial_type": "single-stim", "trial_index": 55, "time_elapsed": 248471, "internal_node_id": "0.0-37.0"}}, {"uniqueid": "MTK0835:39ZSFO5CA93RYWYETDNU37N8HNEUJ4", "current_trial": 56, "dateTime": 1512768104519, "trialdata": {"rt": -1, "stimulus": "<p id=\"stim\">SERVER</p>", "key_press": -1, "type": "PRES_VIS", "word": "server", "wordID": 1271, "conditions": [18, 1200, "v", 18000], "trial": 1, "serialpos": 1, "trial_type": "single-stim", "trial_index": 56, "time_elapsed": 250779, "internal_node_id": "0.0-38.0"}}, {"uniqueid": "MTK0835:39ZSFO5CA93RYWYETDNU37N8HNEUJ4", "current_trial": 57, "dateTime": 1512768106700, "trialdata": {"rt": -1, "stimulus": "<p id=\"stim\">EMPIRE</p>", "key_press": -1, "type": "PRES_VIS", "word": "empire", "wordID": 529, "conditions": [18, 1200, "v", 18000], "trial": 1, "serialpos": 2, "trial_type": "single-stim", "trial_index": 57, "time_elapsed": 252960, "internal_node_id": "0.0-39.0"}}, {"uniqueid": "MTK0835:39ZSFO5CA93RYWYETDNU37N8HNEUJ4", "current_trial": 58, "dateTime": 1512768108889, "trialdata": {"rt": -1, "stimulus": "<p id=\"stim\">SUSPECT</p>", "key_press": -1, "type": "PRES_VIS", "word": "suspect", "wordID": 1414, "conditions": [18, 1200, "v", 18000], "trial": 1, "serialpos": 3, "trial_type": "single-stim", "trial_index": 58, "time_elapsed": 255149, "internal_node_id": "0.0-40.0"}}, {"uniqueid": "MTK0835:39ZSFO5CA93RYWYETDNU37N8HNEUJ4", "current_trial": 59, "dateTime": 1512768111245, "trialdata": {"rt": -1, "stimulus": "<p id=\"stim\">COWBOY</p>", "key_press": -1, "type": "PRES_VIS", "word": "cowboy", "wordID": 394, "conditions": [18, 1200, "v", 18000], "trial": 1, "serialpos": 4, "trial_type": "single-stim", "trial_index": 59, "time_elapsed": 257505, "internal_node_id": "0.0-41.0"}}, {"uniqueid": "MTK0835:39ZSFO5CA93RYWYETDNU37N8HNEUJ4", "current_trial": 60, "dateTime": 1512768113287, "trialdata": {"rt": -1, "stimulus": "<p id=\"stim\">FIREMAN</p>", "key_press": -1, "type": "PRES_VIS", "word": "fireman", "wordID": 568, "conditions": [18, 1200, "v", 18000], "trial": 1, "serialpos": 5, "trial_type": "single-stim", "trial_index": 60, "time_elapsed": 259547, "internal_node_id": "0.0-42.0"}}, {"uniqueid": "MTK0835:39ZSFO5CA93RYWYETDNU37N8HNEUJ4", "current_trial": 61, "dateTime": 1512768115339, "trialdata": {"rt": -1, "stimulus": "<p id=\"stim\">MESSAGE</p>", "key_press": -1, "type": "PRES_VIS", "word": "message", "wordID": 887, "conditions": [18, 1200, "v", 18000], "trial": 1, "serialpos": 6, "trial_type": "single-stim", "trial_index": 61, "time_elapsed": 261599, "internal_node_id": "0.0-43.0"}}, {"uniqueid": "MTK0835:39ZSFO5CA93RYWYETDNU37N8HNEUJ4", "current_trial": 62, "dateTime": 1512768117641, "trialdata": {"rt": -1, "stimulus": "<p id=\"stim\">SUBWAY</p>", "key_press": -1, "type": "PRES_VIS", "word": "subway", "wordID": 1399, "conditions": [18, 1200, "v", 18000], "trial": 1, "serialpos": 7, "trial_type": "single-stim", "trial_index": 62, "time_elapsed": 263900, "internal_node_id": "0.0-44.0"}}, {"uniqueid": "MTK0835:39ZSFO5CA93RYWYETDNU37N8HNEUJ4", "current_trial": 63, "dateTime": 1512768120003, "trialdata": {"rt": -1, "stimulus": "<p id=\"stim\">PACKAGE</p>", "key_press": -1, "type": "PRES_VIS", "word": "package", "wordID": 996, "conditions": [18, 1200, "v", 18000], "trial": 1, "serialpos": 8, "trial_type": "single-stim", "trial_index": 63, "time_elapsed": 266262, "internal_node_id": "0.0-45.0"}}, {"uniqueid": "MTK0835:39ZSFO5CA93RYWYETDNU37N8HNEUJ4", "current_trial": 64, "dateTime": 1512768122324, "trialdata": {"rt": -1, "stimulus": "<p id=\"stim\">COUNTRY</p>", "key_press": -1, "type": "PRES_VIS", "word": "country", "wordID": 387, "conditions": [18, 1200, "v", 18000], "trial": 1, "serialpos": 9, "trial_type": "single-stim", "trial_index": 64, "time_elapsed": 268584, "internal_node_id": "0.0-46.0"}}, {"uniqueid": "MTK0835:39ZSFO5CA93RYWYETDNU37N8HNEUJ4", "current_trial": 65, "dateTime": 1512768124528, "trialdata": {"rt": -1, "stimulus": "<p id=\"stim\">ROBOT</p>", "key_press": -1, "type": "PRES_VIS", "word": "robot", "wordID": 1199, "conditions": [18, 1200, "v", 18000], "trial": 1, "serialpos": 10, "trial_type": "single-stim", "trial_index": 65, "time_elapsed": 270788, "internal_node_id": "0.0-47.0"}}, {"uniqueid": "MTK0835:39ZSFO5CA93RYWYETDNU37N8HNEUJ4", "current_trial": 66, "dateTime": 1512768126794, "trialdata": {"rt": -1, "stimulus": "<p id=\"stim\">FRECKLE</p>", "key_press": -1, "type": "PRES_VIS", "word": "freckle", "wordID": 601, "conditions": [18, 1200, "v", 18000], "trial": 1, "serialpos": 11, "trial_type": "single-stim", "trial_index": 66, "time_elapsed": 273054, "internal_node_id": "0.0-48.0"}}, {"uniqueid": "MTK0835:39ZSFO5CA93RYWYETDNU37N8HNEUJ4", "current_trial": 67, "dateTime": 1512768128978, "trialdata": {"rt": -1, "stimulus": "<p id=\"stim\">MATCH</p>", "key_press": -1, "type": "PRES_VIS", "word": "match", "wordID": 877, "conditions": [18, 1200, "v", 18000], "trial": 1, "serialpos": 12, "trial_type": "single-stim", "trial_index": 67, "time_elapsed": 275238, "internal_node_id": "0.0-49.0"}}, {"uniqueid": "MTK0835:39ZSFO5CA93RYWYETDNU37N8HNEUJ4", "current_trial": 68, "dateTime": 1512768131229, "trialdata": {"rt": -1, "stimulus": "<p id=\"stim\">DRIVER</p>", "key_press": -1, "type": "PRES_VIS", "word": "driver", "wordID": 498, "conditions": [18, 1200, "v", 18000], "trial": 1, "serialpos": 13, "trial_type": "single-stim", "trial_index": 68, "time_elapsed": 277486, "internal_node_id": "0.0-50.0"}}, {"uniqueid": "MTK0835:39ZSFO5CA93RYWYETDNU37N8HNEUJ4", "current_trial": 69, "dateTime": 1512768133268, "trialdata": {"rt": -1, "stimulus": "<p id=\"stim\">BEAST</p>", "key_press": -1, "type": "PRES_VIS", "word": "beast", "wordID": 107, "conditions": [18, 1200, "v", 18000], "trial": 1, "serialpos": 14, "trial_type": "single-stim", "trial_index": 69, "time_elapsed": 279528, "internal_node_id": "0.0-51.0"}}, {"uniqueid": "MTK0835:39ZSFO5CA93RYWYETDNU37N8HNEUJ4", "current_trial": 70, "dateTime": 1512768135313, "trialdata": {"rt": -1, "stimulus": "<p id=\"stim\">OZONE</p>", "key_press": -1, "type": "PRES_VIS", "word": "ozone", "wordID": 995, "conditions": [18, 1200, "v", 18000], "trial": 1, "serialpos": 15, "trial_type": "single-stim", "trial_index": 70, "time_elapsed": 281572, "internal_node_id": "0.0-52.0"}}, {"uniqueid": "MTK0835:39ZSFO5CA93RYWYETDNU37N8HNEUJ4", "current_trial": 71, "dateTime": 1512768137410, "trialdata": {"rt": -1, "stimulus": "<p id=\"stim\">BABY</p>", "key_press": -1, "type": "PRES_VIS", "word": "baby", "wordID": 63, "conditions": [18, 1200, "v", 18000], "trial": 1, "serialpos": 16, "trial_type": "single-stim", "trial_index": 71, "time_elapsed": 283670, "internal_node_id": "0.0-53.0"}}, {"uniqueid": "MTK0835:39ZSFO5CA93RYWYETDNU37N8HNEUJ4", "current_trial": 72, "dateTime": 1512768139533, "trialdata": {"rt": -1, "stimulus": "<p id=\"stim\">WOMAN</p>", "key_press": -1, "type": "PRES_VIS", "word": "woman", "wordID": 1619, "conditions": [18, 1200, "v", 18000], "trial": 1, "serialpos": 17, "trial_type": "single-stim", "trial_index": 72, "time_elapsed": 285793, "internal_node_id": "0.0-54.0"}}, {"uniqueid": "MTK0835:39ZSFO5CA93RYWYETDNU37N8HNEUJ4", "current_trial": 73, "dateTime": 1512768141803, "trialdata": {"rt": -1, "stimulus": "", "key_press": -1, "type": "PRE_RECALL_DELAY", "trial_type": "single-stim", "trial_index": 73, "time_elapsed": 288063, "internal_node_id": "0.0-55.0-0.0"}}, {"uniqueid": "MTK0835:39ZSFO5CA93RYWYETDNU37N8HNEUJ4", "current_trial": 74, "dateTime": 1512768142306, "trialdata": {"rt": -1000, "stimulus": "/static/audio/400Hz.wav", "key_press": -1, "type": "PRE_RECALL_ALERT", "trial_type": "single-audio", "trial_index": 74, "time_elapsed": 288566, "internal_node_id": "0.0-56.0"}}, {"uniqueid": "MTK0835:39ZSFO5CA93RYWYETDNU37N8HNEUJ4", "current_trial": 75, "dateTime": 1512768202309, "trialdata": {"rt": [2005, 3190, 4331, 7721, 8660, 16105, 28190], "recwords": ["baby", "wrench", "woman", "child", "baby", "wrench", "warrior"], "type": "FREE_RECALL", "conditions": [18, 1200, "v", 18000], "trial": 1, "trial_type": "free-recall", "trial_index": 75, "time_elapsed": 348567, "internal_node_id": "0.0-57.0-0.0"}}, {"uniqueid": "MTK0835:39ZSFO5CA93RYWYETDNU37N8HNEUJ4", "current_trial": 76, "dateTime": 1512768206497, "trialdata": {"rt": 2181, "key_press": 32, "type": "INSTRUCTIONS", "trial_type": "text", "trial_index": 76, "time_elapsed": 352753, "internal_node_id": "0.0-58.0"}}, {"uniqueid": "MTK0835:39ZSFO5CA93RYWYETDNU37N8HNEUJ4", "current_trial": 77, "dateTime": 1512768231508, "trialdata": {"rt": [5300, 9147, 10648, 13742, 18209, 20429, 22561], "responses": ["16", "17", "11", "17", "18", "10", "13"], "num1": [5, 6, 5, 5, 6, 2, 3, 4], "num2": [8, 5, 5, 4, 4, 6, 8, 3], "num3": [3, 6, 1, 8, 8, 2, 2, 8], "type": "DISTRACTOR", "conditions": [12, 1600, "v", 24000], "trial": 2, "trial_type": "math-distractor", "trial_index": 77, "time_elapsed": 377768, "internal_node_id": "0.0-59.0"}}, {"uniqueid": "MTK0835:39ZSFO5CA93RYWYETDNU37N8HNEUJ4", "current_trial": 78, "dateTime": 1512768234520, "trialdata": {"rt": -1, "stimulus": "<p id=\"stim\">10</p>", "key_press": -1, "trial_type": "single-stim", "trial_index": 78, "time_elapsed": 380780, "internal_node_id": "0.0-60.0-0.0"}}, {"uniqueid": "MTK0835:39ZSFO5CA93RYWYETDNU37N8HNEUJ4", "current_trial": 79, "dateTime": 1512768235527, "trialdata": {"rt": -1, "stimulus": "<p id=\"stim\">9</p>", "key_press": -1, "trial_type": "single-stim", "trial_index": 79, "time_elapsed": 381787, "internal_node_id": "0.0-60.0-1.0"}}, {"uniqueid": "MTK0835:39ZSFO5CA93RYWYETDNU37N8HNEUJ4", "current_trial": 80, "dateTime": 1512768236539, "trialdata": {"rt": -1, "stimulus": "<p id=\"stim\">8</p>", "key_press": -1, "trial_type": "single-stim", "trial_index": 80, "time_elapsed": 382799, "internal_node_id": "0.0-60.0-2.0"}}, {"uniqueid": "MTK0835:39ZSFO5CA93RYWYETDNU37N8HNEUJ4", "current_trial": 81, "dateTime": 1512768237540, "trialdata": {"rt": -1, "stimulus": "<p id=\"stim\">7</p>", "key_press": -1, "trial_type": "single-stim", "trial_index": 81, "time_elapsed": 383800, "internal_node_id": "0.0-60.0-3.0"}}, {"uniqueid": "MTK0835:39ZSFO5CA93RYWYETDNU37N8HNEUJ4", "current_trial": 82, "dateTime": 1512768238542, "trialdata": {"rt": -1, "stimulus": "<p id=\"stim\">6</p>", "key_press": -1, "trial_type": "single-stim", "trial_index": 82, "time_elapsed": 384801, "internal_node_id": "0.0-60.0-4.0"}}, {"uniqueid": "MTK0835:39ZSFO5CA93RYWYETDNU37N8HNEUJ4", "current_trial": 83, "dateTime": 1512768239544, "trialdata": {"rt": -1, "stimulus": "<p id=\"stim\">5</p>", "key_press": -1, "trial_type": "single-stim", "trial_index": 83, "time_elapsed": 385804, "internal_node_id": "0.0-60.0-5.0"}}, {"uniqueid": "MTK0835:39ZSFO5CA93RYWYETDNU37N8HNEUJ4", "current_trial": 84, "dateTime": 1512768240546, "trialdata": {"rt": -1, "stimulus": "<p id=\"stim\">4</p>", "key_press": -1, "trial_type": "single-stim", "trial_index": 84, "time_elapsed": 386806, "internal_node_id": "0.0-60.0-6.0"}}, {"uniqueid": "MTK0835:39ZSFO5CA93RYWYETDNU37N8HNEUJ4", "current_trial": 85, "dateTime": 1512768241568, "trialdata": {"rt": -1, "stimulus": "<p id=\"stim\">3</p>", "key_press": -1, "trial_type": "single-stim", "trial_index": 85, "time_elapsed": 387821, "internal_node_id": "0.0-60.0-7.0"}}, {"uniqueid": "MTK0835:39ZSFO5CA93RYWYETDNU37N8HNEUJ4", "current_trial": 86, "dateTime": 1512768242570, "trialdata": {"rt": -1, "stimulus": "<p id=\"stim\">2</p>", "key_press": -1, "trial_type": "single-stim", "trial_index": 86, "time_elapsed": 388829, "internal_node_id": "0.0-60.0-8.0"}}, {"uniqueid": "MTK0835:39ZSFO5CA93RYWYETDNU37N8HNEUJ4", "current_trial": 87, "dateTime": 1512768243571, "trialdata": {"rt": -1, "stimulus": "<p id=\"stim\">1</p>", "key_press": -1, "trial_type": "single-stim", "trial_index": 87, "time_elapsed": 389831, "internal_node_id": "0.0-60.0-9.0"}}, {"uniqueid": "MTK0835:39ZSFO5CA93RYWYETDNU37N8HNEUJ4", "current_trial": 88, "dateTime": 1512768245073, "trialdata": {"rt": -1, "stimulus": "<p id=\"stim\">+</p>", "key_press": -1, "type": "FIXATION", "trial_type": "single-stim", "trial_index": 88, "time_elapsed": 391333, "internal_node_id": "0.0-61.0-0.0"}}, {"uniqueid": "MTK0835:39ZSFO5CA93RYWYETDNU37N8HNEUJ4", "current_trial": 89, "dateTime": 1512768246674, "trialdata": {"rt": -1, "stimulus": "<p id=\"stim\">DANDRUFF</p>", "key_press": -1, "type": "PRES_VIS", "word": "dandruff", "wordID": 438, "conditions": [12, 1600, "v", 24000], "trial": 2, "serialpos": 0, "trial_type": "single-stim", "trial_index": 89, "time_elapsed": 392934, "internal_node_id": "0.0-62.0"}}, {"uniqueid": "MTK0835:39ZSFO5CA93RYWYETDNU37N8HNEUJ4", "current_trial": 90, "dateTime": 1512768249257, "trialdata": {"rt": -1, "stimulus": "<p id=\"stim\">PLIERS</p>", "key_press": -1, "type": "PRES_VIS", "word": "pliers", "wordID": 1088, "conditions": [12, 1600, "v", 24000], "trial": 2, "serialpos": 1, "trial_type": "single-stim", "trial_index": 90, "time_elapsed": 395517, "internal_node_id": "0.0-63.0"}}, {"uniqueid": "MTK0835:39ZSFO5CA93RYWYETDNU37N8HNEUJ4", "current_trial": 91, "dateTime": 1512768251971, "trialdata": {"rt": -1, "stimulus": "<p id=\"stim\">TWEEZERS</p>", "key_press": -1, "type": "PRES_VIS", "word": "tweezers", "wordID": 1525, "conditions": [12, 1600, "v", 24000], "trial": 2, "serialpos": 2, "trial_type": "single-stim", "trial_index": 91, "time_elapsed": 398231, "internal_node_id": "0.0-64.0"}}, {"uniqueid": "MTK0835:39ZSFO5CA93RYWYETDNU37N8HNEUJ4", "current_trial": 92, "dateTime": 1512768254457, "trialdata": {"rt": -1, "stimulus": "<p id=\"stim\">HIKER</p>", "key_press": -1, "type": "PRES_VIS", "word": "hiker", "wordID": 707, "conditions": [12, 1600, "v", 24000], "trial": 2, "serialpos": 3, "trial_type": "single-stim", "trial_index": 92, "time_elapsed": 400717, "internal_node_id": "0.0-65.0"}}, {"uniqueid": "MTK0835:39ZSFO5CA93RYWYETDNU37N8HNEUJ4", "current_trial": 93, "dateTime": 1512768257087, "trialdata": {"rt": -1, "stimulus": "<p id=\"stim\">DRAWING</p>", "key_press": -1, "type": "PRES_VIS", "word": "drawing", "wordID": 493, "conditions": [12, 1600, "v", 24000], "trial": 2, "serialpos": 4, "trial_type": "single-stim", "trial_index": 93, "time_elapsed": 403347, "internal_node_id": "0.0-66.0"}}, {"uniqueid": "MTK0835:39ZSFO5CA93RYWYETDNU37N8HNEUJ4", "current_trial": 94, "dateTime": 1512768259878, "trialdata": {"rt": -1, "stimulus": "<p id=\"stim\">BLADE</p>", "key_press": -1, "type": "PRES_VIS", "word": "blade", "wordID": 133, "conditions": [12, 1600, "v", 24000], "trial": 2, "serialpos": 5, "trial_type": "single-stim", "trial_index": 94, "time_elapsed": 406137, "internal_node_id": "0.0-67.0"}}, {"uniqueid": "MTK0835:39ZSFO5CA93RYWYETDNU37N8HNEUJ4", "current_trial": 95, "dateTime": 1512768262322, "trialdata": {"rt": -1, "stimulus": "<p id=\"stim\">HANDBAG</p>", "key_press": -1, "type": "PRES_VIS", "word": "handbag", "wordID": 683, "conditions": [12, 1600, "v", 24000], "trial": 2, "serialpos": 6, "trial_type": "single-stim", "trial_index": 95, "time_elapsed": 408582, "internal_node_id": "0.0-68.0"}}, {"uniqueid": "MTK0835:39ZSFO5CA93RYWYETDNU37N8HNEUJ4", "current_trial": 96, "dateTime": 1512768264909, "trialdata": {"rt": -1, "stimulus": "<p id=\"stim\">PAPER</p>", "key_press": -1, "type": "PRES_VIS", "word": "paper", "wordID": 1010, "conditions": [12, 1600, "v", 24000], "trial": 2, "serialpos": 7, "trial_type": "single-stim", "trial_index": 96, "time_elapsed": 411169, "internal_node_id": "0.0-69.0"}}, {"uniqueid": "MTK0835:39ZSFO5CA93RYWYETDNU37N8HNEUJ4", "current_trial": 97, "dateTime": 1512768267590, "trialdata": {"rt": -1, "stimulus": "<p id=\"stim\">MILDEW</p>", "key_press": -1, "type": "PRES_VIS", "word": "mildew", "wordID": 892, "conditions": [12, 1600, "v", 24000], "trial": 2, "serialpos": 8, "trial_type": "single-stim", "trial_index": 97, "time_elapsed": 413850, "internal_node_id": "0.0-70.0"}}, {"uniqueid": "MTK0835:39ZSFO5CA93RYWYETDNU37N8HNEUJ4", "current_trial": 98, "dateTime": 1512768270370, "trialdata": {"rt": -1, "stimulus": "<p id=\"stim\">TERMITE</p>", "key_press": -1, "type": "PRES_VIS", "word": "termite", "wordID": 1450, "conditions": [12, 1600, "v", 24000], "trial": 2, "serialpos": 9, "trial_type": "single-stim", "trial_index": 98, "time_elapsed": 416629, "internal_node_id": "0.0-71.0"}}, {"uniqueid": "MTK0835:39ZSFO5CA93RYWYETDNU37N8HNEUJ4", "current_trial": 99, "dateTime": 1512768273164, "trialdata": {"rt": -1, "stimulus": "<p id=\"stim\">CARROT</p>", "key_press": -1, "type": "PRES_VIS", "word": "carrot", "wordID": 248, "conditions": [12, 1600, "v", 24000], "trial": 2, "serialpos": 10, "trial_type": "single-stim", "trial_index": 99, "time_elapsed": 419424, "internal_node_id": "0.0-72.0"}}, {"uniqueid": "MTK0835:39ZSFO5CA93RYWYETDNU37N8HNEUJ4", "current_trial": 100, "dateTime": 1512768275680, "trialdata": {"rt": -1, "stimulus": "<p id=\"stim\">CLIMBER</p>", "key_press": -1, "type": "PRES_VIS", "word": "climber", "wordID": 322, "conditions": [12, 1600, "v", 24000], "trial": 2, "serialpos": 11, "trial_type": "single-stim", "trial_index": 100, "time_elapsed": 421940, "internal_node_id": "0.0-73.0"}}, {"uniqueid": "MTK0835:39ZSFO5CA93RYWYETDNU37N8HNEUJ4", "current_trial": 101, "dateTime": 1512768278006, "trialdata": {"rt": -1, "stimulus": "", "key_press": -1, "type": "PRE_RECALL_DELAY", "trial_type": "single-stim", "trial_index": 101, "time_elapsed": 424266, "internal_node_id": "0.0-74.0-0.0"}}, {"uniqueid": "MTK0835:39ZSFO5CA93RYWYETDNU37N8HNEUJ4", "current_trial": 102, "dateTime": 1512768278513, "trialdata": {"rt": -1000, "stimulus": "/static/audio/400Hz.wav", "key_press": -1, "type": "PRE_RECALL_ALERT", "trial_type": "single-audio", "trial_index": 102, "time_elapsed": 424773, "internal_node_id": "0.0-75.0"}}, {"uniqueid": "MTK0835:39ZSFO5CA93RYWYETDNU37N8HNEUJ4", "current_trial": 103, "dateTime": 1512768338523, "trialdata": {"rt": [3592, 4573, 7135, 15594, 28221], "recwords": ["climber", "hiker", "dandruff", "mountain", "termite"], "type": "FREE_RECALL", "conditions": [12, 1600, "v", 24000], "trial": 2, "trial_type": "free-recall", "trial_index": 103, "time_elapsed": 484778, "internal_node_id": "0.0-76.0-0.0"}}, {"uniqueid": "MTK0835:39ZSFO5CA93RYWYETDNU37N8HNEUJ4", "current_trial": 104, "dateTime": 1512768343058, "trialdata": {"rt": 2533, "key_press": 32, "type": "INSTRUCTIONS", "trial_type": "text", "trial_index": 104, "time_elapsed": 489318, "internal_node_id": "0.0-77.0"}}, {"uniqueid": "MTK0835:39ZSFO5CA93RYWYETDNU37N8HNEUJ4", "current_trial": 105, "dateTime": 1512768369064, "trialdata": {"rt": [2768, 5934, 10241, 12113, 16219, 17951, 20889], "responses": ["12", "24", "21", "16", "19", "18", "9"], "num1": [2, 6, 8, 8, 6, 7, 6, 8], "num2": [6, 9, 4, 4, 5, 4, 1, 6], "num3": [4, 9, 9, 4, 8, 7, 2, 6], "type": "DISTRACTOR", "conditions": [24, 800, "a", 24000], "trial": 3, "trial_type": "math-distractor", "trial_index": 105, "time_elapsed": 515323, "internal_node_id": "0.0-78.0"}}, {"uniqueid": "MTK0835:39ZSFO5CA93RYWYETDNU37N8HNEUJ4", "current_trial": 106, "dateTime": 1512768372086, "trialdata": {"rt": -1, "stimulus": "<p id=\"stim\">10</p>", "key_press": -1, "trial_type": "single-stim", "trial_index": 106, "time_elapsed": 518346, "internal_node_id": "0.0-79.0-0.0"}}, {"uniqueid": "MTK0835:39ZSFO5CA93RYWYETDNU37N8HNEUJ4", "current_trial": 107, "dateTime": 1512768373088, "trialdata": {"rt": -1, "stimulus": "<p id=\"stim\">9</p>", "key_press": -1, "trial_type": "single-stim", "trial_index": 107, "time_elapsed": 519348, "internal_node_id": "0.0-79.0-1.0"}}, {"uniqueid": "MTK0835:39ZSFO5CA93RYWYETDNU37N8HNEUJ4", "current_trial": 108, "dateTime": 1512768374089, "trialdata": {"rt": -1, "stimulus": "<p id=\"stim\">8</p>", "key_press": -1, "trial_type": "single-stim", "trial_index": 108, "time_elapsed": 520349, "internal_node_id": "0.0-79.0-2.0"}}, {"uniqueid": "MTK0835:39ZSFO5CA93RYWYETDNU37N8HNEUJ4", "current_trial": 109, "dateTime": 1512768375097, "trialdata": {"rt": -1, "stimulus": "<p id=\"stim\">7</p>", "key_press": -1, "trial_type": "single-stim", "trial_index": 109, "time_elapsed": 521357, "internal_node_id": "0.0-79.0-3.0"}}, {"uniqueid": "MTK0835:39ZSFO5CA93RYWYETDNU37N8HNEUJ4", "current_trial": 110, "dateTime": 1512768376099, "trialdata": {"rt": -1, "stimulus": "<p id=\"stim\">6</p>", "key_press": -1, "trial_type": "single-stim", "trial_index": 110, "time_elapsed": 522359, "internal_node_id": "0.0-79.0-4.0"}}, {"uniqueid": "MTK0835:39ZSFO5CA93RYWYETDNU37N8HNEUJ4", "current_trial": 111, "dateTime": 1512768377104, "trialdata": {"rt": -1, "stimulus": "<p id=\"stim\">5</p>", "key_press": -1, "trial_type": "single-stim", "trial_index": 111, "time_elapsed": 523363, "internal_node_id": "0.0-79.0-5.0"}}, {"uniqueid": "MTK0835:39ZSFO5CA93RYWYETDNU37N8HNEUJ4", "current_trial": 112, "dateTime": 1512768378106, "trialdata": {"rt": -1, "stimulus": "<p id=\"stim\">4</p>", "key_press": -1, "trial_type": "single-stim", "trial_index": 112, "time_elapsed": 524366, "internal_node_id": "0.0-79.0-6.0"}}, {"uniqueid": "MTK0835:39ZSFO5CA93RYWYETDNU37N8HNEUJ4", "current_trial": 113, "dateTime": 1512768379107, "trialdata": {"rt": -1, "stimulus": "<p id=\"stim\">3</p>", "key_press": -1, "trial_type": "single-stim", "trial_index": 113, "time_elapsed": 525367, "internal_node_id": "0.0-79.0-7.0"}}, {"uniqueid": "MTK0835:39ZSFO5CA93RYWYETDNU37N8HNEUJ4", "current_trial": 114, "dateTime": 1512768380109, "trialdata": {"rt": -1, "stimulus": "<p id=\"stim\">2</p>", "key_press": -1, "trial_type": "single-stim", "trial_index": 114, "time_elapsed": 526369, "internal_node_id": "0.0-79.0-8.0"}}, {"uniqueid": "MTK0835:39ZSFO5CA93RYWYETDNU37N8HNEUJ4", "current_trial": 115, "dateTime": 1512768381110, "trialdata": {"rt": -1, "stimulus": "<p id=\"stim\">1</p>", "key_press": -1, "trial_type": "single-stim", "trial_index": 115, "time_elapsed": 527370, "internal_node_id": "0.0-79.0-9.0"}}, {"uniqueid": "MTK0835:39ZSFO5CA93RYWYETDNU37N8HNEUJ4", "current_trial": 116, "dateTime": 1512768382617, "trialdata": {"rt": -1, "stimulus": "<p id=\"stim\">+</p>", "key_press": -1, "type": "FIXATION", "trial_type": "single-stim", "trial_index": 116, "time_elapsed": 528877, "internal_node_id": "0.0-80.0-0.0"}}, {"uniqueid": "MTK0835:39ZSFO5CA93RYWYETDNU37N8HNEUJ4", "current_trial": 117, "dateTime": 1512768384238, "trialdata": {"rt": -1000, "stimulus": "/static/audio/wordpool/DRESS.wav", "key_press": -1, "type": "PRES_AUD", "word": "dress", "wordID": 494, "conditions": [24, 800, "a", 24000], "trial": 3, "serialpos": 0, "trial_type": "single-audio", "trial_index": 117, "time_elapsed": 530498, "internal_node_id": "0.0-81.0"}}, {"uniqueid": "MTK0835:39ZSFO5CA93RYWYETDNU37N8HNEUJ4", "current_trial": 118, "dateTime": 1512768385978, "trialdata": {"rt": -1000, "stimulus": "/static/audio/wordpool/HEART.wav", "key_press": -1, "type": "PRES_AUD", "word": "heart", "wordID": 696, "conditions": [24, 800, "a", 24000], "trial": 3, "serialpos": 1, "trial_type": "single-audio", "trial_index": 118, "time_elapsed": 532238, "internal_node_id": "0.0-82.0"}}, {"uniqueid": "MTK0835:39ZSFO5CA93RYWYETDNU37N8HNEUJ4", "current_trial": 119, "dateTime": 1512768387698, "trialdata": {"rt": -1000, "stimulus": "/static/audio/wordpool/SPHINX.wav", "key_press": -1, "type": "PRES_AUD", "word": "sphinx", "wordID": 1348, "conditions": [24, 800, "a", 24000], "trial": 3, "serialpos": 2, "trial_type": "single-audio", "trial_index": 119, "time_elapsed": 533958, "internal_node_id": "0.0-83.0"}}, {"uniqueid": "MTK0835:39ZSFO5CA93RYWYETDNU37N8HNEUJ4", "current_trial": 120, "dateTime": 1512768389665, "trialdata": {"rt": -1000, "stimulus": "/static/audio/wordpool/HARP.wav", "key_press": -1, "type": "PRES_AUD", "word": "harp", "wordID": 688, "conditions": [24, 800, "a", 24000], "trial": 3, "serialpos": 3, "trial_type": "single-audio", "trial_index": 120, "time_elapsed": 535925, "internal_node_id": "0.0-84.0"}}, {"uniqueid": "MTK0835:39ZSFO5CA93RYWYETDNU37N8HNEUJ4", "current_trial": 121, "dateTime": 1512768391644, "trialdata": {"rt": -1000, "stimulus": "/static/audio/wordpool/PIGEON.wav", "key_press": -1, "type": "PRES_AUD", "word": "pigeon", "wordID": 1064, "conditions": [24, 800, "a", 24000], "trial": 3, "serialpos": 4, "trial_type": "single-audio", "trial_index": 121, "time_elapsed": 537904, "internal_node_id": "0.0-85.0"}}, {"uniqueid": "MTK0835:39ZSFO5CA93RYWYETDNU37N8HNEUJ4", "current_trial": 122, "dateTime": 1512768393277, "trialdata": {"rt": -1000, "stimulus": "/static/audio/wordpool/WARDROBE.wav", "key_press": -1, "type": "PRES_AUD", "word": "wardrobe", "wordID": 1586, "conditions": [24, 800, "a", 24000], "trial": 3, "serialpos": 5, "trial_type": "single-audio", "trial_index": 122, "time_elapsed": 539537, "internal_node_id": "0.0-86.0"}}, {"uniqueid": "MTK0835:39ZSFO5CA93RYWYETDNU37N8HNEUJ4", "current_trial": 123, "dateTime": 1512768394910, "trialdata": {"rt": -1000, "stimulus": "/static/audio/wordpool/BLOUSE.wav", "key_press": -1, "type": "PRES_AUD", "word": "blouse", "wordID": 138, "conditions": [24, 800, "a", 24000], "trial": 3, "serialpos": 6, "trial_type": "single-audio", "trial_index": 123, "time_elapsed": 541170, "internal_node_id": "0.0-87.0"}}, {"uniqueid": "MTK0835:39ZSFO5CA93RYWYETDNU37N8HNEUJ4", "current_trial": 124, "dateTime": 1512768396588, "trialdata": {"rt": -1000, "stimulus": "/static/audio/wordpool/COD.wav", "key_press": -1, "type": "PRES_AUD", "word": "cod", "wordID": 339, "conditions": [24, 800, "a", 24000], "trial": 3, "serialpos": 7, "trial_type": "single-audio", "trial_index": 124, "time_elapsed": 542848, "internal_node_id": "0.0-88.0"}}, {"uniqueid": "MTK0835:39ZSFO5CA93RYWYETDNU37N8HNEUJ4", "current_trial": 125, "dateTime": 1512768398407, "trialdata": {"rt": -1000, "stimulus": "/static/audio/wordpool/COUCH.wav", "key_press": -1, "type": "PRES_AUD", "word": "couch", "wordID": 385, "conditions": [24, 800, "a", 24000], "trial": 3, "serialpos": 8, "trial_type": "single-audio", "trial_index": 125, "time_elapsed": 544667, "internal_node_id": "0.0-89.0"}}, {"uniqueid": "MTK0835:39ZSFO5CA93RYWYETDNU37N8HNEUJ4", "current_trial": 126, "dateTime": 1512768400246, "trialdata": {"rt": -1000, "stimulus": "/static/audio/wordpool/MATTRESS.wav", "key_press": -1, "type": "PRES_AUD", "word": "mattress", "wordID": 878, "conditions": [24, 800, "a", 24000], "trial": 3, "serialpos": 9, "trial_type": "single-audio", "trial_index": 126, "time_elapsed": 546506, "internal_node_id": "0.0-90.0"}}, {"uniqueid": "MTK0835:39ZSFO5CA93RYWYETDNU37N8HNEUJ4", "current_trial": 127, "dateTime": 1512768402199, "trialdata": {"rt": -1000, "stimulus": "/static/audio/wordpool/POLICE.wav", "key_press": -1, "type": "PRES_AUD", "word": "police", "wordID": 1097, "conditions": [24, 800, "a", 24000], "trial": 3, "serialpos": 10, "trial_type": "single-audio", "trial_index": 127, "time_elapsed": 548459, "internal_node_id": "0.0-91.0"}}, {"uniqueid": "MTK0835:39ZSFO5CA93RYWYETDNU37N8HNEUJ4", "current_trial": 128, "dateTime": 1512768404177, "trialdata": {"rt": -1000, "stimulus": "/static/audio/wordpool/MUMMY.wav", "key_press": -1, "type": "PRES_AUD", "word": "mummy", "wordID": 931, "conditions": [24, 800, "a", 24000], "trial": 3, "serialpos": 11, "trial_type": "single-audio", "trial_index": 128, "time_elapsed": 550437, "internal_node_id": "0.0-92.0"}}, {"uniqueid": "MTK0835:39ZSFO5CA93RYWYETDNU37N8HNEUJ4", "current_trial": 129, "dateTime": 1512768406120, "trialdata": {"rt": -1000, "stimulus": "/static/audio/wordpool/JUDGE.wav", "key_press": -1, "type": "PRES_AUD", "word": "judge", "wordID": 760, "conditions": [24, 800, "a", 24000], "trial": 3, "serialpos": 12, "trial_type": "single-audio", "trial_index": 129, "time_elapsed": 552380, "internal_node_id": "0.0-93.0"}}, {"uniqueid": "MTK0835:39ZSFO5CA93RYWYETDNU37N8HNEUJ4", "current_trial": 130, "dateTime": 1512768407860, "trialdata": {"rt": -1000, "stimulus": "/static/audio/wordpool/SLOPE.wav", "key_press": -1, "type": "PRES_AUD", "word": "slope", "wordID": 1327, "conditions": [24, 800, "a", 24000], "trial": 3, "serialpos": 13, "trial_type": "single-audio", "trial_index": 130, "time_elapsed": 554119, "internal_node_id": "0.0-94.0"}}, {"uniqueid": "MTK0835:39ZSFO5CA93RYWYETDNU37N8HNEUJ4", "current_trial": 131, "dateTime": 1512768409727, "trialdata": {"rt": -1000, "stimulus": "/static/audio/wordpool/GIFT.wav", "key_press": -1, "type": "PRES_AUD", "word": "gift", "wordID": 634, "conditions": [24, 800, "a", 24000], "trial": 3, "serialpos": 14, "trial_type": "single-audio", "trial_index": 131, "time_elapsed": 555987, "internal_node_id": "0.0-95.0"}}, {"uniqueid": "MTK0835:39ZSFO5CA93RYWYETDNU37N8HNEUJ4", "current_trial": 132, "dateTime": 1512768411623, "trialdata": {"rt": -1000, "stimulus": "/static/audio/wordpool/DUST.wav", "key_press": -1, "type": "PRES_AUD", "word": "dust", "wordID": 507, "conditions": [24, 800, "a", 24000], "trial": 3, "serialpos": 15, "trial_type": "single-audio", "trial_index": 132, "time_elapsed": 557883, "internal_node_id": "0.0-96.0"}}, {"uniqueid": "MTK0835:39ZSFO5CA93RYWYETDNU37N8HNEUJ4", "current_trial": 133, "dateTime": 1512768413397, "trialdata": {"rt": -1000, "stimulus": "/static/audio/wordpool/DRILL.wav", "key_press": -1, "type": "PRES_AUD", "word": "drill", "wordID": 496, "conditions": [24, 800, "a", 24000], "trial": 3, "serialpos": 16, "trial_type": "single-audio", "trial_index": 133, "time_elapsed": 559656, "internal_node_id": "0.0-97.0"}}, {"uniqueid": "MTK0835:39ZSFO5CA93RYWYETDNU37N8HNEUJ4", "current_trial": 134, "dateTime": 1512768415337, "trialdata": {"rt": -1000, "stimulus": "/static/audio/wordpool/EXPERT.wav", "key_press": -1, "type": "PRES_AUD", "word": "expert", "wordID": 542, "conditions": [24, 800, "a", 24000], "trial": 3, "serialpos": 17, "trial_type": "single-audio", "trial_index": 134, "time_elapsed": 561597, "internal_node_id": "0.0-98.0"}}, {"uniqueid": "MTK0835:39ZSFO5CA93RYWYETDNU37N8HNEUJ4", "current_trial": 135, "dateTime": 1512768416999, "trialdata": {"rt": -1000, "stimulus": "/static/audio/wordpool/APPLE.wav", "key_press": -1, "type": "PRES_AUD", "word": "apple", "wordID": 32, "conditions": [24, 800, "a", 24000], "trial": 3, "serialpos": 18, "trial_type": "single-audio", "trial_index": 135, "time_elapsed": 563259, "internal_node_id": "0.0-99.0"}}, {"uniqueid": "MTK0835:39ZSFO5CA93RYWYETDNU37N8HNEUJ4", "current_trial": 136, "dateTime": 1512768418740, "trialdata": {"rt": -1000, "stimulus": "/static/audio/wordpool/COMET.wav", "key_press": -1, "type": "PRES_AUD", "word": "comet", "wordID": 352, "conditions": [24, 800, "a", 24000], "trial": 3, "serialpos": 19, "trial_type": "single-audio", "trial_index": 136, "time_elapsed": 565000, "internal_node_id": "0.0-100.0"}}, {"uniqueid": "MTK0835:39ZSFO5CA93RYWYETDNU37N8HNEUJ4", "current_trial": 137, "dateTime": 1512768420535, "trialdata": {"rt": -1000, "stimulus": "/static/audio/wordpool/INFANT.wav", "key_press": -1, "type": "PRES_AUD", "word": "infant", "wordID": 736, "conditions": [24, 800, "a", 24000], "trial": 3, "serialpos": 20, "trial_type": "single-audio", "trial_index": 137, "time_elapsed": 566795, "internal_node_id": "0.0-101.0"}}, {"uniqueid": "MTK0835:39ZSFO5CA93RYWYETDNU37N8HNEUJ4", "current_trial": 138, "dateTime": 1512768422188, "trialdata": {"rt": -1000, "stimulus": "/static/audio/wordpool/CHILD.wav", "key_press": -1, "type": "PRES_AUD", "word": "child", "wordID": 298, "conditions": [24, 800, "a", 24000], "trial": 3, "serialpos": 21, "trial_type": "single-audio", "trial_index": 138, "time_elapsed": 568448, "internal_node_id": "0.0-102.0"}}, {"uniqueid": "MTK0835:39ZSFO5CA93RYWYETDNU37N8HNEUJ4", "current_trial": 139, "dateTime": 1512768423865, "trialdata": {"rt": -1000, "stimulus": "/static/audio/wordpool/JURY.wav", "key_press": -1, "type": "PRES_AUD", "word": "jury", "wordID": 765, "conditions": [24, 800, "a", 24000], "trial": 3, "serialpos": 22, "trial_type": "single-audio", "trial_index": 139, "time_elapsed": 570124, "internal_node_id": "0.0-103.0"}}, {"uniqueid": "MTK0835:39ZSFO5CA93RYWYETDNU37N8HNEUJ4", "current_trial": 140, "dateTime": 1512768425510, "trialdata": {"rt": -1000, "stimulus": "/static/audio/wordpool/HIGHWAY.wav", "key_press": -1, "type": "PRES_AUD", "word": "highway", "wordID": 706, "conditions": [24, 800, "a", 24000], "trial": 3, "serialpos": 23, "trial_type": "single-audio", "trial_index": 140, "time_elapsed": 571770, "internal_node_id": "0.0-104.0"}}, {"uniqueid": "MTK0835:39ZSFO5CA93RYWYETDNU37N8HNEUJ4", "current_trial": 141, "dateTime": 1512768426785, "trialdata": {"rt": -1, "stimulus": "", "key_press": -1, "type": "PRE_RECALL_DELAY", "trial_type": "single-stim", "trial_index": 141, "time_elapsed": 573045, "internal_node_id": "0.0-105.0-0.0"}}, {"uniqueid": "MTK0835:39ZSFO5CA93RYWYETDNU37N8HNEUJ4", "current_trial": 142, "dateTime": 1512768427304, "trialdata": {"rt": -1000, "stimulus": "/static/audio/400Hz.wav", "key_press": -1, "type": "PRE_RECALL_ALERT", "trial_type": "single-audio", "trial_index": 142, "time_elapsed": 573563, "internal_node_id": "0.0-106.0"}}, {"uniqueid": "MTK0835:39ZSFO5CA93RYWYETDNU37N8HNEUJ4", "current_trial": 143, "dateTime": 1512768487312, "trialdata": {"rt": [], "recwords": [], "type": "FREE_RECALL", "conditions": [24, 800, "a", 24000], "trial": 3, "trial_type": "free-recall", "trial_index": 143, "time_elapsed": 633568, "internal_node_id": "0.0-107.0-0.0"}}, {"uniqueid": "MTK0835:39ZSFO5CA93RYWYETDNU37N8HNEUJ4", "current_trial": 144, "dateTime": 1512768490264, "trialdata": {"rt": 950, "key_press": 32, "type": "INSTRUCTIONS", "trial_type": "text", "trial_index": 144, "time_elapsed": 636524, "internal_node_id": "0.0-108.0"}}, {"uniqueid": "MTK0835:39ZSFO5CA93RYWYETDNU37N8HNEUJ4", "current_trial": 145, "dateTime": 1512768504267, "trialdata": {"rt": [4093, 7253, 10769], "responses": ["18", "20", "24"], "num1": [7, 8, 8, 7], "num2": [8, 7, 9, 4], "num3": [3, 5, 7, 1], "type": "DISTRACTOR", "conditions": [12, 1600, "a", 12000], "trial": 4, "trial_type": "math-distractor", "trial_index": 145, "time_elapsed": 650527, "internal_node_id": "0.0-109.0"}}, {"uniqueid": "MTK0835:39ZSFO5CA93RYWYETDNU37N8HNEUJ4", "current_trial": 146, "dateTime": 1512768507272, "trialdata": {"rt": -1, "stimulus": "<p id=\"stim\">10</p>", "key_press": -1, "trial_type": "single-stim", "trial_index": 146, "time_elapsed": 653532, "internal_node_id": "0.0-110.0-0.0"}}, {"uniqueid": "MTK0835:39ZSFO5CA93RYWYETDNU37N8HNEUJ4", "current_trial": 147, "dateTime": 1512768508273, "trialdata": {"rt": -1, "stimulus": "<p id=\"stim\">9</p>", "key_press": -1, "trial_type": "single-stim", "trial_index": 147, "time_elapsed": 654533, "internal_node_id": "0.0-110.0-1.0"}}, {"uniqueid": "MTK0835:39ZSFO5CA93RYWYETDNU37N8HNEUJ4", "current_trial": 148, "dateTime": 1512768509275, "trialdata": {"rt": -1, "stimulus": "<p id=\"stim\">8</p>", "key_press": -1, "trial_type": "single-stim", "trial_index": 148, "time_elapsed": 655535, "internal_node_id": "0.0-110.0-2.0"}}, {"uniqueid": "MTK0835:39ZSFO5CA93RYWYETDNU37N8HNEUJ4", "current_trial": 149, "dateTime": 1512768510280, "trialdata": {"rt": -1, "stimulus": "<p id=\"stim\">7</p>", "key_press": -1, "trial_type": "single-stim", "trial_index": 149, "time_elapsed": 656537, "internal_node_id": "0.0-110.0-3.0"}}, {"uniqueid": "MTK0835:39ZSFO5CA93RYWYETDNU37N8HNEUJ4", "current_trial": 150, "dateTime": 1512768511289, "trialdata": {"rt": -1, "stimulus": "<p id=\"stim\">6</p>", "key_press": -1, "trial_type": "single-stim", "trial_index": 150, "time_elapsed": 657549, "internal_node_id": "0.0-110.0-4.0"}}, {"uniqueid": "MTK0835:39ZSFO5CA93RYWYETDNU37N8HNEUJ4", "current_trial": 151, "dateTime": 1512768512290, "trialdata": {"rt": -1, "stimulus": "<p id=\"stim\">5</p>", "key_press": -1, "trial_type": "single-stim", "trial_index": 151, "time_elapsed": 658550, "internal_node_id": "0.0-110.0-5.0"}}, {"uniqueid": "MTK0835:39ZSFO5CA93RYWYETDNU37N8HNEUJ4", "current_trial": 152, "dateTime": 1512768513291, "trialdata": {"rt": -1, "stimulus": "<p id=\"stim\">4</p>", "key_press": -1, "trial_type": "single-stim", "trial_index": 152, "time_elapsed": 659551, "internal_node_id": "0.0-110.0-6.0"}}, {"uniqueid": "MTK0835:39ZSFO5CA93RYWYETDNU37N8HNEUJ4", "current_trial": 153, "dateTime": 1512768514294, "trialdata": {"rt": -1, "stimulus": "<p id=\"stim\">3</p>", "key_press": -1, "trial_type": "single-stim", "trial_index": 153, "time_elapsed": 660554, "internal_node_id": "0.0-110.0-7.0"}}, {"uniqueid": "MTK0835:39ZSFO5CA93RYWYETDNU37N8HNEUJ4", "current_trial": 154, "dateTime": 1512768515295, "trialdata": {"rt": -1, "stimulus": "<p id=\"stim\">2</p>", "key_press": -1, "trial_type": "single-stim", "trial_index": 154, "time_elapsed": 661554, "internal_node_id": "0.0-110.0-8.0"}}, {"uniqueid": "MTK0835:39ZSFO5CA93RYWYETDNU37N8HNEUJ4", "current_trial": 155, "dateTime": 1512768516296, "trialdata": {"rt": -1, "stimulus": "<p id=\"stim\">1</p>", "key_press": -1, "trial_type": "single-stim", "trial_index": 155, "time_elapsed": 662556, "internal_node_id": "0.0-110.0-9.0"}}, {"uniqueid": "MTK0835:39ZSFO5CA93RYWYETDNU37N8HNEUJ4", "current_trial": 156, "dateTime": 1512768517800, "trialdata": {"rt": -1, "stimulus": "<p id=\"stim\">+</p>", "key_press": -1, "type": "FIXATION", "trial_type": "single-stim", "trial_index": 156, "time_elapsed": 664058, "internal_node_id": "0.0-111.0-0.0"}}, {"uniqueid": "MTK0835:39ZSFO5CA93RYWYETDNU37N8HNEUJ4", "current_trial": 157, "dateTime": 1512768520488, "trialdata": {"rt": -1000, "stimulus": "/static/audio/wordpool/ARM.wav", "key_press": -1, "type": "PRES_AUD", "word": "arm", "wordID": 37, "conditions": [12, 1600, "a", 12000], "trial": 4, "serialpos": 0, "trial_type": "single-audio", "trial_index": 157, "time_elapsed": 666748, "internal_node_id": "0.0-112.0"}}, {"uniqueid": "MTK0835:39ZSFO5CA93RYWYETDNU37N8HNEUJ4", "current_trial": 158, "dateTime": 1512768522942, "trialdata": {"rt": -1000, "stimulus": "/static/audio/wordpool/LIVER.wav", "key_press": -1, "type": "PRES_AUD", "word": "liver", "wordID": 832, "conditions": [12, 1600, "a", 12000], "trial": 4, "serialpos": 1, "trial_type": "single-audio", "trial_index": 158, "time_elapsed": 669202, "internal_node_id": "0.0-113.0"}}, {"uniqueid": "MTK0835:39ZSFO5CA93RYWYETDNU37N8HNEUJ4", "current_trial": 159, "dateTime": 1512768525365, "trialdata": {"rt": -1000, "stimulus": "/static/audio/wordpool/LIPSTICK.wav", "key_press": -1, "type": "PRES_AUD", "word": "lipstick", "wordID": 828, "conditions": [12, 1600, "a", 12000], "trial": 4, "serialpos": 2, "trial_type": "single-audio", "trial_index": 159, "time_elapsed": 671625, "internal_node_id": "0.0-114.0"}}, {"uniqueid": "MTK0835:39ZSFO5CA93RYWYETDNU37N8HNEUJ4", "current_trial": 160, "dateTime": 1512768527945, "trialdata": {"rt": -1000, "stimulus": "/static/audio/wordpool/OFFICE.wav", "key_press": -1, "type": "PRES_AUD", "word": "office", "wordID": 971, "conditions": [12, 1600, "a", 12000], "trial": 4, "serialpos": 3, "trial_type": "single-audio", "trial_index": 160, "time_elapsed": 674204, "internal_node_id": "0.0-115.0"}}, {"uniqueid": "MTK0835:39ZSFO5CA93RYWYETDNU37N8HNEUJ4", "current_trial": 161, "dateTime": 1512768530366, "trialdata": {"rt": -1000, "stimulus": "/static/audio/wordpool/ORANGE.wav", "key_press": -1, "type": "PRES_AUD", "word": "orange", "wordID": 979, "conditions": [12, 1600, "a", 12000], "trial": 4, "serialpos": 4, "trial_type": "single-audio", "trial_index": 161, "time_elapsed": 676626, "internal_node_id": "0.0-116.0"}}, {"uniqueid": "MTK0835:39ZSFO5CA93RYWYETDNU37N8HNEUJ4", "current_trial": 162, "dateTime": 1512768533110, "trialdata": {"rt": -1000, "stimulus": "/static/audio/wordpool/LEG.wav", "key_press": -1, "type": "PRES_AUD", "word": "leg", "wordID": 808, "conditions": [12, 1600, "a", 12000], "trial": 4, "serialpos": 5, "trial_type": "single-audio", "trial_index": 162, "time_elapsed": 679370, "internal_node_id": "0.0-117.0"}}, {"uniqueid": "MTK0835:39ZSFO5CA93RYWYETDNU37N8HNEUJ4", "current_trial": 163, "dateTime": 1512768535850, "trialdata": {"rt": -1000, "stimulus": "/static/audio/wordpool/BELLY.wav", "key_press": -1, "type": "PRES_AUD", "word": "belly", "wordID": 118, "conditions": [12, 1600, "a", 12000], "trial": 4, "serialpos": 6, "trial_type": "single-audio", "trial_index": 163, "time_elapsed": 682110, "internal_node_id": "0.0-118.0"}}, {"uniqueid": "MTK0835:39ZSFO5CA93RYWYETDNU37N8HNEUJ4", "current_trial": 164, "dateTime": 1512768538488, "trialdata": {"rt": -1000, "stimulus": "/static/audio/wordpool/SPIDER.wav", "key_press": -1, "type": "PRES_AUD", "word": "spider", "wordID": 1350, "conditions": [12, 1600, "a", 12000], "trial": 4, "serialpos": 7, "trial_type": "single-audio", "trial_index": 164, "time_elapsed": 684747, "internal_node_id": "0.0-119.0"}}, {"uniqueid": "MTK0835:39ZSFO5CA93RYWYETDNU37N8HNEUJ4", "current_trial": 165, "dateTime": 1512768541049, "trialdata": {"rt": -1000, "stimulus": "/static/audio/wordpool/DONOR.wav", "key_press": -1, "type": "PRES_AUD", "word": "donor", "wordID": 484, "conditions": [12, 1600, "a", 12000], "trial": 4, "serialpos": 8, "trial_type": "single-audio", "trial_index": 165, "time_elapsed": 687308, "internal_node_id": "0.0-120.0"}}, {"uniqueid": "MTK0835:39ZSFO5CA93RYWYETDNU37N8HNEUJ4", "current_trial": 166, "dateTime": 1512768543508, "trialdata": {"rt": -1000, "stimulus": "/static/audio/wordpool/BROTHER.wav", "key_press": -1, "type": "PRES_AUD", "word": "brother", "wordID": 178, "conditions": [12, 1600, "a", 12000], "trial": 4, "serialpos": 9, "trial_type": "single-audio", "trial_index": 166, "time_elapsed": 689768, "internal_node_id": "0.0-121.0"}}, {"uniqueid": "MTK0835:39ZSFO5CA93RYWYETDNU37N8HNEUJ4", "current_trial": 167, "dateTime": 1512768546212, "trialdata": {"rt": -1000, "stimulus": "/static/audio/wordpool/OYSTER.wav", "key_press": -1, "type": "PRES_AUD", "word": "oyster", "wordID": 994, "conditions": [12, 1600, "a", 12000], "trial": 4, "serialpos": 10, "trial_type": "single-audio", "trial_index": 167, "time_elapsed": 692472, "internal_node_id": "0.0-122.0"}}, {"uniqueid": "MTK0835:39ZSFO5CA93RYWYETDNU37N8HNEUJ4", "current_trial": 168, "dateTime": 1512768548681, "trialdata": {"rt": -1000, "stimulus": "/static/audio/wordpool/SCALLOP.wav", "key_press": -1, "type": "PRES_AUD", "word": "scallop", "wordID": 1241, "conditions": [12, 1600, "a", 12000], "trial": 4, "serialpos": 11, "trial_type": "single-audio", "trial_index": 168, "time_elapsed": 694941, "internal_node_id": "0.0-123.0"}}, {"uniqueid": "MTK0835:39ZSFO5CA93RYWYETDNU37N8HNEUJ4", "current_trial": 169, "dateTime": 1512768549992, "trialdata": {"rt": -1, "stimulus": "", "key_press": -1, "type": "PRE_RECALL_DELAY", "trial_type": "single-stim", "trial_index": 169, "time_elapsed": 696252, "internal_node_id": "0.0-124.0-0.0"}}, {"uniqueid": "MTK0835:39ZSFO5CA93RYWYETDNU37N8HNEUJ4", "current_trial": 170, "dateTime": 1512768550494, "trialdata": {"rt": -1000, "stimulus": "/static/audio/400Hz.wav", "key_press": -1, "type": "PRE_RECALL_ALERT", "trial_type": "single-audio", "trial_index": 170, "time_elapsed": 696753, "internal_node_id": "0.0-125.0"}}], "questiondata": {}, "eventdata": [{"eventtype": "initialized", "value": null, "timestamp": 1512767847373, "interval": 0}, {"eventtype": "window_resize", "value": [1536, 774], "timestamp": 1512767847373, "interval": 0}, {"eventtype": "focus", "value": "off", "timestamp": 1512767877119, "interval": 29746}, {"eventtype": "focus", "value": "on", "timestamp": 1512767879204, "interval": 2085}, {"eventtype": "focus", "value": "off", "timestamp": 1512767881596, "interval": 2392}, {"eventtype": "focus", "value": "on", "timestamp": 1512767882592, "interval": 996}, {"eventtype": "focus", "value": "off", "timestamp": 1512768337748, "interval": 455156}, {"eventtype": "focus", "value": "on", "timestamp": 1512768342547, "interval": 4799}, {"eventtype": "focus", "value": "off", "timestamp": 1512768387897, "interval": 45350}, {"eventtype": "focus", "value": "on", "timestamp": 1512768411494, "interval": 23597}, {"eventtype": "focus", "value": "off", "timestamp": 1512768422713, "interval": 11219}, {"eventtype": "focus", "value": "on", "timestamp": 1512768429636, "interval": 6923}, {"eventtype": "focus", "value": "off", "timestamp": 1512768437735, "interval": 8099}, {"eventtype": "focus", "value": "on", "timestamp": 1512768472280, "interval": 34545}, {"eventtype": "focus", "value": "off", "timestamp": 1512768477005, "interval": 4725}, {"eventtype": "focus", "value": "on", "timestamp": 1512768486056, "interval": 9051}, {"eventtype": "focus", "value": "off", "timestamp": 1512768512927, "interval": 26871}, {"eventtype": "focus", "value": "on", "timestamp": 1512768551384, "interval": 38457}], "useragent": "Mozilla/5.0 (Windows NT 10.0; Win64; x64) AppleWebKit/537.36 (KHTML, like Gecko) Chrome/62.0.3202.94 Safari/537.36", "mode": "live", "status": "user data saved"}