{"condition": 0, "counterbalance": 1421, "assignmentId": "3ON104KXQL3ENI4YL6FRFTJMK8DW4W", "workerId": "MTK0890", "hitId": "371DNNCG449LRIPCC2VRK1W82S88TZ", "currenttrial": 41, "bonus": 0, "data": [{"uniqueid": "MTK0890:3ON104KXQL3ENI4YL6FRFTJMK8DW4W", "current_trial": 0, "dateTime": 1512861448937, "trialdata": {"rt": 4554, "key_press": 122, "type": "INSTRUCTIONS", "trial_type": "text", "trial_index": 0, "time_elapsed": 4558, "internal_node_id": "0.0-0.0"}}, {"uniqueid": "MTK0890:3ON104KXQL3ENI4YL6FRFTJMK8DW4W", "current_trial": 1, "dateTime": 1512861462869, "trialdata": {"rt": 13931, "key_press": 122, "type": "INSTRUCTIONS", "trial_type": "text", "trial_index": 1, "time_elapsed": 18491, "internal_node_id": "0.0-1.0"}}, {"uniqueid": "MTK0890:3ON104KXQL3ENI4YL6FRFTJMK8DW4W", "current_trial": 2, "dateTime": 1512861470559, "trialdata": {"rt": [7676], "responses": ["ocean"], "type": "AUDIO_TEST", "trial_type": "audio-test", "trial_index": 2, "time_elapsed": 26180, "internal_node_id": "0.0-2.0"}}, {"uniqueid": "MTK0890:3ON104KXQL3ENI4YL6FRFTJMK8DW4W", "current_trial": 3, "dateTime": 1512861475683, "trialdata": {"rt": [5112], "responses": ["crystal"], "type": "AUDIO_TEST", "trial_type": "audio-test", "trial_index": 3, "time_elapsed": 31305, "internal_node_id": "0.0-3.0"}}, {"uniqueid": "MTK0890:3ON104KXQL3ENI4YL6FRFTJMK8DW4W", "current_trial": 4, "dateTime": 1512861478934, "trialdata": {"rt": [3243], "responses": ["spice"], "type": "AUDIO_TEST", "trial_type": "audio-test", "trial_index": 4, "time_elapsed": 34556, "internal_node_id": "0.0-4.0"}}, {"uniqueid": "MTK0890:3ON104KXQL3ENI4YL6FRFTJMK8DW4W", "current_trial": 5, "dateTime": 1512861500492, "trialdata": {"rt": 20804, "responses": "{\"Q0\":\"4:30 AM\",\"Q1\":\"11:30 AM\",\"Q2\":\"4\"}", "type": "SLEEP_SURVEY", "trial_type": "survey-text", "trial_index": 5, "time_elapsed": 56114, "internal_node_id": "0.0-5.0"}}, {"uniqueid": "MTK0890:3ON104KXQL3ENI4YL6FRFTJMK8DW4W", "current_trial": 6, "dateTime": 1512861564763, "trialdata": {"rt": 63270, "key_press": 13, "type": "INSTRUCTIONS", "trial_type": "text", "trial_index": 6, "time_elapsed": 120385, "internal_node_id": "0.0-6.0"}}, {"uniqueid": "MTK0890:3ON104KXQL3ENI4YL6FRFTJMK8DW4W", "current_trial": 7, "dateTime": 1512861588915, "trialdata": {"rt": 23650, "key_press": 13, "type": "INSTRUCTIONS", "trial_type": "text", "trial_index": 7, "time_elapsed": 144537, "internal_node_id": "0.0-7.0"}}, {"uniqueid": "MTK0890:3ON104KXQL3ENI4YL6FRFTJMK8DW4W", "current_trial": 8, "dateTime": 1512861599235, "trialdata": {"rt": 9819, "key_press": 13, "type": "INSTRUCTIONS", "trial_type": "text", "trial_index": 8, "time_elapsed": 154857, "internal_node_id": "0.0-8.0"}}, {"uniqueid": "MTK0890:3ON104KXQL3ENI4YL6FRFTJMK8DW4W", "current_trial": 9, "dateTime": 1512861618260, "trialdata": {"rt": [3160, 8120, 10719, 14551, 17071], "responses": ["7", "16", "17", "24", "14"], "num1": [5, 5, 6, 9, 4, 3], "num2": [1, 8, 2, 8, 3, 9], "num3": [1, 3, 9, 6, 7, 5], "type": "DISTRACTOR", "conditions": [18, 1200, "v", 18000], "trial": 0, "trial_type": "math-distractor", "trial_index": 9, "time_elapsed": 173882, "internal_node_id": "0.0-9.0"}}, {"uniqueid": "MTK0890:3ON104KXQL3ENI4YL6FRFTJMK8DW4W", "current_trial": 10, "dateTime": 1512861621263, "trialdata": {"rt": -1, "stimulus": "<p id=\"stim\">10</p>", "key_press": -1, "trial_type": "single-stim", "trial_index": 10, "time_elapsed": 176885, "internal_node_id": "0.0-10.0-0.0"}}, {"uniqueid": "MTK0890:3ON104KXQL3ENI4YL6FRFTJMK8DW4W", "current_trial": 11, "dateTime": 1512861622265, "trialdata": {"rt": -1, "stimulus": "<p id=\"stim\">9</p>", "key_press": -1, "trial_type": "single-stim", "trial_index": 11, "time_elapsed": 177887, "internal_node_id": "0.0-10.0-1.0"}}, {"uniqueid": "MTK0890:3ON104KXQL3ENI4YL6FRFTJMK8DW4W", "current_trial": 12, "dateTime": 1512861623266, "trialdata": {"rt": -1, "stimulus": "<p id=\"stim\">8</p>", "key_press": -1, "trial_type": "single-stim", "trial_index": 12, "time_elapsed": 178887, "internal_node_id": "0.0-10.0-2.0"}}, {"uniqueid": "MTK0890:3ON104KXQL3ENI4YL6FRFTJMK8DW4W", "current_trial": 13, "dateTime": 1512861624267, "trialdata": {"rt": -1, "stimulus": "<p id=\"stim\">7</p>", "key_press": -1, "trial_type": "single-stim", "trial_index": 13, "time_elapsed": 179888, "internal_node_id": "0.0-10.0-3.0"}}, {"uniqueid": "MTK0890:3ON104KXQL3ENI4YL6FRFTJMK8DW4W", "current_trial": 14, "dateTime": 1512861625267, "trialdata": {"rt": -1, "stimulus": "<p id=\"stim\">6</p>", "key_press": -1, "trial_type": "single-stim", "trial_index": 14, "time_elapsed": 180889, "internal_node_id": "0.0-10.0-4.0"}}, {"uniqueid": "MTK0890:3ON104KXQL3ENI4YL6FRFTJMK8DW4W", "current_trial": 15, "dateTime": 1512861626269, "trialdata": {"rt": -1, "stimulus": "<p id=\"stim\">5</p>", "key_press": -1, "trial_type": "single-stim", "trial_index": 15, "time_elapsed": 181890, "internal_node_id": "0.0-10.0-5.0"}}, {"uniqueid": "MTK0890:3ON104KXQL3ENI4YL6FRFTJMK8DW4W", "current_trial": 16, "dateTime": 1512861627270, "trialdata": {"rt": -1, "stimulus": "<p id=\"stim\">4</p>", "key_press": -1, "trial_type": "single-stim", "trial_index": 16, "time_elapsed": 182891, "internal_node_id": "0.0-10.0-6.0"}}, {"uniqueid": "MTK0890:3ON104KXQL3ENI4YL6FRFTJMK8DW4W", "current_trial": 17, "dateTime": 1512861628272, "trialdata": {"rt": -1, "stimulus": "<p id=\"stim\">3</p>", "key_press": -1, "trial_type": "single-stim", "trial_index": 17, "time_elapsed": 183894, "internal_node_id": "0.0-10.0-7.0"}}, {"uniqueid": "MTK0890:3ON104KXQL3ENI4YL6FRFTJMK8DW4W", "current_trial": 18, "dateTime": 1512861629273, "trialdata": {"rt": -1, "stimulus": "<p id=\"stim\">2</p>", "key_press": -1, "trial_type": "single-stim", "trial_index": 18, "time_elapsed": 184895, "internal_node_id": "0.0-10.0-8.0"}}, {"uniqueid": "MTK0890:3ON104KXQL3ENI4YL6FRFTJMK8DW4W", "current_trial": 19, "dateTime": 1512861630274, "trialdata": {"rt": -1, "stimulus": "<p id=\"stim\">1</p>", "key_press": -1, "trial_type": "single-stim", "trial_index": 19, "time_elapsed": 185896, "internal_node_id": "0.0-10.0-9.0"}}, {"uniqueid": "MTK0890:3ON104KXQL3ENI4YL6FRFTJMK8DW4W", "current_trial": 20, "dateTime": 1512861631777, "trialdata": {"rt": -1, "stimulus": "<p id=\"stim\">+</p>", "key_press": -1, "type": "FIXATION", "trial_type": "single-stim", "trial_index": 20, "time_elapsed": 187398, "internal_node_id": "0.0-11.0-0.0"}}, {"uniqueid": "MTK0890:3ON104KXQL3ENI4YL6FRFTJMK8DW4W", "current_trial": 21, "dateTime": 1512861632978, "trialdata": {"rt": -1, "stimulus": "<p id=\"stim\">STOMACH</p>", "key_press": -1, "type": "PRES_VIS", "word": "stomach", "wordID": 1383, "conditions": [18, 1200, "v", 18000], "trial": 0, "serialpos": 0, "trial_type": "single-stim", "trial_index": 21, "time_elapsed": 188599, "internal_node_id": "0.0-12.0"}}, {"uniqueid": "MTK0890:3ON104KXQL3ENI4YL6FRFTJMK8DW4W", "current_trial": 22, "dateTime": 1512861635066, "trialdata": {"rt": -1, "stimulus": "<p id=\"stim\">AUTHOR</p>", "key_press": -1, "type": "PRES_VIS", "word": "author", "wordID": 60, "conditions": [18, 1200, "v", 18000], "trial": 0, "serialpos": 1, "trial_type": "single-stim", "trial_index": 22, "time_elapsed": 190688, "internal_node_id": "0.0-13.0"}}, {"uniqueid": "MTK0890:3ON104KXQL3ENI4YL6FRFTJMK8DW4W", "current_trial": 23, "dateTime": 1512861637223, "trialdata": {"rt": -1, "stimulus": "<p id=\"stim\">PISTON</p>", "key_press": -1, "type": "PRES_VIS", "word": "piston", "wordID": 1075, "conditions": [18, 1200, "v", 18000], "trial": 0, "serialpos": 2, "trial_type": "single-stim", "trial_index": 23, "time_elapsed": 192845, "internal_node_id": "0.0-14.0"}}, {"uniqueid": "MTK0890:3ON104KXQL3ENI4YL6FRFTJMK8DW4W", "current_trial": 24, "dateTime": 1512861639571, "trialdata": {"rt": -1, "stimulus": "<p id=\"stim\">MISSILE</p>", "key_press": -1, "type": "PRES_VIS", "word": "missile", "wordID": 899, "conditions": [18, 1200, "v", 18000], "trial": 0, "serialpos": 3, "trial_type": "single-stim", "trial_index": 24, "time_elapsed": 195192, "internal_node_id": "0.0-15.0"}}, {"uniqueid": "MTK0890:3ON104KXQL3ENI4YL6FRFTJMK8DW4W", "current_trial": 25, "dateTime": 1512861641668, "trialdata": {"rt": -1, "stimulus": "<p id=\"stim\">CHURCH</p>", "key_press": -1, "type": "PRES_VIS", "word": "church", "wordID": 306, "conditions": [18, 1200, "v", 18000], "trial": 0, "serialpos": 4, "trial_type": "single-stim", "trial_index": 25, "time_elapsed": 197290, "internal_node_id": "0.0-16.0"}}, {"uniqueid": "MTK0890:3ON104KXQL3ENI4YL6FRFTJMK8DW4W", "current_trial": 26, "dateTime": 1512861643905, "trialdata": {"rt": -1, "stimulus": "<p id=\"stim\">FRECKLE</p>", "key_press": -1, "type": "PRES_VIS", "word": "freckle", "wordID": 601, "conditions": [18, 1200, "v", 18000], "trial": 0, "serialpos": 5, "trial_type": "single-stim", "trial_index": 26, "time_elapsed": 199526, "internal_node_id": "0.0-17.0"}}, {"uniqueid": "MTK0890:3ON104KXQL3ENI4YL6FRFTJMK8DW4W", "current_trial": 27, "dateTime": 1512861646225, "trialdata": {"rt": -1, "stimulus": "<p id=\"stim\">FLOWER</p>", "key_press": -1, "type": "PRES_VIS", "word": "flower", "wordID": 583, "conditions": [18, 1200, "v", 18000], "trial": 0, "serialpos": 6, "trial_type": "single-stim", "trial_index": 27, "time_elapsed": 201847, "internal_node_id": "0.0-18.0"}}, {"uniqueid": "MTK0890:3ON104KXQL3ENI4YL6FRFTJMK8DW4W", "current_trial": 28, "dateTime": 1512861648559, "trialdata": {"rt": -1, "stimulus": "<p id=\"stim\">CHEMIST</p>", "key_press": -1, "type": "PRES_VIS", "word": "chemist", "wordID": 291, "conditions": [18, 1200, "v", 18000], "trial": 0, "serialpos": 7, "trial_type": "single-stim", "trial_index": 28, "time_elapsed": 204180, "internal_node_id": "0.0-19.0"}}, {"uniqueid": "MTK0890:3ON104KXQL3ENI4YL6FRFTJMK8DW4W", "current_trial": 29, "dateTime": 1512861650720, "trialdata": {"rt": -1, "stimulus": "<p id=\"stim\">BLOUSE</p>", "key_press": -1, "type": "PRES_VIS", "word": "blouse", "wordID": 138, "conditions": [18, 1200, "v", 18000], "trial": 0, "serialpos": 8, "trial_type": "single-stim", "trial_index": 29, "time_elapsed": 206342, "internal_node_id": "0.0-20.0"}}, {"uniqueid": "MTK0890:3ON104KXQL3ENI4YL6FRFTJMK8DW4W", "current_trial": 30, "dateTime": 1512861653031, "trialdata": {"rt": -1, "stimulus": "<p id=\"stim\">COOKBOOK</p>", "key_press": -1, "type": "PRES_VIS", "word": "cookbook", "wordID": 372, "conditions": [18, 1200, "v", 18000], "trial": 0, "serialpos": 9, "trial_type": "single-stim", "trial_index": 30, "time_elapsed": 208653, "internal_node_id": "0.0-21.0"}}, {"uniqueid": "MTK0890:3ON104KXQL3ENI4YL6FRFTJMK8DW4W", "current_trial": 31, "dateTime": 1512861655183, "trialdata": {"rt": -1, "stimulus": "<p id=\"stim\">CLIMBER</p>", "key_press": -1, "type": "PRES_VIS", "word": "climber", "wordID": 322, "conditions": [18, 1200, "v", 18000], "trial": 0, "serialpos": 10, "trial_type": "single-stim", "trial_index": 31, "time_elapsed": 210805, "internal_node_id": "0.0-22.0"}}, {"uniqueid": "MTK0890:3ON104KXQL3ENI4YL6FRFTJMK8DW4W", "current_trial": 32, "dateTime": 1512861657224, "trialdata": {"rt": -1, "stimulus": "<p id=\"stim\">SEAGULL</p>", "key_press": -1, "type": "PRES_VIS", "word": "seagull", "wordID": 1260, "conditions": [18, 1200, "v", 18000], "trial": 0, "serialpos": 11, "trial_type": "single-stim", "trial_index": 32, "time_elapsed": 212846, "internal_node_id": "0.0-23.0"}}, {"uniqueid": "MTK0890:3ON104KXQL3ENI4YL6FRFTJMK8DW4W", "current_trial": 33, "dateTime": 1512861659561, "trialdata": {"rt": -1, "stimulus": "<p id=\"stim\">DIME</p>", "key_press": -1, "type": "PRES_VIS", "word": "dime", "wordID": 465, "conditions": [18, 1200, "v", 18000], "trial": 0, "serialpos": 12, "trial_type": "single-stim", "trial_index": 33, "time_elapsed": 215182, "internal_node_id": "0.0-24.0"}}, {"uniqueid": "MTK0890:3ON104KXQL3ENI4YL6FRFTJMK8DW4W", "current_trial": 34, "dateTime": 1512861661671, "trialdata": {"rt": -1, "stimulus": "<p id=\"stim\">PARROT</p>", "key_press": -1, "type": "PRES_VIS", "word": "parrot", "wordID": 1014, "conditions": [18, 1200, "v", 18000], "trial": 0, "serialpos": 13, "trial_type": "single-stim", "trial_index": 34, "time_elapsed": 217292, "internal_node_id": "0.0-25.0"}}, {"uniqueid": "MTK0890:3ON104KXQL3ENI4YL6FRFTJMK8DW4W", "current_trial": 35, "dateTime": 1512861663855, "trialdata": {"rt": -1, "stimulus": "<p id=\"stim\">SLIDE</p>", "key_press": -1, "type": "PRES_VIS", "word": "slide", "wordID": 1325, "conditions": [18, 1200, "v", 18000], "trial": 0, "serialpos": 14, "trial_type": "single-stim", "trial_index": 35, "time_elapsed": 219477, "internal_node_id": "0.0-26.0"}}, {"uniqueid": "MTK0890:3ON104KXQL3ENI4YL6FRFTJMK8DW4W", "current_trial": 36, "dateTime": 1512861665861, "trialdata": {"rt": -1, "stimulus": "<p id=\"stim\">SEAL</p>", "key_press": -1, "type": "PRES_VIS", "word": "seal", "wordID": 1261, "conditions": [18, 1200, "v", 18000], "trial": 0, "serialpos": 15, "trial_type": "single-stim", "trial_index": 36, "time_elapsed": 221482, "internal_node_id": "0.0-27.0"}}, {"uniqueid": "MTK0890:3ON104KXQL3ENI4YL6FRFTJMK8DW4W", "current_trial": 37, "dateTime": 1512861667884, "trialdata": {"rt": -1, "stimulus": "<p id=\"stim\">FUNGUS</p>", "key_press": -1, "type": "PRES_VIS", "word": "fungus", "wordID": 613, "conditions": [18, 1200, "v", 18000], "trial": 0, "serialpos": 16, "trial_type": "single-stim", "trial_index": 37, "time_elapsed": 223506, "internal_node_id": "0.0-28.0"}}, {"uniqueid": "MTK0890:3ON104KXQL3ENI4YL6FRFTJMK8DW4W", "current_trial": 38, "dateTime": 1512861670069, "trialdata": {"rt": -1, "stimulus": "<p id=\"stim\">DORM</p>", "key_press": -1, "type": "PRES_VIS", "word": "dorm", "wordID": 487, "conditions": [18, 1200, "v", 18000], "trial": 0, "serialpos": 17, "trial_type": "single-stim", "trial_index": 38, "time_elapsed": 225691, "internal_node_id": "0.0-29.0"}}, {"uniqueid": "MTK0890:3ON104KXQL3ENI4YL6FRFTJMK8DW4W", "current_trial": 39, "dateTime": 1512861672529, "trialdata": {"rt": -1, "stimulus": "", "key_press": -1, "type": "PRE_RECALL_DELAY", "trial_type": "single-stim", "trial_index": 39, "time_elapsed": 228150, "internal_node_id": "0.0-30.0-0.0"}}, {"uniqueid": "MTK0890:3ON104KXQL3ENI4YL6FRFTJMK8DW4W", "current_trial": 40, "dateTime": 1512861673031, "trialdata": {"rt": -1000, "stimulus": "/static/audio/400Hz.wav", "key_press": -1, "type": "PRE_RECALL_ALERT", "trial_type": "single-audio", "trial_index": 40, "time_elapsed": 228653, "internal_node_id": "0.0-31.0"}}], "questiondata": {}, "eventdata": [{"eventtype": "initialized", "value": null, "timestamp": 1512861439995, "interval": 0}, {"eventtype": "window_resize", "value": [1280, 977], "timestamp": 1512861439995, "interval": 0}, {"eventtype": "window_resize", "value": [1280, 933], "timestamp": 1512861446635, "interval": 6640}, {"eventtype": "window_resize", "value": [1280, 1024], "timestamp": 1512861449172, "interval": 2537}, {"eventtype": "window_resize", "value": [1280, 933], "timestamp": 1512861462733, "interval": 13561}, {"eventtype": "window_resize", "value": [1280, 1024], "timestamp": 1512861463106, "interval": 373}], "useragent": "Mozilla/5.0 (Windows NT 10.0; Win64; x64) AppleWebKit/537.36 (KHTML, like Gecko) Chrome/62.0.3202.94 Safari/537.36", "mode": "live"}