{"condition": 0, "counterbalance": 325, "assignmentId": "3IJXV6UZ1YQ3NTMR717PMVLOTUVRIX", "workerId": "MTK0211", "hitId": "38F60IALAGO39TK9HYICRMQQIVMT0O", "currenttrial": 450, "bonus": 0, "data": [{"current_trial": 0, "dateTime": 1509547774741, "trialdata": {"internal_node_id": "0.0-0.0", "key_press": 32, "rt": 6221, "time_elapsed": 6225, "trial_index": 0, "trial_type": "text", "type": "INSTRUCTIONS"}, "uniqueid": "MTK0211:3IJXV6UZ1YQ3NTMR717PMVLOTUVRIX"}, {"current_trial": 1, "dateTime": 1509547778567, "trialdata": {"internal_node_id": "0.0-1.0", "key_press": 175, "rt": 3824, "time_elapsed": 10052, "trial_index": 1, "trial_type": "text", "type": "INSTRUCTIONS"}, "uniqueid": "MTK0211:3IJXV6UZ1YQ3NTMR717PMVLOTUVRIX"}, {"current_trial": 2, "dateTime": 1509547843306, "trialdata": {"internal_node_id": "0.0-2.0", "responses": ["ocean"], "rt": [64724], "time_elapsed": 74791, "trial_index": 2, "trial_type": "audio-test", "type": "AUDIO_TEST"}, "uniqueid": "MTK0211:3IJXV6UZ1YQ3NTMR717PMVLOTUVRIX"}, {"current_trial": 3, "dateTime": 1509547851819, "trialdata": {"internal_node_id": "0.0-3.0", "responses": ["crystal"], "rt": [8504], "time_elapsed": 83304, "trial_index": 3, "trial_type": "audio-test", "type": "AUDIO_TEST"}, "uniqueid": "MTK0211:3IJXV6UZ1YQ3NTMR717PMVLOTUVRIX"}, {"current_trial": 4, "dateTime": 1509547856958, "trialdata": {"internal_node_id": "0.0-4.0", "responses": ["spice"], "rt": [5131], "time_elapsed": 88443, "trial_index": 4, "trial_type": "audio-test", "type": "AUDIO_TEST"}, "uniqueid": "MTK0211:3IJXV6UZ1YQ3NTMR717PMVLOTUVRIX"}, {"current_trial": 5, "dateTime": 1509547860510, "trialdata": {"internal_node_id": "0.0-5.0", "key_press": 13, "rt": 2800, "time_elapsed": 91995, "trial_index": 5, "trial_type": "text", "type": "INSTRUCTIONS"}, "uniqueid": "MTK0211:3IJXV6UZ1YQ3NTMR717PMVLOTUVRIX"}, {"current_trial": 6, "dateTime": 1509547887459, "trialdata": {"internal_node_id": "0.0-6.0", "key_press": 32, "rt": 26948, "time_elapsed": 118944, "trial_index": 6, "trial_type": "text", "type": "INSTRUCTIONS"}, "uniqueid": "MTK0211:3IJXV6UZ1YQ3NTMR717PMVLOTUVRIX"}, {"current_trial": 7, "dateTime": 1509547898869, "trialdata": {"internal_node_id": "0.0-7.0", "key_press": 13, "rt": 11410, "time_elapsed": 130354, "trial_index": 7, "trial_type": "text", "type": "INSTRUCTIONS"}, "uniqueid": "MTK0211:3IJXV6UZ1YQ3NTMR717PMVLOTUVRIX"}, {"current_trial": 8, "dateTime": 1509547906709, "trialdata": {"internal_node_id": "0.0-8.0", "key_press": 13, "rt": 7840, "time_elapsed": 138194, "trial_index": 8, "trial_type": "text", "type": "INSTRUCTIONS"}, "uniqueid": "MTK0211:3IJXV6UZ1YQ3NTMR717PMVLOTUVRIX"}, {"current_trial": 9, "dateTime": 1509547925732, "trialdata": {"conditions": [18, 1200, "a", 18000], "internal_node_id": "0.0-9.0", "num1": [6, 2, 7, 1, 2, 3, 7], "num2": [9, 6, 3, 9, 1, 2, 5], "num3": [1, 3, 7, 3, 6, 3, 9], "responses": ["16", "11", "17", "13", "9", "8"], "rt": [5312, 7487, 10292, 11777, 13955, 16750], "time_elapsed": 157217, "trial": 0, "trial_index": 9, "trial_type": "math-distractor", "type": "DISTRACTOR"}, "uniqueid": "MTK0211:3IJXV6UZ1YQ3NTMR717PMVLOTUVRIX"}, {"current_trial": 10, "dateTime": 1509547928737, "trialdata": {"internal_node_id": "0.0-10.0-0.0", "key_press": -1, "rt": -1, "stimulus": "<p id=\"stim\">10</p>", "time_elapsed": 160222, "trial_index": 10, "trial_type": "single-stim"}, "uniqueid": "MTK0211:3IJXV6UZ1YQ3NTMR717PMVLOTUVRIX"}, {"current_trial": 11, "dateTime": 1509547929739, "trialdata": {"internal_node_id": "0.0-10.0-1.0", "key_press": -1, "rt": -1, "stimulus": "<p id=\"stim\">9</p>", "time_elapsed": 161224, "trial_index": 11, "trial_type": "single-stim"}, "uniqueid": "MTK0211:3IJXV6UZ1YQ3NTMR717PMVLOTUVRIX"}, {"current_trial": 12, "dateTime": 1509547930742, "trialdata": {"internal_node_id": "0.0-10.0-2.0", "key_press": -1, "rt": -1, "stimulus": "<p id=\"stim\">8</p>", "time_elapsed": 162227, "trial_index": 12, "trial_type": "single-stim"}, "uniqueid": "MTK0211:3IJXV6UZ1YQ3NTMR717PMVLOTUVRIX"}, {"current_trial": 13, "dateTime": 1509547931744, "trialdata": {"internal_node_id": "0.0-10.0-3.0", "key_press": -1, "rt": -1, "stimulus": "<p id=\"stim\">7</p>", "time_elapsed": 163229, "trial_index": 13, "trial_type": "single-stim"}, "uniqueid": "MTK0211:3IJXV6UZ1YQ3NTMR717PMVLOTUVRIX"}, {"current_trial": 14, "dateTime": 1509547932747, "trialdata": {"internal_node_id": "0.0-10.0-4.0", "key_press": -1, "rt": -1, "stimulus": "<p id=\"stim\">6</p>", "time_elapsed": 164232, "trial_index": 14, "trial_type": "single-stim"}, "uniqueid": "MTK0211:3IJXV6UZ1YQ3NTMR717PMVLOTUVRIX"}, {"current_trial": 15, "dateTime": 1509547933749, "trialdata": {"internal_node_id": "0.0-10.0-5.0", "key_press": -1, "rt": -1, "stimulus": "<p id=\"stim\">5</p>", "time_elapsed": 165234, "trial_index": 15, "trial_type": "single-stim"}, "uniqueid": "MTK0211:3IJXV6UZ1YQ3NTMR717PMVLOTUVRIX"}, {"current_trial": 16, "dateTime": 1509547934752, "trialdata": {"internal_node_id": "0.0-10.0-6.0", "key_press": -1, "rt": -1, "stimulus": "<p id=\"stim\">4</p>", "time_elapsed": 166237, "trial_index": 16, "trial_type": "single-stim"}, "uniqueid": "MTK0211:3IJXV6UZ1YQ3NTMR717PMVLOTUVRIX"}, {"current_trial": 17, "dateTime": 1509547935755, "trialdata": {"internal_node_id": "0.0-10.0-7.0", "key_press": -1, "rt": -1, "stimulus": "<p id=\"stim\">3</p>", "time_elapsed": 167240, "trial_index": 17, "trial_type": "single-stim"}, "uniqueid": "MTK0211:3IJXV6UZ1YQ3NTMR717PMVLOTUVRIX"}, {"current_trial": 18, "dateTime": 1509547936757, "trialdata": {"internal_node_id": "0.0-10.0-8.0", "key_press": -1, "rt": -1, "stimulus": "<p id=\"stim\">2</p>", "time_elapsed": 168242, "trial_index": 18, "trial_type": "single-stim"}, "uniqueid": "MTK0211:3IJXV6UZ1YQ3NTMR717PMVLOTUVRIX"}, {"current_trial": 19, "dateTime": 1509547937760, "trialdata": {"internal_node_id": "0.0-10.0-9.0", "key_press": -1, "rt": -1, "stimulus": "<p id=\"stim\">1</p>", "time_elapsed": 169245, "trial_index": 19, "trial_type": "single-stim"}, "uniqueid": "MTK0211:3IJXV6UZ1YQ3NTMR717PMVLOTUVRIX"}, {"current_trial": 20, "dateTime": 1509547939262, "trialdata": {"internal_node_id": "0.0-11.0-0.0", "key_press": -1, "rt": -1, "stimulus": "<p id=\"stim\">+</p>", "time_elapsed": 170747, "trial_index": 20, "trial_type": "single-stim", "type": "FIXATION"}, "uniqueid": "MTK0211:3IJXV6UZ1YQ3NTMR717PMVLOTUVRIX"}, {"current_trial": 21, "dateTime": 1509547941510, "trialdata": {"conditions": [18, 1200, "a", 18000], "internal_node_id": "0.0-12.0", "key_press": -1, "rt": -1000, "serialpos": 0, "stimulus": "/static/audio/wordpool/HEDGE.wav", "time_elapsed": 172995, "trial": 0, "trial_index": 21, "trial_type": "single-audio", "type": "PRES_AUD", "word": "hedge", "wordID": 698}, "uniqueid": "MTK0211:3IJXV6UZ1YQ3NTMR717PMVLOTUVRIX"}, {"current_trial": 22, "dateTime": 1509547943737, "trialdata": {"conditions": [18, 1200, "a", 18000], "internal_node_id": "0.0-13.0", "key_press": -1, "rt": -1000, "serialpos": 1, "stimulus": "/static/audio/wordpool/CASKET.wav", "time_elapsed": 175222, "trial": 0, "trial_index": 22, "trial_type": "single-audio", "type": "PRES_AUD", "word": "casket", "wordID": 254}, "uniqueid": "MTK0211:3IJXV6UZ1YQ3NTMR717PMVLOTUVRIX"}, {"current_trial": 23, "dateTime": 1509547945753, "trialdata": {"conditions": [18, 1200, "a", 18000], "internal_node_id": "0.0-14.0", "key_press": -1, "rt": -1000, "serialpos": 2, "stimulus": "/static/audio/wordpool/BANJO.wav", "time_elapsed": 177238, "trial": 0, "trial_index": 23, "trial_type": "single-audio", "type": "PRES_AUD", "word": "banjo", "wordID": 81}, "uniqueid": "MTK0211:3IJXV6UZ1YQ3NTMR717PMVLOTUVRIX"}, {"current_trial": 24, "dateTime": 1509547947950, "trialdata": {"conditions": [18, 1200, "a", 18000], "internal_node_id": "0.0-15.0", "key_press": -1, "rt": -1000, "serialpos": 3, "stimulus": "/static/audio/wordpool/ORCHID.wav", "time_elapsed": 179435, "trial": 0, "trial_index": 24, "trial_type": "single-audio", "type": "PRES_AUD", "word": "orchid", "wordID": 981}, "uniqueid": "MTK0211:3IJXV6UZ1YQ3NTMR717PMVLOTUVRIX"}, {"current_trial": 25, "dateTime": 1509547950103, "trialdata": {"conditions": [18, 1200, "a", 18000], "internal_node_id": "0.0-16.0", "key_press": -1, "rt": -1000, "serialpos": 4, "stimulus": "/static/audio/wordpool/WRENCH.wav", "time_elapsed": 181588, "trial": 0, "trial_index": 25, "trial_type": "single-audio", "type": "PRES_AUD", "word": "wrench", "wordID": 1624}, "uniqueid": "MTK0211:3IJXV6UZ1YQ3NTMR717PMVLOTUVRIX"}, {"current_trial": 26, "dateTime": 1509547952340, "trialdata": {"conditions": [18, 1200, "a", 18000], "internal_node_id": "0.0-17.0", "key_press": -1, "rt": -1000, "serialpos": 5, "stimulus": "/static/audio/wordpool/CARROT.wav", "time_elapsed": 183825, "trial": 0, "trial_index": 26, "trial_type": "single-audio", "type": "PRES_AUD", "word": "carrot", "wordID": 248}, "uniqueid": "MTK0211:3IJXV6UZ1YQ3NTMR717PMVLOTUVRIX"}, {"current_trial": 27, "dateTime": 1509547954537, "trialdata": {"conditions": [18, 1200, "a", 18000], "internal_node_id": "0.0-18.0", "key_press": -1, "rt": -1000, "serialpos": 6, "stimulus": "/static/audio/wordpool/GAZELLE.wav", "time_elapsed": 186022, "trial": 0, "trial_index": 27, "trial_type": "single-audio", "type": "PRES_AUD", "word": "gazelle", "wordID": 627}, "uniqueid": "MTK0211:3IJXV6UZ1YQ3NTMR717PMVLOTUVRIX"}, {"current_trial": 28, "dateTime": 1509547956894, "trialdata": {"conditions": [18, 1200, "a", 18000], "internal_node_id": "0.0-19.0", "key_press": -1, "rt": -1000, "serialpos": 7, "stimulus": "/static/audio/wordpool/FLUTE.wav", "time_elapsed": 188379, "trial": 0, "trial_index": 28, "trial_type": "single-audio", "type": "PRES_AUD", "word": "flute", "wordID": 584}, "uniqueid": "MTK0211:3IJXV6UZ1YQ3NTMR717PMVLOTUVRIX"}, {"current_trial": 29, "dateTime": 1509547959260, "trialdata": {"conditions": [18, 1200, "a", 18000], "internal_node_id": "0.0-20.0", "key_press": -1, "rt": -1000, "serialpos": 8, "stimulus": "/static/audio/wordpool/DIME.wav", "time_elapsed": 190745, "trial": 0, "trial_index": 29, "trial_type": "single-audio", "type": "PRES_AUD", "word": "dime", "wordID": 465}, "uniqueid": "MTK0211:3IJXV6UZ1YQ3NTMR717PMVLOTUVRIX"}, {"current_trial": 30, "dateTime": 1509547961587, "trialdata": {"conditions": [18, 1200, "a", 18000], "internal_node_id": "0.0-21.0", "key_press": -1, "rt": -1000, "serialpos": 9, "stimulus": "/static/audio/wordpool/PARENT.wav", "time_elapsed": 193072, "trial": 0, "trial_index": 30, "trial_type": "single-audio", "type": "PRES_AUD", "word": "parent", "wordID": 1012}, "uniqueid": "MTK0211:3IJXV6UZ1YQ3NTMR717PMVLOTUVRIX"}, {"current_trial": 31, "dateTime": 1509547963705, "trialdata": {"conditions": [18, 1200, "a", 18000], "internal_node_id": "0.0-22.0", "key_press": -1, "rt": -1000, "serialpos": 10, "stimulus": "/static/audio/wordpool/TRIBE.wav", "time_elapsed": 195190, "trial": 0, "trial_index": 31, "trial_type": "single-audio", "type": "PRES_AUD", "word": "tribe", "wordID": 1504}, "uniqueid": "MTK0211:3IJXV6UZ1YQ3NTMR717PMVLOTUVRIX"}, {"current_trial": 32, "dateTime": 1509547965848, "trialdata": {"conditions": [18, 1200, "a", 18000], "internal_node_id": "0.0-23.0", "key_press": -1, "rt": -1000, "serialpos": 11, "stimulus": "/static/audio/wordpool/RECEIPT.wav", "time_elapsed": 197333, "trial": 0, "trial_index": 32, "trial_type": "single-audio", "type": "PRES_AUD", "word": "receipt", "wordID": 1172}, "uniqueid": "MTK0211:3IJXV6UZ1YQ3NTMR717PMVLOTUVRIX"}, {"current_trial": 33, "dateTime": 1509547967984, "trialdata": {"conditions": [18, 1200, "a", 18000], "internal_node_id": "0.0-24.0", "key_press": -1, "rt": -1000, "serialpos": 12, "stimulus": "/static/audio/wordpool/OMELET.wav", "time_elapsed": 199469, "trial": 0, "trial_index": 33, "trial_type": "single-audio", "type": "PRES_AUD", "word": "omelet", "wordID": 975}, "uniqueid": "MTK0211:3IJXV6UZ1YQ3NTMR717PMVLOTUVRIX"}, {"current_trial": 34, "dateTime": 1509547970297, "trialdata": {"conditions": [18, 1200, "a", 18000], "internal_node_id": "0.0-25.0", "key_press": -1, "rt": -1000, "serialpos": 13, "stimulus": "/static/audio/wordpool/PANTHER.wav", "time_elapsed": 201782, "trial": 0, "trial_index": 34, "trial_type": "single-audio", "type": "PRES_AUD", "word": "panther", "wordID": 1008}, "uniqueid": "MTK0211:3IJXV6UZ1YQ3NTMR717PMVLOTUVRIX"}, {"current_trial": 35, "dateTime": 1509547972488, "trialdata": {"conditions": [18, 1200, "a", 18000], "internal_node_id": "0.0-26.0", "key_press": -1, "rt": -1000, "serialpos": 14, "stimulus": "/static/audio/wordpool/TWIG.wav", "time_elapsed": 203973, "trial": 0, "trial_index": 35, "trial_type": "single-audio", "type": "PRES_AUD", "word": "twig", "wordID": 1526}, "uniqueid": "MTK0211:3IJXV6UZ1YQ3NTMR717PMVLOTUVRIX"}, {"current_trial": 36, "dateTime": 1509547974526, "trialdata": {"conditions": [18, 1200, "a", 18000], "internal_node_id": "0.0-27.0", "key_press": -1, "rt": -1000, "serialpos": 15, "stimulus": "/static/audio/wordpool/COD.wav", "time_elapsed": 206011, "trial": 0, "trial_index": 36, "trial_type": "single-audio", "type": "PRES_AUD", "word": "cod", "wordID": 339}, "uniqueid": "MTK0211:3IJXV6UZ1YQ3NTMR717PMVLOTUVRIX"}, {"current_trial": 37, "dateTime": 1509547976873, "trialdata": {"conditions": [18, 1200, "a", 18000], "internal_node_id": "0.0-28.0", "key_press": -1, "rt": -1000, "serialpos": 16, "stimulus": "/static/audio/wordpool/BODY.wav", "time_elapsed": 208358, "trial": 0, "trial_index": 37, "trial_type": "single-audio", "type": "PRES_AUD", "word": "body", "wordID": 144}, "uniqueid": "MTK0211:3IJXV6UZ1YQ3NTMR717PMVLOTUVRIX"}, {"current_trial": 38, "dateTime": 1509547979020, "trialdata": {"conditions": [18, 1200, "a", 18000], "internal_node_id": "0.0-29.0", "key_press": -1, "rt": -1000, "serialpos": 17, "stimulus": "/static/audio/wordpool/GYMNAST.wav", "time_elapsed": 210505, "trial": 0, "trial_index": 38, "trial_type": "single-audio", "type": "PRES_AUD", "word": "gymnast", "wordID": 674}, "uniqueid": "MTK0211:3IJXV6UZ1YQ3NTMR717PMVLOTUVRIX"}, {"current_trial": 39, "dateTime": 1509547980285, "trialdata": {"internal_node_id": "0.0-30.0-0.0", "key_press": -1, "rt": -1, "stimulus": "", "time_elapsed": 211769, "trial_index": 39, "trial_type": "single-stim", "type": "PRE_RECALL_DELAY"}, "uniqueid": "MTK0211:3IJXV6UZ1YQ3NTMR717PMVLOTUVRIX"}, {"current_trial": 40, "dateTime": 1509547980786, "trialdata": {"internal_node_id": "0.0-31.0", "key_press": -1, "rt": -1000, "stimulus": "/static/audio/400Hz.wav", "time_elapsed": 212271, "trial_index": 40, "trial_type": "single-audio", "type": "PRE_RECALL_ALERT"}, "uniqueid": "MTK0211:3IJXV6UZ1YQ3NTMR717PMVLOTUVRIX"}, {"current_trial": 41, "dateTime": 1509548040812, "trialdata": {"conditions": [18, 1200, "a", 18000], "internal_node_id": "0.0-32.0-0.0", "recwords": ["gymnast", "body", "hedge", "cod", "panther", "casket", "hedge", "body", "parent", "banjo"], "rt": [4253, 5731, 6801, 7906, 9531, 11317, 18846, 21505, 29401, 51421], "time_elapsed": 272294, "trial": 0, "trial_index": 41, "trial_type": "free-recall", "type": "FREE_RECALL"}, "uniqueid": "MTK0211:3IJXV6UZ1YQ3NTMR717PMVLOTUVRIX"}, {"current_trial": 42, "dateTime": 1509548043910, "trialdata": {"internal_node_id": "0.0-33.0", "key_press": 32, "rt": 1097, "time_elapsed": 275395, "trial_index": 42, "trial_type": "text", "type": "INSTRUCTIONS"}, "uniqueid": "MTK0211:3IJXV6UZ1YQ3NTMR717PMVLOTUVRIX"}, {"current_trial": 43, "dateTime": 1509548063915, "trialdata": {"conditions": [18, 1200, "v", 18000], "internal_node_id": "0.0-34.0", "num1": [2, 9, 4, 1, 4, 8, 9, 1], "num2": [4, 1, 8, 6, 9, 8, 5, 1], "num3": [9, 8, 1, 4, 9, 5, 4, 4], "responses": ["17", "18", "13", "11", "22", "21", "21"], "rt": [3030, 4605, 6036, 7948, 11172, 14279, 17837], "time_elapsed": 295400, "trial": 1, "trial_index": 43, "trial_type": "math-distractor", "type": "DISTRACTOR"}, "uniqueid": "MTK0211:3IJXV6UZ1YQ3NTMR717PMVLOTUVRIX"}, {"current_trial": 44, "dateTime": 1509548066917, "trialdata": {"internal_node_id": "0.0-35.0-0.0", "key_press": -1, "rt": -1, "stimulus": "<p id=\"stim\">10</p>", "time_elapsed": 298402, "trial_index": 44, "trial_type": "single-stim"}, "uniqueid": "MTK0211:3IJXV6UZ1YQ3NTMR717PMVLOTUVRIX"}, {"current_trial": 45, "dateTime": 1509548067919, "trialdata": {"internal_node_id": "0.0-35.0-1.0", "key_press": -1, "rt": -1, "stimulus": "<p id=\"stim\">9</p>", "time_elapsed": 299404, "trial_index": 45, "trial_type": "single-stim"}, "uniqueid": "MTK0211:3IJXV6UZ1YQ3NTMR717PMVLOTUVRIX"}, {"current_trial": 46, "dateTime": 1509548068922, "trialdata": {"internal_node_id": "0.0-35.0-2.0", "key_press": -1, "rt": -1, "stimulus": "<p id=\"stim\">8</p>", "time_elapsed": 300406, "trial_index": 46, "trial_type": "single-stim"}, "uniqueid": "MTK0211:3IJXV6UZ1YQ3NTMR717PMVLOTUVRIX"}, {"current_trial": 47, "dateTime": 1509548069924, "trialdata": {"internal_node_id": "0.0-35.0-3.0", "key_press": -1, "rt": -1, "stimulus": "<p id=\"stim\">7</p>", "time_elapsed": 301409, "trial_index": 47, "trial_type": "single-stim"}, "uniqueid": "MTK0211:3IJXV6UZ1YQ3NTMR717PMVLOTUVRIX"}, {"current_trial": 48, "dateTime": 1509548070926, "trialdata": {"internal_node_id": "0.0-35.0-4.0", "key_press": -1, "rt": -1, "stimulus": "<p id=\"stim\">6</p>", "time_elapsed": 302411, "trial_index": 48, "trial_type": "single-stim"}, "uniqueid": "MTK0211:3IJXV6UZ1YQ3NTMR717PMVLOTUVRIX"}, {"current_trial": 49, "dateTime": 1509548071928, "trialdata": {"internal_node_id": "0.0-35.0-5.0", "key_press": -1, "rt": -1, "stimulus": "<p id=\"stim\">5</p>", "time_elapsed": 303413, "trial_index": 49, "trial_type": "single-stim"}, "uniqueid": "MTK0211:3IJXV6UZ1YQ3NTMR717PMVLOTUVRIX"}, {"current_trial": 50, "dateTime": 1509548072930, "trialdata": {"internal_node_id": "0.0-35.0-6.0", "key_press": -1, "rt": -1, "stimulus": "<p id=\"stim\">4</p>", "time_elapsed": 304415, "trial_index": 50, "trial_type": "single-stim"}, "uniqueid": "MTK0211:3IJXV6UZ1YQ3NTMR717PMVLOTUVRIX"}, {"current_trial": 51, "dateTime": 1509548073932, "trialdata": {"internal_node_id": "0.0-35.0-7.0", "key_press": -1, "rt": -1, "stimulus": "<p id=\"stim\">3</p>", "time_elapsed": 305417, "trial_index": 51, "trial_type": "single-stim"}, "uniqueid": "MTK0211:3IJXV6UZ1YQ3NTMR717PMVLOTUVRIX"}, {"current_trial": 52, "dateTime": 1509548074934, "trialdata": {"internal_node_id": "0.0-35.0-8.0", "key_press": -1, "rt": -1, "stimulus": "<p id=\"stim\">2</p>", "time_elapsed": 306419, "trial_index": 52, "trial_type": "single-stim"}, "uniqueid": "MTK0211:3IJXV6UZ1YQ3NTMR717PMVLOTUVRIX"}, {"current_trial": 53, "dateTime": 1509548075935, "trialdata": {"internal_node_id": "0.0-35.0-9.0", "key_press": -1, "rt": -1, "stimulus": "<p id=\"stim\">1</p>", "time_elapsed": 307420, "trial_index": 53, "trial_type": "single-stim"}, "uniqueid": "MTK0211:3IJXV6UZ1YQ3NTMR717PMVLOTUVRIX"}, {"current_trial": 54, "dateTime": 1509548077437, "trialdata": {"internal_node_id": "0.0-36.0-0.0", "key_press": -1, "rt": -1, "stimulus": "<p id=\"stim\">+</p>", "time_elapsed": 308922, "trial_index": 54, "trial_type": "single-stim", "type": "FIXATION"}, "uniqueid": "MTK0211:3IJXV6UZ1YQ3NTMR717PMVLOTUVRIX"}, {"current_trial": 55, "dateTime": 1509548078639, "trialdata": {"conditions": [18, 1200, "v", 18000], "internal_node_id": "0.0-37.0", "key_press": -1, "rt": -1, "serialpos": 0, "stimulus": "<p id=\"stim\">HORNET</p>", "time_elapsed": 310124, "trial": 1, "trial_index": 55, "trial_type": "single-stim", "type": "PRES_VIS", "word": "hornet", "wordID": 717}, "uniqueid": "MTK0211:3IJXV6UZ1YQ3NTMR717PMVLOTUVRIX"}, {"current_trial": 56, "dateTime": 1509548080747, "trialdata": {"conditions": [18, 1200, "v", 18000], "internal_node_id": "0.0-38.0", "key_press": -1, "rt": -1, "serialpos": 1, "stimulus": "<p id=\"stim\">ROOSTER</p>", "time_elapsed": 312232, "trial": 1, "trial_index": 56, "trial_type": "single-stim", "type": "PRES_VIS", "word": "rooster", "wordID": 1208}, "uniqueid": "MTK0211:3IJXV6UZ1YQ3NTMR717PMVLOTUVRIX"}, {"current_trial": 57, "dateTime": 1509548082758, "trialdata": {"conditions": [18, 1200, "v", 18000], "internal_node_id": "0.0-39.0", "key_press": -1, "rt": -1, "serialpos": 2, "stimulus": "<p id=\"stim\">TWISTER</p>", "time_elapsed": 314243, "trial": 1, "trial_index": 57, "trial_type": "single-stim", "type": "PRES_VIS", "word": "twister", "wordID": 1529}, "uniqueid": "MTK0211:3IJXV6UZ1YQ3NTMR717PMVLOTUVRIX"}, {"current_trial": 58, "dateTime": 1509548085105, "trialdata": {"conditions": [18, 1200, "v", 18000], "internal_node_id": "0.0-40.0", "key_press": -1, "rt": -1, "serialpos": 3, "stimulus": "<p id=\"stim\">PILOT</p>", "time_elapsed": 316590, "trial": 1, "trial_index": 58, "trial_type": "single-stim", "type": "PRES_VIS", "word": "pilot", "wordID": 1069}, "uniqueid": "MTK0211:3IJXV6UZ1YQ3NTMR717PMVLOTUVRIX"}, {"current_trial": 59, "dateTime": 1509548087373, "trialdata": {"conditions": [18, 1200, "v", 18000], "internal_node_id": "0.0-41.0", "key_press": -1, "rt": -1, "serialpos": 4, "stimulus": "<p id=\"stim\">FRANCE</p>", "time_elapsed": 318857, "trial": 1, "trial_index": 59, "trial_type": "single-stim", "type": "PRES_VIS", "word": "france", "wordID": 600}, "uniqueid": "MTK0211:3IJXV6UZ1YQ3NTMR717PMVLOTUVRIX"}, {"current_trial": 60, "dateTime": 1509548089567, "trialdata": {"conditions": [18, 1200, "v", 18000], "internal_node_id": "0.0-42.0", "key_press": -1, "rt": -1, "serialpos": 5, "stimulus": "<p id=\"stim\">COUCH</p>", "time_elapsed": 321051, "trial": 1, "trial_index": 60, "trial_type": "single-stim", "type": "PRES_VIS", "word": "couch", "wordID": 385}, "uniqueid": "MTK0211:3IJXV6UZ1YQ3NTMR717PMVLOTUVRIX"}, {"current_trial": 61, "dateTime": 1509548091770, "trialdata": {"conditions": [18, 1200, "v", 18000], "internal_node_id": "0.0-43.0", "key_press": -1, "rt": -1, "serialpos": 6, "stimulus": "<p id=\"stim\">FLASK</p>", "time_elapsed": 323255, "trial": 1, "trial_index": 61, "trial_type": "single-stim", "type": "PRES_VIS", "word": "flask", "wordID": 575}, "uniqueid": "MTK0211:3IJXV6UZ1YQ3NTMR717PMVLOTUVRIX"}, {"current_trial": 62, "dateTime": 1509548093980, "trialdata": {"conditions": [18, 1200, "v", 18000], "internal_node_id": "0.0-44.0", "key_press": -1, "rt": -1, "serialpos": 7, "stimulus": "<p id=\"stim\">PARROT</p>", "time_elapsed": 325465, "trial": 1, "trial_index": 62, "trial_type": "single-stim", "type": "PRES_VIS", "word": "parrot", "wordID": 1014}, "uniqueid": "MTK0211:3IJXV6UZ1YQ3NTMR717PMVLOTUVRIX"}, {"current_trial": 63, "dateTime": 1509548096019, "trialdata": {"conditions": [18, 1200, "v", 18000], "internal_node_id": "0.0-45.0", "key_press": -1, "rt": -1, "serialpos": 8, "stimulus": "<p id=\"stim\">SIBLING</p>", "time_elapsed": 327503, "trial": 1, "trial_index": 63, "trial_type": "single-stim", "type": "PRES_VIS", "word": "sibling", "wordID": 1300}, "uniqueid": "MTK0211:3IJXV6UZ1YQ3NTMR717PMVLOTUVRIX"}, {"current_trial": 64, "dateTime": 1509548098024, "trialdata": {"conditions": [18, 1200, "v", 18000], "internal_node_id": "0.0-46.0", "key_press": -1, "rt": -1, "serialpos": 9, "stimulus": "<p id=\"stim\">CHEMIST</p>", "time_elapsed": 329509, "trial": 1, "trial_index": 64, "trial_type": "single-stim", "type": "PRES_VIS", "word": "chemist", "wordID": 291}, "uniqueid": "MTK0211:3IJXV6UZ1YQ3NTMR717PMVLOTUVRIX"}, {"current_trial": 65, "dateTime": 1509548100400, "trialdata": {"conditions": [18, 1200, "v", 18000], "internal_node_id": "0.0-47.0", "key_press": -1, "rt": -1, "serialpos": 10, "stimulus": "<p id=\"stim\">PREACHER</p>", "time_elapsed": 331885, "trial": 1, "trial_index": 65, "trial_type": "single-stim", "type": "PRES_VIS", "word": "preacher", "wordID": 1118}, "uniqueid": "MTK0211:3IJXV6UZ1YQ3NTMR717PMVLOTUVRIX"}, {"current_trial": 66, "dateTime": 1509548102778, "trialdata": {"conditions": [18, 1200, "v", 18000], "internal_node_id": "0.0-48.0", "key_press": -1, "rt": -1, "serialpos": 11, "stimulus": "<p id=\"stim\">HARP</p>", "time_elapsed": 334262, "trial": 1, "trial_index": 66, "trial_type": "single-stim", "type": "PRES_VIS", "word": "harp", "wordID": 688}, "uniqueid": "MTK0211:3IJXV6UZ1YQ3NTMR717PMVLOTUVRIX"}, {"current_trial": 67, "dateTime": 1509548104860, "trialdata": {"conditions": [18, 1200, "v", 18000], "internal_node_id": "0.0-49.0", "key_press": -1, "rt": -1, "serialpos": 12, "stimulus": "<p id=\"stim\">MISTER</p>", "time_elapsed": 336345, "trial": 1, "trial_index": 67, "trial_type": "single-stim", "type": "PRES_VIS", "word": "mister", "wordID": 900}, "uniqueid": "MTK0211:3IJXV6UZ1YQ3NTMR717PMVLOTUVRIX"}, {"current_trial": 68, "dateTime": 1509548107138, "trialdata": {"conditions": [18, 1200, "v", 18000], "internal_node_id": "0.0-50.0", "key_press": -1, "rt": -1, "serialpos": 13, "stimulus": "<p id=\"stim\">PEACH</p>", "time_elapsed": 338621, "trial": 1, "trial_index": 68, "trial_type": "single-stim", "type": "PRES_VIS", "word": "peach", "wordID": 1030}, "uniqueid": "MTK0211:3IJXV6UZ1YQ3NTMR717PMVLOTUVRIX"}, {"current_trial": 69, "dateTime": 1509548109330, "trialdata": {"conditions": [18, 1200, "v", 18000], "internal_node_id": "0.0-51.0", "key_press": -1, "rt": -1, "serialpos": 14, "stimulus": "<p id=\"stim\">COTTAGE</p>", "time_elapsed": 340814, "trial": 1, "trial_index": 69, "trial_type": "single-stim", "type": "PRES_VIS", "word": "cottage", "wordID": 383}, "uniqueid": "MTK0211:3IJXV6UZ1YQ3NTMR717PMVLOTUVRIX"}, {"current_trial": 70, "dateTime": 1509548111365, "trialdata": {"conditions": [18, 1200, "v", 18000], "internal_node_id": "0.0-52.0", "key_press": -1, "rt": -1, "serialpos": 15, "stimulus": "<p id=\"stim\">HOSTESS</p>", "time_elapsed": 342850, "trial": 1, "trial_index": 70, "trial_type": "single-stim", "type": "PRES_VIS", "word": "hostess", "wordID": 722}, "uniqueid": "MTK0211:3IJXV6UZ1YQ3NTMR717PMVLOTUVRIX"}, {"current_trial": 71, "dateTime": 1509548113567, "trialdata": {"conditions": [18, 1200, "v", 18000], "internal_node_id": "0.0-53.0", "key_press": -1, "rt": -1, "serialpos": 16, "stimulus": "<p id=\"stim\">PENGUIN</p>", "time_elapsed": 345052, "trial": 1, "trial_index": 71, "trial_type": "single-stim", "type": "PRES_VIS", "word": "penguin", "wordID": 1043}, "uniqueid": "MTK0211:3IJXV6UZ1YQ3NTMR717PMVLOTUVRIX"}, {"current_trial": 72, "dateTime": 1509548115741, "trialdata": {"conditions": [18, 1200, "v", 18000], "internal_node_id": "0.0-54.0", "key_press": -1, "rt": -1, "serialpos": 17, "stimulus": "<p id=\"stim\">TREAT</p>", "time_elapsed": 347226, "trial": 1, "trial_index": 72, "trial_type": "single-stim", "type": "PRES_VIS", "word": "treat", "wordID": 1500}, "uniqueid": "MTK0211:3IJXV6UZ1YQ3NTMR717PMVLOTUVRIX"}, {"current_trial": 73, "dateTime": 1509548118057, "trialdata": {"internal_node_id": "0.0-55.0-0.0", "key_press": -1, "rt": -1, "stimulus": "", "time_elapsed": 349542, "trial_index": 73, "trial_type": "single-stim", "type": "PRE_RECALL_DELAY"}, "uniqueid": "MTK0211:3IJXV6UZ1YQ3NTMR717PMVLOTUVRIX"}, {"current_trial": 74, "dateTime": 1509548118558, "trialdata": {"internal_node_id": "0.0-56.0", "key_press": -1, "rt": -1000, "stimulus": "/static/audio/400Hz.wav", "time_elapsed": 350043, "trial_index": 74, "trial_type": "single-audio", "type": "PRE_RECALL_ALERT"}, "uniqueid": "MTK0211:3IJXV6UZ1YQ3NTMR717PMVLOTUVRIX"}, {"current_trial": 75, "dateTime": 1509548178568, "trialdata": {"conditions": [18, 1200, "v", 18000], "internal_node_id": "0.0-57.0-0.0", "recwords": ["rooster", "twister", "cottage", "mister", "preach", "teach", "france", "cough"], "rt": [3591, 5091, 6566, 8368, 11587, 16629, 21866, 23573], "time_elapsed": 410050, "trial": 1, "trial_index": 75, "trial_type": "free-recall", "type": "FREE_RECALL"}, "uniqueid": "MTK0211:3IJXV6UZ1YQ3NTMR717PMVLOTUVRIX"}, {"current_trial": 76, "dateTime": 1509548183306, "trialdata": {"internal_node_id": "0.0-58.0", "key_press": 32, "rt": 2736, "time_elapsed": 414790, "trial_index": 76, "trial_type": "text", "type": "INSTRUCTIONS"}, "uniqueid": "MTK0211:3IJXV6UZ1YQ3NTMR717PMVLOTUVRIX"}, {"current_trial": 77, "dateTime": 1509548196309, "trialdata": {"conditions": [24, 800, "a", 12000], "internal_node_id": "0.0-59.0", "num1": [8, 5, 1, 7, 3, 5], "num2": [4, 4, 4, 3, 2, 2], "num3": [6, 3, 2, 8, 7, 1], "responses": ["18", "12", "7", "18", "12"], "rt": [2741, 5148, 7396, 9662, 11368], "time_elapsed": 427794, "trial": 2, "trial_index": 77, "trial_type": "math-distractor", "type": "DISTRACTOR"}, "uniqueid": "MTK0211:3IJXV6UZ1YQ3NTMR717PMVLOTUVRIX"}, {"current_trial": 78, "dateTime": 1509548199311, "trialdata": {"internal_node_id": "0.0-60.0-0.0", "key_press": -1, "rt": -1, "stimulus": "<p id=\"stim\">10</p>", "time_elapsed": 430796, "trial_index": 78, "trial_type": "single-stim"}, "uniqueid": "MTK0211:3IJXV6UZ1YQ3NTMR717PMVLOTUVRIX"}, {"current_trial": 79, "dateTime": 1509548200316, "trialdata": {"internal_node_id": "0.0-60.0-1.0", "key_press": -1, "rt": -1, "stimulus": "<p id=\"stim\">9</p>", "time_elapsed": 431801, "trial_index": 79, "trial_type": "single-stim"}, "uniqueid": "MTK0211:3IJXV6UZ1YQ3NTMR717PMVLOTUVRIX"}, {"current_trial": 80, "dateTime": 1509548201317, "trialdata": {"internal_node_id": "0.0-60.0-2.0", "key_press": -1, "rt": -1, "stimulus": "<p id=\"stim\">8</p>", "time_elapsed": 432802, "trial_index": 80, "trial_type": "single-stim"}, "uniqueid": "MTK0211:3IJXV6UZ1YQ3NTMR717PMVLOTUVRIX"}, {"current_trial": 81, "dateTime": 1509548202320, "trialdata": {"internal_node_id": "0.0-60.0-3.0", "key_press": -1, "rt": -1, "stimulus": "<p id=\"stim\">7</p>", "time_elapsed": 433805, "trial_index": 81, "trial_type": "single-stim"}, "uniqueid": "MTK0211:3IJXV6UZ1YQ3NTMR717PMVLOTUVRIX"}, {"current_trial": 82, "dateTime": 1509548203321, "trialdata": {"internal_node_id": "0.0-60.0-4.0", "key_press": -1, "rt": -1, "stimulus": "<p id=\"stim\">6</p>", "time_elapsed": 434806, "trial_index": 82, "trial_type": "single-stim"}, "uniqueid": "MTK0211:3IJXV6UZ1YQ3NTMR717PMVLOTUVRIX"}, {"current_trial": 83, "dateTime": 1509548204323, "trialdata": {"internal_node_id": "0.0-60.0-5.0", "key_press": -1, "rt": -1, "stimulus": "<p id=\"stim\">5</p>", "time_elapsed": 435808, "trial_index": 83, "trial_type": "single-stim"}, "uniqueid": "MTK0211:3IJXV6UZ1YQ3NTMR717PMVLOTUVRIX"}, {"current_trial": 84, "dateTime": 1509548205325, "trialdata": {"internal_node_id": "0.0-60.0-6.0", "key_press": -1, "rt": -1, "stimulus": "<p id=\"stim\">4</p>", "time_elapsed": 436810, "trial_index": 84, "trial_type": "single-stim"}, "uniqueid": "MTK0211:3IJXV6UZ1YQ3NTMR717PMVLOTUVRIX"}, {"current_trial": 85, "dateTime": 1509548206327, "trialdata": {"internal_node_id": "0.0-60.0-7.0", "key_press": -1, "rt": -1, "stimulus": "<p id=\"stim\">3</p>", "time_elapsed": 437812, "trial_index": 85, "trial_type": "single-stim"}, "uniqueid": "MTK0211:3IJXV6UZ1YQ3NTMR717PMVLOTUVRIX"}, {"current_trial": 86, "dateTime": 1509548207329, "trialdata": {"internal_node_id": "0.0-60.0-8.0", "key_press": -1, "rt": -1, "stimulus": "<p id=\"stim\">2</p>", "time_elapsed": 438814, "trial_index": 86, "trial_type": "single-stim"}, "uniqueid": "MTK0211:3IJXV6UZ1YQ3NTMR717PMVLOTUVRIX"}, {"current_trial": 87, "dateTime": 1509548208331, "trialdata": {"internal_node_id": "0.0-60.0-9.0", "key_press": -1, "rt": -1, "stimulus": "<p id=\"stim\">1</p>", "time_elapsed": 439816, "trial_index": 87, "trial_type": "single-stim"}, "uniqueid": "MTK0211:3IJXV6UZ1YQ3NTMR717PMVLOTUVRIX"}, {"current_trial": 88, "dateTime": 1509548209833, "trialdata": {"internal_node_id": "0.0-61.0-0.0", "key_press": -1, "rt": -1, "stimulus": "<p id=\"stim\">+</p>", "time_elapsed": 441318, "trial_index": 88, "trial_type": "single-stim", "type": "FIXATION"}, "uniqueid": "MTK0211:3IJXV6UZ1YQ3NTMR717PMVLOTUVRIX"}, {"current_trial": 89, "dateTime": 1509548211574, "trialdata": {"conditions": [24, 800, "a", 12000], "internal_node_id": "0.0-62.0", "key_press": -1, "rt": -1000, "serialpos": 0, "stimulus": "/static/audio/wordpool/SUITCASE.wav", "time_elapsed": 443059, "trial": 2, "trial_index": 89, "trial_type": "single-audio", "type": "PRES_AUD", "word": "suitcase", "wordID": 1402}, "uniqueid": "MTK0211:3IJXV6UZ1YQ3NTMR717PMVLOTUVRIX"}, {"current_trial": 90, "dateTime": 1509548213481, "trialdata": {"conditions": [24, 800, "a", 12000], "internal_node_id": "0.0-63.0", "key_press": -1, "rt": -1000, "serialpos": 1, "stimulus": "/static/audio/wordpool/CREATURE.wav", "time_elapsed": 444966, "trial": 2, "trial_index": 90, "trial_type": "single-audio", "type": "PRES_AUD", "word": "creature", "wordID": 402}, "uniqueid": "MTK0211:3IJXV6UZ1YQ3NTMR717PMVLOTUVRIX"}, {"current_trial": 91, "dateTime": 1509548215324, "trialdata": {"conditions": [24, 800, "a", 12000], "internal_node_id": "0.0-64.0", "key_press": -1, "rt": -1000, "serialpos": 2, "stimulus": "/static/audio/wordpool/MAMMAL.wav", "time_elapsed": 446809, "trial": 2, "trial_index": 91, "trial_type": "single-audio", "type": "PRES_AUD", "word": "mammal", "wordID": 860}, "uniqueid": "MTK0211:3IJXV6UZ1YQ3NTMR717PMVLOTUVRIX"}, {"current_trial": 92, "dateTime": 1509548217042, "trialdata": {"conditions": [24, 800, "a", 12000], "internal_node_id": "0.0-65.0", "key_press": -1, "rt": -1000, "serialpos": 3, "stimulus": "/static/audio/wordpool/BANKER.wav", "time_elapsed": 448527, "trial": 2, "trial_index": 92, "trial_type": "single-audio", "type": "PRES_AUD", "word": "banker", "wordID": 83}, "uniqueid": "MTK0211:3IJXV6UZ1YQ3NTMR717PMVLOTUVRIX"}, {"current_trial": 93, "dateTime": 1509548218778, "trialdata": {"conditions": [24, 800, "a", 12000], "internal_node_id": "0.0-66.0", "key_press": -1, "rt": -1000, "serialpos": 4, "stimulus": "/static/audio/wordpool/ANTLER.wav", "time_elapsed": 450263, "trial": 2, "trial_index": 93, "trial_type": "single-audio", "type": "PRES_AUD", "word": "antler", "wordID": 28}, "uniqueid": "MTK0211:3IJXV6UZ1YQ3NTMR717PMVLOTUVRIX"}, {"current_trial": 94, "dateTime": 1509548220630, "trialdata": {"conditions": [24, 800, "a", 12000], "internal_node_id": "0.0-67.0", "key_press": -1, "rt": -1000, "serialpos": 5, "stimulus": "/static/audio/wordpool/COUSIN.wav", "time_elapsed": 452114, "trial": 2, "trial_index": 94, "trial_type": "single-audio", "type": "PRES_AUD", "word": "cousin", "wordID": 391}, "uniqueid": "MTK0211:3IJXV6UZ1YQ3NTMR717PMVLOTUVRIX"}, {"current_trial": 95, "dateTime": 1509548222619, "trialdata": {"conditions": [24, 800, "a", 12000], "internal_node_id": "0.0-68.0", "key_press": -1, "rt": -1000, "serialpos": 6, "stimulus": "/static/audio/wordpool/LODGE.wav", "time_elapsed": 454104, "trial": 2, "trial_index": 95, "trial_type": "single-audio", "type": "PRES_AUD", "word": "lodge", "wordID": 838}, "uniqueid": "MTK0211:3IJXV6UZ1YQ3NTMR717PMVLOTUVRIX"}, {"current_trial": 96, "dateTime": 1509548224330, "trialdata": {"conditions": [24, 800, "a", 12000], "internal_node_id": "0.0-69.0", "key_press": -1, "rt": -1000, "serialpos": 7, "stimulus": "/static/audio/wordpool/LOFT.wav", "time_elapsed": 455815, "trial": 2, "trial_index": 96, "trial_type": "single-audio", "type": "PRES_AUD", "word": "loft", "wordID": 839}, "uniqueid": "MTK0211:3IJXV6UZ1YQ3NTMR717PMVLOTUVRIX"}, {"current_trial": 97, "dateTime": 1509548226258, "trialdata": {"conditions": [24, 800, "a", 12000], "internal_node_id": "0.0-70.0", "key_press": -1, "rt": -1000, "serialpos": 8, "stimulus": "/static/audio/wordpool/LEOPARD.wav", "time_elapsed": 457743, "trial": 2, "trial_index": 97, "trial_type": "single-audio", "type": "PRES_AUD", "word": "leopard", "wordID": 811}, "uniqueid": "MTK0211:3IJXV6UZ1YQ3NTMR717PMVLOTUVRIX"}, {"current_trial": 98, "dateTime": 1509548227930, "trialdata": {"conditions": [24, 800, "a", 12000], "internal_node_id": "0.0-71.0", "key_press": -1, "rt": -1000, "serialpos": 9, "stimulus": "/static/audio/wordpool/SAUSAGE.wav", "time_elapsed": 459415, "trial": 2, "trial_index": 98, "trial_type": "single-audio", "type": "PRES_AUD", "word": "sausage", "wordID": 1237}, "uniqueid": "MTK0211:3IJXV6UZ1YQ3NTMR717PMVLOTUVRIX"}, {"current_trial": 99, "dateTime": 1509548229657, "trialdata": {"conditions": [24, 800, "a", 12000], "internal_node_id": "0.0-72.0", "key_press": -1, "rt": -1000, "serialpos": 10, "stimulus": "/static/audio/wordpool/MONSTER.wav", "time_elapsed": 461142, "trial": 2, "trial_index": 99, "trial_type": "single-audio", "type": "PRES_AUD", "word": "monster", "wordID": 911}, "uniqueid": "MTK0211:3IJXV6UZ1YQ3NTMR717PMVLOTUVRIX"}, {"current_trial": 100, "dateTime": 1509548231446, "trialdata": {"conditions": [24, 800, "a", 12000], "internal_node_id": "0.0-73.0", "key_press": -1, "rt": -1000, "serialpos": 11, "stimulus": "/static/audio/wordpool/BROTHER.wav", "time_elapsed": 462931, "trial": 2, "trial_index": 100, "trial_type": "single-audio", "type": "PRES_AUD", "word": "brother", "wordID": 178}, "uniqueid": "MTK0211:3IJXV6UZ1YQ3NTMR717PMVLOTUVRIX"}, {"current_trial": 101, "dateTime": 1509548233394, "trialdata": {"conditions": [24, 800, "a", 12000], "internal_node_id": "0.0-74.0", "key_press": -1, "rt": -1000, "serialpos": 12, "stimulus": "/static/audio/wordpool/DRESS.wav", "time_elapsed": 464879, "trial": 2, "trial_index": 101, "trial_type": "single-audio", "type": "PRES_AUD", "word": "dress", "wordID": 494}, "uniqueid": "MTK0211:3IJXV6UZ1YQ3NTMR717PMVLOTUVRIX"}, {"current_trial": 102, "dateTime": 1509548235293, "trialdata": {"conditions": [24, 800, "a", 12000], "internal_node_id": "0.0-75.0", "key_press": -1, "rt": -1000, "serialpos": 13, "stimulus": "/static/audio/wordpool/TERMITE.wav", "time_elapsed": 466778, "trial": 2, "trial_index": 102, "trial_type": "single-audio", "type": "PRES_AUD", "word": "termite", "wordID": 1450}, "uniqueid": "MTK0211:3IJXV6UZ1YQ3NTMR717PMVLOTUVRIX"}, {"current_trial": 103, "dateTime": 1509548237202, "trialdata": {"conditions": [24, 800, "a", 12000], "internal_node_id": "0.0-76.0", "key_press": -1, "rt": -1000, "serialpos": 14, "stimulus": "/static/audio/wordpool/CRIB.wav", "time_elapsed": 468687, "trial": 2, "trial_index": 103, "trial_type": "single-audio", "type": "PRES_AUD", "word": "crib", "wordID": 406}, "uniqueid": "MTK0211:3IJXV6UZ1YQ3NTMR717PMVLOTUVRIX"}, {"current_trial": 104, "dateTime": 1509548239044, "trialdata": {"conditions": [24, 800, "a", 12000], "internal_node_id": "0.0-77.0", "key_press": -1, "rt": -1000, "serialpos": 15, "stimulus": "/static/audio/wordpool/MATTRESS.wav", "time_elapsed": 470529, "trial": 2, "trial_index": 104, "trial_type": "single-audio", "type": "PRES_AUD", "word": "mattress", "wordID": 878}, "uniqueid": "MTK0211:3IJXV6UZ1YQ3NTMR717PMVLOTUVRIX"}, {"current_trial": 105, "dateTime": 1509548240655, "trialdata": {"conditions": [24, 800, "a", 12000], "internal_node_id": "0.0-78.0", "key_press": -1, "rt": -1000, "serialpos": 16, "stimulus": "/static/audio/wordpool/LACE.wav", "time_elapsed": 472140, "trial": 2, "trial_index": 105, "trial_type": "single-audio", "type": "PRES_AUD", "word": "lace", "wordID": 791}, "uniqueid": "MTK0211:3IJXV6UZ1YQ3NTMR717PMVLOTUVRIX"}, {"current_trial": 106, "dateTime": 1509548242523, "trialdata": {"conditions": [24, 800, "a", 12000], "internal_node_id": "0.0-79.0", "key_press": -1, "rt": -1000, "serialpos": 17, "stimulus": "/static/audio/wordpool/LIPSTICK.wav", "time_elapsed": 474008, "trial": 2, "trial_index": 106, "trial_type": "single-audio", "type": "PRES_AUD", "word": "lipstick", "wordID": 828}, "uniqueid": "MTK0211:3IJXV6UZ1YQ3NTMR717PMVLOTUVRIX"}, {"current_trial": 107, "dateTime": 1509548244256, "trialdata": {"conditions": [24, 800, "a", 12000], "internal_node_id": "0.0-80.0", "key_press": -1, "rt": -1000, "serialpos": 18, "stimulus": "/static/audio/wordpool/PLAID.wav", "time_elapsed": 475741, "trial": 2, "trial_index": 107, "trial_type": "single-audio", "type": "PRES_AUD", "word": "plaid", "wordID": 1079}, "uniqueid": "MTK0211:3IJXV6UZ1YQ3NTMR717PMVLOTUVRIX"}, {"current_trial": 108, "dateTime": 1509548245955, "trialdata": {"conditions": [24, 800, "a", 12000], "internal_node_id": "0.0-81.0", "key_press": -1, "rt": -1000, "serialpos": 19, "stimulus": "/static/audio/wordpool/FARMER.wav", "time_elapsed": 477440, "trial": 2, "trial_index": 108, "trial_type": "single-audio", "type": "PRES_AUD", "word": "farmer", "wordID": 552}, "uniqueid": "MTK0211:3IJXV6UZ1YQ3NTMR717PMVLOTUVRIX"}, {"current_trial": 109, "dateTime": 1509548247861, "trialdata": {"conditions": [24, 800, "a", 12000], "internal_node_id": "0.0-82.0", "key_press": -1, "rt": -1000, "serialpos": 20, "stimulus": "/static/audio/wordpool/BEAVER.wav", "time_elapsed": 479346, "trial": 2, "trial_index": 109, "trial_type": "single-audio", "type": "PRES_AUD", "word": "beaver", "wordID": 108}, "uniqueid": "MTK0211:3IJXV6UZ1YQ3NTMR717PMVLOTUVRIX"}, {"current_trial": 110, "dateTime": 1509548249848, "trialdata": {"conditions": [24, 800, "a", 12000], "internal_node_id": "0.0-83.0", "key_press": -1, "rt": -1000, "serialpos": 21, "stimulus": "/static/audio/wordpool/EXPERT.wav", "time_elapsed": 481333, "trial": 2, "trial_index": 110, "trial_type": "single-audio", "type": "PRES_AUD", "word": "expert", "wordID": 542}, "uniqueid": "MTK0211:3IJXV6UZ1YQ3NTMR717PMVLOTUVRIX"}, {"current_trial": 111, "dateTime": 1509548251581, "trialdata": {"conditions": [24, 800, "a", 12000], "internal_node_id": "0.0-84.0", "key_press": -1, "rt": -1000, "serialpos": 22, "stimulus": "/static/audio/wordpool/GARDEN.wav", "time_elapsed": 483066, "trial": 2, "trial_index": 111, "trial_type": "single-audio", "type": "PRES_AUD", "word": "garden", "wordID": 622}, "uniqueid": "MTK0211:3IJXV6UZ1YQ3NTMR717PMVLOTUVRIX"}, {"current_trial": 112, "dateTime": 1509548253465, "trialdata": {"conditions": [24, 800, "a", 12000], "internal_node_id": "0.0-85.0", "key_press": -1, "rt": -1000, "serialpos": 23, "stimulus": "/static/audio/wordpool/HANDBAG.wav", "time_elapsed": 484950, "trial": 2, "trial_index": 112, "trial_type": "single-audio", "type": "PRES_AUD", "word": "handbag", "wordID": 683}, "uniqueid": "MTK0211:3IJXV6UZ1YQ3NTMR717PMVLOTUVRIX"}, {"current_trial": 113, "dateTime": 1509548254772, "trialdata": {"internal_node_id": "0.0-86.0-0.0", "key_press": -1, "rt": -1, "stimulus": "", "time_elapsed": 486257, "trial_index": 113, "trial_type": "single-stim", "type": "PRE_RECALL_DELAY"}, "uniqueid": "MTK0211:3IJXV6UZ1YQ3NTMR717PMVLOTUVRIX"}, {"current_trial": 114, "dateTime": 1509548255274, "trialdata": {"internal_node_id": "0.0-87.0", "key_press": -1, "rt": -1000, "stimulus": "/static/audio/400Hz.wav", "time_elapsed": 486759, "trial_index": 114, "trial_type": "single-audio", "type": "PRE_RECALL_ALERT"}, "uniqueid": "MTK0211:3IJXV6UZ1YQ3NTMR717PMVLOTUVRIX"}, {"uniqueid": "MTK0211:3IJXV6UZ1YQ3NTMR717PMVLOTUVRIX", "current_trial": 115, "dateTime": 1509550326743, "trialdata": {"rt": 1407, "key_press": 32, "type": "INSTRUCTIONS", "trial_type": "text", "trial_index": 0, "time_elapsed": 1412, "internal_node_id": "0.0-0.0"}}, {"uniqueid": "MTK0211:3IJXV6UZ1YQ3NTMR717PMVLOTUVRIX", "current_trial": 116, "dateTime": 1509550328062, "trialdata": {"rt": 1316, "key_press": 32, "type": "INSTRUCTIONS", "trial_type": "text", "trial_index": 1, "time_elapsed": 2731, "internal_node_id": "0.0-1.0"}}, {"uniqueid": "MTK0211:3IJXV6UZ1YQ3NTMR717PMVLOTUVRIX", "current_trial": 117, "dateTime": 1509550351327, "trialdata": {"rt": [23254], "responses": ["ocean"], "type": "AUDIO_TEST", "trial_type": "audio-test", "trial_index": 2, "time_elapsed": 25996, "internal_node_id": "0.0-2.0"}}, {"uniqueid": "MTK0211:3IJXV6UZ1YQ3NTMR717PMVLOTUVRIX", "current_trial": 118, "dateTime": 1509550361635, "trialdata": {"rt": [10299], "responses": ["crystal"], "type": "AUDIO_TEST", "trial_type": "audio-test", "trial_index": 3, "time_elapsed": 36304, "internal_node_id": "0.0-3.0"}}, {"uniqueid": "MTK0211:3IJXV6UZ1YQ3NTMR717PMVLOTUVRIX", "current_trial": 119, "dateTime": 1509550367175, "trialdata": {"rt": [5534], "responses": ["spice"], "type": "AUDIO_TEST", "trial_type": "audio-test", "trial_index": 4, "time_elapsed": 41845, "internal_node_id": "0.0-4.0"}}, {"uniqueid": "MTK0211:3IJXV6UZ1YQ3NTMR717PMVLOTUVRIX", "current_trial": 120, "dateTime": 1509550370682, "trialdata": {"rt": 2755, "key_press": 13, "type": "INSTRUCTIONS", "trial_type": "text", "trial_index": 5, "time_elapsed": 45352, "internal_node_id": "0.0-5.0"}}, {"uniqueid": "MTK0211:3IJXV6UZ1YQ3NTMR717PMVLOTUVRIX", "current_trial": 121, "dateTime": 1509550376444, "trialdata": {"rt": 5761, "key_press": 13, "type": "INSTRUCTIONS", "trial_type": "text", "trial_index": 6, "time_elapsed": 51114, "internal_node_id": "0.0-6.0"}}, {"uniqueid": "MTK0211:3IJXV6UZ1YQ3NTMR717PMVLOTUVRIX", "current_trial": 122, "dateTime": 1509550377077, "trialdata": {"rt": 631, "key_press": 13, "type": "INSTRUCTIONS", "trial_type": "text", "trial_index": 7, "time_elapsed": 51747, "internal_node_id": "0.0-7.0"}}, {"uniqueid": "MTK0211:3IJXV6UZ1YQ3NTMR717PMVLOTUVRIX", "current_trial": 123, "dateTime": 1509550377694, "trialdata": {"rt": 617, "key_press": 13, "type": "INSTRUCTIONS", "trial_type": "text", "trial_index": 8, "time_elapsed": 52364, "internal_node_id": "0.0-8.0"}}, {"uniqueid": "MTK0211:3IJXV6UZ1YQ3NTMR717PMVLOTUVRIX", "current_trial": 124, "dateTime": 1509550396700, "trialdata": {"rt": [3075, 5505, 8628, 13736, 15606], "responses": ["14", "5", "17", "16", "8"], "num1": [5, 1, 5, 9, 2, 1], "num2": [1, 3, 6, 3, 5, 4], "num3": [8, 1, 6, 4, 1, 7], "type": "DISTRACTOR", "conditions": [18, 1200, "a", 18000], "trial": 0, "trial_type": "math-distractor", "trial_index": 9, "time_elapsed": 71369, "internal_node_id": "0.0-9.0"}}, {"uniqueid": "MTK0211:3IJXV6UZ1YQ3NTMR717PMVLOTUVRIX", "current_trial": 125, "dateTime": 1509550399704, "trialdata": {"rt": -1, "stimulus": "<p id=\"stim\">10</p>", "key_press": -1, "trial_type": "single-stim", "trial_index": 10, "time_elapsed": 74374, "internal_node_id": "0.0-10.0-0.0"}}, {"uniqueid": "MTK0211:3IJXV6UZ1YQ3NTMR717PMVLOTUVRIX", "current_trial": 126, "dateTime": 1509550400705, "trialdata": {"rt": -1, "stimulus": "<p id=\"stim\">9</p>", "key_press": -1, "trial_type": "single-stim", "trial_index": 11, "time_elapsed": 75375, "internal_node_id": "0.0-10.0-1.0"}}, {"uniqueid": "MTK0211:3IJXV6UZ1YQ3NTMR717PMVLOTUVRIX", "current_trial": 127, "dateTime": 1509550401707, "trialdata": {"rt": -1, "stimulus": "<p id=\"stim\">8</p>", "key_press": -1, "trial_type": "single-stim", "trial_index": 12, "time_elapsed": 76377, "internal_node_id": "0.0-10.0-2.0"}}, {"uniqueid": "MTK0211:3IJXV6UZ1YQ3NTMR717PMVLOTUVRIX", "current_trial": 128, "dateTime": 1509550402709, "trialdata": {"rt": -1, "stimulus": "<p id=\"stim\">7</p>", "key_press": -1, "trial_type": "single-stim", "trial_index": 13, "time_elapsed": 77379, "internal_node_id": "0.0-10.0-3.0"}}, {"uniqueid": "MTK0211:3IJXV6UZ1YQ3NTMR717PMVLOTUVRIX", "current_trial": 129, "dateTime": 1509550403712, "trialdata": {"rt": -1, "stimulus": "<p id=\"stim\">6</p>", "key_press": -1, "trial_type": "single-stim", "trial_index": 14, "time_elapsed": 78382, "internal_node_id": "0.0-10.0-4.0"}}, {"uniqueid": "MTK0211:3IJXV6UZ1YQ3NTMR717PMVLOTUVRIX", "current_trial": 130, "dateTime": 1509550404713, "trialdata": {"rt": -1, "stimulus": "<p id=\"stim\">5</p>", "key_press": -1, "trial_type": "single-stim", "trial_index": 15, "time_elapsed": 79383, "internal_node_id": "0.0-10.0-5.0"}}, {"uniqueid": "MTK0211:3IJXV6UZ1YQ3NTMR717PMVLOTUVRIX", "current_trial": 131, "dateTime": 1509550405715, "trialdata": {"rt": -1, "stimulus": "<p id=\"stim\">4</p>", "key_press": -1, "trial_type": "single-stim", "trial_index": 16, "time_elapsed": 80385, "internal_node_id": "0.0-10.0-6.0"}}, {"uniqueid": "MTK0211:3IJXV6UZ1YQ3NTMR717PMVLOTUVRIX", "current_trial": 132, "dateTime": 1509550406717, "trialdata": {"rt": -1, "stimulus": "<p id=\"stim\">3</p>", "key_press": -1, "trial_type": "single-stim", "trial_index": 17, "time_elapsed": 81386, "internal_node_id": "0.0-10.0-7.0"}}, {"uniqueid": "MTK0211:3IJXV6UZ1YQ3NTMR717PMVLOTUVRIX", "current_trial": 133, "dateTime": 1509550407719, "trialdata": {"rt": -1, "stimulus": "<p id=\"stim\">2</p>", "key_press": -1, "trial_type": "single-stim", "trial_index": 18, "time_elapsed": 82388, "internal_node_id": "0.0-10.0-8.0"}}, {"uniqueid": "MTK0211:3IJXV6UZ1YQ3NTMR717PMVLOTUVRIX", "current_trial": 134, "dateTime": 1509550408720, "trialdata": {"rt": -1, "stimulus": "<p id=\"stim\">1</p>", "key_press": -1, "trial_type": "single-stim", "trial_index": 19, "time_elapsed": 83390, "internal_node_id": "0.0-10.0-9.0"}}, {"uniqueid": "MTK0211:3IJXV6UZ1YQ3NTMR717PMVLOTUVRIX", "current_trial": 135, "dateTime": 1509550410223, "trialdata": {"rt": -1, "stimulus": "<p id=\"stim\">+</p>", "key_press": -1, "type": "FIXATION", "trial_type": "single-stim", "trial_index": 20, "time_elapsed": 84893, "internal_node_id": "0.0-11.0-0.0"}}, {"uniqueid": "MTK0211:3IJXV6UZ1YQ3NTMR717PMVLOTUVRIX", "current_trial": 136, "dateTime": 1509550412357, "trialdata": {"rt": -1000, "stimulus": "/static/audio/wordpool/HEDGE.wav", "key_press": -1, "type": "PRES_AUD", "word": "hedge", "wordID": 698, "conditions": [18, 1200, "a", 18000], "trial": 0, "serialpos": 0, "trial_type": "single-audio", "trial_index": 21, "time_elapsed": 87027, "internal_node_id": "0.0-12.0"}}, {"uniqueid": "MTK0211:3IJXV6UZ1YQ3NTMR717PMVLOTUVRIX", "current_trial": 137, "dateTime": 1509550414363, "trialdata": {"rt": -1000, "stimulus": "/static/audio/wordpool/CASKET.wav", "key_press": -1, "type": "PRES_AUD", "word": "casket", "wordID": 254, "conditions": [18, 1200, "a", 18000], "trial": 0, "serialpos": 1, "trial_type": "single-audio", "trial_index": 22, "time_elapsed": 89033, "internal_node_id": "0.0-13.0"}}, {"uniqueid": "MTK0211:3IJXV6UZ1YQ3NTMR717PMVLOTUVRIX", "current_trial": 138, "dateTime": 1509550416683, "trialdata": {"rt": -1000, "stimulus": "/static/audio/wordpool/BANJO.wav", "key_press": -1, "type": "PRES_AUD", "word": "banjo", "wordID": 81, "conditions": [18, 1200, "a", 18000], "trial": 0, "serialpos": 2, "trial_type": "single-audio", "trial_index": 23, "time_elapsed": 91353, "internal_node_id": "0.0-14.0"}}, {"uniqueid": "MTK0211:3IJXV6UZ1YQ3NTMR717PMVLOTUVRIX", "current_trial": 139, "dateTime": 1509550418917, "trialdata": {"rt": -1000, "stimulus": "/static/audio/wordpool/ORCHID.wav", "key_press": -1, "type": "PRES_AUD", "word": "orchid", "wordID": 981, "conditions": [18, 1200, "a", 18000], "trial": 0, "serialpos": 3, "trial_type": "single-audio", "trial_index": 24, "time_elapsed": 93587, "internal_node_id": "0.0-15.0"}}, {"uniqueid": "MTK0211:3IJXV6UZ1YQ3NTMR717PMVLOTUVRIX", "current_trial": 140, "dateTime": 1509550421301, "trialdata": {"rt": -1000, "stimulus": "/static/audio/wordpool/WRENCH.wav", "key_press": -1, "type": "PRES_AUD", "word": "wrench", "wordID": 1624, "conditions": [18, 1200, "a", 18000], "trial": 0, "serialpos": 4, "trial_type": "single-audio", "trial_index": 25, "time_elapsed": 95971, "internal_node_id": "0.0-16.0"}}, {"uniqueid": "MTK0211:3IJXV6UZ1YQ3NTMR717PMVLOTUVRIX", "current_trial": 141, "dateTime": 1509550423635, "trialdata": {"rt": -1000, "stimulus": "/static/audio/wordpool/CARROT.wav", "key_press": -1, "type": "PRES_AUD", "word": "carrot", "wordID": 248, "conditions": [18, 1200, "a", 18000], "trial": 0, "serialpos": 5, "trial_type": "single-audio", "trial_index": 26, "time_elapsed": 98305, "internal_node_id": "0.0-17.0"}}, {"uniqueid": "MTK0211:3IJXV6UZ1YQ3NTMR717PMVLOTUVRIX", "current_trial": 142, "dateTime": 1509550425727, "trialdata": {"rt": -1000, "stimulus": "/static/audio/wordpool/GAZELLE.wav", "key_press": -1, "type": "PRES_AUD", "word": "gazelle", "wordID": 627, "conditions": [18, 1200, "a", 18000], "trial": 0, "serialpos": 6, "trial_type": "single-audio", "trial_index": 27, "time_elapsed": 100397, "internal_node_id": "0.0-18.0"}}, {"uniqueid": "MTK0211:3IJXV6UZ1YQ3NTMR717PMVLOTUVRIX", "current_trial": 143, "dateTime": 1509550428103, "trialdata": {"rt": -1000, "stimulus": "/static/audio/wordpool/FLUTE.wav", "key_press": -1, "type": "PRES_AUD", "word": "flute", "wordID": 584, "conditions": [18, 1200, "a", 18000], "trial": 0, "serialpos": 7, "trial_type": "single-audio", "trial_index": 28, "time_elapsed": 102773, "internal_node_id": "0.0-19.0"}}, {"uniqueid": "MTK0211:3IJXV6UZ1YQ3NTMR717PMVLOTUVRIX", "current_trial": 144, "dateTime": 1509550430158, "trialdata": {"rt": -1000, "stimulus": "/static/audio/wordpool/DIME.wav", "key_press": -1, "type": "PRES_AUD", "word": "dime", "wordID": 465, "conditions": [18, 1200, "a", 18000], "trial": 0, "serialpos": 8, "trial_type": "single-audio", "trial_index": 29, "time_elapsed": 104828, "internal_node_id": "0.0-20.0"}}, {"uniqueid": "MTK0211:3IJXV6UZ1YQ3NTMR717PMVLOTUVRIX", "current_trial": 145, "dateTime": 1509550432391, "trialdata": {"rt": -1000, "stimulus": "/static/audio/wordpool/PARENT.wav", "key_press": -1, "type": "PRES_AUD", "word": "parent", "wordID": 1012, "conditions": [18, 1200, "a", 18000], "trial": 0, "serialpos": 9, "trial_type": "single-audio", "trial_index": 30, "time_elapsed": 107061, "internal_node_id": "0.0-21.0"}}, {"uniqueid": "MTK0211:3IJXV6UZ1YQ3NTMR717PMVLOTUVRIX", "current_trial": 146, "dateTime": 1509550434509, "trialdata": {"rt": -1000, "stimulus": "/static/audio/wordpool/TRIBE.wav", "key_press": -1, "type": "PRES_AUD", "word": "tribe", "wordID": 1504, "conditions": [18, 1200, "a", 18000], "trial": 0, "serialpos": 10, "trial_type": "single-audio", "trial_index": 31, "time_elapsed": 109179, "internal_node_id": "0.0-22.0"}}, {"uniqueid": "MTK0211:3IJXV6UZ1YQ3NTMR717PMVLOTUVRIX", "current_trial": 147, "dateTime": 1509550436699, "trialdata": {"rt": -1000, "stimulus": "/static/audio/wordpool/RECEIPT.wav", "key_press": -1, "type": "PRES_AUD", "word": "receipt", "wordID": 1172, "conditions": [18, 1200, "a", 18000], "trial": 0, "serialpos": 11, "trial_type": "single-audio", "trial_index": 32, "time_elapsed": 111368, "internal_node_id": "0.0-23.0"}}, {"uniqueid": "MTK0211:3IJXV6UZ1YQ3NTMR717PMVLOTUVRIX", "current_trial": 148, "dateTime": 1509550438751, "trialdata": {"rt": -1000, "stimulus": "/static/audio/wordpool/OMELET.wav", "key_press": -1, "type": "PRES_AUD", "word": "omelet", "wordID": 975, "conditions": [18, 1200, "a", 18000], "trial": 0, "serialpos": 12, "trial_type": "single-audio", "trial_index": 33, "time_elapsed": 113421, "internal_node_id": "0.0-24.0"}}, {"uniqueid": "MTK0211:3IJXV6UZ1YQ3NTMR717PMVLOTUVRIX", "current_trial": 149, "dateTime": 1509550440872, "trialdata": {"rt": -1000, "stimulus": "/static/audio/wordpool/PANTHER.wav", "key_press": -1, "type": "PRES_AUD", "word": "panther", "wordID": 1008, "conditions": [18, 1200, "a", 18000], "trial": 0, "serialpos": 13, "trial_type": "single-audio", "trial_index": 34, "time_elapsed": 115542, "internal_node_id": "0.0-25.0"}}, {"uniqueid": "MTK0211:3IJXV6UZ1YQ3NTMR717PMVLOTUVRIX", "current_trial": 150, "dateTime": 1509550443202, "trialdata": {"rt": -1000, "stimulus": "/static/audio/wordpool/TWIG.wav", "key_press": -1, "type": "PRES_AUD", "word": "twig", "wordID": 1526, "conditions": [18, 1200, "a", 18000], "trial": 0, "serialpos": 14, "trial_type": "single-audio", "trial_index": 35, "time_elapsed": 117871, "internal_node_id": "0.0-26.0"}}, {"uniqueid": "MTK0211:3IJXV6UZ1YQ3NTMR717PMVLOTUVRIX", "current_trial": 151, "dateTime": 1509550445216, "trialdata": {"rt": -1000, "stimulus": "/static/audio/wordpool/COD.wav", "key_press": -1, "type": "PRES_AUD", "word": "cod", "wordID": 339, "conditions": [18, 1200, "a", 18000], "trial": 0, "serialpos": 15, "trial_type": "single-audio", "trial_index": 36, "time_elapsed": 119886, "internal_node_id": "0.0-27.0"}}, {"uniqueid": "MTK0211:3IJXV6UZ1YQ3NTMR717PMVLOTUVRIX", "current_trial": 152, "dateTime": 1509550447570, "trialdata": {"rt": -1000, "stimulus": "/static/audio/wordpool/BODY.wav", "key_press": -1, "type": "PRES_AUD", "word": "body", "wordID": 144, "conditions": [18, 1200, "a", 18000], "trial": 0, "serialpos": 16, "trial_type": "single-audio", "trial_index": 37, "time_elapsed": 122240, "internal_node_id": "0.0-28.0"}}, {"uniqueid": "MTK0211:3IJXV6UZ1YQ3NTMR717PMVLOTUVRIX", "current_trial": 153, "dateTime": 1509550449806, "trialdata": {"rt": -1000, "stimulus": "/static/audio/wordpool/GYMNAST.wav", "key_press": -1, "type": "PRES_AUD", "word": "gymnast", "wordID": 674, "conditions": [18, 1200, "a", 18000], "trial": 0, "serialpos": 17, "trial_type": "single-audio", "trial_index": 38, "time_elapsed": 124476, "internal_node_id": "0.0-29.0"}}, {"uniqueid": "MTK0211:3IJXV6UZ1YQ3NTMR717PMVLOTUVRIX", "current_trial": 154, "dateTime": 1509550451082, "trialdata": {"rt": -1, "stimulus": "", "key_press": -1, "type": "PRE_RECALL_DELAY", "trial_type": "single-stim", "trial_index": 39, "time_elapsed": 125751, "internal_node_id": "0.0-30.0-0.0"}}, {"uniqueid": "MTK0211:3IJXV6UZ1YQ3NTMR717PMVLOTUVRIX", "current_trial": 155, "dateTime": 1509550451583, "trialdata": {"rt": -1000, "stimulus": "/static/audio/400Hz.wav", "key_press": -1, "type": "PRE_RECALL_ALERT", "trial_type": "single-audio", "trial_index": 40, "time_elapsed": 126253, "internal_node_id": "0.0-31.0"}}, {"uniqueid": "MTK0211:3IJXV6UZ1YQ3NTMR717PMVLOTUVRIX", "current_trial": 156, "dateTime": 1509550511598, "trialdata": {"rt": [3296, 4669, 7616, 9889, 17396, 40874, 50144], "recwords": ["gymnast", "panther", "banjo", "cod", "hedge", "lily", "garden"], "type": "FREE_RECALL", "conditions": [18, 1200, "a", 18000], "trial": 0, "trial_type": "free-recall", "trial_index": 41, "time_elapsed": 186261, "internal_node_id": "0.0-32.0-0.0"}}, {"uniqueid": "MTK0211:3IJXV6UZ1YQ3NTMR717PMVLOTUVRIX", "current_trial": 157, "dateTime": 1509550519001, "trialdata": {"rt": 5399, "key_press": 13, "type": "INSTRUCTIONS", "trial_type": "text", "trial_index": 42, "time_elapsed": 193670, "internal_node_id": "0.0-33.0"}}, {"uniqueid": "MTK0211:3IJXV6UZ1YQ3NTMR717PMVLOTUVRIX", "current_trial": 158, "dateTime": 1509550539006, "trialdata": {"rt": [4420, 7328, 9030, 11878, 13755, 16108, 17907], "responses": ["11", "22", "18", "20", "13", "17", "8"], "num1": [4, 8, 8, 9, 9, 5, 2, 8], "num2": [3, 5, 8, 8, 1, 5, 2, 8], "num3": [4, 9, 2, 3, 3, 7, 4, 5], "type": "DISTRACTOR", "conditions": [18, 1200, "v", 18000], "trial": 1, "trial_type": "math-distractor", "trial_index": 43, "time_elapsed": 213676, "internal_node_id": "0.0-34.0"}}, {"uniqueid": "MTK0211:3IJXV6UZ1YQ3NTMR717PMVLOTUVRIX", "current_trial": 159, "dateTime": 1509550542008, "trialdata": {"rt": -1, "stimulus": "<p id=\"stim\">10</p>", "key_press": -1, "trial_type": "single-stim", "trial_index": 44, "time_elapsed": 216678, "internal_node_id": "0.0-35.0-0.0"}}, {"uniqueid": "MTK0211:3IJXV6UZ1YQ3NTMR717PMVLOTUVRIX", "current_trial": 160, "dateTime": 1509550543009, "trialdata": {"rt": -1, "stimulus": "<p id=\"stim\">9</p>", "key_press": -1, "trial_type": "single-stim", "trial_index": 45, "time_elapsed": 217679, "internal_node_id": "0.0-35.0-1.0"}}, {"uniqueid": "MTK0211:3IJXV6UZ1YQ3NTMR717PMVLOTUVRIX", "current_trial": 161, "dateTime": 1509550544011, "trialdata": {"rt": -1, "stimulus": "<p id=\"stim\">8</p>", "key_press": -1, "trial_type": "single-stim", "trial_index": 46, "time_elapsed": 218681, "internal_node_id": "0.0-35.0-2.0"}}, {"uniqueid": "MTK0211:3IJXV6UZ1YQ3NTMR717PMVLOTUVRIX", "current_trial": 162, "dateTime": 1509550545013, "trialdata": {"rt": -1, "stimulus": "<p id=\"stim\">7</p>", "key_press": -1, "trial_type": "single-stim", "trial_index": 47, "time_elapsed": 219683, "internal_node_id": "0.0-35.0-3.0"}}, {"uniqueid": "MTK0211:3IJXV6UZ1YQ3NTMR717PMVLOTUVRIX", "current_trial": 163, "dateTime": 1509550546015, "trialdata": {"rt": -1, "stimulus": "<p id=\"stim\">6</p>", "key_press": -1, "trial_type": "single-stim", "trial_index": 48, "time_elapsed": 220685, "internal_node_id": "0.0-35.0-4.0"}}, {"uniqueid": "MTK0211:3IJXV6UZ1YQ3NTMR717PMVLOTUVRIX", "current_trial": 164, "dateTime": 1509550547017, "trialdata": {"rt": -1, "stimulus": "<p id=\"stim\">5</p>", "key_press": -1, "trial_type": "single-stim", "trial_index": 49, "time_elapsed": 221687, "internal_node_id": "0.0-35.0-5.0"}}, {"uniqueid": "MTK0211:3IJXV6UZ1YQ3NTMR717PMVLOTUVRIX", "current_trial": 165, "dateTime": 1509550548019, "trialdata": {"rt": -1, "stimulus": "<p id=\"stim\">4</p>", "key_press": -1, "trial_type": "single-stim", "trial_index": 50, "time_elapsed": 222689, "internal_node_id": "0.0-35.0-6.0"}}, {"uniqueid": "MTK0211:3IJXV6UZ1YQ3NTMR717PMVLOTUVRIX", "current_trial": 166, "dateTime": 1509550549021, "trialdata": {"rt": -1, "stimulus": "<p id=\"stim\">3</p>", "key_press": -1, "trial_type": "single-stim", "trial_index": 51, "time_elapsed": 223691, "internal_node_id": "0.0-35.0-7.0"}}, {"uniqueid": "MTK0211:3IJXV6UZ1YQ3NTMR717PMVLOTUVRIX", "current_trial": 167, "dateTime": 1509550550023, "trialdata": {"rt": -1, "stimulus": "<p id=\"stim\">2</p>", "key_press": -1, "trial_type": "single-stim", "trial_index": 52, "time_elapsed": 224693, "internal_node_id": "0.0-35.0-8.0"}}, {"uniqueid": "MTK0211:3IJXV6UZ1YQ3NTMR717PMVLOTUVRIX", "current_trial": 168, "dateTime": 1509550551026, "trialdata": {"rt": -1, "stimulus": "<p id=\"stim\">1</p>", "key_press": -1, "trial_type": "single-stim", "trial_index": 53, "time_elapsed": 225695, "internal_node_id": "0.0-35.0-9.0"}}, {"uniqueid": "MTK0211:3IJXV6UZ1YQ3NTMR717PMVLOTUVRIX", "current_trial": 169, "dateTime": 1509550552527, "trialdata": {"rt": -1, "stimulus": "<p id=\"stim\">+</p>", "key_press": -1, "type": "FIXATION", "trial_type": "single-stim", "trial_index": 54, "time_elapsed": 227197, "internal_node_id": "0.0-36.0-0.0"}}, {"uniqueid": "MTK0211:3IJXV6UZ1YQ3NTMR717PMVLOTUVRIX", "current_trial": 170, "dateTime": 1509550553730, "trialdata": {"rt": -1, "stimulus": "<p id=\"stim\">HORNET</p>", "key_press": -1, "type": "PRES_VIS", "word": "hornet", "wordID": 717, "conditions": [18, 1200, "v", 18000], "trial": 1, "serialpos": 0, "trial_type": "single-stim", "trial_index": 55, "time_elapsed": 228400, "internal_node_id": "0.0-37.0"}}, {"uniqueid": "MTK0211:3IJXV6UZ1YQ3NTMR717PMVLOTUVRIX", "current_trial": 171, "dateTime": 1509550555815, "trialdata": {"rt": -1, "stimulus": "<p id=\"stim\">ROOSTER</p>", "key_press": -1, "type": "PRES_VIS", "word": "rooster", "wordID": 1208, "conditions": [18, 1200, "v", 18000], "trial": 1, "serialpos": 1, "trial_type": "single-stim", "trial_index": 56, "time_elapsed": 230485, "internal_node_id": "0.0-38.0"}}, {"uniqueid": "MTK0211:3IJXV6UZ1YQ3NTMR717PMVLOTUVRIX", "current_trial": 172, "dateTime": 1509550557842, "trialdata": {"rt": -1, "stimulus": "<p id=\"stim\">TWISTER</p>", "key_press": -1, "type": "PRES_VIS", "word": "twister", "wordID": 1529, "conditions": [18, 1200, "v", 18000], "trial": 1, "serialpos": 2, "trial_type": "single-stim", "trial_index": 57, "time_elapsed": 232512, "internal_node_id": "0.0-39.0"}}, {"uniqueid": "MTK0211:3IJXV6UZ1YQ3NTMR717PMVLOTUVRIX", "current_trial": 173, "dateTime": 1509550559938, "trialdata": {"rt": -1, "stimulus": "<p id=\"stim\">PILOT</p>", "key_press": -1, "type": "PRES_VIS", "word": "pilot", "wordID": 1069, "conditions": [18, 1200, "v", 18000], "trial": 1, "serialpos": 3, "trial_type": "single-stim", "trial_index": 58, "time_elapsed": 234608, "internal_node_id": "0.0-40.0"}}, {"uniqueid": "MTK0211:3IJXV6UZ1YQ3NTMR717PMVLOTUVRIX", "current_trial": 174, "dateTime": 1509550562015, "trialdata": {"rt": -1, "stimulus": "<p id=\"stim\">FRANCE</p>", "key_press": -1, "type": "PRES_VIS", "word": "france", "wordID": 600, "conditions": [18, 1200, "v", 18000], "trial": 1, "serialpos": 4, "trial_type": "single-stim", "trial_index": 59, "time_elapsed": 236685, "internal_node_id": "0.0-41.0"}}, {"uniqueid": "MTK0211:3IJXV6UZ1YQ3NTMR717PMVLOTUVRIX", "current_trial": 175, "dateTime": 1509550564163, "trialdata": {"rt": -1, "stimulus": "<p id=\"stim\">COUCH</p>", "key_press": -1, "type": "PRES_VIS", "word": "couch", "wordID": 385, "conditions": [18, 1200, "v", 18000], "trial": 1, "serialpos": 5, "trial_type": "single-stim", "trial_index": 60, "time_elapsed": 238833, "internal_node_id": "0.0-42.0"}}, {"uniqueid": "MTK0211:3IJXV6UZ1YQ3NTMR717PMVLOTUVRIX", "current_trial": 176, "dateTime": 1509550566304, "trialdata": {"rt": -1, "stimulus": "<p id=\"stim\">FLASK</p>", "key_press": -1, "type": "PRES_VIS", "word": "flask", "wordID": 575, "conditions": [18, 1200, "v", 18000], "trial": 1, "serialpos": 6, "trial_type": "single-stim", "trial_index": 61, "time_elapsed": 240974, "internal_node_id": "0.0-43.0"}}, {"uniqueid": "MTK0211:3IJXV6UZ1YQ3NTMR717PMVLOTUVRIX", "current_trial": 177, "dateTime": 1509550568585, "trialdata": {"rt": -1, "stimulus": "<p id=\"stim\">PARROT</p>", "key_press": -1, "type": "PRES_VIS", "word": "parrot", "wordID": 1014, "conditions": [18, 1200, "v", 18000], "trial": 1, "serialpos": 7, "trial_type": "single-stim", "trial_index": 62, "time_elapsed": 243255, "internal_node_id": "0.0-44.0"}}, {"uniqueid": "MTK0211:3IJXV6UZ1YQ3NTMR717PMVLOTUVRIX", "current_trial": 178, "dateTime": 1509550570769, "trialdata": {"rt": -1, "stimulus": "<p id=\"stim\">SIBLING</p>", "key_press": -1, "type": "PRES_VIS", "word": "sibling", "wordID": 1300, "conditions": [18, 1200, "v", 18000], "trial": 1, "serialpos": 8, "trial_type": "single-stim", "trial_index": 63, "time_elapsed": 245439, "internal_node_id": "0.0-45.0"}}, {"uniqueid": "MTK0211:3IJXV6UZ1YQ3NTMR717PMVLOTUVRIX", "current_trial": 179, "dateTime": 1509550573112, "trialdata": {"rt": -1, "stimulus": "<p id=\"stim\">CHEMIST</p>", "key_press": -1, "type": "PRES_VIS", "word": "chemist", "wordID": 291, "conditions": [18, 1200, "v", 18000], "trial": 1, "serialpos": 9, "trial_type": "single-stim", "trial_index": 64, "time_elapsed": 247782, "internal_node_id": "0.0-46.0"}}, {"uniqueid": "MTK0211:3IJXV6UZ1YQ3NTMR717PMVLOTUVRIX", "current_trial": 180, "dateTime": 1509550575406, "trialdata": {"rt": -1, "stimulus": "<p id=\"stim\">PREACHER</p>", "key_press": -1, "type": "PRES_VIS", "word": "preacher", "wordID": 1118, "conditions": [18, 1200, "v", 18000], "trial": 1, "serialpos": 10, "trial_type": "single-stim", "trial_index": 65, "time_elapsed": 250076, "internal_node_id": "0.0-47.0"}}, {"uniqueid": "MTK0211:3IJXV6UZ1YQ3NTMR717PMVLOTUVRIX", "current_trial": 181, "dateTime": 1509550577413, "trialdata": {"rt": -1, "stimulus": "<p id=\"stim\">HARP</p>", "key_press": -1, "type": "PRES_VIS", "word": "harp", "wordID": 688, "conditions": [18, 1200, "v", 18000], "trial": 1, "serialpos": 11, "trial_type": "single-stim", "trial_index": 66, "time_elapsed": 252083, "internal_node_id": "0.0-48.0"}}, {"uniqueid": "MTK0211:3IJXV6UZ1YQ3NTMR717PMVLOTUVRIX", "current_trial": 182, "dateTime": 1509550579481, "trialdata": {"rt": -1, "stimulus": "<p id=\"stim\">MISTER</p>", "key_press": -1, "type": "PRES_VIS", "word": "mister", "wordID": 900, "conditions": [18, 1200, "v", 18000], "trial": 1, "serialpos": 12, "trial_type": "single-stim", "trial_index": 67, "time_elapsed": 254151, "internal_node_id": "0.0-49.0"}}, {"uniqueid": "MTK0211:3IJXV6UZ1YQ3NTMR717PMVLOTUVRIX", "current_trial": 183, "dateTime": 1509550581572, "trialdata": {"rt": -1, "stimulus": "<p id=\"stim\">PEACH</p>", "key_press": -1, "type": "PRES_VIS", "word": "peach", "wordID": 1030, "conditions": [18, 1200, "v", 18000], "trial": 1, "serialpos": 13, "trial_type": "single-stim", "trial_index": 68, "time_elapsed": 256238, "internal_node_id": "0.0-50.0"}}, {"uniqueid": "MTK0211:3IJXV6UZ1YQ3NTMR717PMVLOTUVRIX", "current_trial": 184, "dateTime": 1509550583901, "trialdata": {"rt": -1, "stimulus": "<p id=\"stim\">COTTAGE</p>", "key_press": -1, "type": "PRES_VIS", "word": "cottage", "wordID": 383, "conditions": [18, 1200, "v", 18000], "trial": 1, "serialpos": 14, "trial_type": "single-stim", "trial_index": 69, "time_elapsed": 258570, "internal_node_id": "0.0-51.0"}}, {"uniqueid": "MTK0211:3IJXV6UZ1YQ3NTMR717PMVLOTUVRIX", "current_trial": 185, "dateTime": 1509550586295, "trialdata": {"rt": -1, "stimulus": "<p id=\"stim\">HOSTESS</p>", "key_press": -1, "type": "PRES_VIS", "word": "hostess", "wordID": 722, "conditions": [18, 1200, "v", 18000], "trial": 1, "serialpos": 15, "trial_type": "single-stim", "trial_index": 70, "time_elapsed": 260965, "internal_node_id": "0.0-52.0"}}, {"uniqueid": "MTK0211:3IJXV6UZ1YQ3NTMR717PMVLOTUVRIX", "current_trial": 186, "dateTime": 1509550588507, "trialdata": {"rt": -1, "stimulus": "<p id=\"stim\">PENGUIN</p>", "key_press": -1, "type": "PRES_VIS", "word": "penguin", "wordID": 1043, "conditions": [18, 1200, "v", 18000], "trial": 1, "serialpos": 16, "trial_type": "single-stim", "trial_index": 71, "time_elapsed": 263176, "internal_node_id": "0.0-53.0"}}, {"uniqueid": "MTK0211:3IJXV6UZ1YQ3NTMR717PMVLOTUVRIX", "current_trial": 187, "dateTime": 1509550590836, "trialdata": {"rt": -1, "stimulus": "<p id=\"stim\">TREAT</p>", "key_press": -1, "type": "PRES_VIS", "word": "treat", "wordID": 1500, "conditions": [18, 1200, "v", 18000], "trial": 1, "serialpos": 17, "trial_type": "single-stim", "trial_index": 72, "time_elapsed": 265505, "internal_node_id": "0.0-54.0"}}, {"uniqueid": "MTK0211:3IJXV6UZ1YQ3NTMR717PMVLOTUVRIX", "current_trial": 188, "dateTime": 1509550593053, "trialdata": {"rt": -1, "stimulus": "", "key_press": -1, "type": "PRE_RECALL_DELAY", "trial_type": "single-stim", "trial_index": 73, "time_elapsed": 267722, "internal_node_id": "0.0-55.0-0.0"}}, {"uniqueid": "MTK0211:3IJXV6UZ1YQ3NTMR717PMVLOTUVRIX", "current_trial": 189, "dateTime": 1509550593554, "trialdata": {"rt": -1000, "stimulus": "/static/audio/400Hz.wav", "key_press": -1, "type": "PRE_RECALL_ALERT", "trial_type": "single-audio", "trial_index": 74, "time_elapsed": 268224, "internal_node_id": "0.0-56.0"}}, {"uniqueid": "MTK0211:3IJXV6UZ1YQ3NTMR717PMVLOTUVRIX", "current_trial": 190, "dateTime": 1509550653567, "trialdata": {"rt": [2972, 4961, 11052, 13700, 17767, 19354, 35631, 44831], "recwords": ["hornet", "hedge", "mister", "sister", "brother", "mother", "peach", "pasta"], "type": "FREE_RECALL", "conditions": [18, 1200, "v", 18000], "trial": 1, "trial_type": "free-recall", "trial_index": 75, "time_elapsed": 328231, "internal_node_id": "0.0-57.0-0.0"}}, {"uniqueid": "MTK0211:3IJXV6UZ1YQ3NTMR717PMVLOTUVRIX", "current_trial": 191, "dateTime": 1509550657100, "trialdata": {"rt": 1531, "key_press": 32, "type": "INSTRUCTIONS", "trial_type": "text", "trial_index": 76, "time_elapsed": 331770, "internal_node_id": "0.0-58.0"}}, {"uniqueid": "MTK0211:3IJXV6UZ1YQ3NTMR717PMVLOTUVRIX", "current_trial": 192, "dateTime": 1509550670107, "trialdata": {"rt": [1789, 4047, 5517, 6917, 9216, 11301], "responses": ["13", "13", "11", "15", "11", "15"], "num1": [4, 5, 4, 1, 2, 2, 4], "num2": [6, 6, 1, 7, 3, 5, 6], "num3": [3, 2, 6, 7, 6, 8, 6], "type": "DISTRACTOR", "conditions": [24, 800, "a", 12000], "trial": 2, "trial_type": "math-distractor", "trial_index": 77, "time_elapsed": 344777, "internal_node_id": "0.0-59.0"}}, {"uniqueid": "MTK0211:3IJXV6UZ1YQ3NTMR717PMVLOTUVRIX", "current_trial": 193, "dateTime": 1509550673109, "trialdata": {"rt": -1, "stimulus": "<p id=\"stim\">10</p>", "key_press": -1, "trial_type": "single-stim", "trial_index": 78, "time_elapsed": 347779, "internal_node_id": "0.0-60.0-0.0"}}, {"uniqueid": "MTK0211:3IJXV6UZ1YQ3NTMR717PMVLOTUVRIX", "current_trial": 194, "dateTime": 1509550674111, "trialdata": {"rt": -1, "stimulus": "<p id=\"stim\">9</p>", "key_press": -1, "trial_type": "single-stim", "trial_index": 79, "time_elapsed": 348780, "internal_node_id": "0.0-60.0-1.0"}}, {"uniqueid": "MTK0211:3IJXV6UZ1YQ3NTMR717PMVLOTUVRIX", "current_trial": 195, "dateTime": 1509550675112, "trialdata": {"rt": -1, "stimulus": "<p id=\"stim\">8</p>", "key_press": -1, "trial_type": "single-stim", "trial_index": 80, "time_elapsed": 349782, "internal_node_id": "0.0-60.0-2.0"}}, {"uniqueid": "MTK0211:3IJXV6UZ1YQ3NTMR717PMVLOTUVRIX", "current_trial": 196, "dateTime": 1509550676115, "trialdata": {"rt": -1, "stimulus": "<p id=\"stim\">7</p>", "key_press": -1, "trial_type": "single-stim", "trial_index": 81, "time_elapsed": 350785, "internal_node_id": "0.0-60.0-3.0"}}, {"uniqueid": "MTK0211:3IJXV6UZ1YQ3NTMR717PMVLOTUVRIX", "current_trial": 197, "dateTime": 1509550677117, "trialdata": {"rt": -1, "stimulus": "<p id=\"stim\">6</p>", "key_press": -1, "trial_type": "single-stim", "trial_index": 82, "time_elapsed": 351787, "internal_node_id": "0.0-60.0-4.0"}}, {"uniqueid": "MTK0211:3IJXV6UZ1YQ3NTMR717PMVLOTUVRIX", "current_trial": 198, "dateTime": 1509550678118, "trialdata": {"rt": -1, "stimulus": "<p id=\"stim\">5</p>", "key_press": -1, "trial_type": "single-stim", "trial_index": 83, "time_elapsed": 352788, "internal_node_id": "0.0-60.0-5.0"}}, {"uniqueid": "MTK0211:3IJXV6UZ1YQ3NTMR717PMVLOTUVRIX", "current_trial": 199, "dateTime": 1509550679120, "trialdata": {"rt": -1, "stimulus": "<p id=\"stim\">4</p>", "key_press": -1, "trial_type": "single-stim", "trial_index": 84, "time_elapsed": 353790, "internal_node_id": "0.0-60.0-6.0"}}, {"uniqueid": "MTK0211:3IJXV6UZ1YQ3NTMR717PMVLOTUVRIX", "current_trial": 200, "dateTime": 1509550680122, "trialdata": {"rt": -1, "stimulus": "<p id=\"stim\">3</p>", "key_press": -1, "trial_type": "single-stim", "trial_index": 85, "time_elapsed": 354792, "internal_node_id": "0.0-60.0-7.0"}}, {"uniqueid": "MTK0211:3IJXV6UZ1YQ3NTMR717PMVLOTUVRIX", "current_trial": 201, "dateTime": 1509550681124, "trialdata": {"rt": -1, "stimulus": "<p id=\"stim\">2</p>", "key_press": -1, "trial_type": "single-stim", "trial_index": 86, "time_elapsed": 355794, "internal_node_id": "0.0-60.0-8.0"}}, {"uniqueid": "MTK0211:3IJXV6UZ1YQ3NTMR717PMVLOTUVRIX", "current_trial": 202, "dateTime": 1509550682125, "trialdata": {"rt": -1, "stimulus": "<p id=\"stim\">1</p>", "key_press": -1, "trial_type": "single-stim", "trial_index": 87, "time_elapsed": 356795, "internal_node_id": "0.0-60.0-9.0"}}, {"uniqueid": "MTK0211:3IJXV6UZ1YQ3NTMR717PMVLOTUVRIX", "current_trial": 203, "dateTime": 1509550683627, "trialdata": {"rt": -1, "stimulus": "<p id=\"stim\">+</p>", "key_press": -1, "type": "FIXATION", "trial_type": "single-stim", "trial_index": 88, "time_elapsed": 358297, "internal_node_id": "0.0-61.0-0.0"}}, {"uniqueid": "MTK0211:3IJXV6UZ1YQ3NTMR717PMVLOTUVRIX", "current_trial": 204, "dateTime": 1509550685416, "trialdata": {"rt": -1000, "stimulus": "/static/audio/wordpool/SUITCASE.wav", "key_press": -1, "type": "PRES_AUD", "word": "suitcase", "wordID": 1402, "conditions": [24, 800, "a", 12000], "trial": 2, "serialpos": 0, "trial_type": "single-audio", "trial_index": 89, "time_elapsed": 360086, "internal_node_id": "0.0-62.0"}}, {"uniqueid": "MTK0211:3IJXV6UZ1YQ3NTMR717PMVLOTUVRIX", "current_trial": 205, "dateTime": 1509550687274, "trialdata": {"rt": -1000, "stimulus": "/static/audio/wordpool/CREATURE.wav", "key_press": -1, "type": "PRES_AUD", "word": "creature", "wordID": 402, "conditions": [24, 800, "a", 12000], "trial": 2, "serialpos": 1, "trial_type": "single-audio", "trial_index": 90, "time_elapsed": 361944, "internal_node_id": "0.0-63.0"}}, {"uniqueid": "MTK0211:3IJXV6UZ1YQ3NTMR717PMVLOTUVRIX", "current_trial": 206, "dateTime": 1509550689196, "trialdata": {"rt": -1000, "stimulus": "/static/audio/wordpool/MAMMAL.wav", "key_press": -1, "type": "PRES_AUD", "word": "mammal", "wordID": 860, "conditions": [24, 800, "a", 12000], "trial": 2, "serialpos": 2, "trial_type": "single-audio", "trial_index": 91, "time_elapsed": 363866, "internal_node_id": "0.0-64.0"}}, {"uniqueid": "MTK0211:3IJXV6UZ1YQ3NTMR717PMVLOTUVRIX", "current_trial": 207, "dateTime": 1509550690852, "trialdata": {"rt": -1000, "stimulus": "/static/audio/wordpool/BANKER.wav", "key_press": -1, "type": "PRES_AUD", "word": "banker", "wordID": 83, "conditions": [24, 800, "a", 12000], "trial": 2, "serialpos": 3, "trial_type": "single-audio", "trial_index": 92, "time_elapsed": 365522, "internal_node_id": "0.0-65.0"}}, {"uniqueid": "MTK0211:3IJXV6UZ1YQ3NTMR717PMVLOTUVRIX", "current_trial": 208, "dateTime": 1509550692759, "trialdata": {"rt": -1000, "stimulus": "/static/audio/wordpool/ANTLER.wav", "key_press": -1, "type": "PRES_AUD", "word": "antler", "wordID": 28, "conditions": [24, 800, "a", 12000], "trial": 2, "serialpos": 4, "trial_type": "single-audio", "trial_index": 93, "time_elapsed": 367429, "internal_node_id": "0.0-66.0"}}, {"uniqueid": "MTK0211:3IJXV6UZ1YQ3NTMR717PMVLOTUVRIX", "current_trial": 209, "dateTime": 1509550694724, "trialdata": {"rt": -1000, "stimulus": "/static/audio/wordpool/COUSIN.wav", "key_press": -1, "type": "PRES_AUD", "word": "cousin", "wordID": 391, "conditions": [24, 800, "a", 12000], "trial": 2, "serialpos": 5, "trial_type": "single-audio", "trial_index": 94, "time_elapsed": 369394, "internal_node_id": "0.0-67.0"}}, {"uniqueid": "MTK0211:3IJXV6UZ1YQ3NTMR717PMVLOTUVRIX", "current_trial": 210, "dateTime": 1509550696606, "trialdata": {"rt": -1000, "stimulus": "/static/audio/wordpool/LODGE.wav", "key_press": -1, "type": "PRES_AUD", "word": "lodge", "wordID": 838, "conditions": [24, 800, "a", 12000], "trial": 2, "serialpos": 6, "trial_type": "single-audio", "trial_index": 95, "time_elapsed": 371274, "internal_node_id": "0.0-68.0"}}, {"uniqueid": "MTK0211:3IJXV6UZ1YQ3NTMR717PMVLOTUVRIX", "current_trial": 211, "dateTime": 1509550698266, "trialdata": {"rt": -1000, "stimulus": "/static/audio/wordpool/LOFT.wav", "key_press": -1, "type": "PRES_AUD", "word": "loft", "wordID": 839, "conditions": [24, 800, "a", 12000], "trial": 2, "serialpos": 7, "trial_type": "single-audio", "trial_index": 96, "time_elapsed": 372936, "internal_node_id": "0.0-69.0"}}, {"uniqueid": "MTK0211:3IJXV6UZ1YQ3NTMR717PMVLOTUVRIX", "current_trial": 212, "dateTime": 1509550700148, "trialdata": {"rt": -1000, "stimulus": "/static/audio/wordpool/LEOPARD.wav", "key_press": -1, "type": "PRES_AUD", "word": "leopard", "wordID": 811, "conditions": [24, 800, "a", 12000], "trial": 2, "serialpos": 8, "trial_type": "single-audio", "trial_index": 97, "time_elapsed": 374818, "internal_node_id": "0.0-70.0"}}, {"uniqueid": "MTK0211:3IJXV6UZ1YQ3NTMR717PMVLOTUVRIX", "current_trial": 213, "dateTime": 1509550701797, "trialdata": {"rt": -1000, "stimulus": "/static/audio/wordpool/SAUSAGE.wav", "key_press": -1, "type": "PRES_AUD", "word": "sausage", "wordID": 1237, "conditions": [24, 800, "a", 12000], "trial": 2, "serialpos": 9, "trial_type": "single-audio", "trial_index": 98, "time_elapsed": 376467, "internal_node_id": "0.0-71.0"}}, {"uniqueid": "MTK0211:3IJXV6UZ1YQ3NTMR717PMVLOTUVRIX", "current_trial": 214, "dateTime": 1509550703735, "trialdata": {"rt": -1000, "stimulus": "/static/audio/wordpool/MONSTER.wav", "key_press": -1, "type": "PRES_AUD", "word": "monster", "wordID": 911, "conditions": [24, 800, "a", 12000], "trial": 2, "serialpos": 10, "trial_type": "single-audio", "trial_index": 99, "time_elapsed": 378405, "internal_node_id": "0.0-72.0"}}, {"uniqueid": "MTK0211:3IJXV6UZ1YQ3NTMR717PMVLOTUVRIX", "current_trial": 215, "dateTime": 1509550705501, "trialdata": {"rt": -1000, "stimulus": "/static/audio/wordpool/BROTHER.wav", "key_press": -1, "type": "PRES_AUD", "word": "brother", "wordID": 178, "conditions": [24, 800, "a", 12000], "trial": 2, "serialpos": 11, "trial_type": "single-audio", "trial_index": 100, "time_elapsed": 380171, "internal_node_id": "0.0-73.0"}}, {"uniqueid": "MTK0211:3IJXV6UZ1YQ3NTMR717PMVLOTUVRIX", "current_trial": 216, "dateTime": 1509550707368, "trialdata": {"rt": -1000, "stimulus": "/static/audio/wordpool/DRESS.wav", "key_press": -1, "type": "PRES_AUD", "word": "dress", "wordID": 494, "conditions": [24, 800, "a", 12000], "trial": 2, "serialpos": 12, "trial_type": "single-audio", "trial_index": 101, "time_elapsed": 382038, "internal_node_id": "0.0-74.0"}}, {"uniqueid": "MTK0211:3IJXV6UZ1YQ3NTMR717PMVLOTUVRIX", "current_trial": 217, "dateTime": 1509550709272, "trialdata": {"rt": -1000, "stimulus": "/static/audio/wordpool/TERMITE.wav", "key_press": -1, "type": "PRES_AUD", "word": "termite", "wordID": 1450, "conditions": [24, 800, "a", 12000], "trial": 2, "serialpos": 13, "trial_type": "single-audio", "trial_index": 102, "time_elapsed": 383942, "internal_node_id": "0.0-75.0"}}, {"uniqueid": "MTK0211:3IJXV6UZ1YQ3NTMR717PMVLOTUVRIX", "current_trial": 218, "dateTime": 1509550711139, "trialdata": {"rt": -1000, "stimulus": "/static/audio/wordpool/CRIB.wav", "key_press": -1, "type": "PRES_AUD", "word": "crib", "wordID": 406, "conditions": [24, 800, "a", 12000], "trial": 2, "serialpos": 14, "trial_type": "single-audio", "trial_index": 103, "time_elapsed": 385809, "internal_node_id": "0.0-76.0"}}, {"uniqueid": "MTK0211:3IJXV6UZ1YQ3NTMR717PMVLOTUVRIX", "current_trial": 219, "dateTime": 1509550712911, "trialdata": {"rt": -1000, "stimulus": "/static/audio/wordpool/MATTRESS.wav", "key_press": -1, "type": "PRES_AUD", "word": "mattress", "wordID": 878, "conditions": [24, 800, "a", 12000], "trial": 2, "serialpos": 15, "trial_type": "single-audio", "trial_index": 104, "time_elapsed": 387581, "internal_node_id": "0.0-77.0"}}, {"uniqueid": "MTK0211:3IJXV6UZ1YQ3NTMR717PMVLOTUVRIX", "current_trial": 220, "dateTime": 1509550714539, "trialdata": {"rt": -1000, "stimulus": "/static/audio/wordpool/LACE.wav", "key_press": -1, "type": "PRES_AUD", "word": "lace", "wordID": 791, "conditions": [24, 800, "a", 12000], "trial": 2, "serialpos": 16, "trial_type": "single-audio", "trial_index": 105, "time_elapsed": 389209, "internal_node_id": "0.0-78.0"}}, {"uniqueid": "MTK0211:3IJXV6UZ1YQ3NTMR717PMVLOTUVRIX", "current_trial": 221, "dateTime": 1509550716483, "trialdata": {"rt": -1000, "stimulus": "/static/audio/wordpool/LIPSTICK.wav", "key_press": -1, "type": "PRES_AUD", "word": "lipstick", "wordID": 828, "conditions": [24, 800, "a", 12000], "trial": 2, "serialpos": 17, "trial_type": "single-audio", "trial_index": 106, "time_elapsed": 391153, "internal_node_id": "0.0-79.0"}}, {"uniqueid": "MTK0211:3IJXV6UZ1YQ3NTMR717PMVLOTUVRIX", "current_trial": 222, "dateTime": 1509550718451, "trialdata": {"rt": -1000, "stimulus": "/static/audio/wordpool/PLAID.wav", "key_press": -1, "type": "PRES_AUD", "word": "plaid", "wordID": 1079, "conditions": [24, 800, "a", 12000], "trial": 2, "serialpos": 18, "trial_type": "single-audio", "trial_index": 107, "time_elapsed": 393121, "internal_node_id": "0.0-80.0"}}, {"uniqueid": "MTK0211:3IJXV6UZ1YQ3NTMR717PMVLOTUVRIX", "current_trial": 223, "dateTime": 1509550720288, "trialdata": {"rt": -1000, "stimulus": "/static/audio/wordpool/FARMER.wav", "key_press": -1, "type": "PRES_AUD", "word": "farmer", "wordID": 552, "conditions": [24, 800, "a", 12000], "trial": 2, "serialpos": 19, "trial_type": "single-audio", "trial_index": 108, "time_elapsed": 394958, "internal_node_id": "0.0-81.0"}}, {"uniqueid": "MTK0211:3IJXV6UZ1YQ3NTMR717PMVLOTUVRIX", "current_trial": 224, "dateTime": 1509550721925, "trialdata": {"rt": -1000, "stimulus": "/static/audio/wordpool/BEAVER.wav", "key_press": -1, "type": "PRES_AUD", "word": "beaver", "wordID": 108, "conditions": [24, 800, "a", 12000], "trial": 2, "serialpos": 20, "trial_type": "single-audio", "trial_index": 109, "time_elapsed": 396595, "internal_node_id": "0.0-82.0"}}, {"uniqueid": "MTK0211:3IJXV6UZ1YQ3NTMR717PMVLOTUVRIX", "current_trial": 225, "dateTime": 1509550723781, "trialdata": {"rt": -1000, "stimulus": "/static/audio/wordpool/EXPERT.wav", "key_press": -1, "type": "PRES_AUD", "word": "expert", "wordID": 542, "conditions": [24, 800, "a", 12000], "trial": 2, "serialpos": 21, "trial_type": "single-audio", "trial_index": 110, "time_elapsed": 398451, "internal_node_id": "0.0-83.0"}}, {"uniqueid": "MTK0211:3IJXV6UZ1YQ3NTMR717PMVLOTUVRIX", "current_trial": 226, "dateTime": 1509550725660, "trialdata": {"rt": -1000, "stimulus": "/static/audio/wordpool/GARDEN.wav", "key_press": -1, "type": "PRES_AUD", "word": "garden", "wordID": 622, "conditions": [24, 800, "a", 12000], "trial": 2, "serialpos": 22, "trial_type": "single-audio", "trial_index": 111, "time_elapsed": 400330, "internal_node_id": "0.0-84.0"}}, {"uniqueid": "MTK0211:3IJXV6UZ1YQ3NTMR717PMVLOTUVRIX", "current_trial": 227, "dateTime": 1509550727596, "trialdata": {"rt": -1000, "stimulus": "/static/audio/wordpool/HANDBAG.wav", "key_press": -1, "type": "PRES_AUD", "word": "handbag", "wordID": 683, "conditions": [24, 800, "a", 12000], "trial": 2, "serialpos": 23, "trial_type": "single-audio", "trial_index": 112, "time_elapsed": 402266, "internal_node_id": "0.0-85.0"}}, {"uniqueid": "MTK0211:3IJXV6UZ1YQ3NTMR717PMVLOTUVRIX", "current_trial": 228, "dateTime": 1509550728922, "trialdata": {"rt": -1, "stimulus": "", "key_press": -1, "type": "PRE_RECALL_DELAY", "trial_type": "single-stim", "trial_index": 113, "time_elapsed": 403591, "internal_node_id": "0.0-86.0-0.0"}}, {"uniqueid": "MTK0211:3IJXV6UZ1YQ3NTMR717PMVLOTUVRIX", "current_trial": 229, "dateTime": 1509550729423, "trialdata": {"rt": -1000, "stimulus": "/static/audio/400Hz.wav", "key_press": -1, "type": "PRE_RECALL_ALERT", "trial_type": "single-audio", "trial_index": 114, "time_elapsed": 404093, "internal_node_id": "0.0-87.0"}}, {"uniqueid": "MTK0211:3IJXV6UZ1YQ3NTMR717PMVLOTUVRIX", "current_trial": 230, "dateTime": 1509550789436, "trialdata": {"rt": [6137, 7757, 8750, 11439, 12894, 14515, 16981, 18535, 22931, 26001, 30287, 32137], "recwords": ["handbag", "garden", "lace", "dress", "crib", "mattress", "lipstick", "plaid", "garden", "farmer", "penguin", "beaver"], "type": "FREE_RECALL", "conditions": [24, 800, "a", 12000], "trial": 2, "trial_type": "free-recall", "trial_index": 115, "time_elapsed": 464099, "internal_node_id": "0.0-88.0-0.0"}}, {"uniqueid": "MTK0211:3IJXV6UZ1YQ3NTMR717PMVLOTUVRIX", "current_trial": 231, "dateTime": 1509550792422, "trialdata": {"rt": 984, "key_press": 32, "type": "INSTRUCTIONS", "trial_type": "text", "trial_index": 116, "time_elapsed": 467092, "internal_node_id": "0.0-89.0"}}, {"uniqueid": "MTK0211:3IJXV6UZ1YQ3NTMR717PMVLOTUVRIX", "current_trial": 232, "dateTime": 1509550806426, "trialdata": {"rt": [3022, 4747, 6189, 9914, 11289], "responses": ["17", "15", "5", "13", "6"], "num1": [7, 6, 1, 5, 1, 7], "num2": [9, 5, 1, 1, 1, 7], "num3": [1, 4, 3, 7, 4, 9], "type": "DISTRACTOR", "conditions": [12, 1600, "v", 12000], "trial": 3, "trial_type": "math-distractor", "trial_index": 117, "time_elapsed": 481096, "internal_node_id": "0.0-90.0"}}, {"uniqueid": "MTK0211:3IJXV6UZ1YQ3NTMR717PMVLOTUVRIX", "current_trial": 233, "dateTime": 1509550809429, "trialdata": {"rt": -1, "stimulus": "<p id=\"stim\">10</p>", "key_press": -1, "trial_type": "single-stim", "trial_index": 118, "time_elapsed": 484099, "internal_node_id": "0.0-91.0-0.0"}}, {"uniqueid": "MTK0211:3IJXV6UZ1YQ3NTMR717PMVLOTUVRIX", "current_trial": 234, "dateTime": 1509550810431, "trialdata": {"rt": -1, "stimulus": "<p id=\"stim\">9</p>", "key_press": -1, "trial_type": "single-stim", "trial_index": 119, "time_elapsed": 485101, "internal_node_id": "0.0-91.0-1.0"}}, {"uniqueid": "MTK0211:3IJXV6UZ1YQ3NTMR717PMVLOTUVRIX", "current_trial": 235, "dateTime": 1509550811433, "trialdata": {"rt": -1, "stimulus": "<p id=\"stim\">8</p>", "key_press": -1, "trial_type": "single-stim", "trial_index": 120, "time_elapsed": 486103, "internal_node_id": "0.0-91.0-2.0"}}, {"uniqueid": "MTK0211:3IJXV6UZ1YQ3NTMR717PMVLOTUVRIX", "current_trial": 236, "dateTime": 1509550812435, "trialdata": {"rt": -1, "stimulus": "<p id=\"stim\">7</p>", "key_press": -1, "trial_type": "single-stim", "trial_index": 121, "time_elapsed": 487105, "internal_node_id": "0.0-91.0-3.0"}}, {"uniqueid": "MTK0211:3IJXV6UZ1YQ3NTMR717PMVLOTUVRIX", "current_trial": 237, "dateTime": 1509550813437, "trialdata": {"rt": -1, "stimulus": "<p id=\"stim\">6</p>", "key_press": -1, "trial_type": "single-stim", "trial_index": 122, "time_elapsed": 488107, "internal_node_id": "0.0-91.0-4.0"}}, {"uniqueid": "MTK0211:3IJXV6UZ1YQ3NTMR717PMVLOTUVRIX", "current_trial": 238, "dateTime": 1509550814439, "trialdata": {"rt": -1, "stimulus": "<p id=\"stim\">5</p>", "key_press": -1, "trial_type": "single-stim", "trial_index": 123, "time_elapsed": 489109, "internal_node_id": "0.0-91.0-5.0"}}, {"uniqueid": "MTK0211:3IJXV6UZ1YQ3NTMR717PMVLOTUVRIX", "current_trial": 239, "dateTime": 1509550815442, "trialdata": {"rt": -1, "stimulus": "<p id=\"stim\">4</p>", "key_press": -1, "trial_type": "single-stim", "trial_index": 124, "time_elapsed": 490112, "internal_node_id": "0.0-91.0-6.0"}}, {"uniqueid": "MTK0211:3IJXV6UZ1YQ3NTMR717PMVLOTUVRIX", "current_trial": 240, "dateTime": 1509550816443, "trialdata": {"rt": -1, "stimulus": "<p id=\"stim\">3</p>", "key_press": -1, "trial_type": "single-stim", "trial_index": 125, "time_elapsed": 491113, "internal_node_id": "0.0-91.0-7.0"}}, {"uniqueid": "MTK0211:3IJXV6UZ1YQ3NTMR717PMVLOTUVRIX", "current_trial": 241, "dateTime": 1509550817445, "trialdata": {"rt": -1, "stimulus": "<p id=\"stim\">2</p>", "key_press": -1, "trial_type": "single-stim", "trial_index": 126, "time_elapsed": 492114, "internal_node_id": "0.0-91.0-8.0"}}, {"uniqueid": "MTK0211:3IJXV6UZ1YQ3NTMR717PMVLOTUVRIX", "current_trial": 242, "dateTime": 1509550818446, "trialdata": {"rt": -1, "stimulus": "<p id=\"stim\">1</p>", "key_press": -1, "trial_type": "single-stim", "trial_index": 127, "time_elapsed": 493116, "internal_node_id": "0.0-91.0-9.0"}}, {"uniqueid": "MTK0211:3IJXV6UZ1YQ3NTMR717PMVLOTUVRIX", "current_trial": 243, "dateTime": 1509550819948, "trialdata": {"rt": -1, "stimulus": "<p id=\"stim\">+</p>", "key_press": -1, "type": "FIXATION", "trial_type": "single-stim", "trial_index": 128, "time_elapsed": 494618, "internal_node_id": "0.0-92.0-0.0"}}, {"uniqueid": "MTK0211:3IJXV6UZ1YQ3NTMR717PMVLOTUVRIX", "current_trial": 244, "dateTime": 1509550821550, "trialdata": {"rt": -1, "stimulus": "<p id=\"stim\">BUNNY</p>", "key_press": -1, "type": "PRES_VIS", "word": "bunny", "wordID": 197, "conditions": [12, 1600, "v", 12000], "trial": 3, "serialpos": 0, "trial_type": "single-stim", "trial_index": 129, "time_elapsed": 496220, "internal_node_id": "0.0-93.0"}}, {"uniqueid": "MTK0211:3IJXV6UZ1YQ3NTMR717PMVLOTUVRIX", "current_trial": 245, "dateTime": 1509550823968, "trialdata": {"rt": -1, "stimulus": "<p id=\"stim\">SHERIFF</p>", "key_press": -1, "type": "PRES_VIS", "word": "sheriff", "wordID": 1283, "conditions": [12, 1600, "v", 12000], "trial": 3, "serialpos": 1, "trial_type": "single-stim", "trial_index": 130, "time_elapsed": 498638, "internal_node_id": "0.0-94.0"}}, {"uniqueid": "MTK0211:3IJXV6UZ1YQ3NTMR717PMVLOTUVRIX", "current_trial": 246, "dateTime": 1509550826466, "trialdata": {"rt": -1, "stimulus": "<p id=\"stim\">COSTUME</p>", "key_press": -1, "type": "PRES_VIS", "word": "costume", "wordID": 382, "conditions": [12, 1600, "v", 12000], "trial": 3, "serialpos": 2, "trial_type": "single-stim", "trial_index": 131, "time_elapsed": 501136, "internal_node_id": "0.0-95.0"}}, {"uniqueid": "MTK0211:3IJXV6UZ1YQ3NTMR717PMVLOTUVRIX", "current_trial": 247, "dateTime": 1509550829019, "trialdata": {"rt": -1, "stimulus": "<p id=\"stim\">SHELTER</p>", "key_press": -1, "type": "PRES_VIS", "word": "shelter", "wordID": 1281, "conditions": [12, 1600, "v", 12000], "trial": 3, "serialpos": 3, "trial_type": "single-stim", "trial_index": 132, "time_elapsed": 503689, "internal_node_id": "0.0-96.0"}}, {"uniqueid": "MTK0211:3IJXV6UZ1YQ3NTMR717PMVLOTUVRIX", "current_trial": 248, "dateTime": 1509550831737, "trialdata": {"rt": -1, "stimulus": "<p id=\"stim\">PIGEON</p>", "key_press": -1, "type": "PRES_VIS", "word": "pigeon", "wordID": 1064, "conditions": [12, 1600, "v", 12000], "trial": 3, "serialpos": 4, "trial_type": "single-stim", "trial_index": 133, "time_elapsed": 506407, "internal_node_id": "0.0-97.0"}}, {"uniqueid": "MTK0211:3IJXV6UZ1YQ3NTMR717PMVLOTUVRIX", "current_trial": 249, "dateTime": 1509550834425, "trialdata": {"rt": -1, "stimulus": "<p id=\"stim\">DONKEY</p>", "key_press": -1, "type": "PRES_VIS", "word": "donkey", "wordID": 483, "conditions": [12, 1600, "v", 12000], "trial": 3, "serialpos": 5, "trial_type": "single-stim", "trial_index": 134, "time_elapsed": 509095, "internal_node_id": "0.0-98.0"}}, {"uniqueid": "MTK0211:3IJXV6UZ1YQ3NTMR717PMVLOTUVRIX", "current_trial": 250, "dateTime": 1509550837109, "trialdata": {"rt": -1, "stimulus": "<p id=\"stim\">KITCHEN</p>", "key_press": -1, "type": "PRES_VIS", "word": "kitchen", "wordID": 777, "conditions": [12, 1600, "v", 12000], "trial": 3, "serialpos": 6, "trial_type": "single-stim", "trial_index": 135, "time_elapsed": 511779, "internal_node_id": "0.0-99.0"}}, {"uniqueid": "MTK0211:3IJXV6UZ1YQ3NTMR717PMVLOTUVRIX", "current_trial": 251, "dateTime": 1509550839810, "trialdata": {"rt": -1, "stimulus": "<p id=\"stim\">JAPAN</p>", "key_press": -1, "type": "PRES_VIS", "word": "japan", "wordID": 748, "conditions": [12, 1600, "v", 12000], "trial": 3, "serialpos": 7, "trial_type": "single-stim", "trial_index": 136, "time_elapsed": 514480, "internal_node_id": "0.0-100.0"}}, {"uniqueid": "MTK0211:3IJXV6UZ1YQ3NTMR717PMVLOTUVRIX", "current_trial": 252, "dateTime": 1509550842331, "trialdata": {"rt": -1, "stimulus": "<p id=\"stim\">FLOWER</p>", "key_press": -1, "type": "PRES_VIS", "word": "flower", "wordID": 583, "conditions": [12, 1600, "v", 12000], "trial": 3, "serialpos": 8, "trial_type": "single-stim", "trial_index": 137, "time_elapsed": 517001, "internal_node_id": "0.0-101.0"}}, {"uniqueid": "MTK0211:3IJXV6UZ1YQ3NTMR717PMVLOTUVRIX", "current_trial": 253, "dateTime": 1509550845041, "trialdata": {"rt": -1, "stimulus": "<p id=\"stim\">DAISY</p>", "key_press": -1, "type": "PRES_VIS", "word": "daisy", "wordID": 434, "conditions": [12, 1600, "v", 12000], "trial": 3, "serialpos": 9, "trial_type": "single-stim", "trial_index": 138, "time_elapsed": 519710, "internal_node_id": "0.0-102.0"}}, {"uniqueid": "MTK0211:3IJXV6UZ1YQ3NTMR717PMVLOTUVRIX", "current_trial": 254, "dateTime": 1509550847557, "trialdata": {"rt": -1, "stimulus": "<p id=\"stim\">PUPPY</p>", "key_press": -1, "type": "PRES_VIS", "word": "puppy", "wordID": 1143, "conditions": [12, 1600, "v", 12000], "trial": 3, "serialpos": 10, "trial_type": "single-stim", "trial_index": 139, "time_elapsed": 522227, "internal_node_id": "0.0-103.0"}}, {"uniqueid": "MTK0211:3IJXV6UZ1YQ3NTMR717PMVLOTUVRIX", "current_trial": 255, "dateTime": 1509550850074, "trialdata": {"rt": -1, "stimulus": "<p id=\"stim\">LAGOON</p>", "key_press": -1, "type": "PRES_VIS", "word": "lagoon", "wordID": 794, "conditions": [12, 1600, "v", 12000], "trial": 3, "serialpos": 11, "trial_type": "single-stim", "trial_index": 140, "time_elapsed": 524744, "internal_node_id": "0.0-104.0"}}, {"uniqueid": "MTK0211:3IJXV6UZ1YQ3NTMR717PMVLOTUVRIX", "current_trial": 256, "dateTime": 1509550852401, "trialdata": {"rt": -1, "stimulus": "", "key_press": -1, "type": "PRE_RECALL_DELAY", "trial_type": "single-stim", "trial_index": 141, "time_elapsed": 527071, "internal_node_id": "0.0-105.0-0.0"}}, {"uniqueid": "MTK0211:3IJXV6UZ1YQ3NTMR717PMVLOTUVRIX", "current_trial": 257, "dateTime": 1509550852903, "trialdata": {"rt": -1000, "stimulus": "/static/audio/400Hz.wav", "key_press": -1, "type": "PRE_RECALL_ALERT", "trial_type": "single-audio", "trial_index": 142, "time_elapsed": 527573, "internal_node_id": "0.0-106.0"}}, {"uniqueid": "MTK0211:3IJXV6UZ1YQ3NTMR717PMVLOTUVRIX", "current_trial": 258, "dateTime": 1509550912914, "trialdata": {"rt": [5629, 7734, 10789, 12336, 16560, 18838, 21693, 24819, 30246, 32589, 50739], "recwords": ["lagoon", "puppy", "flower", "daosy", "japan", "donley", "pigeon", "shelter", "sheriff", "bunny", "bunny"], "type": "FREE_RECALL", "conditions": [12, 1600, "v", 12000], "trial": 3, "trial_type": "free-recall", "trial_index": 143, "time_elapsed": 587579, "internal_node_id": "0.0-107.0-0.0"}}, {"uniqueid": "MTK0211:3IJXV6UZ1YQ3NTMR717PMVLOTUVRIX", "current_trial": 259, "dateTime": 1509550918911, "trialdata": {"rt": 3995, "key_press": 13, "type": "INSTRUCTIONS", "trial_type": "text", "trial_index": 144, "time_elapsed": 593581, "internal_node_id": "0.0-108.0"}}, {"uniqueid": "MTK0211:3IJXV6UZ1YQ3NTMR717PMVLOTUVRIX", "current_trial": 260, "dateTime": 1509550932917, "trialdata": {"rt": [2982, 4327, 5975, 8035, 11955], "responses": ["17", "16", "14", "18", "20"], "num1": [5, 7, 2, 6, 7, 3], "num2": [6, 3, 4, 5, 9, 2], "num3": [6, 6, 6, 7, 7, 9], "type": "DISTRACTOR", "conditions": [12, 800, "v", 12000], "trial": 4, "trial_type": "math-distractor", "trial_index": 145, "time_elapsed": 607587, "internal_node_id": "0.0-109.0"}}, {"uniqueid": "MTK0211:3IJXV6UZ1YQ3NTMR717PMVLOTUVRIX", "current_trial": 261, "dateTime": 1509550935919, "trialdata": {"rt": -1, "stimulus": "<p id=\"stim\">10</p>", "key_press": -1, "trial_type": "single-stim", "trial_index": 146, "time_elapsed": 610589, "internal_node_id": "0.0-110.0-0.0"}}, {"uniqueid": "MTK0211:3IJXV6UZ1YQ3NTMR717PMVLOTUVRIX", "current_trial": 262, "dateTime": 1509550936921, "trialdata": {"rt": -1, "stimulus": "<p id=\"stim\">9</p>", "key_press": -1, "trial_type": "single-stim", "trial_index": 147, "time_elapsed": 611590, "internal_node_id": "0.0-110.0-1.0"}}, {"uniqueid": "MTK0211:3IJXV6UZ1YQ3NTMR717PMVLOTUVRIX", "current_trial": 263, "dateTime": 1509550937923, "trialdata": {"rt": -1, "stimulus": "<p id=\"stim\">8</p>", "key_press": -1, "trial_type": "single-stim", "trial_index": 148, "time_elapsed": 612593, "internal_node_id": "0.0-110.0-2.0"}}, {"uniqueid": "MTK0211:3IJXV6UZ1YQ3NTMR717PMVLOTUVRIX", "current_trial": 264, "dateTime": 1509550938925, "trialdata": {"rt": -1, "stimulus": "<p id=\"stim\">7</p>", "key_press": -1, "trial_type": "single-stim", "trial_index": 149, "time_elapsed": 613595, "internal_node_id": "0.0-110.0-3.0"}}, {"uniqueid": "MTK0211:3IJXV6UZ1YQ3NTMR717PMVLOTUVRIX", "current_trial": 265, "dateTime": 1509550939928, "trialdata": {"rt": -1, "stimulus": "<p id=\"stim\">6</p>", "key_press": -1, "trial_type": "single-stim", "trial_index": 150, "time_elapsed": 614597, "internal_node_id": "0.0-110.0-4.0"}}, {"uniqueid": "MTK0211:3IJXV6UZ1YQ3NTMR717PMVLOTUVRIX", "current_trial": 266, "dateTime": 1509550940929, "trialdata": {"rt": -1, "stimulus": "<p id=\"stim\">5</p>", "key_press": -1, "trial_type": "single-stim", "trial_index": 151, "time_elapsed": 615599, "internal_node_id": "0.0-110.0-5.0"}}, {"uniqueid": "MTK0211:3IJXV6UZ1YQ3NTMR717PMVLOTUVRIX", "current_trial": 267, "dateTime": 1509550941931, "trialdata": {"rt": -1, "stimulus": "<p id=\"stim\">4</p>", "key_press": -1, "trial_type": "single-stim", "trial_index": 152, "time_elapsed": 616601, "internal_node_id": "0.0-110.0-6.0"}}, {"uniqueid": "MTK0211:3IJXV6UZ1YQ3NTMR717PMVLOTUVRIX", "current_trial": 268, "dateTime": 1509550942933, "trialdata": {"rt": -1, "stimulus": "<p id=\"stim\">3</p>", "key_press": -1, "trial_type": "single-stim", "trial_index": 153, "time_elapsed": 617603, "internal_node_id": "0.0-110.0-7.0"}}, {"uniqueid": "MTK0211:3IJXV6UZ1YQ3NTMR717PMVLOTUVRIX", "current_trial": 269, "dateTime": 1509550943935, "trialdata": {"rt": -1, "stimulus": "<p id=\"stim\">2</p>", "key_press": -1, "trial_type": "single-stim", "trial_index": 154, "time_elapsed": 618605, "internal_node_id": "0.0-110.0-8.0"}}, {"uniqueid": "MTK0211:3IJXV6UZ1YQ3NTMR717PMVLOTUVRIX", "current_trial": 270, "dateTime": 1509550944937, "trialdata": {"rt": -1, "stimulus": "<p id=\"stim\">1</p>", "key_press": -1, "trial_type": "single-stim", "trial_index": 155, "time_elapsed": 619607, "internal_node_id": "0.0-110.0-9.0"}}, {"uniqueid": "MTK0211:3IJXV6UZ1YQ3NTMR717PMVLOTUVRIX", "current_trial": 271, "dateTime": 1509550946441, "trialdata": {"rt": -1, "stimulus": "<p id=\"stim\">+</p>", "key_press": -1, "type": "FIXATION", "trial_type": "single-stim", "trial_index": 156, "time_elapsed": 621109, "internal_node_id": "0.0-111.0-0.0"}}, {"uniqueid": "MTK0211:3IJXV6UZ1YQ3NTMR717PMVLOTUVRIX", "current_trial": 272, "dateTime": 1509550947244, "trialdata": {"rt": -1, "stimulus": "<p id=\"stim\">DRIVER</p>", "key_press": -1, "type": "PRES_VIS", "word": "driver", "wordID": 498, "conditions": [12, 800, "v", 12000], "trial": 4, "serialpos": 0, "trial_type": "single-stim", "trial_index": 157, "time_elapsed": 621913, "internal_node_id": "0.0-112.0"}}, {"uniqueid": "MTK0211:3IJXV6UZ1YQ3NTMR717PMVLOTUVRIX", "current_trial": 273, "dateTime": 1509550949131, "trialdata": {"rt": -1, "stimulus": "<p id=\"stim\">HONEY</p>", "key_press": -1, "type": "PRES_VIS", "word": "honey", "wordID": 712, "conditions": [12, 800, "v", 12000], "trial": 4, "serialpos": 1, "trial_type": "single-stim", "trial_index": 158, "time_elapsed": 623801, "internal_node_id": "0.0-113.0"}}, {"uniqueid": "MTK0211:3IJXV6UZ1YQ3NTMR717PMVLOTUVRIX", "current_trial": 274, "dateTime": 1509550951069, "trialdata": {"rt": -1, "stimulus": "<p id=\"stim\">ACTOR</p>", "key_press": -1, "type": "PRES_VIS", "word": "actor", "wordID": 4, "conditions": [12, 800, "v", 12000], "trial": 4, "serialpos": 2, "trial_type": "single-stim", "trial_index": 159, "time_elapsed"