{"condition": 0, "counterbalance": 299, "assignmentId": "31HQ4X3T3THHE9UA7T474LICYCZLSA", "workerId": "MTK0352", "hitId": "31J7RYECZLXFX5XM48KLJ0ZJUQB1LY", "currenttrial": 75, "bonus": 0, "data": [{"uniqueid": "MTK0352:31HQ4X3T3THHE9UA7T474LICYCZLSA", "current_trial": 0, "dateTime": 1510773725418, "trialdata": {"rt": 5378, "key_press": 32, "type": "INSTRUCTIONS", "trial_type": "text", "trial_index": 0, "time_elapsed": 5383, "internal_node_id": "0.0-0.0"}}, {"uniqueid": "MTK0352:31HQ4X3T3THHE9UA7T474LICYCZLSA", "current_trial": 1, "dateTime": 1510773776651, "trialdata": {"rt": 51226, "key_press": 32, "type": "INSTRUCTIONS", "trial_type": "text", "trial_index": 1, "time_elapsed": 56616, "internal_node_id": "0.0-1.0"}}, {"uniqueid": "MTK0352:31HQ4X3T3THHE9UA7T474LICYCZLSA", "current_trial": 2, "dateTime": 1510773781671, "trialdata": {"rt": [5001], "responses": ["ocean"], "type": "AUDIO_TEST", "trial_type": "audio-test", "trial_index": 2, "time_elapsed": 61637, "internal_node_id": "0.0-2.0"}}, {"uniqueid": "MTK0352:31HQ4X3T3THHE9UA7T474LICYCZLSA", "current_trial": 3, "dateTime": 1510773786062, "trialdata": {"rt": [4383], "responses": ["crystal"], "type": "AUDIO_TEST", "trial_type": "audio-test", "trial_index": 3, "time_elapsed": 66028, "internal_node_id": "0.0-3.0"}}, {"uniqueid": "MTK0352:31HQ4X3T3THHE9UA7T474LICYCZLSA", "current_trial": 4, "dateTime": 1510773789852, "trialdata": {"rt": [3783], "responses": ["spice"], "type": "AUDIO_TEST", "trial_type": "audio-test", "trial_index": 4, "time_elapsed": 69818, "internal_node_id": "0.0-4.0"}}, {"uniqueid": "MTK0352:31HQ4X3T3THHE9UA7T474LICYCZLSA", "current_trial": 5, "dateTime": 1510773806142, "trialdata": {"rt": 15535, "responses": "{\"Q0\":\"11:30 p.m.\",\"Q1\":\"7:00 a.m.\",\"Q2\":\"3\"}", "type": "SLEEP_SURVEY", "trial_type": "survey-text", "trial_index": 5, "time_elapsed": 86108, "internal_node_id": "0.0-5.0"}}, {"uniqueid": "MTK0352:31HQ4X3T3THHE9UA7T474LICYCZLSA", "current_trial": 6, "dateTime": 1510773808590, "trialdata": {"rt": 1446, "key_press": 17, "type": "INSTRUCTIONS", "trial_type": "text", "trial_index": 6, "time_elapsed": 88556, "internal_node_id": "0.0-6.0"}}, {"uniqueid": "MTK0352:31HQ4X3T3THHE9UA7T474LICYCZLSA", "current_trial": 7, "dateTime": 1510773823070, "trialdata": {"rt": 13978, "key_press": 32, "type": "INSTRUCTIONS", "trial_type": "text", "trial_index": 7, "time_elapsed": 103035, "internal_node_id": "0.0-7.0"}}, {"uniqueid": "MTK0352:31HQ4X3T3THHE9UA7T474LICYCZLSA", "current_trial": 8, "dateTime": 1510773826790, "trialdata": {"rt": 3218, "key_press": 32, "type": "INSTRUCTIONS", "trial_type": "text", "trial_index": 8, "time_elapsed": 106755, "internal_node_id": "0.0-8.0"}}, {"uniqueid": "MTK0352:31HQ4X3T3THHE9UA7T474LICYCZLSA", "current_trial": 9, "dateTime": 1510773845802, "trialdata": {"rt": [4174, 6341, 8693, 10413, 12541, 14613, 16246], "responses": ["20", "6", "13", "13", "10", "17", "10"], "num1": [9, 3, 3, 1, 2, 4, 1, 9], "num2": [8, 1, 3, 7, 1, 5, 2, 6], "num3": [3, 2, 7, 5, 7, 8, 7, 9], "type": "DISTRACTOR", "conditions": [18, 1200, "v", 18000], "trial": 0, "trial_type": "math-distractor", "trial_index": 9, "time_elapsed": 125768, "internal_node_id": "0.0-9.0"}}, {"uniqueid": "MTK0352:31HQ4X3T3THHE9UA7T474LICYCZLSA", "current_trial": 10, "dateTime": 1510773848806, "trialdata": {"rt": -1, "stimulus": "<p id=\"stim\">10</p>", "key_press": -1, "trial_type": "single-stim", "trial_index": 10, "time_elapsed": 128772, "internal_node_id": "0.0-10.0-0.0"}}, {"uniqueid": "MTK0352:31HQ4X3T3THHE9UA7T474LICYCZLSA", "current_trial": 11, "dateTime": 1510773849808, "trialdata": {"rt": -1, "stimulus": "<p id=\"stim\">9</p>", "key_press": -1, "trial_type": "single-stim", "trial_index": 11, "time_elapsed": 129773, "internal_node_id": "0.0-10.0-1.0"}}, {"uniqueid": "MTK0352:31HQ4X3T3THHE9UA7T474LICYCZLSA", "current_trial": 12, "dateTime": 1510773850810, "trialdata": {"rt": -1, "stimulus": "<p id=\"stim\">8</p>", "key_press": -1, "trial_type": "single-stim", "trial_index": 12, "time_elapsed": 130775, "internal_node_id": "0.0-10.0-2.0"}}, {"uniqueid": "MTK0352:31HQ4X3T3THHE9UA7T474LICYCZLSA", "current_trial": 13, "dateTime": 1510773851811, "trialdata": {"rt": -1, "stimulus": "<p id=\"stim\">7</p>", "key_press": -1, "trial_type": "single-stim", "trial_index": 13, "time_elapsed": 131777, "internal_node_id": "0.0-10.0-3.0"}}, {"uniqueid": "MTK0352:31HQ4X3T3THHE9UA7T474LICYCZLSA", "current_trial": 14, "dateTime": 1510773852813, "trialdata": {"rt": -1, "stimulus": "<p id=\"stim\">6</p>", "key_press": -1, "trial_type": "single-stim", "trial_index": 14, "time_elapsed": 132778, "internal_node_id": "0.0-10.0-4.0"}}, {"uniqueid": "MTK0352:31HQ4X3T3THHE9UA7T474LICYCZLSA", "current_trial": 15, "dateTime": 1510773853816, "trialdata": {"rt": -1, "stimulus": "<p id=\"stim\">5</p>", "key_press": -1, "trial_type": "single-stim", "trial_index": 15, "time_elapsed": 133782, "internal_node_id": "0.0-10.0-5.0"}}, {"uniqueid": "MTK0352:31HQ4X3T3THHE9UA7T474LICYCZLSA", "current_trial": 16, "dateTime": 1510773854817, "trialdata": {"rt": -1, "stimulus": "<p id=\"stim\">4</p>", "key_press": -1, "trial_type": "single-stim", "trial_index": 16, "time_elapsed": 134783, "internal_node_id": "0.0-10.0-6.0"}}, {"uniqueid": "MTK0352:31HQ4X3T3THHE9UA7T474LICYCZLSA", "current_trial": 17, "dateTime": 1510773855818, "trialdata": {"rt": -1, "stimulus": "<p id=\"stim\">3</p>", "key_press": -1, "trial_type": "single-stim", "trial_index": 17, "time_elapsed": 135784, "internal_node_id": "0.0-10.0-7.0"}}, {"uniqueid": "MTK0352:31HQ4X3T3THHE9UA7T474LICYCZLSA", "current_trial": 18, "dateTime": 1510773856820, "trialdata": {"rt": -1, "stimulus": "<p id=\"stim\">2</p>", "key_press": -1, "trial_type": "single-stim", "trial_index": 18, "time_elapsed": 136785, "internal_node_id": "0.0-10.0-8.0"}}, {"uniqueid": "MTK0352:31HQ4X3T3THHE9UA7T474LICYCZLSA", "current_trial": 19, "dateTime": 1510773857822, "trialdata": {"rt": -1, "stimulus": "<p id=\"stim\">1</p>", "key_press": -1, "trial_type": "single-stim", "trial_index": 19, "time_elapsed": 137788, "internal_node_id": "0.0-10.0-9.0"}}, {"uniqueid": "MTK0352:31HQ4X3T3THHE9UA7T474LICYCZLSA", "current_trial": 20, "dateTime": 1510773859324, "trialdata": {"rt": -1, "stimulus": "<p id=\"stim\">+</p>", "key_press": -1, "type": "FIXATION", "trial_type": "single-stim", "trial_index": 20, "time_elapsed": 139289, "internal_node_id": "0.0-11.0-0.0"}}, {"uniqueid": "MTK0352:31HQ4X3T3THHE9UA7T474LICYCZLSA", "current_trial": 21, "dateTime": 1510773860526, "trialdata": {"rt": -1, "stimulus": "<p id=\"stim\">BRIEFCASE</p>", "key_press": -1, "type": "PRES_VIS", "word": "briefcase", "wordID": 174, "conditions": [18, 1200, "v", 18000], "trial": 0, "serialpos": 0, "trial_type": "single-stim", "trial_index": 21, "time_elapsed": 140492, "internal_node_id": "0.0-12.0"}}, {"uniqueid": "MTK0352:31HQ4X3T3THHE9UA7T474LICYCZLSA", "current_trial": 22, "dateTime": 1510773862640, "trialdata": {"rt": -1, "stimulus": "<p id=\"stim\">ZEBRA</p>", "key_press": -1, "type": "PRES_VIS", "word": "zebra", "wordID": 1634, "conditions": [18, 1200, "v", 18000], "trial": 0, "serialpos": 1, "trial_type": "single-stim", "trial_index": 22, "time_elapsed": 142606, "internal_node_id": "0.0-13.0"}}, {"uniqueid": "MTK0352:31HQ4X3T3THHE9UA7T474LICYCZLSA", "current_trial": 23, "dateTime": 1510773864673, "trialdata": {"rt": -1, "stimulus": "<p id=\"stim\">EMPIRE</p>", "key_press": -1, "type": "PRES_VIS", "word": "empire", "wordID": 529, "conditions": [18, 1200, "v", 18000], "trial": 0, "serialpos": 2, "trial_type": "single-stim", "trial_index": 23, "time_elapsed": 144639, "internal_node_id": "0.0-14.0"}}, {"uniqueid": "MTK0352:31HQ4X3T3THHE9UA7T474LICYCZLSA", "current_trial": 24, "dateTime": 1510773866738, "trialdata": {"rt": -1, "stimulus": "<p id=\"stim\">PORK</p>", "key_press": -1, "type": "PRES_VIS", "word": "pork", "wordID": 1107, "conditions": [18, 1200, "v", 18000], "trial": 0, "serialpos": 3, "trial_type": "single-stim", "trial_index": 24, "time_elapsed": 146704, "internal_node_id": "0.0-15.0"}}, {"uniqueid": "MTK0352:31HQ4X3T3THHE9UA7T474LICYCZLSA", "current_trial": 25, "dateTime": 1510773869132, "trialdata": {"rt": -1, "stimulus": "<p id=\"stim\">POSTAGE</p>", "key_press": -1, "type": "PRES_VIS", "word": "postage", "wordID": 1112, "conditions": [18, 1200, "v", 18000], "trial": 0, "serialpos": 4, "trial_type": "single-stim", "trial_index": 25, "time_elapsed": 149098, "internal_node_id": "0.0-16.0"}}, {"uniqueid": "MTK0352:31HQ4X3T3THHE9UA7T474LICYCZLSA", "current_trial": 26, "dateTime": 1510773871375, "trialdata": {"rt": -1, "stimulus": "<p id=\"stim\">BADGE</p>", "key_press": -1, "type": "PRES_VIS", "word": "badge", "wordID": 67, "conditions": [18, 1200, "v", 18000], "trial": 0, "serialpos": 5, "trial_type": "single-stim", "trial_index": 26, "time_elapsed": 151341, "internal_node_id": "0.0-17.0"}}, {"uniqueid": "MTK0352:31HQ4X3T3THHE9UA7T474LICYCZLSA", "current_trial": 27, "dateTime": 1510773873575, "trialdata": {"rt": -1, "stimulus": "<p id=\"stim\">FIREMAN</p>", "key_press": -1, "type": "PRES_VIS", "word": "fireman", "wordID": 568, "conditions": [18, 1200, "v", 18000], "trial": 0, "serialpos": 6, "trial_type": "single-stim", "trial_index": 27, "time_elapsed": 153541, "internal_node_id": "0.0-18.0"}}, {"uniqueid": "MTK0352:31HQ4X3T3THHE9UA7T474LICYCZLSA", "current_trial": 28, "dateTime": 1510773875697, "trialdata": {"rt": -1, "stimulus": "<p id=\"stim\">WHISKERS</p>", "key_press": -1, "type": "PRES_VIS", "word": "whiskers", "wordID": 1604, "conditions": [18, 1200, "v", 18000], "trial": 0, "serialpos": 7, "trial_type": "single-stim", "trial_index": 28, "time_elapsed": 155663, "internal_node_id": "0.0-19.0"}}, {"uniqueid": "MTK0352:31HQ4X3T3THHE9UA7T474LICYCZLSA", "current_trial": 29, "dateTime": 1510773877800, "trialdata": {"rt": -1, "stimulus": "<p id=\"stim\">BARLEY</p>", "key_press": -1, "type": "PRES_VIS", "word": "barley", "wordID": 87, "conditions": [18, 1200, "v", 18000], "trial": 0, "serialpos": 8, "trial_type": "single-stim", "trial_index": 29, "time_elapsed": 157766, "internal_node_id": "0.0-20.0"}}, {"uniqueid": "MTK0352:31HQ4X3T3THHE9UA7T474LICYCZLSA", "current_trial": 30, "dateTime": 1510773879808, "trialdata": {"rt": -1, "stimulus": "<p id=\"stim\">TWIG</p>", "key_press": -1, "type": "PRES_VIS", "word": "twig", "wordID": 1526, "conditions": [18, 1200, "v", 18000], "trial": 0, "serialpos": 9, "trial_type": "single-stim", "trial_index": 30, "time_elapsed": 159773, "internal_node_id": "0.0-21.0"}}, {"uniqueid": "MTK0352:31HQ4X3T3THHE9UA7T474LICYCZLSA", "current_trial": 31, "dateTime": 1510773882185, "trialdata": {"rt": -1, "stimulus": "<p id=\"stim\">VIKING</p>", "key_press": -1, "type": "PRES_VIS", "word": "viking", "wordID": 1564, "conditions": [18, 1200, "v", 18000], "trial": 0, "serialpos": 10, "trial_type": "single-stim", "trial_index": 31, "time_elapsed": 162150, "internal_node_id": "0.0-22.0"}}, {"uniqueid": "MTK0352:31HQ4X3T3THHE9UA7T474LICYCZLSA", "current_trial": 32, "dateTime": 1510773884415, "trialdata": {"rt": -1, "stimulus": "<p id=\"stim\">DENTIST</p>", "key_press": -1, "type": "PRES_VIS", "word": "dentist", "wordID": 446, "conditions": [18, 1200, "v", 18000], "trial": 0, "serialpos": 11, "trial_type": "single-stim", "trial_index": 32, "time_elapsed": 164381, "internal_node_id": "0.0-23.0"}}, {"uniqueid": "MTK0352:31HQ4X3T3THHE9UA7T474LICYCZLSA", "current_trial": 33, "dateTime": 1510773886767, "trialdata": {"rt": -1, "stimulus": "<p id=\"stim\">HEART</p>", "key_press": -1, "type": "PRES_VIS", "word": "heart", "wordID": 696, "conditions": [18, 1200, "v", 18000], "trial": 0, "serialpos": 12, "trial_type": "single-stim", "trial_index": 33, "time_elapsed": 166733, "internal_node_id": "0.0-24.0"}}, {"uniqueid": "MTK0352:31HQ4X3T3THHE9UA7T474LICYCZLSA", "current_trial": 34, "dateTime": 1510773888835, "trialdata": {"rt": -1, "stimulus": "<p id=\"stim\">QUEEN</p>", "key_press": -1, "type": "PRES_VIS", "word": "queen", "wordID": 1148, "conditions": [18, 1200, "v", 18000], "trial": 0, "serialpos": 13, "trial_type": "single-stim", "trial_index": 34, "time_elapsed": 168801, "internal_node_id": "0.0-25.0"}}, {"uniqueid": "MTK0352:31HQ4X3T3THHE9UA7T474LICYCZLSA", "current_trial": 35, "dateTime": 1510773891026, "trialdata": {"rt": -1, "stimulus": "<p id=\"stim\">PACKAGE</p>", "key_press": -1, "type": "PRES_VIS", "word": "package", "wordID": 996, "conditions": [18, 1200, "v", 18000], "trial": 0, "serialpos": 14, "trial_type": "single-stim", "trial_index": 35, "time_elapsed": 170992, "internal_node_id": "0.0-26.0"}}, {"uniqueid": "MTK0352:31HQ4X3T3THHE9UA7T474LICYCZLSA", "current_trial": 36, "dateTime": 1510773893104, "trialdata": {"rt": -1, "stimulus": "<p id=\"stim\">STALLION</p>", "key_press": -1, "type": "PRES_VIS", "word": "stallion", "wordID": 1368, "conditions": [18, 1200, "v", 18000], "trial": 0, "serialpos": 15, "trial_type": "single-stim", "trial_index": 36, "time_elapsed": 173070, "internal_node_id": "0.0-27.0"}}, {"uniqueid": "MTK0352:31HQ4X3T3THHE9UA7T474LICYCZLSA", "current_trial": 37, "dateTime": 1510773895166, "trialdata": {"rt": -1, "stimulus": "<p id=\"stim\">MARKER</p>", "key_press": -1, "type": "PRES_VIS", "word": "marker", "wordID": 869, "conditions": [18, 1200, "v", 18000], "trial": 0, "serialpos": 16, "trial_type": "single-stim", "trial_index": 37, "time_elapsed": 175132, "internal_node_id": "0.0-28.0"}}, {"uniqueid": "MTK0352:31HQ4X3T3THHE9UA7T474LICYCZLSA", "current_trial": 38, "dateTime": 1510773897527, "trialdata": {"rt": -1, "stimulus": "<p id=\"stim\">STATUE</p>", "key_press": -1, "type": "PRES_VIS", "word": "statue", "wordID": 1373, "conditions": [18, 1200, "v", 18000], "trial": 0, "serialpos": 17, "trial_type": "single-stim", "trial_index": 38, "time_elapsed": 177493, "internal_node_id": "0.0-29.0"}}, {"uniqueid": "MTK0352:31HQ4X3T3THHE9UA7T474LICYCZLSA", "current_trial": 39, "dateTime": 1510773899737, "trialdata": {"rt": -1, "stimulus": "", "key_press": -1, "type": "PRE_RECALL_DELAY", "trial_type": "single-stim", "trial_index": 39, "time_elapsed": 179703, "internal_node_id": "0.0-30.0-0.0"}}, {"uniqueid": "MTK0352:31HQ4X3T3THHE9UA7T474LICYCZLSA", "current_trial": 40, "dateTime": 1510773900240, "trialdata": {"rt": -1000, "stimulus": "/static/audio/400Hz.wav", "key_press": -1, "type": "PRE_RECALL_ALERT", "trial_type": "single-audio", "trial_index": 40, "time_elapsed": 180206, "internal_node_id": "0.0-31.0"}}, {"uniqueid": "MTK0352:31HQ4X3T3THHE9UA7T474LICYCZLSA", "current_trial": 41, "dateTime": 1510773960247, "trialdata": {"rt": [4692, 6148, 8860, 11005, 12901, 14877, 16037, 17205, 18854, 19893, 20965, 32389, 38196, 41795, 44875, 48355], "recwords": ["barley", "twig", "viking", "queen", "heart", "package", "statue", "market", "stallion", "package", "", "dentist", "barley", "heart", "statue", "stallion"], "type": "FREE_RECALL", "conditions": [18, 1200, "v", 18000], "trial": 0, "trial_type": "free-recall", "trial_index": 41, "time_elapsed": 240208, "internal_node_id": "0.0-32.0-0.0"}}, {"uniqueid": "MTK0352:31HQ4X3T3THHE9UA7T474LICYCZLSA", "current_trial": 42, "dateTime": 1510773972677, "trialdata": {"rt": 10428, "key_press": 86, "type": "INSTRUCTIONS", "trial_type": "text", "trial_index": 42, "time_elapsed": 252643, "internal_node_id": "0.0-33.0"}}, {"uniqueid": "MTK0352:31HQ4X3T3THHE9UA7T474LICYCZLSA", "current_trial": 43, "dateTime": 1510773992682, "trialdata": {"rt": [2828, 4732, 7011, 8429, 11221, 13421, 15093, 16853], "responses": ["17", "9", "7", "9", "20", "19", "18", "10"], "num1": [5, 5, 1, 7, 9, 8, 6, 2, 2], "num2": [6, 1, 2, 2, 2, 4, 6, 5, 4], "num3": [6, 3, 4, 1, 8, 7, 4, 3, 7], "type": "DISTRACTOR", "conditions": [18, 1200, "a", 18000], "trial": 1, "trial_type": "math-distractor", "trial_index": 43, "time_elapsed": 272648, "internal_node_id": "0.0-34.0"}}, {"uniqueid": "MTK0352:31HQ4X3T3THHE9UA7T474LICYCZLSA", "current_trial": 44, "dateTime": 1510773995684, "trialdata": {"rt": -1, "stimulus": "<p id=\"stim\">10</p>", "key_press": -1, "trial_type": "single-stim", "trial_index": 44, "time_elapsed": 275650, "internal_node_id": "0.0-35.0-0.0"}}, {"uniqueid": "MTK0352:31HQ4X3T3THHE9UA7T474LICYCZLSA", "current_trial": 45, "dateTime": 1510773996687, "trialdata": {"rt": -1, "stimulus": "<p id=\"stim\">9</p>", "key_press": -1, "trial_type": "single-stim", "trial_index": 45, "time_elapsed": 276652, "internal_node_id": "0.0-35.0-1.0"}}, {"uniqueid": "MTK0352:31HQ4X3T3THHE9UA7T474LICYCZLSA", "current_trial": 46, "dateTime": 1510773997688, "trialdata": {"rt": -1, "stimulus": "<p id=\"stim\">8</p>", "key_press": -1, "trial_type": "single-stim", "trial_index": 46, "time_elapsed": 277654, "internal_node_id": "0.0-35.0-2.0"}}, {"uniqueid": "MTK0352:31HQ4X3T3THHE9UA7T474LICYCZLSA", "current_trial": 47, "dateTime": 1510773998691, "trialdata": {"rt": -1, "stimulus": "<p id=\"stim\">7</p>", "key_press": -1, "trial_type": "single-stim", "trial_index": 47, "time_elapsed": 278657, "internal_node_id": "0.0-35.0-3.0"}}, {"uniqueid": "MTK0352:31HQ4X3T3THHE9UA7T474LICYCZLSA", "current_trial": 48, "dateTime": 1510773999692, "trialdata": {"rt": -1, "stimulus": "<p id=\"stim\">6</p>", "key_press": -1, "trial_type": "single-stim", "trial_index": 48, "time_elapsed": 279658, "internal_node_id": "0.0-35.0-4.0"}}, {"uniqueid": "MTK0352:31HQ4X3T3THHE9UA7T474LICYCZLSA", "current_trial": 49, "dateTime": 1510774000694, "trialdata": {"rt": -1, "stimulus": "<p id=\"stim\">5</p>", "key_press": -1, "trial_type": "single-stim", "trial_index": 49, "time_elapsed": 280660, "internal_node_id": "0.0-35.0-5.0"}}, {"uniqueid": "MTK0352:31HQ4X3T3THHE9UA7T474LICYCZLSA", "current_trial": 50, "dateTime": 1510774001696, "trialdata": {"rt": -1, "stimulus": "<p id=\"stim\">4</p>", "key_press": -1, "trial_type": "single-stim", "trial_index": 50, "time_elapsed": 281662, "internal_node_id": "0.0-35.0-6.0"}}, {"uniqueid": "MTK0352:31HQ4X3T3THHE9UA7T474LICYCZLSA", "current_trial": 51, "dateTime": 1510774002699, "trialdata": {"rt": -1, "stimulus": "<p id=\"stim\">3</p>", "key_press": -1, "trial_type": "single-stim", "trial_index": 51, "time_elapsed": 282664, "internal_node_id": "0.0-35.0-7.0"}}, {"uniqueid": "MTK0352:31HQ4X3T3THHE9UA7T474LICYCZLSA", "current_trial": 52, "dateTime": 1510774003701, "trialdata": {"rt": -1, "stimulus": "<p id=\"stim\">2</p>", "key_press": -1, "trial_type": "single-stim", "trial_index": 52, "time_elapsed": 283666, "internal_node_id": "0.0-35.0-8.0"}}, {"uniqueid": "MTK0352:31HQ4X3T3THHE9UA7T474LICYCZLSA", "current_trial": 53, "dateTime": 1510774004702, "trialdata": {"rt": -1, "stimulus": "<p id=\"stim\">1</p>", "key_press": -1, "trial_type": "single-stim", "trial_index": 53, "time_elapsed": 284668, "internal_node_id": "0.0-35.0-9.0"}}, {"uniqueid": "MTK0352:31HQ4X3T3THHE9UA7T474LICYCZLSA", "current_trial": 54, "dateTime": 1510774006204, "trialdata": {"rt": -1, "stimulus": "<p id=\"stim\">+</p>", "key_press": -1, "type": "FIXATION", "trial_type": "single-stim", "trial_index": 54, "time_elapsed": 286169, "internal_node_id": "0.0-36.0-0.0"}}, {"uniqueid": "MTK0352:31HQ4X3T3THHE9UA7T474LICYCZLSA", "current_trial": 55, "dateTime": 1510774008508, "trialdata": {"rt": -1000, "stimulus": "/static/audio/wordpool/OZONE.wav", "key_press": -1, "type": "PRES_AUD", "word": "ozone", "wordID": 995, "conditions": [18, 1200, "a", 18000], "trial": 1, "serialpos": 0, "trial_type": "single-audio", "trial_index": 55, "time_elapsed": 288474, "internal_node_id": "0.0-37.0"}}, {"uniqueid": "MTK0352:31HQ4X3T3THHE9UA7T474LICYCZLSA", "current_trial": 56, "dateTime": 1510774010585, "trialdata": {"rt": -1000, "stimulus": "/static/audio/wordpool/SODA.wav", "key_press": -1, "type": "PRES_AUD", "word": "soda", "wordID": 1340, "conditions": [18, 1200, "a", 18000], "trial": 1, "serialpos": 1, "trial_type": "single-audio", "trial_index": 56, "time_elapsed": 290551, "internal_node_id": "0.0-38.0"}}, {"uniqueid": "MTK0352:31HQ4X3T3THHE9UA7T474LICYCZLSA", "current_trial": 57, "dateTime": 1510774012735, "trialdata": {"rt": -1000, "stimulus": "/static/audio/wordpool/ATOM.wav", "key_press": -1, "type": "PRES_AUD", "word": "atom", "wordID": 54, "conditions": [18, 1200, "a", 18000], "trial": 1, "serialpos": 2, "trial_type": "single-audio", "trial_index": 57, "time_elapsed": 292701, "internal_node_id": "0.0-39.0"}}, {"uniqueid": "MTK0352:31HQ4X3T3THHE9UA7T474LICYCZLSA", "current_trial": 58, "dateTime": 1510774014784, "trialdata": {"rt": -1000, "stimulus": "/static/audio/wordpool/UMPIRE.wav", "key_press": -1, "type": "PRES_AUD", "word": "umpire", "wordID": 1534, "conditions": [18, 1200, "a", 18000], "trial": 1, "serialpos": 3, "trial_type": "single-audio", "trial_index": 58, "time_elapsed": 294750, "internal_node_id": "0.0-40.0"}}, {"uniqueid": "MTK0352:31HQ4X3T3THHE9UA7T474LICYCZLSA", "current_trial": 59, "dateTime": 1510774016964, "trialdata": {"rt": -1000, "stimulus": "/static/audio/wordpool/FRUIT.wav", "key_press": -1, "type": "PRES_AUD", "word": "fruit", "wordID": 609, "conditions": [18, 1200, "a", 18000], "trial": 1, "serialpos": 4, "trial_type": "single-audio", "trial_index": 59, "time_elapsed": 296930, "internal_node_id": "0.0-41.0"}}, {"uniqueid": "MTK0352:31HQ4X3T3THHE9UA7T474LICYCZLSA", "current_trial": 60, "dateTime": 1510774019323, "trialdata": {"rt": -1000, "stimulus": "/static/audio/wordpool/MAILMAN.wav", "key_press": -1, "type": "PRES_AUD", "word": "mailman", "wordID": 857, "conditions": [18, 1200, "a", 18000], "trial": 1, "serialpos": 5, "trial_type": "single-audio", "trial_index": 60, "time_elapsed": 299289, "internal_node_id": "0.0-42.0"}}, {"uniqueid": "MTK0352:31HQ4X3T3THHE9UA7T474LICYCZLSA", "current_trial": 61, "dateTime": 1510774021643, "trialdata": {"rt": -1000, "stimulus": "/static/audio/wordpool/WIFE.wav", "key_press": -1, "type": "PRES_AUD", "word": "wife", "wordID": 1608, "conditions": [18, 1200, "a", 18000], "trial": 1, "serialpos": 6, "trial_type": "single-audio", "trial_index": 61, "time_elapsed": 301609, "internal_node_id": "0.0-43.0"}}, {"uniqueid": "MTK0352:31HQ4X3T3THHE9UA7T474LICYCZLSA", "current_trial": 62, "dateTime": 1510774023754, "trialdata": {"rt": -1000, "stimulus": "/static/audio/wordpool/JAPAN.wav", "key_press": -1, "type": "PRES_AUD", "word": "japan", "wordID": 748, "conditions": [18, 1200, "a", 18000], "trial": 1, "serialpos": 7, "trial_type": "single-audio", "trial_index": 62, "time_elapsed": 303720, "internal_node_id": "0.0-44.0"}}, {"uniqueid": "MTK0352:31HQ4X3T3THHE9UA7T474LICYCZLSA", "current_trial": 63, "dateTime": 1510774026145, "trialdata": {"rt": -1000, "stimulus": "/static/audio/wordpool/JUDGE.wav", "key_press": -1, "type": "PRES_AUD", "word": "judge", "wordID": 760, "conditions": [18, 1200, "a", 18000], "trial": 1, "serialpos": 8, "trial_type": "single-audio", "trial_index": 63, "time_elapsed": 306111, "internal_node_id": "0.0-45.0"}}, {"uniqueid": "MTK0352:31HQ4X3T3THHE9UA7T474LICYCZLSA", "current_trial": 64, "dateTime": 1510774028278, "trialdata": {"rt": -1000, "stimulus": "/static/audio/wordpool/SHORTS.wav", "key_press": -1, "type": "PRES_AUD", "word": "shorts", "wordID": 1292, "conditions": [18, 1200, "a", 18000], "trial": 1, "serialpos": 9, "trial_type": "single-audio", "trial_index": 64, "time_elapsed": 308244, "internal_node_id": "0.0-46.0"}}, {"uniqueid": "MTK0352:31HQ4X3T3THHE9UA7T474LICYCZLSA", "current_trial": 65, "dateTime": 1510774030435, "trialdata": {"rt": -1000, "stimulus": "/static/audio/wordpool/SEAFOOD.wav", "key_press": -1, "type": "PRES_AUD", "word": "seafood", "wordID": 1259, "conditions": [18, 1200, "a", 18000], "trial": 1, "serialpos": 10, "trial_type": "single-audio", "trial_index": 65, "time_elapsed": 310401, "internal_node_id": "0.0-47.0"}}, {"uniqueid": "MTK0352:31HQ4X3T3THHE9UA7T474LICYCZLSA", "current_trial": 66, "dateTime": 1510774032778, "trialdata": {"rt": -1000, "stimulus": "/static/audio/wordpool/PLAID.wav", "key_press": -1, "type": "PRES_AUD", "word": "plaid", "wordID": 1079, "conditions": [18, 1200, "a", 18000], "trial": 1, "serialpos": 11, "trial_type": "single-audio", "trial_index": 66, "time_elapsed": 312744, "internal_node_id": "0.0-48.0"}}, {"uniqueid": "MTK0352:31HQ4X3T3THHE9UA7T474LICYCZLSA", "current_trial": 67, "dateTime": 1510774035005, "trialdata": {"rt": -1000, "stimulus": "/static/audio/wordpool/FIDDLE.wav", "key_press": -1, "type": "PRES_AUD", "word": "fiddle", "wordID": 560, "conditions": [18, 1200, "a", 18000], "trial": 1, "serialpos": 12, "trial_type": "single-audio", "trial_index": 67, "time_elapsed": 314971, "internal_node_id": "0.0-49.0"}}, {"uniqueid": "MTK0352:31HQ4X3T3THHE9UA7T474LICYCZLSA", "current_trial": 68, "dateTime": 1510774037378, "trialdata": {"rt": -1000, "stimulus": "/static/audio/wordpool/DRAWING.wav", "key_press": -1, "type": "PRES_AUD", "word": "drawing", "wordID": 493, "conditions": [18, 1200, "a", 18000], "trial": 1, "serialpos": 13, "trial_type": "single-audio", "trial_index": 68, "time_elapsed": 317340, "internal_node_id": "0.0-50.0"}}, {"uniqueid": "MTK0352:31HQ4X3T3THHE9UA7T474LICYCZLSA", "current_trial": 69, "dateTime": 1510774039426, "trialdata": {"rt": -1000, "stimulus": "/static/audio/wordpool/DOUGHNUT.wav", "key_press": -1, "type": "PRES_AUD", "word": "doughnut", "wordID": 489, "conditions": [18, 1200, "a", 18000], "trial": 1, "serialpos": 14, "trial_type": "single-audio", "trial_index": 69, "time_elapsed": 319392, "internal_node_id": "0.0-51.0"}}, {"uniqueid": "MTK0352:31HQ4X3T3THHE9UA7T474LICYCZLSA", "current_trial": 70, "dateTime": 1510774041792, "trialdata": {"rt": -1000, "stimulus": "/static/audio/wordpool/APRON.wav", "key_press": -1, "type": "PRES_AUD", "word": "apron", "wordID": 34, "conditions": [18, 1200, "a", 18000], "trial": 1, "serialpos": 15, "trial_type": "single-audio", "trial_index": 70, "time_elapsed": 321758, "internal_node_id": "0.0-52.0"}}, {"uniqueid": "MTK0352:31HQ4X3T3THHE9UA7T474LICYCZLSA", "current_trial": 71, "dateTime": 1510774044178, "trialdata": {"rt": -1000, "stimulus": "/static/audio/wordpool/WAITRESS.wav", "key_press": -1, "type": "PRES_AUD", "word": "waitress", "wordID": 1580, "conditions": [18, 1200, "a", 18000], "trial": 1, "serialpos": 16, "trial_type": "single-audio", "trial_index": 71, "time_elapsed": 324144, "internal_node_id": "0.0-53.0"}}, {"uniqueid": "MTK0352:31HQ4X3T3THHE9UA7T474LICYCZLSA", "current_trial": 72, "dateTime": 1510774046397, "trialdata": {"rt": -1000, "stimulus": "/static/audio/wordpool/CLOTHES.wav", "key_press": -1, "type": "PRES_AUD", "word": "clothes", "wordID": 326, "conditions": [18, 1200, "a", 18000], "trial": 1, "serialpos": 17, "trial_type": "single-audio", "trial_index": 72, "time_elapsed": 326363, "internal_node_id": "0.0-54.0"}}, {"uniqueid": "MTK0352:31HQ4X3T3THHE9UA7T474LICYCZLSA", "current_trial": 73, "dateTime": 1510774047685, "trialdata": {"rt": -1, "stimulus": "", "key_press": -1, "type": "PRE_RECALL_DELAY", "trial_type": "single-stim", "trial_index": 73, "time_elapsed": 327651, "internal_node_id": "0.0-55.0-0.0"}}, {"uniqueid": "MTK0352:31HQ4X3T3THHE9UA7T474LICYCZLSA", "current_trial": 74, "dateTime": 1510774048186, "trialdata": {"rt": -1000, "stimulus": "/static/audio/400Hz.wav", "key_press": -1, "type": "PRE_RECALL_ALERT", "trial_type": "single-audio", "trial_index": 74, "time_elapsed": 328152, "internal_node_id": "0.0-56.0"}}], "questiondata": {}, "eventdata": [{"eventtype": "initialized", "value": null, "timestamp": 1510773705375, "interval": 0}, {"eventtype": "window_resize", "value": [1077, 914], "timestamp": 1510773705375, "interval": 0}, {"eventtype": "window_resize", "value": [1077, 889], "timestamp": 1510773727758, "interval": 22383}, {"eventtype": "window_resize", "value": [1077, 883], "timestamp": 1510773728049, "interval": 291}, {"eventtype": "focus", "value": "off", "timestamp": 1510773748382, "interval": 20333}, {"eventtype": "focus", "value": "on", "timestamp": 1510773754710, "interval": 6328}, {"eventtype": "window_resize", "value": [1196, 981], "timestamp": 1510773808898, "interval": 54188}, {"eventtype": "window_resize", "value": [1197, 980], "timestamp": 1510773865719, "interval": 56821}, {"eventtype": "window_resize", "value": [713, 563], "timestamp": 1510773867468, "interval": 1749}, {"eventtype": "window_resize", "value": [743, 575], "timestamp": 1510773868155, "interval": 687}, {"eventtype": "focus", "value": "off", "timestamp": 1510773877486, "interval": 9331}, {"eventtype": "focus", "value": "on", "timestamp": 1510773902585, "interval": 25099}, {"eventtype": "window_resize", "value": [743, 872], "timestamp": 1510773951766, "interval": 49181}, {"eventtype": "window_resize", "value": [743, 497], "timestamp": 1510773952703, "interval": 937}, {"eventtype": "window_resize", "value": [743, 594], "timestamp": 1510773953333, "interval": 630}, {"eventtype": "focus", "value": "off", "timestamp": 1510773956172, "interval": 2839}, {"eventtype": "focus", "value": "on", "timestamp": 1510773972560, "interval": 16388}, {"eventtype": "focus", "value": "off", "timestamp": 1510773994780, "interval": 22220}, {"eventtype": "focus", "value": "on", "timestamp": 1510774049838, "interval": 55058}, {"eventtype": "focus", "value": "off", "timestamp": 1510774074462, "interval": 24624}], "useragent": "Mozilla/5.0 (Windows NT 6.1; Win64; x64) AppleWebKit/537.36 (KHTML, like Gecko) Chrome/61.0.3163.100 Safari/537.36", "mode": "live", "status": "user data saved"}