{"condition": 0, "counterbalance": 442, "assignmentId": "3300DTYQT3ORVN55Y3SYWQDR9XREQJ", "workerId": "MTK0942", "hitId": "3ZQA3IO31BYN3Q0JH00DBH3DPFV1OY", "currenttrial": 581, "bonus": 0, "data": [{"uniqueid": "MTK0942:3300DTYQT3ORVN55Y3SYWQDR9XREQJ", "current_trial": 0, "dateTime": 1512930298164, "trialdata": {"rt": 3978, "key_press": 32, "type": "INSTRUCTIONS", "trial_type": "text", "trial_index": 0, "time_elapsed": 3985, "internal_node_id": "0.0-0.0"}}, {"uniqueid": "MTK0942:3300DTYQT3ORVN55Y3SYWQDR9XREQJ", "current_trial": 1, "dateTime": 1512930328228, "trialdata": {"rt": 30058, "key_press": 32, "type": "INSTRUCTIONS", "trial_type": "text", "trial_index": 1, "time_elapsed": 34052, "internal_node_id": "0.0-1.0"}}, {"uniqueid": "MTK0942:3300DTYQT3ORVN55Y3SYWQDR9XREQJ", "current_trial": 2, "dateTime": 1512930359951, "trialdata": {"rt": [31666], "responses": ["ocean"], "type": "AUDIO_TEST", "trial_type": "audio-test", "trial_index": 2, "time_elapsed": 65776, "internal_node_id": "0.0-2.0"}}, {"uniqueid": "MTK0942:3300DTYQT3ORVN55Y3SYWQDR9XREQJ", "current_trial": 3, "dateTime": 1512930386202, "trialdata": {"rt": [26243], "responses": ["crystal"], "type": "AUDIO_TEST", "trial_type": "audio-test", "trial_index": 3, "time_elapsed": 92027, "internal_node_id": "0.0-3.0"}}, {"uniqueid": "MTK0942:3300DTYQT3ORVN55Y3SYWQDR9XREQJ", "current_trial": 4, "dateTime": 1512930392142, "trialdata": {"rt": [5931], "responses": ["spice"], "type": "AUDIO_TEST", "trial_type": "audio-test", "trial_index": 4, "time_elapsed": 97967, "internal_node_id": "0.0-4.0"}}, {"uniqueid": "MTK0942:3300DTYQT3ORVN55Y3SYWQDR9XREQJ", "current_trial": 5, "dateTime": 1512930413694, "trialdata": {"rt": 20798, "responses": "{\"Q0\":\"11:00 pm\",\"Q1\":\"7:00 am\",\"Q2\":\"3\"}", "type": "SLEEP_SURVEY", "trial_type": "survey-text", "trial_index": 5, "time_elapsed": 119519, "internal_node_id": "0.0-5.0"}}, {"uniqueid": "MTK0942:3300DTYQT3ORVN55Y3SYWQDR9XREQJ", "current_trial": 6, "dateTime": 1512930448191, "trialdata": {"rt": 33491, "key_press": 32, "type": "INSTRUCTIONS", "trial_type": "text", "trial_index": 6, "time_elapsed": 154016, "internal_node_id": "0.0-6.0"}}, {"uniqueid": "MTK0942:3300DTYQT3ORVN55Y3SYWQDR9XREQJ", "current_trial": 7, "dateTime": 1512930473569, "trialdata": {"rt": 24875, "key_press": 32, "type": "INSTRUCTIONS", "trial_type": "text", "trial_index": 7, "time_elapsed": 179394, "internal_node_id": "0.0-7.0"}}, {"uniqueid": "MTK0942:3300DTYQT3ORVN55Y3SYWQDR9XREQJ", "current_trial": 8, "dateTime": 1512930484626, "trialdata": {"rt": 10555, "key_press": 32, "type": "INSTRUCTIONS", "trial_type": "text", "trial_index": 8, "time_elapsed": 190451, "internal_node_id": "0.0-8.0"}}, {"uniqueid": "MTK0942:3300DTYQT3ORVN55Y3SYWQDR9XREQJ", "current_trial": 9, "dateTime": 1512930503685, "trialdata": {"rt": [2456, 6103, 7852, 9928, 12103, 13739, 17827], "responses": ["11", "20", "16", "12", "13", "11", "19"], "num1": [2, 5, 6, 1, 7, 2, 7, 7], "num2": [6, 6, 9, 5, 3, 8, 4, 9], "num3": [3, 9, 1, 6, 3, 1, 8, 6], "type": "DISTRACTOR", "conditions": [18, 1200, "a", 18000], "trial": 0, "trial_type": "math-distractor", "trial_index": 9, "time_elapsed": 209510, "internal_node_id": "0.0-9.0"}}, {"uniqueid": "MTK0942:3300DTYQT3ORVN55Y3SYWQDR9XREQJ", "current_trial": 10, "dateTime": 1512930506693, "trialdata": {"rt": -1, "stimulus": "<p id=\"stim\">10</p>", "key_press": -1, "trial_type": "single-stim", "trial_index": 10, "time_elapsed": 212518, "internal_node_id": "0.0-10.0-0.0"}}, {"uniqueid": "MTK0942:3300DTYQT3ORVN55Y3SYWQDR9XREQJ", "current_trial": 11, "dateTime": 1512930507697, "trialdata": {"rt": -1, "stimulus": "<p id=\"stim\">9</p>", "key_press": -1, "trial_type": "single-stim", "trial_index": 11, "time_elapsed": 213522, "internal_node_id": "0.0-10.0-1.0"}}, {"uniqueid": "MTK0942:3300DTYQT3ORVN55Y3SYWQDR9XREQJ", "current_trial": 12, "dateTime": 1512930508701, "trialdata": {"rt": -1, "stimulus": "<p id=\"stim\">8</p>", "key_press": -1, "trial_type": "single-stim", "trial_index": 12, "time_elapsed": 214526, "internal_node_id": "0.0-10.0-2.0"}}, {"uniqueid": "MTK0942:3300DTYQT3ORVN55Y3SYWQDR9XREQJ", "current_trial": 13, "dateTime": 1512930509703, "trialdata": {"rt": -1, "stimulus": "<p id=\"stim\">7</p>", "key_press": -1, "trial_type": "single-stim", "trial_index": 13, "time_elapsed": 215528, "internal_node_id": "0.0-10.0-3.0"}}, {"uniqueid": "MTK0942:3300DTYQT3ORVN55Y3SYWQDR9XREQJ", "current_trial": 14, "dateTime": 1512930510709, "trialdata": {"rt": -1, "stimulus": "<p id=\"stim\">6</p>", "key_press": -1, "trial_type": "single-stim", "trial_index": 14, "time_elapsed": 216533, "internal_node_id": "0.0-10.0-4.0"}}, {"uniqueid": "MTK0942:3300DTYQT3ORVN55Y3SYWQDR9XREQJ", "current_trial": 15, "dateTime": 1512930511711, "trialdata": {"rt": -1, "stimulus": "<p id=\"stim\">5</p>", "key_press": -1, "trial_type": "single-stim", "trial_index": 15, "time_elapsed": 217536, "internal_node_id": "0.0-10.0-5.0"}}, {"uniqueid": "MTK0942:3300DTYQT3ORVN55Y3SYWQDR9XREQJ", "current_trial": 16, "dateTime": 1512930512712, "trialdata": {"rt": -1, "stimulus": "<p id=\"stim\">4</p>", "key_press": -1, "trial_type": "single-stim", "trial_index": 16, "time_elapsed": 218537, "internal_node_id": "0.0-10.0-6.0"}}, {"uniqueid": "MTK0942:3300DTYQT3ORVN55Y3SYWQDR9XREQJ", "current_trial": 17, "dateTime": 1512930513714, "trialdata": {"rt": -1, "stimulus": "<p id=\"stim\">3</p>", "key_press": -1, "trial_type": "single-stim", "trial_index": 17, "time_elapsed": 219539, "internal_node_id": "0.0-10.0-7.0"}}, {"uniqueid": "MTK0942:3300DTYQT3ORVN55Y3SYWQDR9XREQJ", "current_trial": 18, "dateTime": 1512930514717, "trialdata": {"rt": -1, "stimulus": "<p id=\"stim\">2</p>", "key_press": -1, "trial_type": "single-stim", "trial_index": 18, "time_elapsed": 220542, "internal_node_id": "0.0-10.0-8.0"}}, {"uniqueid": "MTK0942:3300DTYQT3ORVN55Y3SYWQDR9XREQJ", "current_trial": 19, "dateTime": 1512930515720, "trialdata": {"rt": -1, "stimulus": "<p id=\"stim\">1</p>", "key_press": -1, "trial_type": "single-stim", "trial_index": 19, "time_elapsed": 221544, "internal_node_id": "0.0-10.0-9.0"}}, {"uniqueid": "MTK0942:3300DTYQT3ORVN55Y3SYWQDR9XREQJ", "current_trial": 20, "dateTime": 1512930517225, "trialdata": {"rt": -1, "stimulus": "<p id=\"stim\">+</p>", "key_press": -1, "type": "FIXATION", "trial_type": "single-stim", "trial_index": 20, "time_elapsed": 223048, "internal_node_id": "0.0-11.0-0.0"}}, {"uniqueid": "MTK0942:3300DTYQT3ORVN55Y3SYWQDR9XREQJ", "current_trial": 21, "dateTime": 1512930519367, "trialdata": {"rt": -1000, "stimulus": "/static/audio/wordpool/TOASTER.wav", "key_press": -1, "type": "PRES_AUD", "word": "toaster", "wordID": 1471, "conditions": [18, 1200, "a", 18000], "trial": 0, "serialpos": 0, "trial_type": "single-audio", "trial_index": 21, "time_elapsed": 225192, "internal_node_id": "0.0-12.0"}}, {"uniqueid": "MTK0942:3300DTYQT3ORVN55Y3SYWQDR9XREQJ", "current_trial": 22, "dateTime": 1512930521732, "trialdata": {"rt": -1000, "stimulus": "/static/audio/wordpool/BANKER.wav", "key_press": -1, "type": "PRES_AUD", "word": "banker", "wordID": 83, "conditions": [18, 1200, "a", 18000], "trial": 0, "serialpos": 1, "trial_type": "single-audio", "trial_index": 22, "time_elapsed": 227557, "internal_node_id": "0.0-13.0"}}, {"uniqueid": "MTK0942:3300DTYQT3ORVN55Y3SYWQDR9XREQJ", "current_trial": 23, "dateTime": 1512930523757, "trialdata": {"rt": -1000, "stimulus": "/static/audio/wordpool/CONTRACT.wav", "key_press": -1, "type": "PRES_AUD", "word": "contract", "wordID": 367, "conditions": [18, 1200, "a", 18000], "trial": 0, "serialpos": 2, "trial_type": "single-audio", "trial_index": 23, "time_elapsed": 229582, "internal_node_id": "0.0-14.0"}}, {"uniqueid": "MTK0942:3300DTYQT3ORVN55Y3SYWQDR9XREQJ", "current_trial": 24, "dateTime": 1512930525936, "trialdata": {"rt": -1000, "stimulus": "/static/audio/wordpool/BRANCH.wav", "key_press": -1, "type": "PRES_AUD", "word": "branch", "wordID": 167, "conditions": [18, 1200, "a", 18000], "trial": 0, "serialpos": 3, "trial_type": "single-audio", "trial_index": 24, "time_elapsed": 231761, "internal_node_id": "0.0-15.0"}}, {"uniqueid": "MTK0942:3300DTYQT3ORVN55Y3SYWQDR9XREQJ", "current_trial": 25, "dateTime": 1512930528186, "trialdata": {"rt": -1000, "stimulus": "/static/audio/wordpool/XEROX.wav", "key_press": -1, "type": "PRES_AUD", "word": "xerox", "wordID": 1627, "conditions": [18, 1200, "a", 18000], "trial": 0, "serialpos": 4, "trial_type": "single-audio", "trial_index": 25, "time_elapsed": 234011, "internal_node_id": "0.0-16.0"}}, {"uniqueid": "MTK0942:3300DTYQT3ORVN55Y3SYWQDR9XREQJ", "current_trial": 26, "dateTime": 1512930530533, "trialdata": {"rt": -1000, "stimulus": "/static/audio/wordpool/RAFT.wav", "key_press": -1, "type": "PRES_AUD", "word": "raft", "wordID": 1158, "conditions": [18, 1200, "a", 18000], "trial": 0, "serialpos": 5, "trial_type": "single-audio", "trial_index": 26, "time_elapsed": 236358, "internal_node_id": "0.0-17.0"}}, {"uniqueid": "MTK0942:3300DTYQT3ORVN55Y3SYWQDR9XREQJ", "current_trial": 27, "dateTime": 1512930532628, "trialdata": {"rt": -1000, "stimulus": "/static/audio/wordpool/BRIEFCASE.wav", "key_press": -1, "type": "PRES_AUD", "word": "briefcase", "wordID": 174, "conditions": [18, 1200, "a", 18000], "trial": 0, "serialpos": 6, "trial_type": "single-audio", "trial_index": 27, "time_elapsed": 238453, "internal_node_id": "0.0-18.0"}}, {"uniqueid": "MTK0942:3300DTYQT3ORVN55Y3SYWQDR9XREQJ", "current_trial": 28, "dateTime": 1512930534936, "trialdata": {"rt": -1000, "stimulus": "/static/audio/wordpool/RUG.wav", "key_press": -1, "type": "PRES_AUD", "word": "rug", "wordID": 1214, "conditions": [18, 1200, "a", 18000], "trial": 0, "serialpos": 7, "trial_type": "single-audio", "trial_index": 28, "time_elapsed": 240761, "internal_node_id": "0.0-19.0"}}, {"uniqueid": "MTK0942:3300DTYQT3ORVN55Y3SYWQDR9XREQJ", "current_trial": 29, "dateTime": 1512930536972, "trialdata": {"rt": -1000, "stimulus": "/static/audio/wordpool/STUDENT.wav", "key_press": -1, "type": "PRES_AUD", "word": "student", "wordID": 1394, "conditions": [18, 1200, "a", 18000], "trial": 0, "serialpos": 8, "trial_type": "single-audio", "trial_index": 29, "time_elapsed": 242797, "internal_node_id": "0.0-20.0"}}, {"uniqueid": "MTK0942:3300DTYQT3ORVN55Y3SYWQDR9XREQJ", "current_trial": 30, "dateTime": 1512930539014, "trialdata": {"rt": -1000, "stimulus": "/static/audio/wordpool/PIZZA.wav", "key_press": -1, "type": "PRES_AUD", "word": "pizza", "wordID": 1078, "conditions": [18, 1200, "a", 18000], "trial": 0, "serialpos": 9, "trial_type": "single-audio", "trial_index": 30, "time_elapsed": 244838, "internal_node_id": "0.0-21.0"}}, {"uniqueid": "MTK0942:3300DTYQT3ORVN55Y3SYWQDR9XREQJ", "current_trial": 31, "dateTime": 1512930541229, "trialdata": {"rt": -1000, "stimulus": "/static/audio/wordpool/QUEEN.wav", "key_press": -1, "type": "PRES_AUD", "word": "queen", "wordID": 1148, "conditions": [18, 1200, "a", 18000], "trial": 0, "serialpos": 10, "trial_type": "single-audio", "trial_index": 31, "time_elapsed": 247054, "internal_node_id": "0.0-22.0"}}, {"uniqueid": "MTK0942:3300DTYQT3ORVN55Y3SYWQDR9XREQJ", "current_trial": 32, "dateTime": 1512930543533, "trialdata": {"rt": -1000, "stimulus": "/static/audio/wordpool/PALACE.wav", "key_press": -1, "type": "PRES_AUD", "word": "palace", "wordID": 1005, "conditions": [18, 1200, "a", 18000], "trial": 0, "serialpos": 11, "trial_type": "single-audio", "trial_index": 32, "time_elapsed": 249358, "internal_node_id": "0.0-23.0"}}, {"uniqueid": "MTK0942:3300DTYQT3ORVN55Y3SYWQDR9XREQJ", "current_trial": 33, "dateTime": 1512930545918, "trialdata": {"rt": -1000, "stimulus": "/static/audio/wordpool/TUBA.wav", "key_press": -1, "type": "PRES_AUD", "word": "tuba", "wordID": 1514, "conditions": [18, 1200, "a", 18000], "trial": 0, "serialpos": 12, "trial_type": "single-audio", "trial_index": 33, "time_elapsed": 251743, "internal_node_id": "0.0-24.0"}}, {"uniqueid": "MTK0942:3300DTYQT3ORVN55Y3SYWQDR9XREQJ", "current_trial": 34, "dateTime": 1512930548014, "trialdata": {"rt": -1000, "stimulus": "/static/audio/wordpool/DOUGHNUT.wav", "key_press": -1, "type": "PRES_AUD", "word": "doughnut", "wordID": 489, "conditions": [18, 1200, "a", 18000], "trial": 0, "serialpos": 13, "trial_type": "single-audio", "trial_index": 34, "time_elapsed": 253838, "internal_node_id": "0.0-25.0"}}, {"uniqueid": "MTK0942:3300DTYQT3ORVN55Y3SYWQDR9XREQJ", "current_trial": 35, "dateTime": 1512930550075, "trialdata": {"rt": -1000, "stimulus": "/static/audio/wordpool/GUARD.wav", "key_press": -1, "type": "PRES_AUD", "word": "guard", "wordID": 666, "conditions": [18, 1200, "a", 18000], "trial": 0, "serialpos": 14, "trial_type": "single-audio", "trial_index": 35, "time_elapsed": 255900, "internal_node_id": "0.0-26.0"}}, {"uniqueid": "MTK0942:3300DTYQT3ORVN55Y3SYWQDR9XREQJ", "current_trial": 36, "dateTime": 1512930552274, "trialdata": {"rt": -1000, "stimulus": "/static/audio/wordpool/CUSTARD.wav", "key_press": -1, "type": "PRES_AUD", "word": "custard", "wordID": 428, "conditions": [18, 1200, "a", 18000], "trial": 0, "serialpos": 15, "trial_type": "single-audio", "trial_index": 36, "time_elapsed": 258098, "internal_node_id": "0.0-27.0"}}, {"uniqueid": "MTK0942:3300DTYQT3ORVN55Y3SYWQDR9XREQJ", "current_trial": 37, "dateTime": 1512930554672, "trialdata": {"rt": -1000, "stimulus": "/static/audio/wordpool/PEPPER.wav", "key_press": -1, "type": "PRES_AUD", "word": "pepper", "wordID": 1046, "conditions": [18, 1200, "a", 18000], "trial": 0, "serialpos": 16, "trial_type": "single-audio", "trial_index": 37, "time_elapsed": 260496, "internal_node_id": "0.0-28.0"}}, {"uniqueid": "MTK0942:3300DTYQT3ORVN55Y3SYWQDR9XREQJ", "current_trial": 38, "dateTime": 1512930556720, "trialdata": {"rt": -1000, "stimulus": "/static/audio/wordpool/WASP.wav", "key_press": -1, "type": "PRES_AUD", "word": "wasp", "wordID": 1592, "conditions": [18, 1200, "a", 18000], "trial": 0, "serialpos": 17, "trial_type": "single-audio", "trial_index": 38, "time_elapsed": 262544, "internal_node_id": "0.0-29.0"}}, {"uniqueid": "MTK0942:3300DTYQT3ORVN55Y3SYWQDR9XREQJ", "current_trial": 39, "dateTime": 1512930558025, "trialdata": {"rt": -1, "stimulus": "", "key_press": -1, "type": "PRE_RECALL_DELAY", "trial_type": "single-stim", "trial_index": 39, "time_elapsed": 263849, "internal_node_id": "0.0-30.0-0.0"}}, {"uniqueid": "MTK0942:3300DTYQT3ORVN55Y3SYWQDR9XREQJ", "current_trial": 40, "dateTime": 1512930558528, "trialdata": {"rt": -1000, "stimulus": "/static/audio/400Hz.wav", "key_press": -1, "type": "PRE_RECALL_ALERT", "trial_type": "single-audio", "trial_index": 40, "time_elapsed": 264352, "internal_node_id": "0.0-31.0"}}, {"uniqueid": "MTK0942:3300DTYQT3ORVN55Y3SYWQDR9XREQJ", "current_trial": 41, "dateTime": 1512930618542, "trialdata": {"rt": [4646, 6769, 9566, 10774, 13050, 18805, 20735, 25204, 32220, 34143, 42236, 51841], "recwords": ["banker", "student", "donut", "wasp", "queen", "pizza", "palace", "xerox", "branch", "contract", "briefcase", "pepper"], "type": "FREE_RECALL", "conditions": [18, 1200, "a", 18000], "trial": 0, "trial_type": "free-recall", "trial_index": 41, "time_elapsed": 324358, "internal_node_id": "0.0-32.0-0.0"}}, {"uniqueid": "MTK0942:3300DTYQT3ORVN55Y3SYWQDR9XREQJ", "current_trial": 42, "dateTime": 1512930622033, "trialdata": {"rt": 1489, "key_press": 32, "type": "INSTRUCTIONS", "trial_type": "text", "trial_index": 42, "time_elapsed": 327858, "internal_node_id": "0.0-33.0"}}, {"uniqueid": "MTK0942:3300DTYQT3ORVN55Y3SYWQDR9XREQJ", "current_trial": 43, "dateTime": 1512930642043, "trialdata": {"rt": [4827, 6396], "responses": ["15", "13"], "num1": [3, 3, 9], "num2": [8, 4, 5], "num3": [4, 6, 8], "type": "DISTRACTOR", "conditions": [18, 1200, "v", 18000], "trial": 1, "trial_type": "math-distractor", "trial_index": 43, "time_elapsed": 347868, "internal_node_id": "0.0-34.0"}}, {"uniqueid": "MTK0942:3300DTYQT3ORVN55Y3SYWQDR9XREQJ", "current_trial": 44, "dateTime": 1512930645045, "trialdata": {"rt": -1, "stimulus": "<p id=\"stim\">10</p>", "key_press": -1, "trial_type": "single-stim", "trial_index": 44, "time_elapsed": 350870, "internal_node_id": "0.0-35.0-0.0"}}, {"uniqueid": "MTK0942:3300DTYQT3ORVN55Y3SYWQDR9XREQJ", "current_trial": 45, "dateTime": 1512930646048, "trialdata": {"rt": -1, "stimulus": "<p id=\"stim\">9</p>", "key_press": -1, "trial_type": "single-stim", "trial_index": 45, "time_elapsed": 351872, "internal_node_id": "0.0-35.0-1.0"}}, {"uniqueid": "MTK0942:3300DTYQT3ORVN55Y3SYWQDR9XREQJ", "current_trial": 46, "dateTime": 1512930647051, "trialdata": {"rt": -1, "stimulus": "<p id=\"stim\">8</p>", "key_press": -1, "trial_type": "single-stim", "trial_index": 46, "time_elapsed": 352875, "internal_node_id": "0.0-35.0-2.0"}}, {"uniqueid": "MTK0942:3300DTYQT3ORVN55Y3SYWQDR9XREQJ", "current_trial": 47, "dateTime": 1512930648053, "trialdata": {"rt": -1, "stimulus": "<p id=\"stim\">7</p>", "key_press": -1, "trial_type": "single-stim", "trial_index": 47, "time_elapsed": 353877, "internal_node_id": "0.0-35.0-3.0"}}, {"uniqueid": "MTK0942:3300DTYQT3ORVN55Y3SYWQDR9XREQJ", "current_trial": 48, "dateTime": 1512930649055, "trialdata": {"rt": -1, "stimulus": "<p id=\"stim\">6</p>", "key_press": -1, "trial_type": "single-stim", "trial_index": 48, "time_elapsed": 354880, "internal_node_id": "0.0-35.0-4.0"}}, {"uniqueid": "MTK0942:3300DTYQT3ORVN55Y3SYWQDR9XREQJ", "current_trial": 49, "dateTime": 1512930650056, "trialdata": {"rt": -1, "stimulus": "<p id=\"stim\">5</p>", "key_press": -1, "trial_type": "single-stim", "trial_index": 49, "time_elapsed": 355881, "internal_node_id": "0.0-35.0-5.0"}}, {"uniqueid": "MTK0942:3300DTYQT3ORVN55Y3SYWQDR9XREQJ", "current_trial": 50, "dateTime": 1512930651058, "trialdata": {"rt": -1, "stimulus": "<p id=\"stim\">4</p>", "key_press": -1, "trial_type": "single-stim", "trial_index": 50, "time_elapsed": 356883, "internal_node_id": "0.0-35.0-6.0"}}, {"uniqueid": "MTK0942:3300DTYQT3ORVN55Y3SYWQDR9XREQJ", "current_trial": 51, "dateTime": 1512930652060, "trialdata": {"rt": -1, "stimulus": "<p id=\"stim\">3</p>", "key_press": -1, "trial_type": "single-stim", "trial_index": 51, "time_elapsed": 357884, "internal_node_id": "0.0-35.0-7.0"}}, {"uniqueid": "MTK0942:3300DTYQT3ORVN55Y3SYWQDR9XREQJ", "current_trial": 52, "dateTime": 1512930653062, "trialdata": {"rt": -1, "stimulus": "<p id=\"stim\">2</p>", "key_press": -1, "trial_type": "single-stim", "trial_index": 52, "time_elapsed": 358887, "internal_node_id": "0.0-35.0-8.0"}}, {"uniqueid": "MTK0942:3300DTYQT3ORVN55Y3SYWQDR9XREQJ", "current_trial": 53, "dateTime": 1512930654066, "trialdata": {"rt": -1, "stimulus": "<p id=\"stim\">1</p>", "key_press": -1, "trial_type": "single-stim", "trial_index": 53, "time_elapsed": 359890, "internal_node_id": "0.0-35.0-9.0"}}, {"uniqueid": "MTK0942:3300DTYQT3ORVN55Y3SYWQDR9XREQJ", "current_trial": 54, "dateTime": 1512930655567, "trialdata": {"rt": -1, "stimulus": "<p id=\"stim\">+</p>", "key_press": -1, "type": "FIXATION", "trial_type": "single-stim", "trial_index": 54, "time_elapsed": 361392, "internal_node_id": "0.0-36.0-0.0"}}, {"uniqueid": "MTK0942:3300DTYQT3ORVN55Y3SYWQDR9XREQJ", "current_trial": 55, "dateTime": 1512930656769, "trialdata": {"rt": -1, "stimulus": "<p id=\"stim\">SUPPER</p>", "key_press": -1, "type": "PRES_VIS", "word": "supper", "wordID": 1410, "conditions": [18, 1200, "v", 18000], "trial": 1, "serialpos": 0, "trial_type": "single-stim", "trial_index": 55, "time_elapsed": 362594, "internal_node_id": "0.0-37.0"}}, {"uniqueid": "MTK0942:3300DTYQT3ORVN55Y3SYWQDR9XREQJ", "current_trial": 56, "dateTime": 1512930658855, "trialdata": {"rt": -1, "stimulus": "<p id=\"stim\">CLOCK</p>", "key_press": -1, "type": "PRES_VIS", "word": "clock", "wordID": 324, "conditions": [18, 1200, "v", 18000], "trial": 1, "serialpos": 1, "trial_type": "single-stim", "trial_index": 56, "time_elapsed": 364679, "internal_node_id": "0.0-38.0"}}, {"uniqueid": "MTK0942:3300DTYQT3ORVN55Y3SYWQDR9XREQJ", "current_trial": 57, "dateTime": 1512930661084, "trialdata": {"rt": -1, "stimulus": "<p id=\"stim\">PLIERS</p>", "key_press": -1, "type": "PRES_VIS", "word": "pliers", "wordID": 1088, "conditions": [18, 1200, "v", 18000], "trial": 1, "serialpos": 2, "trial_type": "single-stim", "trial_index": 57, "time_elapsed": 366909, "internal_node_id": "0.0-39.0"}}, {"uniqueid": "MTK0942:3300DTYQT3ORVN55Y3SYWQDR9XREQJ", "current_trial": 58, "dateTime": 1512930663252, "trialdata": {"rt": -1, "stimulus": "<p id=\"stim\">TABLET</p>", "key_press": -1, "type": "PRES_VIS", "word": "tablet", "wordID": 1426, "conditions": [18, 1200, "v", 18000], "trial": 1, "serialpos": 3, "trial_type": "single-stim", "trial_index": 58, "time_elapsed": 369076, "internal_node_id": "0.0-40.0"}}, {"uniqueid": "MTK0942:3300DTYQT3ORVN55Y3SYWQDR9XREQJ", "current_trial": 59, "dateTime": 1512930665487, "trialdata": {"rt": -1, "stimulus": "<p id=\"stim\">PISTON</p>", "key_press": -1, "type": "PRES_VIS", "word": "piston", "wordID": 1075, "conditions": [18, 1200, "v", 18000], "trial": 1, "serialpos": 4, "trial_type": "single-stim", "trial_index": 59, "time_elapsed": 371312, "internal_node_id": "0.0-41.0"}}, {"uniqueid": "MTK0942:3300DTYQT3ORVN55Y3SYWQDR9XREQJ", "current_trial": 60, "dateTime": 1512930667586, "trialdata": {"rt": -1, "stimulus": "<p id=\"stim\">ITEM</p>", "key_press": -1, "type": "PRES_VIS", "word": "item", "wordID": 745, "conditions": [18, 1200, "v", 18000], "trial": 1, "serialpos": 5, "trial_type": "single-stim", "trial_index": 60, "time_elapsed": 373410, "internal_node_id": "0.0-42.0"}}, {"uniqueid": "MTK0942:3300DTYQT3ORVN55Y3SYWQDR9XREQJ", "current_trial": 61, "dateTime": 1512930669662, "trialdata": {"rt": -1, "stimulus": "<p id=\"stim\">PRIMATE</p>", "key_press": -1, "type": "PRES_VIS", "word": "primate", "wordID": 1122, "conditions": [18, 1200, "v", 18000], "trial": 1, "serialpos": 6, "trial_type": "single-stim", "trial_index": 61, "time_elapsed": 375486, "internal_node_id": "0.0-43.0"}}, {"uniqueid": "MTK0942:3300DTYQT3ORVN55Y3SYWQDR9XREQJ", "current_trial": 62, "dateTime": 1512930671747, "trialdata": {"rt": -1, "stimulus": "<p id=\"stim\">SURVEY</p>", "key_press": -1, "type": "PRES_VIS", "word": "survey", "wordID": 1413, "conditions": [18, 1200, "v", 18000], "trial": 1, "serialpos": 7, "trial_type": "single-stim", "trial_index": 62, "time_elapsed": 377572, "internal_node_id": "0.0-44.0"}}, {"uniqueid": "MTK0942:3300DTYQT3ORVN55Y3SYWQDR9XREQJ", "current_trial": 63, "dateTime": 1512930673773, "trialdata": {"rt": -1, "stimulus": "<p id=\"stim\">PARROT</p>", "key_press": -1, "type": "PRES_VIS", "word": "parrot", "wordID": 1014, "conditions": [18, 1200, "v", 18000], "trial": 1, "serialpos": 8, "trial_type": "single-stim", "trial_index": 63, "time_elapsed": 379598, "internal_node_id": "0.0-45.0"}}, {"uniqueid": "MTK0942:3300DTYQT3ORVN55Y3SYWQDR9XREQJ", "current_trial": 64, "dateTime": 1512930675918, "trialdata": {"rt": -1, "stimulus": "<p id=\"stim\">OX</p>", "key_press": -1, "type": "PRES_VIS", "word": "ox", "wordID": 993, "conditions": [18, 1200, "v", 18000], "trial": 1, "serialpos": 9, "trial_type": "single-stim", "trial_index": 64, "time_elapsed": 381742, "internal_node_id": "0.0-46.0"}}, {"uniqueid": "MTK0942:3300DTYQT3ORVN55Y3SYWQDR9XREQJ", "current_trial": 65, "dateTime": 1512930678113, "trialdata": {"rt": -1, "stimulus": "<p id=\"stim\">CAMEL</p>", "key_press": -1, "type": "PRES_VIS", "word": "camel", "wordID": 222, "conditions": [18, 1200, "v", 18000], "trial": 1, "serialpos": 10, "trial_type": "single-stim", "trial_index": 65, "time_elapsed": 383938, "internal_node_id": "0.0-47.0"}}, {"uniqueid": "MTK0942:3300DTYQT3ORVN55Y3SYWQDR9XREQJ", "current_trial": 66, "dateTime": 1512930680228, "trialdata": {"rt": -1, "stimulus": "<p id=\"stim\">VENUS</p>", "key_press": -1, "type": "PRES_VIS", "word": "venus", "wordID": 1556, "conditions": [18, 1200, "v", 18000], "trial": 1, "serialpos": 11, "trial_type": "single-stim", "trial_index": 66, "time_elapsed": 386053, "internal_node_id": "0.0-48.0"}}, {"uniqueid": "MTK0942:3300DTYQT3ORVN55Y3SYWQDR9XREQJ", "current_trial": 67, "dateTime": 1512930682236, "trialdata": {"rt": -1, "stimulus": "<p id=\"stim\">FOREST</p>", "key_press": -1, "type": "PRES_VIS", "word": "forest", "wordID": 592, "conditions": [18, 1200, "v", 18000], "trial": 1, "serialpos": 12, "trial_type": "single-stim", "trial_index": 67, "time_elapsed": 388061, "internal_node_id": "0.0-49.0"}}, {"uniqueid": "MTK0942:3300DTYQT3ORVN55Y3SYWQDR9XREQJ", "current_trial": 68, "dateTime": 1512930684299, "trialdata": {"rt": -1, "stimulus": "<p id=\"stim\">DRESS</p>", "key_press": -1, "type": "PRES_VIS", "word": "dress", "wordID": 494, "conditions": [18, 1200, "v", 18000], "trial": 1, "serialpos": 13, "trial_type": "single-stim", "trial_index": 68, "time_elapsed": 390118, "internal_node_id": "0.0-50.0"}}, {"uniqueid": "MTK0942:3300DTYQT3ORVN55Y3SYWQDR9XREQJ", "current_trial": 69, "dateTime": 1512930686634, "trialdata": {"rt": -1, "stimulus": "<p id=\"stim\">GAZELLE</p>", "key_press": -1, "type": "PRES_VIS", "word": "gazelle", "wordID": 627, "conditions": [18, 1200, "v", 18000], "trial": 1, "serialpos": 14, "trial_type": "single-stim", "trial_index": 69, "time_elapsed": 392459, "internal_node_id": "0.0-51.0"}}, {"uniqueid": "MTK0942:3300DTYQT3ORVN55Y3SYWQDR9XREQJ", "current_trial": 70, "dateTime": 1512930688725, "trialdata": {"rt": -1, "stimulus": "<p id=\"stim\">ZEBRA</p>", "key_press": -1, "type": "PRES_VIS", "word": "zebra", "wordID": 1634, "conditions": [18, 1200, "v", 18000], "trial": 1, "serialpos": 15, "trial_type": "single-stim", "trial_index": 70, "time_elapsed": 394549, "internal_node_id": "0.0-52.0"}}, {"uniqueid": "MTK0942:3300DTYQT3ORVN55Y3SYWQDR9XREQJ", "current_trial": 71, "dateTime": 1512930690750, "trialdata": {"rt": -1, "stimulus": "<p id=\"stim\">OZONE</p>", "key_press": -1, "type": "PRES_VIS", "word": "ozone", "wordID": 995, "conditions": [18, 1200, "v", 18000], "trial": 1, "serialpos": 16, "trial_type": "single-stim", "trial_index": 71, "time_elapsed": 396574, "internal_node_id": "0.0-53.0"}}, {"uniqueid": "MTK0942:3300DTYQT3ORVN55Y3SYWQDR9XREQJ", "current_trial": 72, "dateTime": 1512930693121, "trialdata": {"rt": -1, "stimulus": "<p id=\"stim\">JUGGLER</p>", "key_press": -1, "type": "PRES_VIS", "word": "juggler", "wordID": 762, "conditions": [18, 1200, "v", 18000], "trial": 1, "serialpos": 17, "trial_type": "single-stim", "trial_index": 72, "time_elapsed": 398945, "internal_node_id": "0.0-54.0"}}, {"uniqueid": "MTK0942:3300DTYQT3ORVN55Y3SYWQDR9XREQJ", "current_trial": 73, "dateTime": 1512930695189, "trialdata": {"rt": -1, "stimulus": "", "key_press": -1, "type": "PRE_RECALL_DELAY", "trial_type": "single-stim", "trial_index": 73, "time_elapsed": 401014, "internal_node_id": "0.0-55.0-0.0"}}, {"uniqueid": "MTK0942:3300DTYQT3ORVN55Y3SYWQDR9XREQJ", "current_trial": 74, "dateTime": 1512930695693, "trialdata": {"rt": -1000, "stimulus": "/static/audio/400Hz.wav", "key_press": -1, "type": "PRE_RECALL_ALERT", "trial_type": "single-audio", "trial_index": 74, "time_elapsed": 401518, "internal_node_id": "0.0-56.0"}}, {"uniqueid": "MTK0942:3300DTYQT3ORVN55Y3SYWQDR9XREQJ", "current_trial": 75, "dateTime": 1512930755705, "trialdata": {"rt": [3951, 6058, 7698, 9908, 11628, 13229, 26118, 27513, 29540, 45030], "recwords": ["supper", "zebra", "forest", "gazelle", "ox", "camel", "tablet", "item", "survey", "clock"], "type": "FREE_RECALL", "conditions": [18, 1200, "v", 18000], "trial": 1, "trial_type": "free-recall", "trial_index": 75, "time_elapsed": 461522, "internal_node_id": "0.0-57.0-0.0"}}, {"uniqueid": "MTK0942:3300DTYQT3ORVN55Y3SYWQDR9XREQJ", "current_trial": 76, "dateTime": 1512930760686, "trialdata": {"rt": 2964, "key_press": 32, "type": "INSTRUCTIONS", "trial_type": "text", "trial_index": 76, "time_elapsed": 466498, "internal_node_id": "0.0-58.0"}}, {"uniqueid": "MTK0942:3300DTYQT3ORVN55Y3SYWQDR9XREQJ", "current_trial": 77, "dateTime": 1512930785701, "trialdata": {"rt": [2273, 3941, 7688, 9245, 12658, 14609, 16710, 19788, 23567], "responses": ["12", "15", "20", "15", "18", "7", "10", "20", "17"], "num1": [3, 6, 6, 5, 4, 4, 2, 7, 5, 6], "num2": [6, 4, 9, 5, 8, 1, 2, 4, 9, 4], "num3": [3, 5, 5, 5, 6, 2, 6, 9, 3, 7], "type": "DISTRACTOR", "conditions": [12, 800, "v", 24000], "trial": 2, "trial_type": "math-distractor", "trial_index": 77, "time_elapsed": 491526, "internal_node_id": "0.0-59.0"}}, {"uniqueid": "MTK0942:3300DTYQT3ORVN55Y3SYWQDR9XREQJ", "current_trial": 78, "dateTime": 1512930788704, "trialdata": {"rt": -1, "stimulus": "<p id=\"stim\">10</p>", "key_press": -1, "trial_type": "single-stim", "trial_index": 78, "time_elapsed": 494529, "internal_node_id": "0.0-60.0-0.0"}}, {"uniqueid": "MTK0942:3300DTYQT3ORVN55Y3SYWQDR9XREQJ", "current_trial": 79, "dateTime": 1512930789707, "trialdata": {"rt": -1, "stimulus": "<p id=\"stim\">9</p>", "key_press": -1, "trial_type": "single-stim", "trial_index": 79, "time_elapsed": 495532, "internal_node_id": "0.0-60.0-1.0"}}, {"uniqueid": "MTK0942:3300DTYQT3ORVN55Y3SYWQDR9XREQJ", "current_trial": 80, "dateTime": 1512930790710, "trialdata": {"rt": -1, "stimulus": "<p id=\"stim\">8</p>", "key_press": -1, "trial_type": "single-stim", "trial_index": 80, "time_elapsed": 496534, "internal_node_id": "0.0-60.0-2.0"}}, {"uniqueid": "MTK0942:3300DTYQT3ORVN55Y3SYWQDR9XREQJ", "current_trial": 81, "dateTime": 1512930791717, "trialdata": {"rt": -1, "stimulus": "<p id=\"stim\">7</p>", "key_press": -1, "trial_type": "single-stim", "trial_index": 81, "time_elapsed": 497541, "internal_node_id": "0.0-60.0-3.0"}}, {"uniqueid": "MTK0942:3300DTYQT3ORVN55Y3SYWQDR9XREQJ", "current_trial": 82, "dateTime": 1512930792720, "trialdata": {"rt": -1, "stimulus": "<p id=\"stim\">6</p>", "key_press": -1, "trial_type": "single-stim", "trial_index": 82, "time_elapsed": 498544, "internal_node_id": "0.0-60.0-4.0"}}, {"uniqueid": "MTK0942:3300DTYQT3ORVN55Y3SYWQDR9XREQJ", "current_trial": 83, "dateTime": 1512930793724, "trialdata": {"rt": -1, "stimulus": "<p id=\"stim\">5</p>", "key_press": -1, "trial_type": "single-stim", "trial_index": 83, "time_elapsed": 499547, "internal_node_id": "0.0-60.0-5.0"}}, {"uniqueid": "MTK0942:3300DTYQT3ORVN55Y3SYWQDR9XREQJ", "current_trial": 84, "dateTime": 1512930794727, "trialdata": {"rt": -1, "stimulus": "<p id=\"stim\">4</p>", "key_press": -1, "trial_type": "single-stim", "trial_index": 84, "time_elapsed": 500552, "internal_node_id": "0.0-60.0-6.0"}}, {"uniqueid": "MTK0942:3300DTYQT3ORVN55Y3SYWQDR9XREQJ", "current_trial": 85, "dateTime": 1512930795732, "trialdata": {"rt": -1, "stimulus": "<p id=\"stim\">3</p>", "key_press": -1, "trial_type": "single-stim", "trial_index": 85, "time_elapsed": 501557, "internal_node_id": "0.0-60.0-7.0"}}, {"uniqueid": "MTK0942:3300DTYQT3ORVN55Y3SYWQDR9XREQJ", "current_trial": 86, "dateTime": 1512930796736, "trialdata": {"rt": -1, "stimulus": "<p id=\"stim\">2</p>", "key_press": -1, "trial_type": "single-stim", "trial_index": 86, "time_elapsed": 502561, "internal_node_id": "0.0-60.0-8.0"}}, {"uniqueid": "MTK0942:3300DTYQT3ORVN55Y3SYWQDR9XREQJ", "current_trial": 87, "dateTime": 1512930797738, "trialdata": {"rt": -1, "stimulus": "<p id=\"stim\">1</p>", "key_press": -1, "trial_type": "single-stim", "trial_index": 87, "time_elapsed": 503563, "internal_node_id": "0.0-60.0-9.0"}}, {"uniqueid": "MTK0942:3300DTYQT3ORVN55Y3SYWQDR9XREQJ", "current_trial": 88, "dateTime": 1512930799241, "trialdata": {"rt": -1, "stimulus": "<p id=\"stim\">+</p>", "key_press": -1, "type": "FIXATION", "trial_type": "single-stim", "trial_index": 88, "time_elapsed": 505065, "internal_node_id": "0.0-61.0-0.0"}}, {"uniqueid": "MTK0942:3300DTYQT3ORVN55Y3SYWQDR9XREQJ", "current_trial": 89, "dateTime": 1512930800044, "trialdata": {"rt": -1, "stimulus": "<p id=\"stim\">SWIMMER</p>", "key_press": -1, "type": "PRES_VIS", "word": "swimmer", "wordID": 1419, "conditions": [12, 800, "v", 24000], "trial": 2, "serialpos": 0, "trial_type": "single-stim", "trial_index": 89, "time_elapsed": 505868, "internal_node_id": "0.0-62.0"}}, {"uniqueid": "MTK0942:3300DTYQT3ORVN55Y3SYWQDR9XREQJ", "current_trial": 90, "dateTime": 1512930801827, "trialdata": {"rt": -1, "stimulus": "<p id=\"stim\">MESSAGE</p>", "key_press": -1, "type": "PRES_VIS", "word": "message", "wordID": 887, "conditions": [12, 800, "v", 24000], "trial": 2, "serialpos": 1, "trial_type": "single-stim", "trial_index": 90, "time_elapsed": 507652, "internal_node_id": "0.0-63.0"}}, {"uniqueid": "MTK0942:3300DTYQT3ORVN55Y3SYWQDR9XREQJ", "current_trial": 91, "dateTime": 1512930803654, "trialdata": {"rt": -1, "stimulus": "<p id=\"stim\">RAZOR</p>", "key_press": -1, "type": "PRES_VIS", "word": "razor", "wordID": 1170, "conditions": [12, 800, "v", 24000], "trial": 2, "serialpos": 2, "trial_type": "single-stim", "trial_index": 91, "time_elapsed": 509479, "internal_node_id": "0.0-64.0"}}, {"uniqueid": "MTK0942:3300DTYQT3ORVN55Y3SYWQDR9XREQJ", "current_trial": 92, "dateTime": 1512930805598, "trialdata": {"rt": -1, "stimulus": "<p id=\"stim\">SCISSORS</p>", "key_press": -1, "type": "PRES_VIS", "word": "scissors", "wordID": 1249, "conditions": [12, 800, "v", 24000], "trial": 2, "serialpos": 3, "trial_type": "single-stim", "trial_index": 92, "time_elapsed": 511423, "internal_node_id": "0.0-65.0"}}, {"uniqueid": "MTK0942:3300DTYQT3ORVN55Y3SYWQDR9XREQJ", "current_trial": 93, "dateTime": 1512930807537, "trialdata": {"rt": -1, "stimulus": "<p id=\"stim\">HOSTESS</p>", "key_press": -1, "type": "PRES_VIS", "word": "hostess", "wordID": 722, "conditions": [12, 800, "v", 24000], "trial": 2, "serialpos": 4, "trial_type": "single-stim", "trial_index": 93, "time_elapsed": 513362, "internal_node_id": "0.0-66.0"}}, {"uniqueid": "MTK0942:3300DTYQT3ORVN55Y3SYWQDR9XREQJ", "current_trial": 94, "dateTime": 1512930809367, "trialdata": {"rt": -1, "stimulus": "<p id=\"stim\">MUSTARD</p>", "key_press": -1, "type": "PRES_VIS", "word": "mustard", "wordID": 934, "conditions": [12, 800, "v", 24000], "trial": 2, "serialpos": 5, "trial_type": "single-stim", "trial_index": 94, "time_elapsed": 515191, "internal_node_id": "0.0-67.0"}}, {"uniqueid": "MTK0942:3300DTYQT3ORVN55Y3SYWQDR9XREQJ", "current_trial": 95, "dateTime": 1512930811048, "trialdata": {"rt": -1, "stimulus": "<p id=\"stim\">MAMMAL</p>", "key_press": -1, "type": "PRES_VIS", "word": "mammal", "wordID": 860, "conditions": [12, 800, "v", 24000], "trial": 2, "serialpos": 6, "trial_type": "single-stim", "trial_index": 95, "time_elapsed": 516873, "internal_node_id": "0.0-68.0"}}, {"uniqueid": "MTK0942:3300DTYQT3ORVN55Y3SYWQDR9XREQJ", "current_trial": 96, "dateTime": 1512930812987, "trialdata": {"rt": -1, "stimulus": "<p id=\"stim\">LADY</p>", "key_press": -1, "type": "PRES_VIS", "word": "lady", "wordID": 793, "conditions": [12, 800, "v", 24000], "trial": 2, "serialpos": 7, "trial_type": "single-stim", "trial_index": 96, "time_elapsed": 518811, "internal_node_id": "0.0-69.0"}}, {"uniqueid": "MTK0942:3300DTYQT3ORVN55Y3SYWQDR9XREQJ", "current_trial": 97, "dateTime": 1512930814917, "trialdata": {"rt": -1, "stimulus": "<p id=\"stim\">EYELASH</p>", "key_press": -1, "type": "PRES_VIS", "word": "eyelash", "wordID": 545, "conditions": [12, 800, "v", 24000], "trial": 2, "serialpos": 8, "trial_type": "single-stim", "trial_index": 97, "time_elapsed": 520741, "internal_node_id": "0.0-70.0"}}, {"uniqueid": "MTK0942:3300DTYQT3ORVN55Y3SYWQDR9XREQJ", "current_trial": 98, "dateTime": 1512930816553, "trialdata": {"rt": -1, "stimulus": "<p id=\"stim\">WAITRESS</p>", "key_press": -1, "type": "PRES_VIS", "word": "waitress", "wordID": 1580, "conditions": [12, 800, "v", 24000], "trial": 2, "serialpos": 9, "trial_type": "single-stim", "trial_index": 98, "time_elapsed": 522378, "internal_node_id": "0.0-71.0"}}, {"uniqueid": "MTK0942:3300DTYQT3ORVN55Y3SYWQDR9XREQJ", "current_trial": 99, "dateTime": 1512930818445, "trialdata": {"rt": -1, "stimulus": "<p id=\"stim\">COIN</p>", "key_press": -1, "type": "PRES_VIS", "word": "coin", "wordID": 342, "conditions": [12, 800, "v", 24000], "trial": 2, "serialpos": 10, "trial_type": "single-stim", "trial_index": 99, "time_elapsed": 524270, "internal_node_id": "0.0-72.0"}}, {"uniqueid": "MTK0942:3300DTYQT3ORVN55Y3SYWQDR9XREQJ", "current_trial": 100, "dateTime": 1512930820335, "trialdata": {"rt": -1, "stimulus": "<p id=\"stim\">UMPIRE</p>", "key_press": -1, "type": "PRES_VIS", "word": "umpire", "wordID": 1534, "conditions": [12, 800, "v", 24000], "trial": 2, "serialpos": 11, "trial_type": "single-stim", "trial_index": 100, "time_elapsed": 526159, "internal_node_id": "0.0-73.0"}}, {"uniqueid": "MTK0942:3300DTYQT3ORVN55Y3SYWQDR9XREQJ", "current_trial": 101, "dateTime": 1512930822864, "trialdata": {"rt": -1, "stimulus": "", "key_press": -1, "type": "PRE_RECALL_DELAY", "trial_type": "single-stim", "trial_index": 101, "time_elapsed": 528688, "internal_node_id": "0.0-74.0-0.0"}}, {"uniqueid": "MTK0942:3300DTYQT3ORVN55Y3SYWQDR9XREQJ", "current_trial": 102, "dateTime": 1512930823370, "trialdata": {"rt": -1000, "stimulus": "/static/audio/400Hz.wav", "key_press": -1, "type": "PRE_RECALL_ALERT", "trial_type": "single-audio", "trial_index": 102, "time_elapsed": 529195, "internal_node_id": "0.0-75.0"}}, {"uniqueid": "MTK0942:3300DTYQT3ORVN55Y3SYWQDR9XREQJ", "current_trial": 103, "dateTime": 1512930883392, "trialdata": {"rt": [3927, 6092, 7938, 9816, 16817], "recwords": ["waitress", "hostess", "coin", "swimmer", "lady"], "type": "FREE_RECALL", "conditions": [12, 800, "v", 24000], "trial": 2, "trial_type": "free-recall", "trial_index": 103, "time_elapsed": 589200, "internal_node_id": "0.0-76.0-0.0"}}, {"uniqueid": "MTK0942:3300DTYQT3ORVN55Y3SYWQDR9XREQJ", "current_trial": 104, "dateTime": 1512930887048, "trialdata": {"rt": 1652, "key_press": 32, "type": "INSTRUCTIONS", "trial_type": "text", "trial_index": 104, "time_elapsed": 592873, "internal_node_id": "0.0-77.0"}}, {"uniqueid": "MTK0942:3300DTYQT3ORVN55Y3SYWQDR9XREQJ", "current_trial": 105, "dateTime": 1512930901056, "trialdata": {"rt": [3515, 6181, 11336], "responses": ["16", "18", "20"], "num1": [2, 5, 8, 6], "num2": [6, 9, 5, 7], "num3": [8, 4, 7, 6], "type": "DISTRACTOR", "conditions": [12, 800, "a", 12000], "trial": 3, "trial_type": "math-distractor", "trial_index": 105, "time_elapsed": 606880, "internal_node_id": "0.0-78.0"}}, {"uniqueid": "MTK0942:3300DTYQT3ORVN55Y3SYWQDR9XREQJ", "current_trial": 106, "dateTime": 1512930904059, "trialdata": {"rt": -1, "stimulus": "<p id=\"stim\">10</p>", "key_press": -1, "trial_type": "single-stim", "trial_index": 106, "time_elapsed": 609884, "internal_node_id": "0.0-79.0-0.0"}}, {"uniqueid": "MTK0942:3300DTYQT3ORVN55Y3SYWQDR9XREQJ", "current_trial": 107, "dateTime": 1512930905062, "trialdata": {"rt": -1, "stimulus": "<p id=\"stim\">9</p>", "key_press": -1, "trial_type": "single-stim", "trial_index": 107, "time_elapsed": 610886, "internal_node_id": "0.0-79.0-1.0"}}, {"uniqueid": "MTK0942:3300DTYQT3ORVN55Y3SYWQDR9XREQJ", "current_trial": 108, "dateTime": 1512930906064, "trialdata": {"rt": -1, "stimulus": "<p id=\"stim\">8</p>", "key_press": -1, "trial_type": "single-stim", "trial_index": 108, "time_elapsed": 611889, "internal_node_id": "0.0-79.0-2.0"}}, {"uniqueid": "MTK0942:3300DTYQT3ORVN55Y3SYWQDR9XREQJ", "current_trial": 109, "dateTime": 1512930907065, "trialdata": {"rt": -1, "stimulus": "<p id=\"stim\">7</p>", "key_press": -1, "trial_type": "single-stim", "trial_index": 109, "time_elapsed": 612890, "internal_node_id": "0.0-79.0-3.0"}}, {"uniqueid": "MTK0942:3300DTYQT3ORVN55Y3SYWQDR9XREQJ", "current_trial": 110, "dateTime": 1512930908069, "trialdata": {"rt": -1, "stimulus": "<p id=\"stim\">6</p>", "key_press": -1, "trial_type": "single-stim", "trial_index": 110, "time_elapsed": 613894, "internal_node_id": "0.0-79.0-4.0"}}, {"uniqueid": "MTK0942:3300DTYQT3ORVN55Y3SYWQDR9XREQJ", "current_trial": 111, "dateTime": 1512930909073, "trialdata": {"rt": -1, "stimulus": "<p id=\"stim\">5</p>", "key_press": -1, "trial_type": "single-stim", "trial_index": 111, "time_elapsed": 614898, "internal_node_id": "0.0-79.0-5.0"}}, {"uniqueid": "MTK0942:3300DTYQT3ORVN55Y3SYWQDR9XREQJ", "current_trial": 112, "dateTime": 1512930910078, "trialdata": {"rt": -1, "stimulus": "<p id=\"stim\">4</p>", "key_press": -1, "trial_type": "single-stim", "trial_index": 112, "time_elapsed": 615903, "internal_node_id": "0.0-79.0-6.0"}}, {"uniqueid": "MTK0942:3300DTYQT3ORVN55Y3SYWQDR9XREQJ", "current_trial": 113, "dateTime": 1512930911080, "trialdata": {"rt": -1, "stimulus": "<p id=\"stim\">3</p>", "key_press": -1, "trial_type": "single-stim", "trial_index": 113, "time_elapsed": 616904, "internal_node_id": "0.0-79.0-7.0"}}, {"uniqueid": "MTK0942:3300DTYQT3ORVN55Y3SYWQDR9XREQJ", "current_trial": 114, "dateTime": 1512930912083, "trialdata": {"rt": -1, "stimulus": "<p id=\"stim\">2</p>", "key_press": -1, "trial_type": "single-stim", "trial_index": 114, "time_elapsed": 617908, "internal_node_id": "0.0-79.0-8.0"}}, {"uniqueid": "MTK0942:3300DTYQT3ORVN55Y3SYWQDR9XREQJ", "current_trial": 115, "dateTime": 1512930913085, "trialdata": {"rt": -1, "stimulus": "<p id=\"stim\">1</p>", "key_press": -1, "trial_type": "single-stim", "trial_index": 115, "time_elapsed": 618909, "internal_node_id": "0.0-79.0-9.0"}}, {"uniqueid": "MTK0942:3300DTYQT3ORVN55Y3SYWQDR9XREQJ", "current_trial": 116, "dateTime": 1512930914589, "trialdata": {"rt": -1, "stimulus": "<p id=\"stim\">+</p>", "key_press": -1, "type": "FIXATION", "trial_type": "single-stim", "trial_index": 116, "time_elapsed": 620413, "internal_node_id": "0.0-80.0-0.0"}}, {"uniqueid": "MTK0942:3300DTYQT3ORVN55Y3SYWQDR9XREQJ", "current_trial": 117, "dateTime": 1512930916271, "trialdata": {"rt": -1000, "stimulus": "/static/audio/wordpool/PORK.wav", "key_press": -1, "type": "PRES_AUD", "word": "pork", "wordID": 1107, "conditions": [12, 800, "a", 12000], "trial": 3, "serialpos": 0, "trial_type": "single-audio", "trial_index": 117, "time_elapsed": 622096, "internal_node_id": "0.0-81.0"}}, {"uniqueid": "MTK0942:3300DTYQT3ORVN55Y3SYWQDR9XREQJ", "current_trial": 118, "dateTime": 1512930917991, "trialdata": {"rt": -1000, "stimulus": "/static/audio/wordpool/SUITCASE.wav", "key_press": -1, "type": "PRES_AUD", "word": "suitcase", "wordID": 1402, "conditions": [12, 800, "a", 12000], "trial": 3, "serialpos": 1, "trial_type": "single-audio", "trial_index": 118, "time_elapsed": 623816, "internal_node_id": "0.0-82.0"}}, {"uniqueid": "MTK0942:3300DTYQT3ORVN55Y3SYWQDR9XREQJ", "current_trial": 119, "dateTime": 1512930919766, "trialdata": {"rt": -1000, "stimulus": "/static/audio/wordpool/LUGGAGE.wav", "key_press": -1, "type": "PRES_AUD", "word": "luggage", "wordID": 846, "conditions": [12, 800, "a", 12000], "trial": 3, "serialpos": 2, "trial_type": "single-audio", "trial_index": 119, "time_elapsed": 625591, "internal_node_id": "0.0-83.0"}}, {"uniqueid": "MTK0942:3300DTYQT3ORVN55Y3SYWQDR9XREQJ", "current_trial": 120, "dateTime": 1512930921495, "trialdata": {"rt": -1000, "stimulus": "/static/audio/wordpool/SLOPE.wav", "key_press": -1, "type": "PRES_AUD", "word": "slope", "wordID": 1327, "conditions": [12, 800, "a", 12000], "trial": 3, "serialpos": 3, "trial_type": "single-audio", "trial_index": 120, "time_elapsed": 627319, "internal_node_id": "0.0-84.0"}}, {"uniqueid": "MTK0942:3300DTYQT3ORVN55Y3SYWQDR9XREQJ", "current_trial": 121, "dateTime": 1512930923278, "trialdata": {"rt": -1000, "stimulus": "/static/audio/wordpool/PANTHER.wav", "key_press": -1, "type": "PRES_AUD", "word": "panther", "wordID": 1008, "conditions": [12, 800, "a", 12000], "trial": 3, "serialpos": 4, "trial_type": "single-audio", "trial_index": 121, "time_elapsed": 629103, "internal_node_id": "0.0-85.0"}}, {"uniqueid": "MTK0942:3300DTYQT3ORVN55Y3SYWQDR9XREQJ", "current_trial": 122, "dateTime": 1512930925152, "trialdata": {"rt": -1000, "stimulus": "/static/audio/wordpool/PICTURE.wav", "key_press": -1, "type": "PRES_AUD", "word": "picture", "wordID": 1060, "conditions": [12, 800, "a", 12000], "trial": 3, "serialpos": 5, "trial_type": "single-audio", "trial_index": 122, "time_elapsed": 630977, "internal_node_id": "0.0-86.0"}}, {"uniqueid": "MTK0942:3300DTYQT3ORVN55Y3SYWQDR9XREQJ", "current_trial": 123, "dateTime": 1512930927008, "trialdata": {"rt": -1000, "stimulus": "/static/audio/wordpool/OINTMENT.wav", "key_press": -1, "type": "PRES_AUD", "word": "ointment", "wordID": 973, "conditions": [12, 800, "a", 12000], "trial": 3, "serialpos": 6, "trial_type": "single-audio", "trial_index": 123, "time_elapsed": 632833, "internal_node_id": "0.0-87.0"}}, {"uniqueid": "MTK0942:3300DTYQT3ORVN55Y3SYWQDR9XREQJ", "current_trial": 124, "dateTime": 1512930928661, "trialdata": {"rt": -1000, "stimulus": "/static/audio/wordpool/AUTHOR.wav", "key_press": -1, "type": "PRES_AUD", "word": "author", "wordID": 60, "conditions": [12, 800, "a", 12000], "trial": 3, "serialpos": 7, "trial_type": "single-audio", "trial_index": 124, "time_elapsed": 634486, "internal_node_id": "0.0-88.0"}}, {"uniqueid": "MTK0942:3300DTYQT3ORVN55Y3SYWQDR9XREQJ", "current_trial": 125, "dateTime": 1512930930578, "trialdata": {"rt": -1000, "stimulus": "/static/audio/wordpool/BANQUET.wav", "key_press": -1, "type": "PRES_AUD", "word": "banquet", "wordID": 85, "conditions": [12, 800, "a", 12000], "trial": 3, "serialpos": 8, "trial_type": "single-audio", "trial_index": 125, "time_elapsed": 636402, "internal_node_id": "0.0-89.0"}}, {"uniqueid": "MTK0942:3300DTYQT3ORVN55Y3SYWQDR9XREQJ", "current_trial": 126, "dateTime": 1512930932358, "trialdata": {"rt": -1000, "stimulus": "/static/audio/wordpool/TABLE.wav", "key_press": -1, "type": "PRES_AUD", "word": "table", "wordID": 1425, "conditions": [12, 800, "a", 12000], "trial": 3, "serialpos": 9, "trial_type": "single-audio", "trial_index": 126, "time_elapsed": 638183, "internal_node_id": "0.0-90.0"}}, {"uniqueid": "MTK0942:3300DTYQT3ORVN55Y3SYWQDR9XREQJ", "current_trial": 127, "dateTime": 1512930934138, "trialdata": {"rt": -1000, "stimulus": "/static/audio/wordpool/PIMPLE.wav", "key_press": -1, "type": "PRES_AUD", "word": "pimple", "wordID": 1070, "conditions": [12, 800, "a", 12000], "trial": 3, "serialpos": 10, "trial_type": "single-audio", "trial_index": 127, "time_elapsed": 639963, "internal_node_id": "0.0-91.0"}}, {"uniqueid": "MTK0942:3300DTYQT3ORVN55Y3SYWQDR9XREQJ", "current_trial": 128, "dateTime": 1512930936062, "trialdata": {"rt": -1000, "stimulus": "/static/audio/wordpool/SAUSAGE.wav", "key_press": -1, "type": "PRES_AUD", "word": "sausage", "wordID": 1237, "conditions": [12, 800, "a", 12000], "trial": 3, "serialpos": 11, "trial_type": "single-audio", "trial_index": 128, "time_elapsed": 641886, "internal_node_id": "0.0-92.0"}}, {"uniqueid": "MTK0942:3300DTYQT3ORVN55Y3SYWQDR9XREQJ", "current_trial": 129, "dateTime": 1512930937362, "trialdata": {"rt": -1, "stimulus": "", "key_press": -1, "type": "PRE_RECALL_DELAY", "trial_type": "single-stim", "trial_index": 129, "time_elapsed": 643187, "internal_node_id": "0.0-93.0-0.0"}}, {"uniqueid": "MTK0942:3300DTYQT3ORVN55Y3SYWQDR9XREQJ", "current_trial": 130, "dateTime": 1512930937869, "trialdata": {"rt": -1000, "stimulus": "/static/audio/400Hz.wav", "key_press": -1, "type": "PRE_RECALL_ALERT", "trial_type": "single-audio", "trial_index": 130, "time_elapsed": 643693, "internal_node_id": "0.0-94.0"}}, {"uniqueid": "MTK0942:3300DTYQT3ORVN55Y3SYWQDR9XREQJ", "current_trial": 131, "dateTime": 1512930997880, "trialdata": {"rt": [2422, 5239, 7998, 11100, 17310, 21270, 25213, 33076], "recwords": ["port", "suitcase", "luggage", "pimple", "handbag", "table", "banquet", "sausage"], "type": "FREE_RECALL", "conditions": [12, 800, "a", 12000], "trial": 3, "trial_type": "free-recall", "trial_index": 131, "time_elapsed": 703698, "internal_node_id": "0.0-95.0-0.0"}}, {"uniqueid": "MTK0942:3300DTYQT3ORVN55Y3SYWQDR9XREQJ", "current_trial": 132, "dateTime": 1512931005084, "trialdata": {"rt": 5200, "key_press": 32, "type": "INSTRUCTIONS", "trial_type": "text", "trial_index": 132, "time_elapsed": 710909, "internal_node_id": "0.0-96.0"}}, {"uniqueid": "MTK0942:3300DTYQT3ORVN55Y3SYWQDR9XREQJ", "current_trial": 133, "dateTime": 1512931031093, "trialdata": {"rt": [2949, 7489, 9736, 11062, 13594, 17358, 19030, 22035], "responses": ["18", "24", "19", "5", "12", "18", "10", "14"], "num1": [5, 9, 6, 2, 7, 7, 3, 5, 1], "num2": [4, 6, 9, 2, 1, 7, 6, 8, 6], "num3": [9, 9, 4, 1, 5, 4, 1, 1, 8], "type": "DISTRACTOR", "conditions": [12, 1600, "a", 24000], "trial": 4, "trial_type": "math-distractor", "trial_index": 133, "time_elapsed": 736917, "internal_node_id": "0.0-97.0"}}, {"uniqueid": "MTK0942:3300DTYQT3ORVN55Y3SYWQDR9XREQJ", "current_trial": 134, "dateTime": 1512931034097, "trialdata": {"rt": -1, "stimulus": "<p id=\"stim\">10</p>", "key_press": -1, "trial_type": "single-stim", "trial_index": 134, "time_elapsed": 739922, "internal_node_id": "0.0-98.0-0.0"}}, {"uniqueid": "MTK0942:3300DTYQT3ORVN55Y3SYWQDR9XREQJ", "current_trial": 135, "dateTime": 1512931035104, "trialdata": {"rt": -1, "stimulus": "<p id=\"stim\">9</p>", "key_press": -1, "trial_type": "single-stim", "trial_index": 135, "time_elapsed": 740928, "internal_node_id": "0.0-98.0-1.0"}}, {"uniqueid": "MTK0942:3300DTYQT3ORVN55Y3SYWQDR9XREQJ", "current_trial": 136, "dateTime": 1512931036105, "trialdata": {"rt": -1, "stimulus": "<p id=\"stim\">8</p>", "key_press": -1, "trial_type": "single-stim", "trial_index": 136, "time_elapsed": 741929, "internal_node_id": "0.0-98.0-2.0"}}, {"uniqueid": "MTK0942:3300DTYQT3ORVN55Y3SYWQDR9XREQJ", "current_trial": 137, "dateTime": 1512931037107, "trialdata": {"rt": -1, "stimulus": "<p id=\"stim\">7</p>", "key_press": -1, "trial_type": "single-stim", "trial_index": 137, "time_elapsed": 742932, "internal_node_id": "0.0-98.0-3.0"}}, {"uniqueid": "MTK0942:3300DTYQT3ORVN55Y3SYWQDR9XREQJ", "current_trial": 138, "dateTime": 1512931038108, "trialdata": {"rt": -1, "stimulus": "<p id=\"stim\">6</p>", "key_press": -1, "trial_type": "single-stim", "trial_index": 138, "time_elapsed": 743933, "internal_node_id": "0.0-98.0-4.0"}}, {"uniqueid": "MTK0942:3300DTYQT3ORVN55Y3SYWQDR9XREQJ", "current_trial": 139, "dateTime": 1512931039111, "trialdata": {"rt": -1, "stimulus": "<p id=\"stim\">5</p>", "key_press": -1, "trial_type": "single-stim", "trial_index": 139, "time_elapsed": 744935, "internal_node_id": "0.0-98.0-5.0"}}, {"uniqueid": "MTK0942:3300DTYQT3ORVN55Y3SYWQDR9XREQJ", "current_trial": 140, "dateTime": 1512931040112, "trialdata": {"rt": -1, "stimulus": "<p id=\"stim\">4</p>", "key_press": -1, "trial_type": "single-stim", "trial_index": 140, "time_elapsed": 745936, "internal_node_id": "0.0-98.0-6.0"}}, {"uniqueid": "MTK0942:3300DTYQT3ORVN55Y3SYWQDR9XREQJ", "current_trial": 141, "dateTime": 1512931041113, "trialdata": {"rt": -1, "stimulus": "<p id=\"stim\">3</p>", "key_press": -1, "trial_type": "single-stim", "trial_index": 141, "time_elapsed": 746938, "internal_node_id": "0.0-98.0-7.0"}}, {"uniqueid": "MTK0942:3300DTYQT3ORVN55Y3SYWQDR9XREQJ", "current_trial": 142, "dateTime": 1512931042117, "trialdata": {"rt": -1, "stimulus": "<p id=\"stim\">2</p>", "key_press": -1, "trial_type": "single-stim", "trial_index": 142, "time_elapsed": 747941, "internal_node_id": "0.0-98.0-8.0"}}, {"uniqueid": "MTK0942:3300DTYQT3ORVN55Y3SYWQDR9XREQJ", "current_trial": 143, "dateTime": 1512931043120, "trialdata": {"rt": -1, "stimulus": "<p id=\"stim\">1</p>", "key_press": -1, "trial_type": "single-stim", "trial_index": 143, "time_elapsed": 748944, "internal_node_id": "0.0-98.0-9.0"}}, {"uniqueid": "MTK0942:3300DTYQT3ORVN55Y3SYWQDR9XREQJ", "current_trial": 144, "dateTime": 1512931044623, "trialdata": {"rt": -1, "stimulus": "<p id=\"stim\">+</p>", "key_press": -1, "type": "FIXATION", "trial_type": "single-stim", "trial_index": 144, "time_elapsed": 750447, "internal_node_id": "0.0-99.0-0.0"}}, {"uniqueid": "MTK0942:3300DTYQT3ORVN55Y3SYWQDR9XREQJ", "current_trial": 145, "dateTime": 1512931047214, "trialdata": {"rt": -1000, "stimulus": "/static/audio/wordpool/SUSPECT.wav", "key_press": -1, "type": "PRES_AUD", "word": "suspect", "wordID": 1414, "conditions": [12, 1600, "a", 24000], "trial": 4, "serialpos": 0, "trial_type": "single-audio", "trial_index": 145, "time_elapsed": 753038, "internal_node_id": "0.0-100.0"}}, {"uniqueid": "MTK0942:3300DTYQT3ORVN55Y3SYWQDR9XREQJ", "current_trial": 146, "dateTime": 1512931049942, "trialdata": {"rt": -1000, "stimulus": "/static/audio/wordpool/OMELET.wav", "key_press": -1, "type": "PRES_AUD", "word": "omelet", "wordID": 975, "conditions": [12, 1600, "a", 24000], "trial": 4, "serialpos": 1, "trial_type": "single-audio", "trial_index": 146, "time_elapsed": 755767, "internal_node_id": "0.0-101.0"}}, {"uniqueid": "MTK0942:3300DTYQT3ORVN55Y3SYWQDR9XREQJ", "current_trial": 147, "dateTime": 1512931052693, "trialdata": {"rt": -1000, "stimulus": "/static/audio/wordpool/LODGE.wav", "key_press": -1, "type": "PRES_AUD", "word": "lodge", "wordID": 838, "conditions": [12, 1600, "a", 24000], "trial": 4, "serialpos": 2, "trial_type": "single-audio", "trial_index": 147, "time_elapsed": 758518, "internal_node_id": "0.0-102.0"}}, {"uniqueid": "MTK0942:3300DTYQT3ORVN55Y3SYWQDR9XREQJ", "current_trial": 148, "dateTime": 1512931055234, "trialdata": {"rt": -1000, "stimulus": "/static/audio/wordpool/SHARK.wav", "key_press": -1, "type": "PRES_AUD", "word": "shark", "wordID": 1274, "conditions": [12, 1600, "a", 24000], "trial": 4, "serialpos": 3, "trial_type": "single-audio", "trial_index": 148, "time_elapsed": 761059, "internal_node_id": "0.0-103.0"}}, {"uniqueid": "MTK0942:3300DTYQT3ORVN55Y3SYWQDR9XREQJ", "current_trial": 149, "dateTime": 1512931057787, "trialdata": {"rt": -1000, "stimulus": "/static/audio/wordpool/JELLO.wav", "key_press": -1, "type": "PRES_AUD", "word": "jello", "wordID": 753, "conditions": [12, 1600, "a", 24000], "trial": 4, "serialpos": 4, "trial_type": "single-audio", "trial_index": 149, "time_elapsed": 763611, "internal_node_id": "0.0-104.0"}}, {"uniqueid": "MTK0942:3300DTYQT3ORVN55Y3SYWQDR9XREQJ", "current_trial": 150, "dateTime": 1512931060491, "trialdata": {"rt": -1000, "stimulus": "/static/audio/wordpool/BINDER.wav", "key_press": -1, "type": "PRES_AUD", "word": "binder", "wordID": 126, "conditions": [12, 1600, "a", 24000], "trial": 4, "serialpos": 5, "trial_type": "single-audio", "trial_index": 150, "time_elapsed": 766316, "internal_node_id": "0.0-105.0"}}, {"uniqueid": "MTK0942:3300DTYQT3ORVN55Y3SYWQDR9XREQJ", "current_trial": 151, "dateTime": 1512931062905, "trialdata": {"rt": -1000, "stimulus": "/static/audio/wordpool/GRAPE.wav", "key_press": -1, "type": "PRES_AUD", "word": "grape", "wordID": 653, "conditions": [12, 1600, "a", 24000], "trial": 4, "serialpos": 6, "trial_type": "single-audio", "trial_index": 151, "time_elapsed": 768730, "internal_node_id": "0.0-106.0"}}, {"uniqueid": "MTK0942:3300DTYQT3ORVN55Y3SYWQDR9XREQJ", "current_trial": 152, "dateTime": 1512931065553, "trialdata": {"rt": -1000, "stimulus": "/static/audio/wordpool/SIDEWALK.wav", "key_press": -1, "type": "PRES_AUD", "word": "sidewalk", "wordID": 1302, "conditions": [12, 1600, "a", 24000], "trial": 4, "serialpos": 7, "trial_type": "single-audio", "trial_index": 152, "time_elapsed": 771378, "internal_node_id": "0.0-107.0"}}, {"uniqueid": "MTK0942:3300DTYQT3ORVN55Y3SYWQDR9XREQJ", "current_trial": 153, "dateTime": 1512931067995, "trialdata": {"rt": -1000, "stimulus": "/static/audio/wordpool/HERO.wav", "key_press": -1, "type": "PRES_AUD", "word": "hero", "wordID": 705, "conditions": [12, 1600, "a", 24000], "trial": 4, "serialpos": 8, "trial_type": "single-audio", "trial_index": 153, "time_elapsed": 773819, "internal_node_id": "0.0-108.0"}}, {"uniqueid": "MTK0942:3300DTYQT3ORVN55Y3SYWQDR9XREQJ", "current_trial": 154, "dateTime": 1512931070787, "trialdata": {"rt": -1000, "stimulus": "/static/audio/wordpool/JELLY.wav", "key_press": -1, "type": "PRES_AUD", "word": "jelly", "wordID": 754, "conditions": [12, 1600, "a", 24000], "trial": 4, "serialpos": 9, "trial_type": "single-audio", "trial_index": 154, "time_elapsed": 776612, "internal_node_id": "0.0-109.0"}}, {"uniqueid": "MTK0942:3300DTYQT3ORVN55Y3SYWQDR9XREQJ", "current_trial": 155, "dateTime": 1512931073249, "trialdata": {"rt": -1000, "stimulus": "/static/audio/wordpool/FILM.wav", "key_press": -1, "type": "PRES_AUD", "word": "film", "wordID": 564, "conditions": [12, 1600, "a", 24000], "trial": 4, "serialpos": 10, "trial_type": "single-audio", "trial_index": 155, "time_elapsed": 779074, "internal_node_id": "0.0-110.0"}}, {"uniqueid": "MTK0942:3300DTYQT3ORVN55Y3SYWQDR9XREQJ", "current_trial": 156, "dateTime": 1512931075814, "trialdata": {"rt": -1000, "stimulus": "/static/audio/wordpool/ACTOR.wav", "key_press": -1, "type": "PRES_AUD", "word": "actor", "wordID": 4, "conditions": [12, 1600, "a", 24000], "trial": 4, "serialpos": 11, "trial_type": "single-audio", "trial_index": 156, "time_elapsed": 781639, "internal_node_id": "0.0-111.0"}}, {"uniqueid": "MTK0942:3300DTYQT3ORVN55Y3SYWQDR9XREQJ", "current_trial": 157, "dateTime": 1512931077122, "trialdata": {"rt": -1, "stimulus": "", "key_press": -1, "type": "PRE_RECALL_DELAY", "trial_type": "single-stim", "trial_index": 157, "time_elapsed": 782947, "internal_node_id": "0.0-112.0-0.0"}}, {"uniqueid": "MTK0942:3300DTYQT3ORVN55Y3SYWQDR9XREQJ", "current_trial": 158, "dateTime": 1512931077630, "trialdata": {"rt": -1000, "stimulus": "/static/audio/400Hz.wav", "key_press": -1, "type": "PRE_RECALL_ALERT", "trial_type": "single-audio", "trial_index": 158, "time_elapsed": 783455, "internal_node_id": "0.0-113.0"}}, {"uniqueid": "MTK0942:3300DTYQT3ORVN55Y3SYWQDR9XREQJ", "current_trial": 159, "dateTime": 1512931137641, "trialdata": {"rt": [3621, 5320, 7138, 8651, 15263], "recwords": ["omelet", "pillow", "actor", "film", "sidewalk"], "type": "FREE_RECALL", "conditions": [12, 1600, "a", 24000], "trial": 4, "trial_type": "free-recall", "trial_index": 159, "time_elapsed": 843461, "internal_node_id": "0.0-114.0-0.0"}}, {"uniqueid": "MTK0942:3300DTYQT3ORVN55Y3SYWQDR9XREQJ", "current_trial": 160, "dateTime": 1512931160370, "trialdata": {"rt": 20727, "key_press": 32, "type": "INSTRUCTIONS", "trial_type": "text", "trial_index": 160, "time_elapsed": 866195, "internal_node_id": "0.0-115.0"}}, {"uniqueid": "MTK0942:3300DTYQT3ORVN55Y3SYWQDR9XREQJ", "current_trial": 161, "dateTime": 1512931174374, "trialdata": {"rt": [1764, 3657, 6182, 10219], "responses": ["19", "20", "20", "16"], "num1": [4, 7, 1, 7, 6], "num2": [9, 7, 8, 6, 2], "num3": [6, 6, 8, 3, 9], "type": "DISTRACTOR", "conditions": [24, 1600, "a", 12000], "trial": 5, "trial_type": "math-distractor", "trial_index": 161, "time_elapsed": 880198, "internal_node_id": "0.0-116.0"}}, {"uniqueid": "MTK0942:3300DTYQT3ORVN55Y3SYWQDR9XREQJ", "current_trial": 162, "dateTime": 1512931177378, "trialdata": {"rt": -1, "stimulus": "<p id=\"stim\">10</p>", "key_press": -1, "trial_type": "single-stim", "trial_index": 162, "time_elapsed": 883203, "internal_node_id": "0.0-117.0-0.0"}}, {"uniqueid": "MTK0942:3300DTYQT3ORVN55Y3SYWQDR9XREQJ", "current_trial": 163, "dateTime": 1512931178384, "trialdata": {"rt": -1, "stimulus": "<p id=\"stim\">9</p>", "key_press": -1, "trial_type": "single-stim", "trial_index": 163, "time_elapsed": 884208, "internal_node_id": "0.0-117.0-1.0"}}, {"uniqueid": "MTK0942:3300DTYQT3ORVN55Y3SYWQDR9XREQJ", "current_trial": 164, "dateTime": 1512931179385, "trialdata": {"rt": -1, "stimulus": "<p id=\"stim\">8</p>", "key_press": -1, "trial_type": "single-stim", "trial_index": 164, "time_elapsed": 885210, "internal_node_id": "0.0-117.0-2.0"}}, {"uniqueid": "MTK0942:3300DTYQT3ORVN55Y3SYWQDR9XREQJ", "current_trial": 165, "dateTime": 1512931180390, "trialdata": {"rt": -1, "stimulus": "<p id=\"stim\">7</p>", "key_press": -1, "trial_type": "single-stim", "trial_index": 165, "time_elapsed": 886214, "internal_node_id": "0.0-117.0-3.0"}}, {"uniqueid": "MTK0942:3300DTYQT3ORVN55Y3SYWQDR9XREQJ", "current_trial": 166, "dateTime": 1512931181392, "trialdata": {"rt": -1, "stimulus": "<p id=\"stim\">6</p>", "key_press": -1, "trial_type": "single-stim", "trial_index": 166, "time_elapsed": 887217, "internal_node_id": "0.0-117.0-4.0"}}, {"uniqueid": "MTK0942:3300DTYQT3ORVN55Y3SYWQDR9XREQJ", "current_trial": 167, "dateTime": 1512931182394, "trialdata": {"rt": -1, "stimulus": "<p id=\"stim\">5</p>", "key_press": -1, "trial_type": "single-stim", "trial_index": 167, "time_elapsed": 888219, "internal_node_id": "0.0-117.0-5.0"}}, {"uniqueid": "MTK0942:3300DTYQT3ORVN55Y3SYWQDR9XREQJ", "current_trial": 168, "dateTime": 1512931183396, "trialdata": {"rt": -1, "stimulus": "<p id=\"stim\">4</p>", "key_press": -1, "trial_type": "single-stim", "trial_index": 168, "time_elapsed": 889221, "internal_node_id": "0.0-117.0-6.0"}}, {"uniqueid": "MTK0942:3300DTYQT3ORVN55Y3SYWQDR9XREQJ", "current_trial": 169, "dateTime": 1512931184399, "trialdata": {"rt": -1, "stimulus": "<p id=\"stim\">3</p>", "key_press": -1, "trial_type": "single-stim", "trial_index": 169, "time_elapsed": 890224, "internal_node_id": "0.0-117.0-7.0"}}, {"uniqueid": "MTK0942:3300DTYQT3ORVN55Y3SYWQDR9XREQJ", "current_trial": 170, "dateTime": 1512931185403, "trialdata": {"rt": -1, "stimulus": "<p id=\"stim\">2</p>", "key_press": -1, "trial_type": "single-stim", "trial_index": 170, "time_elapsed": 891227, "internal_node_id": "0.0-117.0-8.0"}}, {"uniqueid": "MTK0942:3300DTYQT3ORVN55Y3SYWQDR9XREQJ", "current_trial": 171, "dateTime": 1512931186405, "trialdata": {"rt": -1, "stimulus": "<p id=\"stim\">1</p>", "key_press": -1, "trial_type": "single-stim", "trial_index": 171, "time_elapsed": 892230, "internal_node_id": "0.0-117.0-9.0"}}, {"uniqueid": "MTK0942:3300DTYQT3ORVN55Y3SYWQDR9XREQJ", "current_trial": 172, "dateTime": 1512931187909, "trialdata": {"rt": -1, "stimulus": "<p id=\"stim\">+</p>", "key_press": -1, "type": "FIXATION", "trial_type": "single-stim", "trial_index": 172, "time_elapsed": 893733, "internal_node_id": "0.0-118.0-0.0"}}, {"uniqueid": "MTK0942:3300DTYQT3ORVN55Y3SYWQDR9XREQJ", "current_trial": 173, "dateTime": 1512931190588, "trialdata": {"rt": -1000, "stimulus": "/static/audio/wordpool/FOX.wav", "key_press": -1, "type": "PRES_AUD", "word": "fox", "wordID": 597, "conditions": [24, 1600, "a", 12000], "trial": 5, "serialpos": 0, "trial_type": "single-audio", "trial_index": 173, "time_elapsed": 896413, "internal_node_id": "0.0-119.0"}}, {"uniqueid": "MTK0942:3300DTYQT3ORVN55Y3SYWQDR9XREQJ", "current_trial": 174, "dateTime": 1512931193140, "trialdata": {"rt": -1000, "stimulus": "/static/audio/wordpool/TORTOISE.wav", "key_press": -1, "type": "PRES_AUD", "word": "tortoise", "wordID": 1485, "conditions": [24, 1600, "a", 12000], "trial": 5, "serialpos": 1, "trial_type": "single-audio", "trial_index": 174, "time_elapsed": 898965, "internal_node_id": "0.0-120.0"}}, {"uniqueid": "MTK0942:3300DTYQT3ORVN55Y3SYWQDR9XREQJ", "current_trial": 175, "dateTime": 1512931195583, "trialdata": {"rt": -1000, "stimulus": "/static/audio/wordpool/PARENT.wav", "key_press": -1, "type": "PRES_AUD", "word": "parent", "wordID": 1012, "conditions": [24, 1600, "a", 12000], "trial": 5, "serialpos": 2, "trial_type": "single-audio", "trial_index": 175, "time_elapsed": 901407, "internal_node_id": "0.0-121.0"}}, {"uniqueid": "MTK0942:3300DTYQT3ORVN55Y3SYWQDR9XREQJ", "current_trial": 176, "dateTime": 1512931198031, "trialdata": {"rt": -1000, "stimulus": "/static/audio/wordpool/HATCHET.wav", "key_press": -1, "type": "PRES_AUD", "word": "hatchet", "wordID": 690, "conditions": [24, 1600, "a", 12000], "trial": 5, "serialpos": 3, "trial_type": "single-audio", "trial_index": 176, "time_elapsed": 903856, "internal_node_id": "0.0-122.0"}}, {"uniqueid": "MTK0942:3300DTYQT3ORVN55Y3SYWQDR9XREQJ", "current_trial": 177, "dateTime": 1512931200584, "trialdata": {"rt": -1000, "stimulus": "/static/audio/wordpool/SPOON.wav", "key_press": -1, "type": "PRES_AUD", "word": "spoon", "wordID": 1356, "conditions": [24, 1600, "a", 12000], "trial": 5, "serialpos": 4, "trial_type": "single-audio", "trial_index": 177, "time_elapsed": 906409, "internal_node_id": "0.0-123.0"}}, {"uniqueid": "MTK0942:3300DTYQT3ORVN55Y3SYWQDR9XREQJ", "current_trial": 178, "dateTime": 1512931203248, "trialdata": {"rt": -1000, "stimulus": "/static/audio/wordpool/DRIVER.wav", "key_press": -1, "type": "PRES_AUD", "word": "driver", "wordID": 498, "conditions": [24, 1600, "a", 12000], "trial": 5, "serialpos": 5, "trial_type": "single-audio", "trial_index": 178, "time_elapsed": 909072, "internal_node_id": "0.0-124.0"}}, {"uniqueid": "MTK0942:3300DTYQT3ORVN55Y3SYWQDR9XREQJ", "current_trial": 179, "dateTime": 1512931205793, "trialdata": {"rt": -1000, "stimulus": "/static/audio/wordpool/WORLD.wav", "key_press": -1, "type": "PRES_AUD", "word": "world", "wordID": 1621, "conditions": [24, 1600, "a", 12000], "trial": 5, "serialpos": 6, "trial_type": "single-audio", "trial_index": 179, "time_elapsed": 911618, "internal_node_id": "0.0-125.0"}}, {"uniqueid": "MTK0942:3300DTYQT3ORVN55Y3SYWQDR9XREQJ", "current_trial": 180, "dateTime": 1512931208204, "trialdata": {"rt": -1000, "stimulus": "/static/audio/wordpool/COUNTRY.wav", "key_press": -1, "type": "PRES_AUD", "word": "country", "wordID": 387, "conditions": [24, 1600, "a", 12000], "trial": 5, "serialpos": 7, "trial_type": "single-audio", "trial_index": 180, "time_elapsed": 914027, "internal_node_id": "0.0-126.0"}}, {"uniqueid": "MTK0942:3300DTYQT3ORVN55Y3SYWQDR9XREQJ", "current_trial": 181, "dateTime": 1512931210894, "trialdata": {"rt": -1000, "stimulus": "/static/audio/wordpool/SKILLET.wav", "key_press": -1, "type": "PRES_AUD", "word": "skillet", "wordID": 1316, "conditions": [24, 1600, "a", 12000], "trial": 5, "serialpos": 8, "trial_type": "single-audio", "trial_index": 181, "time_elapsed": 916719, "internal_node_id": "0.0-127.0"}}, {"uniqueid": "MTK0942:3300DTYQT3ORVN55Y3SYWQDR9XREQJ", "current_trial": 182, "dateTime": 1512931213395, "trialdata": {"rt": -1000, "stimulus": "/static/audio/wordpool/TURNIP.wav", "key_press": -1, "type": "PRES_AUD", "word": "turnip", "wordID": 1520, "conditions": [24, 1600, "a", 12000], "trial": 5, "serialpos": 9, "trial_type": "single-audio", "trial_index": 182, "time_elapsed": 919220, "internal_node_id": "0.0-128.0"}}, {"uniqueid": "MTK0942:3300DTYQT3ORVN55Y3SYWQDR9XREQJ", "current_trial": 183, "dateTime": 1512931215906, "trialdata": {"rt": -1000, "stimulus": "/static/audio/wordpool/COOK.wav", "key_press": -1, "type": "PRES_AUD", "word": "cook", "wordID": 371, "conditions": [24, 1600, "a", 12000], "trial": 5, "serialpos": 10, "trial_type": "single-audio", "trial_index": 183, "time_elapsed": 921731, "internal_node_id": "0.0-129.0"}}, {"uniqueid": "MTK0942:3300DTYQT3ORVN55Y3SYWQDR9XREQJ", "current_trial": 184, "dateTime": 1512931218415, "trialdata": {"rt": -1000, "stimulus": "/static/audio/wordpool/RIFLE.wav", "key_press": -1, "type": "PRES_AUD", "word": "rifle", "wordID": 1191, "conditions": [24, 1600, "a", 12000], "trial": 5, "serialpos": 11, "trial_type": "single-audio", "trial_index": 184, "time_elapsed": 924239, "internal_node_id": "0.0-130.0"}}, {"uniqueid": "MTK0942:3300DTYQT3ORVN55Y3SYWQDR9XREQJ", "current_trial": 185, "dateTime": 1512931221158, "trialdata": {"rt": -1000, "stimulus": "/static/audio/wordpool/ROCKET.wav", "key_press": -1, "type": "PRES_AUD", "word": "rocket", "wordID": 1201, "conditions": [24, 1600, "a", 12000], "trial": 5, "serialpos": 12, "trial_type": "single-audio", "trial_index": 185, "time_elapsed": 926982, "internal_node_id": "0.0-131.0"}}, {"uniqueid": "MTK0942:3300DTYQT3ORVN55Y3SYWQDR9XREQJ", "current_trial": 186, "dateTime": 1512931223783, "trialdata": {"rt": -1000, "stimulus": "/static/audio/wordpool/COMET.wav", "key_press": -1, "type": "PRES_AUD", "word": "comet", "wordID": 352, "conditions": [24, 1600, "a", 12000], "trial": 5, "serialpos": 13, "trial_type": "single-audio", "trial_index": 186, "time_elapsed": 929608, "internal_node_id": "0.0-132.0"}}, {"uniqueid": "MTK0942:3300DTYQT3ORVN55Y3SYWQDR9XREQJ", "current_trial": 187, "dateTime": 1512931226363, "trialdata": {"rt": -1000, "stimulus": "/static/audio/wordpool/MARINE.wav", "key_press": -1, "type": "PRES_AUD", "word": "marine", "wordID": 868, "conditions": [24, 1600, "a", 12000], "trial": 5, "serialpos": 14, "trial_type": "single-audio", "trial_index": 187, "time_elapsed": 932188, "internal_node_id": "0.0-133.0"}}, {"uniqueid": "MTK0942:3300DTYQT3ORVN55Y3SYWQDR9XREQJ", "current_trial": 188, "dateTime": 1512931228842, "trialdata": {"rt": -1000, "stimulus": "/static/audio/wordpool/LACE.wav", "key_press": -1, "type": "PRES_AUD", "word": "lace", "wordID": 791, "conditions": [24, 1600, "a", 12000], "trial": 5, "serialpos": 15, "trial_type": "single-audio", "trial_index": 188, "time_elapsed": 934667, "internal_node_id": "0.0-134.0"}}, {"uniqueid": "MTK0942:3300DTYQT3ORVN55Y3SYWQDR9XREQJ", "current_trial": 189, "dateTime": 1512931231494, "trialdata": {"rt": -1000, "stimulus": "/static/audio/wordpool/SHIRT.wav", "key_press": -1, "type": "PRES_AUD", "word": "shirt", "wordID": 1286, "conditions": [24, 1600, "a", 12000], "trial": 5, "serialpos": 16, "trial_type": "single-audio", "trial_index": 189, "time_elapsed": 937319, "internal_node_id": "0.0-135.0"}}, {"uniqueid": "MTK0942:3300DTYQT3ORVN55Y3SYWQDR9XREQJ", "current_trial": 190, "dateTime": 1512931233992, "trialdata": {"rt": -1000, "stimulus": "/static/audio/wordpool/SCARF.wav", "key_press": -1, "type": "PRES_AUD", "word": "scarf", "wordID": 1245, "conditions": [24, 1600, "a", 12000], "trial": 5, "serialpos": 17, "trial_type": "single-audio", "trial_index": 190, "time_elapsed": 939816, "internal_node_id": "0.0-136.0"}}, {"uniqueid": "MTK0942:3300DTYQT3ORVN55Y3SYWQDR9XREQJ", "current_trial": 191, "dateTime": 1512931236782, "trialdata": {"rt": -1000, "stimulus": "/static/audio/wordpool/LASER.wav", "key_press": -1, "type": "PRES_AUD", "word": "laser", "wordID": 800, "conditions": [24, 1600, "a", 12000], "trial": 5, "serialpos": 18, "trial_type": "single-audio", "trial_index": 191, "time_elapsed": 942607, "internal_node_id": "0.0-137.0"}}, {"uniqueid": "MTK0942:3300DTYQT3ORVN55Y3SYWQDR9XREQJ", "current_trial": 192, "dateTime": 1512931239279, "trialdata": {"rt": -1000, "stimulus": "/static/audio/wordpool/SNAKE.wav", "key_press": -1, "type": "PRES_AUD", "word": "snake", "wordID": 1332, "conditions": [24, 1600, "a", 12000], "trial": 5, "serialpos": 19, "trial_type": "single-audio", "trial_index": 192, "time_elapsed": 945104, "internal_node_id": "0.0-138.0"}}, {"uniqueid": "MTK0942:3300DTYQT3ORVN55Y3SYWQDR9XREQJ", "current_trial": 193, "dateTime": 1512931241941, "trialdata": {"rt": -1000, "stimulus": "/static/audio/wordpool/RADISH.wav", "key_press": -1, "type": "PRES_AUD", "word": "radish", "wordID": 1157, "conditions": [24, 1600, "a", 12000], "trial": 5, "serialpos": 20, "trial_type": "single-audio", "trial_index": 193, "time_elapsed": 947766, "internal_node_id": "0.0-139.0"}}, {"uniqueid": "MTK0942:3300DTYQT3ORVN55Y3SYWQDR9XREQJ", "current_trial": 194, "dateTime": 1512931244460, "trialdata": {"rt": -1000, "stimulus": "/static/audio/wordpool/MARROW.wav", "key_press": -1, "type": "PRES_AUD", "word": "marrow", "wordID": 871, "conditions": [24, 1600, "a", 12000], "trial": 5, "serialpos": 21, "trial_type": "single-audio", "trial_index": 194, "time_elapsed": 950285, "internal_node_id": "0.0-140.0"}}, {"uniqueid": "MTK0942:3300DTYQT3ORVN55Y3SYWQDR9XREQJ", "current_trial": 195, "dateTime": 1512931246909, "trialdata": {"rt": -1000, "stimulus": "/static/audio/wordpool/MISSILE.wav", "key_press": -1, "type": "PRES_AUD", "word": "missile", "wordID": 899, "conditions": [24, 1600, "a", 12000], "trial": 5, "serialpos": 22, "trial_type": "single-audio", "trial_index": 195, "time_elapsed": 952734, "internal_node_id": "0.0-141.0"}}, {"uniqueid": "MTK0942:3300DTYQT3ORVN55Y3SYWQDR9XREQJ", "current_trial": 196, "dateTime": 1512931249337, "trialdata": {"rt": -1000, "stimulus": "/static/audio/wordpool/PARTNER.wav", "key_press": -1, "type": "PRES_AUD", "word": "partner", "wordID": 1016, "conditions": [24, 1600, "a", 12000], "trial": 5, "serialpos": 23, "trial_type": "single-audio", "trial_index": 196, "time_elapsed": 955162, "internal_node_id": "0.0-142.0"}}, {"uniqueid": "MTK0942:3300DTYQT3ORVN55Y3SYWQDR9XREQJ", "current_trial": 197, "dateTime": 1512931250692, "trialdata": {"rt": -1, "stimulus": "", "key_press": -1, "type": "PRE_RECALL_DELAY", "trial_type": "single-stim", "trial_index": 197, "time_elapsed": 956517, "internal_node_id": "0.0-143.0-0.0"}}, {"uniqueid": "MTK0942:3300DTYQT3ORVN55Y3SYWQDR9XREQJ", "current_trial": 198, "dateTime": 1512931251194, "trialdata": {"rt": -1000, "stimulus": "/static/audio/400Hz.wav", "key_press": -1, "type": "PRE_RECALL_ALERT", "trial_type": "single-audio", "trial_index": 198, "time_elapsed": 957018, "internal_node_id": "0.0-144.0"}}, {"uniqueid": "MTK0942:3300DTYQT3ORVN55Y3SYWQDR9XREQJ", "current_trial": 199, "dateTime": 1512931311215, "trialdata": {"rt": [2521, 4954, 6729, 8435, 12207, 14759, 18974, 21048, 22610, 24548], "recwords": ["fox", "parrot", "missle", "marine", "rifle", "rocket", "partner", "lace", "shirt", "scarf"], "type": "FREE_RECALL", "conditions": [24, 1600, "a", 12000], "trial": 5, "trial_type": "free-recall", "trial_index": 199, "time_elapsed": 1017029, "internal_node_id": "0.0-145.0-0.0"}}, {"uniqueid": "MTK0942:3300DTYQT3ORVN55Y3SYWQDR9XREQJ", "current_trial": 200, "dateTime": 1512931323935, "trialdata": {"rt": 10718, "key_press": 32, "type": "INSTRUCTIONS", "trial_type": "text", "trial_index": 200, "time_elapsed": 1029760, "internal_node_id": "0.0-146.0"}}, {"uniqueid": "MTK0942:3300DTYQT3ORVN55Y3SYWQDR9XREQJ", "current_trial": 201, "dateTime": 1512931349941, "trialdata": {"rt": [2597, 4161, 6331, 7684, 9911, 12791, 14553, 22907], "responses": ["15", "8", "10", "13", "12", "12", "8", "13"], "num1": [2, 1, 1, 5, 2, 7, 3, 4, 2], "num2": [6, 6, 2, 3, 1, 1, 1, 5, 9], "num3": [7, 1, 7, 5, 9, 4, 4, 4, 9], "type": "DISTRACTOR", "conditions": [24, 1600, "v", 24000], "trial": 6, "trial_type": "math-distractor", "trial_index": 201, "time_elapsed": 1055766, "internal_node_id": "0.0-147.0"}}, {"uniqueid": "MTK0942:3300DTYQT3ORVN55Y3SYWQDR9XREQJ", "current_trial": 202, "dateTime": 1512931352946, "trialdata": {"rt": -1, "stimulus": "<p id=\"stim\">10</p>", "key_press": -1, "trial_type": "single-stim", "trial_index": 202, "time_elapsed": 1058770, "internal_node_id": "0.0-148.0-0.0"}}, {"uniqueid": "MTK0942:3300DTYQT3ORVN55Y3SYWQDR9XREQJ", "current_trial": 203, "dateTime": 1512931353950, "trialdata": {"rt": -1, "stimulus": "<p id=\"stim\">9</p>", "key_press": -1, "trial_type": "single-stim", "trial_index": 203, "time_elapsed": 1059775, "internal_node_id": "0.0-148.0-1.0"}}, {"uniqueid": "MTK0942:3300DTYQT3ORVN55Y3SYWQDR9XREQJ", "current_trial": 204, "dateTime": 1512931354954, "trialdata": {"rt": -1, "stimulus": "<p id=\"stim\">8</p>", "key_press": -1, "trial_type": "single-stim", "trial_index": 204, "time_elapsed": 1060779, "internal_node_id": "0.0-148.0-2.0"}}, {"uniqueid": "MTK0942:3300DTYQT3ORVN55Y3SYWQDR9XREQJ", "current_trial": 205, "dateTime": 1512931355957, "trialdata": {"rt": -1, "stimulus": "<p id=\"stim\">7</p>", "key_press": -1, "trial_type": "single-stim", "trial_index": 205, "time_elapsed": 1061782, "internal_node_id": "0.0-148.0-3.0"}}, {"uniqueid": "MTK0942:3300DTYQT3ORVN55Y3SYWQDR9XREQJ", "current_trial": 206, "dateTime": 1512931356959, "trialdata": {"rt": -1, "stimulus": "<p id=\"stim\">6</p>", "key_press": -1, "trial_type": "single-stim", "trial_index": 206, "time_elapsed": 1062784, "internal_node_id": "0.0-148.0-4.0"}}, {"uniqueid": "MTK0942:3300DTYQT3ORVN55Y3SYWQDR9XREQJ", "current_trial": 207, "dateTime": 1512931357963, "trialdata": {"rt": -1, "stimulus": "<p id=\"stim\">5</p>", "key_press": -1, "trial_type": "single-stim", "trial_index": 207, "time_elapsed": 1063787, "internal_node_id": "0.0-148.0-5.0"}}, {"uniqueid": "MTK0942:3300DTYQT3ORVN55Y3SYWQDR9XREQJ", "current_trial": 208, "dateTime": 1512931358965, "trialdata": {"rt": -1, "stimulus": "<p id=\"stim\">4</p>", "key_press": -1, "trial_type": "single-stim", "trial_index": 208, "time_elapsed": 1064789, "internal_node_id": "0.0-148.0-6.0"}}, {"uniqueid": "MTK0942:3300DTYQT3ORVN55Y3SYWQDR9XREQJ", "current_trial": 209, "dateTime": 1512931359970, "trialdata": {"rt": -1, "stimulus": "<p id=\"stim\">3</p>", "key_press": -1, "trial_type": "single-stim", "trial_index": 209, "time_elapsed": 1065795, "internal_node_id": "0.0-148.0-7.0"}}, {"uniqueid": "MTK0942:3300DTYQT3ORVN55Y3SYWQDR9XREQJ", "current_trial": 210, "dateTime": 1512931360978, "trialdata": {"rt": -1, "stimulus": "<p id=\"stim\">2</p>", "key_press": -1, "trial_type": "single-stim", "trial_index": 210, "time_elapsed": 1066802, "internal_node_id": "0.0-148.0-8.0"}}, {"uniqueid": "MTK0942:3300DTYQT3ORVN55Y3SYWQDR9XREQJ", "current_trial": 211, "dateTime": 1512931361982, "trialdata": {"rt": -1, "stimulus": "<p id=\"stim\">1</p>", "key_press": -1, "trial_type": "single-stim", "trial_index": 211, "time_elapsed": 1067807, "internal_node_id": "0.0-148.0-9.0"}}, {"uniqueid": "MTK0942:3300DTYQT3ORVN55Y3SYWQDR9XREQJ", "current_trial": 212, "dateTime": 1512931363486, "trialdata": {"rt": -1, "stimulus": "<p id=\"stim\">+</p>", "key_press": -1, "type": "FIXATION", "trial_type": "single-stim", "trial_index": 212, "time_elapsed": 1069310, "internal_node_id": "0.0-149.0-0.0"}}, {"uniqueid": "MTK0942:3300DTYQT3ORVN55Y3SYWQDR9XREQJ", "current_trial": 213, "dateTime": 1512931365089, "trialdata": {"rt": -1, "stimulus": "<p id=\"stim\">MUMMY</p>", "key_press": -1, "type": "PRES_VIS", "word": "mummy", "wordID": 931, "conditions": [24, 1600, "v", 24000], "trial": 6, "serialpos": 0, "trial_type": "single-stim", "trial_index": 213, "time_elapsed": 1070914, "internal_node_id": "0.0-150.0"}}, {"uniqueid": "MTK0942:3300DTYQT3ORVN55Y3SYWQDR9XREQJ", "current_trial": 214, "dateTime": 1512931367531, "trialdata": {"rt": -1, "stimulus": "<p id=\"stim\">PARSLEY</p>", "key_press": -1, "type": "PRES_VIS", "word": "parsley", "wordID": 1015, "conditions": [24, 1600, "v", 24000], "trial": 6, "serialpos": 1, "trial_type": "single-stim", "trial_index": 214, "time_elapsed": 1073356, "internal_node_id": "0.0-151.0"}}, {"uniqueid": "MTK0942:3300DTYQT3ORVN55Y3SYWQDR9XREQJ", "current_trial": 215, "dateTime": 1512931370319, "trialdata": {"rt": -1, "stimulus": "<p id=\"stim\">CABBAGE</p>", "key_press": -1, "type": "PRES_VIS", "word": "cabbage", "wordID": 209, "conditions": [24, 1600, "v", 24000], "trial": 6, "serialpos": 2, "trial_type": "single-stim", "trial_index": 215, "time_elapsed": 1076143, "internal_node_id": "0.0-152.0"}}, {"uniqueid": "MTK0942:3300DTYQT3ORVN55Y3SYWQDR9XREQJ", "current_trial": 216, "dateTime": 1512931373011, "trialdata": {"rt": -1, "stimulus": "<p id=\"stim\">KNIFE</p>", "key_press": -1, "type": "PRES_VIS", "word": "knife", "wordID": 784, "conditions": [24, 1600, "v", 24000], "trial": 6, "serialpos": 3, "trial_type": "single-stim", "trial_index": 216, "time_elapsed": 1078835, "internal_node_id": "0.0-153.0"}}, {"uniqueid": "MTK0942:3300DTYQT3ORVN55Y3SYWQDR9XREQJ", "current_trial": 217, "dateTime": 1512931375611, "trialdata": {"rt": -1, "stimulus": "<p id=\"stim\">IGLOO</p>", "key_press": -1, "type": "PRES_VIS", "word": "igloo", "wordID": 733, "conditions": [24, 1600, "v", 24000], "trial": 6, "serialpos": 4, "trial_type": "single-stim", "trial_index": 217, "time_elapsed": 1081435, "internal_node_id": "0.0-154.0"}}, {"uniqueid": "MTK0942:3300DTYQT3ORVN55Y3SYWQDR9XREQJ", "current_trial": 218, "dateTime": 1512931378075, "trialdata": {"rt": -1, "stimulus": "<p id=\"stim\">TOURIST</p>", "key_press": -1, "type": "PRES_VIS", "word": "tourist", "wordID": 1487, "conditions": [24, 1600, "v", 24000], "trial": 6, "serialpos": 5, "trial_type": "single-stim", "trial_index": 218, "time_elapsed": 1083899, "internal_node_id": "0.0-155.0"}}, {"uniqueid": "MTK0942:3300DTYQT3ORVN55Y3SYWQDR9XREQJ", "current_trial": 219, "dateTime": 1512931380792, "trialdata": {"rt": -1, "stimulus": "<p id=\"stim\">BUCKET</p>", "key_press": -1, "type": "PRES_VIS", "word": "bucket", "wordID": 183, "conditions": [24, 1600, "v", 24000], "trial": 6, "serialpos": 6, "trial_type": "single-stim", "trial_index": 219, "time_elapsed": 1086616, "internal_node_id": "0.0-156.0"}}, {"uniqueid": "MTK0942:3300DTYQT3ORVN55Y3SYWQDR9XREQJ", "current_trial": 220, "dateTime": 1512931383396, "trialdata": {"rt": -1, "stimulus": "<p id=\"stim\">BACON</p>", "key_press": -1, "type": "PRES_VIS", "word": "bacon", "wordID": 66, "conditions": [24, 1600, "v", 24000], "trial": 6, "serialpos": 7, "trial_type": "single-stim", "trial_index": 220, "time_elapsed": 1089221, "internal_node_id": "0.0-157.0"}}, {"uniqueid": "MTK0942:3300DTYQT3ORVN55Y3SYWQDR9XREQJ", "current_trial": 221, "dateTime": 1512931385936, "trialdata": {"rt": -1, "stimulus": "<p id=\"stim\">STAPLE</p>", "key_press": -1, "type": "PRES_VIS", "word": "staple", "wordID": 1370, "conditions": [24, 1600, "v", 24000], "trial": 6, "serialpos": 8, "trial_type": "single-stim", "trial_index": 221, "time_elapsed": 1091761, "internal_node_id": "0.0-158.0"}}, {"uniqueid": "MTK0942:3300DTYQT3ORVN55Y3SYWQDR9XREQJ", "current_trial": 222, "dateTime": 1512931388347, "trialdata": {"rt": -1, "stimulus": "<p id=\"stim\">CRATER</p>", "key_press": -1, "type": "PRES_VIS", "word": "crater", "wordID": 399, "conditions": [24, 1600, "v", 24000], "trial": 6, "serialpos": 9, "trial_type": "single-stim", "trial_index": 222, "time_elapsed": 1094172, "internal_node_id": "0.0-159.0"}}, {"uniqueid": "MTK0942:3300DTYQT3ORVN55Y3SYWQDR9XREQJ", "current_trial": 223, "dateTime": 1512931391055, "trialdata": {"rt": -1, "stimulus": "<p id=\"stim\">BROOK</p>", "key_press": -1, "type": "PRES_VIS", "word": "brook", "wordID": 176, "conditions": [24, 1600, "v", 24000], "trial": 6, "serialpos": 10, "trial_type": "single-stim", "trial_index": 223, "time_elapsed": 1096880, "internal_node_id": "0.0-160.0"}}, {"uniqueid": "MTK0942:3300DTYQT3ORVN55Y3SYWQDR9XREQJ", "current_trial": 224, "dateTime": 1512931393819, "trialdata": {"rt": -1, "stimulus": "<p id=\"stim\">BLADE</p>", "key_press": -1, "type": "PRES_VIS", "word": "blade", "wordID": 133, "conditions": [24, 1600, "v", 24000], "trial": 6, "serialpos": 11, "trial_type": "single-stim", "trial_index": 224, "time_elapsed": 1099643, "internal_node_id": "0.0-161.0"}}, {"uniqueid": "MTK0942:3300DTYQT3ORVN55Y3SYWQDR9XREQJ", "current_trial": 225, "dateTime": 1512931396290, "trialdata": {"rt": -1, "stimulus": "<p id=\"stim\">PORTRAIT</p>", "key_press": -1, "type": "PRES_VIS", "word": "portrait", "wordID": 1110, "conditions": [24, 1600, "v", 24000], "trial": 6, "serialpos": 12, "trial_type": "single-stim", "trial_index": 225, "time_elapsed": 1102114, "internal_node_id": "0.0-162.0"}}, {"uniqueid": "MTK0942:3300DTYQT3ORVN55Y3SYWQDR9XREQJ", "current_trial": 226, "dateTime": 1512931398785, "trialdata": {"rt": -1, "stimulus": "<p id=\"stim\">TOMBSTONE</p>", "key_press": -1, "type": "PRES_VIS", "word": "tombstone", "wordID": 1477, "conditions": [24, 1600, "v", 24000], "trial": 6, "serialpos": 13, "trial_type": "single-stim", "trial_index": 226, "time_elapsed": 1104609, "internal_node_id": "0.0-163.0"}}, {"uniqueid": "MTK0942:3300DTYQT3ORVN55Y3SYWQDR9XREQJ", "current_trial": 227, "dateTime": 1512931401234, "trialdata": {"rt": -1, "stimulus": "<p id=\"stim\">BUG</p>", "key_press": -1, "type": "PRES_VIS", "word": "bug", "wordID": 186, "conditions": [24, 1600, "v", 24000], "trial": 6, "serialpos": 14, "trial_type": "single-stim", "trial_index": 227, "time_elapsed": 1107058, "internal_node_id": "0.0-164.0"}}, {"uniqueid": "MTK0942:3300DTYQT3ORVN55Y3SYWQDR9XREQJ", "current_trial": 228, "dateTime": 1512931403736, "trialdata": {"rt": -1, "stimulus": "<p id=\"stim\">ONION</p>", "key_press": -1, "type": "PRES_VIS", "word": "onion", "wordID": 976, "conditions": [24, 1600, "v", 24000], "trial": 6, "serialpos": 15, "trial_type": "single-stim", "trial_index": 228, "time_elapsed": 1109559, "internal_node_id": "0.0-165.0"}}, {"uniqueid": "MTK0942:3300DTYQT3ORVN55Y3SYWQDR9XREQJ", "current_trial": 229, "dateTime": 1512931406246, "trialdata": {"rt": -1, "stimulus": "<p id=\"stim\">APPLE</p>", "key_press": -1, "type": "PRES_VIS", "word": "apple", "wordID": 32, "conditions": [24, 1600, "v", 24000], "trial": 6, "serialpos": 16, "trial_type": "single-stim", "trial_index": 229, "time_elapsed": 1112070, "internal_node_id": "0.0-166.0"}}, {"uniqueid": "MTK0942:3300DTYQT3ORVN55Y3SYWQDR9XREQJ", "current_trial": 230, "dateTime": 1512931408866, "trialdata": {"rt": -1, "stimulus": "<p id=\"stim\">PASTA</p>", "key_press": -1, "type": "PRES_VIS", "word": "pasta", "wordID": 1020, "conditions": [24, 1600, "v", 24000], "trial": 6, "serialpos": 17, "trial_type": "single-stim", "trial_index": 230, "time_elapsed": 1114690, "internal_node_id": "0.0-167.0"}}, {"uniqueid": "MTK0942:3300DTYQT3ORVN55Y3SYWQDR9XREQJ", "current_trial": 231, "dateTime": 1512931411393, "trialdata": {"rt": -1, "stimulus": "<p id=\"stim\">AIRPORT</p>", "key_press": -1, "type": "PRES_VIS", "word": "airport", "wordID": 12, "conditions": [24, 1600, "v", 24000], "trial": 6, "serialpos": 18, "trial_type": "single-stim", "trial_index": 231, "time_elapsed": 1117217, "internal_node_id": "0.0-168.0"}}, {"uniqueid": "MTK0942:3300DTYQT3ORVN55Y3SYWQDR9XREQJ", "current_trial": 232, "dateTime": 1512931413900, "trialdata": {"rt": -1, "stimulus": "<p id=\"stim\">SCULPTURE</p>", "key_press": -1, "type": "PRES_VIS", "word": "sculpture", "wordID": 1257, "conditions": [24, 1600, "v", 24000], "trial": 6, "serialpos": 19, "trial_type": "single-stim", "trial_index": 232, "time_elapsed": 1119725, "internal_node_id": "0.0-169.0"}}, {"uniqueid": "MTK0942:3300DTYQT3ORVN55Y3SYWQDR9XREQJ", "current_trial": 233, "dateTime": 1512931416577, "trialdata": {"rt": -1, "stimulus": "<p id=\"stim\">HARP</p>", "key_press": -1, "type": "PRES_VIS", "word": "harp", "wordID": 688, "conditions": [24, 1600, "v", 24000], "trial": 6, "serialpos": 20, "trial_type": "single-stim", "trial_index": 233, "time_elapsed": 1122401, "internal_node_id": "0.0-170.0"}}, {"uniqueid": "MTK0942:3300DTYQT3ORVN55Y3SYWQDR9XREQJ", "current_trial": 234, "dateTime": 1512931419297, "trialdata": {"rt": -1, "stimulus": "<p id=\"stim\">PASTRY</p>", "key_press": -1, "type": "PRES_VIS", "word": "pastry", "wordID": 1021, "conditions": [24, 1600, "v", 24000], "trial": 6, "serialpos": 21, "trial_type": "single-stim", "trial_index": 234, "time_elapsed": 1125122, "internal_node_id": "0.0-171.0"}}, {"uniqueid": "MTK0942:3300DTYQT3ORVN55Y3SYWQDR9XREQJ", "current_trial": 235, "dateTime": 1512931421858, "trialdata": {"rt": -1, "stimulus": "<p id=\"stim\">STATUE</p>", "key_press": -1, "type": "PRES_VIS", "word": "statue", "wordID": 1373, "conditions": [24, 1600, "v", 24000], "trial": 6, "serialpos": 22, "trial_type": "single-stim", "trial_index": 235, "time_elapsed": 1127682, "internal_node_id": "0.0-172.0"}}, {"uniqueid": "MTK0942:3300DTYQT3ORVN55Y3SYWQDR9XREQJ", "current_trial": 236, "dateTime": 1512931424375, "trialdata": {"rt": -1, "stimulus": "<p id=\"stim\">CONCERT</p>", "key_press": -1, "type": "PRES_VIS", "word": "concert", "wordID": 359, "conditions": [24, 1600, "v", 24000], "trial": 6, "serialpos": 23, "trial_type": "single-stim", "trial_index": 236, "time_elapsed": 1130199, "internal_node_id": "0.0-173.0"}}, {"uniqueid": "MTK0942:3300DTYQT3ORVN55Y3SYWQDR9XREQJ", "current_trial": 237, "dateTime": 1512931426870, "trialdata": {"rt": -1, "stimulus": "", "key_press": -1, "type": "PRE_RECALL_DELAY", "trial_type": "single-stim", "trial_index": 237, "time_elapsed": 1132695, "internal_node_id": "0.0-174.0-0.0"}}, {"uniqueid": "MTK0942:3300DTYQT3ORVN55Y3SYWQDR9XREQJ", "current_trial": 238, "dateTime": 1512931427382, "trialdata": {"rt": -1000, "stimulus": "/static/audio/400Hz.wav", "key_press": -1, "type": "PRE_RECALL_ALERT", "trial_type": "single-audio", "trial_index": 238, "time_elapsed": 1133207, "internal_node_id": "0.0-175.0"}}, {"uniqueid": "MTK0942:3300DTYQT3ORVN55Y3SYWQDR9XREQJ", "current_trial": 239, "dateTime": 1512931487397, "trialdata": {"rt": [7533, 10265, 11505, 13830, 21335, 24013, 30944, 32310], "recwords": ["parsley", "cabbage", "onion", "apple", "pasta", "pastry", "bacon", "bug"], "type": "FREE_RECALL", "conditions": [24, 1600, "v", 24000], "trial": 6, "trial_type": "free-recall", "trial_index": 239, "time_elapsed": 1193212, "internal_node_id": "0.0-176.0-0.0"}}, {"uniqueid": "MTK0942:3300DTYQT3ORVN55Y3SYWQDR9XREQJ", "current_trial": 240, "dateTime": 1512931516758, "trialdata": {"rt": 27358, "key_press": 67, "type": "INSTRUCTIONS", "trial_type": "text", "trial_index": 240, "time_elapsed": 1222582, "internal_node_id": "0.0-177.0"}}, {"uniqueid": "MTK0942:3300DTYQT3ORVN55Y3SYWQDR9XREQJ", "current_trial": 241, "dateTime": 1512931542762, "trialdata": {"rt": [2427, 5551, 8041, 9845, 12675, 17412, 19203], "responses": ["19", "11", "14", "15", "14", "22", "10"], "num1": [7, 6, 6, 7, 3, 6, 4, 6], "num2": [5, 2, 5, 1, 9, 8, 3, 9], "num3": [7, 3, 3, 7, 2, 8, 3, 7], "type": "DISTRACTOR", "conditions": [12, 800, "a", 24000], "trial": 7, "trial_type": "math-distractor", "trial_index": 241, "time_elapsed": 1248587, "internal_node_id": "0.0-178.0"}}, {"uniqueid": "MTK0942:3300DTYQT3ORVN55Y3SYWQDR9XREQJ", "current_trial": 242, "dateTime": 1512931545764, "trialdata": {"rt": -1, "stimulus": "<p id=\"stim\">10</p>", "key_press": -1, "trial_type": "single-stim", "trial_index": 242, "time_elapsed": 1251589, "internal_node_id": "0.0-179.0-0.0"}}, {"uniqueid": "MTK0942:3300DTYQT3ORVN55Y3SYWQDR9XREQJ", "current_trial": 243, "dateTime": 1512931546766, "trialdata": {"rt": -1, "stimulus": "<p id=\"stim\">9</p>", "key_press": -1, "trial_type": "single-stim", "trial_index": 243, "time_elapsed": 1252590, "internal_node_id": "0.0-179.0-1.0"}}, {"uniqueid": "MTK0942:3300DTYQT3ORVN55Y3SYWQDR9XREQJ", "current_trial": 244, "dateTime": 1512931547771, "trialdata": {"rt": -1, "stimulus": "<p id=\"stim\">8</p>", "key_press": -1, "trial_type": "single-stim", "trial_index": 244, "time_elapsed": 1253595, "internal_node_id": "0.0-179.0-2.0"}}, {"uniqueid": "MTK0942:3300DTYQT3ORVN55Y3SYWQDR9XREQJ", "current_trial": 245, "dateTime": 1512931548774, "trialdata": {"rt": -1, "stimulus": "<p id=\"stim\">7</p>", "key_press": -1, "trial_type": "single-stim", "trial_index": 245, "time_elapsed": 1254598, "internal_node_id": "0.0-179.0-3.0"}}, {"uniqueid": "MTK0942:3300DTYQT3ORVN55Y3SYWQDR9XREQJ", "current_trial": 246, "dateTime": 1512931549776, "trialdata": {"rt": -1, "stimulus": "<p id=\"stim\">6</p>", "key_press": -1, "trial_type": "single-stim", "trial_index": 246, "time_elapsed": 1255601, "internal_node_id": "0.0-179.0-4.0"}}, {"uniqueid": "MTK0942:3300DTYQT3ORVN55Y3SYWQDR9XREQJ", "current_trial": 247, "dateTime": 1512931550780, "trialdata": {"rt": -1, "stimulus": "<p id=\"stim\">5</p>", "key_press": -1, "trial_type": "single-stim", "trial_index": 247, "time_elapsed": 1256603, "internal_node_id": "0.0-179.0-5.0"}}, {"uniqueid": "MTK0942:3300DTYQT3ORVN55Y3SYWQDR9XREQJ", "current_trial": 248, "dateTime": 1512931551781, "trialdata": {"rt": -1, "stimulus": "<p id=\"stim\">4</p>", "key_press": -1, "trial_type": "single-stim", "trial_index": 248, "time_elapsed": 1257606, "internal_node_id": "0.0-179.0-6.0"}}, {"uniqueid": "MTK0942:3300DTYQT3ORVN55Y3SYWQDR9XREQJ", "current_trial": 249, "dateTime": 1512931552784, "trialdata": {"rt": -1, "stimulus": "<p id=\"stim\">3</p>", "key_press": -1, "trial_type": "single-stim", "trial_index": 249, "time_elapsed": 1258608, "internal_node_id": "0.0-179.0-7.0"}}, {"uniqueid": "MTK0942:3300DTYQT3ORVN55Y3SYWQDR9XREQJ", "current_trial": 250, "dateTime": 1512931553785, "trialdata": {"rt": -1, "stimulus": "<p id=\"stim\">2</p>", "key_press": -1, "trial_type": "single-stim", "trial_index": 250, "time_elapsed": 1259610, "internal_node_id": "0.0-179.0-8.0"}}, {"uniqueid": "MTK0942:3300DTYQT3ORVN55Y3SYWQDR9XREQJ", "current_trial": 251, "dateTime": 1512931554789, "trialdata": {"rt": -1, "stimulus": "<p id=\"stim\">1</p>", "key_press": -1, "trial_type": "single-stim", "trial_index": 251, "time_elapsed": 1260613, "internal_node_id": "0.0-179.0-9.0"}}, {"uniqueid": "MTK0942:3300DTYQT3ORVN55Y3SYWQDR9XREQJ", "current_trial": 252, "dateTime": 1512931556291, "trialdata": {"rt": -1, "stimulus": "<p id=\"stim\">+</p>", "key_press": -1, "type": "FIXATION", "trial_type": "single-stim", "trial_index": 252, "time_elapsed": 1262115, "internal_node_id": "0.0-180.0-0.0"}}, {"uniqueid": "MTK0942:3300DTYQT3ORVN55Y3SYWQDR9XREQJ", "current_trial": 253, "dateTime": 1512931558191, "trialdata": {"rt": -1000, "stimulus": "/static/audio/wordpool/PECAN.wav", "key_press": -1, "type": "PRES_AUD", "word": "pecan", "wordID": 1035, "conditions": [12, 800, "a", 24000], "trial": 7, "serialpos": 0, "trial_type": "single-audio", "trial_index": 253, "time_elapsed": 1264016, "internal_node_id": "0.0-181.0"}}, {"uniqueid": "MTK0942:3300DTYQT3ORVN55Y3SYWQDR9XREQJ", "current_trial": 254, "dateTime": 1512931560144, "trialdata": {"rt": -1000, "stimulus": "/static/audio/wordpool/BISON.wav", "key_press": -1, "type": "PRES_AUD", "word": "bison", "wordID": 130, "conditions": [12, 800, "a", 24000], "trial": 7, "serialpos": 1, "trial_type": "single-audio", "trial_index": 254, "time_elapsed": 1265968, "internal_node_id": "0.0-182.0"}}, {"uniqueid": "MTK0942:3300DTYQT3ORVN55Y3SYWQDR9XREQJ", "current_trial": 255, "dateTime": 1512931561894, "trialdata": {"rt": -1000, "stimulus": "/static/audio/wordpool/LABEL.wav", "key_press": -1, "type": "PRES_AUD", "word": "label", "wordID": 789, "conditions": [12, 800, "a", 24000], "trial": 7, "serialpos": 2, "trial_type": "single-audio", "trial_index": 255, "time_elapsed": 1267718, "internal_node_id": "0.0-183.0"}}, {"uniqueid": "MTK0942:3300DTYQT3ORVN55Y3SYWQDR9XREQJ", "current_trial": 256, "dateTime": 1512931563507, "trialdata": {"rt": -1000, "stimulus": "/static/audio/wordpool/STREAM.wav", "key_press": -1, "type": "PRES_AUD", "word": "stream", "wordID": 1391, "conditions": [12, 800, "a", 24000], "trial": 7, "serialpos": 3, "trial_type": "single-audio", "trial_index": 256, "time_elapsed": 1269331, "internal_node_id": "0.0-184.0"}}, {"uniqueid": "MTK0942:3300DTYQT3ORVN55Y3SYWQDR9XREQJ", "current_trial": 257, "dateTime": 1512931565391, "trialdata": {"rt": -1000, "stimulus": "/static/audio/wordpool/BELLY.wav", "key_press": -1, "type": "PRES_AUD", "word": "belly", "wordID": 118, "conditions": [12, 800, "a", 24000], "trial": 7, "serialpos": 4, "trial_type": "single-audio", "trial_index": 257, "time_elapsed": 1271216, "internal_node_id": "0.0-185.0"}}, {"uniqueid": "MTK0942:3300DTYQT3ORVN55Y3SYWQDR9XREQJ", "current_trial": 258, "dateTime": 1512931567099, "trialdata": {"rt": -1000, "stimulus": "/static/audio/wordpool/BROTHER.wav", "key_press": -1, "type": "PRES_AUD", "word": "brother", "wordID": 178, "conditions": [12, 800, "a", 24000], "trial": 7, "serialpos": 5, "trial_type": "single-audio", "trial_index": 258, "time_elapsed": 1272924, "internal_node_id": "0.0-186.0"}}, {"uniqueid": "MTK0942:3300DTYQT3ORVN55Y3SYWQDR9XREQJ", "current_trial": 259, "dateTime": 1512931568819, "trialdata": {"rt": -1000, "stimulus": "/static/audio/wordpool/COUSIN.wav", "key_press": -1, "type": "PRES_AUD", "word": "cousin", "wordID": 391, "conditions": [12, 800, "a", 24000], "trial": 7, "serialpos": 6, "trial_type": "single-audio", "trial_index": 259, "time_elapsed": 1274644, "internal_node_id": "0.0-187.0"}}, {"uniqueid": "MTK0942:3300DTYQT3ORVN55Y3SYWQDR9XREQJ", "current_trial": 260, "dateTime": 1512931570773, "trialdata": {"rt": -1000, "stimulus": "/static/audio/wordpool/CROSS.wav", "key_press": -1, "type": "PRES_AUD", "word": "cross", "wordID": 412, "conditions": [12, 800, "a", 24000], "trial": 7, "serialpos": 7, "trial_type": "single-audio", "trial_index": 260, "time_elapsed": 1276598, "internal_node_id": "0.0-188.0"}}, {"uniqueid": "MTK0942:3300DTYQT3ORVN55Y3SYWQDR9XREQJ", "current_trial": 261, "dateTime": 1512931572417, "trialdata": {"rt": -1000, "stimulus": "/static/audio/wordpool/WOMAN.wav", "key_press": -1, "type": "PRES_AUD", "word": "woman", "wordID": 1619, "conditions": [12, 800, "a", 24000], "trial": 7, "serialpos": 8, "trial_type": "single-audio", "trial_index": 261, "time_elapsed": 1278242, "internal_node_id": "0.0-189.0"}}, {"uniqueid": "MTK0942:3300DTYQT3ORVN55Y3SYWQDR9XREQJ", "current_trial": 262, "dateTime": 1512931574314, "trialdata": {"rt": -1000, "stimulus": "/static/audio/wordpool/HIKER.wav", "key_press": -1, "type": "PRES_AUD", "word": "hiker", "wordID": 707, "conditions": [12, 800, "a", 24000], "trial": 7, "serialpos": 9, "trial_type": "single-audio", "trial_index": 262, "time_elapsed": 1280139, "internal_node_id": "0.0-190.0"}}, {"uniqueid": "MTK0942:3300DTYQT3ORVN55Y3SYWQDR9XREQJ", "current_trial": 263, "dateTime": 1512931576281, "trialdata": {"rt": -1000, "stimulus": "/static/audio/wordpool/SHORTS.wav", "key_press": -1, "type": "PRES_AUD", "word": "shorts", "wordID": 1292, "conditions": [12, 800, "a", 24000], "trial": 7, "serialpos": 10, "trial_type": "single-audio", "trial_index": 263, "time_elapsed": 1282104, "internal_node_id": "0.0-191.0"}}, {"uniqueid": "MTK0942:3300DTYQT3ORVN55Y3SYWQDR9XREQJ", "current_trial": 264, "dateTime": 1512931578120, "trialdata": {"rt": -1000, "stimulus": "/static/audio/wordpool/PEANUT.wav", "key_press": -1, "type": "PRES_AUD", "word": "peanut", "wordID": 1031, "conditions": [12, 800, "a", 24000], "trial": 7, "serialpos": 11, "trial_type": "single-audio", "trial_index": 264, "time_elapsed": 1283945, "internal_node_id": "0.0-192.0"}}, {"uniqueid": "MTK0942:3300DTYQT3ORVN55Y3SYWQDR9XREQJ", "current_trial": 265, "dateTime": 1512931579433, "trialdata": {"rt": -1, "stimulus": "", "key_press": -1, "type": "PRE_RECALL_DELAY", "trial_type": "single-stim", "trial_index": 265, "time_elapsed": 1285258, "internal_node_id": "0.0-193.0-0.0"}}, {"uniqueid": "MTK0942:3300DTYQT3ORVN55Y3SYWQDR9XREQJ", "current_trial": 266, "dateTime": 1512931579934, "trialdata": {"rt": -1000, "stimulus": "/static/audio/400Hz.wav", "key_press": -1, "type": "PRE_RECALL_ALERT", "trial_type": "single-audio", "trial_index": 266, "time_elapsed": 1285759, "internal_node_id": "0.0-194.0"}}, {"uniqueid": "MTK0942:3300DTYQT3ORVN55Y3SYWQDR9XREQJ", "current_trial": 267, "dateTime": 1512931639944, "trialdata": {"rt": [3863, 6928, 9515, 11609, 13357, 14903, 17538], "recwords": ["pecan", "peanut", "bison", "cousin", "brother", "woman", "hiker"], "type": "FREE_RECALL", "conditions": [12, 800, "a", 24000], "trial": 7, "trial_type": "free-recall", "trial_index": 267, "time_elapsed": 1345763, "internal_node_id": "0.0-195.0-0.0"}}, {"uniqueid": "MTK0942:3300DTYQT3ORVN55Y3SYWQDR9XREQJ", "current_trial": 268, "dateTime": 1512931643394, "trialdata": {"rt": 1447, "key_press": 32, "type": "INSTRUCTIONS", "trial_type": "text", "trial_index": 268, "time_elapsed": 1349218, "internal_node_id": "0.0-196.0"}}, {"uniqueid": "MTK0942:3300DTYQT3ORVN55Y3SYWQDR9XREQJ", "current_trial": 269, "dateTime": 1512931669399, "trialdata": {"rt": [2386, 6252, 8367, 10239, 13082, 15114, 17037, 22600], "responses": ["17", "15", "17", "10", "7", "14", "7", "16"], "num1": [7, 5, 2, 1, 4, 2, 1, 6, 9], "num2": [6, 6, 9, 5, 2, 9, 3, 2, 9], "num3": [4, 4, 6, 4, 1, 3, 3, 7, 2], "type": "DISTRACTOR", "conditions": [24, 1600, "a", 24000], "trial": 8, "trial_type": "math-distractor", "trial_index": 269, "time_elapsed": 1375224, "internal_node_id": "0.0-197.0"}}, {"uniqueid": "MTK0942:3300DTYQT3ORVN55Y3SYWQDR9XREQJ", "current_trial": 270, "dateTime": 1512931672404, "trialdata": {"rt": -1, "stimulus": "<p id=\"stim\">10</p>", "key_press": -1, "trial_type": "single-stim", "trial_index": 270, "time_elapsed": 1378228, "internal_node_id": "0.0-198.0-0.0"}}, {"uniqueid": "MTK0942:3300DTYQT3ORVN55Y3SYWQDR9XREQJ", "current_trial": 271, "dateTime": 1512931673406, "trialdata": {"rt": -1, "stimulus": "<p id=\"stim\">9</p>", "key_press": -1, "trial_type": "single-stim", "trial_index": 271, "time_elapsed": 1379231, "internal_node_id": "0.0-198.0-1.0"}}, {"uniqueid": "MTK0942:3300DTYQT3ORVN55Y3SYWQDR9XREQJ", "current_trial": 272, "dateTime": 1512931674410, "trialdata": {"rt": -1, "stimulus": "<p id=\"stim\">8</p>", "key_press": -1, "trial_type": "single-stim", "trial_index": 272, "time_ela